##NAMES=Axinite-(Fe)
##RRUFFID=R050026
##IDEAL CHEMISTRY=Ca_4_Fe^2+^_2_Al_4_[B_2_Si_8_O_30_](OH)_2_
##LOCALITY=Pouyva mine, Polar Urals, Western Siberian Region, Russia
##OWNER=RRUFF
##SOURCE=Rock Currier
##DESCRIPTION=Brown transparent flat crystal
##STATUS=The identification of this mineral has been confirmed by X-ray diffraction and chemical analysis
##URL=rruff.info/R050026
##MEASURED CHEMISTRY=Ca_2.00_(Fe^2+^_0.61_Mn_0.26_Mg_0.13_)Al_2.00_BSi_4_O_15_(OH)
##PIN_ID=L00535
##ORIENTATION=Laser parallel to -c* (0 0 -1). Fiducial mark perpendicular to laser is parallel to a [1 0 0]
130.217, 0.000
131.612, 5.599
133.006, 17.657
134.400, 122.512
135.794, 218.944
137.188, 308.703
138.581, 480.966
139.975, 484.707
141.368, 478.192
142.760, 641.498
144.153, 899.272
145.545, 1318.511
146.937, 1756.621
148.329, 2109.662
149.720, 2189.066
151.112, 2059.493
152.503, 1952.737
153.893, 1873.693
155.284, 1014.669
156.674, 455.734
158.064, 242.741
159.454, 151.848
160.843, 230.423
162.233, 350.826
163.622, 497.353
165.011, 939.247
166.399, 1515.708
167.787, 2139.907
169.175, 2624.986
170.563, 2768.606
171.951, 3036.272
173.338, 2640.691
174.725, 2238.421
176.112, 1659.542
177.499, 1161.393
178.885, 878.720
180.271, 631.132
181.657, 542.749
183.043, 471.947
184.428, 487.446
185.813, 569.516
187.198, 795.431
188.583, 1093.527
189.967, 1475.816
191.351, 2065.323
192.735, 2329.008
194.119, 2239.856
195.502, 1806.859
196.885, 1450.002
198.268, 1467.254
199.651, 1666.589
201.033, 2099.000
202.415, 2665.488
203.797, 3262.047
205.179, 3694.676
206.561, 3826.372
207.942, 3784.134
209.323, 3483.958
210.703, 3195.843
212.084, 2707.789
213.464, 2353.856
214.844, 2066.116
216.224, 1811.544
217.603, 1669.113
218.983, 1378.811
220.362, 1099.637
221.741, 785.584
223.119, 443.646
224.497, 258.817
225.875, 60.091
227.253, 69.541
228.631, 183.088
230.008, 246.344
231.385, 262.341
232.762, 265.295
234.139, 196.571
235.515, 127.791
236.891, 36.956
238.267, 16.925
239.643, 119.824
241.018, 293.729
242.393, 311.639
243.768, 445.556
245.143, 465.479
246.517, 555.412
247.891, 635.619
249.265, 771.025
250.639, 966.357
252.012, 1188.170
253.386, 1463.725
254.759, 1568.294
256.131, 1538.874
257.504, 1299.462
258.876, 1073.057
260.248, 939.675
261.620, 904.245
262.991, 1105.523
264.363, 1261.384
265.734, 1429.912
267.104, 1638.306
268.475, 2031.694
269.845, 2369.103
271.215, 2738.531
272.585, 3045.978
273.955, 3143.442
275.324, 3125.925
276.693, 2900.424
278.062, 2611.940
279.431, 2249.470
280.799, 1929.015
282.167, 1732.575
283.535, 1603.149
284.903, 1484.736
286.270, 1476.337
287.638, 1434.950
289.005, 1393.576
290.371, 1442.213
291.738, 1410.861
293.104, 1492.699
294.470, 1592.198
295.836, 1773.781
297.201, 1858.528
298.567, 2220.609
299.932, 2604.643
301.296, 3177.990
302.661, 3792.004
304.025, 4426.854
305.389, 4986.754
306.753, 4885.688
308.117, 4597.638
309.480, 3827.587
310.843, 3039.518
312.206, 2526.420
313.569, 2142.292
314.931, 2101.140
316.293, 2071.959
317.655, 2133.747
319.017, 2147.501
320.378, 2019.196
321.740, 1754.786
323.101, 1462.263
324.461, 1340.642
325.822, 1150.931
327.182, 1112.143
328.542, 1073.282
329.902, 1018.357
331.261, 1040.374
332.621, 1044.340
333.980, 1227.261
335.339, 1442.149
336.697, 1824.003
338.056, 2422.845
339.414, 3034.671
340.772, 3635.495
342.129, 3952.315
343.487, 4001.967
344.844, 3791.100
346.201, 3368.656
347.557, 3257.833
348.914, 3111.895
350.270, 3118.966
351.626, 3039.054
352.982, 2557.162
354.337, 2130.287
355.693, 1551.428
357.048, 1107.584
358.402, 768.754
359.757, 555.938
361.111, 334.648
362.465, 239.877
363.819, 204.538
365.173, 147.270
366.526, 134.771
367.879, 181.796
369.232, 171.272
370.585, 212.005
371.937, 271.761
373.290, 355.616
374.642, 361.235
375.993, 326.974
377.345, 432.887
378.696, 466.827
380.047, 690.584
381.398, 896.550
382.748, 1343.398
384.099, 1835.092
385.449, 2469.047
386.799, 3299.992
388.148, 3879.739
389.497, 4243.863
390.847, 4143.821
392.196, 3778.646
393.544, 3189.711
394.893, 2585.783
396.241, 2123.458
397.589, 1664.224
398.936, 1305.274
400.284, 1035.079
401.631, 804.959
402.978, 694.755
404.325, 593.050
405.672, 602.343
407.018, 696.633
408.364, 780.921
409.710, 1096.207
411.055, 1486.488
412.401, 2252.760
413.746, 3162.023
415.091, 4092.280
416.435, 4996.530
417.780, 5040.774
419.124, 4599.012
420.468, 3917.244
421.812, 3414.469
423.155, 3016.689
424.498, 2695.901
425.842, 2552.109
427.184, 2312.312
428.527, 2145.514
429.869, 1840.713
431.211, 1542.912
432.553, 1242.107
433.895, 961.301
435.236, 851.493
436.577, 657.682
437.918, 602.869
439.259, 720.052
440.599, 786.233
441.940, 1017.411
443.280, 1242.586
444.619, 1215.757
445.959, 1057.924
447.298, 807.089
448.637, 540.250
449.976, 300.406
451.315, 153.558
452.653, 101.706
453.991, 39.849
455.329, 48.985
456.667, 54.889
458.004, 12.810
459.341, 40.754
460.678, 23.260
462.015, 5.254
463.352, 84.225
464.688, 169.177
466.024, 204.110
467.360, 366.026
468.695, 445.924
470.031, 481.802
471.366, 594.861
472.701, 636.814
474.035, 769.058
475.370, 931.790
476.704, 1366.961
478.038, 1994.726
479.372, 2657.721
480.705, 3730.584
482.038, 4716.316
483.371, 5555.062
484.704, 5851.806
486.037, 5086.553
487.369, 3975.315
488.701, 2833.080
490.033, 1968.862
491.365, 1421.811
492.696, 1035.960
494.027, 854.458
495.358, 666.613
496.689, 690.828
498.019, 717.093
499.350, 766.279
500.680, 968.842
502.009, 1046.834
503.339, 1192.258
504.668, 1329.707
505.997, 1385.625
507.326, 1483.479
508.655, 1431.042
509.983, 1359.595
511.311, 1214.137
512.639, 1042.671
513.967, 804.207
515.295, 607.738
516.622, 437.277
517.949, 246.817
519.276, 171.357
520.602, 46.902
521.929, 29.563
523.255, 52.064
524.581, 100.757
525.906, 112.790
527.232, 120.988
528.557, 112.107
529.882, 52.382
531.207, 84.552
532.531, 36.435
533.855, 2.597
535.179, 51.344
536.503, 30.267
537.827, 27.171
539.150, 49.057
540.473, 23.925
541.796, 37.773
543.119, 63.603
544.441, 24.416
545.764, 25.209
547.086, 22.018
548.407, 4.719
549.729, 24.441
551.050, 22.817
552.371, 16.955
553.692, 20.792
555.013, 60.698
556.333, 127.678
557.653, 159.713
558.973, 248.788
560.293, 276.877
561.612, 332.966
562.932, 271.045
564.251, 291.110
565.569, 364.159
566.888, 354.195
568.206, 491.784
569.524, 796.221
570.842, 725.212
572.160, 795.188
573.477, 838.150
574.795, 840.098
576.112, 747.030
577.428, 724.947
578.745, 716.850
580.061, 699.738
581.377, 867.611
582.693, 936.469
584.009, 1206.312
585.324, 1379.141
586.639, 1546.955
587.954, 1690.753
589.269, 1601.537
590.583, 1472.306
591.897, 1221.060
593.212, 939.799
594.525, 777.522
595.839, 487.231
597.152, 395.925
598.465, 289.603
599.778, 181.267
601.091, 240.915
602.403, 169.548
603.716, 200.166
605.028, 250.768
606.339, 359.355
607.651, 440.928
608.962, 583.485
610.273, 773.026
611.584, 854.376
612.895, 1013.452
614.205, 1165.552
615.515, 1282.335
616.825, 1435.624
618.135, 1537.266
619.444, 1483.167
620.754, 1359.900
622.063, 1065.065
623.372, 839.458
624.680, 609.836
625.989, 359.201
627.297, 267.551
628.605, 75.887
629.912, 96.207
631.220, 28.512
632.527, 26.201
633.834, 1.075
635.141, 5.143
636.447, 67.350
637.754, 97.259
639.060, 136.421
640.366, 220.139
641.671, 282.072
642.977, 323.061
644.282, 287.922
645.587, 307.005
646.892, 230.094
648.196, 109.636
649.501, 62.677
650.805, 40.148
652.109, 2.148
653.412, 19.109
654.716, 47.960
656.019, 31.094
657.322, 69.283
658.625, 60.547
659.927, 51.883
661.230, 11.716
662.532, 65.281
663.834, 76.829
665.135, 158.360
666.437, 295.876
667.738, 342.378
669.039, 547.542
670.340, 734.683
671.640, 1191.548
672.940, 1335.242
674.241, 1535.480
675.540, 1920.317
676.840, 1941.358
678.139, 1938.577
679.439, 1770.814
680.738, 1418.729
682.036, 1211.669
683.335, 917.737
684.633, 743.276
685.931, 620.360
687.229, 520.184
688.527, 484.980
689.824, 435.672
691.121, 516.597
692.418, 552.194
693.715, 624.014
695.012, 765.601
696.308, 848.363
697.604, 1034.908
698.900, 1331.563
700.195, 1649.365
701.491, 2088.896
702.786, 2578.428
704.081, 3261.068
705.376, 4070.315
706.670, 4839.825
707.964, 6426.398
709.259, 7740.818
710.552, 9289.278
711.846, 10617.999
713.139, 11126.995
714.433, 11216.068
715.726, 9995.133
717.018, 8764.184
718.311, 7131.227
719.603, 5634.258
720.895, 4514.280
722.187, 3572.291
723.479, 2881.293
724.770, 2312.285
726.061, 1823.268
727.352, 1538.241
728.643, 1275.205
729.934, 1099.159
731.224, 917.105
732.514, 768.042
733.804, 661.971
735.094, 598.891
736.383, 524.802
737.672, 497.705
738.961, 382.600
740.250, 404.487
741.539, 372.366
742.827, 312.237
744.115, 374.101
745.403, 337.957
746.691, 353.806
747.978, 296.648
749.265, 327.483
750.552, 410.311
751.839, 429.132
753.126, 483.947
754.412, 561.755
755.698, 638.558
756.984, 785.354
758.270, 895.144
759.555, 1197.928
760.840, 1347.706
762.125, 1483.479
763.410, 1822.246
764.695, 1976.008
765.979, 2093.764
767.263, 2130.516
768.547, 2034.266
769.831, 1949.012
771.114, 1556.770
772.398, 1405.531
773.681, 1191.300
774.964, 1003.068
776.246, 889.835
777.529, 683.599
778.811, 561.359
780.093, 443.115
781.375, 302.868
782.656, 293.617
783.937, 213.164
785.219, 136.795
786.499, 135.113
787.780, 8.078
789.060, 52.264
790.341, 29.008
791.621, 24.540
792.901, 26.029
794.180, 119.292
795.459, 43.680
796.739, 77.098
798.017, 123.560
799.296, 64.091
800.575, 128.660
801.853, 3.301
803.131, 26.872
804.409, 3.173
805.686, 108.413
806.964, 120.326
808.241, 247.162
809.518, 341.933
810.795, 404.765
812.071, 418.436
813.347, 395.202
814.623, 355.751
815.899, 253.261
817.175, 159.288
818.450, 151.371
819.726, 11.737
821.001, 20.106
822.275, 19.520
823.550, 62.151
824.824, 36.802
826.098, 91.463
827.372, 66.159
828.646, 58.876
829.920, 82.612
831.193, 37.376
832.466, 27.146
833.739, 7.093
835.011, 3.642
836.284, 18.659
837.556, 68.002
838.828, 110.389
840.100, 127.818
841.371, 150.273
842.642, 164.764
843.914, 281.263
845.184, 291.776
846.455, 306.297
847.726, 392.828
848.996, 368.369
850.266, 444.920
851.536, 374.484
852.805, 391.058
854.075, 402.650
855.344, 267.252
856.613, 275.865
857.881, 264.508
859.150, 285.164
860.418, 221.833
861.686, 252.528
862.954, 290.235
864.222, 240.965
865.489, 215.708
866.756, 287.472
868.023, 265.250
869.290, 331.037
870.557, 339.849
871.823, 341.680
873.089, 391.521
874.355, 418.375
875.621, 442.262
876.886, 530.173
878.152, 521.103
879.417, 568.043
880.682, 674.994
881.946, 660.957
883.211, 829.931
884.475, 831.918
885.739, 1048.921
887.003, 1443.939
888.266, 1833.975
889.530, 1719.020
890.793, 1632.083
892.056, 1828.158
893.318, 2115.246
894.581, 2294.361
895.843, 2671.488
897.105, 2933.633
898.367, 3114.805
899.629, 3303.989
900.890, 3415.052
902.152, 3475.755
903.413, 3527.625
904.673, 3482.862
905.934, 3435.111
907.194, 3370.373
908.454, 3232.652
909.714, 3104.944
910.974, 2707.248
912.234, 2517.565
913.493, 2182.896
914.752, 1905.240
916.011, 1694.598
917.270, 1527.969
918.528, 1426.353
919.786, 1382.750
921.044, 1257.164
922.302, 1328.591
923.560, 1234.032
924.817, 1302.491
926.074, 1353.962
927.331, 1390.448
928.588, 1422.946
929.844, 1420.458
931.101, 1445.983
932.357, 1531.527
933.613, 1452.084
934.868, 1610.657
936.124, 1639.245
937.379, 1716.847
938.634, 1944.464
939.889, 2061.229
941.144, 2359.896
942.398, 2473.569
943.652, 2786.538
944.906, 3318.257
946.160, 3607.421
947.414, 4268.372
948.667, 4614.271
949.920, 4969.298
951.173, 5557.105
952.426, 5764.909
953.678, 6202.260
954.931, 6859.120
956.183, 7293.552
957.435, 8423.450
958.686, 9133.385
959.938, 10133.346
961.189, 10813.343
962.440, 10853.382
963.691, 10553.469
964.941, 9663.604
966.192, 8693.780
967.442, 7863.982
968.692, 7071.205
969.942, 6530.441
971.191, 6432.698
972.441, 6211.971
973.690, 6604.583
974.939, 6759.220
976.187, 6825.138
977.436, 6961.229
978.684, 6524.779
979.932, 6416.733
981.180, 5861.486
982.428, 5470.554
983.675, 5203.096
984.922, 4822.547
986.169, 4800.916
987.416, 4803.402
988.663, 4612.912
989.909, 4774.438
991.155, 4704.982
992.401, 4829.544
993.647, 5021.120
994.893, 5121.714
996.138, 5530.327
997.383, 5874.955
998.628, 6259.601
999.873, 6751.467
1001.117, 6828.692
1002.362, 6904.392
1003.606, 6619.023
1004.850, 6074.757
1006.093, 5673.513
1007.337, 4824.600
1008.580, 4240.390
1009.823, 3638.334
1011.066, 3104.596
1012.308, 2713.439
1013.551, 2332.861
1014.793, 2044.913
1016.035, 1920.723
1017.277, 1688.614
1018.518, 1570.534
1019.760, 1594.096
1021.001, 1492.152
1022.242, 1659.118
1023.483, 1634.188
1024.723, 1623.244
1025.964, 1582.359
1027.204, 1359.545
1028.444, 1342.586
1029.683, 1110.644
1030.923, 974.277
1032.162, 926.371
1033.401, 779.102
1034.640, 737.306
1035.879, 710.234
1037.117, 571.611
1038.355, 648.773
1039.593, 613.448
1040.831, 548.640
1042.069, 555.118
1043.306, 485.968
1044.544, 590.201
1045.781, 558.117
1047.017, 553.806
1048.254, 646.072
1049.490, 617.100
1050.726, 656.514
1051.962, 751.947
1053.198, 657.269
1054.434, 722.590
1055.669, 648.050
1056.904, 637.460
1058.139, 664.812
1059.374, 475.225
1060.608, 570.615
1061.843, 506.073
1063.077, 441.955
1064.311, 466.419
1065.544, 408.904
1066.778, 443.395
1068.011, 533.823
1069.244, 476.985
1070.477, 542.537
1071.710, 568.293
1072.942, 631.586
1074.174, 821.055
1075.406, 885.608
1076.638, 990.187
1077.870, 1137.680
1079.101, 1140.355
1080.332, 1185.835
1081.563, 1164.349
1082.794, 1062.490
1084.025, 1026.132
1085.255, 836.667
1086.485, 730.282
1087.715, 694.829
1088.945, 563.590
1090.175, 632.261
1091.404, 536.886
1092.633, 516.293
1093.862, 535.067
1095.091, 507.775
1096.319, 556.396
1097.548, 635.138
1098.776, 609.213
1100.004, 731.143
1101.231, 708.924
1102.459, 752.791
1103.686, 820.666
1104.913, 709.464
1106.140, 802.899
1107.367, 641.705
1108.593, 591.514
1109.819, 591.025
1111.046, 455.840
1112.271, 436.389
1113.497, 403.238
1114.722, 322.107
1115.948, 374.118
1117.173, 253.943
1118.398, 231.885
1119.622, 258.793
1120.847, 203.621
1122.071, 211.500
1123.295, 174.733
1124.519, 158.615
1125.742, 187.730
1126.966, 116.730
1128.189, 127.734
1129.412, 67.105
1130.635, 92.022
1131.857, 124.142
1133.080, 62.487
1134.302, 68.458
1135.524, 99.343
1136.746, 100.259
1137.967, 62.220
1139.188, 101.498
1140.410, 30.407
1141.631, 43.340
1142.851, 45.567
1144.072, 14.468
1145.292, 37.556
1146.512, 9.426
1147.732, 19.036
1148.952, 24.915
1150.172, 45.140
1151.391, 5.068
1152.610, 33.245
1153.829, 49.889
1155.048, 47.513
1156.266, 5.476
1157.484, 33.305
1158.702, 45.803
1159.920, 50.408
1161.138, 14.462
1162.356, 49.387
1163.573, 22.492
1164.790, 35.719
1166.007, 64.248
1167.224, 39.451
1168.440, 3.574
1169.656, 21.682
1170.872, 84.837
1172.088, 52.687
1173.304, 37.137
1174.519, 6.854
1175.735, 7.076
1176.950, 9.277
1178.165, 11.787
1179.379, 8.744
1180.594, 15.974
1181.808, 10.584
1183.022, 17.187
1184.236, 97.016
1185.449, 19.882
1186.663, 35.553
1187.876, 1.296
1189.089, 52.113
1190.302, 28.390
1191.515, 20.014
1192.727, 47.635
1193.939, 73.581
1195.151, 4.050
1196.363, 8.130
1197.575, 8.430
1198.786, 33.951
1199.997, 65.180
1201.208, 11.557
1202.419, 6.214
1203.630, 79.949
1204.840, 30.682
1206.051, 39.837
1207.261, 27.153
1208.470, 5.484
1209.680, 32.517
1210.889, 30.680
1212.099, 32.861
1213.308, 50.901
1214.516, 3.482
1215.725, 28.445
1216.933, 14.393
1218.142, 3.011
1219.350, 90.922
1220.557, 40.971
1221.765, 38.258
1222.972, 66.128
1224.180, 25.126
1225.387, 3.037
1226.593, 65.970
1227.800, 11.077
1229.006, 39.957
1230.213, 69.775
1231.419, 51.669
1232.624, 98.415
1233.830, 30.150
1235.035, 47.034
1236.241, 62.742
1237.446, 10.497
1238.650, 36.195
1239.855, 59.849
1241.059, 8.549
1242.264, 64.167
1243.468, 27.810
1244.671, 39.449
1245.875, 127.020
1247.078, 8.422
1248.282, 64.275
1249.485, 101.795
1250.687, 0.346
1251.890, 113.136
1253.092, 115.635
1254.295, 20.316
1255.497, 96.747
1256.699, 20.260
1257.900, 84.909
1259.102, 81.285
1260.303, 50.956
1261.504, 112.297
1262.705, 67.615
1263.905, 76.914
1265.106, 113.190
1266.306, 86.446
1267.506, 38.846
1268.706, 92.057
1269.905, 50.250
1271.105, 73.420
1272.304, 75.570
1273.503, 37.701
1274.702, 103.844
1275.900, 58.921
1277.099, 41.033
1278.297, 93.056
1279.495, 21.056
1280.693, 114.073
1281.891, 96.008
1283.088, 46.923
1284.285, 144.831
1285.482, 102.706
1286.679, 51.563
1287.876, 141.391
1289.072, 66.199
1290.268, 82.326
1291.464, 66.886
1292.660, 13.084
1293.856, 95.915
1295.051, 49.697
1296.247, 13.372
1297.442, 107.019
1298.637, 35.327
1299.831, 64.946
1301.026, 48.389
1302.220, 11.509
1303.414, 109.043
1304.608, 63.144
1305.802, 47.966
1306.995, 62.862
1308.188, 33.329
1309.381, 44.784
1310.574, 68.571
1311.767, 35.857
1312.960, 72.301
1314.152, 49.558
1315.344, 3.178
1316.536, 86.017
1317.728, 21.132
1318.919, 6.384
1320.110, 100.614
1321.301, 21.742
1322.492, 88.437
1323.683, 31.970
1324.874, 4.023
1326.064, 97.346
1327.254, 6.934
1328.444, 8.991
1329.634, 69.562
1330.823, 4.407
1332.013, 36.331
1333.202, 38.917
1334.391, 27.880
1335.580, 55.154
1336.768, 81.723
1337.956, 42.633
1339.145, 91.772
1340.333, 51.519
1341.520, 7.759
1342.708, 63.065
1343.895, 31.881
1345.083, 57.552
1346.270, 67.338
1347.456, 5.103
1348.643, 63.798
1349.829, 30.510
1351.016, 27.128
1352.202, 93.315
1353.387, 48.941
1354.573, 41.501
1355.759, 72.045
1356.944, 6.644
1358.129, 87.500
1359.314, 107.958
1360.498, 3.198
1361.683, 133.894
1362.867, 45.431
1364.051, 15.846
1365.235, 138.271
1366.419, 47.875
1367.602, 65.147
1368.785, 53.606
1369.968, 23.022
1371.151, 57.777
1372.334, 69.279
1373.517, 47.327
1374.699, 144.628
1375.881, 93.658
1377.063, 41.091
1378.245, 126.113
1379.426, 65.286
1380.608, 74.921
1381.789, 89.887
1382.970, 64.922
1384.150, 79.248
1385.331, 67.529
1386.511, 63.727
1387.691, 112.606
1388.871, 101.325
1390.051, 37.998
1391.231, 122.805
1392.410, 15.151
1393.589, 95.526
1394.768, 68.614
1395.947, 27.096
1397.126, 89.209
1398.304, 50.682
1399.483, 22.780
1400.661, 124.313
1401.838, 16.444
1403.016, 99.544
1404.194, 102.000
1405.371, 77.881
1406.548, 101.521
1407.725, 78.870
1408.901, 27.967
1410.078, 129.013
1411.254, 78.629
1412.430, 81.756
1413.606, 162.320
1414.782, 85.107
1415.958, 55.130
1417.133, 123.428
1418.308, 43.919
1419.483, 113.638
1420.658, 130.416
1421.832, 42.740
1423.007, 110.596
1424.181, 84.970
1425.355, 49.384
1426.529, 83.252
1427.702, 65.179
1428.876, 83.907
1430.049, 56.380
1431.222, 2.774
1432.395, 64.664
1433.567, 124.157
1434.740, 21.557
1435.912, 157.325
1437.084, 57.225
1438.256, 51.846
1439.428, 156.661
1440.599, 41.206
1441.770, 76.650
1442.942, 85.650
1444.112, 54.032
1445.283, 77.601
1446.454, 86.050
1447.624, 45.491
1448.794, 119.971
1449.964, 36.468
1451.134, 57.897
1452.303, 140.026
1453.473, 21.646
1454.642, 66.959
1455.811, 95.748
1456.980, 83.178
1458.148, 50.646
1459.317, 120.860
1460.485, 59.073
1461.653, 65.843
1462.821, 56.046
1463.989, 58.240
1465.156, 53.312
1466.323, 60.366
1467.490, 13.357
1468.657, 130.854
1469.824, 50.198
1470.991, 70.563
1472.157, 128.963
1473.323, 3.812
1474.489, 92.155
1475.655, 73.517
1476.820, 11.899
1477.986, 93.213
1479.151, 29.598
1480.316, 83.969
1481.481, 80.331
1482.645, 45.582
1483.810, 59.585
1484.974, 52.294
1486.138, 10.391
1487.302, 49.857
1488.465, 80.362
1489.629, 58.894
1490.792, 81.030
1491.955, 25.382
1493.118, 17.722
1494.281, 108.463
1495.443, 62.190
1496.606, 47.442
1497.768, 84.663
1498.930, 25.870
1500.091, 112.265
1501.253, 64.289
1502.414, 17.423
1503.575, 42.322
1504.736, 14.804
1505.897, 0.642
1507.058, 31.360
1508.218, 47.321
1509.379, 49.062
1510.539, 66.106
1511.698, 0.123
1512.858, 0.000
##END=



