##NAMES=Cairncrossite
##RRUFFID=R150126
##IDEAL CHEMISTRY=Sr_2_Ca_7-x_Na_2x_(Si_4_O_10_)_4_(OH)_2_(H_2_O)_15-x_
##LOCALITY=Block 17, Wessels mine, Northern Cape Province, South Africa
##OWNER=Arnold Gucsik
##SOURCE=Arnold Gucsik
##DESCRIPTION=Massive colorless to white. Data are from the original description of the type sample. Photo is courtesy of Bruce Cairncross, 7 mm width.
##STATUS=The identification of this mineral has been confirmed by single-crystal X-ray diffraction.
##URL=rruff.info/R150126
56.06679, 655.1000
60.87551, 654.9000
65.68164, 655.2000
70.48519, 654.1000
75.28616, 652.5000
80.08456, 654.6000
84.88038, 654.3000
89.67362, 652.6000
94.46429, 655.4000
99.25240, 654.8000
104.0379, 657.8000
108.8209, 657.5000
113.6013, 658.6000
118.3791, 658.9000
123.1544, 660.3000
127.9271, 661.9000
132.6973, 663.1000
137.4649, 661.3000
142.2300, 659.6000
146.9925, 656.8000
151.7525, 660.3000
156.5099, 660.8000
161.2647, 657.9000
166.0171, 658.6000
170.7668, 660.5000
175.5141, 660.0000
180.2588, 660.2000
185.0010, 660.8000
189.7406, 660.0000
194.4777, 658.9000
199.2123, 656.7000
203.9443, 656.9000
208.6739, 655.1000
213.4009, 656.3000
218.1253, 654.9000
222.8473, 656.4000
227.5667, 655.6000
232.2837, 655.6000
236.9981, 654.9000
241.7100, 654.3000
246.4194, 655.4000
251.1262, 656.0000
255.8306, 654.8000
260.5325, 656.3000
265.2318, 656.9000
269.9287, 658.6000
274.6230, 657.2000
279.3149, 658.5000
284.0043, 659.0000
288.6912, 657.0000
293.3755, 656.4000
298.0574, 657.7000
302.7368, 653.4000
307.4138, 656.2000
312.0882, 655.8000
316.7602, 652.3000
321.4296, 651.1000
326.0966, 654.6000
330.7611, 654.9000
335.4232, 655.8000
340.0827, 657.4000
344.7398, 657.8000
349.3945, 656.5000
354.0466, 655.5000
358.6963, 657.1000
363.3435, 654.3000
367.9883, 653.9000
372.6306, 653.3000
377.2705, 654.0000
381.9079, 652.9000
386.5428, 652.4000
391.1753, 652.9000
395.8053, 653.5000
400.4329, 653.6000
405.0580, 655.9000
409.6807, 655.4000
414.3010, 655.0000
418.9188, 655.0000
423.5341, 655.7000
428.1471, 654.6000
432.7576, 657.7000
437.3656, 657.9000
441.9713, 656.5000
446.5745, 654.4000
451.1752, 654.9000
455.7736, 653.6000
460.3694, 654.4000
464.9630, 654.9000
469.5540, 656.8000
474.1426, 656.1000
478.7289, 654.2000
483.3127, 652.1000
487.8941, 654.0000
492.4731, 652.5000
497.0496, 652.6000
501.6238, 652.6000
506.1956, 652.7000
510.7649, 650.7000
515.3318, 651.2000
519.8964, 653.3000
524.4585, 650.8000
529.0182, 653.0000
533.5756, 652.7000
538.1306, 651.8000
542.6831, 652.6000
547.2333, 651.8000
551.7811, 652.4000
556.3264, 651.9000
560.8694, 653.5000
565.4100, 654.1000
569.9482, 656.7000
574.4841, 657.5000
579.0176, 656.6000
583.5487, 657.2000
588.0774, 664.1000
592.6038, 670.1000
597.1277, 680.3000
601.6493, 692.6000
606.1686, 697.5000
610.6854, 687.2000
615.1999, 675.1000
619.7120, 668.3000
624.2218, 661.7000
628.7292, 660.4000
633.2343, 655.3000
637.7370, 655.2000
642.2374, 654.4000
646.7354, 653.3000
651.2310, 653.0000
655.7242, 651.9000
660.2152, 652.2000
664.7038, 651.4000
669.1901, 653.5000
673.6740, 652.4000
678.1555, 652.6000
682.6348, 651.3000
687.1116, 652.0000
691.5862, 653.7000
696.0584, 651.7000
700.5283, 651.1000
704.9959, 651.8000
709.4611, 651.6000
713.9240, 652.2000
718.3846, 649.5000
722.8428, 651.0000
727.2988, 652.2000
731.7524, 652.9000
736.2037, 651.7000
740.6526, 652.1000
745.0993, 653.0000
749.5436, 651.6000
753.9857, 652.9000
758.4254, 652.9000
762.8628, 653.3000
767.2979, 653.4000
771.7307, 652.7000
776.1613, 654.8000
780.5894, 652.7000
785.0153, 654.4000
789.4389, 651.4000
793.8602, 652.3000
798.2792, 652.7000
802.6959, 652.2000
807.1104, 650.5000
811.5225, 652.3000
815.9323, 652.1000
820.3399, 652.5000
824.7452, 650.7000
829.1481, 652.2000
833.5488, 651.4000
837.9473, 650.6000
842.3434, 650.9000
846.7373, 651.4000
851.1289, 651.2000
855.5182, 651.8000
859.9053, 650.3000
864.2900, 651.7000
868.6725, 650.8000
873.0528, 652.0000
877.4308, 652.5000
881.8065, 651.4000
886.1799, 650.4000
890.5511, 652.0000
894.9200, 653.5000
899.2867, 651.6000
903.6511, 651.6000
908.0133, 649.7000
912.3732, 651.2000
916.7309, 651.0000
921.0863, 651.9000
925.4395, 651.1000
929.7904, 650.9000
934.1391, 651.1000
938.4855, 652.4000
942.8297, 651.0000
947.1717, 653.3000
951.5114, 653.2000
955.8489, 653.0000
960.1841, 653.6000
964.5172, 652.3000
968.8480, 654.0000
973.1765, 654.1000
977.5028, 655.1000
981.8269, 655.7000
986.1488, 653.7000
990.4684, 655.6000
994.7859, 654.2000
999.1011, 655.9000
1003.414, 655.3000
1007.725, 655.9000
1012.033, 656.1000
1016.340, 655.4000
1020.644, 657.9000
1024.946, 659.3000
1029.246, 658.4000
1033.543, 659.3000
1037.838, 658.4000
1042.131, 657.9000
1046.422, 658.9000
1050.711, 660.4000
1054.998, 665.0000
1059.282, 669.4000
1063.564, 672.0000
1067.844, 667.8000
1072.122, 663.7000
1076.397, 659.1000
1080.671, 657.7000
1084.942, 655.0000
1089.211, 653.9000
1093.477, 654.2000
1097.742, 653.0000
1102.005, 653.3000
1106.265, 654.7000
1110.523, 655.1000
1114.779, 652.8000
1119.032, 655.4000
1123.284, 653.4000
1127.533, 652.9000
1131.781, 652.0000
1136.026, 654.0000
1140.268, 653.2000
1144.509, 652.6000
1148.748, 651.1000
1152.984, 653.5000
1157.218, 652.1000
1161.450, 653.0000
1165.680, 653.1000
1169.908, 652.6000
1174.133, 653.2000
1178.357, 653.2000
1182.578, 650.9000
1186.797, 652.9000
1191.014, 652.5000
1195.229, 652.7000
1199.442, 652.8000
1203.652, 654.1000
1207.860, 651.9000
1212.067, 653.3000
1216.271, 651.0000
1220.473, 653.9000
1224.673, 652.4000
1228.870, 652.8000
1233.066, 652.7000
1237.259, 653.3000
1241.451, 652.8000
1245.640, 655.0000
1249.827, 652.6000
1254.012, 653.2000
1258.194, 653.4000
1262.375, 654.1000
1266.554, 652.9000
1270.730, 652.2000
1274.904, 652.6000
1279.077, 652.7000
1283.247, 652.7000
1287.415, 651.6000
1291.580, 652.2000
1295.744, 652.4000
1299.906, 650.9000
1304.065, 651.1000
1308.223, 651.7000
1312.378, 653.0000
1316.531, 652.6000
1320.682, 653.3000
1324.831, 652.3000
1328.978, 655.1000
1333.123, 653.9000
1337.266, 654.3000
1341.406, 652.0000
1345.545, 653.5000
1349.681, 655.0000
1353.816, 652.0000
1357.948, 652.7000
1362.078, 654.8000
1366.206, 653.7000
1370.332, 655.3000
1374.456, 652.1000
1378.578, 654.1000
1382.698, 652.1000
1386.815, 654.2000
1390.931, 652.4000
1395.044, 653.4000
1399.156, 655.2000
1403.265, 654.4000
1407.372, 652.9000
1411.478, 653.7000
1415.581, 654.2000
1419.682, 654.5000
1423.781, 655.0000
1427.878, 652.9000
1431.973, 653.7000
1436.066, 653.7000
1440.156, 653.0000
1444.245, 655.2000
1448.332, 655.7000
1452.416, 654.1000
1456.499, 653.1000
1460.579, 652.5000
1464.658, 653.2000
1468.734, 655.3000
1472.809, 654.4000
1476.881, 654.0000
1480.951, 655.0000
1485.019, 653.0000
1489.086, 655.4000
1493.150, 653.4000
1497.212, 653.0000
1501.272, 651.6000
1505.330, 654.1000
1509.386, 653.8000
1513.440, 653.3000
1517.492, 654.6000
1521.542, 652.7000
1525.589, 653.1000
1529.635, 653.5000
1533.679, 654.8000
1537.721, 655.5000
1541.761, 656.1000
1545.798, 656.3000
1549.834, 656.4000
1553.868, 653.2000
1557.900, 654.5000
1561.929, 654.7000
1565.957, 654.6000
1569.982, 655.3000
1574.006, 653.6000
1578.028, 653.0000
1582.047, 651.5000
1586.065, 652.9000
1590.080, 656.1000
1594.094, 655.3000
1598.106, 655.2000
1602.115, 654.9000
1606.123, 653.1000
1610.128, 654.3000
1614.132, 653.9000
1618.133, 654.4000
1622.133, 652.5000
1626.131, 655.6000
1630.126, 654.7000
1634.120, 657.0000
1638.111, 654.3000
1642.101, 654.3000
1646.089, 653.2000
1650.074, 657.3000
1654.058, 654.1000
1658.040, 655.7000
1662.019, 653.2000
1665.997, 654.9000
1669.973, 653.4000
1673.947, 654.0000
1677.918, 654.3000
1681.888, 653.5000
1685.856, 655.7000
1689.822, 656.1000
1693.786, 656.9000
1697.748, 655.2000
1701.708, 652.9000
1705.666, 653.7000
1709.622, 655.0000
1713.576, 655.1000
1717.528, 656.8000
1721.478, 655.8000
1725.426, 655.5000
1729.372, 656.0000
1733.317, 652.5000
1737.259, 655.8000
1741.199, 655.0000
1745.138, 653.8000
1749.074, 653.1000
1753.009, 656.2000
1756.941, 655.2000
1760.872, 654.2000
1764.801, 657.1000
1768.727, 657.2000
1772.652, 655.5000
1776.575, 656.2000
1780.496, 655.5000
1784.415, 656.0000
1788.332, 655.2000
1792.247, 654.5000
1796.160, 654.5000
1800.071, 655.4000
1803.980, 655.8000
1807.888, 654.5000
1811.793, 652.4000
1815.697, 655.2000
1819.598, 653.7000
1823.498, 655.7000
1827.396, 656.5000
1831.291, 654.7000
1835.185, 654.9000
1839.077, 654.1000
1842.967, 656.1000
1846.855, 653.9000
1850.741, 654.5000
1854.626, 653.6000
1858.508, 654.9000
1862.388, 655.4000
1866.267, 655.7000
1870.144, 656.0000
1874.018, 654.9000
1877.891, 657.5000
1881.762, 653.9000
1885.631, 654.7000
1889.498, 652.6000
1893.363, 657.0000
1897.227, 655.4000
1901.088, 654.7000
1904.947, 653.9000
1908.805, 655.5000
1912.661, 655.3000
1916.514, 655.5000
1920.366, 655.3000
1924.216, 655.2000
1928.064, 654.6000
1931.911, 655.2000
1935.755, 654.9000
1939.598, 656.0000
1943.438, 653.9000
1947.277, 653.9000
1951.114, 655.4000
1954.948, 655.6000
1958.781, 653.6000
1962.613, 655.7000
1966.442, 655.0000
1970.269, 657.2000
1974.095, 655.5000
1977.919, 654.1000
1981.740, 655.1000
1985.560, 656.5000
1989.378, 656.3000
1993.194, 655.7000
1997.009, 655.0000
2000.821, 655.0000
2004.632, 654.1000
2008.440, 655.5000
2012.247, 655.8000
2016.052, 654.0000
2019.855, 656.6000
2023.657, 655.9000
2027.456, 655.1000
2031.254, 653.6000
2035.049, 656.2000
2038.843, 655.9000
2042.635, 656.8000
2046.425, 655.9000
2050.214, 657.3000
2054.000, 653.1000
2057.785, 655.6000
2061.567, 653.2000
2065.348, 656.1000
2069.127, 654.7000
2072.905, 655.1000
2076.680, 655.4000
2080.453, 656.0000
2084.225, 655.9000
2087.995, 655.8000
2091.763, 656.3000
2095.529, 655.2000
2099.294, 653.7000
2103.056, 657.2000
2106.817, 655.1000
2110.576, 656.0000
2114.333, 656.6000
2118.088, 654.4000
2121.841, 654.8000
2125.593, 655.9000
2129.343, 655.7000
2133.091, 654.5000
2136.837, 656.0000
2140.581, 655.9000
2144.323, 654.5000
2148.064, 653.6000
2151.803, 655.9000
2155.540, 654.8000
2159.275, 655.1000
2163.008, 653.6000
2166.740, 656.1000
2170.469, 654.9000
2174.198, 656.1000
2177.924, 656.7000
2181.648, 654.7000
2185.371, 655.0000
2189.091, 653.4000
2192.810, 655.9000
2196.527, 653.5000
2200.243, 655.5000
2203.956, 653.8000
2207.668, 655.1000
2211.378, 656.2000
2215.086, 656.3000
2218.792, 654.0000
2222.497, 655.2000
2226.199, 656.6000
2229.900, 654.1000
2233.600, 654.3000
2237.297, 657.1000
2240.992, 655.7000
2244.686, 655.9000
2248.378, 655.0000
2252.069, 656.6000
2255.757, 654.9000
2259.444, 655.3000
2263.129, 654.6000
2266.812, 654.1000
2270.493, 654.6000
2274.173, 654.7000
2277.850, 657.2000
2281.526, 655.3000
2285.201, 654.9000
2288.873, 654.3000
2292.544, 655.6000
2296.213, 652.4000
2299.880, 655.2000
2303.545, 654.9000
2307.209, 656.2000
2310.871, 655.1000
2314.531, 653.9000
2318.189, 653.6000
2321.846, 657.1000
2325.500, 656.1000
2329.154, 655.1000
2332.805, 656.8000
2336.454, 655.7000
2340.102, 653.5000
2343.748, 655.9000
2347.393, 656.6000
2351.035, 652.4000
2354.676, 655.5000
2358.315, 655.8000
2361.952, 657.2000
2365.588, 654.7000
2369.221, 654.6000
2372.854, 655.4000
2376.484, 655.5000
2380.112, 656.4000
2383.739, 655.5000
2387.364, 657.9000
2390.988, 653.4000
2394.609, 653.9000
2398.229, 656.7000
2401.847, 654.4000
2405.463, 655.9000
2409.078, 655.3000
2412.691, 655.2000
2416.302, 657.0000
2419.912, 656.9000
2423.520, 658.1000
2427.125, 660.6000
2430.730, 657.9000
2434.332, 657.3000
2437.933, 654.7000
2441.532, 656.8000
2445.130, 655.1000
2448.725, 656.2000
2452.319, 656.2000
2455.911, 656.8000
2459.502, 654.9000
2463.091, 655.3000
2466.678, 655.1000
2470.263, 656.0000
2473.847, 657.4000
2477.429, 654.9000
2481.009, 654.9000
2484.588, 655.1000
2488.165, 655.7000
2491.740, 654.1000
2495.313, 655.9000
2498.885, 655.6000
2502.455, 654.9000
2506.023, 655.2000
2509.590, 657.2000
2513.155, 658.6000
2516.718, 653.9000
2520.279, 655.4000
2523.839, 655.3000
2527.397, 658.0000
2530.953, 655.0000
2534.508, 656.1000
2538.061, 653.8000
2541.613, 654.1000
2545.162, 654.3000
2548.710, 652.7000
2552.256, 657.8000
2555.801, 655.4000
2559.344, 655.0000
2562.885, 655.3000
2566.425, 652.9000
2569.963, 655.7000
2573.499, 655.5000
2577.033, 654.6000
2580.566, 657.6000
2584.097, 655.4000
2587.626, 654.2000
2591.154, 655.2000
2594.680, 654.7000
2598.205, 656.0000
2601.728, 656.7000
2605.249, 656.5000
2608.768, 654.3000
2612.286, 655.0000
2615.802, 656.0000
2619.316, 654.1000
2622.829, 656.6000
2626.340, 656.5000
2629.850, 654.8000
2633.357, 654.8000
2636.864, 655.0000
2640.368, 656.2000
2643.871, 655.4000
2647.372, 655.1000
2650.871, 656.8000
2654.369, 654.8000
2657.865, 655.0000
2661.360, 655.8000
2664.853, 654.6000
2668.344, 655.8000
2671.833, 655.5000
2675.321, 656.1000
2678.808, 653.8000
2682.292, 656.1000
2685.775, 654.9000
2689.256, 655.1000
2692.736, 654.8000
2696.214, 656.8000
2699.690, 652.9000
2703.165, 656.3000
2706.638, 655.6000
2710.110, 655.4000
2713.580, 655.4000
2717.048, 654.0000
2720.514, 654.7000
2723.979, 655.6000
2727.443, 655.9000
2730.904, 655.2000
2734.364, 656.7000
2737.823, 655.1000
2741.279, 655.4000
2744.734, 654.8000
2748.188, 658.5000
2751.640, 655.9000
2755.090, 653.7000
2758.539, 656.4000
2761.986, 654.2000
2765.431, 655.5000
2768.875, 654.7000
2772.317, 655.3000
2775.758, 654.8000
2779.197, 656.0000
2782.634, 654.8000
2786.070, 656.6000
2789.504, 655.3000
2792.936, 654.1000
2796.367, 656.0000
2799.796, 655.8000
2803.224, 655.3000
2806.650, 657.3000
2810.074, 654.7000
2813.497, 654.9000
2816.918, 656.8000
2820.338, 653.5000
2823.756, 654.4000
2827.172, 657.3000
2830.587, 654.7000
2834.000, 657.2000
2837.412, 656.0000
2840.822, 656.0000
2844.230, 656.2000
2847.637, 656.0000
2851.042, 655.8000
2854.446, 655.3000
2857.848, 657.2000
2861.248, 656.0000
2864.647, 655.8000
2868.044, 656.0000
2871.440, 655.9000
2874.834, 656.2000
2878.226, 655.2000
2881.617, 654.1000
2885.006, 655.6000
2888.394, 657.3000
2891.780, 655.6000
2895.165, 655.9000
2898.548, 653.3000
2901.929, 656.1000
2905.309, 657.3000
2908.687, 656.0000
2912.064, 655.8000
2915.439, 656.1000
2918.812, 656.5000
2922.184, 656.2000
2925.555, 654.7000
2928.923, 656.5000
2932.291, 656.9000
2935.656, 656.7000
2939.020, 657.2000
2942.383, 653.4000
2945.744, 655.5000
2949.103, 655.9000
2952.461, 654.5000
2955.817, 654.4000
2959.172, 656.9000
2962.525, 653.8000
2965.876, 656.7000
2969.227, 656.1000
2972.575, 656.6000
2975.922, 654.2000
2979.267, 656.1000
2982.611, 655.6000
2985.953, 656.3000
2989.294, 654.6000
2992.633, 655.9000
2995.970, 654.4000
2999.306, 653.7000
3002.641, 656.0000
3005.974, 655.9000
3009.305, 657.9000
3012.635, 654.5000
3015.963, 655.7000
3019.290, 656.0000
3022.615, 655.3000
3025.939, 655.9000
3029.261, 655.3000
3032.582, 657.5000
3035.900, 653.8000
3039.218, 657.1000
3042.534, 656.1000
3045.848, 656.2000
3049.161, 655.7000
3052.472, 656.0000
3055.782, 655.5000
3059.091, 657.1000
3062.397, 655.0000
3065.702, 656.3000
3069.006, 656.3000
3072.308, 655.9000
3075.609, 655.1000
3078.908, 655.1000
3082.206, 654.9000
3085.501, 655.8000
3088.796, 654.4000
3092.089, 656.3000
3095.380, 655.1000
3098.670, 655.7000
3101.959, 654.6000
3105.246, 656.1000
3108.531, 657.3000
3111.815, 658.0000
3115.097, 655.3000
3118.378, 656.0000
3121.657, 655.0000
3124.935, 655.7000
3128.212, 656.8000
3131.486, 653.1000
3134.760, 653.4000
3138.031, 656.5000
3141.302, 657.4000
3144.570, 655.2000
3147.838, 655.9000
3151.103, 655.4000
3154.367, 657.7000
3157.630, 656.5000
3160.891, 656.8000
3164.151, 653.6000
3167.409, 654.7000
3170.666, 655.8000
3173.921, 655.1000
3177.175, 656.3000
3180.427, 655.1000
3183.678, 656.2000
3186.927, 654.5000
3190.175, 655.9000
3193.421, 654.8000
3196.666, 655.5000
3199.909, 655.9000
3203.151, 657.2000
3206.391, 655.6000
3209.630, 654.5000
3212.867, 655.1000
3216.103, 657.0000
3219.337, 655.3000
3222.570, 657.0000
3225.802, 656.1000
3229.031, 654.4000
3232.260, 656.6000
3235.487, 655.3000
3238.712, 655.6000
3241.936, 656.7000
3245.159, 656.4000
3248.380, 657.2000
3251.599, 654.1000
3254.817, 654.7000
3258.034, 655.3000
3261.249, 654.5000
3264.462, 656.5000
3267.675, 655.2000
3270.885, 655.1000
3274.094, 652.7000
3277.302, 655.6000
3280.509, 657.2000
3283.713, 655.4000
3286.917, 655.4000
3290.119, 656.7000
3293.319, 653.3000
3296.518, 653.9000
3299.715, 655.0000
3302.911, 656.0000
3306.106, 656.2000
3309.299, 656.0000
3312.491, 655.0000
3315.681, 654.1000
3318.870, 655.3000
3322.057, 654.2000
3325.243, 656.2000
3328.427, 654.7000
3331.610, 654.7000
3334.791, 655.7000
3337.971, 654.5000
3341.150, 654.7000
3344.327, 655.1000
3347.503, 656.0000
3350.677, 657.1000
3353.850, 657.5000
3357.021, 655.4000
3360.191, 654.6000
3363.359, 654.7000
3366.526, 653.1000
3369.692, 656.1000
3372.856, 654.3000
3376.019, 655.7000
3379.180, 654.3000
3382.339, 655.8000
3385.498, 655.1000
3388.655, 657.4000
3391.810, 654.7000
3394.964, 656.1000
3398.117, 655.2000
3401.268, 656.0000
3404.417, 656.0000
3407.566, 655.7000
3410.713, 655.2000
3413.858, 654.5000
3417.002, 656.5000
3420.145, 656.8000
3423.286, 657.0000
3426.426, 654.3000
3429.564, 655.4000
3432.701, 655.7000
3435.836, 656.6000
3438.970, 654.7000
3442.103, 655.1000
3445.234, 654.9000
3448.364, 655.1000
3451.492, 656.1000
3454.619, 657.7000
3457.745, 659.5000
3460.869, 654.5000
##END=



