##NAMES=Chabazite-Ca
##RRUFFID=R050075
##IDEAL CHEMISTRY=Ca_2_Al_4_Si_8_O_24_&#183;13H_2_O
##LOCALITY=Victoria, Australia
##OWNER=RRUFF
##SOURCE=Rock Currier
##DESCRIPTION=White pseudohexagonal crystals
##STATUS=The identification of this mineral has been confirmed by X-ray diffraction and chemical analysis
##URL=rruff.info/R050075
##MEASURED CHEMISTRY=(Ca_0.79_Na_0.22_K_0.14_)_Σ=1.15_(Si_4.08_Al_1.92_)O_12_·6H_2_O
##PIN_ID=L00465
##ORIENTATION=Laser parallel to a* (1 0 0). Fiducial mark perpendicular to laser is parallel to c [0 0 1]
239.175, 22077.000
240.545, 22341.000
241.916, 22160.000
243.286, 22181.000
244.655, 22340.000
246.025, 22031.000
247.394, 22278.000
248.763, 22080.000
250.132, 22414.000
251.501, 22138.000
252.869, 22029.000
254.237, 22253.000
255.605, 21950.000
256.973, 22291.000
258.340, 22557.000
259.708, 22132.000
261.075, 22049.000
262.442, 22041.000
263.808, 22208.000
265.175, 21936.000
266.541, 22102.000
267.907, 21964.000
269.273, 22155.000
270.639, 22012.000
272.004, 21875.000
273.369, 22424.000
274.734, 21963.000
276.099, 22486.000
277.463, 22254.000
278.828, 22409.000
280.192, 22684.000
281.556, 23035.000
282.919, 23036.000
284.283, 22580.000
285.646, 22616.000
287.009, 22822.000
288.372, 22636.000
289.734, 23040.000
291.097, 22721.000
292.459, 23097.000
293.821, 22976.000
295.183, 23235.000
296.544, 23304.000
297.905, 22923.000
299.266, 23488.000
300.627, 23084.000
301.988, 23478.000
303.348, 23390.000
304.709, 23528.000
306.069, 23760.000
307.428, 23648.000
308.788, 24129.000
310.147, 23915.000
311.507, 24286.000
312.865, 24322.000
314.224, 24362.000
315.583, 24979.000
316.941, 24742.000
318.299, 25446.000
319.657, 25225.000
321.015, 25685.000
322.372, 25938.000
323.729, 25976.000
325.086, 26485.000
326.443, 26252.000
327.800, 26841.000
329.156, 26882.000
330.512, 26860.000
331.868, 27233.000
333.224, 27068.000
334.579, 27385.000
335.935, 27050.000
337.290, 27175.000
338.645, 26947.000
339.999, 26605.000
341.354, 26803.000
342.708, 26205.000
344.062, 26218.000
345.416, 26085.000
346.769, 25636.000
348.123, 25856.000
349.476, 25266.000
350.829, 25232.000
352.182, 24900.000
353.534, 24945.000
354.887, 24878.000
356.239, 24541.000
357.591, 24746.000
358.942, 24305.000
360.294, 24640.000
361.645, 24287.000
362.996, 24250.000
364.347, 24399.000
365.698, 23908.000
367.048, 24441.000
368.398, 23789.000
369.748, 24082.000
371.098, 24161.000
372.448, 23779.000
373.797, 24053.000
375.146, 23823.000
376.495, 24019.000
377.844, 23896.000
379.192, 23894.000
380.540, 23990.000
381.889, 23691.000
383.236, 24187.000
384.584, 23884.000
385.932, 24029.000
387.279, 24096.000
388.626, 24067.000
389.973, 24254.000
391.319, 23973.000
392.666, 24315.000
394.012, 24214.000
395.358, 24108.000
396.704, 24628.000
398.049, 24358.000
399.394, 24595.000
400.740, 24314.000
402.084, 24541.000
403.429, 24794.000
404.774, 24697.000
406.118, 25152.000
407.462, 24863.000
408.806, 25113.000
410.150, 25494.000
411.493, 25370.000
412.836, 25712.000
414.179, 25628.000
415.522, 26027.000
416.865, 26240.000
418.207, 26449.000
419.549, 26959.000
420.891, 26984.000
422.233, 27836.000
423.575, 27768.000
424.916, 28154.000
426.257, 29140.000
427.598, 28964.000
428.939, 30011.000
430.279, 30312.000
431.619, 31381.000
432.959, 31926.000
434.299, 32429.000
435.639, 33908.000
436.978, 34353.000
438.318, 35928.000
439.657, 36786.000
440.996, 37732.000
442.334, 39185.000
443.673, 40147.000
445.011, 42032.000
446.349, 42673.000
447.687, 44592.000
449.024, 45606.000
450.361, 46460.000
451.699, 48140.000
453.036, 48505.000
454.372, 49737.000
455.709, 50024.000
457.045, 50771.000
458.381, 51448.000
459.717, 50593.000
461.053, 51732.000
462.388, 51182.000
463.724, 51132.000
465.059, 51336.000
466.394, 50738.000
467.728, 51824.000
469.063, 51451.000
470.397, 52464.000
471.731, 52760.000
473.065, 52376.000
474.398, 54224.000
475.732, 53600.000
477.065, 55046.000
478.398, 55113.000
479.731, 54658.000
481.063, 55240.000
482.396, 53624.000
483.728, 53184.000
485.060, 52416.000
486.391, 50628.000
487.723, 49438.000
489.054, 47425.000
490.385, 46081.000
491.716, 43886.000
493.047, 42601.000
494.377, 40944.000
495.708, 39010.000
497.038, 38422.000
498.368, 36692.000
499.697, 35667.000
501.027, 34787.000
502.356, 33477.000
503.685, 32798.000
505.014, 31842.000
506.342, 31331.000
507.671, 30605.000
508.999, 29828.000
510.327, 29589.000
511.655, 28569.000
512.982, 28733.000
514.310, 28033.000
515.637, 27722.000
516.964, 27640.000
518.291, 27044.000
519.617, 26968.000
520.944, 27000.000
522.270, 26481.000
523.596, 26363.000
524.921, 26212.000
526.247, 26140.000
527.572, 25811.000
528.897, 25712.000
530.222, 26011.000
531.547, 25435.000
532.871, 25803.000
534.196, 25388.000
535.520, 25454.000
536.844, 25459.000
538.167, 25319.000
539.491, 25413.000
540.814, 25182.000
542.137, 25188.000
543.460, 25328.000
544.783, 25030.000
546.105, 24953.000
547.427, 24990.000
548.749, 25041.000
550.071, 24851.000
551.393, 24754.000
552.714, 25056.000
554.035, 24747.000
555.356, 24851.000
556.677, 24722.000
557.998, 24803.000
559.318, 24886.000
560.638, 24583.000
561.958, 25083.000
563.278, 24603.000
564.597, 24682.000
565.917, 24932.000
567.236, 24556.000
568.555, 24918.000
569.874, 24764.000
571.192, 24785.000
572.511, 24770.000
573.829, 24627.000
575.147, 24864.000
576.464, 24500.000
577.782, 24896.000
579.099, 24884.000
580.416, 24804.000
581.733, 24884.000
583.050, 24933.000
584.366, 24849.000
585.683, 25005.000
586.999, 24958.000
588.315, 25024.000
589.630, 24745.000
590.946, 24860.000
592.261, 24818.000
593.576, 24920.000
594.891, 25009.000
596.206, 24676.000
597.520, 25027.000
598.834, 24788.000
600.148, 24922.000
601.462, 24957.000
602.776, 24704.000
604.089, 24772.000
605.402, 24969.000
606.715, 24807.000
608.028, 24852.000
609.341, 24726.000
610.653, 24729.000
611.965, 24609.000
613.277, 24668.100
614.589, 25168.000
615.901, 24800.000
617.212, 24891.000
618.523, 24969.000
619.834, 24711.000
621.145, 24913.000
622.456, 24787.000
623.766, 25060.000
625.076, 25098.000
626.386, 24878.000
627.696, 25152.000
629.006, 24952.000
630.315, 25090.000
631.624, 25233.000
632.933, 25092.000
634.242, 25204.000
635.551, 25040.000
636.859, 25331.000
638.167, 25186.000
639.475, 25377.000
640.783, 25272.000
642.090, 25280.000
643.398, 25472.000
644.705, 25415.000
646.012, 25525.000
647.318, 25729.000
648.625, 25501.000
649.931, 25544.000
651.237, 25537.000
652.543, 25507.000
653.849, 25825.000
655.155, 25640.000
656.460, 25820.000
657.765, 25556.000
659.070, 25636.000
660.375, 25776.000
661.679, 25566.000
662.984, 25737.000
664.288, 25612.000
665.592, 25554.000
666.895, 25732.000
668.199, 25664.000
669.502, 25640.000
670.805, 25464.000
672.108, 25756.000
673.411, 25774.000
674.713, 25603.000
676.016, 25779.000
677.318, 25638.000
678.620, 25693.000
679.921, 25678.000
681.223, 25740.000
682.524, 25764.000
683.825, 25796.000
685.126, 25782.000
686.427, 25906.000
687.727, 25917.000
689.028, 25952.000
690.328, 25921.000
691.628, 26040.000
692.927, 25873.000
694.227, 26016.000
695.526, 26093.000
696.825, 26180.000
698.124, 26091.000
699.423, 26285.000
700.721, 26208.000
702.020, 26532.000
703.318, 26361.000
704.616, 26291.000
705.913, 26449.000
707.211, 26190.000
708.508, 26604.000
709.805, 26364.000
711.102, 26501.000
712.399, 26482.000
713.695, 26425.000
714.992, 26500.207
716.288, 26643.000
717.584, 26585.000
718.879, 26585.000
720.175, 26717.000
721.470, 26522.000
722.765, 26826.000
724.060, 26754.000
725.355, 26820.000
726.649, 26828.000
727.944, 26924.000
729.238, 26889.576
730.532, 26881.000
731.825, 26821.000
733.119, 26905.000
734.412, 26847.000
735.705, 26949.000
736.998, 27038.000
738.291, 26929.000
739.584, 26851.000
740.876, 26972.000
742.168, 27076.000
743.460, 27164.000
744.752, 27180.000
746.043, 27004.000
747.334, 27296.000
748.626, 27211.000
749.916, 27303.000
751.207, 27458.000
752.498, 27470.000
753.788, 27526.000
755.078, 27591.000
756.368, 27537.000
757.658, 27677.000
758.947, 27692.758
760.237, 27698.000
761.526, 27777.000
762.815, 27802.000
764.104, 27779.000
765.392, 27689.000
766.680, 27893.000
767.969, 28016.000
769.257, 28462.000
770.544, 28066.000
771.832, 27809.000
773.119, 28194.000
774.406, 27940.000
775.693, 27836.000
776.980, 27936.000
778.267, 28033.000
779.553, 27893.000
780.839, 28124.000
782.125, 28082.000
783.411, 28136.000
784.697, 28052.000
785.982, 27984.000
787.267, 28272.000
788.552, 28224.000
789.837, 28260.000
791.122, 28200.000
792.406, 28185.740
793.690, 28208.000
794.974, 28090.000
796.258, 28101.000
797.542, 27972.000
798.825, 27948.000
800.108, 27968.000
801.391, 27894.000
802.674, 28010.000
803.957, 27857.000
805.239, 27718.000
806.522, 27723.000
807.804, 27499.000
809.085, 27570.000
810.367, 27688.000
811.649, 27489.000
812.930, 27668.000
814.211, 27487.000
815.492, 27550.000
816.772, 27536.096
818.053, 27458.000
819.333, 27513.000
820.613, 27618.000
821.893, 27664.000
823.173, 27674.000
824.452, 27768.000
825.732, 27657.000
827.011, 27786.000
828.290, 27913.000
829.568, 27744.000
830.847, 27712.000
832.125, 27659.000
833.403, 27649.025
834.681, 27740.000
835.959, 27731.000
837.236, 27702.000
838.514, 27782.000
839.791, 28072.000
841.068, 27978.000
842.345, 28049.000
843.621, 27968.000
844.898, 27984.000
846.174, 27898.000
847.450, 28098.000
848.726, 28014.000
850.001, 28099.000
851.277, 28275.000
852.552, 28279.000
853.827, 28278.000
855.102, 28293.883
856.376, 28278.000
857.651, 28249.000
858.925, 28308.000
860.199, 28377.000
861.473, 28243.000
862.746, 28245.000
864.020, 28380.000
865.293, 28294.000
866.566, 28454.000
867.839, 28388.000
869.112, 28492.000
870.384, 28502.000
871.656, 28420.000
872.928, 28552.000
874.200, 28417.000
875.472, 28665.000
876.744, 28468.000
878.015, 28650.000
879.286, 28788.000
880.557, 28734.000
881.828, 28769.000
883.098, 28602.000
884.369, 28904.000
885.639, 28964.000
886.909, 28945.000
888.178, 28817.000
889.448, 29060.000
890.717, 28852.000
891.987, 29108.000
893.256, 28878.000
894.524, 29005.000
895.793, 29256.000
897.061, 29190.000
898.330, 29158.000
899.598, 29315.000
900.865, 29266.000
902.133, 29162.000
903.401, 29400.000
904.668, 29458.000
905.935, 29358.000
907.202, 29306.000
908.468, 29517.000
909.735, 29609.000
911.001, 29560.000
912.267, 29712.000
913.533, 29499.000
914.799, 29684.000
916.064, 29797.000
917.330, 29548.000
918.595, 29897.000
919.860, 29770.000
921.124, 29819.000
922.389, 29813.000
923.653, 29819.000
924.918, 30009.000
926.182, 29967.000
927.445, 29971.000
928.709, 30304.000
929.972, 30167.000
931.236, 30273.000
932.499, 30148.000
933.761, 30272.000
935.024, 30268.000
936.286, 30161.000
937.549, 30460.000
938.811, 30400.000
940.073, 30466.000
941.334, 30722.000
942.596, 30288.000
943.857, 30481.000
945.118, 30545.000
946.379, 30520.000
947.640, 30677.000
948.900, 30785.000
950.161, 30609.000
951.421, 30918.000
952.681, 30703.000
953.940, 31011.000
955.200, 31011.000
956.459, 31017.000
957.719, 31094.000
958.978, 31078.000
960.236, 31232.000
961.495, 31259.000
962.753, 31114.000
964.012, 31507.000
965.270, 31341.000
966.527, 31440.000
967.785, 31500.000
969.043, 31276.000
970.300, 31794.000
971.557, 31659.000
972.814, 31621.000
974.071, 31949.000
975.327, 31578.000
976.583, 31918.000
977.840, 32026.000
979.095, 31818.000
980.351, 32022.000
981.607, 32073.000
982.862, 31881.000
984.117, 32481.000
985.372, 31996.000
986.627, 32355.000
987.882, 32564.000
989.136, 32157.000
990.390, 32747.000
991.644, 32452.000
992.898, 32670.000
994.152, 32843.000
995.405, 32687.000
996.659, 32996.000
997.912, 32908.000
999.165, 33137.000
1000.417, 33349.000
1001.670, 33059.000
1002.922, 33536.000
1004.174, 33369.000
1005.426, 33360.000
1006.678, 33456.000
1007.930, 33499.000
1009.181, 33486.000
1010.432, 33531.000
1011.683, 33597.000
1012.934, 33899.000
1014.185, 33891.000
1015.435, 33865.000
1016.685, 34114.000
1017.935, 33817.000
1019.185, 34240.000
1020.435, 34185.000
1021.684, 34100.000
1022.934, 34443.000
1024.183, 34118.000
1025.432, 34377.000
1026.680, 34492.000
1027.929, 34355.000
1029.177, 34449.000
1030.425, 34563.000
1031.673, 34459.000
1032.921, 34893.000
1034.169, 34562.000
1035.416, 34848.000
1036.663, 34840.000
1037.911, 34796.000
1039.157, 35009.000
1040.404, 34852.000
1041.650, 34692.000
1042.897, 35120.000
1044.143, 34970.000
1045.389, 35057.000
1046.634, 35107.000
1047.880, 34950.000
1049.125, 35360.000
1050.371, 35154.000
1051.615, 35532.000
1052.860, 35441.000
1054.105, 35294.000
1055.349, 35686.000
1056.593, 35727.000
1057.837, 35600.000
1059.081, 36187.000
1060.325, 35891.000
1061.568, 36128.000
1062.812, 36346.000
1064.055, 36442.000
1065.298, 36580.012
1066.540, 36724.426
1067.783, 36739.000
1069.025, 36984.000
1070.267, 37091.000
1071.509, 37238.000
1072.751, 37230.000
1073.993, 37201.000
1075.234, 37910.000
1076.475, 37390.000
1077.716, 37773.000
1078.957, 38294.000
1080.198, 37640.000
1081.438, 37893.000
1082.679, 37715.000
1083.919, 37905.000
1085.159, 38208.000
1086.398, 37885.000
1087.638, 38329.000
1088.877, 38312.000
1090.116, 38034.000
1091.355, 38708.000
1092.594, 38312.000
1093.833, 38461.000
1095.071, 38669.000
1096.309, 38323.000
1097.547, 38772.000
1098.785, 38489.000
1100.023, 38374.000
1101.260, 38596.000
1102.498, 37976.000
1103.735, 38468.000
1104.972, 38552.000
1106.208, 38196.000
1107.445, 38432.000
1108.681, 38342.000
1109.918, 38138.000
1111.154, 38409.000
1112.389, 37932.000
1113.625, 38022.000
1114.860, 38218.000
1116.096, 37834.000
1117.331, 38220.000
1118.566, 37993.000
1119.800, 37842.000
1121.035, 38296.000
1122.269, 37770.000
1123.503, 37972.000
1124.737, 38318.000
1125.971, 37707.000
1127.205, 38028.000
1128.438, 37461.000
1129.671, 37842.000
1130.904, 37960.000
1132.137, 37289.000
1133.370, 37797.000
1134.602, 37770.000
1135.834, 37188.000
1137.066, 37942.000
1138.298, 37283.000
1139.530, 37492.000
1140.762, 37705.000
1141.993, 36718.000
1143.224, 37579.000
1144.455, 37186.000
1145.686, 36643.664
1146.917, 37214.051
1148.147, 37514.371
1149.377, 37559.102
1150.607, 36582.723
1151.837, 36907.000
1153.067, 37189.000
1154.296, 36755.000
1155.526, 36817.000
1156.755, 37133.000
1157.984, 36673.000
1159.213, 36581.000
1160.441, 36980.000
1161.670, 36205.000
1162.898, 36834.000
1164.126, 36382.000
1165.354, 36330.000
1166.581, 36698.000
1167.809, 36029.000
1169.036, 36232.000
1170.263, 36419.000
1171.490, 35904.000
1172.717, 36595.000
1173.943, 36154.000
1175.170, 35752.000
1176.396, 36575.000
1177.622, 35708.000
1178.848, 36358.000
1180.073, 36238.000
1181.299, 35649.000
1182.524, 36380.000
1183.749, 35942.000
1184.974, 35904.000
1186.199, 36161.000
1187.423, 35668.000
1188.648, 36013.000
1189.872, 36050.000
1191.096, 35461.000
1192.320, 36116.000
1193.543, 35736.000
1194.767, 35539.000
1195.990, 35978.000
1197.213, 35589.000
1198.436, 35904.000
1199.659, 36092.000
1200.881, 35594.000
1202.104, 36476.000
1203.326, 35968.000
1204.548, 35791.000
1205.770, 36309.000
1206.991, 35697.000
1208.213, 35800.000
1209.434, 36404.000
1210.655, 35624.000
1211.876, 36424.000
1213.096, 36331.000
1214.317, 35745.000
1215.537, 36658.000
1216.757, 35925.000
1217.977, 36228.000
1219.197, 36623.000
1220.417, 35803.000
1221.636, 36653.000
1222.855, 36346.000
1224.074, 36068.000
1225.293, 36556.000
1226.512, 36237.000
1227.731, 36382.000
1228.949, 36673.000
1230.167, 35968.000
1231.385, 36729.000
1232.603, 36730.000
1233.820, 36246.000
1235.038, 36843.000
##END=



