##NAMES=Clinohumite
##RRUFFID=R040122
##IDEAL CHEMISTRY=Mg_9_(SiO_4_)_4_F_2_
##LOCALITY=Anzahamazonono,  Madagascar
##OWNER=RRUFF
##SOURCE=University of Arizona Mineral Museum
##DESCRIPTION=Orange-brown blebs embedded in calcite matrix
##STATUS=The identification of this mineral has been confirmed by X-ray diffraction and chemical analysis
##URL=rruff.info/R040122
##MEASURED CHEMISTRY=(Mg_0.96_Fe_0.02_Ti_0.01_Ca_0.01_)_9_(SiO_4_)_4_(F_0.59_(OH)_0.41_)_2_
##PIN_ID=M01103
##ORIENTATION=Laser parallel to -a* (-1 0 0). Fiducial mark perpendicular to laser is parallel to b [0 1 0]
63.96800, 1570.000
65.21800, 2915.000
66.46800, 1602.000
67.71800, 1566.000
68.96700, 1663.000
70.21700, 1622.000
71.46600, 1584.000
72.71500, 1725.000
73.96300, 1681.000
75.21200, 1716.000
76.46000, 1741.000
77.70800, 1858.451
78.95600, 2095.000
80.20300, 2212.000
81.45100, 2443.000
82.69800, 2739.000
83.94500, 3183.000
85.19100, 3615.000
86.43800, 4384.000
87.68400, 5119.000
88.93100, 6105.000
90.17600, 7354.000
91.42200, 8889.000
92.66800, 10414.00
93.91300, 12289.00
95.15800, 14263.00
96.40300, 16695.00
97.64800, 19478.00
98.89200, 22114.00
100.1370, 25204.00
101.3810, 28180.00
102.6250, 30912.00
103.8680, 34137.00
105.1120, 37147.00
106.3550, 39836.00
107.5980, 42536.77
108.8410, 44970.00
110.0840, 47280.00
111.3260, 49359.00
112.5680, 51271.00
113.8100, 53029.16
115.0520, 54685.00
116.2940, 56048.00
117.5350, 57290.00
118.7770, 58474.00
120.0180, 59176.00
121.2590, 59527.00
122.4990, 61063.00
123.7400, 61455.00
124.9800, 61238.00
126.2200, 61834.00
127.4600, 61941.00
128.6990, 62203.00
129.9390, 62690.00
131.1780, 63105.00
132.4170, 63051.00
133.6560, 63612.00
134.8940, 64122.00
136.1330, 64063.00
137.3710, 64592.00
138.6090, 65105.00
139.8470, 65121.00
141.0840, 65964.00
142.3220, 65832.00
143.5590, 66225.00
144.7960, 66314.00
146.0320, 66725.00
147.2690, 67436.00
148.5050, 66998.00
149.7420, 67432.00
150.9780, 67247.00
152.2130, 67698.00
153.4490, 67888.00
154.6840, 68353.00
155.9190, 68355.00
157.1540, 68981.00
158.3890, 68997.55
159.6240, 69449.00
160.8580, 69330.00
162.0920, 69398.00
163.3260, 69867.00
164.5600, 70451.00
165.7930, 70373.00
167.0270, 70942.00
168.2600, 71034.00
169.4930, 71272.00
170.7260, 71836.00
171.9580, 71793.00
173.1900, 72428.00
174.4230, 72699.00
175.6550, 73267.00
176.8860, 73545.66
178.1180, 73598.00
179.3490, 74086.00
180.5800, 74349.00
181.8110, 74627.00
183.0420, 75444.00
184.2730, 75482.00
185.5030, 76117.00
186.7330, 76185.00
187.9630, 76301.00
189.1930, 76220.00
190.4220, 75846.00
191.6520, 76053.00
192.8810, 76066.00
194.1100, 76254.62
195.3390, 76293.00
196.5670, 76988.00
197.7960, 77448.00
199.0240, 78078.00
200.2520, 78196.00
201.4790, 78850.00
202.7070, 79081.00
203.9340, 79348.00
205.1620, 79712.62
206.3890, 80164.00
207.6150, 80147.00
208.8420, 80235.00
210.0680, 80281.00
211.2940, 80144.00
212.5200, 80128.70
213.7460, 80213.00
214.9720, 80012.00
216.1970, 79796.00
217.4220, 79927.00
218.6470, 79591.00
219.8720, 79792.00
221.0970, 79911.00
222.3210, 80214.00
223.5450, 80371.00
224.7690, 80863.00
225.9930, 81468.00
227.2170, 81577.00
228.4400, 81843.00
229.6630, 82444.00
230.8860, 82560.00
232.1090, 83164.00
233.3320, 83540.00
234.5540, 83390.00
235.7770, 84166.00
236.9990, 84231.00
238.2210, 84763.00
239.4420, 84538.00
240.6640, 84381.00
241.8850, 84616.00
243.1060, 84587.00
244.3270, 84707.92
245.5480, 85113.00
246.7680, 84995.00
247.9880, 85018.00
249.2080, 85169.00
250.4280, 85718.00
251.6480, 86256.00
252.8670, 86202.00
254.0870, 86841.00
255.3060, 86754.00
256.5250, 87265.00
257.7440, 86840.00
258.9620, 87450.00
260.1800, 87646.00
261.3990, 87690.00
262.6160, 87318.00
263.8340, 87530.00
265.0520, 87651.00
266.2690, 87705.00
267.4860, 87096.00
268.7030, 87102.00
269.9200, 86822.00
271.1370, 86263.00
272.3530, 86581.00
273.5690, 86458.00
274.7850, 86649.00
276.0010, 86421.00
277.2170, 87059.00
278.4320, 86791.00
279.6470, 86677.00
280.8620, 86642.00
282.0770, 87219.00
283.2920, 87305.00
284.5060, 87930.00
285.7210, 87930.00
286.9350, 88323.00
288.1490, 88337.55
289.3620, 88635.00
290.5760, 88445.00
291.7890, 88484.00
293.0020, 88974.00
294.2150, 88545.00
295.4280, 88955.00
296.6400, 89060.00
297.8530, 88986.00
299.0650, 89297.00
300.2770, 88987.00
301.4890, 88967.00
302.7000, 89090.00
303.9120, 89465.00
305.1230, 89506.00
306.3340, 90083.00
307.5450, 90435.00
308.7550, 90896.00
309.9660, 91027.00
311.1760, 91484.00
312.3860, 91724.00
313.5960, 92401.00
314.8050, 93033.00
316.0150, 93414.00
317.2240, 94268.00
318.4330, 94166.00
319.6420, 94913.00
320.8510, 95124.00
322.0590, 95972.00
323.2680, 95669.00
324.4760, 95667.00
325.6840, 95263.00
326.8910, 95048.66
328.0990, 94688.00
329.3060, 94319.00
330.5140, 94195.00
331.7210, 93522.00
332.9270, 93637.00
334.1340, 93030.00
335.3400, 93216.00
336.5470, 92778.00
337.7530, 93241.00
338.9590, 93155.00
340.1640, 92741.00
341.3700, 93316.00
342.5750, 92992.00
343.7800, 93434.00
344.9850, 93124.00
346.1900, 92906.00
347.3940, 93426.00
348.5990, 92957.00
349.8030, 93294.00
351.0070, 93365.00
352.2100, 93126.00
353.4140, 93576.00
354.6170, 93534.00
355.8210, 93713.00
357.0240, 93711.00
358.2260, 93484.00
359.4290, 93691.00
360.6320, 93982.00
361.8340, 94194.00
363.0360, 93796.00
364.2380, 94125.00
365.4400, 93582.00
366.6410, 93824.00
367.8420, 93966.00
369.0440, 94413.00
370.2440, 94857.00
371.4450, 93974.00
372.6460, 94145.00
373.8460, 93901.00
375.0460, 94630.00
376.2460, 94326.00
377.4460, 95078.00
378.6460, 95340.00
379.8450, 95486.00
381.0450, 95253.00
382.2440, 95185.00
383.4430, 95470.00
384.6410, 95865.00
385.8400, 95656.00
387.0380, 96084.43
388.2360, 96855.00
389.4340, 96452.00
390.6320, 96853.00
391.8300, 96784.00
393.0270, 98029.00
394.2240, 98084.00
395.4210, 97935.00
396.6180, 97682.00
397.8150, 97618.00
399.0110, 98228.00
400.2080, 97413.00
401.4040, 97905.00
402.6000, 97381.00
403.7950, 97912.00
404.9910, 98082.00
406.1860, 98265.00
407.3810, 98566.00
408.5760, 98580.00
409.7710, 98839.00
410.9660, 99309.00
412.1600, 99199.00
413.3540, 100114.0
414.5490, 100309.0
415.7420, 99992.00
416.9360, 100541.0
418.1300, 100965.0
419.3230, 101107.0
420.5160, 100970.0
421.7090, 101373.0
422.9020, 101365.3
424.0940, 101120.0
425.2870, 101537.0
426.4790, 101396.0
427.6710, 101333.0
428.8630, 100785.0
430.0550, 101054.0
431.2460, 100950.0
432.4370, 101331.0
433.6290, 100977.0
434.8190, 101585.0
436.0100, 100865.0
437.2010, 101240.0
438.3910, 101035.0
439.5810, 101447.0
440.7710, 101764.0
441.9610, 101403.0
443.1510, 101733.0
444.3400, 101737.0
445.5300, 101796.0
446.7190, 101930.0
447.9080, 102249.0
449.0960, 102058.0
450.2850, 102413.0
451.4730, 102258.0
452.6620, 102087.0
453.8500, 102753.0
455.0370, 102419.0
456.2250, 102388.0
457.4120, 102802.0
458.6000, 103392.0
459.7870, 102700.0
460.9740, 103426.0
462.1610, 103438.0
463.3470, 103275.0
464.5330, 104107.0
465.7200, 103876.0
466.9060, 104565.0
468.0910, 104203.0
469.2770, 104737.0
470.4630, 104359.0
471.6480, 105275.0
472.8330, 105197.0
474.0180, 104979.0
475.2030, 105353.0
476.3870, 105265.8
477.5720, 105483.2
478.7560, 105495.0
479.9400, 105981.0
481.1240, 106183.0
482.3070, 106535.0
483.4910, 106258.0
484.6740, 106532.0
485.8570, 106235.0
487.0400, 106622.0
488.2230, 106754.0
489.4050, 106768.0
490.5880, 106563.0
491.7700, 106474.0
492.9520, 106925.0
494.1340, 106717.0
495.3160, 107185.0
496.4970, 106791.0
497.6780, 107321.0
498.8600, 107417.0
500.0400, 107288.0
501.2210, 107602.0
502.4020, 107987.0
503.5820, 108037.0
504.7630, 107918.0
505.9430, 108521.0
507.1220, 108926.0
508.3020, 108701.0
509.4820, 108848.0
510.6610, 108781.0
511.8400, 108473.0
513.0190, 109388.0
514.1980, 109139.0
515.3770, 109646.0
516.5550, 109890.0
517.7330, 109376.0
518.9110, 110344.0
520.0890, 110156.0
521.2670, 110292.0
522.4450, 110150.0
523.6220, 110610.0
524.7990, 110824.0
525.9760, 110937.0
527.1530, 111092.0
528.3300, 111016.0
529.5060, 111753.0
530.6830, 112035.0
531.8590, 112036.0
533.0350, 111972.0
534.2100, 112681.0
535.3860, 112557.0
536.5610, 113158.0
537.7370, 112936.0
538.9120, 112851.0
540.0870, 113842.0
541.2610, 113142.0
542.4360, 113203.0
543.6100, 113905.0
544.7850, 114235.0
545.9590, 113913.0
547.1320, 114347.0
548.3060, 113886.0
549.4800, 114634.0
550.6530, 115095.0
551.8260, 114440.0
552.9990, 114813.0
554.1720, 114701.0
555.3440, 114776.0
556.5170, 114753.0
557.6890, 114250.0
558.8610, 114492.0
560.0330, 113898.0
561.2050, 114467.0
562.3760, 114494.0
563.5480, 114962.0
564.7190, 114894.0
565.8900, 115161.0
567.0610, 115088.0
568.2310, 115327.0
569.4020, 115898.0
570.5720, 115587.0
571.7420, 116202.0
572.9120, 115607.0
574.0820, 116894.0
575.2520, 116714.0
576.4210, 117062.0
577.5900, 117200.0
578.7590, 117971.0
579.9280, 118485.0
581.0970, 118947.0
582.2660, 119250.0
583.4340, 119612.0
584.6020, 120203.0
585.7700, 120485.0
586.9380, 120804.0
588.1060, 121003.0
589.2730, 121395.0
590.4410, 122045.0
591.6080, 121991.0
592.7750, 123073.0
593.9420, 124199.0
595.1080, 124496.0
596.2750, 125116.0
597.4410, 126023.0
598.6070, 127630.0
599.7730, 129589.0
600.9390, 131532.0
602.1050, 133626.0
603.2700, 135999.0
604.4350, 138605.0
605.6010, 141022.0
606.7660, 143237.0
607.9300, 145833.0
609.0950, 146759.0
610.2590, 146841.0
611.4230, 146721.0
612.5880, 144881.0
613.7510, 142933.0
614.9150, 139399.0
616.0790, 136532.0
617.2420, 134626.0
618.4050, 131883.0
619.5680, 130261.0
620.7310, 128382.0
621.8940, 126901.0
623.0560, 126245.0
624.2190, 126243.0
625.3810, 125030.0
626.5430, 124601.0
627.7050, 123913.0
628.8660, 123891.0
630.0280, 123239.0
631.1890, 123092.0
632.3500, 122765.0
633.5110, 123103.0
634.6720, 122811.0
635.8330, 122799.3
636.9930, 123211.0
638.1530, 122797.0
639.3130, 122964.0
640.4730, 123266.0
641.6330, 122568.0
642.7930, 123185.0
643.9520, 123261.0
645.1110, 123328.0
646.2710, 122872.0
647.4290, 123147.0
648.5880, 123006.0
649.7470, 123747.0
650.9050, 123441.0
652.0630, 124337.0
653.2210, 124319.0
654.3790, 123922.0
655.5370, 124009.0
656.6950, 124179.0
657.8520, 124166.8
659.0090, 124401.0
660.1660, 124341.0
661.3230, 124632.0
662.4800, 124386.0
663.6360, 124456.0
664.7930, 124905.0
665.9490, 124941.0
667.1050, 125279.0
668.2610, 124889.0
669.4160, 125272.0
670.5720, 126031.0
671.7270, 126465.0
672.8830, 125859.0
674.0380, 126222.0
675.1920, 125989.0
676.3470, 126629.0
677.5020, 126174.0
678.6560, 126951.0
679.8100, 126682.0
680.9640, 127041.0
682.1180, 127137.0
683.2720, 127448.0
684.4250, 127605.8
685.5780, 127721.9
686.7320, 127948.0
687.8850, 127967.0
689.0370, 128184.0
690.1900, 128385.0
691.3420, 128644.0
692.4950, 129153.0
693.6470, 128710.0
694.7990, 129254.0
695.9510, 130193.0
697.1020, 129907.0
698.2540, 129488.0
699.4050, 129970.0
700.5560, 130076.0
701.7070, 129884.0
702.8580, 129985.0
704.0090, 130686.0
705.1590, 130710.0
706.3100, 131012.0
707.4600, 131403.0
708.6100, 130636.0
709.7590, 131211.0
710.9090, 132506.0
712.0590, 131668.0
713.2080, 132316.0
714.3570, 133258.0
715.5060, 132907.0
716.6550, 132684.0
717.8030, 133920.0
718.9520, 133645.0
720.1000, 133903.0
721.2480, 134157.0
722.3960, 134620.0
723.5440, 135359.0
724.6920, 135766.0
725.8390, 136494.0
726.9870, 136040.0
728.1340, 137220.0
729.2810, 137131.0
730.4280, 138141.0
731.5740, 138781.0
732.7210, 140470.0
733.8670, 141615.0
735.0130, 141888.2
736.1590, 142045.0
737.3050, 142617.0
738.4510, 143470.0
739.5960, 144408.0
740.7410, 145275.0
741.8870, 145933.0
743.0320, 146489.0
744.1760, 148047.0
745.3210, 148149.0
746.4660, 149507.0
747.6100, 149593.0
748.7540, 149882.0
749.8980, 151346.0
751.0420, 150898.0
752.1860, 150812.0
753.3290, 150957.0
754.4720, 151440.0
755.6160, 150574.0
756.7590, 150728.0
757.9020, 150728.0
759.0440, 149672.0
760.1870, 149867.0
761.3290, 147728.0
762.4710, 148524.0
763.6130, 147860.0
764.7550, 147124.0
765.8970, 147571.0
767.0390, 147576.0
768.1800, 147424.0
769.3210, 147505.0
770.4620, 147822.0
771.6030, 148297.0
772.7440, 149183.0
773.8840, 150663.0
775.0250, 151757.0
776.1650, 153632.0
777.3050, 154942.0
778.4450, 157380.0
779.5850, 159919.0
780.7240, 162350.0
781.8640, 164999.0
783.0030, 167674.0
784.1420, 169986.0
785.2810, 170486.0
786.4200, 171431.0
787.5590, 171323.0
788.6970, 170730.0
789.8350, 168670.0
790.9730, 167268.0
792.1110, 165345.0
793.2490, 163699.0
794.3870, 162762.0
795.5240, 161714.0
796.6620, 161618.7
797.7990, 161584.0
798.9360, 162486.0
800.0730, 163473.0
801.2090, 164945.0
802.3460, 166742.0
803.4820, 169620.0
804.6180, 172724.0
805.7540, 174886.0
806.8900, 178075.0
808.0260, 179865.0
809.1620, 181648.0
810.2970, 182976.0
811.4320, 183272.0
812.5670, 183807.0
813.7020, 183653.0
814.8370, 183769.0
815.9710, 184113.0
817.1060, 184917.8
818.2400, 186128.0
819.3740, 187591.0
820.5080, 190133.0
821.6420, 192751.0
822.7760, 198336.0
823.9090, 204306.0
825.0420, 213067.0
826.1760, 222966.0
827.3090, 233682.0
828.4410, 244909.0
829.5740, 254379.0
830.7060, 261592.0
831.8390, 261013.0
832.9710, 259825.0
834.1030, 252823.0
835.2350, 245905.0
836.3670, 238236.0
837.4980, 232237.0
838.6300, 230230.0
839.7610, 230185.0
840.8920, 233688.0
842.0230, 238682.0
843.1530, 244290.0
844.2840, 251657.0
845.4140, 257434.0
846.5450, 262317.0
847.6750, 262459.0
848.8050, 261821.0
849.9350, 258512.0
851.0640, 255164.0
852.1940, 251524.0
853.3230, 250400.0
854.4520, 252995.0
855.5810, 257563.0
856.7100, 266761.0
857.8390, 275999.0
858.9670, 286967.0
860.0960, 295055.0
861.2240, 297495.0
862.3520, 293271.0
863.4800, 283543.0
864.6080, 271646.0
865.7350, 256456.0
866.8630, 242312.0
867.9900, 229065.0
869.1170, 219097.0
870.2440, 211611.0
871.3710, 205449.0
872.4970, 201199.0
873.6240, 197728.0
874.7500, 195576.0
875.8760, 193547.0
877.0020, 191778.0
878.1280, 190531.0
879.2540, 187184.0
880.3790, 185313.0
881.5050, 182285.0
882.6300, 179653.0
883.7550, 177244.0
884.8800, 174455.0
886.0050, 173165.0
887.1290, 171061.0
888.2540, 169447.0
889.3780, 168819.0
890.5020, 167703.0
891.6260, 167103.0
892.7500, 166414.0
893.8730, 166553.0
894.9970, 165446.0
896.1200, 165393.0
897.2440, 164576.0
898.3670, 165193.0
899.4890, 164368.0
900.6120, 164481.0
901.7350, 164584.0
902.8570, 164382.0
903.9790, 164646.0
905.1010, 164723.0
906.2230, 164973.0
907.3450, 165099.0
908.4670, 165003.0
909.5880, 165328.0
910.7100, 165292.0
911.8310, 165440.0
912.9520, 165843.0
914.0730, 165597.0
915.1930, 165675.0
916.3140, 165637.0
917.4340, 165473.9
918.5550, 165105.0
919.6750, 165283.0
920.7950, 165045.0
921.9140, 165082.0
923.0340, 164894.0
924.1530, 164881.0
925.2730, 164970.7
926.3920, 165721.0
927.5110, 165528.0
928.6300, 165383.0
929.7480, 166342.0
930.8670, 166363.0
931.9850, 166417.0
933.1040, 165892.0
934.2220, 166127.0
935.3400, 166306.0
936.4570, 165346.0
937.5750, 165528.0
938.6920, 164997.0
939.8100, 164336.0
940.9270, 165326.0
942.0440, 164264.0
943.1610, 166028.0
944.2770, 165766.0
945.3940, 165638.0
946.5100, 166190.0
947.6270, 165752.0
948.7430, 166535.0
949.8590, 166446.0
950.9740, 167596.0
952.0900, 167200.0
953.2050, 168473.0
954.3210, 169059.0
955.4360, 169203.0
956.5510, 170902.0
957.6660, 172437.0
958.7800, 174194.0
959.8950, 175469.0
961.0090, 179340.0
962.1240, 182038.0
963.2380, 186451.0
964.3520, 191353.0
965.4650, 195864.0
966.5790, 200674.0
967.6930, 202875.0
968.8060, 203659.0
969.9190, 202985.0
971.0320, 199365.0
972.1450, 195657.0
973.2580, 193312.0
974.3700, 188624.0
975.4830, 185934.0
976.5950, 181600.0
977.7070, 179102.0
978.8190, 177468.0
979.9310, 176047.0
981.0430, 174901.0
982.1540, 173996.0
983.2650, 173218.0
984.3770, 172700.0
985.4880, 172565.0
986.5990, 171441.0
987.7090, 171377.0
988.8200, 170674.0
989.9300, 171351.0
991.0410, 170720.0
992.1510, 170978.6
993.2610, 171498.1
994.3710, 171796.4
995.4810, 171885.3
996.5900, 171138.0
997.6990, 171470.5
998.8090, 171370.3
999.9180, 171252.3
1001.027, 171736.9
1002.136, 171111.1
1003.244, 172046.0
1004.353, 171851.0
1005.461, 171939.0
1006.569, 172220.0
1007.677, 172158.0
1008.785, 172614.0
1009.893, 171828.0
1011.001, 172871.0
1012.108, 172552.0
1013.215, 172516.0
1014.323, 173097.0
1015.430, 173130.0
1016.536, 173163.0
1017.643, 172863.0
1018.750, 173599.0
1019.856, 173743.0
1020.962, 174286.0
1022.068, 174288.0
1023.174, 174175.0
1024.280, 174114.0
1025.386, 174177.0
1026.491, 174009.0
1027.597, 174348.2
1028.702, 174751.0
1029.807, 174970.0
1030.912, 175656.0
1032.017, 175915.0
1033.121, 175805.0
1034.226, 175641.0
1035.330, 176005.0
1036.434, 175791.0
1037.538, 176074.0
1038.642, 175994.0
1039.746, 176458.0
1040.850, 176423.0
1041.953, 176408.0
1043.056, 176245.0
1044.159, 176608.0
1045.262, 177554.0
1046.365, 177556.0
1047.468, 177146.0
1048.571, 177732.0
1049.673, 177291.0
1050.775, 177554.0
1051.877, 177432.0
1052.979, 177445.9
1054.081, 177663.0
1055.183, 177669.0
1056.284, 177715.0
1057.386, 177982.0
1058.487, 178016.0
1059.588, 177554.0
1060.689, 177931.0
1061.790, 177463.0
1062.890, 178242.0
1063.991, 178712.0
1065.091, 178339.0
1066.191, 178620.0
1067.291, 177922.0
1068.391, 178299.0
1069.491, 179130.0
1070.591, 178712.0
1071.690, 179440.0
1072.790, 179148.0
1073.889, 179650.0
1074.988, 179874.0
1076.087, 180907.0
1077.185, 180580.0
1078.284, 180114.0
1079.382, 181573.0
1080.481, 180788.0
1081.579, 181591.0
1082.677, 181737.0
1083.775, 181296.0
1084.872, 181791.0
1085.970, 182095.0
1087.067, 182441.0
1088.165, 182703.0
1089.262, 182696.0
1090.359, 183161.0
1091.456, 183746.0
1092.552, 184342.0
1093.649, 183825.0
1094.745, 184028.0
1095.842, 183696.0
1096.938, 183546.0
1098.034, 184101.0
1099.130, 184573.0
1100.225, 185185.0
1101.321, 184390.0
1102.416, 185452.0
1103.511, 185649.0
1104.607, 184966.0
1105.702, 185625.0
1106.796, 185535.0
1107.891, 185578.0
1108.986, 186292.0
1110.080, 186163.0
1111.174, 186443.0
1112.268, 186170.0
1113.362, 186793.0
1114.456, 186242.0
1115.550, 186890.0
1116.643, 187313.0
1117.737, 186788.0
1118.830, 187576.0
1119.923, 187542.0
1121.016, 188363.0
1122.109, 187768.0
1123.201, 188286.0
1124.294, 188031.0
1125.386, 188244.0
1126.478, 188823.0
1127.571, 188429.0
1128.663, 189021.0
1129.754, 189275.0
1130.846, 189118.0
1131.937, 189414.0
1133.029, 188995.0
1134.120, 190288.0
1135.211, 189749.0
1136.302, 189838.0
1137.393, 190887.0
1138.484, 190012.0
1139.574, 190604.0
1140.664, 190583.0
1141.755, 191115.0
1142.845, 191349.0
1143.935, 191813.0
1145.025, 191782.0
1146.114, 191296.0
1147.204, 192528.0
1148.293, 191987.0
1149.382, 192341.0
1150.471, 192993.0
1151.560, 192515.0
1152.649, 193139.0
1153.738, 192982.0
1154.826, 193526.0
1155.915, 193815.0
1157.003, 193015.0
1158.091, 194290.0
1159.179, 193709.0
1160.267, 194984.0
1161.355, 194027.0
1162.442, 194286.0
1163.529, 195212.0
1164.617, 195250.0
1165.704, 195429.0
1166.791, 194986.0
1167.878, 196006.0
1168.964, 195548.0
1170.051, 195880.0
1171.137, 196132.0
1172.224, 195814.0
1173.310, 196740.0
1174.396, 196154.0
1175.481, 196166.0
1176.567, 197003.0
1177.653, 196548.0
1178.738, 197508.0
1179.823, 197172.0
1180.909, 196947.0
1181.994, 197926.0
1183.078, 198288.0
1184.163, 197778.0
1185.248, 197721.0
1186.332, 198641.0
1187.416, 197961.0
1188.501, 198781.0
1189.585, 199294.0
1190.669, 199091.0
1191.752, 198761.0
1192.836, 198839.0
1193.919, 199656.0
1195.003, 200194.0
1196.086, 199587.0
1197.169, 200561.0
1198.252, 199912.0
1199.334, 200744.0
1200.417, 200467.0
1201.500, 200950.0
1202.582, 201339.0
1203.664, 201402.0
1204.746, 201857.0
1205.828, 201689.0
1206.910, 201678.0
1207.992, 202628.0
1209.073, 202030.0
1210.154, 202706.0
1211.236, 202690.0
1212.317, 202613.0
1213.398, 203373.0
1214.479, 202787.0
1215.559, 203869.0
1216.640, 203367.0
1217.720, 203866.0
1218.800, 204433.0
1219.881, 203201.0
1220.961, 204084.0
1222.040, 203944.0
1223.120, 204316.0
1224.200, 204963.0
1225.279, 204618.0
1226.358, 205424.0
1227.438, 204647.0
1228.517, 205928.0
1229.595, 205567.0
1230.674, 205059.0
1231.753, 205967.0
1232.831, 205500.0
1233.910, 206198.0
1234.988, 206457.0
1236.066, 206931.0
1237.144, 207040.0
1238.222, 206373.0
1239.299, 207831.0
1240.377, 207434.0
1241.454, 208511.0
1242.531, 207824.0
1243.608, 207351.0
1244.685, 209175.0
1245.762, 208719.0
1246.839, 209863.0
1247.915, 209177.0
1248.992, 209079.0
1250.068, 209777.0
1251.144, 209125.0
1252.220, 210344.0
1253.296, 209392.0
1254.372, 210471.0
1255.447, 209782.0
1256.523, 210166.0
1257.598, 211221.0
1258.673, 211198.0
1259.748, 210994.0
1260.823, 211082.0
1261.898, 211539.0
1262.973, 212133.0
1264.047, 211699.0
1265.122, 211528.0
1266.196, 211958.0
1267.270, 211832.0
1268.344, 212623.0
1269.418, 212068.0
1270.491, 213012.0
1271.565, 212643.0
1272.638, 213064.0
1273.712, 213239.0
1274.785, 213056.0
1275.858, 213441.2
1276.931, 213578.0
1278.003, 213853.0
1279.076, 214334.0
1280.148, 214600.0
1281.221, 214819.0
1282.293, 214760.0
1283.365, 214912.0
1284.437, 215286.0
1285.509, 215159.0
1286.580, 215900.0
1287.652, 215318.0
1288.723, 216001.0
1289.794, 215556.0
1290.866, 216242.0
1291.937, 216390.0
1293.007, 215756.0
1294.078, 216912.3
1295.149, 217606.4
1296.219, 218079.1
1297.289, 218342.4
1298.360, 217769.6
1299.430, 218276.6
1300.500, 218350.8
1301.569, 218407.0
1302.639, 219066.0
1303.709, 218614.7
1304.778, 219263.9
1305.847, 219473.8
1306.916, 219884.7
1307.985, 219860.2
1309.054, 219970.1
1310.123, 220515.7
1311.191, 220819.9
1312.260, 220745.3
1313.328, 220222.0
1314.396, 220160.0
1315.464, 220990.0
1316.532, 220241.0
1317.600, 221135.0
1318.668, 220639.0
1319.735, 221064.0
1320.802, 221715.0
1321.870, 221596.0
1322.937, 222328.0
1324.004, 221941.0
1325.071, 222303.0
1326.137, 222709.0
1327.204, 221741.0
1328.270, 222582.0
1329.337, 222478.0
1330.403, 223072.0
1331.469, 224146.0
1332.535, 222492.0
1333.601, 223490.0
1334.666, 223490.0
1335.732, 224440.0
1336.797, 224286.0
1337.862, 223882.0
1338.927, 224931.0
1339.992, 223918.0
1341.057, 224585.0
1342.122, 224488.0
1343.187, 224972.0
1344.251, 225342.1
1345.315, 224775.0
1346.380, 225990.0
1347.444, 225939.0
1348.508, 225944.0
1349.571, 227260.0
1350.635, 226290.0
1351.699, 227061.0
1352.762, 227415.0
1353.825, 226635.0
1354.888, 227468.0
1355.951, 227208.0
1357.014, 228269.0
1358.077, 227718.0
1359.140, 227869.0
1360.202, 228629.0
1361.264, 227671.0
1362.327, 228774.0
1363.389, 228504.0
1364.451, 228662.0
1365.513, 229217.0
1366.574, 228751.0
1367.636, 230192.0
1368.697, 229921.0
1369.759, 229048.0
1370.820, 230255.0
1371.881, 229226.0
1372.942, 230617.0
1374.002, 229993.0
1375.063, 230243.0
1376.124, 230838.0
1377.184, 229827.0
1378.244, 231428.0
1379.304, 230393.0
1380.364, 231531.0
1381.424, 231448.0
1382.484, 231434.0
1383.544, 232667.0
1384.603, 231967.0
1385.663, 231877.0
1386.722, 232068.0
1387.781, 231524.0
1388.840, 233210.0
1389.899, 233060.0
1390.957, 233515.0
1392.016, 233940.0
1393.074, 233395.0
1394.133, 234650.0
1395.191, 233080.0
1396.249, 234782.0
1397.307, 234854.0
1398.365, 234313.0
1399.422, 234888.0
1400.480, 234586.0
1401.537, 234252.0
1402.595, 235022.0
1403.652, 234867.0
1404.709, 236223.0
1405.766, 235884.0
1406.823, 236199.0
1407.879, 236420.0
1408.936, 235745.0
1409.992, 236631.0
1411.048, 236298.4
1412.104, 236738.0
1413.160, 236632.0
1414.216, 236697.0
1415.272, 237628.0
1416.328, 237125.0
1417.383, 237677.0
1418.439, 237786.0
1419.494, 237314.0
1420.549, 238902.0
1421.604, 237813.0
1422.659, 238422.0
1423.713, 238405.0
1424.768, 237803.0
1425.822, 239485.0
1426.877, 238803.0
1427.931, 240089.0
1428.985, 239055.0
1430.039, 239204.0
1431.093, 240920.0
1432.147, 238995.0
1433.200, 240360.0
1434.254, 240485.0
1435.307, 240863.0
1436.360, 240900.0
1437.413, 241178.0
1438.466, 241618.0
1439.519, 241832.0
1440.572, 242048.6
1441.624, 241400.0
1442.677, 242277.0
1443.729, 242312.0
1444.781, 242225.0
1445.833, 243076.0
1446.885, 243450.0
1447.937, 242866.0
1448.988, 243124.0
1450.040, 242826.0
1451.091, 242928.0
1452.143, 243993.0
1453.194, 243762.0
1454.245, 244294.0
1455.296, 243765.0
1456.347, 244010.0
1457.397, 245167.0
1458.448, 244421.0
1459.498, 245636.0
1460.549, 245186.0
1461.599, 244147.0
1462.649, 245770.0
1463.699, 245297.0
1464.748, 246167.0
1465.798, 246274.0
1466.848, 245945.0
1467.897, 247232.0
1468.946, 246983.0
1469.995, 247560.0
1471.044, 247142.0
1472.093, 247148.0
1473.142, 248136.0
1474.191, 247412.0
1475.239, 248141.0
1476.288, 248080.0
1477.336, 247606.0
1478.384, 248725.0
1479.432, 248559.0
1480.480, 249025.0
1481.528, 249267.0
1482.575, 249053.0
1483.623, 249712.0
1484.670, 249279.0
1485.718, 249833.0
1486.765, 249966.0
1487.812, 249826.0
1488.859, 250721.0
1489.905, 249863.0
1490.952, 250472.0
1491.999, 251368.0
1493.045, 250801.0
1494.091, 251298.0
1495.137, 251410.0
1496.183, 252061.0
1497.229, 251701.0
1498.275, 252442.0
1499.321, 253004.0
1500.366, 252706.0
1501.412, 253356.0
1502.457, 253371.0
1503.502, 252568.0
1504.547, 254391.0
1505.592, 253410.0
1506.637, 253837.0
1507.682, 254496.0
1508.726, 254983.0
1509.771, 255706.0
1510.815, 255651.0
1511.859, 255684.0
1512.903, 256129.0
1513.947, 255552.0
1514.991, 256687.0
1516.034, 256293.0
1517.078, 256016.0
1518.121, 256951.0
1519.165, 256523.0
1520.208, 257190.0
1521.251, 256333.0
1522.294, 256292.0
1523.337, 257925.0
1524.379, 257116.0
1525.422, 258303.0
1526.464, 257564.0
1527.507, 257710.0
1528.549, 258504.0
1529.591, 258194.0
1530.633, 258848.0
1531.675, 258881.0
1532.717, 259217.0
1533.758, 259923.0
1534.800, 258792.0
1535.841, 259417.0
1536.882, 259082.0
1537.923, 259916.0
1538.964, 260171.0
1540.005, 259815.0
1541.046, 260126.0
1542.087, 260665.0
1543.127, 259808.0
1544.167, 261328.0
1545.208, 260650.0
1546.248, 260912.0
1547.288, 261873.0
1548.328, 260933.0
1549.367, 262029.0
1550.407, 260629.0
1551.447, 261904.0
1552.486, 262218.0
1553.525, 261726.0
1554.564, 262604.0
1555.603, 261978.0
1556.642, 263482.0
1557.681, 262602.0
1558.720, 262671.0
1559.758, 263484.0
1560.797, 262558.0
1561.835, 263078.0
1562.873, 262727.0
1563.911, 262390.0
1564.949, 264060.0
1565.987, 263552.0
1567.025, 264270.2
1568.062, 264937.6
1569.100, 265383.9
1570.137, 265620.8
1571.174, 265021.3
1572.212, 265502.0
1573.248, 265549.5
1574.285, 265579.5
1575.322, 266211.9
1576.359, 265734.1
1577.395, 266356.9
1578.432, 266540.4
1579.468, 266924.8
1580.504, 266873.8
1581.540, 266141.0
##END=



