##NAMES=Colemanite
##RRUFFID=R050102
##IDEAL CHEMISTRY=CaB_3_O_4_(OH)_3_&#183;H_2_O
##LOCALITY=Kramer deposit, Boron, Kern County, California, USA
##OWNER=RRUFF
##SOURCE=Rock Currier
##DESCRIPTION=Colorless prismatic to tabular crystals
##STATUS=The identification of this mineral has been confirmed by X-ray diffraction and chemical analysis
##URL=rruff.info/R050102
##MEASURED CHEMISTRY=Ca_1.00_B_3.00_O_4_(OH)_3_Â·H_2_O ; trace amounts of Na; B assumed by stoichiometry and charge balance.
##PIN_ID=L00407
##ORIENTATION=Laser parallel to c* (0 0 1). Fiducial mark perpendicular to laser is parallel to a [1 0 0]
63.56100, 1062.000
64.80100, 1186.000
66.04100, 1173.000
67.28100, 1294.000
68.52100, 1444.000
69.76100, 1479.000
71.00100, 1601.000
72.24000, 1852.000
73.47900, 2099.000
74.71800, 2572.000
75.95700, 3178.000
77.19600, 3879.000
78.43500, 4795.000
79.67300, 6031.000
80.91200, 7307.000
82.15000, 9108.000
83.38800, 10996.00
84.62600, 13307.00
85.86300, 15542.00
87.10100, 18374.00
88.33800, 21298.00
89.57500, 24139.00
90.81200, 27228.00
92.04900, 30015.00
93.28600, 34423.00
94.52300, 37622.00
95.75900, 40829.00
96.99500, 45281.00
98.23100, 50065.00
99.46700, 55059.00
100.7030, 59753.00
101.9390, 63553.00
103.1740, 67098.00
104.4090, 69500.00
105.6440, 70169.00
106.8790, 69985.00
108.1140, 69331.00
109.3490, 68606.00
110.5830, 68427.00
111.8180, 68169.00
113.0520, 67523.00
114.2860, 67491.00
115.5200, 67682.00
116.7530, 67581.00
117.9870, 66934.00
119.2200, 66853.00
120.4530, 66314.00
121.6860, 66092.00
122.9190, 65826.00
124.1520, 66320.00
125.3850, 66708.00
126.6170, 67748.00
127.8490, 68346.00
129.0810, 68965.00
130.3130, 69435.00
131.5450, 69686.00
132.7770, 69921.00
134.0080, 69531.00
135.2390, 69208.00
136.4710, 68790.00
137.7020, 68458.00
138.9320, 68282.00
140.1630, 67904.00
141.3930, 67684.00
142.6240, 67790.00
143.8540, 68281.00
145.0840, 68482.00
146.3140, 68669.00
147.5440, 68667.00
148.7730, 68978.00
150.0020, 68777.00
151.2320, 68409.00
152.4610, 67443.00
153.6900, 67134.00
154.9180, 66368.00
156.1470, 65766.00
157.3750, 65539.00
158.6040, 65354.00
159.8320, 65376.59
161.0600, 65779.00
162.2870, 66042.00
163.5150, 66752.00
164.7420, 67719.00
165.9700, 68893.00
167.1970, 70164.00
168.4240, 71322.00
169.6510, 73330.00
170.8770, 75257.00
172.1040, 77139.00
173.3300, 78777.00
174.5560, 79866.00
175.7820, 80473.12
177.0080, 80441.97
178.2340, 80302.00
179.4590, 79037.00
180.6850, 77639.00
181.9100, 76143.00
183.1350, 73582.00
184.3600, 71115.00
185.5850, 69179.00
186.8090, 68041.00
188.0340, 67617.00
189.2580, 67004.00
190.4820, 66522.00
191.7060, 66780.00
192.9300, 66266.00
194.1530, 66411.00
195.3770, 66413.00
196.6000, 66382.00
197.8230, 66267.00
199.0460, 66093.00
200.2690, 66750.00
201.4910, 66369.00
202.7140, 66826.00
203.9360, 66683.00
205.1580, 66972.00
206.3800, 67338.00
207.6020, 67169.00
208.8240, 67455.00
210.0450, 67888.00
211.2670, 67718.00
212.4880, 67931.00
213.7090, 68235.00
214.9300, 68890.00
216.1510, 68997.00
217.3710, 69572.00
218.5920, 69556.00
219.8120, 69674.00
221.0320, 70098.00
222.2520, 70129.00
223.4720, 70277.00
224.6910, 70782.00
225.9110, 70742.00
227.1300, 70670.00
228.3490, 70385.00
229.5680, 70851.00
230.7870, 70948.00
232.0050, 70336.00
233.2240, 70830.00
234.4420, 71156.00
235.6600, 71054.00
236.8780, 71620.00
238.0960, 71792.00
239.3140, 71958.00
240.5310, 71985.00
241.7490, 72028.00
242.9660, 72794.00
244.1830, 72379.00
245.4000, 72518.00
246.6160, 73124.00
247.8330, 73039.00
249.0490, 72594.00
250.2660, 73085.00
251.4820, 73238.00
252.6980, 73395.00
253.9130, 73466.00
255.1290, 73906.00
256.3440, 74181.00
257.5600, 74576.00
258.7750, 74636.00
259.9900, 75260.00
261.2040, 75128.00
262.4190, 75262.00
263.6330, 75661.00
264.8480, 75696.00
266.0620, 75722.00
267.2760, 76406.00
268.4900, 76312.00
269.7030, 76123.00
270.9170, 76488.00
272.1300, 76569.00
273.3430, 76622.00
274.5560, 77034.00
275.7690, 77172.00
276.9820, 76881.00
278.1940, 77248.00
279.4070, 76862.00
280.6190, 77296.00
281.8310, 77423.00
283.0430, 77833.00
284.2550, 77697.00
285.4660, 78018.00
286.6770, 78446.00
287.8890, 79122.00
289.1000, 79395.00
290.3110, 79811.00
291.5210, 80161.00
292.7320, 80512.00
293.9420, 80864.00
295.1530, 81174.00
296.3630, 81643.00
297.5730, 82102.00
298.7830, 82395.00
299.9920, 83017.00
301.2020, 82939.00
302.4110, 83392.00
303.6200, 83201.00
304.8290, 82930.00
306.0380, 83096.00
307.2470, 83098.00
308.4550, 83594.00
309.6630, 84683.00
310.8720, 83706.00
312.0800, 84445.00
313.2880, 84268.00
314.4950, 85257.00
315.7030, 86107.00
316.9100, 87007.00
318.1170, 87893.00
319.3240, 89209.00
320.5310, 89590.00
321.7380, 90261.00
322.9450, 90329.00
324.1510, 90517.00
325.3570, 89488.00
326.5630, 89221.00
327.7690, 87701.00
328.9750, 87248.00
330.1810, 85932.00
331.3860, 85161.00
332.5910, 84430.00
333.7960, 83404.00
335.0010, 82547.00
336.2060, 82453.00
337.4110, 82213.00
338.6150, 81583.00
339.8200, 81612.00
341.0240, 81308.85
342.2280, 80938.00
343.4320, 80928.00
344.6350, 80764.00
345.8390, 80390.00
347.0420, 80853.00
348.2450, 80463.00
349.4480, 81025.00
350.6510, 80796.00
351.8540, 81161.00
353.0560, 81020.00
354.2590, 81017.00
355.4610, 81145.00
356.6630, 81329.00
357.8650, 81021.00
359.0670, 81680.00
360.2680, 81785.00
361.4700, 81618.00
362.6710, 81761.00
363.8720, 81814.51
365.0730, 82107.00
366.2740, 81962.48
367.4740, 82304.00
368.6750, 82263.00
369.8750, 82221.00
371.0750, 82493.00
372.2750, 82795.00
373.4750, 83422.00
374.6740, 83120.00
375.8740, 82996.00
377.0730, 83478.00
378.2720, 84134.00
379.4710, 83941.00
380.6700, 84351.00
381.8690, 84175.00
383.0670, 84389.00
384.2660, 84456.00
385.4640, 84335.00
386.6620, 85427.00
387.8600, 85321.00
389.0570, 85141.00
390.2550, 84717.00
391.4520, 85346.00
392.6490, 84817.00
393.8460, 84991.00
395.0430, 85008.00
396.2400, 85114.00
397.4370, 84802.00
398.6330, 85450.00
399.8290, 85186.00
401.0250, 85251.00
402.2210, 85591.00
403.4170, 85391.00
404.6130, 85517.00
405.8080, 85612.00
407.0030, 85764.00
408.1980, 85744.00
409.3930, 85959.00
410.5880, 85894.00
411.7830, 86281.00
412.9770, 86867.00
414.1720, 86080.00
415.3660, 87006.00
416.5600, 86337.00
417.7530, 86735.00
418.9470, 86751.00
420.1410, 86908.00
421.3340, 87042.00
422.5270, 87187.00
423.7200, 87340.00
424.9130, 87538.00
426.1060, 87401.00
427.2980, 87462.00
428.4900, 87789.45
429.6830, 88201.00
430.8750, 88438.00
432.0670, 88594.00
433.2580, 88801.00
434.4500, 88838.00
435.6410, 88680.00
436.8320, 89230.00
438.0240, 89456.00
439.2140, 89265.00
440.4050, 89374.00
441.5960, 89351.00
442.7860, 90236.00
443.9760, 90139.00
445.1670, 90360.00
446.3560, 90535.00
447.5460, 90683.79
448.7360, 90932.00
449.9250, 91227.00
451.1150, 91189.00
452.3040, 91622.00
453.4930, 91590.00
454.6810, 91486.00
455.8700, 91928.00
457.0590, 92583.00
458.2470, 92458.00
459.4350, 92554.00
460.6230, 92630.00
461.8110, 92806.00
462.9980, 92855.00
464.1860, 93137.00
465.3730, 93638.00
466.5600, 93899.00
467.7470, 94153.00
468.9340, 94415.00
470.1210, 95069.00
471.3080, 96015.00
472.4940, 96945.00
473.6800, 97613.00
474.8660, 98420.00
476.0520, 99296.00
477.2380, 100131.0
478.4230, 101338.0
479.6090, 101812.0
480.7940, 102032.0
481.9790, 101759.0
483.1640, 101956.0
484.3490, 100353.0
485.5330, 100472.0
486.7180, 99371.00
487.9020, 98138.00
489.0860, 97775.00
490.2700, 96837.00
491.4540, 96906.00
492.6370, 96350.00
493.8210, 96356.00
495.0040, 96211.00
496.1870, 96506.00
497.3700, 96074.00
498.5530, 96517.00
499.7360, 95713.00
500.9180, 96404.00
502.1000, 96556.00
503.2830, 96571.00
504.4650, 97190.00
505.6460, 96686.00
506.8280, 97015.00
508.0100, 97074.00
509.1910, 97528.00
510.3720, 97680.00
511.5530, 97782.00
512.7340, 97791.00
513.9150, 98243.00
515.0950, 98520.00
516.2760, 98026.00
517.4560, 98327.00
518.6360, 97828.00
519.8160, 98382.00
520.9950, 98421.53
522.1750, 98805.00
523.3540, 98995.00
524.5340, 98899.00
525.7130, 99398.00
526.8920, 99314.00
528.0700, 99667.24
529.2490, 100000.0
530.4270, 100274.0
531.6060, 100518.0
532.7840, 100755.0
533.9620, 101120.0
535.1390, 101669.0
536.3170, 101348.0
537.4940, 101542.0
538.6720, 102059.0
539.8490, 102161.0
541.0260, 102587.4
542.2030, 102872.6
543.3790, 103278.0
544.5560, 103428.0
545.7320, 103653.0
546.9080, 103872.0
548.0840, 104304.0
549.2600, 104764.0
550.4360, 105128.0
551.6110, 106473.0
552.7860, 106948.0
553.9620, 108321.0
555.1370, 109744.0
556.3110, 111535.0
557.4860, 114522.0
558.6610, 117019.0
559.8350, 120483.0
561.0090, 123592.0
562.1830, 126948.0
563.3570, 130441.0
564.5310, 132121.0
565.7040, 132688.0
566.8780, 132447.0
568.0510, 129856.0
569.2240, 127192.0
570.3970, 123330.0
571.5700, 119866.0
572.7420, 117092.0
573.9150, 114671.5
575.0870, 113564.0
576.2590, 111420.0
577.4310, 110950.0
578.6030, 110621.0
579.7740, 109564.0
580.9460, 109230.0
582.1170, 109421.0
583.2880, 108905.0
584.4590, 108850.0
585.6300, 109485.0
586.8010, 109899.0
587.9710, 109716.0
589.1410, 110114.0
590.3110, 110838.0
591.4810, 111665.0
592.6510, 111952.0
593.8210, 113107.0
594.9900, 114363.0
596.1600, 116073.0
597.3290, 118377.0
598.4980, 120956.0
599.6670, 125095.0
600.8350, 128764.0
602.0040, 134901.0
603.1720, 141868.0
604.3400, 150479.0
605.5080, 160293.0
606.6760, 171444.0
607.8440, 181298.0
609.0120, 191607.0
610.1790, 198746.0
611.3460, 202856.0
612.5130, 200182.0
613.6800, 194233.0
614.8470, 184012.0
616.0130, 172159.0
617.1800, 160337.0
618.3460, 149449.0
619.5120, 141148.0
620.6780, 134435.0
621.8440, 129182.0
623.0090, 125583.0
624.1750, 121964.0
625.3400, 120327.0
626.5050, 118324.0
627.6700, 117098.0
628.8350, 115780.0
629.9990, 115020.0
631.1640, 114052.0
632.3280, 113420.0
633.4920, 113357.0
634.6560, 112690.0
635.8200, 112559.0
636.9840, 112223.0
638.1470, 112619.0
639.3100, 112148.0
640.4730, 112274.0
641.6360, 112087.0
642.7990, 112014.0
643.9620, 112196.0
645.1240, 111582.0
646.2870, 112070.0
647.4490, 111435.0
648.6110, 112034.0
649.7730, 112398.0
650.9340, 112080.0
652.0960, 112280.0
653.2570, 112813.0
654.4180, 112719.0
655.5790, 113030.0
656.7400, 113896.0
657.9010, 113624.0
659.0620, 114500.0
660.2220, 114636.0
661.3820, 115877.0
662.5420, 116442.0
663.7020, 117464.0
664.8620, 118698.0
666.0210, 119386.0
667.1810, 120344.0
668.3400, 120809.0
669.4990, 121784.0
670.6580, 121914.0
671.8170, 122320.0
672.9750, 121003.0
674.1340, 120742.0
675.2920, 119825.0
676.4500, 119236.0
677.6080, 118485.0
678.7660, 117912.3
679.9230, 117700.0
681.0810, 117107.0
682.2380, 116636.0
683.3950, 116745.0
684.5520, 116972.0
685.7090, 117027.0
686.8660, 116742.0
688.0220, 117290.0
689.1780, 117145.0
690.3340, 117217.0
691.4900, 117469.0
692.6460, 117495.0
693.8020, 117998.0
694.9570, 117840.0
696.1130, 118181.0
697.2680, 117625.0
698.4230, 118373.0
699.5780, 117906.0
700.7320, 118622.0
701.8870, 118707.0
703.0410, 118481.0
704.1950, 119034.0
705.3490, 119419.0
706.5030, 119773.0
707.6570, 119721.0
708.8110, 120162.0
709.9640, 120362.0
711.1170, 120683.0
712.2700, 121055.0
713.4230, 121222.0
714.5760, 121141.0
715.7280, 121093.0
716.8810, 121496.0
718.0330, 121711.0
719.1850, 122086.0
720.3370, 121698.0
721.4890, 121938.0
722.6400, 121833.0
723.7920, 122239.0
724.9430, 121818.0
726.0940, 121911.0
727.2450, 122443.0
728.3960, 123051.0
729.5460, 123244.0
730.6970, 123468.0
731.8470, 124160.0
732.9970, 124982.4
734.1470, 125949.8
735.2970, 127443.0
736.4460, 128703.0
737.5960, 130585.0
738.7450, 132747.0
739.8940, 135544.0
741.0430, 138296.0
742.1920, 140496.0
743.3410, 142621.0
744.4890, 143921.0
745.6370, 144467.9
746.7850, 144580.0
747.9330, 143529.0
749.0810, 141737.0
750.2290, 139032.0
751.3760, 136811.0
752.5240, 134432.0
753.6710, 132365.0
754.8180, 131035.0
755.9650, 129480.0
757.1110, 128226.0
758.2580, 127188.0
759.4040, 126604.0
760.5510, 125858.0
761.6970, 125642.0
762.8420, 125244.0
763.9880, 125064.0
765.1340, 124628.0
766.2790, 124753.0
767.4240, 124473.0
768.5690, 123887.0
769.7140, 124730.0
770.8590, 123909.0
772.0030, 124808.0
773.1480, 124397.0
774.2920, 124776.0
775.4360, 124742.0
776.5800, 125168.0
777.7240, 125604.0
778.8670, 125823.0
780.0110, 127302.0
781.1540, 128015.0
782.2970, 128760.0
783.4400, 129872.0
784.5830, 130580.0
785.7250, 131550.0
786.8680, 131956.0
788.0100, 133316.0
789.1520, 132917.0
790.2940, 133240.0
791.4360, 131958.0
792.5780, 131863.0
793.7190, 130580.0
794.8600, 129444.0
796.0010, 129599.0
797.1420, 128724.0
798.2830, 128647.0
799.4240, 127968.0
800.5640, 128232.0
801.7050, 127771.0
802.8450, 127615.0
803.9850, 127532.0
805.1250, 126986.0
806.2640, 128176.0
807.4040, 127003.0
808.5430, 127880.0
809.6820, 127569.0
810.8210, 127765.0
811.9600, 128067.0
813.0990, 127909.0
814.2370, 127914.0
815.3760, 128395.0
816.5140, 128717.0
817.6520, 128391.0
818.7900, 129051.0
819.9270, 129465.0
821.0650, 128878.0
822.2020, 129340.0
823.3390, 129768.0
824.4760, 130134.0
825.6130, 129860.0
826.7500, 130246.0
827.8870, 130450.0
829.0230, 131174.0
830.1590, 131440.0
831.2950, 131524.0
832.4310, 132557.0
833.5670, 132764.0
834.7030, 133377.0
835.8380, 133506.0
836.9730, 134448.0
838.1080, 134508.0
839.2430, 135285.0
840.3780, 135354.0
841.5130, 135474.7
842.6470, 136109.0
843.7810, 135507.0
844.9150, 135342.0
846.0490, 135349.0
847.1830, 134810.0
848.3170, 135046.0
849.4500, 135520.0
850.5830, 135086.0
851.7160, 134864.0
852.8490, 134592.0
853.9820, 134324.5
855.1150, 133918.0
856.2470, 133940.0
857.3800, 133710.0
858.5120, 133640.4
859.6440, 133998.0
860.7760, 133867.0
861.9070, 133663.0
863.0390, 134042.0
864.1700, 134180.0
865.3010, 133250.0
866.4320, 134024.0
867.5630, 133785.0
868.6940, 133757.0
869.8240, 134749.0
870.9540, 134584.0
872.0850, 134581.0
873.2150, 134127.0
874.3450, 134722.0
875.4740, 135253.0
876.6040, 135314.0
877.7330, 135399.0
878.8620, 135545.0
879.9910, 135932.0
881.1200, 135146.0
882.2490, 135954.0
883.3770, 135718.0
884.5060, 136404.0
885.6340, 135958.0
886.7620, 135913.0
887.8900, 135808.0
889.0180, 135783.5
890.1450, 135913.7
891.2730, 135972.0
892.4000, 136190.0
893.5270, 136315.0
894.6540, 136314.0
895.7810, 136661.0
896.9070, 136098.0
898.0340, 136041.0
899.1600, 136344.0
900.2860, 136229.0
901.4120, 136764.0
902.5380, 136901.0
903.6630, 136518.0
904.7890, 136378.0
905.9140, 137232.0
907.0390, 137131.0
908.1640, 137418.0
909.2890, 137230.0
910.4130, 137329.0
911.5380, 137360.0
912.6620, 137193.0
913.7860, 137467.7
914.9100, 137684.0
916.0340, 137952.0
917.1580, 138103.0
918.2810, 138206.0
919.4040, 137984.0
920.5280, 138353.0
921.6510, 138454.0
922.7730, 138606.0
923.8960, 139038.0
925.0180, 139072.0
926.1410, 138914.0
927.2630, 139425.0
928.3850, 139342.0
929.5070, 139875.0
930.6280, 139730.0
931.7500, 140029.0
932.8710, 139622.0
933.9920, 139417.0
935.1130, 139813.0
936.2340, 139976.0
937.3550, 140498.0
938.4760, 139713.0
939.5960, 140432.0
940.7160, 140439.0
941.8360, 140609.0
942.9560, 141124.0
944.0760, 141345.0
945.1950, 141579.0
946.3150, 141596.0
947.4340, 141966.8
948.5530, 142289.0
949.6720, 142358.0
950.7900, 142758.0
951.9090, 142462.0
953.0270, 142783.0
954.1460, 143084.0
955.2640, 143489.0
956.3820, 144035.0
957.4990, 144011.0
958.6170, 144979.0
959.7340, 144752.0
960.8520, 145696.0
961.9690, 146017.0
963.0860, 146418.0
964.2020, 146717.0
965.3190, 147353.0
966.4350, 147583.4
967.5520, 148228.0
968.6680, 148190.0
969.7840, 148559.0
970.8990, 148828.0
972.0150, 148614.0
973.1310, 148347.0
974.2460, 148955.0
975.3610, 148211.0
976.4760, 148215.0
977.5910, 147855.0
978.7050, 148324.0
979.8200, 147880.0
980.9340, 148112.0
982.0480, 148139.0
983.1620, 148231.0
984.2760, 148032.0
985.3900, 148192.0
986.5030, 148416.0
987.6160, 148743.0
988.7300, 148430.0
989.8430, 148958.0
990.9550, 148918.0
992.0680, 149902.0
993.1810, 150298.0
994.2930, 150637.0
995.4050, 150965.0
996.5170, 151438.0
997.6290, 151703.0
998.7410, 151633.0
999.8520, 152297.0
1000.964, 152465.0
1002.075, 151762.0
1003.186, 151814.0
1004.297, 151449.0
1005.407, 151636.0
1006.518, 151368.0
1007.628, 151269.0
1008.738, 151011.0
1009.848, 150203.0
1010.958, 149677.0
1012.068, 149706.0
1013.178, 149747.0
1014.287, 149303.0
1015.396, 148715.0
1016.505, 149881.0
1017.614, 148962.0
1018.723, 149795.0
1019.831, 149045.0
1020.940, 149485.0
1022.048, 149646.0
1023.156, 149835.0
1024.264, 149569.0
1025.372, 149762.0
1026.479, 150878.0
1027.587, 149852.0
1028.694, 150909.0
1029.801, 150117.0
1030.908, 150669.0
1032.015, 150828.0
1033.121, 151303.0
1034.228, 151923.0
1035.334, 151439.0
1036.440, 151959.0
1037.546, 152313.0
1038.652, 152487.0
1039.758, 152919.0
1040.863, 152634.0
1041.968, 153535.0
1043.074, 153325.0
1044.178, 153851.0
1045.283, 154315.0
1046.388, 154852.0
1047.492, 155370.7
1048.597, 155419.0
1049.701, 156399.0
1050.805, 156767.0
1051.909, 157191.0
1053.012, 158622.0
1054.116, 159416.0
1055.219, 160582.0
1056.322, 161002.0
1057.425, 161941.0
1058.528, 163493.0
1059.631, 163854.0
1060.733, 165472.0
1061.836, 165488.0
1062.938, 166711.0
1064.040, 166411.0
1065.142, 166372.0
1066.243, 166147.0
1067.345, 165547.0
1068.446, 165758.0
1069.547, 164304.0
1070.648, 163922.0
1071.749, 163732.0
1072.850, 163176.0
1073.951, 162950.0
1075.051, 161408.0
1076.151, 161685.0
1077.251, 161019.0
1078.351, 160364.0
1079.451, 160999.0
1080.550, 160416.0
1081.650, 161067.0
1082.749, 160035.0
1083.848, 160248.0
1084.947, 159908.0
1086.046, 160658.0
1087.144, 160023.0
1088.243, 160014.0
1089.341, 160773.0
1090.439, 159824.0
1091.537, 160291.0
1092.635, 159811.0
1093.732, 159141.0
1094.830, 160140.0
1095.927, 159601.0
1097.024, 159506.0
1098.121, 159707.0
1099.218, 159518.0
1100.314, 159198.0
1101.411, 159453.0
1102.507, 159405.6
1103.603, 159094.0
1104.699, 159664.0
1105.795, 159947.0
1106.890, 159971.0
1107.986, 160091.0
1109.081, 159723.0
1110.176, 159980.5
1111.271, 159898.0
1112.366, 160235.0
1113.461, 160046.0
1114.555, 160150.0
1115.649, 160451.0
1116.744, 160423.4
1117.838, 160413.0
1118.931, 160731.0
1120.025, 161012.0
1121.119, 161296.0
1122.212, 161359.9
1123.305, 161728.0
1124.398, 161431.0
1125.491, 161639.0
1126.584, 161734.0
1127.676, 162053.0
1128.768, 162044.0
1129.861, 162370.0
1130.953, 162310.0
1132.044, 163134.0
1133.136, 162632.0
1134.228, 163794.0
1135.319, 162846.0
1136.410, 163345.0
1137.501, 164063.0
1138.592, 164142.0
1139.683, 164356.0
1140.773, 164120.0
1141.864, 165245.0
1142.954, 164473.0
1144.044, 165146.0
1145.134, 165092.0
1146.224, 164763.0
1147.313, 165775.0
1148.402, 165935.0
1149.492, 165998.0
1150.581, 166168.0
1151.670, 166326.0
1152.758, 167295.0
1153.847, 166584.0
1154.935, 167134.0
1156.024, 166577.0
1157.112, 167083.0
1158.200, 167725.0
1159.287, 166908.0
1160.375, 167105.0
1161.462, 167005.0
1162.550, 167357.0
1163.637, 167433.0
1164.724, 166849.0
1165.810, 167944.0
1166.897, 166937.0
1167.983, 167673.0
1169.070, 167217.0
1170.156, 167638.0
1171.242, 167363.0
1172.327, 167215.0
1173.413, 167291.0
1174.499, 167468.0
1175.584, 167591.0
1176.669, 167512.0
1177.754, 167655.0
1178.839, 166801.3
1179.923, 167786.1
1181.008, 168348.7
1182.092, 168511.8
1183.176, 167078.5
1184.260, 167706.5
1185.344, 167508.5
1186.428, 167276.5
1187.511, 168194.6
1188.595, 166993.6
1189.678, 167893.4
1190.761, 167954.6
1191.843, 168399.7
1192.926, 168013.5
1194.009, 167884.1
1195.091, 168586.1
1196.173, 168827.8
1197.255, 168346.0
1198.337, 167247.0
1199.419, 168705.0
1200.500, 168640.0
1201.582, 167624.0
1202.663, 168093.0
1203.744, 168013.0
1204.825, 169265.0
1205.905, 168809.0
1206.986, 169011.0
1208.066, 169070.0
1209.146, 169176.0
1210.226, 169562.0
1211.306, 169178.0
1212.386, 170176.0
1213.466, 169461.0
1214.545, 169715.0
1215.624, 170639.0
1216.703, 169937.0
1217.782, 170994.0
1218.861, 170491.0
1219.939, 170012.0
1221.018, 170985.0
1222.096, 170221.0
1223.174, 171014.0
1224.252, 170771.0
1225.330, 170479.0
1226.407, 171228.0
1227.485, 171335.0
1228.562, 171846.0
1229.639, 171756.0
1230.716, 172294.0
1231.793, 171811.0
1232.869, 171809.0
1233.946, 172551.0
1235.022, 172047.0
1236.098, 172906.0
1237.174, 172692.0
1238.250, 173395.0
1239.325, 173936.0
1240.401, 173510.0
1241.476, 174203.0
1242.551, 174116.0
1243.626, 174091.0
1244.701, 174948.0
1245.776, 175103.0
1246.850, 175484.0
1247.924, 175628.0
1248.999, 176141.1
1250.073, 176593.8
1251.146, 176940.7
1252.220, 177188.0
1253.293, 177035.9
1254.367, 177399.4
1255.440, 177556.2
1256.513, 177704.5
1257.586, 178140.3
1258.658, 178046.2
1259.731, 178477.4
1260.803, 178911.0
1261.875, 178711.7
1262.947, 178915.6
1264.019, 179013.9
1265.091, 179012.4
1266.162, 179007.8
1267.234, 178726.5
1268.305, 178819.8
1269.376, 178713.8
1270.447, 178599.2
1271.517, 178772.3
1272.588, 178415.5
1273.658, 178584.0
1274.729, 178542.8
1275.799, 178597.6
1276.868, 178444.7
1277.938, 178355.9
1279.008, 178474.9
1280.077, 178478.9
1281.146, 178302.1
1282.215, 178363.0
1283.284, 178214.0
1284.353, 178272.0
1285.421, 177992.0
1286.490, 177699.0
1287.558, 178310.0
1288.626, 177806.0
1289.694, 177882.0
1290.762, 178430.0
1291.829, 179077.0
1292.897, 178117.0
1293.964, 178538.0
1295.031, 178297.0
1296.098, 178542.0
1297.165, 179019.0
1298.231, 179499.0
1299.298, 179743.0
1300.364, 179585.0
1301.430, 180165.0
1302.496, 179637.0
1303.562, 179643.0
1304.627, 180855.0
1305.693, 180246.0
1306.758, 181088.0
1307.823, 180819.0
1308.888, 180786.0
1309.953, 180854.0
1311.018, 180829.0
1312.082, 181155.0
1313.146, 181004.0
1314.210, 181651.0
1315.274, 182187.0
1316.338, 181671.0
1317.402, 182168.0
1318.465, 182365.0
1319.529, 181376.0
1320.592, 181553.0
1321.655, 181464.0
1322.718, 181884.0
1323.780, 181635.0
1324.843, 182242.0
1325.905, 182396.0
1326.967, 182350.0
1328.029, 182925.0
1329.091, 182051.0
1330.153, 182787.0
1331.214, 183034.0
1332.275, 182532.0
1333.337, 183688.0
1334.398, 183106.0
1335.458, 183421.0
1336.519, 183313.0
1337.580, 183359.2
1338.640, 183315.0
1339.700, 183531.0
1340.760, 184250.0
1341.820, 184089.0
1342.880, 183496.0
1343.939, 184210.0
1344.999, 184064.0
1346.058, 184608.0
1347.117, 184254.0
1348.176, 184561.0
1349.235, 185126.0
1350.293, 184173.0
1351.351, 185606.0
1352.410, 184268.0
1353.468, 184832.0
1354.526, 185035.0
1355.583, 185272.0
1356.641, 185813.0
1357.698, 185734.0
1358.756, 185842.0
1359.813, 186000.0
1360.869, 185110.0
1361.926, 186295.0
1362.983, 185563.0
1364.039, 186555.0
1365.095, 186830.0
1366.152, 186462.0
1367.207, 186726.0
1368.263, 186207.0
1369.319, 186671.0
1370.374, 187225.0
1371.430, 186297.0
1372.485, 187128.0
1373.540, 186794.0
1374.594, 187123.0
1375.649, 186926.0
1376.703, 186478.0
1377.758, 187712.0
1378.812, 187757.0
1379.866, 187711.0
1380.920, 188110.0
1381.973, 187631.0
1383.027, 188750.0
1384.080, 187516.0
1385.133, 188246.0
1386.186, 188728.0
1387.239, 187813.0
1388.291, 189057.0
1389.344, 188081.0
1390.396, 188666.0
1391.448, 189205.0
1392.500, 188476.0
1393.552, 189071.0
1394.604, 188802.0
1395.655, 189169.0
1396.707, 189748.0
1397.758, 189329.0
1398.809, 189940.0
1399.860, 189001.0
1400.910, 189884.0
1401.961, 189268.0
1403.011, 189563.0
1404.061, 190306.0
1405.111, 189810.0
1406.161, 190505.0
1407.211, 189797.0
1408.260, 190244.0
1409.310, 190869.0
1410.359, 189955.0
1411.408, 190933.0
1412.457, 190470.0
1413.506, 191167.0
1414.554, 192033.0
1415.603, 191002.0
1416.651, 191030.0
1417.699, 191060.0
1418.747, 191454.0
1419.794, 191292.0
1420.842, 191403.0
1421.889, 191750.0
1422.937, 191415.0
1423.984, 191963.0
1425.031, 191530.0
1426.077, 191669.0
1427.124, 192574.0
1428.170, 191929.0
1429.217, 191958.0
1430.263, 192795.0
1431.309, 192396.0
1432.354, 193049.0
1433.400, 192578.0
1434.445, 192883.0
1435.491, 193303.0
1436.536, 192643.0
1437.581, 193977.0
1438.625, 193503.0
1439.670, 193389.0
1440.714, 194984.0
1441.759, 193548.0
1442.803, 194017.0
1443.847, 194538.0
1444.890, 193791.0
1445.934, 194170.0
1446.978, 193032.0
1448.021, 194172.0
1449.064, 194481.0
1450.107, 194372.0
1451.150, 193835.0
1452.192, 194708.0
1453.235, 194721.0
1454.277, 194493.0
1455.319, 194156.0
1456.361, 195583.0
1457.403, 194927.0
1458.445, 195311.0
1459.486, 196021.0
1460.528, 195386.0
1461.569, 195975.0
1462.610, 195034.0
1463.651, 195407.0
1464.691, 195318.0
1465.732, 195861.0
1466.772, 196129.0
1467.812, 195927.0
1468.852, 196649.0
1469.892, 196711.0
1470.932, 196683.0
1471.971, 196870.0
1473.011, 196779.0
1474.050, 197057.0
1475.089, 197376.0
1476.128, 197377.0
1477.166, 198329.0
1478.205, 197058.0
1479.243, 197641.0
1480.282, 197207.0
1481.320, 197852.0
1482.357, 197893.0
1483.395, 197583.0
1484.433, 198087.0
1485.470, 197853.0
1486.507, 198414.0
1487.544, 198835.0
1488.581, 198027.0
1489.618, 198339.0
1490.655, 198360.0
1491.691, 198227.0
1492.727, 199096.0
1493.763, 198316.0
1494.799, 198595.0
1495.835, 198746.0
1496.871, 198285.0
1497.906, 198858.0
1498.941, 198856.0
1499.976, 199561.0
1501.011, 199512.0
1502.046, 199802.0
1503.081, 199768.0
1504.115, 199944.0
1505.149, 200100.0
1506.183, 200075.0
1507.217, 199973.0
1508.251, 200475.0
1509.285, 200294.0
1510.318, 200503.0
1511.352, 200690.0
1512.385, 200459.0
1513.418, 201960.0
1514.450, 200400.0
1515.483, 201204.0
1516.516, 201447.0
1517.548, 200539.0
1518.580, 202584.0
1519.612, 201530.0
1520.644, 202070.0
1521.675, 202198.0
1522.707, 202288.0
1523.738, 201785.0
1524.769, 201628.0
1525.800, 202184.0
1526.831, 203034.0
1527.862, 202428.0
1528.892, 202800.0
1529.923, 202466.0
1530.953, 203355.0
1531.983, 203449.0
1533.013, 203421.0
1534.042, 203307.0
1535.072, 203045.0
1536.101, 203269.0
1537.131, 203533.0
1538.160, 203234.0
1539.188, 204061.0
1540.217, 203575.0
1541.246, 204048.0
1542.274, 204132.0
1543.302, 203959.0
1544.330, 204110.0
1545.358, 203657.0
1546.386, 204307.0
1547.413, 205097.0
1548.441, 204726.0
1549.468, 206032.0
1550.495, 204707.0
1551.522, 204533.0
1552.549, 205332.0
1553.575, 205342.0
1554.602, 205262.0
1555.628, 205314.0
1556.654, 205379.0
1557.680, 205628.0
1558.706, 205590.0
1559.731, 205676.0
1560.757, 205364.0
1561.782, 205640.0
1562.807, 205751.0
1563.832, 205374.0
1564.857, 206194.0
1565.881, 206447.0
1566.906, 206141.0
1567.930, 206664.4
1568.954, 205257.0
1569.978, 206564.0
1571.002, 206691.0
1572.025, 205730.0
1573.049, 207108.0
1574.072, 207121.0
1575.095, 206646.0
1576.118, 208064.0
1577.141, 207681.0
1578.164, 208219.0
1579.186, 208382.0
##END=



