##NAMES=Danburite
##RRUFFID=R040013
##IDEAL CHEMISTRY=CaB_2_Si_2_O_8_
##LOCALITY=Charcas, San Luis Potosi, Mexico
##OWNER=RRUFF
##SOURCE=Marcus Origlieri
##DESCRIPTION=Colorless prismatic single crystal
##STATUS=The identification of this mineral has been confirmed by X-ray diffraction and chemical analysis
##URL=rruff.info/R040013
##MEASURED CHEMISTRY=Ca_1.00_B_2.00_Si_2.00_O_8_
##PIN_ID=M00010
##ORIENTATION=Laser parallel to a* (1 0 0). Fiducial mark perpendicular to laser is parallel to b [0 1 0]
117.166, 1646.000
118.556, 1739.000
119.947, 1929.000
121.337, 2247.000
122.727, 2414.000
124.116, 2260.000
125.506, 1997.000
126.895, 1880.000
128.284, 1769.000
129.673, 1688.000
131.062, 1643.000
132.450, 1598.000
133.838, 1616.000
135.226, 1715.000
136.614, 1785.000
138.001, 1847.000
139.388, 1720.000
140.775, 1625.000
142.162, 1588.000
143.549, 1551.000
144.935, 1627.000
146.321, 1646.000
147.707, 1739.000
149.093, 1951.000
150.478, 2041.000
151.863, 1866.000
153.248, 1733.000
154.633, 1638.000
156.018, 1631.000
157.402, 1647.000
158.786, 1769.000
160.170, 1937.000
161.554, 2114.000
162.937, 2527.000
164.320, 2800.000
165.703, 2597.000
167.086, 2231.000
168.469, 2169.000
169.851, 2252.000
171.233, 2424.000
172.615, 3047.000
173.996, 4097.000
175.378, 5911.000
176.759, 8775.000
178.140, 13700.000
179.521, 19680.000
180.901, 20960.000
182.281, 15770.000
183.662, 9532.000
185.041, 5952.000
186.421, 4161.000
187.800, 3438.000
189.180, 3177.000
190.558, 3078.000
191.937, 2911.000
193.316, 2605.000
194.694, 2352.000
196.072, 2164.000
197.450, 2247.000
198.827, 2383.000
200.205, 2615.000
201.582, 2980.000
202.959, 3180.000
204.336, 3121.000
205.712, 3005.000
207.088, 3108.000
208.465, 3454.000
209.840, 3443.000
211.216, 3064.000
212.591, 2479.000
213.967, 2164.000
215.341, 1940.000
216.716, 1870.000
218.091, 1816.000
219.465, 1823.000
220.839, 1931.000
222.213, 1977.000
223.586, 2131.000
224.960, 2088.285
226.333, 2243.000
227.706, 2017.000
229.079, 1851.000
230.451, 1800.000
231.823, 1786.247
233.195, 1917.000
234.567, 2028.000
235.939, 2238.000
237.310, 2597.000
238.682, 3289.000
240.052, 4397.000
241.423, 5712.000
242.794, 7173.000
244.164, 7549.000
245.534, 6483.000
246.904, 5051.000
248.274, 3816.000
249.643, 3058.000
251.012, 2659.000
252.381, 2392.000
253.750, 2208.000
255.118, 2100.000
256.487, 2034.000
257.855, 1971.000
259.223, 1887.000
260.590, 1873.000
261.958, 1838.000
263.325, 1834.000
264.692, 1786.000
266.059, 1804.000
267.425, 1767.000
268.791, 1828.000
270.158, 1797.000
271.523, 1828.000
272.889, 1871.000
274.255, 1926.000
275.620, 1975.000
276.985, 1972.000
278.350, 1913.000
279.714, 1857.000
281.078, 1809.000
282.443, 1802.000
283.806, 1812.514
285.170, 1818.000
286.534, 1909.000
287.897, 1960.000
289.260, 2063.000
290.623, 2247.000
291.985, 2389.000
293.348, 2501.000
294.710, 2488.000
296.072, 2330.000
297.433, 2181.000
298.795, 2142.000
300.156, 2131.000
301.517, 2242.000
302.878, 2416.000
304.239, 2645.000
305.599, 2865.000
306.959, 3296.000
308.319, 3856.000
309.679, 4370.000
311.038, 4517.000
312.398, 4326.000
313.757, 3737.000
315.116, 3117.000
316.474, 2655.000
317.833, 2383.000
319.191, 2252.000
320.549, 2143.000
321.907, 2063.000
323.264, 2057.000
324.622, 2002.000
325.979, 2081.000
327.336, 2070.000
328.692, 2119.000
330.049, 2140.000
331.405, 2141.000
332.761, 2100.000
334.117, 2211.000
335.473, 2282.000
336.828, 2387.000
338.183, 2641.000
339.538, 3053.000
340.893, 3743.000
342.247, 4924.000
343.602, 6658.000
344.956, 9008.000
346.310, 10450.000
347.663, 9532.000
349.017, 7292.000
350.370, 5198.000
351.723, 3895.000
353.076, 3120.000
354.428, 2713.000
355.780, 2432.000
357.133, 2320.000
358.484, 2153.000
359.836, 2084.000
361.188, 2036.000
362.539, 2018.000
363.890, 1982.000
365.241, 1952.047
366.591, 1956.000
367.942, 1897.000
369.292, 1880.000
370.642, 1856.000
371.992, 1931.000
373.341, 1890.000
374.691, 1875.000
376.040, 1909.000
377.388, 1887.000
378.737, 1906.000
380.086, 1879.000
381.434, 1931.000
382.782, 1900.000
384.130, 1867.000
385.477, 1965.000
386.825, 1959.000
388.172, 1970.000
389.519, 1990.000
390.865, 2035.000
392.212, 2146.000
393.558, 2121.000
394.904, 2140.000
396.250, 2040.000
397.596, 2018.000
398.941, 2001.000
400.286, 2014.000
401.631, 2051.000
402.976, 2036.000
404.321, 2083.000
405.665, 2051.000
407.009, 2076.000
408.353, 2066.000
409.697, 2090.000
411.040, 2110.000
412.384, 2160.000
413.727, 2220.000
415.070, 2322.387
416.412, 2414.000
417.755, 2578.000
419.097, 2741.000
420.439, 2894.000
421.781, 3099.000
423.122, 3158.000
424.464, 3068.000
425.805, 2811.000
427.146, 2609.000
428.486, 2383.000
429.827, 2252.000
431.167, 2210.000
432.507, 2213.000
433.847, 2289.000
435.187, 2427.000
436.526, 2742.000
437.865, 3000.000
439.204, 3291.000
440.543, 3309.000
441.882, 3030.000
443.220, 2711.000
444.558, 2464.000
445.896, 2331.000
447.234, 2246.000
448.572, 2143.000
449.909, 2156.000
451.246, 2160.000
452.583, 2190.000
453.919, 2215.000
455.256, 2300.000
456.592, 2389.000
457.928, 2459.000
459.264, 2456.000
460.600, 2434.000
461.935, 2312.000
463.270, 2334.000
464.605, 2351.000
465.940, 2407.000
467.274, 2547.000
468.609, 2713.000
469.943, 2900.000
471.277, 3354.000
472.610, 4165.000
473.944, 5573.000
475.277, 8000.000
476.610, 11640.000
477.943, 15120.000
479.275, 15400.000
480.608, 12230.000
481.940, 8425.000
483.272, 5729.000
484.604, 4362.000
485.935, 3641.000
487.267, 3142.000
488.598, 2896.000
489.929, 2678.000
491.260, 2562.000
492.590, 2459.000
493.920, 2422.000
495.250, 2355.000
496.580, 2345.000
497.910, 2318.000
499.239, 2291.000
500.569, 2237.000
501.898, 2251.000
503.226, 2216.000
504.555, 2230.000
505.883, 2185.000
507.212, 2205.000
508.540, 2213.000
509.867, 2254.000
511.195, 2221.000
512.522, 2199.000
513.849, 2197.000
515.176, 2190.000
516.503, 2235.000
517.829, 2198.000
519.156, 2176.000
520.482, 2242.000
521.808, 2206.000
523.133, 2231.000
524.459, 2220.000
525.784, 2208.000
527.109, 2245.000
528.434, 2257.000
529.758, 2210.000
531.083, 2210.000
532.407, 2237.000
533.731, 2203.000
535.055, 2261.000
536.378, 2249.000
537.701, 2222.000
539.025, 2275.000
540.348, 2285.000
541.670, 2308.000
542.993, 2284.000
544.315, 2331.000
545.637, 2347.000
546.959, 2319.000
548.281, 2332.000
549.602, 2373.000
550.923, 2426.000
552.244, 2506.000
553.565, 2491.000
554.886, 2522.000
556.206, 2616.000
557.526, 2737.000
558.846, 2982.000
560.166, 3193.000
561.486, 3257.000
562.805, 3089.000
564.124, 2891.000
565.443, 2674.000
566.762, 2571.000
568.080, 2540.000
569.399, 2594.000
570.717, 2625.000
572.035, 2624.000
573.352, 2658.468
574.670, 2644.000
575.987, 2691.000
577.304, 2754.000
578.621, 2778.000
579.938, 2882.000
581.254, 2917.000
582.570, 2941.000
583.886, 3049.000
585.202, 3113.000
586.518, 3244.000
587.833, 3324.000
589.148, 3509.000
590.463, 3668.000
591.778, 3878.000
593.093, 4140.000
594.407, 4542.000
595.721, 5012.000
597.035, 5588.000
598.349, 6357.000
599.662, 7640.000
600.976, 9275.000
602.289, 11940.000
603.602, 15850.000
604.914, 21740.000
606.227, 29180.000
607.539, 36110.000
608.851, 38680.000
610.163, 35530.000
611.475, 28140.000
612.786, 21780.000
614.097, 16300.000
615.408, 12330.000
616.719, 10060.000
618.030, 8438.000
619.340, 7433.000
620.651, 6906.000
621.961, 6749.000
623.270, 7154.000
624.580, 7693.000
625.889, 8340.000
627.199, 8187.000
628.507, 7317.000
629.816, 6290.000
631.125, 5345.000
632.433, 4726.000
633.741, 4317.000
635.049, 4028.000
636.357, 3781.000
637.664, 3601.000
638.972, 3480.000
640.279, 3415.000
641.586, 3346.000
642.893, 3223.000
644.199, 3147.000
645.505, 3065.000
646.811, 3030.000
648.117, 2999.000
649.423, 2955.000
650.728, 2893.000
652.034, 2877.000
653.339, 2827.000
654.644, 2802.000
655.948, 2821.000
657.253, 2830.000
658.557, 2785.000
659.861, 2723.000
661.165, 2774.000
662.468, 2692.000
663.772, 2642.000
665.075, 2698.000
666.378, 2744.000
667.681, 2678.000
668.983, 2753.000
670.286, 2700.000
671.588, 2691.000
672.890, 2689.000
674.192, 2665.000
675.493, 2661.000
676.795, 2655.000
678.096, 2644.749
679.397, 2637.000
680.697, 2638.000
681.998, 2635.037
683.298, 2623.000
684.598, 2639.000
685.898, 2651.000
687.198, 2655.000
688.498, 2634.000
689.797, 2646.000
691.096, 2619.000
692.395, 2647.000
693.694, 2640.000
694.992, 2620.000
696.290, 2662.000
697.589, 2633.000
698.886, 2659.000
700.184, 2634.000
701.482, 2612.000
702.779, 2674.000
704.076, 2605.000
705.373, 2605.000
706.669, 2663.000
707.966, 2645.000
709.262, 2686.000
710.558, 2680.000
711.854, 2683.000
713.150, 2730.000
714.445, 2702.000
715.740, 2741.000
717.035, 2728.000
718.330, 2695.000
719.625, 2726.000
720.919, 2684.000
722.214, 2664.000
723.508, 2675.000
724.801, 2652.000
726.095, 2658.732
727.388, 2700.000
728.682, 2669.000
729.975, 2682.000
731.267, 2693.000
732.560, 2656.000
733.852, 2676.000
735.145, 2682.000
736.437, 2718.000
737.728, 2724.000
739.020, 2720.000
740.311, 2727.000
741.603, 2699.000
742.894, 2708.000
744.184, 2729.000
745.475, 2703.000
746.765, 2720.000
748.055, 2675.000
749.345, 2718.000
750.635, 2744.000
751.925, 2724.000
753.214, 2756.000
754.503, 2710.000
755.792, 2765.000
757.081, 2746.000
758.370, 2779.000
759.658, 2766.000
760.946, 2795.000
762.234, 2834.000
763.522, 2817.000
764.809, 2890.000
766.097, 2887.000
767.384, 2929.000
768.671, 2983.000
769.958, 3023.000
771.244, 3097.000
772.530, 3154.000
773.817, 3099.000
775.102, 3121.000
776.388, 3053.000
777.674, 3015.000
778.959, 2958.000
780.244, 2918.382
781.529, 2860.000
782.814, 2855.000
784.098, 2825.000
785.383, 2816.000
786.667, 2769.000
787.951, 2786.000
789.235, 2861.000
790.518, 2800.000
791.801, 2828.000
793.084, 2781.000
794.367, 2869.000
795.650, 2796.000
796.933, 2819.000
798.215, 2781.000
799.497, 2808.000
800.779, 2850.000
802.061, 2823.000
803.342, 2850.000
804.624, 2831.000
805.905, 2793.000
807.186, 2869.000
808.466, 2812.000
809.747, 2790.000
811.027, 2856.000
812.307, 2828.000
813.587, 2825.000
814.867, 2827.000
816.146, 2817.324
817.426, 2822.000
818.705, 2813.000
819.984, 2836.000
821.263, 2828.000
822.541, 2854.000
823.819, 2854.777
825.098, 2873.000
826.375, 2872.000
827.653, 2855.000
828.931, 2881.000
830.208, 2894.000
831.485, 2876.000
832.762, 2899.883
834.039, 2895.000
835.315, 2911.000
836.592, 2922.000
837.868, 2911.000
839.144, 2977.000
840.420, 2884.000
841.695, 2954.000
842.970, 2928.000
844.246, 2983.000
845.521, 2971.000
846.795, 3001.000
848.070, 2955.000
849.344, 2955.000
850.618, 2998.000
851.892, 2972.000
853.166, 2978.000
854.440, 3000.000
855.713, 3017.000
856.986, 2996.000
858.259, 3089.000
859.532, 3032.000
860.804, 3001.000
862.077, 3091.000
863.349, 3069.000
864.621, 3073.000
865.893, 3113.000
867.164, 3108.000
868.436, 3139.000
869.707, 3142.000
870.978, 3152.000
872.248, 3157.945
873.519, 3163.533
874.789, 3154.000
876.060, 3165.000
877.330, 3157.373
878.599, 3135.000
879.869, 3130.000
881.138, 3117.000
882.408, 3113.000
883.677, 3149.000
884.945, 3114.000
886.214, 3145.000
887.482, 3210.000
888.751, 3222.000
890.019, 3217.000
891.287, 3270.000
892.554, 3290.000
893.822, 3287.000
895.089, 3384.000
896.356, 3413.000
897.623, 3403.000
898.889, 3449.000
900.156, 3467.000
901.422, 3434.000
902.688, 3459.000
903.954, 3436.000
905.220, 3454.000
906.485, 3410.000
907.750, 3480.000
909.015, 3399.000
910.280, 3412.000
911.545, 3488.000
912.809, 3450.000
914.074, 3524.000
915.338, 3552.000
916.602, 3521.000
917.865, 3536.000
919.129, 3582.000
920.392, 3574.000
921.655, 3551.000
922.918, 3512.000
924.181, 3525.000
925.443, 3530.000
926.706, 3472.000
927.968, 3436.000
929.230, 3338.000
930.491, 3329.000
931.753, 3298.000
933.014, 3301.000
934.276, 3325.000
935.536, 3403.000
936.797, 3335.000
938.058, 3392.000
939.318, 3420.000
940.578, 3426.000
941.838, 3570.000
943.098, 3579.000
944.358, 3692.000
945.617, 3756.000
946.876, 3741.000
948.135, 3744.000
949.394, 3673.000
950.653, 3708.000
951.911, 3616.000
953.169, 3567.000
954.427, 3524.000
955.685, 3525.000
956.943, 3435.000
958.200, 3488.000
959.458, 3463.000
960.715, 3447.000
961.971, 3476.000
963.228, 3538.000
964.485, 3623.000
965.741, 3675.000
966.997, 3791.000
968.253, 3959.000
969.508, 4049.000
970.764, 4406.000
972.019, 4358.000
973.274, 4338.000
974.529, 4179.000
975.784, 3884.000
977.039, 3788.000
978.293, 3728.000
979.547, 3617.000
980.801, 3591.000
982.055, 3546.000
983.308, 3576.000
984.562, 3525.000
985.815, 3523.000
987.068, 3563.000
988.321, 3521.000
989.573, 3514.000
990.826, 3563.000
992.078, 3542.000
993.330, 3560.000
994.582, 3524.000
995.833, 3572.000
997.085, 3582.000
998.336, 3593.000
999.587, 3568.000
1000.838, 3572.000
1002.088, 3595.000
1003.339, 3625.000
1004.589, 3584.000
1005.839, 3624.000
1007.089, 3601.000
1008.339, 3626.000
1009.588, 3554.000
1010.838, 3550.000
1012.087, 3492.000
1013.336, 3525.000
1014.584, 3488.148
1015.833, 3493.106
1017.081, 3472.000
1018.330, 3494.000
1019.577, 3534.000
1020.825, 3514.000
1022.073, 3556.000
1023.320, 3574.000
1024.567, 3600.000
1025.814, 3593.000
1027.061, 3584.000
1028.308, 3596.000
1029.554, 3612.000
1030.800, 3570.000
1032.046, 3555.000
1033.292, 3564.000
1034.538, 3557.000
1035.783, 3516.000
1037.029, 3568.000
1038.274, 3571.000
1039.519, 3661.000
1040.763, 3653.000
1042.008, 3610.000
1043.252, 3535.000
1044.496, 3484.000
1045.740, 3566.000
1046.984, 3528.000
1048.228, 3506.000
1049.471, 3494.000
1050.714, 3492.000
1051.957, 3526.000
1053.200, 3525.000
1054.442, 3568.000
1055.685, 3545.000
1056.927, 3596.000
1058.169, 3554.000
1059.411, 3558.000
1060.652, 3535.000
1061.894, 3588.000
1063.135, 3515.000
1064.376, 3565.000
1065.617, 3553.000
1066.858, 3557.000
1068.098, 3614.000
1069.339, 3595.000
1070.579, 3586.000
1071.819, 3638.000
1073.058, 3659.000
1074.298, 3704.000
1075.537, 3692.000
1076.776, 3750.000
1078.015, 3812.000
1079.254, 3798.000
1080.493, 3764.000
1081.731, 3858.000
1082.969, 3809.000
1084.207, 3885.000
1085.445, 3871.000
1086.683, 3962.000
1087.920, 3950.000
1089.157, 4002.000
1090.394, 4023.000
1091.631, 4118.000
1092.868, 4200.000
1094.105, 4396.000
1095.341, 4460.000
1096.577, 4550.000
1097.813, 4821.000
1099.049, 4860.000
1100.284, 5165.000
1101.519, 5314.000
1102.755, 5383.000
1103.990, 5649.000
1105.224, 5708.000
1106.459, 5600.000
1107.693, 5624.000
1108.928, 5362.000
1110.162, 5259.000
1111.395, 5116.000
1112.629, 4834.000
1113.863, 4765.000
1115.096, 4604.000
1116.329, 4474.000
1117.562, 4401.000
1118.795, 4307.000
1120.027, 4271.000
1121.259, 4213.000
1122.492, 4195.000
1123.723, 4094.000
1124.955, 4038.000
1126.187, 3952.000
1127.418, 3929.515
1128.649, 3895.000
1129.880, 3905.000
1131.111, 3847.000
1132.342, 3840.000
1133.572, 3863.000
1134.802, 3795.000
1136.033, 3764.000
1137.262, 3810.000
1138.492, 3764.000
1139.722, 3717.000
1140.951, 3748.000
1142.180, 3666.000
1143.409, 3776.000
1144.638, 3655.000
1145.866, 3713.000
1147.095, 3766.000
1148.323, 3693.000
1149.551, 3724.000
1150.779, 3712.000
1152.006, 3739.000
1153.234, 3693.000
1154.461, 3703.000
1155.688, 3756.000
1156.915, 3750.000
1158.141, 3687.000
1159.368, 3762.000
1160.594, 3698.000
1161.820, 3718.000
1163.046, 3807.000
1164.272, 3732.000
1165.498, 3774.000
1166.723, 3820.000
1167.948, 3749.000
1169.173, 3817.000
1170.398, 3816.000
1171.623, 3856.000
1172.847, 3856.000
1174.071, 3880.000
1175.295, 3891.000
1176.519, 3848.000
1177.743, 3862.000
1178.966, 3874.000
1180.190, 3831.000
1181.413, 3819.000
1182.636, 3852.000
1183.858, 3814.000
1185.081, 3813.000
1186.303, 3834.000
1187.526, 3776.000
1188.748, 3858.000
1189.969, 3842.000
1191.191, 3750.000
1192.412, 3763.000
1193.634, 3735.000
1194.855, 3784.000
1196.076, 3833.000
1197.296, 3762.000
1198.517, 3826.000
1199.737, 3774.000
1200.957, 3738.000
1202.177, 3834.000
1203.397, 3768.000
1204.617, 3768.000
1205.836, 3816.000
1207.055, 3784.000
1208.274, 3813.000
1209.493, 3740.000
1210.712, 3817.000
1211.930, 3785.000
1213.148, 3795.000
1214.367, 3794.000
1215.584, 3802.000
1216.802, 3801.650
1218.020, 3799.865
1219.237, 3804.000
1220.454, 3793.000
1221.671, 3800.920
1222.888, 3797.061
1224.105, 3822.000
1225.321, 3805.000
1226.537, 3823.000
1227.753, 3822.000
1228.969, 3868.000
1230.185, 3796.000
1231.400, 3883.000
1232.616, 3824.000
1233.831, 3840.000
1235.046, 3877.000
1236.261, 3919.000
1237.475, 3907.000
1238.689, 3916.000
1239.904, 3838.000
1241.118, 3896.000
1242.332, 3870.000
1243.545, 3908.000
1244.759, 3872.000
1245.972, 3879.000
1247.185, 3856.000
1248.398, 3895.000
1249.611, 3885.000
1250.823, 3908.000
1252.036, 3922.000
1253.248, 3903.000
1254.460, 3952.000
1255.671, 3872.000
1256.883, 3990.000
1258.095, 3889.000
1259.306, 3878.000
1260.517, 3958.000
1261.728, 3935.000
1262.938, 3892.000
1264.149, 4005.000
1265.359, 3868.000
1266.569, 3871.000
1267.779, 3989.000
1268.989, 3887.000
1270.199, 3946.000
1271.408, 3926.000
1272.617, 3892.000
1273.826, 3975.000
1275.035, 3870.000
1276.244, 3917.000
1277.452, 3983.000
1278.661, 3919.000
1279.869, 3863.000
1281.077, 3952.000
1282.285, 3937.000
1283.492, 3935.000
1284.700, 3870.000
1285.907, 3894.000
1287.114, 3882.536
1288.321, 3914.000
1289.527, 3894.000
1290.734, 3922.000
1291.940, 3923.000
1293.146, 3948.000
1294.352, 3977.000
1295.558, 3927.000
1296.763, 3970.000
1297.969, 3966.000
1299.174, 3937.000
1300.379, 3994.000
1301.584, 3957.000
1302.788, 3981.000
1303.993, 3986.000
1305.197, 3989.592
1306.401, 4058.000
1307.605, 4030.000
1308.809, 4039.000
1310.013, 4084.000
1311.216, 4003.000
1312.419, 4035.000
1313.622, 4032.000
1314.825, 4011.000
1316.028, 4103.000
1317.230, 4002.000
1318.432, 4032.000
1319.634, 4095.000
1320.836, 4079.000
1322.038, 4069.000
1323.240, 4089.000
1324.441, 4103.000
1325.642, 4056.000
1326.843, 4054.000
1328.044, 4028.000
1329.245, 4069.000
1330.445, 4059.000
1331.645, 4114.000
1332.845, 4062.000
1334.045, 4088.000
1335.245, 4101.000
1336.445, 4129.000
1337.644, 4096.000
1338.843, 4091.000
1340.042, 4082.000
1341.241, 4086.000
1342.440, 4041.000
1343.638, 4095.000
1344.836, 4171.000
1346.034, 4167.000
1347.232, 4136.000
1348.430, 4125.000
1349.628, 4128.000
1350.825, 4082.000
1352.022, 4162.000
1353.219, 4155.000
1354.416, 4130.000
1355.613, 4192.000
1356.809, 4156.000
1358.005, 4107.000
1359.202, 4226.000
1360.398, 4122.000
1361.593, 4208.000
1362.789, 4200.000
1363.984, 4129.000
1365.179, 4210.000
1366.374, 4230.000
1367.569, 4202.000
1368.764, 4167.000
1369.958, 4261.000
1371.153, 4241.000
1372.347, 4233.000
1373.541, 4158.000
1374.735, 4208.000
1375.928, 4204.000
1377.122, 4231.000
1378.315, 4202.000
1379.508, 4214.000
1380.701, 4267.000
1381.893, 4317.000
1383.086, 4288.000
1384.278, 4230.000
1385.470, 4279.000
1386.662, 4239.000
1387.854, 4226.000
1389.046, 4308.000
1390.237, 4256.000
1391.428, 4262.000
1392.619, 4267.000
1393.810, 4278.000
1395.001, 4327.000
1396.191, 4264.000
1397.382, 4289.000
1398.572, 4320.000
1399.762, 4256.000
1400.952, 4303.000
1402.141, 4319.000
1403.331, 4297.000
1404.520, 4386.000
1405.709, 4291.000
1406.898, 4366.000
1408.087, 4381.000
1409.275, 4378.000
1410.464, 4364.000
1411.652, 4358.000
1412.840, 4289.000
1414.028, 4398.000
1415.215, 4438.000
1416.403, 4317.000
1417.590, 4428.000
1418.777, 4381.000
1419.964, 4428.000
1421.151, 4428.000
1422.338, 4387.000
1423.524, 4448.000
1424.710, 4447.000
1425.896, 4421.000
1427.082, 4458.000
1428.268, 4494.000
1429.453, 4469.000
1430.639, 4504.000
1431.824, 4473.000
1433.009, 4487.000
1434.194, 4498.000
1435.378, 4481.000
1436.563, 4558.000
1437.747, 4596.000
1438.931, 4502.000
1440.115, 4590.000
1441.299, 4559.000
1442.482, 4572.000
1443.666, 4628.000
1444.849, 4573.000
1446.032, 4580.000
1447.215, 4663.000
1448.397, 4652.000
1449.580, 4626.000
1450.762, 4702.000
1451.944, 4656.000
1453.126, 4678.000
1454.308, 4669.000
1455.490, 4617.000
1456.671, 4628.000
1457.852, 4641.000
1459.033, 4595.000
1460.214, 4646.000
1461.395, 4585.000
1462.575, 4619.000
1463.756, 4669.000
1464.936, 4568.000
1466.116, 4720.000
1467.296, 4626.000
1468.475, 4650.000
1469.655, 4627.000
1470.834, 4684.000
1472.013, 4594.000
1473.192, 4657.000
1474.371, 4566.000
1475.550, 4682.000
1476.728, 4564.000
1477.906, 4679.000
1479.084, 4618.000
1480.262, 4652.000
1481.440, 4546.000
1482.617, 4594.000
1483.795, 4648.000
1484.972, 4630.000
1486.149, 4677.000
1487.326, 4633.000
1488.502, 4655.000
1489.679, 4681.000
1490.855, 4599.000
1492.031, 4578.000
1493.207, 4595.000
1494.383, 4614.000
1495.559, 4703.000
1496.734, 4621.000
1497.909, 4669.000
1499.084, 4679.000
1500.259, 4642.000
1501.434, 4659.000
1502.608, 4619.000
##END=



