##NAMES=Diopside
##RRUFFID=R040097
##IDEAL CHEMISTRY=CaMgSi_2_O_6_
##LOCALITY=Fassathal, Tyrol
##OWNER=RRUFF
##SOURCE=University of Arizona Mineral Museum
##DESCRIPTION=Green prismatic crystals
##STATUS=The identification of this mineral has been confirmed by X-ray diffraction and chemical analysis
##URL=rruff.info/R040097
##MEASURED CHEMISTRY=Ca_1.00_(Mg_0.83_Al_0.10_Fe_0.09_Ca_0.02_Ti_0.02_)(Si_0.88_Al_0.12_)_2_O_6_
##PIN_ID=L00346
##ORIENTATION=Laser parallel to a [1 0 0]. Fiducial mark perpendicular to laser is parallel to b* (0 1 0)
65.21800, 11597.00
66.45100, 12999.00
67.68400, 15219.00
68.91600, 18158.00
70.14900, 21241.00
71.38100, 25483.00
72.61300, 30414.00
73.84500, 36669.00
75.07600, 43521.00
76.30800, 50608.00
77.54000, 59870.00
78.77100, 70304.00
80.00200, 80290.00
81.23300, 91994.00
82.46400, 103980.0
83.69500, 116915.0
84.92600, 129734.0
86.15700, 142947.0
87.38700, 155275.0
88.61700, 166418.0
89.84800, 176558.0
91.07800, 187371.0
92.30800, 197915.0
93.53700, 206923.0
94.76700, 216043.0
95.99600, 224422.0
97.22600, 230961.0
98.45500, 237403.0
99.68400, 242938.0
100.9130, 248301.4
102.1420, 252835.0
103.3710, 257670.0
104.5990, 261047.0
105.8280, 264858.0
107.0560, 268910.0
108.2840, 272223.0
109.5120, 273991.0
110.7400, 275914.0
111.9680, 278382.0
113.1950, 280101.0
114.4230, 282071.0
115.6500, 284418.0
116.8780, 285506.0
118.1050, 288221.0
119.3320, 290246.0
120.5580, 291199.0
121.7850, 292070.0
123.0120, 293411.0
124.2380, 293987.0
125.4640, 294809.0
126.6900, 295241.0
127.9160, 296767.0
129.1420, 298362.0
130.3680, 299636.0
131.5940, 302002.0
132.8190, 304326.0
134.0440, 305986.0
135.2700, 307893.0
136.4950, 310787.0
137.7200, 314206.0
138.9440, 317299.0
140.1690, 320286.0
141.3930, 322977.0
142.6180, 324862.0
143.8420, 325807.0
145.0660, 326094.0
146.2900, 325187.0
147.5140, 323856.0
148.7380, 322850.0
149.9610, 321121.0
151.1850, 319357.0
152.4080, 318728.9
153.6310, 317251.0
154.8540, 317875.0
156.0770, 316490.0
157.3000, 317361.0
158.5220, 316472.0
159.7450, 317341.0
160.9670, 317006.0
162.1890, 317385.0
163.4110, 317272.0
164.6330, 318093.0
165.8550, 319817.0
167.0760, 319498.0
168.2980, 322536.0
169.5190, 320909.0
170.7410, 322482.0
171.9620, 323515.0
173.1830, 324994.0
174.4030, 325790.7
175.6240, 326501.0
176.8450, 327229.0
178.0650, 328636.0
179.2850, 329270.0
180.5050, 330988.0
181.7250, 332498.0
182.9450, 334234.0
184.1650, 336109.0
185.3840, 338684.0
186.6040, 339784.0
187.8230, 339829.0
189.0420, 340863.0
190.2610, 340249.0
191.4800, 340223.0
192.6990, 340263.0
193.9180, 340503.0
195.1360, 340828.0
196.3540, 342134.0
197.5730, 342751.0
198.7910, 343261.0
200.0080, 343499.0
201.2260, 343837.0
202.4440, 343253.0
203.6610, 343011.0
204.8790, 343308.0
206.0960, 342751.0
207.3130, 343419.0
208.5300, 343395.0
209.7470, 345757.0
210.9630, 345219.0
212.1800, 346828.0
213.3960, 346974.0
214.6130, 348184.0
215.8290, 348751.0
217.0450, 350943.0
218.2600, 351798.0
219.4760, 353656.0
220.6920, 355183.0
221.9070, 356409.0
223.1220, 358119.0
224.3370, 359095.0
225.5520, 362580.0
226.7670, 362742.0
227.9820, 366616.0
229.1970, 366666.0
230.4110, 367677.0
231.6250, 367861.0
232.8390, 367929.0
234.0530, 367204.0
235.2670, 366543.0
236.4810, 366246.0
237.6950, 365476.0
238.9080, 365252.0
240.1210, 364668.0
241.3350, 364104.0
242.5480, 365290.0
243.7600, 366058.0
244.9730, 367067.0
246.1860, 367364.0
247.3980, 367564.0
248.6110, 369237.0
249.8230, 369182.0
251.0350, 372067.0
252.2470, 372276.0
253.4580, 373319.0
254.6700, 373643.0
255.8820, 375494.0
257.0930, 375139.0
258.3040, 375771.0
259.5150, 376574.0
260.7260, 376037.0
261.9370, 375595.0
263.1480, 374651.0
264.3580, 374223.0
265.5680, 373939.0
266.7790, 374129.0
267.9890, 374044.0
269.1990, 374529.0
270.4080, 373510.0
271.6180, 374979.0
272.8280, 374757.0
274.0370, 375505.0
275.2460, 376185.0
276.4550, 376246.0
277.6640, 376948.0
278.8730, 376999.0
280.0820, 378197.0
281.2900, 377770.0
282.4990, 379868.0
283.7070, 379650.0
284.9150, 381307.0
286.1230, 381806.0
287.3310, 383148.0
288.5380, 383482.0
289.7460, 384101.0
290.9530, 385317.3
292.1600, 386455.0
293.3680, 387595.0
294.5740, 388858.0
295.7810, 390187.0
296.9880, 390777.0
298.1940, 392718.0
299.4010, 393342.0
300.6070, 395502.0
301.8130, 396975.0
303.0190, 398310.0
304.2250, 400639.0
305.4310, 402680.0
306.6360, 403930.0
307.8420, 405777.0
309.0470, 409009.0
310.2520, 411340.0
311.4570, 415265.0
312.6620, 418611.0
313.8660, 422916.0
315.0710, 427020.0
316.2750, 432370.0
317.4800, 436306.0
318.6840, 442250.0
319.8880, 447345.0
321.0910, 452025.0
322.2950, 457120.0
323.4990, 461754.0
324.7020, 465213.0
325.9050, 466128.0
327.1080, 469196.0
328.3110, 466801.0
329.5140, 464903.0
330.7170, 462574.0
331.9190, 457558.0
333.1220, 453352.0
334.3240, 450045.0
335.5260, 445325.0
336.7280, 443959.0
337.9300, 439408.0
339.1320, 436993.0
340.3330, 435558.0
341.5340, 433074.0
342.7360, 432439.0
343.9370, 431117.0
345.1380, 430760.0
346.3390, 431009.0
347.5390, 431325.0
348.7400, 430304.0
349.9400, 431137.0
351.1400, 430141.0
352.3400, 431308.0
353.5400, 431628.0
354.7400, 431661.0
355.9400, 432892.0
357.1390, 433520.0
358.3390, 432965.0
359.5380, 433246.0
360.7370, 433487.0
361.9360, 433719.0
363.1350, 434216.3
364.3330, 434127.0
365.5320, 435061.0
366.7300, 435784.0
367.9280, 435835.0
369.1260, 436444.0
370.3240, 437656.0
371.5220, 437907.0
372.7200, 438541.0
373.9170, 439844.0
375.1140, 440554.2
376.3120, 442171.0
377.5090, 443280.0
378.7060, 445426.0
379.9020, 448024.0
381.0990, 450045.0
382.2950, 454686.0
383.4920, 458488.0
384.6880, 464641.0
385.8840, 467720.0
387.0800, 475366.0
388.2760, 480368.0
389.4710, 487020.0
390.6670, 492519.0
391.8620, 496925.0
393.0570, 500924.0
394.2520, 501308.0
395.4470, 501094.0
396.6420, 496284.0
397.8360, 492782.0
399.0310, 486007.0
400.2250, 480919.0
401.4190, 472808.0
402.6130, 468519.0
403.8070, 460839.0
405.0000, 456805.0
406.1940, 453001.0
407.3870, 449216.0
408.5810, 447237.0
409.7740, 445234.0
410.9670, 444927.0
412.1600, 443512.0
413.3520, 442822.0
414.5450, 442014.0
415.7370, 443195.0
416.9290, 441268.0
418.1210, 442153.0
419.3130, 443684.0
420.5050, 442165.0
421.6970, 442841.0
422.8880, 443379.0
424.0800, 444198.0
425.2710, 444495.3
426.4620, 445546.0
427.6530, 444673.0
428.8440, 445695.0
430.0340, 444831.0
431.2250, 447396.0
432.4150, 447235.0
433.6050, 447621.0
434.7950, 448514.0
435.9850, 447859.0
437.1750, 449146.0
438.3640, 448802.0
439.5540, 450906.0
440.7430, 449937.0
441.9320, 450666.0
443.1210, 450137.0
444.3100, 451315.0
445.4990, 452373.0
446.6870, 452231.0
447.8760, 453348.0
449.0640, 453442.0
450.2520, 455495.0
451.4400, 455878.0
452.6280, 456211.0
453.8150, 455750.0
455.0030, 457492.0
456.1900, 457127.0
457.3780, 458567.0
458.5650, 459543.0
459.7520, 459424.0
460.9380, 460772.0
462.1250, 460984.0
463.3110, 462105.0
464.4980, 461672.0
465.6840, 463384.0
466.8700, 463246.0
468.0560, 464629.0
469.2420, 463525.0
470.4270, 464820.0
471.6130, 465990.0
472.7980, 464807.0
473.9830, 465400.0
475.1680, 465819.0
476.3530, 467303.0
477.5380, 466889.0
478.7220, 467723.0
479.9070, 467843.0
481.0910, 468836.0
482.2750, 469159.0
483.4590, 469785.8
484.6430, 470130.0
485.8260, 470941.0
487.0100, 471906.0
488.1930, 472315.0
489.3760, 473132.0
490.5590, 473920.2
491.7420, 474211.0
492.9250, 475423.0
494.1080, 475670.0
495.2900, 476158.0
496.4730, 476543.0
497.6550, 478145.0
498.8370, 478754.0
500.0190, 480526.0
501.2000, 481548.0
502.3820, 484148.0
503.5630, 484830.0
504.7450, 487197.0
505.9260, 487974.0
507.1070, 490023.6
508.2870, 493924.0
509.4680, 493603.0
510.6490, 495201.0
511.8290, 496131.0
513.0090, 496115.0
514.1890, 496786.0
515.3690, 496306.0
516.5490, 495872.0
517.7290, 496783.0
518.9080, 496172.0
520.0870, 496680.0
521.2670, 496383.0
522.4460, 498368.0
523.6240, 497419.0
524.8030, 498417.0
525.9820, 498139.0
527.1600, 497897.0
528.3380, 499263.0
529.5170, 500074.0
530.6950, 500126.0
531.8720, 501774.0
533.0500, 501311.0
534.2280, 502068.0
535.4050, 501294.0
536.5820, 502683.0
537.7590, 502328.0
538.9360, 503361.0
540.1130, 503205.0
541.2890, 502537.0
542.4660, 502660.0
543.6420, 503553.0
544.8180, 502522.0
545.9940, 503768.0
547.1700, 505845.0
548.3460, 505911.0
549.5220, 505640.0
550.6970, 505561.0
551.8720, 506301.0
553.0470, 508037.0
554.2220, 507665.0
555.3970, 509480.0
556.5720, 509625.0
557.7460, 511154.0
558.9200, 511633.0
560.0950, 512861.0
561.2690, 512906.0
562.4430, 513447.0
563.6160, 513150.0
564.7900, 513800.0
565.9630, 513603.0
567.1370, 514100.0
568.3100, 515747.0
569.4830, 514196.0
570.6560, 515362.0
571.8280, 514985.0
573.0010, 516569.0
574.1730, 515051.0
575.3450, 516516.0
576.5170, 516507.0
577.6890, 515874.0
578.8610, 517569.0
580.0330, 516622.0
581.2040, 518062.0
582.3760, 518464.0
583.5470, 518452.0
584.7180, 518656.0
585.8890, 519145.0
587.0590, 520048.0
588.2300, 518950.0
589.4000, 520261.0
590.5700, 519864.0
591.7410, 521812.0
592.9100, 521041.0
594.0800, 522679.0
595.2500, 522840.0
596.4190, 524818.0
597.5890, 523794.0
598.7580, 523280.0
599.9270, 523364.0
601.0960, 523584.0
602.2640, 525365.0
603.4330, 526786.0
604.6010, 526743.0
605.7700, 528085.0
606.9380, 528171.0
608.1060, 528057.0
609.2740, 528746.0
610.4410, 529372.8
611.6090, 529809.0
612.7760, 531180.0
613.9430, 531889.0
615.1100, 532568.0
616.2770, 533122.0
617.4440, 533551.0
618.6100, 534276.0
619.7770, 534913.0
620.9430, 536575.0
622.1090, 535809.0
623.2750, 537377.0
624.4410, 537552.0
625.6070, 540208.0
626.7720, 539339.0
627.9370, 539729.0
629.1030, 541639.0
630.2680, 541169.0
631.4330, 542911.0
632.5970, 542645.0
633.7620, 545489.0
634.9260, 545210.0
636.0910, 548062.0
637.2550, 547679.0
638.4190, 548942.0
639.5820, 550798.0
640.7460, 551646.0
641.9100, 553980.0
643.0730, 554041.0
644.2360, 556816.0
645.3990, 557793.0
646.5620, 560630.0
647.7250, 563516.0
648.8870, 565372.0
650.0500, 568178.0
651.2120, 570644.0
652.3740, 575194.0
653.5360, 578273.0
654.6980, 583765.0
655.8600, 588848.0
657.0210, 595710.0
658.1820, 603336.4
659.3440, 611250.0
660.5050, 621031.0
661.6650, 630814.0
662.8260, 641384.0
663.9870, 650245.0
665.1470, 661215.0
666.3070, 667573.0
667.4670, 673476.0
668.6270, 674234.0
669.7870, 672216.0
670.9470, 664970.0
672.1060, 655198.0
673.2660, 645269.0
674.4250, 633773.0
675.5840, 624108.0
676.7430, 617191.0
677.9010, 609884.0
679.0600, 604849.0
680.2180, 598481.0
681.3770, 594858.0
682.5350, 590683.0
683.6930, 589946.0
684.8500, 587315.0
686.0080, 584118.0
687.1650, 583767.0
688.3230, 582653.0
689.4800, 582501.0
690.6370, 581825.0
691.7940, 582066.0
692.9500, 580620.0
694.1070, 580169.0
695.2630, 580161.0
696.4200, 579293.0
697.5760, 580912.0
698.7310, 580786.0
699.8870, 580466.0
701.0430, 580537.0
702.1980, 580771.0
703.3540, 581248.0
704.5090, 583101.0
705.6640, 582345.0
706.8180, 583014.0
707.9730, 584672.0
709.1280, 583017.0
710.2820, 585214.0
711.4360, 584375.0
712.5900, 584894.0
713.7440, 584354.0
714.8980, 584418.0
716.0510, 585470.0
717.2050, 586103.0
718.3580, 585741.0
719.5110, 586193.0
720.6640, 587427.0
721.8170, 587082.0
722.9690, 589001.0
724.1220, 587703.0
725.2740, 589824.0
726.4260, 588233.0
727.5780, 588331.0
728.7300, 591331.0
729.8820, 590225.0
731.0330, 591381.0
732.1850, 591718.0
733.3360, 592283.0
734.4870, 593437.0
735.6380, 593651.0
736.7890, 594892.0
737.9390, 594271.0
739.0900, 597493.0
740.2400, 594973.0
741.3900, 597577.0
742.5400, 596879.0
743.6900, 598069.0
744.8390, 598776.0
745.9890, 599206.0
747.1380, 600208.0
748.2870, 600800.1
749.4360, 601410.6
750.5850, 602442.0
751.7340, 602567.0
752.8830, 603716.0
754.0310, 604245.0
755.1790, 604460.0
756.3270, 605071.0
757.4750, 607192.0
758.6230, 606112.0
759.7700, 608203.0
760.9180, 608119.0
762.0650, 608976.0
763.2120, 608604.0
764.3590, 609854.7
765.5060, 610771.4
766.6530, 612032.0
767.7990, 613287.0
768.9460, 614079.0
770.0920, 615242.0
771.2380, 616225.0
772.3840, 616971.0
773.5290, 618326.0
774.6750, 616415.0
775.8200, 618667.0
776.9650, 616906.0
778.1100, 620482.0
779.2550, 621182.0
780.4000, 620541.0
781.5450, 621490.0
782.6890, 621673.0
783.8330, 623668.0
784.9780, 623792.0
786.1220, 625406.0
787.2650, 626573.0
788.4090, 626185.0
789.5520, 627986.0
790.6960, 627531.0
791.8390, 629034.0
792.9820, 627867.0
794.1250, 631040.0
795.2670, 630958.0
796.4100, 631417.0
797.5520, 632241.0
798.6950, 632093.0
799.8370, 633940.0
800.9790, 634942.0
802.1200, 635238.0
803.2620, 636294.4
804.4030, 637590.0
805.5450, 637481.0
806.6860, 637481.0
807.8270, 638341.0
808.9670, 639987.0
810.1080, 640612.0
811.2480, 641502.0
812.3890, 643160.0
813.5290, 643899.0
814.6690, 645179.0
815.8090, 646468.0
816.9480, 647529.0
818.0880, 649154.0
819.2270, 649922.4
820.3660, 650595.0
821.5050, 651729.0
822.6440, 653012.0
823.7830, 654118.0
824.9220, 654951.6
826.0600, 654052.0
827.1980, 655861.0
828.3360, 656680.0
829.4740, 655827.0
830.6120, 658518.0
831.7490, 657565.0
832.8870, 658313.0
834.0240, 659421.0
835.1610, 657905.0
836.2980, 659137.0
837.4350, 659101.0
838.5720, 660225.0
839.7080, 660505.0
840.8440, 661539.0
841.9810, 661807.0
843.1170, 660606.0
844.2520, 661325.0
845.3880, 661364.0
846.5240, 662906.0
847.6590, 663550.0
848.7940, 664132.0
849.9290, 666282.0
851.0640, 666354.0
852.1990, 668862.0
853.3330, 667532.0
854.4680, 670533.0
855.6020, 671447.0
856.7360, 671889.0
857.8700, 674900.0
859.0040, 674250.0
860.1370, 675693.0
861.2710, 675885.0
862.4040, 677672.0
863.5370, 678329.0
864.6700, 678770.0
865.8030, 678310.0
866.9350, 679772.0
868.0680, 681042.0
869.2000, 679377.0
870.3320, 680315.0
871.4640, 680152.0
872.5960, 681123.0
873.7280, 681861.0
874.8590, 681765.0
875.9910, 681752.0
877.1220, 681743.0
878.2530, 682250.8
879.3840, 682452.0
880.5140, 683750.0
881.6450, 684680.0
882.7750, 686084.0
883.9050, 686252.0
885.0350, 686066.0
886.1650, 688003.0
887.2950, 686646.0
888.4250, 689370.0
889.5540, 688752.0
890.6830, 690135.0
891.8120, 691535.0
892.9410, 690814.0
894.0700, 693558.0
895.1990, 692242.0
896.3270, 694359.0
897.4550, 697011.0
898.5830, 696232.0
899.7110, 696835.0
900.8390, 695691.0
901.9670, 698717.0
903.0940, 698162.0
904.2210, 699882.0
905.3490, 699720.0
906.4760, 700679.0
907.6020, 702472.0
908.7290, 702388.0
909.8550, 703667.0
910.9820, 702590.0
912.1080, 705008.0
913.2340, 704223.0
914.3600, 706099.0
915.4850, 706131.0
916.6110, 707767.0
917.7360, 708452.4
918.8620, 710405.0
919.9870, 710335.0
921.1110, 709987.0
922.2360, 711667.0
923.3610, 713316.0
924.4850, 712319.0
925.6090, 716430.0
926.7330, 714513.0
927.8570, 716345.0
928.9810, 717235.0
930.1040, 717802.0
931.2280, 717906.0
932.3510, 718281.0
933.4740, 718936.0
934.5970, 719758.0
935.7200, 719504.0
936.8420, 719463.0
937.9650, 722954.0
939.0870, 722417.0
940.2090, 721625.0
941.3310, 724573.0
942.4530, 724098.0
943.5750, 726437.0
944.6960, 725727.0
945.8170, 725694.0
946.9380, 728326.0
948.0590, 726769.0
949.1800, 728988.0
950.3010, 729296.0
951.4210, 731352.0
952.5420, 731430.0
953.6620, 731721.0
954.7820, 733928.0
955.9020, 732409.0
957.0210, 735998.0
958.1410, 736504.0
959.2600, 738082.0
960.3790, 738721.0
961.4980, 739022.0
962.6170, 742056.0
963.7360, 741919.0
964.8540, 742834.0
965.9730, 744115.0
967.0910, 743610.0
968.2090, 746059.0
969.3270, 746156.0
970.4440, 747253.0
971.5620, 747321.0
972.6790, 750417.0
973.7960, 750093.0
974.9130, 750331.0
976.0300, 752770.0
977.1470, 751850.0
978.2640, 753801.0
979.3800, 754135.0
980.4960, 756326.0
981.6120, 755538.0
982.7280, 756545.0
983.8440, 759411.0
984.9590, 759043.0
986.0750, 761417.0
987.1900, 763128.0
988.3050, 765154.0
989.4200, 767063.5
990.5350, 769383.0
991.6490, 770953.0
992.7640, 773590.0
993.8780, 776091.0
994.9920, 779800.0
996.1060, 783920.0
997.2200, 790210.0
998.3330, 794309.0
999.4470, 803722.0
1000.560, 810412.0
1001.673, 820041.0
1002.786, 829167.0
1003.899, 839306.0
1005.011, 850357.0
1006.124, 862462.0
1007.236, 875145.0
1008.348, 885352.0
1009.460, 893984.0
1010.572, 900840.0
1011.684, 904155.0
1012.795, 900452.0
1013.906, 894671.0
1015.017, 882832.0
1016.128, 867223.0
1017.239, 851748.0
1018.350, 836622.0
1019.460, 824450.0
1020.571, 814050.0
1021.681, 807167.0
1022.791, 803079.0
1023.900, 797319.0
1025.010, 796932.0
1026.120, 795180.0
1027.229, 794253.0
1028.338, 794392.0
1029.447, 793455.0
1030.556, 794479.0
1031.664, 793970.0
1032.773, 795340.0
1033.881, 796876.0
1034.989, 794917.0
1036.097, 798074.0
1037.205, 797513.0
1038.313, 800719.0
1039.420, 800278.0
1040.528, 801714.0
1041.635, 802740.0
1042.742, 803260.0
1043.849, 803544.0
1044.955, 803624.0
1046.062, 805120.0
1047.168, 805684.0
1048.274, 803780.0
1049.380, 805619.0
1050.486, 804666.0
1051.592, 803809.0
1052.697, 804407.0
1053.803, 802972.0
1054.908, 805152.0
1056.013, 803245.0
1057.117, 802764.0
1058.222, 801801.0
1059.327, 802670.0
1060.431, 802909.0
1061.535, 803368.0
1062.639, 804336.0
1063.743, 803018.0
1064.847, 805546.0
1065.950, 803723.0
1067.054, 806157.0
1068.157, 807043.0
1069.260, 806355.0
1070.363, 806882.0
1071.465, 808717.0
1072.568, 810984.0
1073.670, 808963.0
1074.772, 812297.0
1075.874, 812256.0
1076.976, 811404.0
1078.078, 814830.0
1079.179, 812763.0
1080.281, 815076.0
1081.382, 815595.0
1082.483, 816495.0
1083.584, 816737.0
1084.684, 817791.0
1085.785, 818799.0
1086.885, 819536.0
1087.985, 820806.0
1089.085, 822626.0
1090.185, 821264.0
1091.285, 823066.0
1092.384, 824396.0
1093.484, 826830.0
1094.583, 826063.0
1095.682, 826580.0
1096.781, 827997.0
1097.879, 828504.0
1098.978, 829971.0
1100.076, 829624.0
1101.174, 832621.0
1102.272, 832668.0
1103.370, 832938.0
1104.468, 834671.0
1105.565, 833613.0
1106.663, 835919.0
1107.760, 836611.0
1108.857, 836861.0
1109.954, 837327.0
1111.050, 838204.0
1112.147, 838975.0
1113.243, 838713.0
1114.339, 841658.0
1115.435, 841390.0
1116.531, 841711.0
1117.627, 843115.0
1118.722, 841915.0
1119.818, 844102.0
1120.913, 844960.0
1122.008, 846664.0
1123.103, 846687.0
1124.197, 846377.0
1125.292, 848341.0
1126.386, 848188.0
1127.480, 850929.0
1128.574, 849243.0
1129.668, 850724.0
1130.762, 850728.0
1131.855, 850650.0
1132.949, 854852.0
1134.042, 852172.0
1135.135, 855440.0
1136.228, 855756.0
1137.320, 855993.0
1138.413, 858004.0
1139.505, 856538.0
1140.597, 859494.0
1141.689, 857916.0
1142.781, 860280.0
1143.873, 861142.0
1144.964, 860675.0
1146.055, 864693.0
1147.146, 862991.0
1148.237, 864050.0
1149.328, 864328.0
1150.419, 864290.0
1151.509, 867057.0
1152.600, 865565.0
1153.690, 868852.0
1154.780, 867983.0
1155.869, 870105.0
1156.959, 870074.0
1158.049, 871168.0
1159.138, 872201.0
1160.227, 872440.0
1161.316, 874350.0
1162.405, 874430.0
1163.493, 873204.0
1164.582, 876564.0
1165.670, 876036.0
1166.758, 878858.0
1167.846, 877865.0
1168.934, 879942.0
1170.021, 879896.0
1171.109, 881217.0
1172.196, 882212.0
1173.283, 883398.0
1174.370, 883247.0
1175.457, 886801.0
1176.543, 885512.0
1177.630, 888610.0
1178.716, 887144.0
1179.802, 888185.0
1180.888, 890084.0
1181.974, 891894.0
1183.059, 891481.0
1184.145, 890598.0
1185.230, 893597.0
1186.315, 893881.0
1187.400, 893379.0
1188.485, 895400.0
1189.569, 895261.0
1190.653, 896260.1
1191.738, 897940.0
1192.822, 898059.0
1193.906, 898590.0
1194.989, 899405.0
1196.073, 901387.0
1197.156, 900656.0
1198.239, 901546.0
1199.322, 903106.0
1200.405, 902186.0
1201.488, 904911.0
1202.570, 905889.0
1203.653, 906418.0
1204.735, 908226.0
1205.817, 908488.0
1206.899, 909628.0
1207.980, 909906.0
1209.062, 911551.0
1210.143, 910938.0
1211.224, 912876.0
1212.305, 912932.0
1213.386, 913116.0
1214.467, 913863.0
1215.547, 915865.0
1216.628, 917645.0
1217.708, 918117.0
1218.788, 919536.0
1219.868, 919916.0
1220.947, 919979.0
1222.027, 922827.0
1223.106, 923435.0
1224.185, 926765.0
1225.264, 925458.0
1226.343, 925191.0
1227.421, 928292.0
1228.500, 928269.0
1229.578, 930014.0
1230.656, 930715.0
1231.734, 929281.0
1232.812, 932089.0
1233.890, 930293.0
1234.967, 935152.0
1236.044, 933198.0
1237.121, 935073.0
1238.198, 936503.0
1239.275, 936440.0
1240.352, 938406.0
1241.428, 937507.0
1242.504, 939655.0
1243.580, 940360.0
1244.656, 940165.0
1245.732, 944323.0
1246.807, 942572.0
1247.883, 944400.0
1248.958, 945340.0
1250.033, 946933.0
1251.108, 948304.9
1252.182, 946944.0
1253.257, 950317.0
1254.331, 950303.0
1255.406, 949622.0
1256.480, 952473.0
1257.553, 951748.0
1258.627, 955713.0
1259.701, 952908.0
1260.774, 955177.0
1261.847, 956336.0
1262.920, 955442.0
1263.993, 958386.0
1265.065, 956912.0
1266.138, 958999.0
1267.210, 959742.0
1268.282, 959765.0
1269.354, 961633.0
1270.426, 962184.0
1271.498, 964023.0
1272.569, 963696.0
1273.640, 965009.0
1274.711, 965427.0
1275.782, 965754.0
1276.853, 967825.0
1277.924, 968016.0
1278.994, 968203.0
1280.064, 970290.0
1281.134, 968966.0
1282.204, 970666.0
1283.274, 972025.0
1284.344, 972439.0
1285.413, 975181.0
1286.482, 973660.0
1287.551, 978365.0
1288.620, 976038.0
1289.689, 977431.0
1290.757, 979867.0
1291.826, 983507.0
1292.894, 984114.0
1293.962, 981501.0
1295.030, 982782.0
1296.097, 981560.0
1297.165, 984371.0
1298.232, 988617.0
1299.299, 986402.0
1300.366, 988197.0
1301.433, 989282.0
1302.500, 989793.0
1303.566, 992071.0
1304.633, 991793.0
1305.699, 995211.0
1306.765, 994174.0
1307.830, 995535.3
1308.896, 996943.0
1309.961, 996375.0
1311.027, 998381.0
1312.092, 997777.0
1313.157, 999248.0
1314.221, 1002527.
1315.286, 1000815.
1316.350, 1004026.
1317.415, 1002862.
1318.479, 1004907.
1319.543, 1006683.
1320.606, 1005245.
1321.670, 1008710.
1322.733, 1007670.
1323.796, 1009009.
1324.859, 1013424.
1325.922, 1009980.
1326.985, 1013050.
1328.047, 1011481.
1329.110, 1012661.
1330.172, 1013686.
1331.234, 1015429.
1332.296, 1018745.
1333.357, 1017501.
1334.419, 1020920.
1335.480, 1019202.
1336.541, 1019301.
1337.602, 1022942.
1338.663, 1021846.
1339.724, 1024922.
1340.784, 1024908.
1341.844, 1025477.
1342.904, 1028275.
1343.964, 1025448.
1345.024, 1028242.
1346.084, 1026340.
1347.143, 1029715.
1348.202, 1031141.
1349.261, 1031210.
1350.320, 1034189.
1351.379, 1033381.
1352.437, 1033852.
1353.496, 1036138.
1354.554, 1035835.
1355.612, 1037682.
1356.670, 1036991.
1357.728, 1038658.
1358.785, 1041115.
1359.842, 1039806.
1360.899, 1042523.
1361.956, 1041342.
1363.013, 1044904.
1364.070, 1043536.
1365.126, 1043885.
1366.183, 1048200.
1367.239, 1045561.
1368.295, 1047333.
1369.350, 1047475.
1370.406, 1047885.
1371.461, 1050432.
1372.517, 1049845.
1373.572, 1052805.
1374.627, 1052006.
1375.681, 1052102.
1376.736, 1055034.
1377.790, 1054089.
1378.844, 1054894.
1379.898, 1055370.
1380.952, 1055139.
1382.006, 1058666.
1383.060, 1058482.
1384.113, 1060733.
1385.166, 1058787.
1386.219, 1059274.
1387.272, 1061741.
1388.324, 1060188.
1389.377, 1063847.
1390.429, 1065351.
1391.481, 1063978.
1392.533, 1068321.
1393.585, 1065063.
1394.637, 1068376.
1395.688, 1067907.
1396.739, 1071632.
1397.790, 1071937.
1398.841, 1070035.
1399.892, 1071926.
1400.942, 1073647.
1401.993, 1074425.
1403.043, 1075746.
1404.093, 1076225.
1405.143, 1077392.
1406.193, 1078572.
1407.242, 1079426.
1408.291, 1079789.
1409.341, 1081316.
1410.390, 1083646.
1411.438, 1081239.
1412.487, 1082262.
1413.535, 1085430.
1414.584, 1084015.
1415.632, 1087231.
1416.680, 1087119.
1417.728, 1086989.
1418.775, 1088946.
1419.823, 1088968.
1420.870, 1090604.
1421.917, 1089583.
1422.964, 1091216.
1424.010, 1093123.
1425.057, 1092784.
1426.103, 1094667.
1427.150, 1095962.
1428.196, 1096531.
1429.241, 1097089.
1430.287, 1097078.
1431.333, 1098868.
1432.378, 1099750.
1433.423, 1099698.
1434.468, 1102180.
1435.513, 1101443.
1436.557, 1104181.
1437.602, 1103857.
1438.646, 1105214.
1439.690, 1106830.
1440.734, 1105051.
1441.778, 1108280.
1442.821, 1107899.
1443.865, 1107856.
1444.908, 1112582.
1445.951, 1110350.
1446.994, 1111874.
1448.037, 1111702.
1449.079, 1113211.
1450.122, 1115701.
1451.164, 1114632.
1452.206, 1118143.
1453.248, 1115682.
1454.289, 1118435.
1455.331, 1119599.
1456.372, 1118012.
1457.413, 1120774.
1458.454, 1122505.
1459.495, 1121989.
1460.535, 1125755.
1461.576, 1122838.
1462.616, 1126895.
1463.656, 1124355.
1464.696, 1127892.
1465.736, 1127610.
1466.775, 1127726.
1467.815, 1133131.
1468.854, 1130514.
1469.893, 1131256.
1470.932, 1131079.
1471.970, 1132897.
1473.009, 1136994.
1474.047, 1135321.
1475.085, 1137135.
1476.123, 1139393.
1477.161, 1137434.
1478.199, 1140863.
1479.236, 1138476.
1480.273, 1142545.
1481.310, 1145113.
1482.347, 1143706.
1483.384, 1146414.
1484.421, 1147324.
1485.457, 1145992.
1486.493, 1149847.
1487.529, 1147510.
1488.565, 1149273.
1489.601, 1149120.
1490.636, 1151755.
1491.671, 1152473.
1492.707, 1152656.
1493.742, 1154151.
1494.776, 1151916.
1495.811, 1155241.
1496.845, 1156618.
1497.880, 1155134.
1498.914, 1158898.
1499.948, 1158923.
1500.981, 1159399.
1502.015, 1162300.
1503.048, 1160330.
1504.082, 1164456.
1505.115, 1164555.
1506.148, 1163234.
1507.180, 1166064.
1508.213, 1166875.
1509.245, 1169170.
1510.277, 1169054.
1511.309, 1169778.
1512.341, 1171871.
1513.373, 1172243.
1514.404, 1175317.
1515.435, 1173741.
1516.466, 1175015.
1517.497, 1179791.
1518.528, 1176861.
1519.559, 1181099.
1520.589, 1179663.
1521.619, 1180132.
1522.649, 1183203.
1523.679, 1181900.
1524.709, 1184910.
1525.738, 1186076.
1526.768, 1184385.
1527.797, 1188978.
1528.826, 1187979.
1529.855, 1189502.
1530.883, 1190462.
1531.912, 1189674.
1532.940, 1193596.
1533.968, 1190535.
1534.996, 1193019.
1536.024, 1197554.
1537.051, 1193486.
1538.079, 1195646.
1539.106, 1194129.
1540.133, 1196514.
1541.160, 1197419.
1542.186, 1196899.
1543.213, 1201143.
1544.239, 1199637.
1545.265, 1201654.
1546.291, 1202949.
1547.317, 1201826.
1548.343, 1206829.
1549.368, 1205773.
1550.393, 1206119.
1551.418, 1209797.
1552.443, 1210116.
1553.468, 1213373.
1554.493, 1210620.
1555.517, 1213919.
1556.541, 1214070.
1557.565, 1211280.
1558.589, 1216716.
1559.613, 1213884.
1560.636, 1216096.
1561.660, 1216469.
1562.683, 1216578.
1563.706, 1217307.
1564.728, 1218692.
1565.751, 1219258.
1566.773, 1222421.
1567.796, 1218494.
1568.818, 1218054.
1569.840, 1221009.
1570.861, 1221606.
1571.883, 1226423.
1572.904, 1222528.
1573.925, 1226877.
1574.946, 1228304.
1575.967, 1226376.
1576.988, 1230795.
1578.008, 1228895.
1579.029, 1229395.
1580.049, 1232899.
##END=



