##NAMES=Dravite
##RRUFFID=R050059
##IDEAL CHEMISTRY=NaMg_3_Al_6_(Si_6_O_18_)(BO_3_)_3_(OH)_3_OH
##LOCALITY=Nepal
##OWNER=RRUFF
##SOURCE=Rock Currier
##DESCRIPTION=Dark brown single crystal
##STATUS=The identification of this mineral has been confirmed by X-ray diffraction and chemical analysis
##URL=rruff.info/R050059
##MEASURED CHEMISTRY=(Na_0.79_[box]_0.16_Ca_0.05_)_Σ=1_(Mg_2.44_Al_0.29_[box]_0.14_Fe^2+^_0.08_Ti_0.05_)_Σ=3_Al_6.00_(BO_3_)_3_Si_6.00_O_18_(OH)_4_ ; H_2_O assumed ideal from stoichiometry; B_2_O_3_ estimated by difference
##PIN_ID=L00432
##ORIENTATION=Laser parallel to -c* (0 0 -1). Fiducial mark perpendicular to laser is parallel to a [1 0 0]
125.482, 0.000
126.873, 49.675
128.263, 69.724
129.653, 65.397
131.042, 390.207
132.432, 316.258
133.821, 309.861
135.210, 367.511
136.599, 400.545
137.987, 491.722
139.376, 575.353
140.764, 675.078
142.152, 720.122
143.539, 765.894
144.927, 787.623
146.314, 845.002
147.701, 820.673
149.088, 778.075
150.474, 858.196
151.861, 774.992
153.247, 798.392
154.633, 734.142
156.018, 686.060
157.404, 440.012
158.789, 426.901
160.174, 336.653
161.559, 189.217
162.943, 136.554
164.327, 42.638
165.711, 11.486
167.095, -1.627
168.479, 27.475
169.862, 31.599
171.246, 12.083
172.628, 69.423
174.011, 22.889
175.394, 86.492
176.776, 122.939
178.158, 167.374
179.540, 286.838
180.922, 376.409
182.303, 345.154
183.684, 528.138
185.065, 518.415
186.446, 605.034
187.826, 732.042
189.207, 775.479
190.587, 770.381
191.967, 822.783
193.346, 783.711
194.726, 800.193
196.105, 790.254
197.484, 824.917
198.862, 919.203
200.241, 1013.132
201.619, 1041.726
202.997, 1215.000
204.375, 1332.972
205.753, 1491.904
207.130, 1787.152
208.507, 2033.820
209.884, 2325.648
211.261, 2675.559
212.638, 2796.449
214.014, 3116.219
215.390, 3314.529
216.766, 3393.626
218.141, 3329.889
219.517, 3373.062
220.892, 3195.546
222.267, 2954.944
223.642, 2728.211
225.016, 2591.058
226.391, 2440.773
227.765, 2391.232
229.139, 2296.691
230.512, 2292.148
231.886, 2336.621
233.259, 2240.139
234.632, 2431.701
236.005, 2439.306
237.377, 2697.948
238.749, 2623.624
240.122, 2694.330
241.493, 2728.064
242.865, 2497.825
244.237, 2482.609
245.608, 2225.416
246.979, 2083.242
248.350, 1755.088
249.720, 1604.950
251.090, 1326.825
252.461, 1107.710
253.830, 885.601
255.200, 760.484
256.570, 710.348
257.939, 672.186
259.308, 528.000
260.677, 532.792
262.045, 528.564
263.414, 578.317
264.782, 609.054
266.150, 689.776
267.517, 738.484
268.885, 765.181
270.252, 777.867
271.619, 886.545
272.986, 949.216
274.353, 901.882
275.719, 947.544
277.085, 799.203
278.451, 761.861
279.817, 636.520
281.182, 458.181
282.548, 380.845
283.913, 316.514
285.278, 122.188
286.642, 179.871
288.007, 70.554
289.371, 45.221
290.735, 78.816
292.099, 17.318
293.462, 77.638
294.826, 38.633
296.189, 165.623
297.552, 53.593
298.914, 136.516
300.277, 101.401
301.639, 123.204
303.001, 158.679
304.363, 162.714
305.724, 210.910
307.086, 209.521
308.447, 233.269
309.808, 246.156
311.168, 340.429
312.529, 316.938
313.889, 249.633
315.249, 198.462
316.609, 118.403
317.969, 97.435
319.328, 18.554
320.687, 1.740
322.046, 55.011
323.405, 223.729
324.764, 290.673
326.122, 443.899
327.480, 522.752
328.838, 721.372
330.196, 812.883
331.553, 888.374
332.910, 1006.851
334.267, 1101.629
335.624, 1199.947
336.981, 1311.398
338.337, 1451.347
339.693, 1543.630
341.049, 1603.881
342.405, 1571.067
343.760, 1556.194
345.116, 1664.266
346.471, 1604.286
347.826, 1746.259
349.180, 1834.187
350.535, 1855.073
351.889, 1906.921
353.243, 2068.732
354.597, 2237.510
355.950, 2484.257
357.304, 2597.975
358.657, 2825.666
360.010, 2972.333
361.362, 3172.977
362.715, 3395.600
364.067, 3670.202
365.419, 3848.788
366.771, 4256.358
368.123, 4693.914
369.474, 5111.441
370.825, 5728.924
372.176, 6116.339
373.527, 6753.658
374.877, 6870.932
376.228, 6938.162
377.578, 6815.365
378.928, 6302.442
380.277, 5989.222
381.627, 5355.688
382.976, 5011.771
384.325, 4537.576
385.674, 4113.218
387.023, 3928.790
388.371, 3511.368
389.719, 3317.967
391.067, 3031.589
392.415, 2917.235
393.762, 2690.905
395.110, 2535.600
396.457, 2382.319
397.804, 2214.064
399.150, 2064.435
400.497, 1925.817
401.843, 1762.453
403.189, 1689.303
404.535, 1558.180
405.881, 1503.084
407.226, 1467.018
408.571, 1361.979
409.916, 1289.969
411.261, 1169.989
412.605, 1175.039
413.950, 1108.119
415.294, 947.229
416.638, 890.371
417.981, 947.544
419.325, 846.749
420.668, 773.987
422.011, 704.259
423.354, 778.563
424.697, 722.902
426.039, 769.275
427.381, 668.683
428.723, 784.125
430.065, 816.604
431.406, 763.118
432.748, 756.667
434.089, 785.254
435.430, 872.877
436.770, 787.537
438.111, 785.233
439.451, 900.967
440.791, 817.739
442.131, 728.549
443.471, 789.396
444.810, 701.281
446.149, 686.206
447.488, 715.579
448.827, 641.131
450.166, 647.190
451.504, 599.369
452.842, 550.972
454.180, 564.741
455.518, 451.407
456.855, 418.508
458.193, 421.275
459.530, 368.150
460.867, 397.594
462.203, 382.260
463.540, 430.525
464.876, 414.610
466.212, 410.084
467.548, 388.242
468.883, 494.553
470.219, 401.443
471.554, 545.599
472.889, 446.922
474.224, 471.814
475.558, 465.029
476.892, 706.559
478.227, 590.219
479.561, 694.305
480.894, 820.452
482.228, 787.786
483.561, 849.240
484.894, 1139.709
486.227, 1114.701
487.559, 1212.341
488.892, 1286.521
490.224, 1406.445
491.556, 1417.349
492.888, 1545.090
494.220, 1471.892
495.551, 1479.275
496.882, 1635.364
498.213, 1551.490
499.544, 1501.658
500.874, 1557.863
502.205, 1502.108
503.535, 1554.393
504.865, 1458.717
506.194, 1402.082
507.524, 1272.487
508.853, 1246.934
510.182, 1131.422
511.511, 1170.952
512.840, 1038.524
514.168, 1000.139
515.496, 908.796
516.824, 834.496
518.152, 761.239
519.480, 717.027
520.807, 836.857
522.134, 771.733
523.461, 835.651
524.788, 1056.616
526.114, 1116.624
527.441, 1276.677
528.767, 1313.776
530.093, 1561.919
531.418, 1708.109
532.744, 1802.345
534.069, 1801.627
535.394, 1907.035
536.719, 1894.335
538.044, 1997.760
539.368, 1930.232
540.693, 1926.756
542.017, 1792.334
543.340, 1875.971
544.664, 1732.670
545.987, 1675.452
547.311, 1866.317
548.634, 1658.277
549.956, 1717.318
551.279, 1628.471
552.601, 1713.762
553.923, 1721.167
555.245, 1790.695
556.567, 1526.365
557.889, 1702.155
559.210, 1506.069
560.531, 1456.107
561.852, 1369.259
563.173, 1342.553
564.493, 1164.960
565.813, 1138.495
567.133, 1007.150
568.453, 1054.930
569.773, 834.815
571.092, 856.806
572.412, 787.922
573.731, 666.126
575.049, 613.458
576.368, 549.880
577.686, 618.401
579.005, 435.016
580.323, 499.720
581.640, 377.494
582.958, 401.338
584.275, 405.243
585.593, 286.219
586.909, 287.262
588.226, 293.364
589.543, 245.525
590.859, 181.745
592.175, 252.019
593.491, 239.349
594.807, 286.734
596.122, 217.171
597.438, 164.661
598.753, 257.200
600.068, 261.792
601.382, 126.434
602.697, 162.125
604.011, 159.865
605.325, 163.655
606.639, 175.500
607.952, 251.397
609.266, 246.355
610.579, 316.379
611.892, 201.463
613.205, 294.627
614.518, 258.851
615.830, 288.141
617.142, 257.479
618.454, 327.880
619.766, 168.333
621.078, 368.838
622.389, 196.396
623.700, 203.018
625.011, 260.734
626.322, 238.579
627.632, 290.550
628.943, 295.656
630.253, 224.896
631.563, 268.297
632.872, 194.853
634.182, 176.514
635.491, 111.355
636.800, 116.267
638.109, 36.272
639.418, 7.350
640.726, 148.505
642.035, 137.336
643.343, 119.151
644.651, 202.947
645.958, 187.746
647.266, 146.544
648.573, 176.331
649.880, 199.115
651.187, 55.902
652.494, 27.660
653.800, 178.618
655.106, 127.934
656.412, 354.289
657.718, 434.681
659.024, 467.111
660.329, 639.580
661.634, 781.084
662.939, 859.626
664.244, 944.641
665.549, 962.818
666.853, 974.468
668.157, 972.153
669.461, 961.278
670.765, 932.578
672.069, 870.703
673.372, 846.370
674.675, 802.306
675.978, 744.985
677.281, 746.907
678.583, 663.861
679.886, 637.847
681.188, 631.864
682.490, 657.912
683.792, 644.991
685.093, 694.101
686.394, 669.240
687.696, 736.408
688.997, 824.605
690.297, 727.832
691.598, 851.086
692.898, 931.368
694.198, 986.678
695.498, 1048.015
696.798, 1267.697
698.097, 1269.733
699.397, 1386.317
700.696, 1503.436
701.995, 1806.819
703.293, 2069.143
704.592, 2210.047
705.890, 2453.171
707.188, 2566.308
708.486, 3085.994
709.784, 3506.687
711.081, 3815.736
712.378, 4142.908
713.675, 4545.673
714.972, 5058.937
716.269, 5292.137
717.565, 6123.086
718.862, 6450.640
720.158, 7261.563
721.453, 7746.153
722.749, 8688.644
724.045, 9152.059
725.340, 9671.505
726.635, 10070.503
727.930, 10124.395
729.224, 9809.568
730.519, 9554.042
731.813, 8759.685
733.107, 8377.421
734.401, 7464.178
735.694, 6779.401
736.988, 6540.804
738.281, 6182.365
739.574, 5771.568
740.867, 5683.046
742.160, 5714.128
743.452, 5483.189
744.744, 5632.140
746.036, 5561.328
747.328, 5719.787
748.620, 5858.254
749.911, 5836.707
751.202, 6294.575
752.493, 6422.381
753.784, 6560.058
755.075, 6847.830
756.365, 7115.283
757.655, 7292.720
758.945, 7360.138
760.235, 7657.540
761.525, 7954.919
762.814, 7992.282
764.103, 8449.622
765.392, 8756.946
766.681, 8884.247
767.969, 8921.525
769.258, 9178.787
770.546, 9196.024
771.834, 9273.240
773.122, 9550.428
774.409, 9617.599
775.697, 10024.746
776.984, 10361.865
778.271, 10948.962
779.558, 11406.034
780.844, 12013.080
782.131, 12980.100
783.417, 13847.092
784.703, 14164.057
785.989, 14660.992
787.274, 15297.896
788.560, 15164.773
789.845, 15231.615
791.130, 15198.428
792.415, 14905.205
793.699, 14571.952
794.983, 13858.646
796.268, 13582.246
797.552, 12756.127
798.835, 11880.485
800.119, 11872.197
801.402, 11304.369
802.686, 11007.799
803.969, 10790.258
805.251, 10841.901
806.534, 10957.489
807.816, 11283.506
809.098, 11419.827
810.380, 11416.108
811.662, 11522.353
812.944, 11408.690
814.225, 11044.729
815.506, 11030.859
816.787, 10446.952
818.068, 9983.003
819.349, 8849.016
820.629, 8284.987
821.909, 7380.921
823.189, 6566.811
824.469, 5752.661
825.749, 5088.469
827.028, 4441.235
828.307, 3961.959
829.586, 3531.640
830.865, 3052.278
832.144, 2834.872
833.422, 2595.423
834.700, 2440.931
835.978, 2257.393
837.256, 2114.811
838.534, 1851.183
839.811, 1791.510
841.088, 1483.791
842.365, 1388.026
843.642, 1199.215
844.919, 1003.357
846.195, 757.452
847.472, 632.499
848.748, 550.499
850.023, 329.451
851.299, 255.352
852.575, 162.197
853.850, 122.983
855.125, 72.194
856.400, 9.317
857.674, 30.173
858.949, 16.209
860.223, 42.989
861.497, 197.396
862.771, 100.498
864.045, 136.766
865.318, 201.221
866.591, 129.898
867.864, 136.760
869.137, 134.811
870.410, 98.051
871.682, 202.460
872.955, 96.095
874.227, 153.900
875.499, 119.905
876.770, 134.094
878.042, 70.473
879.313, 63.010
880.584, 140.702
881.855, 1.588
883.126, 149.597
884.396, 8.805
885.667, 42.141
886.937, 26.620
888.207, 2.235
889.476, 81.026
890.746, 76.199
892.015, 186.282
893.284, 78.296
894.553, 91.222
895.822, 196.061
897.090, 207.833
898.359, 184.540
899.627, 276.177
900.895, 271.753
902.163, 271.268
903.430, 407.722
904.698, 419.124
905.965, 446.480
907.232, 419.792
908.499, 528.056
909.765, 526.278
911.032, 516.452
912.298, 618.579
913.564, 654.671
914.830, 689.717
916.095, 692.738
917.361, 660.725
918.626, 747.679
919.891, 772.617
921.156, 849.504
922.420, 891.349
923.685, 974.166
924.949, 948.931
926.213, 1022.664
927.477, 1103.359
928.740, 1018.002
930.004, 1123.603
931.267, 1133.156
932.530, 1162.658
933.793, 1303.106
935.056, 1299.503
936.318, 1311.848
937.581, 1445.140
938.843, 1493.381
940.104, 1586.569
941.366, 1628.707
942.628, 1722.792
943.889, 1754.832
945.150, 1770.821
946.411, 1896.758
947.672, 1916.645
948.932, 1934.495
950.193, 1909.308
951.453, 1964.239
952.713, 2114.825
953.973, 2080.539
955.232, 2132.218
956.491, 2255.866
957.751, 2177.485
959.010, 2232.058
960.268, 2289.584
961.527, 2311.061
962.785, 2259.489
964.044, 2334.866
965.302, 2330.195
966.559, 2396.475
967.817, 2411.706
969.075, 2433.839
970.332, 2532.023
971.589, 2438.108
972.846, 2506.146
974.102, 2430.136
975.359, 2534.078
976.615, 2575.973
977.871, 2494.819
979.127, 2526.620
980.383, 2501.374
981.638, 2620.080
982.893, 2477.739
984.149, 2691.353
985.404, 2564.920
986.658, 2622.442
987.913, 2580.917
989.167, 2608.347
990.421, 2525.731
991.675, 2625.070
992.929, 2586.365
994.183, 2527.616
995.436, 2500.821
996.689, 2520.982
997.942, 2382.101
999.195, 2395.175
1000.448, 2581.206
1001.700, 2508.873
1002.952, 2484.172
1004.204, 2452.905
1005.456, 2456.086
1006.708, 2482.984
1007.959, 2503.926
1009.210, 2554.270
1010.461, 2426.374
1011.712, 2500.448
1012.963, 2544.955
1014.213, 2493.437
1015.464, 2629.544
1016.714, 2555.509
1017.964, 2756.860
1019.214, 2745.696
1020.463, 2674.575
1021.712, 2910.685
1022.962, 2858.172
1024.210, 2960.270
1025.459, 3143.679
1026.708, 2989.166
1027.956, 3161.711
1029.204, 3289.204
1030.452, 3214.124
1031.700, 3307.128
1032.948, 3445.830
1034.195, 3460.210
1035.442, 3646.402
1036.689, 3576.477
1037.936, 3800.507
1039.183, 3875.049
1040.429, 4194.391
1041.676, 4253.551
1042.922, 4477.046
1044.168, 4618.244
1045.413, 4739.815
1046.659, 4863.383
1047.904, 5177.038
1049.149, 5090.432
1050.394, 5354.530
1051.639, 5478.599
1052.884, 5402.970
1054.128, 5498.125
1055.372, 5505.062
1056.616, 5622.199
1057.860, 5488.331
1059.104, 5535.946
1060.347, 5671.646
1061.590, 5847.868
1062.833, 5916.041
1064.076, 5997.760
1065.319, 6104.115
1066.561, 6053.320
1067.803, 6092.208
1069.046, 6045.900
1070.287, 6033.212
1071.529, 5917.966
1072.771, 5918.531
1074.012, 5713.367
1075.253, 5472.832
1076.494, 5150.758
1077.735, 4855.598
1078.975, 4612.421
1080.216, 4338.355
1081.456, 3978.145
1082.696, 3716.929
1083.936, 3515.707
1085.175, 3197.478
1086.415, 3097.242
1087.654, 2864.001
1088.893, 2625.755
1090.132, 2519.504
1091.371, 2321.247
1092.609, 2203.587
1093.847, 2204.932
1095.085, 2004.662
1096.323, 1951.388
1097.561, 1904.110
1098.799, 1844.828
1100.036, 1793.621
1101.273, 1737.255
1102.510, 1690.964
1103.747, 1667.670
1104.983, 1631.035
1106.220, 1670.076
1107.456, 1575.775
1108.692, 1580.472
1109.928, 1593.168
1111.163, 1489.862
1112.399, 1713.556
1113.634, 1522.248
1114.869, 1454.940
1116.104, 1527.631
1117.339, 1362.322
1118.573, 1419.013
1119.808, 1361.705
1121.042, 1324.398
1122.276, 1545.092
1123.509, 1546.787
1124.743, 1417.483
1125.976, 1246.182
1127.210, 1292.884
1128.443, 1271.587
1129.675, 1359.295
1130.908, 1197.005
1132.141, 1324.719
1133.373, 1350.437
1134.605, 1219.157
1135.837, 1280.883
1137.068, 1199.614
1138.300, 1151.350
1139.531, 1112.093
1140.762, 763.844
1141.993, 760.600
1143.224, 649.373
1144.455, 463.152
1145.685, 562.938
1146.915, 409.731
1148.145, 385.533
1149.375, 316.345
1150.605, 301.183
1151.834, 388.034
1153.063, 201.904
1154.292, 221.793
1155.521, 314.719
1156.750, 269.703
1157.978, 225.735
1159.207, 489.810
1160.435, 268.952
1161.663, 427.187
1162.891, 455.490
1164.118, 255.898
1165.345, 299.403
1166.573, 263.998
1167.800, 224.833
1169.026, 236.564
1170.253, 257.265
1171.480, 173.201
1172.706, 242.208
1173.932, 124.304
1175.158, 254.478
1176.383, 119.737
1177.609, 164.063
1178.834, 135.451
1180.059, 159.926
1181.284, 194.447
1182.509, 125.052
1183.734, 188.709
1184.958, 169.423
1186.182, 57.191
1187.406, 215.007
1188.630, 87.852
1189.854, 74.728
1191.077, 112.626
1192.301, 70.555
1193.524, 99.513
1194.747, 68.489
1195.969, 57.594
1197.192, 25.495
1198.414, 32.522
1199.636, 13.436
1200.858, 20.383
1202.080, 59.327
1203.302, 60.861
1204.523, 42.247
1205.744, 66.217
1206.966, 25.205
1208.186, 37.191
1209.407, 88.184
1210.628, 41.204
1211.848, 124.230
1213.068, 94.305
1214.288, 88.410
1215.508, 166.545
1216.727, 2.250
1217.947, 55.950
1219.166, 116.167
1220.385, 13.573
1221.604, 97.682
1222.822, 69.973
1224.041, 2.712
1225.259, 48.598
1226.477, 29.923
1227.695, 24.750
1228.913, 32.428
1230.130, 93.110
1231.348, 37.796
1232.565, 126.486
1233.782, 96.176
1234.999, 100.983
1236.215, 125.700
1237.432, 72.425
1238.648, 29.837
1239.864, 188.908
1241.080, 117.667
1242.296, 129.439
1243.511, 244.226
1244.726, 182.025
1245.942, 195.839
1247.156, 260.667
1248.371, 213.509
1249.586, 362.364
1250.800, 223.234
1252.014, 202.117
1253.228, 357.015
1254.442, 271.926
1255.656, 362.853
1256.869, 402.792
1258.083, 261.746
1259.296, 343.713
1260.509, 330.696
1261.722, 431.692
1262.934, 373.702
1264.147, 408.726
1265.359, 373.763
1266.571, 413.814
1267.783, 362.878
1268.994, 450.957
1270.206, 364.046
1271.417, 290.369
1272.628, 417.485
1273.839, 308.613
1275.050, 366.057
1276.260, 477.240
1277.471, 298.403
1278.681, 362.790
1279.891, 357.976
1281.101, 339.353
1282.310, 363.853
1283.520, 274.081
1284.729, 288.076
1285.938, 360.058
1287.147, 273.382
1288.356, 311.247
1289.564, 308.518
1290.773, 235.163
1291.981, 334.033
1293.189, 185.605
1294.397, 184.745
1295.604, 252.552
1296.812, 185.268
1298.019, 220.521
1299.226, 183.231
1300.433, 163.966
1301.640, 283.981
1302.846, 243.591
1304.053, 202.755
1305.259, 242.963
1306.465, 174.409
1307.671, 198.539
1308.876, 161.458
1310.082, 178.256
1311.287, 203.049
1312.492, 144.156
1313.697, 185.935
1314.902, 237.959
1316.106, 268.778
1317.310, 243.956
1318.515, 208.546
1319.719, 237.336
1320.922, 210.753
1322.126, 181.990
1323.329, 195.604
1324.533, 228.396
1325.736, 219.146
1326.939, 232.611
1328.141, 361.202
1329.344, 238.901
1330.546, 285.686
1331.748, 295.857
1332.950, 223.510
1334.152, 294.290
1335.354, 352.857
1336.555, 189.467
1337.757, 323.419
1338.958, 296.083
1340.159, 193.502
1341.359, 308.087
1342.560, 266.564
1343.760, 245.804
1344.960, 326.665
1346.160, 206.264
1347.360, 325.029
1348.560, 330.868
1349.759, 233.281
1350.959, 459.584
1352.158, 141.630
1353.357, 238.092
1354.555, 381.005
1355.754, 170.145
1356.952, 326.619
1358.151, 233.050
1359.349, 220.561
1360.546, 288.110
1361.744, 251.401
1362.941, 214.338
1364.139, 294.813
1365.336, 177.948
1366.533, 331.379
1367.730, 267.284
1368.926, 173.188
1370.123, 193.044
1371.319, 146.883
1372.515, 151.643
1373.711, 253.349
1374.906, 114.985
1376.102, 183.236
1377.297, 238.049
1378.492, 58.809
1379.687, 228.579
1380.882, 206.115
1382.077, 240.895
1383.271, 298.684
1384.465, 210.483
1385.659, 299.292
1386.853, 320.109
1388.047, 190.935
1389.240, 235.770
1390.434, 257.612
1391.627, 196.462
1392.820, 279.320
1394.013, 350.185
1395.205, 223.057
1396.398, 350.934
1397.590, 275.815
1398.782, 275.700
1399.974, 324.588
1401.166, 257.480
1402.357, 179.372
1403.549, 239.257
1404.740, 248.126
1405.931, 375.981
1407.122, 281.830
1408.313, 156.645
1409.503, 249.420
1410.693, 144.178
1411.883, 134.867
1413.073, 218.525
1414.263, 79.170
1415.453, 170.728
1416.642, 178.231
1417.831, 63.696
1419.020, 130.120
1420.209, 222.511
1421.398, 89.860
1422.587, 144.179
1423.775, 100.470
1424.963, 74.730
1426.151, 143.963
1427.339, 16.169
1428.526, 18.339
1429.714, 132.480
1430.901, 18.402
1432.088, 156.695
1433.275, 66.791
1434.462, 36.935
1435.648, 92.138
1436.835, 20.388
1438.021, 46.273
1439.207, 70.220
1440.393, 4.099
1441.579, 81.705
1442.764, 80.661
1443.949, 61.230
1445.135, 121.983
1446.320, 2.285
1447.504, 38.657
1448.689, 220.121
1449.873, 51.406
1451.058, 69.065
1452.242, 111.473
1453.426, 16.979
1454.609, 69.579
1455.793, 133.146
1456.976, 17.278
1458.159, 134.308
1459.342, 76.904
1460.525, 46.510
1461.708, 157.127
1462.890, 21.757
1464.073, 72.402
1465.255, 288.065
1466.437, 48.752
1467.619, 191.866
1468.800, 235.753
1469.982, 83.426
1471.163, 217.611
1472.344, 201.035
1473.525, 120.514
1474.706, 256.800
1475.886, 196.166
1477.066, 79.716
1478.247, 327.616
1479.427, 130.903
1480.607, 190.750
1481.786, 306.889
1482.966, 162.283
1484.145, 185.807
1485.324, 211.367
1486.503, 177.834
1487.682, 191.254
1488.860, 209.363
1490.039, 111.945
1491.217, 270.896
1492.395, 138.451
1493.573, 175.890
1494.751, 247.745
1495.928, 116.742
1497.106, 221.330
1498.283, 165.667
1499.460, 70.258
1500.637, 105.379
1501.814, 209.548
1502.990, 113.867
1504.166, 196.126
1505.342, 120.279
1506.518, 187.421
1507.694, 204.588
1508.870, 101.151
1510.045, 145.124
1511.221, 131.819
1512.396, 4.550
1513.571, 202.338
1514.745, 169.006
1515.920, 13.596
1517.094, 25.283
1518.269, 0.000
##END=



