##NAMES=Fluorophlogopite
##RRUFFID=R040042
##IDEAL CHEMISTRY=KMg_3_(Si_3_Al)O_10_F_2_
##LOCALITY=Franklin, Sussex County, New Jersey, USA
##OWNER=RRUFF
##SOURCE=University of Arizona Mineral Museum
##DESCRIPTION=Brown flattened hexagonal prism, polytype 1M
##STATUS=The identification of this mineral has been confirmed by X-ray diffraction and chemical analysis
##URL=rruff.info/R040042
##MEASURED CHEMISTRY=(K_0.92_Na_0.08_)_Σ=1_(Mg_2.95_Fe_0.05_)_Σ=3_(Si_3.00_Al_1.00_)O_10_(F_1.40_(OH)_0.60_)_Σ=2_; trace amounts of Ti; OH estimated by charge balance
##PIN_ID=L00540
##ORIENTATION=Laser parallel to -a* (-1 0 0). Fiducial mark perpendicular to laser is parallel to -b [0 -1 0]
128.8070, 87809.00
130.0370, 88250.68
131.2670, 88548.00
132.4970, 88934.00
133.7260, 89001.00
134.9550, 88854.00
136.1850, 89093.00
137.4140, 89474.00
138.6420, 89306.00
139.8710, 90117.00
141.1000, 90262.00
142.3280, 90563.00
143.5560, 91247.00
144.7840, 91345.31
146.0120, 91387.00
147.2400, 91741.00
148.4680, 92113.00
149.6950, 92026.00
150.9220, 92375.00
152.1500, 92888.00
153.3770, 92809.00
154.6030, 93779.00
155.8300, 94190.00
157.0570, 94413.00
158.2830, 94696.00
159.5090, 95217.00
160.7350, 95885.00
161.9610, 96047.00
163.1870, 97346.00
164.4130, 97541.00
165.6380, 98429.00
166.8630, 98910.00
168.0880, 99778.00
169.3130, 100979.0
170.5380, 102150.0
171.7630, 103092.0
172.9870, 104542.0
174.2120, 106204.0
175.4360, 107713.0
176.6600, 109813.0
177.8840, 112181.0
179.1080, 116080.0
180.3310, 119011.0
181.5550, 123154.0
182.7780, 129144.0
184.0010, 136712.0
185.2240, 144749.0
186.4470, 155885.0
187.6700, 169318.0
188.8920, 183801.0
190.1150, 201307.0
191.3370, 220316.0
192.5590, 243061.0
193.7810, 267405.0
195.0020, 290576.0
196.2240, 311728.0
197.4450, 324078.0
198.6670, 327929.0
199.8880, 317962.0
201.1090, 297431.0
202.3300, 270458.0
203.5500, 241032.0
204.7710, 212535.0
205.9910, 188778.0
207.2110, 169552.0
208.4310, 155419.0
209.6510, 144960.0
210.8710, 136095.0
212.0910, 130666.0
213.3100, 125495.0
214.5290, 122346.0
215.7480, 119164.0
216.9670, 117356.0
218.1860, 115324.0
219.4050, 113916.0
220.6230, 112545.0
221.8420, 111353.0
223.0600, 110701.0
224.2780, 109807.0
225.4960, 108883.0
226.7130, 109013.8
227.9310, 108973.7
229.1480, 108772.4
230.3660, 107925.8
231.5830, 107912.4
232.8000, 107565.2
234.0160, 107204.5
235.2330, 107308.3
236.4490, 106242.2
237.6660, 106756.2
238.8820, 107099.5
240.0980, 107281.3
241.3140, 106818.0
242.5300, 107187.7
243.7450, 107223.5
244.9600, 107245.6
246.1760, 107732.5
247.3910, 107362.9
248.6060, 107842.4
249.8200, 107982.9
251.0350, 108278.5
252.2500, 108238.3
253.4640, 108857.0
254.6780, 109148.0
255.8920, 109795.0
257.1060, 109991.0
258.3190, 110660.0
259.5330, 111090.0
260.7460, 111934.0
261.9600, 112746.0
263.1730, 114032.0
264.3850, 115057.0
265.5980, 116470.0
266.8110, 118623.0
268.0230, 119925.0
269.2360, 122945.0
270.4480, 125866.0
271.6600, 129600.0
272.8710, 133133.0
274.0830, 137547.0
275.2950, 141750.0
276.5060, 146890.0
277.7170, 151414.0
278.9280, 155159.0
280.1390, 157985.0
281.3500, 158014.0
282.5600, 155463.0
283.7710, 150928.0
284.9810, 145745.0
286.1910, 139578.0
287.4010, 134461.0
288.6110, 131415.0
289.8200, 128184.0
291.0300, 125984.0
292.2390, 123979.0
293.4480, 121880.0
294.6570, 121781.0
295.8660, 121122.0
297.0750, 120652.0
298.2830, 120738.0
299.4920, 120995.0
300.7000, 121621.0
301.9080, 122442.0
303.1160, 123498.0
304.3240, 124152.0
305.5310, 125715.0
306.7390, 127421.0
307.9460, 129733.0
309.1530, 131978.0
310.3600, 133760.0
311.5670, 135871.0
312.7740, 138682.0
313.9800, 140977.0
315.1870, 142359.0
316.3930, 144093.0
317.5990, 145478.0
318.8050, 146182.0
320.0110, 146576.0
321.2160, 147626.0
322.4220, 148400.0
323.6270, 147130.0
324.8320, 146965.0
326.0370, 145836.0
327.2420, 144806.0
328.4460, 142540.0
329.6510, 141073.0
330.8550, 138427.0
332.0590, 136511.0
333.2630, 134493.0
334.4670, 132544.2
335.6710, 130441.0
336.8740, 129206.0
338.0780, 128002.0
339.2810, 126714.0
340.4840, 125930.0
341.6870, 124698.0
342.8900, 124929.0
344.0920, 123851.0
345.2950, 123522.0
346.4970, 123099.0
347.6990, 122628.0
348.9010, 122396.0
350.1030, 122222.0
351.3050, 122161.0
352.5060, 122456.0
353.7080, 122485.0
354.9090, 122056.0
356.1100, 122617.0
357.3110, 122505.0
358.5110, 122401.0
359.7120, 122859.0
360.9120, 122737.0
362.1130, 122572.0
363.3130, 123239.0
364.5130, 123159.0
365.7120, 123916.0
366.9120, 122964.0
368.1120, 123430.0
369.3110, 123524.0
370.5100, 123555.0
371.7090, 123584.0
372.9080, 124026.0
374.1070, 123747.0
375.3050, 124316.0
376.5040, 124017.0
377.7020, 123542.0
378.9000, 123376.0
380.0980, 123398.0
381.2950, 123956.0
382.4930, 123482.0
383.6910, 123828.0
384.8880, 123833.0
386.0850, 123524.0
387.2820, 124026.0
388.4790, 123808.0
389.6750, 123709.0
390.8720, 123352.0
392.0680, 123905.0
393.2640, 124083.0
394.4600, 123806.0
395.6560, 124607.0
396.8520, 124045.0
398.0480, 124962.0
399.2430, 124500.0
400.4380, 124996.0
401.6330, 125043.0
402.8280, 125315.0
404.0230, 125165.0
405.2180, 125027.0
406.4120, 125007.0
407.6060, 125651.0
408.8000, 124765.0
409.9940, 125804.0
411.1880, 125768.0
412.3820, 125802.0
413.5750, 125446.0
414.7690, 125921.0
415.9620, 125454.0
417.1550, 125654.0
418.3480, 125754.0
419.5410, 125937.0
420.7330, 126102.0
421.9260, 126287.6
423.1180, 126470.0
424.3100, 126647.0
425.5020, 127038.0
426.6940, 127116.0
427.8850, 126966.0
429.0770, 127581.0
430.2680, 127403.0
431.4590, 127709.0
432.6500, 127112.0
433.8410, 127607.0
435.0320, 127995.0
436.2220, 127749.0
437.4130, 128127.0
438.6030, 128040.0
439.7930, 128291.6
440.9830, 128434.0
442.1730, 128808.0
443.3620, 129272.0
444.5520, 129489.0
445.7410, 129468.0
446.9300, 129858.0
448.1190, 129737.0
449.3080, 129652.0
450.4960, 130045.0
451.6850, 129604.0
452.8730, 130331.0
454.0610, 130333.0
455.2490, 130657.0
456.4370, 130342.0
457.6250, 130756.0
458.8130, 130390.0
460.0000, 131364.0
461.1870, 131135.0
462.3740, 131393.0
463.5610, 131509.0
464.7480, 131600.0
465.9340, 131681.0
467.1210, 132019.0
468.3070, 132228.0
469.4930, 132011.0
470.6790, 132444.0
471.8650, 131697.0
473.0510, 132216.0
474.2360, 131989.0
475.4210, 132063.0
476.6070, 131868.2
477.7920, 132522.0
478.9770, 132959.6
480.1610, 133192.6
481.3460, 132608.6
482.5300, 133079.6
483.7140, 133127.7
484.8980, 133158.5
486.0820, 133778.0
487.2660, 133312.7
488.4500, 133922.9
489.6330, 134103.6
490.8160, 134480.8
492.0000, 134432.7
493.1830, 134515.8
494.3650, 135024.4
495.5480, 135297.5
496.7300, 135200.2
497.9130, 135589.9
499.0950, 135109.4
500.2770, 135392.4
501.4590, 136004.8
502.6410, 135928.8
503.8220, 135621.0
505.0030, 135386.0
506.1850, 135947.0
507.3660, 136070.0
508.5470, 136139.0
509.7270, 136381.0
510.9080, 136943.0
512.0880, 136939.0
513.2690, 137553.0
514.4490, 136910.0
515.6290, 137574.0
516.8090, 137151.0
517.9880, 137883.0
519.1680, 137626.0
520.3470, 138475.0
521.5260, 137863.0
522.7050, 138034.0
523.8840, 138161.0
525.0630, 138247.0
526.2410, 138383.5
527.4200, 138562.0
528.5980, 138651.0
529.7760, 138829.0
530.9540, 139079.0
532.1320, 138866.0
533.3090, 139445.0
534.4870, 139709.0
535.6640, 139040.0
536.8410, 139684.0
538.0180, 139997.0
539.1950, 139988.0
540.3710, 139951.0
541.5480, 140790.0
542.7240, 140833.0
543.9000, 141031.0
545.0760, 140926.0
546.2520, 141045.0
547.4280, 141179.0
548.6040, 140975.0
549.7790, 141834.0
550.9540, 141588.0
552.1290, 142107.0
553.3040, 142271.0
554.4790, 142508.0
555.6530, 142922.0
556.8280, 142648.0
558.0020, 143393.0
559.1760, 143275.0
560.3500, 143876.0
561.5240, 143442.0
562.6980, 144817.0
563.8710, 143447.0
565.0440, 144138.0
566.2170, 143725.0
567.3900, 143988.0
568.5630, 144578.0
569.7360, 144837.0
570.9090, 145217.0
572.0810, 145082.0
573.2530, 144860.0
574.4250, 145218.0
575.5970, 145557.0
576.7690, 145841.0
577.9400, 145967.8
579.1120, 146065.0
580.2830, 146108.0
581.4540, 146179.0
582.6250, 146235.0
583.7960, 146503.0
584.9660, 146689.0
586.1370, 146538.0
587.3070, 146941.7
588.4770, 147123.0
589.6470, 147499.0
590.8170, 147805.0
591.9870, 148083.0
593.1560, 147901.0
594.3260, 148459.0
595.4950, 148592.0
596.6640, 148819.0
597.8330, 149353.0
599.0010, 149440.0
600.1700, 149769.0
601.3380, 150058.0
602.5070, 150133.0
603.6750, 150487.0
604.8430, 150726.0
606.0100, 150598.0
607.1780, 151736.0
608.3450, 151438.0
609.5130, 152580.0
610.6800, 153100.0
611.8470, 153545.0
613.0140, 154405.8
614.1800, 154126.0
615.3470, 155902.0
616.5130, 156009.0
617.6790, 157049.0
618.8450, 158222.0
620.0110, 158296.0
621.1770, 160286.0
622.3420, 160812.0
623.5080, 161827.0
624.6730, 162066.0
625.8380, 164076.0
627.0030, 164499.0
628.1680, 166289.0
629.3320, 167922.0
630.4970, 169553.0
631.6610, 171091.0
632.8250, 172214.0
633.9890, 173974.0
635.1530, 175113.0
636.3160, 177286.0
637.4800, 177518.0
638.6430, 178685.0
639.8060, 179379.0
640.9690, 179371.0
642.1320, 179634.0
643.2950, 179262.0
644.4570, 178954.0
645.6200, 179207.0
646.7820, 179111.0
647.9440, 178513.0
649.1060, 178804.0
650.2670, 179411.0
651.4290, 178915.0
652.5900, 179096.0
653.7520, 179489.0
654.9130, 180443.0
656.0740, 180129.0
657.2340, 181582.0
658.3950, 181754.0
659.5550, 182965.0
660.7160, 184190.0
661.8760, 185564.0
663.0360, 187209.0
664.1960, 189144.5
665.3550, 190159.0
666.5150, 193541.0
667.6740, 195807.0
668.8330, 198193.0
669.9920, 202393.0
671.1510, 206188.0
672.3100, 210891.0
673.4680, 217123.0
674.6270, 222384.0
675.7850, 229972.0
676.9430, 236510.0
678.1010, 244010.0
679.2590, 249775.0
680.4160, 256385.0
681.5740, 261006.0
682.7310, 264042.0
683.8880, 264426.0
685.0450, 263537.0
686.2020, 261289.0
687.3580, 255236.0
688.5150, 250642.0
689.6710, 243440.0
690.8270, 237448.0
691.9830, 229594.0
693.1390, 222180.0
694.2950, 216130.0
695.4500, 209266.0
696.6050, 204093.0
697.7610, 198096.0
698.9160, 193466.2
700.0710, 189140.0
701.2250, 185482.0
702.3800, 182141.0
703.5340, 179558.0
704.6880, 177708.0
705.8420, 175999.0
706.9960, 174633.0
708.1500, 173430.2
709.3040, 172511.0
710.4570, 171763.0
711.6100, 171472.0
712.7640, 171257.0
713.9160, 170586.0
715.0690, 170313.0
716.2220, 169534.0
717.3740, 169393.0
718.5270, 168934.0
719.6790, 168795.0
720.8310, 168695.0
721.9830, 168591.0
723.1340, 168647.0
724.2860, 168363.0
725.4370, 168396.0
726.5880, 168849.0
727.7390, 168539.0
728.8900, 167861.0
730.0410, 167883.0
731.1910, 168703.0
732.3420, 168092.0
733.4920, 168478.0
734.6420, 169044.0
735.7920, 169224.0
736.9420, 168070.0
738.0910, 168726.0
739.2410, 169592.0
740.3900, 168505.0
741.5390, 169010.0
742.6880, 169496.0
743.8370, 169095.0
744.9860, 169639.0
746.1340, 169459.0
747.2820, 169475.0
748.4310, 169647.0
749.5790, 169935.0
750.7260, 169915.0
751.8740, 170489.0
753.0220, 169938.0
754.1690, 170918.0
755.3160, 170411.0
756.4630, 170341.0
757.6100, 170998.0
758.7570, 170457.0
759.9030, 171290.0
761.0500, 170703.0
762.1960, 171446.0
763.3420, 171026.0
764.4880, 171444.0
765.6340, 171382.0
766.7790, 172281.0
767.9250, 171542.0
769.0700, 171955.0
770.2150, 172946.0
771.3600, 172757.0
772.5050, 173071.0
773.6490, 172798.0
774.7940, 173429.0
775.9380, 173156.0
777.0820, 173590.0
778.2260, 173843.0
779.3700, 173104.0
780.5140, 174289.0
781.6570, 174096.0
782.8010, 174549.0
783.9440, 174002.0
785.0870, 174642.0
786.2300, 174718.0
787.3720, 174752.0
788.5150, 175119.0
789.6570, 175586.0
790.8000, 175356.0
791.9420, 175708.0
793.0840, 175409.0
794.2250, 176448.0
795.3670, 177621.0
796.5080, 176683.0
797.6500, 176665.0
798.7910, 177115.0
799.9320, 178170.0
801.0720, 177922.0
802.2130, 177428.0
803.3530, 176849.0
804.4940, 178243.0
805.6340, 177997.0
806.7740, 178561.2
807.9140, 178143.0
809.0530, 179348.0
810.1930, 179007.0
811.3320, 178829.0
812.4710, 178838.0
813.6100, 178319.0
814.7490, 179393.0
815.8880, 178947.0
817.0270, 179725.0
818.1650, 178857.0
819.3030, 179653.0
820.4410, 180070.0
821.5790, 179764.0
822.7170, 180224.0
823.8540, 179974.0
824.9920, 180642.0
826.1290, 180533.0
827.2660, 180316.0
828.4030, 180795.0
829.5400, 180064.0
830.6760, 180452.0
831.8130, 180550.0
832.9490, 181445.0
834.0850, 181613.0
835.2210, 181051.0
836.3570, 182322.0
837.4930, 181729.0
838.6280, 182441.0
839.7640, 182274.0
840.8990, 182751.0
842.0340, 181977.0
843.1690, 183357.0
844.3030, 183366.0
845.4380, 182782.0
846.5720, 183411.0
847.7060, 183082.0
848.8400, 183894.0
849.9740, 183915.0
851.1080, 183470.0
852.2420, 184403.0
853.3750, 184170.0
854.5080, 184951.0
855.6410, 184797.0
856.7740, 184800.0
857.9070, 184461.0
859.0400, 185248.0
860.1720, 185737.0
861.3040, 185665.0
862.4360, 185499.0
863.5680, 185615.0
864.7000, 185963.0
865.8320, 186100.0
866.9630, 186264.0
868.0950, 186465.3
869.2260, 186358.0
870.3570, 186743.0
871.4880, 186498.0
872.6180, 186559.0
873.7490, 187156.0
874.8790, 187133.0
876.0090, 187286.0
877.1390, 188247.0
878.2690, 188000.0
879.3990, 187519.0
880.5280, 188308.0
881.6580, 187920.0
882.7870, 188913.0
883.9160, 188629.0
885.0450, 188998.4
886.1740, 189420.0
887.3020, 189681.0
888.4310, 189807.0
889.5590, 190405.0
890.6870, 190965.0
891.8150, 190930.0
892.9430, 191292.0
894.0700, 191507.0
895.1980, 192075.0
896.3250, 192481.0
897.4520, 192023.0
898.5790, 192805.0
899.7060, 192472.0
900.8330, 192858.0
901.9590, 192851.0
903.0850, 193402.0
904.2120, 193195.0
905.3380, 193544.0
906.4630, 194011.0
907.5890, 194148.0
908.7150, 194330.3
909.8400, 194825.0
910.9650, 194437.0
912.0900, 194390.0
913.2150, 194390.0
914.3400, 194634.8
915.4640, 194929.0
916.5890, 195647.0
917.7130, 195442.0
918.8370, 196295.0
919.9610, 195810.0
921.0850, 196150.0
922.2080, 196579.0
923.3320, 196315.0
924.4550, 197835.0
925.5780, 197004.0
926.7010, 196892.0
927.8240, 198017.0
928.9460, 197295.0
930.0690, 198140.0
931.1910, 197710.0
932.3130, 198406.0
933.4350, 198095.0
934.5570, 198480.0
935.6790, 198689.0
936.8000, 198648.0
937.9220, 199243.0
939.0430, 199320.0
940.1640, 199066.0
941.2850, 199200.0
942.4050, 200190.0
943.5260, 200017.0
944.6460, 199649.0
945.7660, 200564.0
946.8860, 199931.0
948.0060, 201079.0
949.1260, 201117.0
950.2460, 201197.0
951.3650, 201441.0
952.4840, 201706.0
953.6030, 201630.0
954.7220, 201811.0
955.8410, 201768.0
956.9590, 202618.0
958.0780, 202541.0
959.1960, 203408.0
960.3140, 202883.0
961.4320, 203716.0
962.5500, 203640.0
963.6680, 203773.0
964.7850, 204078.0
965.9020, 204192.0
967.0190, 204471.7
968.1360, 204608.0
969.2530, 205063.0
970.3700, 205228.0
971.4860, 205654.0
972.6030, 206063.0
973.7190, 205151.0
974.8350, 206465.0
975.9510, 206110.0
977.0660, 207233.0
978.1820, 206761.0
979.2970, 207111.0
980.4130, 207628.0
981.5280, 207627.0
982.6420, 207901.0
983.7570, 208120.0
984.8720, 209026.0
985.9860, 209126.0
987.1000, 208844.0
988.2140, 210016.0
989.3280, 209781.0
990.4420, 209686.0
991.5560, 210302.0
992.6690, 210334.0
993.7820, 210843.0
994.8950, 210566.0
996.0080, 211518.0
997.1210, 211073.0
998.2340, 211503.0
999.3460, 211301.2
1000.458, 212327.0
1001.571, 213137.2
1002.683, 213742.4
1003.794, 213530.0
1004.906, 214373.1
1006.017, 214793.0
1007.129, 215196.0
1008.240, 216187.2
1009.351, 216093.6
1010.462, 217075.5
1011.572, 217627.6
1012.683, 218376.6
1013.793, 218699.8
1014.904, 219154.8
1016.014, 220034.8
1017.123, 220678.8
1018.233, 220945.0
1019.343, 221727.0
1020.452, 222611.0
1021.561, 222981.0
1022.670, 224661.0
1023.779, 226120.0
1024.888, 229129.0
1025.997, 231924.0
1027.105, 234374.0
1028.213, 239017.0
1029.321, 243179.0
1030.429, 247808.0
1031.537, 253355.0
1032.645, 258854.0
1033.752, 263626.0
1034.859, 267475.0
1035.966, 269827.0
1037.073, 270290.0
1038.180, 270126.0
1039.287, 266516.0
1040.393, 263185.0
1041.500, 259002.0
1042.606, 253890.0
1043.712, 250316.0
1044.818, 245693.0
1045.923, 243459.0
1047.029, 240094.0
1048.134, 238160.0
1049.239, 235659.0
1050.344, 235349.0
1051.449, 233791.0
1052.554, 232269.0
1053.658, 231747.0
1054.763, 230160.0
1055.867, 230187.0
1056.971, 229336.0
1058.075, 228344.0
1059.179, 227390.0
1060.282, 227026.0
1061.385, 227439.0
1062.489, 226543.0
1063.592, 226628.0
1064.695, 226079.0
1065.797, 225691.0
1066.900, 226311.0
1068.002, 225027.0
1069.105, 225843.0
1070.207, 225247.0
1071.309, 225202.0
1072.411, 225493.0
1073.512, 225359.9
1074.614, 225272.0
1075.715, 224851.3
1076.816, 226068.2
1077.917, 226819.4
1079.018, 227129.9
1080.118, 225679.5
1081.219, 226502.9
1082.319, 226414.9
1083.419, 226289.6
1084.519, 227432.8
1085.619, 226238.6
1086.719, 227361.7
1087.818, 227559.6
1088.918, 228181.0
1090.017, 227885.5
1091.116, 227873.1
1092.215, 228777.9
1093.314, 229174.8
1094.412, 228773.7
1095.510, 229421.7
1096.609, 228195.3
1097.707, 228613.7
1098.805, 229741.9
1099.902, 229386.7
1101.000, 230051.5
1102.097, 228691.0
1103.195, 229469.0
1104.292, 228978.0
1105.389, 229053.0
1106.485, 229584.0
1107.582, 229725.0
1108.678, 229959.0
1109.775, 230458.0
1110.871, 230132.0
1111.967, 230523.0
1113.062, 230509.0
1114.158, 231184.0
1115.254, 230409.0
1116.349, 231466.0
1117.444, 231833.0
1118.539, 230291.0
1119.634, 230631.0
1120.728, 231546.0
1121.823, 231820.0
1122.917, 230991.0
1124.011, 231867.0
1125.105, 231939.0
1126.199, 232231.0
1127.293, 232763.0
1128.386, 233157.0
1129.480, 233423.0
1130.573, 233068.0
1131.666, 233484.0
1132.759, 233725.0
1133.851, 233131.0
1134.944, 234474.0
1136.036, 234234.0
1137.129, 234047.0
1138.221, 234121.0
1139.313, 234890.0
1140.404, 234295.0
1141.496, 234708.0
1142.587, 234523.0
1143.678, 235727.0
1144.770, 235770.0
1145.860, 236025.0
1146.951, 236039.0
1148.042, 236209.0
1149.132, 235909.0
1150.223, 236137.5
1151.313, 236762.0
1152.403, 236428.0
1153.492, 236680.0
1154.582, 236970.3
1155.671, 237944.0
1156.761, 237980.0
1157.850, 237876.0
1158.939, 238377.0
1160.028, 237974.0
1161.116, 238965.0
1162.205, 239216.0
1163.293, 239071.0
1164.381, 239293.0
1165.469, 239687.0
1166.557, 240359.0
1167.645, 240211.0
1168.732, 240742.0
1169.820, 240734.0
1170.907, 240879.0
1171.994, 240915.0
1173.081, 241289.0
1174.167, 241522.0
1175.254, 241756.0
1176.340, 242293.0
1177.426, 242644.0
1178.512, 241945.0
1179.598, 242816.0
1180.684, 242318.0
1181.770, 242945.0
1182.855, 243399.0
1183.940, 242569.0
1185.025, 243762.0
1186.110, 243375.0
1187.195, 243920.0
1188.280, 244342.0
1189.364, 244289.0
1190.448, 245038.0
1191.532, 244672.0
1192.616, 244859.0
1193.700, 244667.0
1194.784, 245791.0
1195.867, 246261.0
1196.950, 245545.0
1198.034, 245846.0
1199.117, 245666.0
1200.199, 246445.0
1201.282, 246451.0
1202.364, 246991.6
1203.447, 247037.0
1204.529, 248019.0
1205.611, 248120.0
1206.693, 248466.0
1207.774, 248913.6
1208.856, 248681.0
1209.937, 249152.0
1211.018, 249157.0
1212.099, 248527.0
1213.180, 249335.0
1214.261, 249199.0
1215.341, 249887.0
1216.422, 250446.0
1217.502, 250209.0
1218.582, 250056.0
1219.662, 249766.0
1220.742, 250271.0
1221.821, 250957.0
1222.900, 250368.0
1223.980, 251612.0
1225.059, 250842.0
1226.138, 251274.0
1227.216, 252042.0
1228.295, 251980.0
1229.373, 252194.0
1230.452, 252760.0
1231.530, 252205.0
1232.608, 252812.0
1233.685, 253537.0
1234.763, 253418.0
1235.840, 254138.1
1236.918, 253221.0
1237.995, 254959.0
1239.072, 255799.0
1240.149, 256088.0
1241.225, 254565.0
1242.302, 255603.0
1243.378, 255447.0
1244.454, 255505.0
1245.530, 256008.0
1246.606, 256319.0
1247.681, 256469.0
1248.757, 256744.0
1249.832, 257250.0
1250.907, 257730.0
1251.982, 257658.3
1253.057, 257431.0
1254.132, 257538.0
1255.206, 257810.0
1256.281, 257853.0
1257.355, 257795.0
1258.429, 258749.0
1259.503, 259154.0
1260.576, 258613.0
1261.650, 258850.0
1262.723, 258492.0
1263.797, 259024.0
1264.870, 259260.0
1265.942, 259625.0
1267.015, 259993.6
1268.088, 260447.0
1269.160, 260590.0
1270.232, 260923.0
1271.304, 261065.0
1272.376, 261454.0
1273.448, 261849.0
1274.520, 261997.5
1275.591, 261999.0
1276.662, 262216.0
1277.733, 262317.0
1278.804, 262017.0
1279.875, 262262.0
1280.946, 262926.0
1282.016, 263487.0
1283.086, 262866.0
1284.156, 264385.0
1285.226, 264281.0
1286.296, 263789.0
1287.366, 265327.0
1288.435, 265011.0
1289.505, 264740.0
1290.574, 264308.0
1291.643, 264556.4
1292.711, 264688.8
1293.780, 265111.0
1294.849, 265762.0
1295.917, 266104.0
1296.985, 267212.0
1298.053, 266867.0
1299.121, 266082.0
1300.189, 266981.0
1301.256, 266826.0
1302.323, 266697.0
1303.391, 268562.0
1304.458, 267477.0
1305.524, 268601.0
1306.591, 268414.0
1307.658, 269057.0
1308.724, 269546.0
1309.790, 269160.0
1310.856, 270457.0
1311.922, 269376.0
1312.988, 270422.0
1314.053, 270437.0
1315.119, 270861.0
1316.184, 271751.0
1317.249, 270762.0
1318.314, 271607.0
1319.379, 271254.0
1320.443, 271067.0
1321.508, 271903.0
1322.572, 271862.0
1323.636, 272277.0
1324.700, 271917.0
1325.764, 272440.0
1326.827, 272988.0
1327.891, 272862.0
1328.954, 273222.2
1330.017, 273236.0
1331.080, 273684.0
1332.143, 273561.0
1333.205, 274353.0
1334.268, 274863.0
1335.330, 275111.3
1336.392, 275171.0
1337.454, 275832.0
1338.516, 275658.0
1339.578, 275886.0
1340.639, 275302.0
1341.701, 275810.0
1342.762, 276140.0
1343.823, 276320.0
1344.883, 276970.0
1345.944, 276531.0
1347.005, 277600.0
1348.065, 277042.0
1349.125, 277221.0
1350.185, 278881.0
1351.245, 277648.0
1352.305, 279012.0
1353.364, 277988.0
1354.424, 278542.0
1355.483, 279810.0
1356.542, 278730.0
1357.601, 279613.0
1358.659, 279737.0
1359.718, 279963.0
1360.776, 280220.0
1361.834, 280112.0
1362.893, 281143.0
1363.950, 281020.0
1365.008, 281706.0
1366.066, 281093.0
1367.123, 281028.0
1368.180, 281504.0
1369.237, 282278.0
1370.294, 281524.0
1371.351, 282742.0
1372.408, 281674.0
1373.464, 282967.0
1374.520, 282309.0
1375.576, 282542.0
1376.632, 283501.0
1377.688, 282898.0
1378.744, 283444.0
1379.799, 283273.0
1380.854, 284279.0
1381.910, 284360.0
1382.965, 283473.0
1384.019, 285087.0
1385.074, 284982.0
1386.128, 285527.0
1387.183, 285877.0
1388.237, 284991.0
1389.291, 285894.0
1390.345, 285378.0
1391.398, 286648.0
1392.452, 286698.0
1393.505, 286584.0
1394.558, 287062.0
1395.611, 287074.7
1396.664, 287267.8
1397.717, 287650.0
1398.769, 287483.0
1399.822, 288144.0
1400.874, 287972.0
1401.926, 288528.0
1402.978, 289129.0
1404.029, 288573.0
1405.081, 288639.0
1406.132, 288364.0
1407.183, 289450.0
1408.234, 289269.0
1409.285, 289351.0
1410.336, 290561.0
1411.387, 289511.0
1412.437, 290871.0
1413.487, 290537.0
1414.537, 290723.0
1415.587, 291915.0
1416.637, 290835.0
1417.686, 292015.0
1418.736, 291771.0
1419.785, 291257.0
1420.834, 292403.0
1421.883, 292465.0
1422.932, 293165.0
1423.980, 293866.0
1425.029, 293916.0
1426.077, 294090.0
1427.125, 293413.0
1428.173, 294394.0
1429.221, 293797.0
1430.269, 293748.0
1431.316, 295233.0
1432.363, 294449.0
1433.410, 295656.0
1434.457, 295492.0
1435.504, 294866.0
1436.551, 296817.0
1437.597, 295697.0
1438.644, 296537.0
1439.690, 296033.0
1440.736, 296302.0
1441.781, 297356.0
1442.827, 296539.7
1443.873, 297291.1
1444.918, 297826.1
1445.963, 298156.7
1447.008, 297670.1
1448.053, 298238.6
1449.098, 298384.3
1450.142, 298512.4
1451.186, 299229.2
1452.231, 298861.4
1453.275, 299568.9
1454.319, 299847.0
1455.362, 300321.4
1456.406, 300370.6
1457.449, 300550.9
1458.492, 301156.8
1459.535, 301527.2
1460.578, 301527.1
1461.621, 302014.0
1462.663, 301630.6
1463.706, 302011.0
1464.748, 302720.4
1465.790, 302741.5
1466.832, 303235.9
1467.874, 303550.1
1468.915, 303044.8
1469.957, 303964.4
1470.998, 302516.0
1472.039, 302606.0
1473.080, 303921.0
1474.121, 303886.0
1475.161, 304258.0
1476.202, 304082.0
1477.242, 303580.0
1478.282, 305709.0
1479.322, 304020.0
1480.362, 305234.0
1481.401, 305229.0
1482.441, 305551.0
1483.480, 306260.0
1484.519, 305623.0
1485.558, 305542.0
1486.597, 306793.0
1487.636, 305691.0
1488.674, 307693.0
1489.712, 308324.0
1490.751, 306766.0
1491.788, 307837.0
1492.826, 307077.0
1493.864, 307919.0
1494.901, 307704.0
1495.939, 308122.0
1496.976, 308641.0
1498.013, 308466.0
1499.050, 308904.0
1500.086, 308724.0
1501.123, 309874.0
1502.159, 310354.0
1503.195, 310353.0
1504.231, 311088.0
1505.267, 310569.0
1506.303, 311448.0
1507.338, 311396.0
1508.374, 311006.0
1509.409, 311210.0
1510.444, 311942.0
1511.479, 312131.0
1512.514, 312289.0
1513.548, 311973.0
1514.583, 313362.0
1515.617, 312691.0
1516.651, 313492.0
1517.685, 313515.5
1518.718, 313855.0
1519.752, 313759.0
1520.785, 314423.0
1521.819, 315255.0
1522.852, 315768.0
1523.885, 314522.0
1524.917, 315392.0
1525.950, 314941.0
1526.982, 314820.0
1528.015, 315538.0
1529.047, 315641.0
1530.079, 316906.0
1531.110, 316262.0
1532.142, 316635.0
1533.173, 317361.0
1534.205, 316947.0
1535.236, 318003.0
1536.267, 318061.1
1537.298, 319480.0
1538.328, 319004.0
1539.359, 318980.0
1540.389, 320237.0
1541.419, 318750.0
1542.449, 319511.0
1543.479, 319332.4
1544.508, 319450.0
1545.538, 319384.0
1546.567, 318746.0
1547.596, 319246.0
1548.625, 321165.0
1549.654, 319583.0
1550.683, 321540.0
1551.711, 321176.0
1552.740, 320943.0
1553.768, 321566.0
1554.796, 320529.0
1555.824, 321951.0
1556.851, 321517.0
1557.879, 320856.0
1558.906, 321943.0
1559.933, 321905.0
1560.960, 322475.0
1561.987, 322493.0
1563.014, 322346.0
1564.041, 323146.0
1565.067, 322627.0
1566.093, 322714.0
1567.119, 322951.0
1568.145, 322851.0
1569.171, 322127.0
1570.196, 323201.0
1571.222, 324401.0
1572.247, 324544.0
1573.272, 323898.0
1574.297, 325161.0
1575.322, 325515.0
1576.346, 325246.0
1577.371, 326193.0
1578.395, 325244.0
1579.419, 326834.0
1580.443, 325834.0
##END=



