##NAMES=Fluorophlogopite
##RRUFFID=R040042
##IDEAL CHEMISTRY=KMg_3_(Si_3_Al)O_10_F_2_
##LOCALITY=Franklin, Sussex County, New Jersey, USA
##OWNER=RRUFF
##SOURCE=University of Arizona Mineral Museum
##DESCRIPTION=Brown flattened hexagonal prism, polytype 1M
##STATUS=The identification of this mineral has been confirmed by X-ray diffraction and chemical analysis
##URL=rruff.info/R040042
##MEASURED CHEMISTRY=(K_0.92_Na_0.08_)_Σ=1_(Mg_2.95_Fe_0.05_)_Σ=3_(Si_3.00_Al_1.00_)O_10_(F_1.40_(OH)_0.60_)_Σ=2_; trace amounts of Ti; OH estimated by charge balance
##PIN_ID=L00540
##ORIENTATION=Laser parallel to -a* (-1 0 0). Fiducial mark perpendicular to laser is parallel to -b [0 -1 0]
128.8070, 131314.0
130.0370, 132296.0
131.2670, 132640.0
132.4970, 133448.0
133.7260, 134015.5
134.9550, 133594.0
136.1850, 134937.0
137.4140, 134707.0
138.6420, 134698.0
139.8710, 135279.0
141.1000, 135323.1
142.3280, 136256.0
143.5560, 136135.0
144.7840, 136477.0
146.0120, 137153.0
147.2400, 137306.0
148.4680, 138226.0
149.6950, 137685.0
150.9220, 138326.0
152.1500, 139198.0
153.3770, 139135.0
154.6030, 140150.0
155.8300, 140025.0
157.0570, 140452.0
158.2830, 140515.0
159.5090, 140981.0
160.7350, 141368.0
161.9610, 142638.0
163.1870, 142239.0
164.4130, 143482.0
165.6380, 143608.0
166.8630, 144487.0
168.0880, 145083.0
169.3130, 145844.0
170.5380, 146375.0
171.7630, 147237.0
172.9870, 148187.0
174.2120, 148493.0
175.4360, 149637.0
176.6600, 150783.0
177.8840, 151932.0
179.1080, 153296.0
180.3310, 155266.0
181.5550, 157252.0
182.7780, 160000.0
184.0010, 163569.0
185.2240, 167020.0
186.4470, 171654.0
187.6700, 177563.0
188.8920, 184326.0
190.1150, 191752.0
191.3370, 199375.0
192.5590, 209060.0
193.7810, 218255.0
195.0020, 226948.0
196.2240, 235331.0
197.4450, 240133.0
198.6670, 242494.0
199.8880, 239415.0
201.1090, 231337.0
202.3300, 220635.0
203.5500, 209749.0
204.7710, 198430.0
205.9910, 188366.0
207.2110, 180676.0
208.4310, 175064.0
209.6510, 170792.0
210.8710, 166935.0
212.0910, 165773.0
213.3100, 163838.0
214.5290, 161818.0
215.7480, 160737.0
216.9670, 161038.0
218.1860, 159543.0
219.4050, 160393.0
220.6230, 159493.0
221.8420, 159244.0
223.0600, 158847.0
224.2780, 158597.0
225.4960, 158528.0
226.7130, 157800.0
227.9310, 158148.0
229.1480, 158518.0
230.3660, 158768.0
231.5830, 158075.0
232.8000, 158705.0
234.0160, 158381.0
235.2330, 158754.0
236.4490, 159052.0
237.6660, 159013.0
238.8820, 159350.0
240.0980, 159304.0
241.3140, 159526.0
242.5300, 159680.0
243.7450, 160372.0
244.9600, 160554.0
246.1760, 161150.0
247.3910, 160355.0
248.6060, 161363.0
249.8200, 160806.0
251.0350, 161064.0
252.2500, 161997.0
253.4640, 161835.8
254.6780, 162353.0
255.8920, 162537.0
257.1060, 162791.0
258.3190, 163323.0
259.5330, 164051.0
260.7460, 164233.0
261.9600, 164999.0
263.1730, 165788.0
264.3850, 167020.0
265.5980, 167984.0
266.8110, 168750.0
268.0230, 170512.0
269.2360, 171467.0
270.4480, 173054.0
271.6600, 176017.0
272.8710, 179455.0
274.0830, 180173.0
275.2950, 182678.0
276.5060, 184846.0
277.7170, 188002.0
278.9280, 189529.0
280.1390, 191582.0
281.3500, 191465.0
282.5600, 190275.0
283.7710, 188041.0
284.9810, 185765.0
286.1910, 182747.0
287.4010, 180163.0
288.6110, 178073.0
289.8200, 176581.0
291.0300, 175549.0
292.2390, 174930.0
293.4480, 174374.0
294.6570, 173900.0
295.8660, 173799.8
297.0750, 173648.0
298.2830, 174110.0
299.4920, 174156.0
300.7000, 174940.0
301.9080, 175023.0
303.1160, 175584.0
304.3240, 176630.0
305.5310, 177013.0
306.7390, 178379.0
307.9460, 179640.0
309.1530, 180274.0
310.3600, 182073.0
311.5670, 183258.0
312.7740, 184649.5
313.9800, 185828.8
315.1870, 187563.0
316.3930, 188000.0
317.5990, 189177.0
318.8050, 190424.0
320.0110, 190271.0
321.2160, 191541.0
322.4220, 191940.0
323.6270, 192046.0
324.8320, 192037.0
326.0370, 191961.0
327.2420, 191104.0
328.4460, 189875.0
329.6510, 189596.0
330.8550, 188418.0
332.0590, 187419.0
333.2630, 186371.0
334.4670, 185370.0
335.6710, 184220.0
336.8740, 183801.0
338.0780, 183165.0
339.2810, 183133.0
340.4840, 183452.0
341.6870, 182113.0
342.8900, 182220.0
344.0920, 181226.0
345.2950, 180807.0
346.4970, 181893.0
347.6990, 181605.0
348.9010, 181475.0
350.1030, 182161.0
351.3050, 181817.0
352.5060, 182076.0
353.7080, 182070.0
354.9090, 182386.0
356.1100, 182463.0
357.3110, 182941.0
358.5110, 183877.0
359.7120, 184407.0
360.9120, 184199.0
362.1130, 184004.0
363.3130, 184852.0
364.5130, 185171.0
365.7120, 185481.0
366.9120, 184965.0
368.1120, 185330.0
369.3110, 184937.0
370.5100, 185535.0
371.7090, 186148.0
372.9080, 185594.0
374.1070, 185827.0
375.3050, 185186.0
376.5040, 186196.0
377.7020, 185837.0
378.9000, 185984.0
380.0980, 185646.0
381.2950, 185794.0
382.4930, 185548.0
383.6910, 185698.1
384.8880, 186484.0
386.0850, 186107.0
387.2820, 186318.0
388.4790, 186688.0
389.6750, 186670.0
390.8720, 186830.6
392.0680, 186610.0
393.2640, 186988.0
394.4600, 187004.0
395.6560, 187231.0
396.8520, 187066.0
398.0480, 187674.0
399.2430, 187442.0
400.4380, 188203.0
401.6330, 187705.0
402.8280, 188689.0
404.0230, 188253.0
405.2180, 188615.0
406.4120, 188666.0
407.6060, 188796.0
408.8000, 188979.0
409.9940, 189009.0
411.1880, 189154.0
412.3820, 189268.0
413.5750, 189192.0
414.7690, 189859.0
415.9620, 190283.0
417.1550, 190314.0
418.3480, 189666.0
419.5410, 190248.0
420.7330, 190373.0
421.9260, 190561.0
423.1180, 190661.0
424.3100, 191573.0
425.5020, 191083.0
426.6940, 192691.0
427.8850, 192094.0
429.0770, 192720.0
430.2680, 192138.0
431.4590, 192419.0
432.6500, 192873.0
433.8410, 192837.3
435.0320, 193623.0
436.2220, 193485.0
437.4130, 193761.0
438.6030, 194290.0
439.7930, 194939.0
440.9830, 194279.0
442.1730, 195402.0
443.3620, 194992.0
444.5520, 195526.0
445.7410, 196096.0
446.9300, 196294.0
448.1190, 196397.0
449.3080, 196448.0
450.4960, 197175.0
451.6850, 197826.0
452.8730, 198023.5
454.0610, 197345.0
455.2490, 198752.0
456.4370, 197715.0
457.6250, 198120.0
458.8130, 198234.0
460.0000, 198015.2
461.1870, 198064.0
462.3740, 198348.0
463.5610, 198243.0
464.7480, 198784.0
465.9340, 199183.0
467.1210, 198522.0
468.3070, 198723.0
469.4930, 198383.0
470.6790, 199245.0
471.8650, 198541.0
473.0510, 199346.0
474.2360, 199272.0
475.4210, 199292.0
476.6070, 199567.0
477.7920, 199160.0
478.9770, 199445.0
480.1610, 199669.0
481.3460, 199890.3
482.5300, 200221.5
483.7140, 200717.0
484.8980, 200774.0
486.0820, 201122.0
487.2660, 201198.1
488.4500, 201694.0
489.6330, 201756.0
490.8160, 202018.0
492.0000, 202552.0
493.1830, 201736.0
494.3650, 203020.0
495.5480, 202546.0
496.7300, 203393.0
497.9130, 203511.0
499.0950, 203557.0
500.2770, 203979.0
501.4590, 203967.0
502.6410, 204539.0
503.8220, 204326.0
505.0030, 204977.0
506.1850, 204747.0
507.3660, 205432.0
508.5470, 205492.0
509.7270, 205513.0
510.9080, 206831.0
512.0880, 206896.0
513.2690, 207182.0
514.4490, 207207.0
515.6290, 207343.0
516.8090, 207505.0
517.9880, 207480.0
519.1680, 207442.0
520.3470, 208394.0
521.5260, 207743.0
522.7050, 208332.0
523.8840, 208203.0
525.0630, 208509.0
526.2410, 209429.0
527.4200, 208820.0
528.5980, 209313.0
529.7760, 209007.0
530.9540, 209709.0
532.1320, 208675.0
533.3090, 209773.0
534.4870, 210151.0
535.6640, 209619.0
536.8410, 210396.0
538.0180, 210140.0
539.1950, 210059.0
540.3710, 209993.0
541.5480, 210838.0
542.7240, 210607.0
543.9000, 211356.0
545.0760, 211581.0
546.2520, 211047.0
547.4280, 212969.0
548.6040, 212155.0
549.7790, 212565.0
550.9540, 212382.0
552.1290, 212756.0
553.3040, 213037.0
554.4790, 213698.0
555.6530, 214236.0
556.8280, 213603.0
558.0020, 214025.0
559.1760, 213841.0
560.3500, 214099.5
561.5240, 214406.0
562.6980, 215064.0
563.8710, 215230.0
565.0440, 215561.9
566.2170, 215592.0
567.3900, 216012.0
568.5630, 216432.0
569.7360, 216670.0
570.9090, 217020.0
572.0810, 216672.0
573.2530, 217182.2
574.4250, 216931.0
575.5970, 217641.0
576.7690, 217429.0
577.9400, 217271.0
579.1120, 218044.0
580.2830, 217328.0
581.4540, 218116.0
582.6250, 217840.0
583.7960, 218554.0
584.9660, 218524.0
586.1370, 219544.0
587.3070, 219206.0
588.4770, 220131.0
589.6470, 219711.0
590.8170, 219805.0
591.9870, 220337.0
593.1560, 220292.0
594.3260, 220820.0
595.4950, 221023.0
596.6640, 221386.0
597.8330, 220934.0
599.0010, 222079.0
600.1700, 221828.0
601.3380, 221927.0
602.5070, 222450.0
603.6750, 222471.0
604.8430, 222982.0
606.0100, 223365.0
607.1780, 223869.0
608.3450, 223543.0
609.5130, 223983.0
610.6800, 224518.0
611.8470, 224579.0
613.0140, 225489.0
614.1800, 225098.0
615.3470, 226282.0
616.5130, 226630.0
617.6790, 227119.0
618.8450, 227664.0
620.0110, 228145.9
621.1770, 228764.2
622.3420, 229242.0
623.5080, 230069.0
624.6730, 230637.0
625.8380, 231411.0
627.0030, 232150.0
628.1680, 233131.0
629.3320, 233874.0
630.4970, 234797.0
631.6610, 235772.0
632.8250, 236566.0
633.9890, 237678.0
635.1530, 237958.0
636.3160, 239241.0
637.4800, 239477.0
638.6430, 240442.0
639.8060, 241081.0
640.9690, 240949.0
642.1320, 241623.0
643.2950, 242259.0
644.4570, 241708.0
645.6200, 241034.0
646.7820, 241436.0
647.9440, 241368.0
649.1060, 241711.0
650.2670, 242245.0
651.4290, 242435.0
652.5900, 242889.0
653.7520, 243912.0
654.9130, 243714.0
656.0740, 244344.0
657.2340, 245411.0
658.3950, 244931.0
659.5550, 245673.0
660.7160, 246506.0
661.8760, 246807.0
663.0360, 248839.0
664.1960, 249410.0
665.3550, 250614.0
666.5150, 251689.0
667.6740, 254024.0
668.8330, 255724.0
669.9920, 258562.0
671.1510, 260298.0
672.3100, 262521.0
673.4680, 266446.0
674.6270, 269273.0
675.7850, 273614.0
676.9430, 277477.0
678.1010, 281518.0
679.2590, 284930.0
680.4160, 289311.0
681.5740, 291048.0
682.7310, 293204.0
683.8880, 294221.0
685.0450, 293294.0
686.2020, 292889.0
687.3580, 289412.0
688.5150, 287168.0
689.6710, 283613.0
690.8270, 280769.0
691.9830, 277477.0
693.1390, 272998.0
694.2950, 269742.0
695.4500, 266290.0
696.6050, 263692.0
697.7610, 260029.0
698.9160, 257775.0
700.0710, 256036.0
701.2250, 253404.0
702.3800, 252008.0
703.5340, 250207.0
704.6880, 249983.0
705.8420, 248986.0
706.9960, 248443.0
708.1500, 247432.0
709.3040, 247585.0
710.4570, 247813.0
711.6100, 246949.0
712.7640, 246470.0
713.9160, 246705.0
715.0690, 246588.0
716.2220, 246413.0
717.3740, 248234.0
718.5270, 247444.0
719.6790, 246797.0
720.8310, 245855.0
721.9830, 247051.0
723.1340, 246491.0
724.2860, 245906.0
725.4370, 246889.0
726.5880, 246644.0
727.7390, 247391.0
728.8900, 247079.0
730.0410, 246381.0
731.1910, 247509.0
732.3420, 246354.0
733.4920, 247428.0
734.6420, 247551.0
735.7920, 248194.0
736.9420, 248110.0
738.0910, 248439.0
739.2410, 248773.0
740.3900, 248275.0
741.5390, 248680.0
742.6880, 248297.0
743.8370, 249436.0
744.9860, 249158.0
746.1340, 249852.0
747.2820, 249398.0
748.4310, 249943.0
749.5790, 249886.0
750.7260, 249647.0
751.8740, 250112.0
753.0220, 250042.0
754.1690, 250973.0
755.3160, 250338.0
756.4630, 251706.0
757.6100, 251239.0
758.7570, 251612.0
759.9030, 251986.0
761.0500, 251583.0
762.1960, 251845.0
763.3420, 252023.0
764.4880, 252971.0
765.6340, 252217.0
766.7790, 253515.0
767.9250, 253486.0
769.0700, 252836.0
770.2150, 253607.8
771.3600, 254574.7
772.5050, 255208.2
773.6490, 255525.9
774.7940, 254583.2
775.9380, 255268.1
777.0820, 255300.7
778.2260, 255306.6
779.3700, 256220.6
780.5140, 255461.1
781.6570, 256360.5
782.8010, 256597.9
783.9440, 257138.1
785.0870, 257022.0
786.2300, 257108.6
787.3720, 257851.7
788.5150, 258231.3
789.6570, 258039.5
790.8000, 258599.0
791.9420, 257816.2
793.0840, 258211.2
794.2250, 259114.1
795.3670, 258955.3
796.5080, 259526.5
797.6500, 259819.7
798.7910, 259924.0
799.9320, 260291.0
801.0720, 260366.0
802.2130, 260322.0
803.3530, 260674.0
804.4940, 260692.1
805.6340, 260900.0
806.7740, 260935.0
807.9140, 260980.0
809.0530, 261045.0
810.1930, 261512.0
811.3320, 261806.0
812.4710, 261993.0
813.6100, 262120.0
814.7490, 262730.0
815.8880, 261715.0
817.0270, 263026.0
818.1650, 262783.0
819.3030, 263490.0
820.4410, 263098.0
821.5790, 262731.0
822.7170, 263776.0
823.8540, 263042.0
824.9920, 264659.0
826.1290, 263844.0
827.2660, 264986.0
828.4030, 264377.0
829.5400, 265020.0
830.6760, 265848.0
831.8130, 264621.0
832.9490, 264796.0
834.0850, 265852.0
835.2210, 265474.0
836.3570, 266840.0
837.4930, 266378.0
838.6280, 267115.0
839.7640, 266592.0
840.8990, 267392.0
842.0340, 266620.0
843.1690, 268178.0
844.3030, 268729.0
845.4380, 267813.0
846.5720, 268864.0
847.7060, 268171.0
848.8400, 269330.0
849.9740, 269020.0
851.1080, 269696.0
852.2420, 269577.0
853.3750, 269825.0
854.5080, 269985.0
855.6410, 269546.0
856.7740, 270918.0
857.9070, 270317.0
859.0400, 270793.0
860.1720, 270497.0
861.3040, 270632.0
862.4360, 271176.0
863.5680, 270653.0
864.7000, 271181.0
865.8320, 271499.0
866.9630, 272216.0
868.0950, 271827.0
869.2260, 272351.0
870.3570, 272871.0
871.4880, 272830.0
872.6180, 273468.0
873.7490, 273265.0
874.8790, 273967.0
876.0090, 274301.0
877.1390, 273293.0
878.2690, 274978.0
879.3990, 274040.0
880.5280, 275081.0
881.6580, 275102.0
882.7870, 275021.0
883.9160, 275240.0
885.0450, 275475.2
886.1740, 275724.3
887.3020, 276123.0
888.4310, 276848.0
889.5590, 277081.0
890.6870, 278501.0
891.8150, 277507.0
892.9430, 279041.0
894.0700, 279563.0
895.1980, 278338.0
896.3250, 279994.0
897.4520, 280220.0
898.5790, 280100.0
899.7060, 280325.0
900.8330, 281102.0
901.9590, 280576.0
903.0850, 280478.0
904.2120, 281544.0
905.3380, 281361.0
906.4630, 282276.0
907.5890, 281874.0
908.7150, 282074.0
909.8400, 283073.0
910.9650, 282831.0
912.0900, 283528.0
913.2150, 282646.0
914.3400, 282861.0
915.4640, 283890.0
916.5890, 284436.0
917.7130, 283841.0
918.8370, 284386.0
919.9610, 285076.0
921.0850, 284810.0
922.2080, 285773.0
923.3320, 285837.0
924.4550, 286242.0
925.5780, 286228.0
926.7010, 286137.0
927.8240, 286992.0
928.9460, 286952.0
930.0690, 287323.0
931.1910, 287804.0
932.3130, 288244.0
933.4350, 288760.0
934.5570, 288404.0
935.6790, 288425.0
936.8000, 288768.0
937.9220, 289229.0
939.0430, 289071.0
940.1640, 289523.0
941.2850, 289235.0
942.4050, 289467.0
943.5260, 289510.0
944.6460, 290123.0
945.7660, 290026.0
946.8860, 290396.0
948.0060, 291268.0
949.1260, 291398.0
950.2460, 291934.0
951.3650, 292405.0
952.4840, 291212.0
953.6030, 291331.0
954.7220, 291869.0
955.8410, 292416.0
956.9590, 293253.0
958.0780, 293317.0
959.1960, 293891.3
960.3140, 292795.0
961.4320, 294449.0
962.5500, 294165.0
963.6680, 294078.0
964.7850, 296330.0
965.9020, 294795.0
967.0190, 295771.0
968.1360, 296227.0
969.2530, 296484.0
970.3700, 296386.0
971.4860, 296906.0
972.6030, 297632.0
973.7190, 295712.0
974.8350, 297162.0
975.9510, 298127.0
977.0660, 298329.0
978.1820, 300337.0
979.2970, 299776.5
980.4130, 299563.0
981.5280, 299431.0
982.6420, 300029.0
983.7570, 300228.0
984.8720, 300182.0
985.9860, 301117.0
987.1000, 299859.0
988.2140, 301109.0
989.3280, 301537.0
990.4420, 302534.0
991.5560, 302056.0
992.6690, 302663.0
993.7820, 303490.0
994.8950, 302520.0
996.0080, 302979.0
997.1210, 302684.0
998.2340, 304175.0
999.3460, 304365.0
1000.458, 303893.0
1001.571, 304829.6
1002.683, 304666.8
1003.794, 305655.0
1004.906, 305280.0
1006.017, 305889.0
1007.129, 306786.0
1008.240, 306422.0
1009.351, 307838.0
1010.462, 307809.0
1011.572, 309151.0
1012.683, 308159.0
1013.793, 309552.0
1014.904, 309962.0
1016.014, 309154.0
1017.123, 309608.0
1018.233, 310674.0
1019.343, 310734.0
1020.452, 311598.0
1021.561, 311721.0
1022.670, 312555.0
1023.779, 313268.0
1024.888, 314842.0
1025.997, 315029.0
1027.105, 318059.0
1028.213, 318976.0
1029.321, 320139.0
1030.429, 322746.0
1031.537, 325389.0
1032.645, 328097.0
1033.752, 330215.0
1034.859, 331608.0
1035.966, 334076.0
1037.073, 333033.0
1038.180, 333582.0
1039.287, 331301.0
1040.393, 330555.3
1041.500, 329340.0
1042.606, 327839.0
1043.712, 325934.0
1044.818, 324826.0
1045.923, 324276.0
1047.029, 323742.0
1048.134, 321904.0
1049.239, 321697.0
1050.344, 322299.0
1051.449, 320677.0
1052.554, 320259.0
1053.658, 320123.0
1054.763, 319759.0
1055.867, 320235.0
1056.971, 319701.0
1058.075, 319519.0
1059.179, 318793.0
1060.282, 319963.0
1061.385, 320985.0
1062.489, 320030.0
1063.592, 319232.0
1064.695, 320568.0
1065.797, 320501.0
1066.900, 320335.0
1068.002, 319802.0
1069.105, 320668.0
1070.207, 321175.0
1071.309, 321668.0
1072.411, 321473.0
1073.512, 320848.9
1074.614, 322540.0
1075.715, 323633.7
1076.816, 324162.4
1077.917, 322433.6
1079.018, 323619.8
1080.118, 323637.5
1081.219, 323607.7
1082.319, 325203.8
1083.419, 323803.1
1084.519, 325373.6
1085.619, 325757.9
1086.719, 326685.2
1087.818, 326436.7
1088.918, 326551.5
1090.017, 327841.8
1091.116, 328481.1
1092.215, 328097.3
1093.314, 329058.8
1094.412, 327616.4
1095.510, 328283.1
1096.609, 329860.2
1097.707, 329535.2
1098.805, 330517.8
1099.902, 331002.1
1101.000, 328724.2
1102.097, 329534.6
1103.195, 329682.8
1104.292, 330134.1
1105.389, 330849.0
1106.485, 331314.0
1107.582, 330934.0
1108.678, 331538.0
1109.775, 331461.0
1110.871, 331483.0
1111.967, 332333.0
1113.062, 331435.0
1114.158, 332006.0
1115.254, 332096.0
1116.349, 332492.0
1117.444, 332786.0
1118.539, 332801.3
1119.634, 333549.0
1120.728, 333009.0
1121.823, 332741.0
1122.917, 333129.0
1124.011, 333088.0
1125.105, 333348.0
1126.199, 333707.0
1127.293, 334512.0
1128.386, 334225.0
1129.480, 334766.0
1130.573, 335287.0
1131.666, 334376.0
1132.759, 335643.0
1133.851, 335828.0
1134.944, 336505.0
1136.036, 335566.0
1137.129, 335877.0
1138.221, 336475.0
1139.313, 336779.0
1140.404, 336899.0
1141.496, 336559.0
1142.587, 338244.0
1143.678, 338490.0
1144.770, 338011.0
1145.860, 338737.0
1146.951, 338030.0
1148.042, 338900.0
1149.132, 339586.0
1150.223, 338763.0
1151.313, 340644.0
1152.403, 339724.0
1153.492, 341371.0
1154.582, 340646.0
1155.671, 340435.0
1156.761, 341832.0
1157.850, 342053.0
1158.939, 342686.0
1160.028, 341319.0
1161.116, 343093.0
1162.205, 343333.0
1163.293, 343210.0
1164.381, 344421.0
1165.469, 344175.0
1166.557, 345155.0
1167.645, 345040.0
1168.732, 346120.0
1169.820, 345519.0
1170.907, 345952.0
1171.994, 346196.0
1173.081, 346276.0
1174.167, 348236.0
1175.254, 346134.0
1176.340, 347589.0
1177.426, 348151.0
1178.512, 347352.0
1179.598, 348586.0
1180.684, 347744.0
1181.770, 347960.0
1182.855, 347982.0
1183.940, 348397.0
1185.025, 349332.0
1186.110, 348943.0
1187.195, 350284.0
1188.280, 350269.0
1189.364, 349086.0
1190.448, 350795.0
1191.532, 350143.0
1192.616, 350754.0
1193.700, 351238.0
1194.784, 351280.0
1195.867, 351977.0
1196.950, 351943.0
1198.034, 353050.0
1199.117, 352343.0
1200.199, 352639.0
1201.282, 353918.0
1202.364, 352000.0
1203.447, 354019.0
1204.529, 354165.0
1205.611, 354041.0
1206.693, 355359.0
1207.774, 355844.0
1208.856, 356608.0
1209.937, 355162.0
1211.018, 356663.0
1212.099, 357189.0
1213.180, 356307.0
1214.261, 357315.0
1215.341, 357020.0
1216.422, 358310.0
1217.502, 356644.0
1218.582, 357962.0
1219.662, 358080.0
1220.742, 358290.0
1221.821, 358764.0
1222.900, 358504.0
1223.980, 359175.0
1225.059, 359408.0
1226.138, 359203.0
1227.216, 360479.0
1228.295, 358969.0
1229.373, 360316.0
1230.452, 359882.0
1231.530, 361009.0
1232.608, 361627.0
1233.685, 360603.0
1234.763, 363426.0
1235.840, 361035.0
1236.918, 362375.0
1237.995, 362847.0
1239.072, 363250.0
1240.149, 363900.0
1241.225, 363140.0
1242.302, 364757.0
1243.378, 363922.0
1244.454, 364256.0
1245.530, 365465.0
1246.606, 365288.0
1247.681, 365975.0
1248.757, 365493.0
1249.832, 366362.0
1250.907, 367386.0
1251.982, 366526.0
1253.057, 367563.3
1254.132, 367331.2
1255.206, 367860.0
1256.281, 368000.0
1257.355, 367076.0
1258.429, 369108.0
1259.503, 368690.0
1260.576, 369344.0
1261.650, 368707.0
1262.723, 368986.0
1263.797, 369838.0
1264.870, 369355.0
1265.942, 370345.0
1267.015, 371016.0
1268.088, 371121.0
1269.160, 371637.0
1270.232, 371895.1
1271.304, 372120.6
1272.376, 372180.0
1273.448, 372706.0
1274.520, 372450.0
1275.591, 372968.0
1276.662, 373229.0
1277.733, 374011.0
1278.804, 374341.0
1279.875, 374235.0
1280.946, 374203.0
1282.016, 374889.0
1283.086, 375171.0
1284.156, 376228.0
1285.226, 376986.0
1286.296, 376733.0
1287.366, 376837.0
1288.435, 376130.0
1289.505, 377841.0
1290.574, 377596.0
1291.643, 377416.0
1292.711, 378935.0
1293.780, 377945.0
1294.849, 380051.0
1295.917, 379557.0
1296.985, 379379.0
1298.053, 379862.0
1299.121, 379783.2
1300.189, 380092.9
1301.256, 380528.0
1302.323, 380764.0
1303.391, 381511.0
1304.458, 382035.0
1305.524, 381864.0
1306.591, 381491.0
1307.658, 383392.0
1308.724, 382343.0
1309.790, 383060.0
1310.856, 383856.0
1311.922, 383362.0
1312.988, 384256.0
1314.053, 385049.0
1315.119, 384516.0
1316.184, 385968.0
1317.249, 384416.0
1318.314, 386070.0
1319.379, 386078.0
1320.443, 386165.0
1321.508, 386739.0
1322.572, 386655.0
1323.636, 387269.0
1324.700, 387082.0
1325.764, 387314.0
1326.827, 388809.0
1327.891, 388434.0
1328.954, 388747.0
1330.017, 389014.0
1331.080, 388480.0
1332.143, 389958.0
1333.205, 389166.0
1334.268, 390299.0
1335.330, 389655.0
1336.392, 390258.0
1337.454, 391146.0
1338.516, 388879.0
1339.578, 391442.0
1340.639, 390442.0
1341.701, 391313.0
1342.762, 391777.0
1343.823, 391591.0
1344.883, 393169.0
1345.944, 393493.0
1347.005, 393292.0
1348.065, 394284.0
1349.125, 393891.0
1350.185, 394236.0
1351.245, 394420.0
1352.305, 395122.0
1353.364, 394941.0
1354.424, 395207.0
1355.483, 395966.0
1356.542, 395576.0
1357.601, 396919.0
1358.659, 396728.0
1359.718, 396974.0
1360.776, 398150.0
1361.834, 396460.0
1362.893, 397352.0
1363.950, 398109.0
1365.008, 397693.0
1366.066, 398384.0
1367.123, 397896.0
1368.180, 399101.0
1369.237, 399173.0
1370.294, 398410.0
1371.351, 401271.0
1372.408, 399087.0
1373.464, 401634.0
1374.520, 400174.0
1375.576, 399932.0
1376.632, 401287.0
1377.688, 401048.0
1378.744, 401177.0
1379.799, 400470.0
1380.854, 402436.0
1381.910, 402234.0
1382.965, 401448.0
1384.019, 404636.0
1385.074, 403311.0
1386.128, 403511.0
1387.183, 403406.0
1388.237, 403163.0
1389.291, 404447.0
1390.345, 404278.0
1391.398, 405526.0
1392.452, 406129.0
1393.505, 405871.0
1394.558, 406294.0
1395.611, 405890.0
1396.664, 407696.0
1397.717, 406997.0
1398.769, 406092.0
1399.822, 408274.0
1400.874, 407309.0
1401.926, 408713.0
1402.978, 408818.0
1404.029, 408467.0
1405.081, 409258.0
1406.132, 407924.0
1407.183, 408635.0
1408.234, 409488.0
1409.285, 409273.0
1410.336, 410081.0
1411.387, 408924.0
1412.437, 410471.0
1413.487, 411614.0
1414.537, 410534.0
1415.587, 411822.0
1416.637, 410425.0
1417.686, 411386.0
1418.736, 411925.0
1419.785, 412092.0
1420.834, 413794.0
1421.883, 412448.0
1422.932, 412602.0
1423.980, 413029.0
1425.029, 414385.0
1426.077, 414714.0
1427.125, 413631.0
1428.173, 413575.0
1429.221, 415607.0
1430.269, 414359.0
1431.316, 416145.0
1432.363, 414919.0
1433.410, 415985.0
1434.457, 416224.0
1435.504, 417449.0
1436.551, 417854.0
1437.597, 417745.0
1438.644, 417945.0
1439.690, 417661.0
1440.736, 417963.0
1441.781, 418276.0
1442.827, 419239.0
1443.873, 419603.0
1444.918, 419979.0
1445.963, 419480.0
1447.008, 420482.0
1448.053, 420245.4
1449.098, 420666.0
1450.142, 420804.0
1451.186, 421062.0
1452.231, 422294.0
1453.275, 421215.0
1454.319, 422892.0
1455.362, 422689.0
1456.406, 422311.0
1457.449, 423149.0
1458.492, 422374.0
1459.535, 423517.0
1460.578, 424071.0
1461.621, 423861.0
1462.663, 424439.0
1463.706, 423506.0
1464.748, 424827.0
1465.790, 425661.0
1466.832, 425111.0
1467.874, 425853.0
1468.915, 425352.0
1469.957, 427520.0
1470.998, 426553.0
1472.039, 426982.0
1473.080, 428480.0
1474.121, 427230.0
1475.161, 428891.0
1476.202, 427845.0
1477.242, 427431.0
1478.282, 429027.0
1479.322, 428491.0
1480.362, 428957.0
1481.401, 429311.0
1482.441, 428544.0
1483.480, 430367.0
1484.519, 429543.0
1485.558, 430159.0
1486.597, 431293.0
1487.636, 430643.0
1488.674, 430626.0
1489.712, 431442.0
1490.751, 431106.0
1491.788, 432019.0
1492.826, 431959.0
1493.864, 432424.8
1494.901, 431981.0
1495.939, 433416.0
1496.976, 433322.0
1498.013, 433898.0
1499.050, 434539.0
1500.086, 434510.0
1501.123, 434713.0
1502.159, 435376.0
1503.195, 434433.0
1504.231, 437601.0
1505.267, 435428.0
1506.303, 437593.0
1507.338, 437142.0
1508.374, 437541.0
1509.409, 437410.0
1510.444, 437368.0
1511.479, 438399.0
1512.514, 439616.0
1513.548, 439704.0
1514.583, 440528.0
1515.617, 439790.0
1516.651, 440594.0
1517.685, 441376.0
1518.718, 440701.0
1519.752, 441087.0
1520.785, 440884.0
1521.819, 441337.0
1522.852, 442788.0
1523.885, 441177.0
1524.917, 443371.0
1525.950, 442103.0
1526.982, 441893.0
1528.015, 444131.0
1529.047, 443362.0
1530.079, 444405.0
1531.110, 443736.0
1532.142, 443988.0
1533.173, 445634.0
1534.205, 444091.0
1535.236, 446789.0
1536.267, 445875.0
1537.298, 446232.0
1538.328, 445942.0
1539.359, 445584.0
1540.389, 446130.0
1541.419, 446351.0
1542.449, 445952.0
1543.479, 448393.0
1544.508, 447571.0
1545.538, 447584.0
1546.567, 448038.0
1547.596, 447591.0
1548.625, 449341.0
1549.654, 447825.0
1550.683, 450123.0
1551.711, 450719.0
1552.740, 448938.0
1553.768, 450586.0
1554.796, 449501.0
1555.824, 450609.0
1556.851, 450651.0
1557.879, 450016.0
1558.906, 451722.0
1559.933, 450710.0
1560.960, 451780.0
1561.987, 451968.0
1563.014, 450707.0
1564.041, 451821.0
1565.067, 451224.0
1566.093, 451177.0
1567.119, 452396.0
1568.145, 452373.0
1569.171, 452911.9
1570.196, 451507.0
1571.222, 453336.0
1572.247, 454394.0
1573.272, 453789.0
1574.297, 455261.0
1575.322, 454765.0
1576.346, 455358.0
1577.371, 456491.0
1578.395, 454699.0
1579.419, 455720.0
1580.443, 456043.0
##END=



