##NAMES=Fluorophlogopite
##RRUFFID=R040042
##IDEAL CHEMISTRY=KMg_3_(Si_3_Al)O_10_F_2_
##LOCALITY=Franklin, Sussex County, New Jersey, USA
##OWNER=RRUFF
##SOURCE=University of Arizona Mineral Museum
##DESCRIPTION=Brown flattened hexagonal prism, polytype 1M
##STATUS=The identification of this mineral has been confirmed by X-ray diffraction and chemical analysis
##URL=rruff.info/R040042
##MEASURED CHEMISTRY=(K_0.92_Na_0.08_)_Σ=1_(Mg_2.95_Fe_0.05_)_Σ=3_(Si_3.00_Al_1.00_)O_10_(F_1.40_(OH)_0.60_)_Σ=2_; trace amounts of Ti; OH estimated by charge balance
##PIN_ID=L00540
##ORIENTATION=Laser parallel to -a* (-1 0 0). Fiducial mark perpendicular to laser is parallel to -b [0 -1 0]
130.0370, 215398.0
131.2670, 215791.0
132.4970, 216929.0
133.7260, 217032.0
134.9550, 218580.0
136.1850, 218375.0
137.4140, 219652.0
138.6420, 220718.0
139.8710, 221536.0
141.1000, 221808.0
142.3280, 222782.0
143.5560, 223318.0
144.7840, 223737.0
146.0120, 224276.0
147.2400, 225496.0
148.4680, 225210.0
149.6950, 226415.0
150.9220, 227005.0
152.1500, 227399.0
153.3770, 228246.0
154.6030, 229206.0
155.8300, 230239.0
157.0570, 229888.0
158.2830, 230937.0
159.5090, 231380.0
160.7350, 231938.0
161.9610, 232550.0
163.1870, 233605.0
164.4130, 233848.0
165.6380, 234343.0
166.8630, 235954.0
168.0880, 235930.0
169.3130, 236921.0
170.5380, 237493.0
171.7630, 238533.0
172.9870, 239253.0
174.2120, 240019.4
175.4360, 240849.0
176.6600, 241795.0
177.8840, 242378.0
179.1080, 243757.0
180.3310, 244820.5
181.5550, 246440.0
182.7780, 247642.0
184.0010, 249569.0
185.2240, 251516.0
186.4470, 254685.0
187.6700, 256375.0
188.8920, 259905.0
190.1150, 263441.0
191.3370, 266340.0
192.5590, 270627.0
193.7810, 274028.0
195.0020, 276590.0
196.2240, 279847.0
197.4450, 280684.0
198.6670, 281482.0
199.8880, 279106.0
201.1090, 275571.0
202.3300, 272234.0
203.5500, 268460.0
204.7710, 265482.0
205.9910, 262417.0
207.2110, 260261.0
208.4310, 259595.0
209.6510, 257812.0
210.8710, 258052.0
212.0910, 258135.0
213.3100, 258017.0
214.5290, 256791.0
215.7480, 256839.0
216.9670, 257440.0
218.1860, 258176.0
219.4050, 257635.0
220.6230, 258162.0
221.8420, 258351.0
223.0600, 258307.0
224.2780, 258859.0
225.4960, 259287.0
226.7130, 259426.0
227.9310, 259603.0
229.1480, 259718.0
230.3660, 260456.0
231.5830, 261024.0
232.8000, 260748.0
234.0160, 262630.0
235.2330, 261889.0
236.4490, 262401.0
237.6660, 262566.0
238.8820, 263175.0
240.0980, 263878.0
241.3140, 263859.0
242.5300, 265566.0
243.7450, 264641.0
244.9600, 265300.0
246.1760, 264948.0
247.3910, 266836.0
248.6060, 266181.0
249.8200, 267505.0
251.0350, 267254.0
252.2500, 267722.0
253.4640, 268841.0
254.6780, 269363.0
255.8920, 268894.0
257.1060, 270003.0
258.3190, 270527.0
259.5330, 271595.0
260.7460, 272181.0
261.9600, 272902.0
263.1730, 274036.8
264.3850, 274873.0
265.5980, 276375.0
266.8110, 277380.0
268.0230, 278865.0
269.2360, 280257.0
270.4480, 282356.0
271.6600, 284584.0
272.8710, 286432.0
274.0830, 288418.0
275.2950, 290913.6
276.5060, 292977.0
277.7170, 295242.0
278.9280, 295355.0
280.1390, 295871.0
281.3500, 296185.0
282.5600, 294114.0
283.7710, 293248.0
284.9810, 290815.0
286.1910, 288270.0
287.4010, 287313.0
288.6110, 286441.0
289.8200, 285349.0
291.0300, 284680.0
292.2390, 284804.0
293.4480, 284300.0
294.6570, 285769.0
295.8660, 284632.0
297.0750, 285903.0
298.2830, 285278.0
299.4920, 285719.0
300.7000, 286241.0
301.9080, 288082.0
303.1160, 288092.0
304.3240, 289189.0
305.5310, 289306.0
306.7390, 291093.0
307.9460, 291800.0
309.1530, 293427.0
310.3600, 294326.0
311.5670, 295601.0
312.7740, 297342.0
313.9800, 298183.0
315.1870, 300709.0
316.3930, 301871.0
317.5990, 302839.0
318.8050, 304058.0
320.0110, 304981.0
321.2160, 305604.0
322.4220, 306529.0
323.6270, 306601.0
324.8320, 306994.0
326.0370, 307394.0
327.2420, 306170.0
328.4460, 306233.0
329.6510, 304680.0
330.8550, 304529.0
332.0590, 303897.0
333.2630, 303112.2
334.4670, 302698.0
335.6710, 302069.0
336.8740, 301217.0
338.0780, 300903.0
339.2810, 301366.0
340.4840, 301912.0
341.6870, 301458.2
342.8900, 302473.0
344.0920, 300999.0
345.2950, 300591.0
346.4970, 300566.0
347.6990, 301131.0
348.9010, 301511.0
350.1030, 301819.0
351.3050, 302569.0
352.5060, 302769.0
353.7080, 302623.0
354.9090, 303236.0
356.1100, 303694.0
357.3110, 304305.0
358.5110, 303931.0
359.7120, 305602.0
360.9120, 304846.0
362.1130, 306197.0
363.3130, 306702.0
364.5130, 306943.0
365.7120, 307389.0
366.9120, 308147.0
368.1120, 308486.0
369.3110, 309096.0
370.5100, 309841.0
371.7090, 309394.0
372.9080, 310683.0
374.1070, 309945.0
375.3050, 310263.0
376.5040, 309319.0
377.7020, 310532.0
378.9000, 310191.0
380.0980, 309610.0
381.2950, 310860.0
382.4930, 310262.0
383.6910, 311540.0
384.8880, 311158.0
386.0850, 310965.0
387.2820, 311910.0
388.4790, 312262.0
389.6750, 311919.0
390.8720, 311377.0
392.0680, 312015.0
393.2640, 312824.0
394.4600, 312878.2
395.6560, 313468.0
396.8520, 313944.0
398.0480, 313938.0
399.2430, 314844.0
400.4380, 314880.0
401.6330, 315394.0
402.8280, 315647.9
404.0230, 315774.0
405.2180, 316043.0
406.4120, 316146.0
407.6060, 316462.0
408.8000, 316859.0
409.9940, 316634.0
411.1880, 316530.0
412.3820, 318036.0
413.5750, 318267.0
414.7690, 318293.0
415.9620, 318158.0
417.1550, 319433.0
418.3480, 318681.0
419.5410, 319678.0
420.7330, 319727.0
421.9260, 319361.0
423.1180, 320120.0
424.3100, 320941.0
425.5020, 321130.0
426.6940, 321420.0
427.8850, 322145.0
429.0770, 322557.0
430.2680, 323642.0
431.4590, 324048.0
432.6500, 324513.0
433.8410, 324942.1
435.0320, 324635.0
436.2220, 325798.0
437.4130, 324648.0
438.6030, 325817.0
439.7930, 326517.0
440.9830, 326444.9
442.1730, 327202.6
443.3620, 327236.0
444.5520, 327571.0
445.7410, 328071.0
446.9300, 327676.0
448.1190, 328820.0
449.3080, 329374.0
450.4960, 329188.0
451.6850, 329496.0
452.8730, 328716.0
454.0610, 330162.0
455.2490, 329762.0
456.4370, 330802.0
457.6250, 330884.0
458.8130, 330970.0
460.0000, 332397.0
461.1870, 332666.0
462.3740, 332464.0
463.5610, 332960.0
464.7480, 333100.0
465.9340, 333426.0
467.1210, 334339.0
468.3070, 333198.0
469.4930, 334064.0
470.6790, 333919.0
471.8650, 333372.0
473.0510, 334303.0
474.2360, 333827.0
475.4210, 334177.0
476.6070, 334846.0
477.7920, 335109.0
478.9770, 335509.0
480.1610, 335967.0
481.3460, 335503.0
482.5300, 336483.0
483.7140, 337106.0
484.8980, 336783.0
486.0820, 336818.0
487.2660, 337764.0
488.4500, 338995.0
489.6330, 339400.0
490.8160, 339396.0
492.0000, 338777.0
493.1830, 340294.0
494.3650, 339887.0
495.5480, 341122.0
496.7300, 340956.0
497.9130, 342022.0
499.0950, 341622.0
500.2770, 341840.0
501.4590, 343410.0
502.6410, 342799.0
503.8220, 344472.0
505.0030, 343944.0
506.1850, 344874.0
507.3660, 344891.0
508.5470, 346725.0
509.7270, 346871.0
510.9080, 347098.0
512.0880, 347679.0
513.2690, 348260.0
514.4490, 347926.0
515.6290, 348917.0
516.8090, 349233.0
517.9880, 348636.0
519.1680, 349472.0
520.3470, 350406.0
521.5260, 349940.0
522.7050, 350758.0
523.8840, 349641.0
525.0630, 350443.0
526.2410, 351787.0
527.4200, 351174.0
528.5980, 351083.0
529.7760, 352158.0
530.9540, 351315.0
532.1320, 352178.0
533.3090, 352062.0
534.4870, 351587.0
535.6640, 352479.0
536.8410, 352881.0
538.0180, 354057.0
539.1950, 352602.0
540.3710, 354007.0
541.5480, 353551.0
542.7240, 354422.0
543.9000, 355495.0
545.0760, 355296.0
546.2520, 355864.0
547.4280, 354876.0
548.6040, 356059.0
549.7790, 356235.0
550.9540, 356301.0
552.1290, 357296.0
553.3040, 357360.0
554.4790, 358106.0
555.6530, 358744.0
556.8280, 359135.0
558.0020, 359240.0
559.1760, 360118.0
560.3500, 359671.0
561.5240, 360116.0
562.6980, 360446.0
563.8710, 361272.0
565.0440, 361185.0
566.2170, 362173.0
567.3900, 362536.0
568.5630, 362561.0
569.7360, 363235.0
570.9090, 362620.0
572.0810, 364029.0
573.2530, 363110.0
574.4250, 364305.0
575.5970, 364252.0
576.7690, 363840.0
577.9400, 364607.0
579.1120, 365631.0
580.2830, 366101.0
581.4540, 366328.2
582.6250, 366689.0
583.7960, 366450.0
584.9660, 366424.0
586.1370, 366712.0
587.3070, 367015.0
588.4770, 367973.0
589.6470, 366796.0
590.8170, 370327.0
591.9870, 370297.0
593.1560, 369958.0
594.3260, 368792.0
595.4950, 370998.0
596.6640, 370222.0
597.8330, 370589.0
599.0010, 370138.0
600.1700, 371609.0
601.3380, 371671.0
602.5070, 372469.0
603.6750, 372365.0
604.8430, 371655.0
606.0100, 372231.0
607.1780, 372834.0
608.3450, 373309.0
609.5130, 374202.0
610.6800, 373760.0
611.8470, 374555.0
613.0140, 374235.0
614.1800, 375269.0
615.3470, 376079.0
616.5130, 376457.0
617.6790, 377303.0
618.8450, 377478.0
620.0110, 378088.0
621.1770, 378424.0
622.3420, 378991.0
623.5080, 379565.0
624.6730, 381308.0
625.8380, 380956.0
627.0030, 382738.0
628.1680, 381638.0
629.3320, 382932.0
630.4970, 383124.0
631.6610, 383812.0
632.8250, 385899.0
633.9890, 386857.0
635.1530, 387142.0
636.3160, 386920.0
637.4800, 388031.0
638.6430, 388466.0
639.8060, 389595.0
640.9690, 389739.0
642.1320, 389701.0
643.2950, 391028.0
644.4570, 390448.0
645.6200, 392066.0
646.7820, 391541.0
647.9440, 392149.0
649.1060, 393432.0
650.2670, 392868.0
651.4290, 392616.0
652.5900, 393962.0
653.7520, 394632.0
654.9130, 394718.0
656.0740, 397031.0
657.2340, 396575.0
658.3950, 398589.0
659.5550, 398959.0
660.7160, 400171.0
661.8760, 401587.0
663.0360, 401954.0
664.1960, 404593.0
665.3550, 404803.0
666.5150, 406523.0
667.6740, 408022.0
668.8330, 410427.0
669.9920, 413355.0
671.1510, 415439.0
672.3100, 418973.0
673.4680, 422305.0
674.6270, 425534.0
675.7850, 429952.0
676.9430, 433334.0
678.1010, 436850.0
679.2590, 439565.0
680.4160, 442689.0
681.5740, 444616.0
682.7310, 446524.0
683.8880, 446112.0
685.0450, 445084.0
686.2020, 443641.0
687.3580, 441894.0
688.5150, 439626.0
689.6710, 435606.0
690.8270, 433544.0
691.9830, 430666.0
693.1390, 428166.0
694.2950, 424494.0
695.4500, 422970.0
696.6050, 418946.0
697.7610, 417392.0
698.9160, 417035.0
700.0710, 416590.0
701.2250, 414153.0
702.3800, 411551.0
703.5340, 410359.9
704.6880, 410552.6
705.8420, 410481.7
706.9960, 410161.3
708.1500, 408844.4
709.3040, 408814.2
710.4570, 408268.8
711.6100, 407702.2
712.7640, 407853.2
713.9160, 407730.0
715.0690, 407401.0
716.2220, 408068.0
717.3740, 407551.0
718.5270, 407688.0
719.6790, 409108.0
720.8310, 408134.0
721.9830, 408633.0
723.1340, 408620.0
724.2860, 409575.0
725.4370, 409033.0
726.5880, 409570.0
727.7390, 410954.0
728.8900, 411125.0
730.0410, 411278.0
731.1910, 410566.0
732.3420, 410961.0
733.4920, 411028.8
734.6420, 411958.0
735.7920, 411671.0
736.9420, 411830.0
738.0910, 412282.0
739.2410, 413377.0
740.3900, 413980.0
741.5390, 413302.0
742.6880, 414255.0
743.8370, 414378.0
744.9860, 415167.0
746.1340, 414017.0
747.2820, 414681.0
748.4310, 415182.0
749.5790, 416146.0
750.7260, 416134.0
751.8740, 415320.0
753.0220, 416341.0
754.1690, 415918.0
755.3160, 416936.0
756.4630, 417777.0
757.6100, 417641.0
758.7570, 418688.0
759.9030, 418174.0
761.0500, 417970.0
762.1960, 417922.0
763.3420, 418257.6
764.4880, 419346.0
765.6340, 419421.0
766.7790, 419920.0
767.9250, 420567.0
769.0700, 420745.0
770.2150, 420773.0
771.3600, 421744.0
772.5050, 421801.0
773.6490, 422077.0
774.7940, 423088.0
775.9380, 422637.0
777.0820, 423179.0
778.2260, 423416.0
779.3700, 423148.0
780.5140, 423853.0
781.6570, 424794.0
782.8010, 425879.0
783.9440, 424871.0
785.0870, 425495.0
786.2300, 425929.0
787.3720, 426380.0
788.5150, 426119.0
789.6570, 426824.2
790.8000, 427283.0
791.9420, 428022.0
793.0840, 428379.0
794.2250, 429477.0
795.3670, 429462.0
796.5080, 429492.0
797.6500, 430252.0
798.7910, 430036.0
799.9320, 430036.0
801.0720, 431372.0
802.2130, 430910.0
803.3530, 430810.0
804.4940, 430572.0
805.6340, 432226.0
806.7740, 431424.0
807.9140, 431852.0
809.0530, 432282.0
810.1930, 432169.0
811.3320, 433474.0
812.4710, 432763.0
813.6100, 433588.0
814.7490, 432940.0
815.8880, 434786.0
817.0270, 434036.0
818.1650, 433872.0
819.3030, 435015.0
820.4410, 435342.0
821.5790, 436279.0
822.7170, 435384.0
823.8540, 436145.0
824.9920, 435831.0
826.1290, 436470.0
827.2660, 436404.0
828.4030, 436628.0
829.5400, 436922.0
830.6760, 437196.9
831.8130, 437490.1
832.9490, 437898.0
834.0850, 438371.0
835.2210, 438498.0
836.3570, 439484.0
837.4930, 439648.0
838.6280, 438926.0
839.7640, 439744.0
840.8990, 439270.0
842.0340, 440795.0
843.1690, 441136.0
844.3030, 440545.0
845.4380, 442994.0
846.5720, 442236.0
847.7060, 442179.0
848.8400, 443261.0
849.9740, 443582.0
851.1080, 444424.0
852.2420, 445360.0
853.3750, 445592.0
854.5080, 443970.0
855.6410, 444378.0
856.7740, 444544.0
857.9070, 445610.0
859.0400, 444838.0
860.1720, 445703.0
861.3040, 446590.0
862.4360, 445601.0
863.5680, 446972.0
864.7000, 446599.0
865.8320, 446446.0
866.9630, 447748.0
868.0950, 447514.0
869.2260, 447111.0
870.3570, 448006.0
871.4880, 449619.0
872.6180, 448842.0
873.7490, 449562.0
874.8790, 448964.0
876.0090, 450262.0
877.1390, 450729.0
878.2690, 450541.0
879.3990, 451521.0
880.5280, 450476.0
881.6580, 453188.0
882.7870, 452013.0
883.9160, 453334.0
885.0450, 453662.0
886.1740, 453332.0
887.3020, 454433.0
888.4310, 454853.0
889.5590, 455557.0
890.6870, 456589.0
891.8150, 456373.0
892.9430, 457152.0
894.0700, 456845.0
895.1980, 457397.0
896.3250, 457683.0
897.4520, 459287.0
898.5790, 459376.0
899.7060, 460695.0
900.8330, 460773.0
901.9590, 460416.0
903.0850, 460545.8
904.2120, 461678.8
905.3380, 462424.0
906.4630, 462802.7
907.5890, 461686.0
908.7150, 462525.0
909.8400, 462595.0
910.9650, 462643.7
912.0900, 463788.2
913.2150, 462943.8
914.3400, 464092.4
915.4640, 464460.1
916.5890, 465200.9
917.7130, 465167.8
918.8370, 465387.6
919.9610, 466402.5
921.0850, 466993.8
922.2080, 466912.6
923.3320, 467740.1
924.4550, 466974.1
925.5780, 467626.1
926.7010, 468895.8
927.8240, 468907.2
928.9460, 469801.4
930.0690, 470374.4
931.1910, 469447.4
932.3130, 471157.3
933.4350, 470163.0
934.5570, 471557.0
935.6790, 470967.0
936.8000, 472865.0
937.9220, 470676.0
939.0430, 473422.0
940.1640, 474288.0
941.2850, 471954.0
942.4050, 473945.0
943.5260, 475120.0
944.6460, 474445.0
945.7660, 473922.0
946.8860, 472564.0
948.0060, 475245.0
949.1260, 474218.0
950.2460, 475628.0
951.3650, 474726.0
952.4840, 476115.0
953.6030, 476345.0
954.7220, 475642.0
955.8410, 476355.0
956.9590, 476727.0
958.0780, 477576.0
959.1960, 477860.0
960.3140, 477948.0
961.4320, 478163.0
962.5500, 478156.0
963.6680, 479339.0
964.7850, 478698.0
965.9020, 480328.0
967.0190, 480433.0
968.1360, 480451.0
969.2530, 481373.0
970.3700, 480776.0
971.4860, 481448.0
972.6030, 482001.0
973.7190, 482580.0
974.8350, 482586.0
975.9510, 483918.0
977.0660, 484390.0
978.1820, 484777.0
979.2970, 485943.0
980.4130, 483891.0
981.5280, 485494.0
982.6420, 485257.0
983.7570, 486266.0
984.8720, 486445.0
985.9860, 485882.0
987.1000, 487446.0
988.2140, 487457.0
989.3280, 488735.0
990.4420, 488057.0
991.5560, 489023.0
992.6690, 489720.0
993.7820, 488677.0
994.8950, 490310.0
996.0080, 489174.0
997.1210, 491193.0
998.2340, 491163.0
999.3460, 490874.0
1000.458, 491767.0
1001.571, 491791.0
1002.683, 492829.0
1003.794, 492077.0
1004.906, 493510.0
1006.017, 493215.0
1007.129, 494138.0
1008.240, 494390.0
1009.351, 494619.0
1010.462, 495077.0
1011.572, 494666.0
1012.683, 494914.0
1013.793, 495233.0
1014.904, 495774.0
1016.014, 495934.0
1017.123, 496012.0
1018.233, 496963.0
1019.343, 496660.0
1020.452, 497971.0
1021.561, 498964.0
1022.670, 498181.0
1023.779, 499039.0
1024.888, 498065.0
1025.997, 499915.0
1027.105, 500689.0
1028.213, 500819.0
1029.321, 502146.0
1030.429, 502160.0
1031.537, 503547.0
1032.645, 503048.0
1033.752, 505381.0
1034.859, 505435.0
1035.966, 505036.0
1037.073, 506570.0
1038.180, 505802.0
1039.287, 506274.0
1040.393, 505278.0
1041.500, 506812.0
1042.606, 506828.0
1043.712, 507423.0
1044.818, 507880.0
1045.923, 507019.0
1047.029, 508655.0
1048.134, 507918.0
1049.239, 509006.0
1050.344, 509192.0
1051.449, 507838.0
1052.554, 508755.0
1053.658, 509503.0
1054.763, 509768.0
1055.867, 508707.0
1056.971, 510288.0
1058.075, 511398.0
1059.179, 509813.0
1060.282, 511299.0
1061.385, 512371.0
1062.489, 511957.0
1063.592, 511906.0
1064.695, 512618.0
1065.797, 513325.0
1066.900, 513160.0
1068.002, 513922.0
1069.105, 514515.0
1070.207, 514234.0
1071.309, 516102.0
1072.411, 515050.0
1073.512, 517848.0
1074.614, 516429.0
1075.715, 518693.0
1076.816, 518495.0
1077.917, 519424.0
1079.018, 520755.0
1080.118, 520902.0
1081.219, 521268.0
1082.319, 523017.0
1083.419, 523109.0
1084.519, 524506.0
1085.619, 524184.0
1086.719, 525505.5
1087.818, 526798.0
1088.918, 527608.0
1090.017, 527274.0
1091.116, 527947.0
1092.215, 529836.0
1093.314, 528642.0
1094.412, 529980.0
1095.510, 529060.0
1096.609, 529733.9
1097.707, 530125.4
1098.805, 530723.0
1099.902, 531143.0
1101.000, 531177.0
1102.097, 532143.0
1103.195, 531979.0
1104.292, 531229.0
1105.389, 533222.0
1106.485, 532119.0
1107.582, 533106.0
1108.678, 532788.0
1109.775, 533813.0
1110.871, 533306.0
1111.967, 532948.0
1113.062, 534186.0
1114.158, 532834.0
1115.254, 533443.0
1116.349, 533339.0
1117.444, 533566.0
1118.539, 533229.0
1119.634, 532494.0
1120.728, 534651.0
1121.823, 534559.0
1122.917, 535802.0
1124.011, 535491.0
1125.105, 535343.0
1126.199, 535242.0
1127.293, 534653.0
1128.386, 535720.0
1129.480, 535067.0
1130.573, 534673.0
1131.666, 536787.0
1132.759, 536392.0
1133.851, 538740.0
1134.944, 537807.0
1136.036, 537870.0
1137.129, 539446.0
1138.221, 537970.0
1139.313, 539550.0
1140.404, 538020.0
1141.496, 540272.0
1142.587, 540225.0
1143.678, 540753.0
1144.770, 541398.0
1145.860, 541031.0
1146.951, 542117.0
1148.042, 541636.0
1149.132, 541838.0
1150.223, 542401.0
1151.313, 543184.0
1152.403, 544330.0
1153.492, 544502.0
1154.582, 545395.0
1155.671, 544112.0
1156.761, 545271.0
1157.850, 545371.0
1158.939, 546563.0
1160.028, 547561.0
1161.116, 546034.0
1162.205, 548100.0
1163.293, 546929.0
1164.381, 548250.0
1165.469, 550526.0
1166.557, 549169.0
1167.645, 552980.0
1168.732, 551496.0
1169.820, 549834.0
1170.907, 552017.0
1171.994, 551214.0
1173.081, 551433.0
1174.167, 551807.0
1175.254, 552657.0
1176.340, 554163.0
1177.426, 554041.1
1178.512, 554633.0
1179.598, 554350.0
1180.684, 554147.0
1181.770, 554262.0
1182.855, 554540.0
1183.940, 556009.0
1185.025, 555173.0
1186.110, 555018.0
1187.195, 556851.0
1188.280, 556202.0
1189.364, 557374.0
1190.448, 556972.0
1191.532, 559294.0
1192.616, 558102.0
1193.700, 559523.0
1194.784, 559458.0
1195.867, 558676.0
1196.950, 560058.0
1198.034, 559703.0
1199.117, 560280.0
1200.199, 560901.0
1201.282, 560980.0
1202.364, 561558.0
1203.447, 561925.0
1204.529, 562322.5
1205.611, 562395.0
1206.693, 563445.0
1207.774, 564513.0
1208.856, 565546.0
1209.937, 565934.6
1211.018, 565924.0
1212.099, 566286.0
1213.180, 566798.0
1214.261, 566477.0
1215.341, 567173.0
1216.422, 568381.0
1217.502, 567321.0
1218.582, 568782.0
1219.662, 567740.0
1220.742, 568713.0
1221.821, 568310.0
1222.900, 571085.0
1223.980, 569303.0
1225.059, 569042.0
1226.138, 571372.0
1227.216, 569593.0
1228.295, 570835.0
1229.373, 570986.0
1230.452, 571010.0
1231.530, 571025.0
1232.608, 571470.0
1233.685, 572893.0
1234.763, 572517.0
1235.840, 572111.0
1236.918, 573745.0
1237.995, 573779.0
1239.072, 574050.0
1240.149, 574792.0
1241.225, 575514.4
1242.302, 576601.0
1243.378, 576546.0
1244.454, 577327.0
1245.530, 577488.9
1246.606, 578293.0
1247.681, 577801.0
1248.757, 579167.0
1249.832, 579589.0
1250.907, 578611.9
1251.982, 579920.9
1253.057, 580831.6
1254.132, 581365.2
1255.206, 580392.2
1256.281, 581364.6
1257.355, 581557.1
1258.429, 581717.7
1259.503, 582963.4
1260.576, 582209.2
1261.650, 583437.7
1262.723, 583874.5
1263.797, 584673.8
1264.870, 584688.6
1265.942, 584945.1
1267.015, 585986.6
1268.088, 586593.7
1269.160, 586517.8
1270.232, 587339.4
1271.304, 586557.3
1272.376, 587182.5
1273.448, 588414.9
1274.520, 588378.4
1275.591, 589213.9
1276.662, 589717.3
1277.733, 588710.5
1278.804, 590329.9
1279.875, 590813.6
1280.946, 590131.1
1282.016, 591660.2
1283.086, 591138.1
1284.156, 591348.1
1285.226, 591504.6
1286.296, 592794.7
1287.366, 593686.2
1288.435, 594200.5
1289.505, 593208.9
1290.574, 594161.9
1291.643, 594335.4
1292.711, 594476.6
1293.780, 595703.3
1294.849, 594930.4
1295.917, 596139.6
1296.985, 596557.4
1298.053, 597337.4
1299.121, 597333.1
1300.189, 597571.1
1301.256, 598593.2
1302.323, 599180.9
1303.391, 599086.4
1304.458, 599889.1
1305.524, 599087.8
1306.591, 599693.9
1307.658, 600907.3
1308.724, 600851.5
1309.790, 601668.2
1310.856, 602152.5
1311.922, 601126.8
1312.988, 602727.3
1314.053, 603191.6
1315.119, 602490.2
1316.184, 604000.3
1317.249, 603459.3
1318.314, 603650.4
1319.379, 604392.6
1320.443, 604559.9
1321.508, 605633.2
1322.572, 605833.8
1323.636, 605956.3
1324.700, 606419.1
1325.764, 607853.0
1326.827, 607853.0
1327.891, 608792.0
1328.954, 609773.0
1330.017, 607791.0
1331.080, 610516.0
1332.143, 608816.0
1333.205, 610673.0
1334.268, 610251.0
1335.330, 611761.0
1336.392, 612327.0
1337.454, 610736.0
1338.516, 612292.0
1339.578, 611667.0
1340.639, 612840.0
1341.701, 612977.0
1342.762, 611600.0
1343.823, 613588.0
1344.883, 613143.0
1345.944, 614038.0
1347.005, 614366.0
1348.065, 614994.0
1349.125, 615586.8
1350.185, 615999.4
1351.245, 616644.0
1352.305, 617114.0
1353.364, 617551.0
1354.424, 618469.0
1355.483, 617092.0
1356.542, 618444.0
1357.601, 618735.0
1358.659, 619364.0
1359.718, 620735.0
1360.776, 619383.0
1361.834, 621080.0
1362.893, 619573.0
1363.950, 619657.0
1365.008, 622732.0
1366.066, 620382.0
1367.123, 621374.0
1368.180, 622758.0
1369.237, 622402.0
1370.294, 620843.0
1371.351, 621390.0
1372.408, 624325.0
1373.464, 622556.0
1374.520, 623901.0
1375.576, 624498.0
1376.632, 623721.0
1377.688, 625311.0
1378.744, 625730.0
1379.799, 625139.0
1380.854, 627070.0
1381.910, 626524.0
1382.965, 627757.0
1384.019, 628592.0
1385.074, 628545.1
1386.128, 629091.4
1387.183, 628799.0
1388.237, 629445.0
1389.291, 629135.0
1390.345, 629820.0
1391.398, 630528.0
1392.452, 630681.0
1393.505, 631640.0
1394.558, 631318.0
1395.611, 630637.0
1396.664, 631898.2
1397.717, 632761.1
1398.769, 633246.7
1399.822, 632226.3
1400.874, 633150.6
1401.926, 633295.4
1402.978, 633408.2
1404.029, 634605.9
1405.081, 633804.2
1406.132, 634984.6
1407.183, 635373.8
1408.234, 636125.1
1409.285, 636092.1
1410.336, 636301.4
1411.387, 637295.1
1412.437, 637854.1
1413.487, 637730.6
1414.537, 638504.5
1415.587, 637674.8
1416.637, 638252.4
1417.686, 639436.8
1418.736, 639352.6
1419.785, 640140.6
1420.834, 640596.2
1421.883, 639541.8
1422.932, 641113.6
1423.980, 641549.3
1425.029, 640819.2
1426.077, 642300.7
1427.125, 641731.0
1428.173, 641893.4
1429.221, 642606.9
1430.269, 642745.9
1431.316, 643790.2
1432.363, 643962.1
1433.410, 644056.1
1434.457, 644490.2
1435.504, 644610.4
1436.551, 645218.8
1437.597, 645255.4
1438.644, 645899.5
1439.690, 646680.9
1440.736, 647389.0
1441.781, 646229.0
1442.827, 650042.0
1443.873, 647413.0
1444.918, 648475.0
1445.963, 650680.0
1447.008, 648915.0
1448.053, 648886.0
1449.098, 648142.0
1450.142, 649091.0
1451.186, 650025.0
1452.231, 650898.0
1453.275, 651408.4
1454.319, 651030.0
1455.362, 652042.0
1456.406, 651934.0
1457.449, 651722.0
1458.492, 652500.0
1459.535, 653320.0
1460.578, 653543.0
1461.621, 655241.0
1462.663, 654941.2
1463.706, 653819.0
1464.748, 655258.0
1465.790, 655256.0
1466.832, 656175.0
1467.874, 654480.0
1468.915, 656418.0
1469.957, 657693.0
1470.998, 656081.0
1472.039, 659941.0
1473.080, 657829.0
1474.121, 658754.0
1475.161, 657971.0
1476.202, 657362.0
1477.242, 659863.0
1478.282, 659697.0
1479.322, 659200.0
1480.362, 660326.0
1481.401, 660183.0
1482.441, 660239.0
1483.480, 660736.0
1484.519, 661800.0
1485.558, 661565.0
1486.597, 662392.0
1487.636, 663406.0
1488.674, 661275.0
1489.712, 662101.0
1490.751, 662652.0
1491.788, 665946.0
1492.826, 663724.0
1493.864, 664455.0
1494.901, 664397.0
1495.939, 664634.0
1496.976, 663733.0
1498.013, 666068.0
1499.050, 665384.0
1500.086, 667305.0
1501.123, 668633.0
1502.159, 667302.0
1503.195, 668317.0
1504.231, 668797.0
1505.267, 669234.0
1506.303, 671331.0
1507.338, 669220.0
1508.374, 671709.0
1509.409, 670610.0
1510.444, 672428.0
1511.479, 674091.0
1512.514, 672193.0
1513.548, 674974.0
1514.583, 673673.0
1515.617, 673755.0
1516.651, 674994.0
1517.685, 674419.0
1518.718, 676971.0
1519.752, 675112.0
1520.785, 675331.0
1521.819, 676325.0
1522.852, 675660.0
1523.885, 677402.0
1524.917, 677523.0
1525.950, 676640.0
1526.982, 677936.0
1528.015, 676614.0
1529.047, 678799.0
1530.079, 678176.0
1531.110, 678175.0
1532.142, 679676.0
1533.173, 679420.0
1534.205, 680609.0
1535.236, 680633.0
1536.267, 680511.0
1537.298, 682986.0
1538.328, 681243.0
1539.359, 682690.0
1540.389, 682358.0
1541.419, 680891.0
1542.449, 683932.0
1543.479, 681061.0
1544.508, 683198.0
1545.538, 683699.0
1546.567, 683009.0
1547.596, 683730.0
1548.625, 683578.0
1549.654, 684518.0
1550.683, 686075.0
1551.711, 685380.0
1552.740, 686705.0
1553.768, 686655.0
1554.796, 687180.0
1555.824, 687234.0
1556.851, 685630.0
1557.879, 686633.0
1558.906, 686366.0
1559.933, 686636.0
1560.960, 687260.0
1561.987, 687076.0
1563.014, 689133.0
1564.041, 687385.0
1565.067, 687748.0
1566.093, 689870.0
1567.119, 687951.0
1568.145, 690354.0
1569.171, 689687.4
1570.196, 686368.0
1571.222, 689686.0
1572.247, 689788.0
1573.272, 690908.0
1574.297, 691133.0
1575.322, 692252.0
1576.346, 693118.0
1577.371, 691743.0
1578.395, 692887.0
1579.419, 693287.0
1580.443, 694016.0
##END=



