##NAMES=Hardystonite
##RRUFFID=R040026
##IDEAL CHEMISTRY=Ca_2_Zn^2+^Si_2_O_7_
##LOCALITY=Franklin, Sussex County, New Jersey, USA
##OWNER=RRUFF
##SOURCE=University of Arizona Mineral Museum
##DESCRIPTION=White massive
##STATUS=The identification of this mineral has been confirmed by X-ray diffraction and chemical analysis
##URL=rruff.info/R040026
##MEASURED CHEMISTRY=(Ca_1.98_Mn_0.02_)_Σ=2_(Zn_0.99_Al_0.01_)_Σ=1_(Si_1.99_Al_0.01_)_Σ=2_O_7_
##PIN_ID=M01345
##ORIENTATION=Laser parallel to -a* (-1 0 0). Fiducial mark perpendicular to laser is parallel to -c [0 0 -1]
64.81800, 2319.000
66.05300, 2720.000
67.28900, 3185.000
68.52400, 3790.000
69.76000, 4514.000
70.99500, 5429.000
72.23000, 6310.000
73.46500, 7588.000
74.70000, 9126.000
75.93400, 10761.00
77.16900, 12623.00
78.40300, 14634.00
79.63700, 16352.00
80.87100, 17937.00
82.10500, 19493.00
83.33900, 21149.00
84.57300, 22682.00
85.80600, 24477.00
87.04000, 26118.00
88.27300, 27790.00
89.50600, 29323.00
90.73900, 31118.00
91.97200, 32641.00
93.20400, 33882.00
94.43700, 35107.00
95.66900, 36283.00
96.90100, 37122.00
98.13300, 37936.00
99.36500, 38953.00
100.5970, 39523.00
101.8290, 39768.00
103.0600, 40761.00
104.2920, 41153.00
105.5230, 41564.00
106.7540, 42268.00
107.9850, 42845.00
109.2160, 43304.00
110.4460, 43636.00
111.6770, 43878.00
112.9070, 44208.00
114.1370, 44591.00
115.3670, 45618.00
116.5970, 46260.00
117.8270, 46759.00
119.0570, 46940.00
120.2860, 46847.00
121.5150, 47085.00
122.7450, 46806.00
123.9740, 45604.00
125.2030, 45200.00
126.4310, 44589.00
127.6600, 45005.00
128.8890, 44677.00
130.1170, 44828.00
131.3450, 44868.00
132.5730, 45349.00
133.8010, 44980.00
135.0290, 45541.00
136.2560, 45525.00
137.4840, 45953.00
138.7110, 46068.00
139.9380, 46248.00
141.1650, 46599.00
142.3920, 46677.39
143.6190, 46732.00
144.8460, 46971.00
146.0720, 47015.00
147.2980, 47137.00
148.5250, 47481.00
149.7510, 47771.00
150.9770, 48038.00
152.2020, 48061.00
153.4280, 47897.00
154.6530, 48062.00
155.8790, 48197.83
157.1040, 48282.02
158.3290, 48694.00
159.5540, 48503.00
160.7780, 48779.00
162.0030, 48631.00
163.2270, 48818.00
164.4520, 48834.88
165.6760, 49085.00
166.9000, 48885.00
168.1240, 48715.00
169.3470, 48743.91
170.5710, 49285.00
171.7940, 49067.00
173.0180, 49199.00
174.2410, 49554.00
175.4640, 49415.00
176.6870, 49556.00
177.9090, 49940.00
179.1320, 49716.00
180.3540, 50062.00
181.5760, 49886.00
182.7990, 49978.00
184.0210, 50338.00
185.2420, 50153.00
186.4640, 49984.00
187.6860, 50169.00
188.9070, 50014.00
190.1280, 50276.00
191.3490, 50532.00
192.5700, 50531.00
193.7910, 50554.00
195.0120, 50549.00
196.2320, 50779.00
197.4520, 50792.00
198.6730, 51138.00
199.8930, 51109.00
201.1130, 51191.00
202.3320, 51492.00
203.5520, 51751.00
204.7720, 51526.00
205.9910, 52101.00
207.2100, 51907.00
208.4290, 52241.00
209.6480, 51973.00
210.8670, 52035.00
212.0850, 52046.00
213.3040, 52438.00
214.5220, 52305.00
215.7400, 52668.00
216.9580, 52682.00
218.1760, 52601.00
219.3940, 52902.00
220.6110, 53143.00
221.8290, 53181.00
223.0460, 53189.00
224.2630, 53243.00
225.4800, 53552.00
226.6970, 53647.00
227.9140, 53565.00
229.1300, 54200.00
230.3470, 54218.00
231.5630, 54259.00
232.7790, 54309.00
233.9950, 54328.00
235.2110, 54982.00
236.4260, 55192.00
237.6420, 55090.00
238.8570, 55567.00
240.0730, 55332.00
241.2880, 55818.00
242.5030, 56018.00
243.7170, 56258.00
244.9320, 56385.63
246.1460, 56431.00
247.3610, 56521.00
248.5750, 56429.00
249.7890, 56613.00
251.0030, 57005.00
252.2170, 56599.00
253.4300, 57071.00
254.6440, 57267.00
255.8570, 57028.00
257.0700, 57169.00
258.2830, 57241.00
259.4960, 57217.00
260.7090, 57774.00
261.9210, 57662.00
263.1330, 57428.00
264.3460, 57922.00
265.5580, 58140.00
266.7700, 58263.00
267.9820, 58369.00
269.1930, 58551.00
270.4050, 59221.00
271.6160, 59182.00
272.8270, 59340.00
274.0380, 59701.00
275.2490, 59501.00
276.4600, 59870.00
277.6710, 59838.00
278.8810, 60201.00
280.0920, 60451.00
281.3020, 60265.00
282.5120, 60540.00
283.7220, 60082.00
284.9310, 60479.00
286.1410, 60459.00
287.3500, 60207.00
288.5600, 60184.00
289.7690, 60313.00
290.9780, 60189.00
292.1870, 60357.00
293.3950, 60160.00
294.6040, 60496.00
295.8120, 60716.00
297.0200, 60699.00
298.2280, 60768.00
299.4360, 60754.00
300.6440, 61004.00
301.8520, 61323.00
303.0590, 61296.00
304.2670, 61494.00
305.4740, 61721.33
306.6810, 62149.00
307.8880, 62130.00
309.0950, 62675.00
310.3010, 62807.00
311.5080, 62950.00
312.7140, 63059.00
313.9200, 63230.00
315.1260, 63028.00
316.3320, 63377.00
317.5380, 63080.00
318.7430, 63529.00
319.9480, 62782.00
321.1540, 62846.00
322.3590, 62593.00
323.5640, 62328.00
324.7680, 62189.00
325.9730, 62290.00
327.1780, 61819.00
328.3820, 61917.00
329.5860, 61535.00
330.7900, 61516.00
331.9940, 61386.00
333.1980, 61565.00
334.4010, 61342.00
335.6050, 61320.00
336.8080, 61609.00
338.0110, 61501.00
339.2140, 61734.00
340.4170, 61484.00
341.6200, 61410.00
342.8220, 61504.00
344.0250, 61029.00
345.2270, 61720.00
346.4290, 61606.00
347.6310, 61609.00
348.8330, 61475.00
350.0340, 61787.00
351.2360, 61635.00
352.4370, 61762.00
353.6380, 62012.00
354.8390, 61849.00
356.0400, 62094.25
357.2410, 61828.00
358.4410, 62305.00
359.6420, 62370.00
360.8420, 62352.00
362.0420, 62425.00
363.2420, 62559.00
364.4420, 62438.00
365.6420, 62840.00
366.8410, 62724.00
368.0410, 62581.00
369.2400, 62698.00
370.4390, 62885.00
371.6380, 62931.00
372.8360, 62973.00
374.0350, 62940.00
375.2330, 63281.00
376.4320, 63195.00
377.6300, 63631.00
378.8280, 63325.00
380.0260, 63324.00
381.2230, 63633.00
382.4210, 63847.00
383.6180, 63784.00
384.8160, 63951.00
386.0130, 63699.00
387.2100, 63938.00
388.4060, 63980.00
389.6030, 64058.00
390.7990, 64200.00
391.9960, 64363.00
393.1920, 64581.00
394.3880, 64546.00
395.5840, 64477.00
396.7790, 65063.00
397.9750, 64733.00
399.1700, 65169.00
400.3660, 64963.00
401.5610, 65321.00
402.7560, 65616.00
403.9510, 65093.00
405.1450, 65699.00
406.3400, 65653.00
407.5340, 65577.00
408.7280, 65759.00
409.9220, 65970.00
411.1160, 65989.00
412.3100, 65996.00
413.5030, 66211.00
414.6970, 66295.28
415.8900, 66490.00
417.0830, 66725.00
418.2760, 66767.00
419.4690, 66894.88
420.6620, 66804.00
421.8540, 66992.00
423.0460, 67094.00
424.2390, 67113.00
425.4310, 67418.00
426.6230, 67431.00
427.8140, 67271.00
429.0060, 67413.00
430.1970, 67748.00
431.3890, 67916.00
432.5800, 68143.09
433.7710, 68305.00
434.9610, 68478.00
436.1520, 68593.00
437.3430, 68544.00
438.5330, 68657.00
439.7230, 68812.00
440.9130, 69317.00
442.1030, 69380.00
443.2930, 69452.00
444.4820, 70014.00
445.6720, 69930.00
446.8610, 69877.00
448.0500, 70422.00
449.2390, 70583.00
450.4280, 70758.00
451.6170, 71123.00
452.8050, 71367.00
453.9940, 71462.00
455.1820, 71682.77
456.3700, 72135.00
457.5580, 71904.00
458.7450, 72071.00
459.9330, 72135.00
461.1200, 71991.00
462.3080, 72597.00
463.4950, 72332.00
464.6820, 72563.00
465.8690, 73156.00
467.0550, 73231.00
468.2420, 73476.00
469.4280, 73910.00
470.6140, 74332.00
471.8000, 74192.00
472.9860, 74525.00
474.1720, 75015.00
475.3570, 75432.00
476.5430, 75669.00
477.7280, 76093.37
478.9130, 76202.88
480.0980, 76555.00
481.2830, 76638.00
482.4680, 76404.00
483.6520, 77085.00
484.8360, 76882.00
486.0210, 76994.00
487.2050, 76602.00
488.3890, 76733.00
489.5720, 76775.00
490.7560, 76269.00
491.9390, 76414.00
493.1220, 76452.00
494.3060, 76191.00
495.4880, 76218.59
496.6710, 76313.00
497.8540, 76019.00
499.0360, 75878.00
500.2190, 75863.00
501.4010, 75732.00
502.5830, 75935.00
503.7650, 75727.00
504.9460, 75419.00
506.1280, 75875.00
507.3090, 76160.00
508.4910, 75660.00
509.6720, 75992.00
510.8530, 75773.00
512.0330, 76124.00
513.2140, 75587.00
514.3940, 75878.00
515.5750, 75667.00
516.7550, 76102.00
517.9350, 76426.00
519.1150, 76246.00
520.2940, 75982.00
521.4740, 76217.00
522.6530, 77085.00
523.8320, 76250.00
525.0110, 76944.00
526.1900, 76816.00
527.3690, 76659.00
528.5480, 77082.00
529.7260, 76753.00
530.9040, 77402.00
532.0820, 77172.00
533.2600, 77653.00
534.4380, 77727.00
535.6160, 77495.00
536.7930, 77992.00
537.9700, 78425.00
539.1480, 78281.00
540.3250, 78450.00
541.5020, 78439.00
542.6780, 79071.00
543.8550, 78738.00
545.0310, 79210.00
546.2070, 78912.00
547.3830, 79424.00
548.5590, 79773.00
549.7350, 79728.00
550.9110, 79993.65
552.0860, 80049.00
553.2610, 80004.00
554.4370, 80121.00
555.6120, 79918.00
556.7860, 80026.88
557.9610, 80179.00
559.1360, 80263.00
560.3100, 80123.00
561.4840, 80545.00
562.6580, 80723.00
563.8320, 80411.00
565.0060, 80898.00
566.1790, 81061.00
567.3530, 81146.00
568.5260, 81421.00
569.6990, 81462.00
570.8720, 81630.00
572.0450, 81756.00
573.2170, 81752.00
574.3900, 81906.00
575.5620, 81840.00
576.7340, 82618.00
577.9060, 82861.00
579.0780, 83031.00
580.2500, 82973.00
581.4210, 83355.00
582.5930, 83781.00
583.7640, 84016.00
584.9350, 84689.00
586.1060, 85210.00
587.2760, 85245.00
588.4470, 85390.00
589.6170, 85583.00
590.7880, 86368.00
591.9580, 86823.00
593.1280, 87149.00
594.2970, 87621.00
595.4670, 88138.00
596.6360, 89042.00
597.8060, 88979.00
598.9750, 89979.00
600.1440, 90992.00
601.3130, 92135.00
602.4810, 93196.00
603.6500, 94892.00
604.8180, 96899.00
605.9860, 99370.00
607.1540, 102143.0
608.3220, 105226.0
609.4900, 108973.0
610.6580, 113074.0
611.8250, 116338.0
612.9920, 119279.0
614.1590, 121422.0
615.3260, 121686.0
616.4930, 121809.0
617.6600, 119833.0
618.8260, 117374.0
619.9920, 114808.0
621.1590, 111450.0
622.3250, 109432.0
623.4900, 106551.0
624.6560, 104550.0
625.8220, 102867.0
626.9870, 101995.0
628.1520, 100968.0
629.3170, 99408.00
630.4820, 98526.00
631.6470, 98033.00
632.8110, 97257.00
633.9760, 96331.00
635.1400, 96163.00
636.3040, 95764.57
637.4680, 95669.00
638.6310, 95677.00
639.7950, 95413.00
640.9590, 95601.00
642.1220, 95740.00
643.2850, 96215.94
644.4480, 97089.00
645.6110, 97802.00
646.7730, 99061.00
647.9360, 100540.0
649.0980, 102415.0
650.2600, 104572.0
651.4220, 107935.0
652.5840, 110937.0
653.7460, 115339.0
654.9070, 120072.0
656.0690, 125962.0
657.2300, 132186.0
658.3910, 139116.0
659.5520, 146200.0
660.7120, 152293.0
661.8730, 157972.0
663.0330, 161436.0
664.1940, 162505.0
665.3540, 161666.0
666.5140, 157688.0
667.6730, 152807.0
668.8330, 146807.0
669.9920, 141096.0
671.1520, 136379.0
672.3110, 130676.0
673.4700, 125870.0
674.6290, 121802.0
675.7870, 118869.0
676.9460, 115426.9
678.1040, 113384.0
679.2620, 110343.0
680.4200, 108183.0
681.5780, 106350.0
682.7360, 104773.0
683.8930, 102958.0
685.0510, 101583.0
686.2080, 100666.0
687.3650, 99966.00
688.5220, 99374.00
689.6780, 98290.00
690.8350, 98234.00
691.9910, 98112.00
693.1480, 97176.00
694.3040, 97091.00
695.4600, 96993.00
696.6150, 96685.00
697.7710, 96478.00
698.9260, 96449.00
700.0820, 96228.00
701.2370, 96333.00
702.3920, 96280.00
703.5460, 96380.00
704.7010, 96217.00
705.8550, 96332.00
707.0100, 96603.00
708.1640, 96290.00
709.3180, 96452.00
710.4720, 96721.00
711.6250, 96641.00
712.7790, 96810.00
713.9320, 96833.91
715.0850, 97186.00
716.2380, 96852.00
717.3910, 96942.00
718.5440, 96941.00
719.6960, 97259.00
720.8490, 97151.00
722.0010, 97607.00
723.1530, 97088.00
724.3050, 97784.00
725.4570, 97538.00
726.6080, 98061.00
727.7600, 97740.00
728.9110, 97816.00
730.0620, 98105.00
731.2130, 97878.00
732.3640, 98113.21
733.5140, 98228.00
734.6650, 98404.00
735.8150, 98176.00
736.9650, 98451.00
738.1150, 98585.00
739.2650, 98897.00
740.4140, 99022.68
741.5640, 99120.00
742.7130, 99215.00
743.8620, 99261.00
745.0110, 99146.00
746.1600, 99098.00
747.3090, 99435.00
748.4570, 99857.00
749.6060, 99482.00
750.7540, 100094.0
751.9020, 100280.0
753.0500, 100356.0
754.1970, 100607.0
755.3450, 100632.8
756.4920, 100853.0
757.6390, 100764.0
758.7860, 101015.0
759.9330, 101175.0
761.0800, 101384.0
762.2260, 101510.9
763.3730, 101421.0
764.5190, 101620.0
765.6650, 101639.0
766.8110, 101446.0
767.9570, 102020.0
769.1020, 101658.0
770.2480, 102553.0
771.3930, 101951.0
772.5380, 102229.0
773.6830, 102554.0
774.8280, 102620.0
775.9720, 102837.0
777.1170, 103019.0
778.2610, 103019.0
779.4050, 103087.0
780.5490, 103305.0
781.6930, 103692.0
782.8360, 103524.0
783.9800, 103823.0
785.1230, 103657.0
786.2660, 104224.0
787.4090, 104141.0
788.5520, 104308.0
789.6950, 104783.0
790.8370, 104866.0
791.9790, 105042.0
793.1220, 104931.0
794.2640, 105331.0
795.4050, 105530.0
796.5470, 105015.0
797.6890, 105073.0
798.8300, 105852.0
799.9710, 105622.0
801.1120, 106146.0
802.2530, 106090.0
803.3940, 106057.0
804.5340, 106610.0
805.6750, 106551.0
806.8150, 107109.0
807.9550, 107236.2
809.0950, 107053.0
810.2340, 107487.0
811.3740, 107992.0
812.5130, 107932.0
813.6520, 108308.0
814.7910, 108279.0
815.9300, 108520.0
817.0690, 108693.0
818.2080, 108546.0
819.3460, 108813.0
820.4840, 108709.0
821.6220, 109273.0
822.7600, 109192.0
823.8980, 109230.0
825.0350, 109756.0
826.1730, 110110.0
827.3100, 110151.0
828.4470, 110105.0
829.5840, 110440.0
830.7210, 110290.0
831.8570, 110918.0
832.9940, 111132.0
834.1300, 111286.0
835.2660, 111806.0
836.4020, 111545.0
837.5380, 112221.0
838.6740, 112112.0
839.8090, 112189.0
840.9440, 112868.0
842.0790, 113387.0
843.2140, 113251.0
844.3490, 113366.0
845.4840, 114024.0
846.6180, 113909.0
847.7520, 114324.0
848.8870, 114449.0
850.0210, 114924.0
851.1540, 115097.6
852.2880, 114798.0
853.4210, 115412.0
854.5550, 115641.0
855.6880, 115562.0
856.8210, 116497.0
857.9540, 115997.0
859.0860, 116513.0
860.2190, 116414.0
861.3510, 116425.0
862.4830, 116719.0
863.6150, 116820.0
864.7470, 117043.0
865.8790, 117445.0
867.0100, 117849.0
868.1410, 117946.0
869.2730, 117897.0
870.4040, 118533.0
871.5340, 118402.0
872.6650, 118818.0
873.7960, 119159.0
874.9260, 119536.0
876.0560, 119606.0
877.1860, 120850.0
878.3160, 121206.0
879.4460, 121796.0
880.5750, 121618.0
881.7040, 122752.0
882.8340, 123481.0
883.9630, 124463.0
885.0920, 124940.0
886.2200, 126105.0
887.3490, 127192.0
888.4770, 128437.0
889.6050, 129613.0
890.7330, 131587.0
891.8610, 133662.0
892.9890, 136192.0
894.1160, 139722.0
895.2440, 143442.0
896.3710, 147398.0
897.4980, 153195.0
898.6250, 159736.0
899.7510, 166991.0
900.8780, 176101.0
902.0040, 186671.0
903.1310, 197543.0
904.2570, 209068.0
905.3820, 220497.0
906.5080, 230346.0
907.6340, 237414.0
908.7590, 240226.0
909.8840, 239466.0
911.0090, 233986.0
912.1340, 224936.0
913.2590, 214503.0
914.3830, 203436.0
915.5080, 191959.0
916.6320, 181719.0
917.7560, 173146.0
918.8800, 165943.0
920.0040, 159941.0
921.1270, 154536.0
922.2510, 150423.0
923.3740, 146408.0
924.4970, 143580.0
925.6200, 141630.0
926.7420, 140205.0
927.8650, 138689.0
928.9870, 137241.0
930.1100, 136417.0
931.2320, 135635.0
932.3540, 134703.0
933.4750, 133957.0
934.5970, 134159.0
935.7180, 133792.0
936.8390, 133709.0
937.9600, 133892.0
939.0810, 133869.0
940.2020, 134236.0
941.3230, 133870.0
942.4430, 134227.0
943.5630, 134336.0
944.6830, 134138.0
945.8030, 134077.0
946.9230, 134348.0
948.0420, 133892.0
949.1620, 133784.0
950.2810, 133690.0
951.4000, 132886.0
952.5190, 132623.0
953.6380, 132926.0
954.7560, 132517.0
955.8750, 132707.0
956.9930, 132732.0
958.1110, 132454.0
959.2290, 132355.0
960.3460, 132526.0
961.4640, 132372.5
962.5810, 132160.0
963.6990, 132344.0
964.8160, 132745.0
965.9320, 132707.0
967.0490, 132787.0
968.1660, 132724.0
969.2820, 133145.0
970.3980, 133106.0
971.5140, 133509.0
972.6300, 134035.0
973.7460, 133821.0
974.8610, 134122.0
975.9770, 134099.0
977.0920, 134823.0
978.2070, 134700.0
979.3220, 135437.0
980.4370, 135862.0
981.5510, 136260.0
982.6660, 136852.0
983.7800, 137296.0
984.8940, 138058.7
986.0080, 138895.3
987.1210, 139795.0
988.2350, 141013.0
989.3480, 142233.0
990.4610, 143759.0
991.5750, 144860.0
992.6870, 146513.0
993.8000, 147970.0
994.9130, 149485.0
996.0250, 150429.0
997.1370, 151437.0
998.2490, 152309.0
999.3610, 152957.0
1000.473, 153518.0
1001.584, 152732.0
1002.696, 152641.0
1003.807, 152928.0
1004.918, 152736.0
1006.029, 152662.0
1007.139, 151307.0
1008.250, 150810.0
1009.360, 149145.0
1010.470, 148435.0
1011.580, 147998.0
1012.690, 147004.0
1013.800, 146675.0
1014.909, 145535.0
1016.019, 145529.0
1017.128, 145272.0
1018.237, 144529.0
1019.346, 144065.0
1020.454, 143382.0
1021.563, 143627.0
1022.671, 143130.0
1023.779, 142690.0
1024.887, 142406.0
1025.995, 142089.8
1027.103, 141253.0
1028.210, 141714.0
1029.318, 141610.0
1030.425, 141586.0
1031.532, 140845.0
1032.638, 140806.0
1033.745, 140923.0
1034.852, 141155.0
1035.958, 141181.9
1037.064, 141327.8
1038.170, 141327.0
1039.276, 141548.0
1040.381, 141469.0
1041.487, 141618.0
1042.592, 141488.0
1043.697, 141340.0
1044.802, 141554.7
1045.907, 141572.0
1047.012, 141891.0
1048.116, 142083.7
1049.220, 142295.0
1050.324, 142423.0
1051.428, 142569.0
1052.532, 142729.0
1053.636, 143418.0
1054.739, 143391.0
1055.842, 143611.0
1056.946, 143489.0
1058.048, 143466.0
1059.151, 143794.0
1060.254, 143794.0
1061.356, 144076.0
1062.459, 143886.0
1063.561, 144592.0
1064.662, 144662.0
1065.764, 145099.0
1066.866, 144846.0
1067.967, 144681.0
1069.068, 145423.0
1070.169, 144953.0
1071.270, 145380.0
1072.371, 145258.0
1073.472, 145793.0
1074.572, 146471.0
1075.672, 146824.0
1076.772, 146567.0
1077.872, 146600.0
1078.972, 146948.0
1080.071, 147427.0
1081.171, 147800.0
1082.270, 148003.6
1083.369, 147961.0
1084.468, 148316.0
1085.567, 148050.0
1086.665, 148096.0
1087.763, 148656.0
1088.862, 149070.0
1089.960, 149306.0
1091.057, 149409.0
1092.155, 149362.0
1093.253, 149436.0
1094.350, 149368.0
1095.447, 149217.0
1096.544, 149717.0
1097.641, 149619.0
1098.738, 150346.0
1099.834, 150542.0
1100.930, 150902.0
1102.027, 150432.0
1103.123, 151352.0
1104.218, 150888.0
1105.314, 151589.0
1106.409, 151631.0
1107.505, 151344.0
1108.600, 152085.0
1109.695, 152183.0
1110.790, 152051.0
1111.884, 151958.0
1112.979, 152656.0
1114.073, 153303.0
1115.167, 152777.0
1116.261, 153339.0
1117.355, 153317.0
1118.448, 153303.0
1119.542, 153324.0
1120.635, 153681.0
1121.728, 154088.0
1122.821, 153701.0
1123.914, 154845.0
1125.006, 154431.0
1126.099, 154993.0
1127.191, 155745.0
1128.283, 155019.0
1129.375, 155797.0
1130.466, 155220.0
1131.558, 155664.0
1132.649, 156124.0
1133.741, 156205.0
1134.832, 156956.0
1135.922, 156854.0
1137.013, 156618.0
1138.104, 156997.0
1139.194, 157427.0
1140.284, 157098.0
1141.374, 157111.0
1142.464, 157856.0
1143.554, 157725.0
1144.643, 158105.0
1145.733, 158615.0
1146.822, 158045.0
1147.911, 157965.0
1148.999, 158530.0
1150.088, 158893.0
1151.177, 159044.0
1152.265, 159242.0
1153.353, 159319.0
1154.441, 159571.0
1155.529, 159850.9
1156.616, 160098.0
1157.704, 160399.0
1158.791, 160813.0
1159.878, 160854.0
1160.965, 161597.0
1162.052, 161628.0
1163.138, 161780.0
1164.225, 162083.0
1165.311, 162035.0
1166.397, 162438.0
1167.483, 162551.0
1168.569, 162622.0
1169.654, 162728.0
1170.740, 163125.0
1171.825, 162842.0
1172.910, 163729.0
1173.995, 163536.0
1175.080, 163444.0
1176.164, 164316.0
1177.248, 164502.0
1178.333, 164733.0
1179.417, 165316.0
1180.501, 165161.0
1181.584, 164942.0
1182.668, 164716.0
1183.751, 165482.0
1184.834, 165856.0
1185.917, 165564.0
1187.000, 166117.0
1188.083, 165965.0
1189.165, 166391.0
1190.247, 165997.0
1191.329, 167130.0
1192.411, 167154.0
1193.493, 167017.0
1194.575, 167070.0
1195.656, 166954.0
1196.738, 167183.0
1197.819, 167925.0
1198.900, 167931.0
1199.980, 168273.0
1201.061, 168137.0
1202.141, 168628.0
1203.222, 168666.0
1204.302, 168654.0
1205.381, 168857.0
1206.461, 169554.0
1207.541, 168839.0
1208.620, 169698.0
1209.699, 169674.0
1210.778, 170327.0
1211.857, 169997.0
1212.936, 170566.0
1214.014, 170764.0
1215.093, 170731.0
1216.171, 171022.0
1217.249, 171688.0
1218.327, 172089.0
1219.404, 171762.0
1220.482, 172455.0
1221.559, 171937.0
1222.636, 172685.0
1223.713, 173284.0
1224.790, 172605.0
1225.867, 173458.0
1226.943, 173532.0
1228.019, 173828.0
1229.095, 173857.0
1230.171, 174127.0
1231.247, 174402.0
1232.323, 174704.0
1233.398, 175013.0
1234.473, 174745.0
1235.548, 174534.0
1236.623, 175568.0
1237.698, 174871.0
1238.773, 176116.0
1239.847, 175759.0
1240.921, 176330.0
1241.995, 176335.0
1243.069, 175934.0
1244.143, 176196.0
1245.216, 176990.0
1246.290, 177300.0
1247.363, 177390.0
1248.436, 177212.0
1249.509, 177802.0
1250.581, 178177.0
1251.654, 178223.0
1252.726, 179294.0
1253.798, 178550.0
1254.870, 179044.0
1255.942, 178429.0
1257.013, 179297.0
1258.085, 179115.0
1259.156, 179115.0
1260.227, 179761.0
1261.298, 180207.0
1262.369, 180217.0
1263.439, 180158.0
1264.510, 180828.0
1265.580, 180850.0
1266.650, 180523.0
1267.720, 181455.0
1268.790, 180930.0
1269.859, 181550.0
1270.929, 182134.0
1271.998, 181650.0
1273.067, 182315.0
1274.136, 182153.0
1275.204, 182642.0
1276.273, 182200.0
1277.341, 182923.0
1278.409, 182977.0
1279.477, 183014.0
1280.545, 184127.0
1281.613, 183664.0
1282.680, 183759.0
1283.747, 184220.0
1284.814, 184606.0
1285.881, 184985.0
1286.948, 185222.0
1288.015, 185578.0
1289.081, 185462.0
1290.147, 185695.0
1291.213, 185378.0
1292.279, 185971.0
1293.345, 186102.0
1294.410, 186701.0
1295.476, 186578.0
1296.541, 186696.0
1297.606, 186876.0
1298.671, 187089.0
1299.736, 187169.0
1300.800, 187627.0
1301.864, 187961.0
1302.928, 187731.0
1303.992, 187906.0
1305.056, 188916.0
1306.120, 187819.0
1307.183, 189434.0
1308.247, 188835.0
1309.310, 189383.0
1310.373, 189773.0
1311.435, 190068.0
1312.498, 189793.0
1313.560, 190095.0
1314.623, 190168.0
1315.685, 190381.0
1316.747, 190894.0
1317.808, 191425.0
1318.870, 190821.0
1319.931, 191576.0
1320.992, 192125.0
1322.053, 191706.0
1323.114, 192494.0
1324.175, 192431.0
1325.235, 192541.0
1326.296, 193092.0
1327.356, 193895.0
1328.416, 194476.0
1329.476, 194472.5
1330.535, 194595.0
1331.595, 194430.0
1332.654, 194547.7
1333.713, 194330.0
1334.772, 194683.0
1335.831, 195132.0
1336.889, 195297.0
1337.948, 194930.0
1339.006, 195662.0
1340.064, 195176.0
1341.122, 197459.0
1342.179, 195793.0
1343.237, 196651.0
1344.294, 197846.0
1345.352, 196831.0
1346.409, 197191.0
1347.465, 196981.0
1348.522, 197681.0
1349.578, 197539.0
1350.635, 198054.0
1351.691, 198238.0
1352.747, 198184.0
1353.803, 198557.0
1354.858, 198846.0
1355.914, 199664.0
1356.969, 199299.0
1358.024, 199031.0
1359.079, 200370.0
1360.134, 200200.0
1361.188, 199988.0
1362.243, 200196.0
1363.297, 200457.0
1364.351, 201073.0
1365.405, 201199.0
1366.458, 201188.0
1367.512, 202170.0
1368.565, 201627.0
1369.618, 201744.0
1370.671, 202508.0
1371.724, 202728.0
1372.777, 202386.0
1373.829, 203224.0
1374.881, 203619.0
1375.933, 203230.0
1376.985, 203119.0
1378.037, 203953.0
1379.089, 203497.0
1380.140, 204510.0
1381.191, 204374.0
1382.242, 204575.0
1383.293, 204862.0
1384.344, 204521.0
1385.395, 205307.0
1386.445, 205080.0
1387.495, 205023.0
1388.545, 206002.0
1389.595, 206145.0
1390.644, 206642.0
1391.694, 206631.0
1392.743, 207136.0
1393.792, 207291.0
1394.841, 207634.4
1395.890, 207821.0
1396.939, 208048.0
1397.987, 208483.0
1399.035, 208016.0
1400.083, 208654.0
1401.131, 209366.0
1402.179, 209035.0
1403.227, 208770.0
1404.274, 208775.0
1405.321, 208999.0
1406.368, 209148.6
1407.415, 209588.0
1408.462, 210062.0
1409.508, 210232.0
1410.554, 211178.0
1411.601, 210531.0
1412.646, 211163.0
1413.692, 211407.0
1414.738, 211162.0
1415.783, 210770.0
1416.829, 212003.0
1417.874, 211796.0
1418.919, 212213.0
1419.963, 212447.0
1421.008, 212366.0
1422.052, 212699.0
1423.096, 213003.0
1424.140, 213190.0
1425.184, 213688.0
1426.228, 213814.0
1427.271, 213926.0
1428.315, 214070.0
1429.358, 214592.0
1430.401, 214379.0
1431.444, 214944.0
1432.486, 215234.0
1433.529, 215351.0
1434.571, 215651.0
1435.613, 215742.0
1436.655, 215651.0
1437.697, 216043.0
1438.738, 215980.0
1439.780, 216325.1
1440.821, 217065.0
1441.862, 217075.0
1442.903, 217274.0
1443.943, 217822.0
1444.984, 217968.0
1446.024, 217949.0
1447.064, 218002.0
1448.104, 219273.0
1449.144, 217746.0
1450.184, 219461.0
1451.223, 219176.0
1452.262, 219265.0
1453.301, 219010.0
1454.340, 219432.0
1455.379, 220367.0
1456.418, 220350.0
1457.456, 220794.0
1458.494, 220547.0
1459.532, 221236.0
1460.570, 221350.0
1461.608, 221510.0
1462.645, 221300.0
1463.683, 221904.0
1464.720, 221760.0
1465.757, 222542.0
1466.793, 221920.0
1467.830, 222016.0
1468.867, 222310.0
1469.903, 222375.0
1470.939, 222916.0
1471.975, 222981.0
1473.010, 223547.0
1474.046, 223819.0
1475.081, 224019.0
1476.117, 224642.0
1477.152, 224007.0
1478.186, 224848.0
1479.221, 224295.0
1480.256, 224941.0
1481.290, 225254.0
1482.324, 225711.0
1483.358, 225942.0
1484.392, 225794.0
1485.425, 226188.0
1486.459, 226211.5
1487.492, 226953.0
1488.525, 226373.0
1489.558, 226962.0
1490.591, 226916.0
1491.623, 227431.0
1492.656, 226968.0
1493.688, 228103.0
1494.720, 228196.0
1495.752, 227463.0
1496.783, 228853.0
1497.815, 228665.0
1498.846, 228889.0
1499.877, 228897.0
1500.908, 229466.0
1501.939, 229713.0
1502.970, 229963.0
1504.000, 229790.0
1505.030, 230692.0
1506.060, 230827.0
1507.090, 230966.0
1508.120, 231625.0
1509.149, 231806.0
1510.179, 231771.0
1511.208, 232017.0
1512.237, 232148.0
1513.266, 232480.0
1514.294, 232289.0
1515.323, 232451.0
1516.351, 232794.0
1517.379, 233154.0
1518.407, 232963.0
1519.435, 233747.0
1520.462, 234281.0
1521.490, 234333.0
1522.517, 233796.0
1523.544, 234905.0
1524.571, 234558.0
1525.598, 235343.0
1526.624, 235009.0
1527.651, 235055.0
1528.677, 236101.0
1529.703, 235788.0
1530.728, 235879.0
1531.754, 236719.0
1532.780, 236677.0
1533.805, 236427.0
1534.830, 236442.0
1535.855, 236615.0
1536.880, 237541.0
1537.904, 237479.0
1538.928, 238112.0
1539.953, 237556.0
1540.977, 238752.0
1542.000, 238134.0
1543.024, 238589.0
1544.048, 238469.0
1545.071, 238858.0
1546.094, 238983.0
1547.117, 239322.0
1548.140, 239347.0
1549.162, 240098.0
1550.185, 239994.0
1551.207, 240146.0
1552.229, 240649.0
1553.251, 240641.0
1554.273, 240824.6
1555.294, 240978.0
1556.316, 240975.0
1557.337, 241622.0
1558.358, 241763.0
1559.379, 242376.0
1560.399, 242230.0
1561.420, 242045.0
1562.440, 243042.0
1563.460, 242334.0
1564.480, 242494.0
1565.500, 243016.0
1566.519, 243841.0
1567.539, 242857.0
1568.558, 243484.0
1569.577, 244343.0
1570.596, 244154.0
1571.614, 244574.0
1572.633, 244642.0
1573.651, 244855.0
1574.669, 245471.0
1575.687, 245427.0
1576.705, 245519.0
1577.723, 246024.0
1578.740, 246072.0
##END=



