##NAMES=Heulandite-Ca
##RRUFFID=R050017
##IDEAL CHEMISTRY=(Ca,Na,K)_5_(Si_27_Al_9_)O_72_&#183;26H_2_O
##LOCALITY=Poona, Maharashtra State, India
##OWNER=RRUFF
##SOURCE=Eugene Schlepp
##DESCRIPTION=Single crystals
##STATUS=The identification of this mineral has been confirmed by X-ray diffraction and chemical analysis
##URL=rruff.info/R050017
##MEASURED CHEMISTRY=(Ca_.70_Na_.22_K_.02_[box]_0.06_)_5_(Si_0.77_Al_0.23_)_36_O_72_Â·24H_2_O
##PIN_ID=L00517
##ORIENTATION=Laser parallel to c* (0 0 1). Fiducial mark perpendicular to laser is parallel to -a [-1 0 0]
194.520, 26520.000
195.898, 26565.000
197.275, 26434.000
198.652, 26786.000
200.029, 26380.000
201.405, 26377.000
202.782, 26051.000
204.158, 26282.000
205.534, 26499.000
206.909, 25967.000
208.285, 26237.000
209.660, 26165.000
211.035, 25996.000
212.410, 26238.000
213.784, 25949.000
215.159, 26121.000
216.533, 26246.000
217.907, 26220.000
219.281, 26323.867
220.654, 26214.000
222.027, 26398.000
223.400, 26358.000
224.773, 26421.000
226.146, 26280.000
227.518, 26406.000
228.891, 26424.000
230.263, 26764.000
231.634, 26864.000
233.006, 26945.000
234.377, 27222.000
235.748, 27214.000
237.119, 27566.000
238.490, 27826.000
239.860, 27875.000
241.231, 28421.000
242.601, 28486.000
243.970, 28803.000
245.340, 28716.000
246.709, 28800.000
248.079, 29205.000
249.448, 28697.000
250.816, 29008.000
252.185, 28656.000
253.553, 28469.000
254.921, 28554.000
256.289, 28160.000
257.657, 27904.000
259.024, 27677.000
260.391, 27627.000
261.758, 27075.000
263.125, 27072.000
264.492, 26791.000
265.858, 26456.000
267.224, 26586.000
268.590, 25848.000
269.956, 26068.000
271.321, 25706.000
272.687, 25640.000
274.052, 25066.000
275.416, 25294.000
276.781, 25030.000
278.146, 24673.000
279.510, 24760.000
280.874, 24492.000
282.237, 24564.000
283.601, 24049.000
284.964, 23798.000
286.327, 24238.000
287.690, 23858.000
289.053, 23797.000
290.416, 23909.000
291.778, 23633.000
293.140, 23808.000
294.502, 23418.000
295.863, 23701.000
297.225, 23600.000
298.586, 23610.000
299.947, 23603.000
301.308, 23465.000
302.668, 23480.000
304.029, 23606.000
305.389, 23687.000
306.749, 23552.000
308.108, 23771.000
309.468, 23832.000
310.827, 23853.111
312.186, 24014.000
313.545, 23944.000
314.903, 23976.000
316.262, 23976.000
317.620, 24059.486
318.978, 24209.000
320.336, 24237.000
321.693, 24461.000
323.051, 24459.000
324.408, 24349.000
325.765, 24891.000
327.121, 24702.000
328.478, 24953.000
329.834, 25027.000
331.190, 25372.000
332.546, 25196.000
333.902, 25561.000
335.257, 25544.000
336.612, 25800.000
337.967, 26028.000
339.322, 26153.000
340.677, 26459.000
342.031, 26692.000
343.385, 26906.000
344.739, 27142.000
346.093, 27186.000
347.446, 27527.000
348.799, 27875.000
350.153, 28456.000
351.505, 28806.000
352.858, 28872.000
354.210, 29344.000
355.563, 29568.000
356.915, 30077.000
358.267, 30520.000
359.618, 30808.000
360.969, 31432.000
362.321, 31738.000
363.672, 32274.000
365.022, 32912.000
366.373, 33420.000
367.723, 34129.000
369.073, 34312.000
370.423, 35109.000
371.773, 35576.000
373.122, 36473.000
374.471, 37520.000
375.821, 37908.000
377.169, 39228.000
378.518, 39393.000
379.866, 40532.000
381.215, 41928.000
382.563, 42730.000
383.910, 44004.000
385.258, 45232.000
386.605, 46884.000
387.952, 47442.000
389.299, 49736.000
390.646, 50674.000
391.992, 52296.000
393.339, 54280.000
394.685, 55955.000
396.031, 58170.000
397.376, 59032.000
398.722, 60809.000
400.067, 61713.000
401.412, 62112.000
402.757, 62584.703
404.101, 63128.000
405.446, 61889.000
406.790, 61291.000
408.134, 59664.000
409.478, 58444.000
410.821, 56624.000
412.165, 53881.000
413.508, 52778.000
414.851, 50442.000
416.193, 48418.000
417.536, 46714.000
418.878, 45217.000
420.220, 43638.000
421.562, 42050.672
422.904, 40650.000
424.245, 39212.000
425.586, 37799.000
426.927, 36995.000
428.268, 35162.000
429.609, 34002.000
430.949, 33368.000
432.289, 32902.000
433.629, 31581.000
434.969, 31347.000
436.309, 30688.000
437.648, 30174.000
438.987, 29752.000
440.326, 29371.076
441.665, 29048.533
443.003, 28883.000
444.342, 28562.000
445.680, 28476.000
447.018, 28337.000
448.355, 28048.000
449.693, 28206.000
451.030, 28318.000
452.367, 28693.000
453.704, 28289.000
455.041, 29026.000
456.377, 29163.000
457.713, 29850.000
459.049, 30432.000
460.385, 31111.000
461.721, 32064.000
463.056, 32397.000
464.391, 33180.000
465.726, 33984.000
467.061, 33980.000
468.395, 34176.000
469.730, 35029.000
471.064, 34794.000
472.398, 35820.000
473.731, 36058.000
475.065, 37420.000
476.398, 38517.000
477.731, 40194.000
479.064, 41670.000
480.397, 43314.000
481.729, 44940.000
483.062, 45608.000
484.394, 46637.000
485.725, 46193.000
487.057, 45731.000
488.389, 44594.000
489.720, 42376.000
491.051, 40868.000
492.382, 38736.000
493.712, 37136.000
495.043, 35155.000
496.373, 33395.000
497.703, 32280.000
499.032, 31120.000
500.362, 29900.000
501.691, 29196.000
503.020, 28130.000
504.349, 27989.000
505.678, 27407.000
507.007, 27017.000
508.335, 26593.000
509.663, 26440.000
510.991, 26465.000
512.319, 25712.000
513.646, 26058.000
514.973, 25490.000
516.300, 25625.000
517.627, 25572.000
518.954, 25085.000
520.280, 25352.000
521.607, 25046.000
522.933, 25163.000
524.259, 24990.000
525.584, 24900.000
526.910, 25008.000
528.235, 24914.000
529.560, 25018.000
530.885, 24785.000
532.209, 24567.000
533.534, 24878.000
534.858, 24448.000
536.182, 24506.000
537.506, 24526.000
538.829, 24528.000
540.152, 24531.000
541.476, 24477.621
542.799, 24407.000
544.121, 24368.000
545.444, 24406.000
546.766, 24408.000
548.088, 24360.000
549.410, 24416.000
550.732, 24400.000
552.053, 24163.000
553.375, 24190.000
554.696, 24207.000
556.017, 24329.000
557.337, 24209.000
558.658, 24200.000
559.978, 24195.000
561.298, 24173.000
562.618, 23969.000
563.938, 24202.000
565.257, 24437.000
566.576, 24049.000
567.895, 24141.000
569.214, 24496.000
570.533, 24179.000
571.851, 24326.000
573.170, 24531.000
574.488, 24333.000
575.805, 24582.000
577.123, 24417.000
578.440, 24858.000
579.758, 24842.000
581.075, 24720.000
582.391, 25272.000
583.708, 25102.000
585.024, 25204.000
586.341, 25349.000
587.657, 25620.000
588.972, 25906.000
590.288, 25743.000
591.603, 25838.000
592.918, 26278.000
594.233, 26459.000
595.548, 26999.000
596.863, 26992.000
598.177, 27453.000
599.491, 27712.000
600.805, 27953.000
602.119, 28198.000
603.432, 28651.000
604.746, 29366.000
606.059, 29347.000
607.372, 29432.000
608.685, 29959.000
609.997, 29546.000
611.309, 29962.000
612.621, 29700.000
613.933, 29793.000
615.245, 29716.000
616.557, 29634.000
617.868, 29414.000
619.179, 29218.000
620.490, 29014.000
621.801, 29454.000
623.111, 28838.000
624.421, 29220.000
625.731, 28409.000
627.041, 28693.000
628.351, 27953.000
629.660, 27334.000
630.970, 27740.000
632.279, 26768.000
633.588, 26881.000
634.896, 26404.000
636.205, 26408.000
637.513, 26209.000
638.821, 26241.000
640.129, 26336.000
641.437, 26299.744
642.744, 26394.209
644.051, 26402.000
645.358, 26448.000
646.665, 26480.000
647.972, 26333.000
649.278, 26157.000
650.584, 26237.000
651.890, 26434.000
653.196, 26147.000
654.502, 25977.000
655.807, 25674.000
657.113, 25829.000
658.418, 25722.000
659.722, 25615.000
661.027, 25313.000
662.331, 25118.000
663.636, 25499.000
664.940, 24868.000
666.244, 25441.000
667.547, 25076.000
668.851, 25059.000
670.154, 25297.000
671.457, 25022.000
672.760, 25277.000
674.062, 25233.000
675.365, 24960.000
676.667, 25441.000
677.969, 25390.000
679.271, 25270.000
680.572, 25223.000
681.874, 25036.000
683.175, 25416.000
684.476, 25122.000
685.777, 25459.000
687.077, 25084.000
688.378, 25359.000
689.678, 25556.000
690.978, 25411.000
692.278, 25228.000
693.577, 25792.000
694.877, 25282.000
696.176, 25845.000
697.475, 25443.000
698.774, 25836.000
700.072, 25793.000
701.371, 25520.000
702.669, 25682.000
703.967, 25964.000
705.265, 26085.000
706.562, 25888.000
707.860, 25453.000
709.157, 26136.000
710.454, 25614.000
711.751, 26102.000
713.047, 26270.000
714.344, 26024.000
715.640, 25766.000
716.936, 25920.000
718.232, 26182.000
719.527, 26142.000
720.823, 25962.000
722.118, 26224.000
723.413, 26026.000
724.708, 26226.000
726.002, 26513.000
727.297, 25910.000
728.591, 26398.000
729.885, 26440.000
731.179, 26314.000
732.472, 26386.000
733.766, 26318.000
735.059, 26421.000
736.352, 26312.000
737.645, 26502.000
738.937, 26664.000
740.230, 26479.000
741.522, 26738.000
742.814, 26631.000
744.106, 26788.000
745.397, 26961.000
746.689, 26717.000
747.980, 27077.000
749.271, 26857.000
750.562, 27224.000
751.853, 27038.000
753.143, 27163.000
754.433, 26845.189
755.723, 27264.229
757.013, 27504.402
758.303, 27575.326
759.592, 26970.061
760.881, 27237.941
762.170, 27155.904
763.459, 27059.520
764.748, 27450.293
766.036, 26943.367
767.325, 27326.416
768.613, 27354.197
769.901, 27544.572
771.188, 27382.859
772.476, 27329.900
773.763, 27629.125
775.050, 27733.338
776.337, 27531.096
777.624, 27731.799
778.910, 27212.557
780.196, 27325.068
781.482, 27710.152
782.768, 27525.605
784.054, 27732.736
785.339, 27790.686
786.625, 27170.715
787.910, 27729.721
789.195, 27778.855
790.479, 27304.453
791.764, 27823.062
793.048, 27420.834
794.332, 27347.285
795.616, 27521.092
796.900, 27437.039
798.183, 27759.520
799.467, 27690.357
800.750, 27586.197
802.033, 27634.744
803.316, 27250.564
804.598, 27669.170
805.880, 27539.398
807.163, 27682.223
808.445, 27886.822
809.726, 27618.328
811.008, 27850.688
812.289, 27306.346
813.570, 27411.891
814.851, 27447.457
816.132, 27898.418
817.413, 27357.859
818.693, 27445.342
819.973, 27800.236
821.253, 27780.959
822.533, 27918.125
823.813, 27592.152
825.092, 27701.254
826.371, 27690.432
827.650, 28094.020
828.929, 28170.447
830.208, 27852.326
831.486, 27535.867
832.764, 27969.271
834.042, 27691.947
835.320, 27798.053
836.598, 27508.156
837.875, 27560.170
839.152, 27606.762
840.429, 27828.629
841.706, 27519.012
842.983, 27898.812
844.259, 27880.141
845.536, 27978.854
846.812, 28064.500
848.088, 27615.445
849.363, 27604.707
850.639, 28221.182
851.914, 27881.133
853.189, 27734.141
854.464, 27724.389
855.739, 28362.336
857.013, 28398.246
858.288, 27714.557
859.562, 28323.953
860.836, 28137.812
862.110, 28188.078
863.383, 28152.088
864.656, 28141.627
865.930, 27806.410
867.203, 28093.000
868.475, 28462.000
869.748, 28051.000
871.020, 28182.000
872.292, 28336.000
873.564, 28096.000
874.836, 28285.000
876.108, 28133.000
877.379, 28353.000
878.650, 28291.000
879.922, 28134.000
881.192, 28229.000
882.463, 28506.000
883.733, 28263.000
885.004, 28425.000
886.274, 28219.000
887.544, 28520.000
888.813, 28408.000
890.083, 28161.000
891.352, 28587.000
892.621, 28388.000
893.890, 28320.000
895.159, 28266.000
896.427, 28196.000
897.695, 28668.000
898.964, 28646.000
900.232, 28472.000
901.499, 28741.000
902.767, 28608.000
904.034, 28418.000
905.301, 28739.000
906.568, 28693.000
907.835, 28932.000
909.102, 28517.000
910.368, 28436.000
911.634, 28806.000
912.900, 28317.000
914.166, 29107.000
915.432, 28560.000
916.697, 28215.000
917.962, 28886.000
919.227, 28720.000
920.492, 28846.000
921.757, 28771.000
923.021, 28760.000
924.285, 28803.000
925.550, 28941.000
926.813, 28826.000
928.077, 28976.000
929.341, 28723.000
930.604, 29122.000
931.867, 28737.000
933.130, 28786.000
934.393, 29328.000
935.655, 28716.000
936.918, 29392.000
938.180, 28988.000
939.442, 28995.756
940.703, 29020.658
941.965, 29040.000
943.226, 28853.000
944.488, 29160.000
945.749, 29304.000
947.009, 29571.000
948.270, 29488.000
949.530, 29494.000
950.791, 29644.000
952.051, 29492.648
953.311, 29476.162
954.570, 29358.000
955.830, 29298.000
957.089, 29323.000
958.348, 29296.000
959.607, 29392.000
960.866, 29356.000
962.124, 29426.588
963.383, 29670.000
964.641, 29467.000
965.899, 29552.000
967.156, 29406.000
968.414, 29411.000
969.671, 29429.059
970.928, 29482.000
972.185, 29475.000
973.442, 29628.000
974.699, 29685.000
975.955, 29786.000
977.211, 29838.000
978.468, 29915.000
979.723, 29873.000
980.979, 29799.000
982.234, 30576.000
983.490, 29808.000
984.745, 30306.000
986.000, 30601.000
987.254, 30291.000
988.509, 30641.000
989.763, 30650.000
991.017, 30688.000
992.271, 30905.000
993.525, 30776.000
994.779, 31148.000
996.032, 31173.000
997.285, 30910.670
998.538, 31337.672
999.791, 31597.344
1001.044, 31698.678
1002.296, 31167.402
1003.548, 31452.963
1004.800, 31411.174
1006.052, 31355.963
1007.304, 31756.492
1008.555, 31621.000
1009.807, 31556.000
1011.058, 31526.000
1012.309, 31671.018
1013.559, 31676.000
1014.810, 31842.000
1016.060, 31821.000
1017.310, 31759.000
1018.560, 31846.000
1019.810, 32024.000
1021.060, 32134.000
1022.309, 32030.000
1023.558, 32320.000
1024.807, 32056.000
1026.056, 32489.000
1027.305, 32458.000
1028.553, 32872.000
1029.801, 32717.000
1031.049, 32318.000
1032.297, 32731.000
1033.545, 32774.000
1034.793, 32683.000
1036.040, 32781.000
1037.287, 32660.000
1038.534, 32725.152
1039.781, 33002.000
1041.027, 32775.000
1042.274, 32892.000
1043.520, 32846.000
1044.766, 32836.000
1046.012, 32888.000
1047.257, 32824.000
1048.503, 33449.000
1049.748, 32651.000
1050.993, 33313.000
1052.238, 33124.000
1053.483, 32963.000
1054.727, 33116.000
1055.971, 33093.000
1057.216, 32826.000
1058.459, 33174.000
1059.703, 32983.000
1060.947, 33260.000
1062.190, 33284.000
1063.433, 32941.000
1064.676, 33070.000
1065.919, 33064.000
1067.162, 33104.000
1068.404, 33007.000
1069.646, 32937.000
1070.888, 33362.000
1072.130, 33115.000
1073.372, 33330.000
1074.613, 33725.000
1075.855, 33468.000
1077.096, 33628.000
1078.337, 34105.000
1079.578, 33644.000
1080.818, 34361.000
1082.059, 34109.000
1083.299, 34441.000
1084.539, 34313.000
1085.779, 34516.000
1087.018, 34348.000
1088.258, 34356.000
1089.497, 34080.000
1090.736, 34320.000
1091.975, 34206.000
1093.213, 34332.000
1094.452, 34553.348
1095.690, 34436.000
1096.928, 34953.000
1098.166, 35153.000
1099.404, 35201.000
1100.642, 34816.000
1101.879, 34938.000
1103.116, 34852.000
1104.353, 35235.000
1105.590, 35028.000
1106.827, 35512.000
1108.063, 35047.000
1109.299, 35177.000
1110.536, 35153.000
1111.771, 34910.000
1113.007, 35175.000
1114.243, 35332.000
1115.478, 35024.000
1116.713, 35451.000
1117.948, 35365.000
1119.183, 35139.520
1120.418, 35437.340
1121.652, 35608.129
1122.886, 35658.715
1124.120, 35229.090
1125.354, 35419.562
1126.588, 35361.523
1127.821, 35293.293
1129.055, 35571.039
1130.288, 35211.254
1131.521, 35483.504
1132.753, 35503.453
1133.986, 35638.879
1135.218, 35524.258
1136.450, 35486.863
1137.682, 35699.594
1138.914, 35773.828
1140.146, 35630.422
1141.377, 35773.176
1142.609, 35404.648
1143.840, 35484.777
1145.071, 35534.000
1146.301, 35627.000
1147.532, 35460.000
1148.762, 35318.000
1149.992, 35256.000
1151.222, 35393.000
1152.452, 35578.000
1153.682, 35452.000
1154.911, 35304.000
1156.140, 35636.000
1157.369, 35360.000
1158.598, 35349.000
1159.827, 35776.000
1161.055, 35076.000
1162.284, 35507.000
1163.512, 35570.000
1164.740, 35456.000
1165.967, 35112.000
1167.195, 35606.000
1168.422, 35544.000
1169.650, 35626.000
1170.877, 35224.000
1172.103, 35338.000
1173.330, 34936.000
1174.557, 35564.000
1175.783, 35237.000
1177.009, 34986.000
1178.235, 35192.000
1179.461, 34848.000
1180.686, 34960.000
1181.912, 34890.000
1183.137, 34941.000
1184.362, 34836.574
1185.587, 34893.000
1186.811, 34666.000
1188.036, 34714.000
1189.260, 34812.000
1190.484, 34545.000
1191.708, 34472.000
1192.932, 34920.000
1194.155, 34235.000
1195.378, 34345.000
1196.602, 34833.000
1197.825, 34247.000
1199.047, 34784.000
1200.270, 34510.000
1201.492, 34689.000
1202.715, 34384.000
1203.937, 34309.000
1205.159, 34534.000
1206.380, 34256.000
1207.602, 33944.000
1208.823, 33852.000
1210.044, 33891.000
1211.265, 34376.000
1212.486, 34528.000
1213.707, 34094.000
1214.927, 34668.000
1216.147, 34286.000
1217.367, 34756.000
1218.587, 34246.000
1219.807, 34318.000
1221.027, 34155.000
1222.246, 34369.000
1223.465, 34301.000
1224.684, 34547.000
1225.903, 34422.000
1227.121, 34429.000
1228.340, 34824.000
1229.558, 34322.000
1230.776, 34520.000
1231.994, 34502.000
1233.212, 34880.000
1234.429, 34892.000
1235.646, 34454.000
1236.864, 35288.000
1238.081, 34803.000
1239.297, 34837.000
1240.514, 35161.000
1241.730, 34916.000
1242.947, 34773.000
1244.163, 34857.000
1245.378, 35256.000
1246.594, 35208.000
1247.810, 34872.000
1249.025, 35650.000
1250.240, 35214.000
1251.455, 35235.000
1252.670, 35363.000
1253.885, 35357.000
1255.099, 35101.000
1256.313, 34582.000
1257.527, 34748.141
1258.741, 35203.000
1259.955, 34864.000
1261.168, 35360.000
1262.382, 35538.000
1263.595, 35585.000
1264.808, 35504.000
1266.021, 35900.000
1267.233, 35934.000
1268.446, 35575.000
1269.658, 35746.000
1270.870, 36162.000
1272.082, 35587.000
1273.294, 36224.000
1274.505, 35939.000
1275.716, 36153.000
1276.928, 35922.000
1278.139, 35984.000
1279.349, 36176.000
1280.560, 36371.000
1281.770, 35773.000
1282.981, 36168.000
1284.191, 36142.074
1285.401, 36672.000
1286.610, 36321.000
1287.820, 36288.000
1289.029, 36104.531
1290.239, 36040.613
1291.448, 36187.000
1292.656, 36138.000
1293.865, 36283.000
1295.073, 36357.809
1296.282, 36413.137
1297.490, 36492.000
1298.698, 36536.000
1299.906, 36470.000
1301.113, 36428.000
1302.320, 36337.000
1303.528, 36636.000
1304.735, 36541.000
1305.942, 36352.000
1307.148, 37277.000
1308.355, 36568.000
1309.561, 37196.000
1310.767, 37030.000
1311.973, 36864.000
1313.179, 36820.000
1314.384, 37484.000
1315.590, 36915.000
1316.795, 37502.000
1318.000, 37246.000
1319.205, 37372.000
1320.410, 37667.000
1321.614, 36622.000
1322.819, 37766.000
1324.023, 37769.000
1325.227, 37223.000
1326.431, 37837.000
1327.634, 36845.000
1328.838, 37342.000
1330.041, 37612.000
1331.244, 37219.000
1332.447, 37226.000
1333.650, 37364.000
1334.852, 37216.000
1336.055, 37154.000
1337.257, 37275.000
1338.459, 37056.000
1339.661, 37140.875
1340.862, 37148.000
1342.064, 37224.000
1343.265, 37473.000
1344.466, 37646.000
1345.667, 37560.000
1346.868, 38010.000
1348.068, 37462.000
1349.269, 37579.000
1350.469, 38085.000
1351.669, 38037.000
1352.869, 37688.000
1354.069, 38486.000
1355.268, 37597.000
1356.468, 38568.000
1357.667, 38000.000
1358.866, 38211.000
1360.065, 38630.000
1361.263, 37858.000
1362.462, 38818.000
1363.660, 38138.000
1364.858, 38672.000
1366.056, 38290.000
1367.254, 38568.000
1368.451, 38614.000
1369.649, 38401.000
1370.846, 39190.000
1372.043, 38626.000
1373.240, 38336.000
1374.436, 38489.000
1375.633, 39089.000
1376.829, 38733.000
1378.025, 38411.000
1379.221, 38966.000
1380.417, 38756.000
1381.613, 39139.000
1382.808, 39052.000
1384.003, 38920.000
1385.199, 39312.000
1386.393, 38867.000
1387.588, 39380.000
1388.783, 39323.000
1389.977, 38900.000
1391.171, 39282.000
1392.365, 39262.000
1393.559, 39382.000
1394.753, 38992.000
1395.946, 39322.000
1397.140, 39266.000
1398.333, 39577.000
1399.526, 39763.000
1400.719, 39400.000
1401.911, 39640.000
1403.104, 39323.000
1404.296, 39697.000
1405.488, 40021.000
1406.680, 39118.000
1407.872, 39892.000
1409.063, 40019.000
1410.255, 39520.000
1411.446, 40166.000
1412.637, 39897.000
1413.828, 39938.000
1415.018, 40384.000
1416.209, 39862.000
1417.399, 40170.000
1418.589, 40640.000
1419.779, 39945.000
1420.969, 40600.000
1422.159, 39931.000
1423.348, 40404.000
1424.537, 40579.000
1425.726, 40273.000
1426.915, 40776.000
##END=



