##NAMES=Kyanite
##RRUFFID=R040119
##IDEAL CHEMISTRY=Al_2_OSiO_4_
##LOCALITY=Rutherford County, North Carolina, USA
##OWNER=RRUFF
##SOURCE=University of Arizona Mineral Museum
##DESCRIPTION=Blue bladed crystal
##STATUS=The identification of this mineral has been confirmed by X-ray diffraction and chemical analysis
##URL=rruff.info/R040119
##MEASURED CHEMISTRY=(Al_0.99_Fe^3+^_0.01_)_2_OSi_1.00_O_4_
##PIN_ID=L00375
##ORIENTATION=Laser parallel to (0 1 1). Fiducial mark perpendicular to laser is parallel to a [1 0 0]
103.1740, 65473.00
104.4090, 66397.00
105.6440, 66877.00
106.8790, 66920.00
108.1140, 66507.00
109.3490, 66182.00
110.5830, 65969.00
111.8180, 66120.00
113.0520, 66745.00
114.2860, 66745.00
115.5200, 67233.00
116.7530, 67456.00
117.9870, 67478.00
119.2200, 67837.00
120.4530, 67426.00
121.6860, 67022.00
122.9190, 66934.00
124.1520, 66950.00
125.3850, 66655.00
126.6170, 67260.00
127.8490, 67174.00
129.0810, 67102.00
130.3130, 67011.00
131.5450, 67948.00
132.7770, 67693.00
134.0080, 68060.00
135.2390, 67779.00
136.4710, 67821.00
137.7020, 68280.00
138.9320, 68638.00
140.1630, 68255.00
141.3930, 68160.00
142.6240, 68339.00
143.8540, 68728.00
145.0840, 68723.00
146.3140, 69071.00
147.5440, 69373.00
148.7730, 69499.00
150.0020, 69689.15
151.2320, 69394.00
152.4610, 69879.00
153.6900, 69698.93
154.9180, 69767.89
156.1470, 69866.00
157.3750, 69757.00
158.6040, 70136.00
159.8320, 70441.00
161.0600, 70170.00
162.2870, 70678.00
163.5150, 70529.00
164.7420, 70962.00
165.9700, 71383.00
167.1970, 71352.00
168.4240, 71393.00
169.6510, 71450.00
170.8770, 71438.00
172.1040, 71473.00
173.3300, 71687.02
174.5560, 71960.00
175.7820, 72104.00
177.0080, 72304.00
178.2340, 72387.00
179.4590, 72364.02
180.6850, 72089.00
181.9100, 72169.00
183.1350, 72301.00
184.3600, 72128.00
185.5850, 72377.00
186.8090, 72644.00
188.0340, 72568.00
189.2580, 72831.00
190.4820, 73170.00
191.7060, 73028.00
192.9300, 73206.00
194.1530, 72980.00
195.3770, 73226.00
196.6000, 73539.00
197.8230, 73655.00
199.0460, 73941.00
200.2690, 74276.00
201.4910, 74316.00
202.7140, 74967.00
203.9360, 75414.00
205.1580, 75123.00
206.3800, 75525.00
207.6020, 75168.00
208.8240, 75214.00
210.0450, 75227.00
211.2670, 74934.00
212.4880, 75257.00
213.7090, 75371.00
214.9300, 75851.00
216.1510, 76567.00
217.3710, 77568.00
218.5920, 77994.00
219.8120, 79867.00
221.0320, 81235.00
222.2520, 83067.00
223.4720, 85864.00
224.6910, 87836.00
225.9110, 88220.00
227.1300, 86058.00
228.3490, 83449.00
229.5680, 83527.00
230.7870, 78907.00
232.0050, 77293.00
233.2240, 76919.00
234.4420, 75984.00
235.6600, 76413.00
236.8780, 75886.00
238.0960, 76190.00
239.3140, 75932.00
240.5310, 76269.00
241.7490, 76327.00
242.9660, 76498.00
244.1830, 76670.00
245.4000, 76458.00
246.6160, 76556.00
247.8330, 76795.00
249.0490, 76867.00
250.2660, 77424.00
251.4820, 77491.00
252.6980, 77438.00
253.9130, 77524.00
255.1290, 78359.00
256.3440, 78679.00
257.5600, 78414.00
258.7750, 77916.00
259.9900, 77984.00
261.2040, 78273.00
262.4190, 78216.00
263.6330, 78519.00
264.8480, 78849.00
266.0620, 79259.00
267.2760, 79642.00
268.4900, 80446.00
269.7030, 81891.00
270.9170, 82695.00
272.1300, 84559.00
273.3430, 85943.00
274.5560, 87941.00
275.7690, 89693.00
276.9820, 91536.00
278.1940, 91339.00
279.4070, 90870.00
280.6190, 89885.00
281.8310, 89757.00
283.0430, 90709.00
284.2550, 92682.00
285.4660, 96098.00
286.6770, 101379.0
287.8890, 107817.0
289.1000, 115872.0
290.3110, 123426.0
291.5210, 128498.0
292.7320, 131983.0
293.9420, 137649.0
295.1530, 148479.0
296.3630, 164561.0
297.5730, 187243.0
298.7830, 216354.0
299.9920, 239174.0
301.2020, 231089.0
302.4110, 200765.0
303.6200, 167087.0
304.8290, 137958.0
306.0380, 116233.0
307.2470, 103606.0
308.4550, 97816.00
309.6630, 94252.00
310.8720, 92765.00
312.0800, 92227.00
313.2880, 92843.00
314.4950, 94503.00
315.7030, 97312.00
316.9100, 100353.0
318.1170, 104707.0
319.3240, 111261.0
320.5310, 119553.0
321.7380, 129533.0
322.9450, 141840.0
324.1510, 153273.0
325.3570, 153154.0
326.5630, 143127.0
327.7690, 128283.0
328.9750, 114361.0
330.1810, 102633.0
331.3860, 96266.00
332.5910, 92689.00
333.7960, 90764.00
335.0010, 89911.00
336.2060, 90310.00
337.4110, 90879.00
338.6150, 92160.00
339.8200, 93009.00
341.0240, 92384.00
342.2280, 91365.00
343.4320, 91090.00
344.6350, 90112.00
345.8390, 90346.75
347.0420, 90868.38
348.2450, 91297.00
349.4480, 93574.00
350.6510, 95022.00
351.8540, 98247.00
353.0560, 102446.0
354.2590, 108471.0
355.4610, 116561.0
356.6630, 125972.0
357.8650, 137019.0
359.0670, 143665.0
360.2680, 139018.0
361.4700, 128431.0
362.6710, 117899.0
363.8720, 110140.0
365.0730, 105959.0
366.2740, 104797.0
367.4740, 105509.0
368.6750, 107706.0
369.8750, 111401.0
371.0750, 113064.0
372.2750, 114910.0
373.4750, 115987.0
374.6740, 117562.0
375.8740, 118974.0
377.0730, 119612.0
378.2720, 120561.0
379.4710, 122667.0
380.6700, 128306.0
381.8690, 135715.0
383.0670, 145619.0
384.2660, 151415.0
385.4640, 153348.0
386.6620, 153357.0
387.8600, 156166.0
389.0570, 163505.0
390.2550, 175804.0
391.4520, 185149.0
392.6490, 177945.0
393.8460, 161647.0
395.0430, 146902.0
396.2400, 136239.0
397.4370, 132839.0
398.6330, 137490.0
399.8290, 146387.0
401.0250, 158614.0
402.2210, 170598.0
403.4170, 176420.0
404.6130, 169643.0
405.8080, 156050.0
407.0030, 140712.0
408.1980, 126878.0
409.3930, 118223.0
410.5880, 114963.0
411.7830, 114285.0
412.9770, 115709.0
414.1720, 120003.0
415.3660, 124856.0
416.5600, 130350.0
417.7530, 136032.0
418.9470, 138238.0
420.1410, 133622.0
421.3340, 126448.0
422.5270, 120013.0
423.7200, 114078.0
424.9130, 111470.0
426.1060, 111512.0
427.2980, 113419.0
428.4900, 117220.0
429.6830, 121613.0
430.8750, 129333.0
432.0670, 138725.0
433.2580, 150427.0
434.4500, 161605.0
435.6410, 170870.0
436.8320, 175435.0
438.0240, 168613.0
439.2140, 154395.0
440.4050, 138858.0
441.5960, 126319.0
442.7860, 119023.0
443.9760, 115468.0
445.1670, 114730.0
446.3560, 114598.0
447.5460, 113887.0
448.7360, 111316.0
449.9250, 107586.0
451.1150, 104486.0
452.3040, 101621.0
453.4930, 100269.0
454.6810, 99226.00
455.8700, 98973.00
457.0590, 98826.74
458.2470, 99206.00
459.4350, 99889.00
460.6230, 101214.0
461.8110, 102548.0
462.9980, 103039.0
464.1860, 104626.0
465.3730, 104887.0
466.5600, 105692.0
467.7470, 106674.0
468.9340, 108120.0
470.1210, 109247.0
471.3080, 112033.0
472.4940, 116235.0
473.6800, 122022.0
474.8660, 130230.0
476.0520, 141284.0
477.2380, 155459.0
478.4230, 175083.0
479.6090, 200898.0
480.7940, 233794.0
481.9790, 273346.0
483.1640, 318267.0
484.3490, 360328.0
485.5330, 380063.0
486.7180, 364969.0
487.9020, 326848.0
489.0860, 281652.0
490.2700, 243788.0
491.4540, 214013.0
492.6370, 192983.0
493.8210, 174555.0
495.0040, 160125.0
496.1870, 146984.0
497.3700, 137145.0
498.5530, 131357.0
499.7360, 125979.0
500.9180, 123261.0
502.1000, 121225.0
503.2830, 121017.0
504.4650, 121554.0
505.6460, 122433.0
506.8280, 123808.0
508.0100, 125772.0
509.1910, 126235.0
510.3720, 126725.0
511.5530, 124935.0
512.7340, 121941.0
513.9150, 118488.0
515.0950, 114680.0
516.2760, 112076.0
517.4560, 109574.0
518.6360, 107422.0
519.8160, 106576.0
520.9950, 105422.0
522.1750, 104397.0
523.3540, 104530.0
524.5340, 104061.0
525.7130, 103282.0
526.8920, 103450.0
528.0700, 103164.0
529.2490, 103615.0
530.4270, 103240.0
531.6060, 103558.0
532.7840, 103974.0
533.9620, 104217.0
535.1390, 104425.0
536.3170, 104921.0
537.4940, 106266.0
538.6720, 106932.0
539.8490, 107532.0
541.0260, 109337.0
542.2030, 111102.0
543.3790, 112828.0
544.5560, 113612.0
545.7320, 114545.0
546.9080, 113731.0
548.0840, 113178.0
549.2600, 111734.0
550.4360, 111509.0
551.6110, 111834.0
552.7860, 113197.0
553.9620, 115297.0
555.1370, 117992.0
556.3110, 122319.0
557.4860, 127574.0
558.6610, 133477.0
559.8350, 140747.0
561.0090, 147673.0
562.1830, 150953.0
563.3570, 149321.0
564.5310, 144115.0
565.7040, 138376.0
566.8780, 135858.0
568.0510, 134916.0
569.2240, 136564.0
570.3970, 138719.0
571.5700, 140256.0
572.7420, 137846.0
573.9150, 133841.0
575.0870, 128471.0
576.2590, 122845.0
577.4310, 119047.0
578.6030, 116527.0
579.7740, 114357.0
580.9460, 113079.0
582.1170, 112557.0
583.2880, 112261.0
584.4590, 111773.0
585.6300, 111516.0
586.8010, 110963.0
587.9710, 110169.0
589.1410, 109149.0
590.3110, 109581.0
591.4810, 108749.0
592.6510, 109153.0
593.8210, 108938.0
594.9900, 109766.0
596.1600, 109999.0
597.3290, 110675.0
598.4980, 111292.0
599.6670, 112549.0
600.8350, 113989.0
602.0040, 114955.0
603.1720, 116773.0
604.3400, 117217.0
605.5080, 117818.0
606.6760, 116633.0
607.8440, 115417.0
609.0120, 113963.0
610.1790, 112329.0
611.3460, 111038.0
612.5130, 110373.0
613.6800, 111085.0
614.8470, 110810.0
616.0130, 110882.0
617.1800, 110822.0
618.3460, 110318.0
619.5120, 110229.0
620.6780, 110342.0
621.8440, 109881.0
623.0090, 109889.0
624.1750, 109891.0
625.3400, 109891.0
626.5050, 110383.0
627.6700, 111562.0
628.8350, 111902.0
629.9990, 113339.0
631.1640, 114262.0
632.3280, 115864.0
633.4920, 117522.0
634.6560, 119342.0
635.8200, 120713.0
636.9840, 121253.0
638.1470, 119854.0
639.3100, 118547.0
640.4730, 116244.0
641.6360, 114743.0
642.7990, 113243.0
643.9620, 111724.0
645.1240, 111385.0
646.2870, 110873.0
647.4490, 110279.0
648.6110, 110252.0
649.7730, 110685.0
650.9340, 110843.0
652.0960, 110709.0
653.2570, 110749.0
654.4180, 111240.0
655.5790, 111879.0
656.7400, 112723.0
657.9010, 112701.0
659.0620, 113407.0
660.2220, 114100.0
661.3820, 115098.0
662.5420, 116197.0
663.7020, 118114.0
664.8620, 120115.0
666.0210, 122312.0
667.1810, 124548.0
668.3400, 126144.0
669.4990, 126698.0
670.6580, 126636.0
671.8170, 125070.0
672.9750, 122921.0
674.1340, 120199.0
675.2920, 118216.0
676.4500, 116840.0
677.6080, 115831.0
678.7660, 114978.0
679.9230, 115030.0
681.0810, 114705.0
682.2380, 114519.0
683.3950, 113902.0
684.5520, 113649.0
685.7090, 113269.0
686.8660, 113110.0
688.0220, 112497.0
689.1780, 112317.0
690.3340, 112406.0
691.4900, 112070.0
692.6460, 112110.2
693.8020, 112130.0
694.9570, 112221.0
696.1130, 112359.0
697.2680, 112810.0
698.4230, 112706.0
699.5780, 113008.0
700.7320, 112598.0
701.8870, 112700.0
703.0410, 113128.0
704.1950, 113121.0
705.3490, 112787.0
706.5030, 112702.0
707.6570, 112794.0
708.8110, 113004.0
709.9640, 112322.0
711.1170, 112300.0
712.2700, 112388.0
713.4230, 112706.0
714.5760, 113161.0
715.7280, 113219.0
716.8810, 113660.0
718.0330, 114055.0
719.1850, 114873.0
720.3370, 115546.0
721.4890, 115766.0
722.6400, 116281.0
723.7920, 116328.0
724.9430, 116131.0
726.0940, 115650.0
727.2450, 115063.0
728.3960, 114810.0
729.5460, 114378.3
730.6970, 114005.0
731.8470, 113817.0
732.9970, 113355.0
734.1470, 113247.0
735.2970, 113020.0
736.4460, 112970.5
737.5960, 113112.0
738.7450, 113128.0
739.8940, 113345.0
741.0430, 113640.0
742.1920, 113666.0
743.3410, 113961.0
744.4890, 114051.0
745.6370, 113266.0
746.7850, 113675.0
747.9330, 113788.0
749.0810, 113775.0
750.2290, 114136.0
751.3760, 114173.0
752.5240, 114044.0
753.6710, 113845.0
754.8180, 113901.0
755.9650, 114300.0
757.1110, 113854.0
758.2580, 113482.0
759.4040, 114053.0
760.5510, 114250.0
761.6970, 114029.0
762.8420, 114525.0
763.9880, 114271.0
765.1340, 114293.0
766.2790, 114833.0
767.4240, 114154.0
768.5690, 114656.0
769.7140, 114383.0
770.8590, 114216.0
772.0030, 114203.0
773.1480, 114096.0
774.2920, 114166.3
775.4360, 114227.8
776.5800, 114467.0
777.7240, 114425.0
778.8670, 114790.0
780.0110, 114830.0
781.1540, 115161.0
782.2970, 114503.0
783.4400, 114893.0
784.5830, 114775.0
785.7250, 115232.0
786.8680, 115503.0
788.0100, 115522.0
789.1520, 115491.0
790.2940, 115646.0
791.4360, 115725.0
792.5780, 115932.0
793.7190, 116218.0
794.8600, 115818.0
796.0010, 115767.0
797.1420, 115975.0
798.2830, 116190.0
799.4240, 116343.0
800.5640, 116421.0
801.7050, 116545.5
802.8450, 116687.3
803.9850, 116776.0
805.1250, 117059.0
806.2640, 117375.0
807.4040, 117763.0
808.5430, 117869.0
809.6820, 118177.0
810.8210, 117720.0
811.9600, 117561.0
813.0990, 117755.0
814.2370, 117683.1
815.3760, 117969.5
816.5140, 118104.0
817.6520, 118478.0
818.7900, 118883.0
819.9270, 118874.0
821.0650, 119534.0
822.2020, 119105.0
823.3390, 119028.0
824.4760, 119745.0
825.6130, 119523.0
826.7500, 119888.0
827.8870, 119914.0
829.0230, 120027.0
830.1590, 120116.0
831.2950, 120219.2
832.4310, 120502.0
833.5670, 120470.0
834.7030, 120952.0
835.8380, 121122.0
836.9730, 121196.0
838.1080, 121804.0
839.2430, 121764.0
840.3780, 122270.0
841.5130, 121913.0
842.6470, 122526.0
843.7810, 122534.0
844.9150, 122962.0
846.0490, 122845.0
847.1830, 122884.0
848.3170, 123806.0
849.4500, 123971.0
850.5830, 124177.0
851.7160, 124708.0
852.8490, 125433.0
853.9820, 125419.0
855.1150, 126059.0
856.2470, 126572.0
857.3800, 126887.0
858.5120, 127594.0
859.6440, 127871.0
860.7760, 128047.0
861.9070, 128649.0
863.0390, 129163.0
864.1700, 130241.0
865.3010, 131606.0
866.4320, 131717.0
867.5630, 133325.0
868.6940, 134713.0
869.8240, 135792.0
870.9540, 136962.0
872.0850, 138801.0
873.2150, 140921.0
874.3450, 143348.0
875.4740, 145150.0
876.6040, 148997.0
877.7330, 151953.0
878.8620, 156728.0
879.9910, 161987.0
881.1200, 167508.0
882.2490, 175530.0
883.3770, 183262.0
884.5060, 192951.0
885.6340, 203513.0
886.7620, 214989.0
887.8900, 224459.0
889.0180, 231683.0
890.1450, 235278.0
891.2730, 234830.0
892.4000, 233556.0
893.5270, 231244.0
894.6540, 233273.0
895.7810, 237126.0
896.9070, 243944.0
898.0340, 253279.0
899.1600, 261254.0
900.2860, 266454.0
901.4120, 264681.0
902.5380, 257765.0
903.6630, 244437.0
904.7890, 229108.0
905.9140, 212579.0
907.0390, 198228.0
908.1640, 189822.0
909.2890, 180265.0
910.4130, 168638.0
911.5380, 162595.0
912.6620, 158277.0
913.7860, 154484.0
914.9100, 152209.0
916.0340, 150324.0
917.1580, 148246.0
918.2810, 147507.0
919.4040, 147311.0
920.5280, 146186.0
921.6510, 146285.0
922.7730, 145959.0
923.8960, 146493.0
925.0180, 147202.0
926.1410, 147309.0
927.2630, 148298.0
928.3850, 149850.0
929.5070, 150471.0
930.6280, 152066.0
931.7500, 154617.0
932.8710, 156542.0
933.9920, 158900.0
935.1130, 161084.0
936.2340, 163587.0
937.3550, 166269.0
938.4760, 168605.0
939.5960, 171856.0
940.7160, 175049.0
941.8360, 178326.0
942.9560, 182348.0
944.0760, 188074.0
945.1950, 191972.0
946.3150, 198647.0
947.4340, 204101.0
948.5530, 209011.0
949.6720, 213958.0
950.7900, 215987.0
951.9090, 215979.0
953.0270, 214191.0
954.1460, 209735.0
955.2640, 205628.0
956.3820, 200271.0
957.4990, 197269.0
958.6170, 193786.0
959.7340, 190858.0
960.8520, 188472.0
961.9690, 185284.0
963.0860, 181598.0
964.2020, 177643.0
965.3190, 173024.0
966.4350, 169281.0
967.5520, 165157.0
968.6680, 161569.0
969.7840, 157306.0
970.8990, 155609.0
972.0150, 152280.0
973.1310, 151079.0
974.2460, 149136.0
975.3610, 147100.0
976.4760, 145913.0
977.5910, 145145.0
978.7050, 144547.0
979.8200, 143333.0
980.9340, 142462.0
982.0480, 141909.0
983.1620, 141199.0
984.2760, 140863.0
985.3900, 140427.6
986.5030, 140624.0
987.6160, 139817.0
988.7300, 140013.0
989.8430, 139790.0
990.9550, 139653.0
992.0680, 139933.0
993.1810, 140008.0
994.2930, 140242.0
995.4050, 140553.0
996.5170, 141574.0
997.6290, 141929.0
998.7410, 142526.0
999.8520, 143044.0
1000.964, 143020.0
1002.075, 142547.0
1003.186, 141997.0
1004.297, 141308.0
1005.407, 140449.0
1006.518, 139796.9
1007.628, 138929.0
1008.738, 138429.0
1009.848, 138134.0
1010.958, 137800.0
1012.068, 137663.0
1013.178, 137639.0
1014.287, 137118.0
1015.396, 137137.0
1016.505, 137107.0
1017.614, 136914.0
1018.723, 137362.0
1019.831, 137126.0
1020.940, 136943.0
1022.048, 137045.1
1023.156, 136808.0
1024.264, 136944.0
1025.372, 137017.0
1026.479, 137033.0
1027.587, 136937.0
1028.694, 136875.0
1029.801, 136868.8
1030.908, 137412.0
1032.015, 136812.0
1033.121, 137058.0
1034.228, 137014.0
1035.334, 136745.0
1036.440, 137011.0
1037.546, 136598.0
1038.652, 137233.0
1039.758, 136804.0
1040.863, 136784.0
1041.968, 136954.0
1043.074, 137010.0
1044.178, 136796.0
1045.283, 137465.0
1046.388, 137426.0
1047.492, 137569.0
1048.597, 137137.0
1049.701, 137271.0
1050.805, 137434.0
1051.909, 137761.0
1053.012, 137438.0
1054.116, 137423.0
1055.219, 138138.0
1056.322, 137506.0
1057.425, 138211.0
1058.528, 138409.0
1059.631, 138429.0
1060.733, 138487.0
1061.836, 138408.0
1062.938, 139097.0
1064.040, 138374.0
1065.142, 138934.0
1066.243, 138777.0
1067.345, 138838.0
1068.446, 138444.0
1069.547, 139109.0
1070.648, 139222.0
1071.749, 139498.0
1072.850, 139612.5
1073.951, 139470.0
1075.051, 139523.0
1076.151, 139394.0
1077.251, 139186.0
1078.351, 139794.0
1079.451, 139136.0
1080.550, 139926.0
1081.650, 140031.0
1082.749, 140107.0
1083.848, 139978.0
1084.947, 140119.0
1086.046, 140379.0
1087.144, 140036.0
1088.243, 140670.0
1089.341, 140670.0
1090.439, 140473.0
1091.537, 140801.0
1092.635, 141126.0
1093.732, 141389.0
1094.830, 141186.0
1095.927, 141018.0
1097.024, 141131.0
1098.121, 141087.0
1099.218, 141339.0
1100.314, 141082.0
1101.411, 141161.0
1102.507, 141431.0
1103.603, 141831.0
1104.699, 142319.0
1105.795, 141525.0
1106.890, 141702.0
1107.986, 141824.0
1109.081, 142052.0
1110.176, 142346.0
1111.271, 142351.0
1112.366, 142545.0
1113.461, 142022.0
1114.555, 142654.0
1115.649, 142248.0
1116.744, 142151.0
1117.838, 142647.0
1118.931, 142264.0
1120.025, 142752.0
1121.119, 143312.0
1122.212, 143173.0
1123.305, 143323.0
1124.398, 143392.0
1125.491, 143121.0
1126.584, 143136.0
1127.676, 143363.0
1128.768, 143637.0
1129.861, 143474.0
1130.953, 143581.0
1132.044, 143963.0
1133.136, 143745.0
1134.228, 143751.0
1135.319, 143736.0
1136.410, 144112.0
1137.501, 143829.0
1138.592, 144164.0
1139.683, 144166.0
1140.773, 144410.0
1141.864, 144554.0
1142.954, 144683.0
1144.044, 144891.5
1145.134, 144922.0
1146.224, 145093.0
1147.313, 145048.0
1148.402, 144800.0
1149.492, 145598.0
1150.581, 144998.0
1151.670, 145030.0
1152.758, 145592.0
1153.847, 145320.0
1154.935, 145511.0
1156.024, 145710.0
1157.112, 146032.0
1158.200, 145665.0
1159.287, 146333.0
1160.375, 145863.0
1161.462, 146177.0
1162.550, 146384.0
1163.637, 145938.0
1164.724, 146024.0
1165.810, 146628.0
1166.897, 146356.0
1167.983, 146286.0
1169.070, 146437.0
1170.156, 146829.0
1171.242, 146728.0
1172.327, 147265.0
1173.413, 146938.0
1174.499, 146599.0
1175.584, 147038.0
1176.669, 146909.0
1177.754, 147325.0
1178.839, 147821.0
1179.923, 147879.0
1181.008, 147554.0
1182.092, 147984.0
1183.176, 147872.0
1184.260, 147673.0
1185.344, 147615.0
1186.428, 147866.0
1187.511, 147981.0
1188.595, 147645.0
1189.678, 147974.0
1190.761, 147750.0
1191.843, 147962.3
1192.926, 148318.0
1194.009, 148376.0
1195.091, 148742.0
1196.173, 148928.0
1197.255, 149071.8
1198.337, 148841.0
1199.419, 149248.0
1200.500, 149317.0
1201.582, 149125.0
1202.663, 149745.0
1203.744, 149380.0
1204.825, 149804.0
1205.905, 149924.0
1206.986, 149831.0
1208.066, 150009.0
1209.146, 149986.0
1210.226, 149948.0
1211.306, 150193.0
1212.386, 150504.0
1213.466, 149942.0
1214.545, 150102.0
1215.624, 150568.0
1216.703, 150178.0
1217.782, 150976.0
1218.861, 150842.0
1219.939, 150806.0
1221.018, 151117.0
1222.096, 150857.0
1223.174, 151271.0
1224.252, 150962.0
1225.330, 151293.0
1226.407, 151829.0
1227.485, 151804.0
1228.562, 151420.0
1229.639, 151187.0
1230.716, 152284.0
1231.793, 151869.0
1232.869, 152088.0
1233.946, 152130.0
1235.022, 152376.0
1236.098, 152532.0
1237.174, 152271.0
1238.250, 152551.0
1239.325, 152488.0
1240.401, 152375.0
1241.476, 152481.0
1242.551, 153037.0
1243.626, 152560.0
1244.701, 152692.0
1245.776, 153340.0
1246.850, 153255.0
1247.924, 152986.0
1248.999, 153565.0
1250.073, 153793.0
1251.146, 153838.0
1252.220, 153267.0
1253.293, 153121.0
1254.367, 153986.0
1255.440, 153692.0
1256.513, 154065.0
1257.586, 154087.0
1258.658, 154283.0
1259.731, 154504.0
1260.803, 154580.1
1261.875, 154496.0
1262.947, 154706.0
1264.019, 154768.0
1265.091, 154546.0
1266.162, 154569.0
1267.234, 154866.0
1268.305, 155109.0
1269.376, 154719.0
1270.447, 155268.2
1271.517, 156183.0
1272.588, 155719.0
1273.658, 155620.0
1274.729, 155336.0
1275.799, 155916.0
1276.868, 155947.0
1277.938, 156143.0
1279.008, 155362.0
1280.077, 155967.0
1281.146, 156172.0
1282.215, 156011.0
1283.284, 156904.0
1284.353, 156429.0
1285.421, 156088.0
1286.490, 155999.0
1287.558, 156559.0
1288.626, 156852.0
1289.694, 156926.0
1290.762, 156966.0
1291.829, 156728.0
1292.897, 157002.0
1293.964, 157022.0
1295.031, 157586.0
1296.098, 157364.0
1297.165, 157783.0
1298.231, 157618.0
1299.298, 157886.0
1300.364, 157412.0
1301.430, 157637.0
1302.496, 157888.0
1303.562, 158058.0
1304.627, 158226.0
1305.693, 158576.0
1306.758, 158327.0
1307.823, 158124.0
1308.888, 158205.0
1309.953, 158907.0
1311.018, 158905.0
1312.082, 158632.0
1313.146, 159024.1
1314.210, 158903.0
1315.274, 159042.0
1316.338, 159272.0
1317.402, 158871.0
1318.465, 159589.0
1319.529, 159727.0
1320.592, 159497.0
1321.655, 159634.0
1322.718, 159660.0
1323.780, 159820.0
1324.843, 160071.0
1325.905, 159981.0
1326.967, 160399.0
1328.029, 160098.0
1329.091, 160054.0
1330.153, 160267.0
1331.214, 160235.0
1332.275, 160458.0
1333.337, 160562.0
1334.398, 160570.5
1335.458, 161181.0
1336.519, 160746.0
1337.580, 160654.0
1338.640, 161012.0
1339.700, 160647.0
1340.760, 161136.0
1341.820, 161431.0
1342.880, 161013.0
1343.939, 161153.0
1344.999, 161596.0
1346.058, 161763.0
1347.117, 161663.0
1348.176, 162112.0
1349.235, 161602.0
1350.293, 162136.0
1351.351, 162260.0
1352.410, 161638.0
1353.468, 162211.0
1354.526, 162571.0
1355.583, 162549.0
1356.641, 162568.0
1357.698, 162699.0
1358.756, 162382.0
1359.813, 162129.0
1360.869, 163059.0
1361.926, 162697.0
1362.983, 162880.0
1364.039, 163143.0
1365.095, 163539.0
1366.152, 163229.0
1367.207, 163381.0
1368.263, 163449.0
1369.319, 163519.0
1370.374, 163508.0
1371.430, 163789.0
1372.485, 164112.0
1373.540, 163973.0
1374.594, 163669.0
1375.649, 163932.0
1376.703, 163896.0
1377.758, 164071.0
1378.812, 164095.0
1379.866, 164781.0
1380.920, 164008.0
1381.973, 164490.0
1383.027, 163992.0
1384.080, 164683.0
1385.133, 164988.0
1386.186, 164533.0
1387.239, 164461.0
1388.291, 165008.0
1389.344, 164935.0
1390.396, 165205.0
1391.448, 164589.0
1392.500, 164972.0
1393.552, 165374.0
1394.604, 165414.0
1395.655, 165789.0
1396.707, 165606.0
1397.758, 165901.0
1398.809, 165951.0
1399.860, 166273.0
1400.910, 166209.0
1401.961, 165872.0
1403.011, 166009.8
1404.061, 166339.0
1405.111, 165937.0
1406.161, 165940.0
1407.211, 166037.0
1408.260, 167018.0
1409.310, 166559.0
1410.359, 167004.0
1411.408, 166521.0
1412.457, 166708.0
1413.506, 167113.0
1414.554, 166665.0
1415.603, 167072.0
1416.651, 167323.0
1417.699, 167484.0
1418.747, 167005.0
1419.794, 167874.0
1420.842, 167319.0
1421.889, 167814.0
1422.937, 168209.0
1423.984, 167721.0
1425.031, 167469.0
1426.077, 168290.0
1427.124, 168221.0
1428.170, 168080.0
1429.217, 168421.0
1430.263, 168549.0
1431.309, 168867.0
1432.354, 168647.0
1433.400, 168826.0
1434.445, 168562.0
1435.491, 168583.0
1436.536, 168678.0
1437.581, 168817.0
1438.625, 168881.0
1439.670, 169060.0
1440.714, 168735.0
1441.759, 169172.0
1442.803, 169546.0
1443.847, 168550.0
1444.890, 169472.0
1445.934, 169542.0
1446.978, 170310.0
1448.021, 169332.0
1449.064, 169422.0
1450.107, 169606.0
1451.150, 169139.0
1452.192, 169692.0
1453.235, 170408.0
1454.277, 169720.0
1455.319, 170664.0
1456.361, 170155.0
1457.403, 170029.0
1458.445, 170098.0
1459.486, 170447.0
1460.528, 170311.0
1461.569, 170832.0
1462.610, 170927.0
1463.651, 170190.0
1464.691, 170582.0
1465.732, 171351.0
1466.772, 170924.0
1467.812, 171317.0
1468.852, 171464.0
1469.892, 171104.0
1470.932, 171911.0
1471.971, 171110.0
1473.011, 171456.0
1474.050, 171933.0
1475.089, 171811.0
1476.128, 171939.0
1477.166, 171422.0
1478.205, 172157.0
1479.243, 172127.0
1480.282, 171126.0
1481.320, 172406.0
1482.357, 172185.0
1483.395, 172057.0
1484.433, 173227.0
1485.470, 172099.0
1486.507, 172567.0
1487.544, 172525.0
1488.581, 172848.0
1489.618, 172917.0
1490.655, 172870.0
1491.691, 172936.0
1492.727, 172844.0
1493.763, 172748.0
1494.799, 173289.0
1495.835, 173134.0
1496.871, 173068.0
1497.906, 173366.0
1498.941, 172902.0
1499.976, 173540.0
1501.011, 173792.0
1502.046, 173342.0
1503.081, 173936.0
1504.115, 173793.0
1505.149, 173993.0
1506.183, 173765.0
1507.217, 174046.0
1508.251, 174067.0
1509.285, 173935.0
1510.318, 174259.0
1511.352, 174442.0
1512.385, 174222.0
1513.418, 174648.0
1514.450, 174466.0
1515.483, 174722.0
1516.516, 174999.0
1517.548, 175326.0
1518.580, 174986.0
1519.612, 175024.0
1520.644, 175036.0
1521.675, 175318.0
1522.707, 174534.0
1523.738, 175078.0
1524.769, 174680.0
1525.800, 175563.0
1526.831, 175369.0
1527.862, 175645.0
1528.892, 175553.0
1529.923, 175642.0
1530.953, 176329.0
1531.983, 176193.0
1533.013, 176268.0
1534.042, 176180.0
1535.072, 175788.0
1536.101, 176924.0
1537.131, 176727.0
1538.160, 177218.0
1539.188, 177082.0
1540.217, 176718.0
1541.246, 176747.0
1542.274, 176911.0
1543.302, 176883.3
1544.330, 177068.7
1545.358, 177216.0
1546.386, 177223.0
1547.413, 177464.0
1548.441, 177183.0
1549.468, 177729.0
1550.495, 177360.0
1551.522, 177893.0
1552.549, 177683.0
1553.575, 178000.0
1554.602, 178086.0
1555.628, 178015.0
1556.654, 177963.0
1557.680, 178495.0
1558.706, 177831.0
1559.731, 178487.0
1560.757, 178323.0
1561.782, 178543.0
1562.807, 178090.0
1563.832, 178461.0
1564.857, 178440.0
1565.881, 178750.0
1566.906, 179238.0
1567.930, 179046.0
1568.954, 178747.0
1569.978, 179133.0
1571.002, 179138.0
1572.025, 178416.0
1573.049, 179377.0
1574.072, 178883.0
1575.095, 179461.0
1576.118, 179410.0
1577.141, 179211.0
1578.164, 179501.0
##END=



