##NAMES=Kyanite
##RRUFFID=R040119
##IDEAL CHEMISTRY=Al_2_OSiO_4_
##LOCALITY=Rutherford County, North Carolina, USA
##OWNER=RRUFF
##SOURCE=University of Arizona Mineral Museum
##DESCRIPTION=Blue bladed crystal
##STATUS=The identification of this mineral has been confirmed by X-ray diffraction and chemical analysis
##URL=rruff.info/R040119
##MEASURED CHEMISTRY=(Al_0.99_Fe^3+^_0.01_)_2_OSi_1.00_O_4_
##PIN_ID=L00051
##ORIENTATION=Laser parallel to b* (0 1 0). Fiducial mark perpendicular to laser is parallel to -c [0 0 -1]
67.28100, 63940.00
68.52100, 64705.00
69.76100, 64874.00
71.00100, 65778.00
72.24000, 66514.00
73.47900, 67497.00
74.71800, 67959.00
75.95700, 69506.00
77.19600, 69184.00
78.43500, 69739.00
79.67300, 68995.00
80.91200, 68423.00
82.15000, 67778.00
83.38800, 68273.00
84.62600, 67970.00
85.86300, 67329.00
87.10100, 67565.00
88.33800, 66945.00
89.57500, 66660.00
90.81200, 67172.00
92.04900, 67472.00
93.28600, 66839.00
94.52300, 67151.00
95.75900, 67323.00
96.99500, 66640.00
98.23100, 67352.00
99.46700, 67512.00
100.7030, 67824.00
101.9390, 67854.00
103.1740, 68681.00
104.4090, 68744.98
105.6440, 69287.00
106.8790, 69189.00
108.1140, 68802.00
109.3490, 68766.38
110.5830, 68550.00
111.8180, 68861.00
113.0520, 69238.00
114.2860, 69524.00
115.5200, 69901.00
116.7530, 70375.00
117.9870, 70313.00
119.2200, 70620.00
120.4530, 69318.00
121.6860, 68808.00
122.9190, 68716.00
124.1520, 69076.00
125.3850, 68921.00
126.6170, 68433.00
127.8490, 68861.00
129.0810, 68644.00
130.3130, 68356.00
131.5450, 68922.00
132.7770, 68356.00
134.0080, 68438.00
135.2390, 69187.00
136.4710, 69393.00
137.7020, 69447.00
138.9320, 69653.70
140.1630, 69507.00
141.3930, 69579.00
142.6240, 69548.00
143.8540, 69481.00
145.0840, 69404.00
146.3140, 69451.49
147.5440, 69663.00
148.7730, 69546.00
150.0020, 69921.00
151.2320, 70000.00
152.4610, 69419.00
153.6900, 70171.00
154.9180, 69962.00
156.1470, 70166.00
157.3750, 69777.00
158.6040, 70446.00
159.8320, 70580.00
161.0600, 70140.00
162.2870, 70524.00
163.5150, 70172.00
164.7420, 70238.00
165.9700, 70703.00
167.1970, 70877.00
168.4240, 70764.00
169.6510, 71112.00
170.8770, 71323.00
172.1040, 71111.00
173.3300, 71727.00
174.5560, 71767.00
175.7820, 71959.00
177.0080, 72300.00
178.2340, 72096.00
179.4590, 72135.00
180.6850, 71727.00
181.9100, 71575.00
183.1350, 71513.00
184.3600, 72031.00
185.5850, 71727.00
186.8090, 71877.00
188.0340, 71798.00
189.2580, 71824.00
190.4820, 72096.00
191.7060, 72132.00
192.9300, 72116.00
194.1530, 72415.00
195.3770, 72497.00
196.6000, 72345.00
197.8230, 72479.00
199.0460, 72817.00
200.2690, 72860.00
201.4910, 72709.00
202.7140, 73322.00
203.9360, 73588.00
205.1580, 73090.00
206.3800, 73248.00
207.6020, 72935.00
208.8240, 73407.00
210.0450, 73894.00
211.2670, 73309.00
212.4880, 73683.00
213.7090, 73463.00
214.9300, 74083.00
216.1510, 74077.00
217.3710, 74215.00
218.5920, 74859.00
219.8120, 75759.00
221.0320, 75960.00
222.2520, 76370.00
223.4720, 77858.00
224.6910, 78496.00
225.9110, 78827.00
227.1300, 78194.00
228.3490, 77545.00
229.5680, 76801.00
230.7870, 75804.00
232.0050, 75233.00
233.2240, 75577.00
234.4420, 74706.00
235.6600, 75070.00
236.8780, 75003.00
238.0960, 75232.00
239.3140, 75436.00
240.5310, 75554.00
241.7490, 75283.00
242.9660, 75137.00
244.1830, 75124.00
245.4000, 75147.00
246.6160, 75446.00
247.8330, 75055.00
249.0490, 75469.00
250.2660, 75978.00
251.4820, 75680.00
252.6980, 76280.00
253.9130, 76252.00
255.1290, 76986.00
256.3440, 76958.00
257.5600, 76630.00
258.7750, 76304.00
259.9900, 76395.00
261.2040, 76267.00
262.4190, 76644.00
263.6330, 76658.00
264.8480, 77160.00
266.0620, 77310.00
267.2760, 77363.00
268.4900, 77529.00
269.7030, 78073.00
270.9170, 78936.00
272.1300, 79558.00
273.3430, 80149.00
274.5560, 81403.00
275.7690, 81922.00
276.9820, 82031.00
278.1940, 82111.00
279.4070, 81931.00
280.6190, 81712.00
281.8310, 81128.00
283.0430, 81728.00
284.2550, 82683.00
285.4660, 84343.00
286.6770, 86285.00
287.8890, 88578.00
289.1000, 91475.00
290.3110, 94371.00
291.5210, 97033.00
292.7320, 98747.00
293.9420, 101175.0
295.1530, 105693.0
296.3630, 111651.0
297.5730, 118837.0
298.7830, 127348.0
299.9920, 133782.0
301.2020, 132882.0
302.4110, 124194.0
303.6200, 114447.0
304.8290, 103661.0
306.0380, 94176.00
307.2470, 88926.00
308.4550, 85966.00
309.6630, 84280.00
310.8720, 83733.00
312.0800, 83499.00
313.2880, 83423.00
314.4950, 84114.00
315.7030, 84954.00
316.9100, 86434.00
318.1170, 87737.00
319.3240, 89814.00
320.5310, 92875.00
321.7380, 96816.00
322.9450, 100194.0
324.1510, 103428.0
325.3570, 103386.0
326.5630, 100495.0
327.7690, 96610.00
328.9750, 92237.00
330.1810, 88315.00
331.3860, 85743.00
332.5910, 84562.00
333.7960, 84007.00
335.0010, 83455.00
336.2060, 83573.00
337.4110, 83866.00
338.6150, 84228.00
339.8200, 84614.00
341.0240, 84362.00
342.2280, 84169.00
343.4320, 84499.00
344.6350, 84402.00
345.8390, 84349.00
347.0420, 84770.00
348.2450, 85119.00
349.4480, 85644.00
350.6510, 86886.00
351.8540, 88332.00
353.0560, 89690.00
354.2590, 92569.00
355.4610, 95311.00
356.6630, 99153.00
357.8650, 102641.0
359.0670, 105800.0
360.2680, 105427.0
361.4700, 103212.0
362.6710, 99325.00
363.8720, 95712.00
365.0730, 93460.00
366.2740, 91553.00
367.4740, 92373.00
368.6750, 92383.00
369.8750, 93228.00
371.0750, 94105.00
372.2750, 94392.00
373.4750, 93771.00
374.6740, 93727.00
375.8740, 94241.00
377.0730, 94802.00
378.2720, 95211.00
379.4710, 97465.00
380.6700, 99737.00
381.8690, 102303.0
383.0670, 106125.0
384.2660, 109066.0
385.4640, 110219.0
386.6620, 111869.0
387.8600, 114498.0
389.0570, 117447.0
390.2550, 120978.0
391.4520, 123786.0
392.6490, 122346.0
393.8460, 117341.0
395.0430, 112315.0
396.2400, 108617.0
397.4370, 106494.0
398.6330, 109270.0
399.8290, 112891.0
401.0250, 118164.0
402.2210, 123443.0
403.4170, 125878.0
404.6130, 123412.0
405.8080, 117992.0
407.0030, 111129.0
408.1980, 104667.0
409.3930, 100539.0
410.5880, 98410.00
411.7830, 98325.00
412.9770, 98532.00
414.1720, 100640.0
415.3660, 103284.0
416.5600, 105305.0
417.7530, 107619.0
418.9470, 108449.0
420.1410, 106363.0
421.3340, 103667.0
422.5270, 100640.0
423.7200, 98161.00
424.9130, 96832.00
426.1060, 96881.00
427.2980, 97471.00
428.4900, 99290.00
429.6830, 100926.0
430.8750, 104257.0
432.0670, 107311.0
433.2580, 111884.0
434.4500, 115589.0
435.6410, 117736.0
436.8320, 118159.0
438.0240, 116230.0
439.2140, 112278.0
440.4050, 107712.0
441.5960, 103635.0
442.7860, 99824.00
443.9760, 98525.00
445.1670, 98109.00
446.3560, 97314.00
447.5460, 96903.00
448.7360, 96350.00
449.9250, 94921.00
451.1150, 94243.00
452.3040, 93885.00
453.4930, 93492.00
454.6810, 93158.00
455.8700, 93206.00
457.0590, 93595.00
458.2470, 93709.00
459.4350, 93914.00
460.6230, 94854.00
461.8110, 95472.00
462.9980, 96314.00
464.1860, 96423.00
465.3730, 97054.00
466.5600, 97763.00
467.7470, 97218.00
468.9340, 97350.00
470.1210, 97977.00
471.3080, 98846.00
472.4940, 99815.00
473.6800, 102468.0
474.8660, 105473.0
476.0520, 109636.0
477.2380, 114748.0
478.4230, 121579.0
479.6090, 132188.0
480.7940, 144149.0
481.9790, 159557.0
483.1640, 175527.0
484.3490, 191472.0
485.5330, 199014.0
486.7180, 197873.0
487.9020, 186517.0
489.0860, 171721.0
490.2700, 157029.0
491.4540, 145415.0
492.6370, 136411.0
493.8210, 129309.0
495.0040, 123164.0
496.1870, 117005.0
497.3700, 112899.0
498.5530, 108991.0
499.7360, 107041.0
500.9180, 105734.0
502.1000, 105291.0
503.2830, 104956.0
504.4650, 105243.0
505.6460, 105152.0
506.8280, 106358.0
508.0100, 106788.0
509.1910, 107809.0
510.3720, 107575.0
511.5530, 107212.0
512.7340, 106457.0
513.9150, 105243.0
515.0950, 103607.0
516.2760, 101989.0
517.4560, 101396.0
518.6360, 99639.00
519.8160, 99098.00
520.9950, 98919.00
522.1750, 98493.00
523.3540, 98832.00
524.5340, 98421.00
525.7130, 98150.00
526.8920, 98254.00
528.0700, 97967.00
529.2490, 98435.00
530.4270, 98596.00
531.6060, 98512.00
532.7840, 98553.00
533.9620, 99072.00
535.1390, 99180.00
536.3170, 99530.00
537.4940, 100126.0
538.6720, 100625.0
539.8490, 101827.0
541.0260, 102389.0
542.2030, 103699.0
543.3790, 104585.0
544.5560, 104960.0
545.7320, 105548.0
546.9080, 104642.0
548.0840, 104502.0
549.2600, 103791.0
550.4360, 103281.0
551.6110, 103770.0
552.7860, 103949.0
553.9620, 105298.0
555.1370, 106508.0
556.3110, 108641.0
557.4860, 111216.0
558.6610, 114327.0
559.8350, 118020.0
561.0090, 120928.0
562.1830, 123211.0
563.3570, 122738.0
564.5310, 120687.0
565.7040, 118054.0
566.8780, 115914.0
568.0510, 114478.0
569.2240, 115252.0
570.3970, 116111.0
571.5700, 116436.0
572.7420, 115430.0
573.9150, 113690.0
575.0870, 112029.0
576.2590, 109702.0
577.4310, 107785.0
578.6030, 106023.0
579.7740, 105186.0
580.9460, 105693.0
582.1170, 105670.0
583.2880, 103985.0
584.4590, 103590.0
585.6300, 103083.0
586.8010, 103006.0
587.9710, 103372.0
589.1410, 102986.0
590.3110, 103124.0
591.4810, 103022.0
592.6510, 103366.0
593.8210, 103088.0
594.9900, 103580.0
596.1600, 103789.0
597.3290, 103861.0
598.4980, 103796.0
599.6670, 104512.0
600.8350, 104275.0
602.0040, 105444.0
603.1720, 105173.0
604.3400, 105766.0
605.5080, 105615.0
606.6760, 104857.0
607.8440, 104965.0
609.0120, 104829.0
610.1790, 104398.0
611.3460, 104473.0
612.5130, 103929.0
613.6800, 103949.0
614.8470, 103791.0
616.0130, 104259.0
617.1800, 104167.1
618.3460, 104934.0
619.5120, 104301.0
620.6780, 104731.0
621.8440, 104733.0
623.0090, 104699.0
624.1750, 105313.0
625.3400, 105399.0
626.5050, 105602.0
627.6700, 106050.0
628.8350, 106332.0
629.9990, 107313.0
631.1640, 107995.0
632.3280, 108963.0
633.4920, 109691.0
634.6560, 110609.0
635.8200, 111276.0
636.9840, 111711.0
638.1470, 111216.0
639.3100, 110673.0
640.4730, 109523.0
641.6360, 108502.0
642.7990, 107838.0
643.9620, 107895.0
645.1240, 107001.0
646.2870, 107150.0
647.4490, 106992.0
648.6110, 106695.0
649.7730, 106500.0
650.9340, 106615.0
652.0960, 107073.0
653.2570, 107665.0
654.4180, 107481.0
655.5790, 107876.0
656.7400, 108108.0
657.9010, 108303.0
659.0620, 108302.0
660.2220, 108911.0
661.3820, 109154.0
662.5420, 109271.0
663.7020, 110066.0
664.8620, 111246.0
666.0210, 112158.0
667.1810, 112850.0
668.3400, 113743.0
669.4990, 114086.0
670.6580, 114084.0
671.8170, 113787.0
672.9750, 112954.0
674.1340, 112411.0
675.2920, 111340.0
676.4500, 110801.0
677.6080, 110376.0
678.7660, 109858.9
679.9230, 109547.0
681.0810, 109386.0
682.2380, 109303.0
683.3950, 109334.0
684.5520, 109202.0
685.7090, 109289.0
686.8660, 109676.0
688.0220, 109185.0
689.1780, 108573.0
690.3340, 109104.0
691.4900, 108837.0
692.6460, 108761.0
693.8020, 109110.0
694.9570, 109588.0
696.1130, 109518.0
697.2680, 109716.0
698.4230, 109568.0
699.5780, 110217.0
700.7320, 110133.0
701.8870, 110130.0
703.0410, 110079.0
704.1950, 110079.0
705.3490, 110354.0
706.5030, 110254.0
707.6570, 110314.0
708.8110, 110021.0
709.9640, 110178.0
711.1170, 110321.0
712.2700, 110297.0
713.4230, 110653.0
714.5760, 110535.0
715.7280, 110346.0
716.8810, 110515.0
718.0330, 110623.0
719.1850, 111247.0
720.3370, 111559.0
721.4890, 111458.0
722.6400, 112142.0
723.7920, 112283.0
724.9430, 111946.0
726.0940, 112128.0
727.2450, 112534.0
728.3960, 111911.0
729.5460, 112033.0
730.6970, 111820.0
731.8470, 111950.0
732.9970, 112083.0
734.1470, 111734.0
735.2970, 112242.0
736.4460, 112168.0
737.5960, 112050.0
738.7450, 112377.0
739.8940, 112252.0
741.0430, 112606.0
742.1920, 112424.0
743.3410, 112980.0
744.4890, 112801.0
745.6370, 113358.0
746.7850, 113319.0
747.9330, 113185.0
749.0810, 113105.0
750.2290, 112646.0
751.3760, 113584.0
752.5240, 113686.0
753.6710, 113521.0
754.8180, 113427.0
755.9650, 113504.8
757.1110, 114150.0
758.2580, 113552.0
759.4040, 114011.0
760.5510, 113974.0
761.6970, 113934.0
762.8420, 113754.0
763.9880, 113953.0
765.1340, 114203.0
766.2790, 114222.0
767.4240, 114324.7
768.5690, 114324.7
769.7140, 114320.0
770.8590, 114384.0
772.0030, 114309.0
773.1480, 114670.0
774.2920, 114707.0
775.4360, 115072.0
776.5800, 114636.0
777.7240, 115178.0
778.8670, 114861.0
780.0110, 114749.0
781.1540, 115235.0
782.2970, 115026.0
783.4400, 115802.0
784.5830, 115438.0
785.7250, 115826.0
786.8680, 115979.0
788.0100, 115831.0
789.1520, 115774.0
790.2940, 115811.0
791.4360, 116085.0
792.5780, 116072.1
793.7190, 116154.0
794.8600, 116278.0
796.0010, 116373.0
797.1420, 116489.0
798.2830, 116695.0
799.4240, 116349.0
800.5640, 117003.0
801.7050, 116673.0
802.8450, 116660.0
803.9850, 117093.0
805.1250, 117236.0
806.2640, 117588.0
807.4040, 117902.0
808.5430, 118057.0
809.6820, 118097.0
810.8210, 117972.0
811.9600, 118500.0
813.0990, 118667.0
814.2370, 118418.0
815.3760, 118418.0
816.5140, 118454.0
817.6520, 118763.0
818.7900, 119388.0
819.9270, 119388.0
821.0650, 119296.0
822.2020, 119375.0
823.3390, 119328.0
824.4760, 119188.0
825.6130, 119971.0
826.7500, 119675.0
827.8870, 120236.0
829.0230, 120008.0
830.1590, 120063.0
831.2950, 120367.0
832.4310, 120879.0
833.5670, 120919.0
834.7030, 121277.0
835.8380, 121229.0
836.9730, 120990.0
838.1080, 121290.0
839.2430, 121289.0
840.3780, 121328.7
841.5130, 121877.0
842.6470, 121546.0
843.7810, 121926.0
844.9150, 122204.0
846.0490, 121955.0
847.1830, 122448.0
848.3170, 122519.0
849.4500, 122990.0
850.5830, 123226.8
851.7160, 123364.0
852.8490, 123831.0
853.9820, 123687.0
855.1150, 124113.0
856.2470, 124803.0
857.3800, 124602.0
858.5120, 125030.0
859.6440, 125161.0
860.7760, 125361.0
861.9070, 125715.0
863.0390, 126476.0
864.1700, 126379.0
865.3010, 127025.0
866.4320, 127299.0
867.5630, 127565.0
868.6940, 128256.0
869.8240, 128981.0
870.9540, 129807.0
872.0850, 130485.7
873.2150, 130984.0
874.3450, 132189.0
875.4740, 132967.0
876.6040, 134380.0
877.7330, 135344.0
878.8620, 137112.0
879.9910, 138755.0
881.1200, 141055.0
882.2490, 143179.0
883.3770, 146384.0
884.5060, 149908.0
885.6340, 152891.0
886.7620, 156744.0
887.8900, 160318.0
889.0180, 163113.0
890.1450, 165562.0
891.2730, 166755.0
892.4000, 168134.0
893.5270, 170819.0
894.6540, 173990.0
895.7810, 178107.0
896.9070, 183221.0
898.0340, 189340.0
899.1600, 195268.0
900.2860, 198263.0
901.4120, 198844.0
902.5380, 195560.0
903.6630, 190048.0
904.7890, 182209.0
905.9140, 173299.0
907.0390, 165744.0
908.1640, 159521.0
909.2890, 154261.0
910.4130, 149626.0
911.5380, 146781.0
912.6620, 143660.0
913.7860, 142214.0
914.9100, 140381.0
916.0340, 139482.0
917.1580, 138152.0
918.2810, 137386.0
919.4040, 136894.0
920.5280, 136771.0
921.6510, 136416.0
922.7730, 136380.0
923.8960, 136545.0
925.0180, 136849.0
926.1410, 136815.0
927.2630, 136655.0
928.3850, 137282.0
929.5070, 137357.0
930.6280, 138093.0
931.7500, 138792.0
932.8710, 139717.0
933.9920, 140732.0
935.1130, 141786.0
936.2340, 142441.0
937.3550, 143925.0
938.4760, 144787.0
939.5960, 145426.0
940.7160, 147070.0
941.8360, 147993.0
942.9560, 149312.0
944.0760, 150521.0
945.1950, 151996.0
946.3150, 153883.0
947.4340, 155254.0
948.5530, 156357.0
949.6720, 157702.0
950.7900, 157939.0
951.9090, 158505.0
953.0270, 158207.0
954.1460, 157884.0
955.2640, 157529.0
956.3820, 156924.0
957.4990, 156564.0
958.6170, 156346.0
959.7340, 156216.0
960.8520, 156087.0
961.9690, 154835.0
963.0860, 154701.0
964.2020, 153761.0
965.3190, 151105.0
966.4350, 148635.0
967.5520, 147128.0
968.6680, 145432.0
969.7840, 144640.0
970.8990, 142883.0
972.0150, 141990.0
973.1310, 141300.0
974.2460, 140116.0
975.3610, 139418.0
976.4760, 139126.0
977.5910, 138927.0
978.7050, 138302.0
979.8200, 137801.0
980.9340, 137747.0
982.0480, 137597.0
983.1620, 136988.0
984.2760, 137059.0
985.3900, 137290.0
986.5030, 137406.0
987.6160, 136869.0
988.7300, 136991.0
989.8430, 137033.0
990.9550, 137054.0
992.0680, 137275.0
993.1810, 137099.0
994.2930, 136951.0
995.4050, 136894.0
996.5170, 137712.0
997.6290, 137822.0
998.7410, 137983.0
999.8520, 137801.0
1000.964, 138046.0
1002.075, 137609.0
1003.186, 137781.5
1004.297, 137652.0
1005.407, 137860.0
1006.518, 137892.0
1007.628, 137869.0
1008.738, 137758.9
1009.848, 137361.0
1010.958, 137511.0
1012.068, 137479.0
1013.178, 137726.0
1014.287, 137496.0
1015.396, 137821.0
1016.505, 137593.0
1017.614, 137337.0
1018.723, 137526.0
1019.831, 137456.0
1020.940, 138325.0
1022.048, 137823.0
1023.156, 138066.0
1024.264, 137653.0
1025.372, 137919.0
1026.479, 138155.0
1027.587, 138548.0
1028.694, 138365.0
1029.801, 138172.0
1030.908, 138509.0
1032.015, 138236.0
1033.121, 138675.0
1034.228, 138576.0
1035.334, 138848.0
1036.440, 138993.0
1037.546, 138955.0
1038.652, 138641.0
1039.758, 138979.0
1040.863, 138824.0
1041.968, 138856.0
1043.074, 138932.0
1044.178, 139261.0
1045.283, 139467.0
1046.388, 139365.0
1047.492, 140004.0
1048.597, 139868.0
1049.701, 139661.0
1050.805, 140291.0
1051.909, 139951.0
1053.012, 140354.0
1054.116, 140002.0
1055.219, 140228.0
1056.322, 140278.0
1057.425, 140366.0
1058.528, 140451.0
1059.631, 140600.8
1060.733, 140773.0
1061.836, 140943.0
1062.938, 140822.1
1064.040, 141341.4
1065.142, 141680.6
1066.243, 141849.2
1067.345, 141336.8
1068.446, 141703.8
1069.547, 141718.3
1070.648, 141718.4
1071.749, 142209.1
1072.850, 141795.8
1073.951, 142278.7
1075.051, 142403.8
1076.151, 142692.6
1077.251, 142626.8
1078.351, 142670.5
1079.451, 143069.0
1080.550, 143270.9
1081.650, 143164.3
1082.749, 143463.5
1083.848, 143037.5
1084.947, 143247.8
1086.046, 143732.6
1087.144, 143643.7
1088.243, 143949.3
1089.341, 143334.0
1090.439, 143793.0
1091.537, 144109.0
1092.635, 144449.0
1093.732, 144006.0
1094.830, 144374.0
1095.927, 144555.0
1097.024, 144501.0
1098.121, 144773.0
1099.218, 144705.0
1100.314, 145358.0
1101.411, 145430.0
1102.507, 145393.0
1103.603, 145496.0
1104.699, 145626.0
1105.795, 145446.0
1106.890, 145503.0
1107.986, 145468.0
1109.081, 145545.0
1110.176, 146130.0
1111.271, 145685.0
1112.366, 145495.0
1113.461, 145718.0
1114.555, 146322.0
1115.649, 146368.0
1116.744, 146342.0
1117.838, 146858.0
1118.931, 146622.0
1120.025, 146821.0
1121.119, 147165.0
1122.212, 146862.0
1123.305, 147258.0
1124.398, 147527.0
1125.491, 147648.0
1126.584, 147219.0
1127.676, 147595.0
1128.768, 147463.0
1129.861, 147781.0
1130.953, 147824.1
1132.044, 147680.0
1133.136, 147829.0
1134.228, 148116.0
1135.319, 147880.0
1136.410, 148016.0
1137.501, 147837.0
1138.592, 148375.0
1139.683, 148373.0
1140.773, 148441.0
1141.864, 148903.0
1142.954, 149175.0
1144.044, 149051.0
1145.134, 149241.0
1146.224, 149168.0
1147.313, 149143.0
1148.402, 148976.0
1149.492, 149233.2
1150.581, 149961.0
1151.670, 149710.0
1152.758, 149902.0
1153.847, 150058.0
1154.935, 150100.0
1156.024, 149837.0
1157.112, 150319.0
1158.200, 150639.0
1159.287, 150108.0
1160.375, 150205.0
1161.462, 150497.0
1162.550, 150850.0
1163.637, 150933.0
1164.724, 151229.0
1165.810, 151321.0
1166.897, 151402.9
1167.983, 151468.0
1169.070, 151512.0
1170.156, 151563.0
1171.242, 151635.8
1172.327, 151806.4
1173.413, 152010.0
1174.499, 151993.0
1175.584, 152199.0
1176.669, 151852.0
1177.754, 152253.0
1178.839, 151805.0
1179.923, 152485.0
1181.008, 152563.0
1182.092, 152627.0
1183.176, 152088.0
1184.260, 152685.0
1185.344, 152640.0
1186.428, 152999.0
1187.511, 152716.0
1188.595, 153486.0
1189.678, 153035.0
1190.761, 153164.0
1191.843, 153275.0
1192.926, 153061.0
1194.009, 153928.0
1195.091, 153927.0
1196.173, 153893.0
1197.255, 153644.0
1198.337, 154165.0
1199.419, 154347.0
1200.500, 154339.0
1201.582, 154083.0
1202.663, 154878.0
1203.744, 154591.0
1204.825, 154934.0
1205.905, 155196.0
1206.986, 155329.0
1208.066, 155507.0
1209.146, 155453.0
1210.226, 155196.0
1211.306, 155223.0
1212.386, 155693.0
1213.466, 155759.0
1214.545, 155270.0
1215.624, 156174.0
1216.703, 155837.0
1217.782, 156073.0
1218.861, 156341.0
1219.939, 156197.0
1221.018, 157326.0
1222.096, 157373.0
1223.174, 156394.0
1224.252, 157201.0
1225.330, 156785.0
1226.407, 157296.0
1227.485, 157019.0
1228.562, 157324.0
1229.639, 157050.0
1230.716, 157780.0
1231.793, 157648.0
1232.869, 157699.0
1233.946, 158069.0
1235.022, 157861.0
1236.098, 158103.0
1237.174, 158446.0
1238.250, 158086.0
1239.325, 158858.0
1240.401, 158863.0
1241.476, 158805.0
1242.551, 158249.0
1243.626, 158195.0
1244.701, 158401.0
1245.776, 158932.0
1246.850, 159532.0
1247.924, 159628.5
1248.999, 159813.3
1250.073, 159792.0
1251.146, 159844.0
1252.220, 159514.0
1253.293, 159703.0
1254.367, 159914.0
1255.440, 159688.0
1256.513, 159833.0
1257.586, 159999.0
1258.658, 159438.0
1259.731, 160332.0
1260.803, 159766.0
1261.875, 160355.0
1262.947, 161036.0
1264.019, 160681.0
1265.091, 160941.0
1266.162, 160889.0
1267.234, 160904.0
1268.305, 161287.0
1269.376, 161571.0
1270.447, 161770.0
1271.517, 160695.0
1272.588, 161717.0
1273.658, 161942.0
1274.729, 161760.0
1275.799, 162528.0
1276.868, 161850.0
1277.938, 162397.0
1279.008, 162171.0
1280.077, 163160.0
1281.146, 164061.0
1282.215, 162500.0
1283.284, 162450.0
1284.353, 162719.0
1285.421, 162258.0
1286.490, 162659.0
1287.558, 162783.0
1288.626, 163304.0
1289.694, 163308.0
1290.762, 164220.0
1291.829, 163614.0
1292.897, 163479.0
1293.964, 163918.0
1295.031, 163312.0
1296.098, 164109.0
1297.165, 164021.0
1298.231, 163553.0
1299.298, 164584.0
1300.364, 164377.0
1301.430, 164923.0
1302.496, 164450.0
1303.562, 164755.0
1304.627, 164924.0
1305.693, 164942.0
1306.758, 165409.0
1307.823, 165439.0
1308.888, 164985.0
1309.953, 165485.0
1311.018, 165275.0
1312.082, 165548.0
1313.146, 165554.5
1314.210, 165435.0
1315.274, 165523.0
1316.338, 166151.0
1317.402, 166225.0
1318.465, 166180.0
1319.529, 166529.0
1320.592, 166426.0
1321.655, 166544.0
1322.718, 166732.0
1323.780, 166619.0
1324.843, 166308.0
1325.905, 166473.0
1326.967, 166604.0
1328.029, 166682.0
1329.091, 166760.0
1330.153, 166967.6
1331.214, 167500.0
1332.275, 167280.0
1333.337, 167399.0
1334.398, 167333.0
1335.458, 167982.0
1336.519, 167328.0
1337.580, 167822.0
1338.640, 168294.0
1339.700, 168261.0
1340.760, 168192.0
1341.820, 168700.0
1342.880, 168344.0
1343.939, 168792.0
1344.999, 169056.0
1346.058, 169284.0
1347.117, 169383.3
1348.176, 169071.0
1349.235, 169488.0
1350.293, 169129.0
1351.351, 169358.0
1352.410, 169293.0
1353.468, 169499.0
1354.526, 169940.0
1355.583, 169677.0
1356.641, 169830.0
1357.698, 169435.0
1358.756, 170373.0
1359.813, 169850.0
1360.869, 170513.0
1361.926, 169772.0
1362.983, 170134.0
1364.039, 170355.0
1365.095, 170680.0
1366.152, 170957.0
1367.207, 171248.0
1368.263, 171106.0
1369.319, 171325.0
1370.374, 171082.0
1371.430, 171589.0
1372.485, 170961.0
1373.540, 171631.0
1374.594, 171996.0
1375.649, 171876.0
1376.703, 171886.0
1377.758, 171586.0
1378.812, 171703.0
1379.866, 171834.0
1380.920, 172147.0
1381.973, 172524.0
1383.027, 172776.0
1384.080, 172385.0
1385.133, 172874.0
1386.186, 172902.0
1387.239, 172441.0
1388.291, 172796.0
1389.344, 172847.0
1390.396, 173348.0
1391.448, 173370.8
1392.500, 173524.5
1393.552, 173575.0
1394.604, 173527.0
1395.655, 173693.0
1396.707, 173352.0
1397.758, 174313.0
1398.809, 174207.0
1399.860, 173850.0
1400.910, 174263.0
1401.961, 174110.5
1403.011, 174618.0
1404.061, 174262.0
1405.111, 174429.0
1406.161, 174517.0
1407.211, 174607.0
1408.260, 175150.0
1409.310, 175374.0
1410.359, 174948.0
1411.408, 175781.0
1412.457, 175514.0
1413.506, 175260.0
1414.554, 175417.0
1415.603, 175169.0
1416.651, 176144.0
1417.699, 176128.0
1418.747, 176193.0
1419.794, 175340.0
1420.842, 176401.0
1421.889, 176074.0
1422.937, 176227.0
1423.984, 176269.0
1425.031, 176472.0
1426.077, 176422.0
1427.124, 176395.0
1428.170, 176789.0
1429.217, 176498.0
1430.263, 176482.0
1431.309, 177046.0
1432.354, 177194.0
1433.400, 176906.0
1434.445, 177532.0
1435.491, 177556.0
1436.536, 177422.0
1437.581, 177653.0
1438.625, 177713.0
1439.670, 178282.0
1440.714, 177524.0
1441.759, 178076.0
1442.803, 178770.0
1443.847, 178273.0
1444.890, 178835.0
1445.934, 178755.0
1446.978, 178400.0
1448.021, 179086.0
1449.064, 178657.0
1450.107, 179157.0
1451.150, 179081.0
1452.192, 179498.0
1453.235, 179477.0
1454.277, 179231.0
1455.319, 179729.0
1456.361, 179585.0
1457.403, 179818.0
1458.445, 179439.0
1459.486, 179890.0
1460.528, 179726.0
1461.569, 179794.0
1462.610, 180283.0
1463.651, 179834.0
1464.691, 180119.0
1465.732, 180695.0
1466.772, 180938.0
1467.812, 179935.0
1468.852, 180712.0
1469.892, 180795.0
1470.932, 181172.0
1471.971, 182164.0
1473.011, 180783.0
1474.050, 181242.0
1475.089, 180727.0
1476.128, 181498.0
1477.166, 181410.0
1478.205, 181469.0
1479.243, 181643.0
1480.282, 181924.0
1481.320, 181767.0
1482.357, 181658.0
1483.395, 182165.0
1484.433, 182400.0
1485.470, 182269.0
1486.507, 182606.0
1487.544, 182648.1
1488.581, 182266.0
1489.618, 182923.0
1490.655, 182583.0
1491.691, 182777.0
1492.727, 182608.0
1493.763, 182581.3
1494.799, 182873.0
1495.835, 182557.0
1496.871, 182894.0
1497.906, 182906.0
1498.941, 182979.0
1499.976, 183382.0
1501.011, 183509.0
1502.046, 183097.0
1503.081, 183359.0
1504.115, 184350.0
1505.149, 183877.0
1506.183, 183773.0
1507.217, 184373.0
1508.251, 183838.0
1509.285, 183678.0
1510.318, 184062.0
1511.352, 184500.0
1512.385, 184292.0
1513.418, 184627.0
1514.450, 184958.0
1515.483, 183962.0
1516.516, 185002.0
1517.548, 185033.0
1518.580, 184813.0
1519.612, 185428.0
1520.644, 185242.0
1521.675, 185345.0
1522.707, 185550.0
1523.738, 186044.0
1524.769, 185995.0
1525.800, 186517.0
1526.831, 185728.0
1527.862, 186861.0
1528.892, 186432.0
1529.923, 186187.0
1530.953, 186698.0
1531.983, 186721.0
1533.013, 186769.0
1534.042, 186999.0
1535.072, 186721.0
1536.101, 187696.0
1537.131, 187468.0
1538.160, 187376.0
1539.188, 187678.0
1540.217, 187230.0
1541.246, 187870.0
1542.274, 187542.0
1543.302, 187693.0
1544.330, 188358.0
1545.358, 188117.0
1546.386, 188026.0
1547.413, 188227.0
1548.441, 187918.0
1549.468, 188554.0
1550.495, 188277.0
1551.522, 188573.0
1552.549, 188391.0
1553.575, 188824.0
1554.602, 188928.0
1555.628, 188819.0
1556.654, 189024.0
1557.680, 188816.0
1558.706, 188664.0
1559.731, 189112.0
1560.757, 188967.5
1561.782, 189164.2
1562.807, 189213.0
1563.832, 189329.0
1564.857, 189563.0
1565.881, 189382.0
1566.906, 189359.0
1567.930, 190217.0
1568.954, 190131.0
1569.978, 190453.0
1571.002, 190104.0
1572.025, 189951.0
1573.049, 190608.0
1574.072, 190020.0
1575.095, 190522.0
1576.118, 190401.0
1577.141, 190173.0
1578.164, 191125.0
##END=



