##NAMES=Kyanite
##RRUFFID=R040119
##IDEAL CHEMISTRY=Al_2_OSiO_4_
##LOCALITY=Rutherford County, North Carolina, USA
##OWNER=RRUFF
##SOURCE=University of Arizona Mineral Museum
##DESCRIPTION=Blue bladed crystal
##STATUS=The identification of this mineral has been confirmed by X-ray diffraction and chemical analysis
##URL=rruff.info/R040119
##MEASURED CHEMISTRY=(Al_0.99_Fe^3+^_0.01_)_2_OSi_1.00_O_4_
##PIN_ID=L00375
##ORIENTATION=Laser parallel to (0 1 1). Fiducial mark perpendicular to laser is parallel to a [1 0 0]
103.1740, 77863.00
104.4090, 78417.00
105.6440, 78885.00
106.8790, 78388.00
108.1140, 78104.00
109.3490, 78033.00
110.5830, 78492.00
111.8180, 78231.00
113.0520, 79025.00
114.2860, 79450.00
115.5200, 80038.00
116.7530, 79977.00
117.9870, 80455.00
119.2200, 81086.00
120.4530, 81032.00
121.6860, 80030.00
122.9190, 78875.00
124.1520, 79068.00
125.3850, 78877.00
126.6170, 79499.00
127.8490, 79321.00
129.0810, 79571.00
130.3130, 79843.00
131.5450, 80200.00
132.7770, 79930.00
134.0080, 79793.00
135.2390, 80085.00
136.4710, 80401.00
137.7020, 80536.00
138.9320, 80688.09
140.1630, 80611.00
141.3930, 80749.00
142.6240, 80800.00
143.8540, 80649.00
145.0840, 81320.00
146.3140, 81512.00
147.5440, 81554.00
148.7730, 81508.00
150.0020, 81792.00
151.2320, 81732.00
152.4610, 81941.00
153.6900, 82168.00
154.9180, 82269.00
156.1470, 82448.00
157.3750, 82471.00
158.6040, 82446.00
159.8320, 83507.00
161.0600, 82885.00
162.2870, 83475.00
163.5150, 83383.00
164.7420, 83400.00
165.9700, 84452.00
167.1970, 84120.00
168.4240, 84233.00
169.6510, 84393.00
170.8770, 85144.00
172.1040, 84920.00
173.3300, 85683.00
174.5560, 86483.00
175.7820, 86183.00
177.0080, 86202.00
178.2340, 86098.00
179.4590, 85704.00
180.6850, 85319.00
181.9100, 85274.00
183.1350, 85114.80
184.3600, 85103.01
185.5850, 85246.00
186.8090, 85255.00
188.0340, 85610.00
189.2580, 85764.00
190.4820, 85860.66
191.7060, 85977.00
192.9300, 86175.00
194.1530, 86105.00
195.3770, 86471.00
196.6000, 86563.00
197.8230, 86975.00
199.0460, 87479.00
200.2690, 87667.00
201.4910, 87937.00
202.7140, 88269.00
203.9360, 89501.00
205.1580, 89902.00
206.3800, 89733.00
207.6020, 90154.00
208.8240, 89569.00
210.0450, 89101.00
211.2670, 88581.00
212.4880, 88387.00
213.7090, 88360.00
214.9300, 89009.00
216.1510, 89520.00
217.3710, 89747.00
218.5920, 90472.00
219.8120, 90949.00
221.0320, 91895.00
222.2520, 92885.00
223.4720, 94493.00
224.6910, 95813.00
225.9110, 96037.00
227.1300, 94874.00
228.3490, 93605.00
229.5680, 92402.00
230.7870, 91287.00
232.0050, 90324.00
233.2240, 90307.00
234.4420, 89936.00
235.6600, 90271.00
236.8780, 90079.00
238.0960, 90541.00
239.3140, 90516.00
240.5310, 90817.00
241.7490, 90984.00
242.9660, 91265.00
244.1830, 91425.47
245.4000, 91711.00
246.6160, 91716.00
247.8330, 91765.00
249.0490, 91850.00
250.2660, 92147.00
251.4820, 91380.00
252.6980, 92067.00
253.9130, 92150.00
255.1290, 92569.00
256.3440, 92985.00
257.5600, 92822.00
258.7750, 92178.00
259.9900, 91825.00
261.2040, 91871.00
262.4190, 92353.00
263.6330, 92943.00
264.8480, 92906.00
266.0620, 93496.00
267.2760, 93995.00
268.4900, 94856.00
269.7030, 96211.00
270.9170, 96626.00
272.1300, 98630.00
273.3430, 100107.0
274.5560, 102336.0
275.7690, 104743.0
276.9820, 105516.0
278.1940, 105172.0
279.4070, 103284.0
280.6190, 101864.0
281.8310, 100898.0
283.0430, 101269.0
284.2550, 102436.0
285.4660, 104371.0
286.6770, 106794.0
287.8890, 111255.0
289.1000, 115875.0
290.3110, 120328.0
291.5210, 123120.0
292.7320, 126032.0
293.9420, 130719.0
295.1530, 137834.0
296.3630, 148483.0
297.5730, 162714.0
298.7830, 180412.0
299.9920, 193165.0
301.2020, 187698.0
302.4110, 169459.0
303.6200, 149230.0
304.8290, 131071.0
306.0380, 117226.0
307.2470, 110124.0
308.4550, 106021.0
309.6630, 104813.0
310.8720, 103568.0
312.0800, 103906.0
313.2880, 104878.0
314.4950, 105987.0
315.7030, 107912.0
316.9100, 110676.0
318.1170, 113843.0
319.3240, 118870.0
320.5310, 124671.0
321.7380, 132010.0
322.9450, 141052.0
324.1510, 148532.0
325.3570, 147271.0
326.5630, 139860.0
327.7690, 129233.0
328.9750, 119134.0
330.1810, 111908.0
331.3860, 107040.0
332.5910, 104629.0
333.7960, 104041.0
335.0010, 103589.0
336.2060, 103917.0
337.4110, 104798.0
338.6150, 105490.0
339.8200, 105749.2
341.0240, 105885.1
342.2280, 105967.0
343.4320, 105491.0
344.6350, 104738.0
345.8390, 104322.0
347.0420, 104979.0
348.2450, 105247.0
349.4480, 106760.0
350.6510, 108280.0
351.8540, 111350.0
353.0560, 114222.0
354.2590, 119071.0
355.4610, 125087.0
356.6630, 131995.0
357.8650, 140328.0
359.0670, 145145.0
360.2680, 141823.0
361.4700, 134307.0
362.6710, 126022.0
363.8720, 120466.0
365.0730, 117151.0
366.2740, 116137.0
367.4740, 117188.0
368.6750, 119529.0
369.8750, 123026.0
371.0750, 125855.0
372.2750, 128230.0
373.4750, 130099.0
374.6740, 133115.0
375.8740, 136205.0
377.0730, 138653.0
378.2720, 142089.0
379.4710, 147081.0
380.6700, 154570.0
381.8690, 163905.0
383.0670, 173977.0
384.2660, 178653.0
385.4640, 175636.0
386.6620, 170727.0
387.8600, 166805.0
389.0570, 166785.0
390.2550, 173507.0
391.4520, 176278.0
392.6490, 169938.0
393.8460, 158535.0
395.0430, 148860.0
396.2400, 143642.0
397.4370, 144008.0
398.6330, 150627.0
399.8290, 160300.0
401.0250, 173156.0
402.2210, 185027.0
403.4170, 188806.0
404.6130, 179765.0
405.8080, 163667.0
407.0030, 148484.0
408.1980, 135602.0
409.3930, 126518.0
410.5880, 122365.0
411.7830, 120349.0
412.9770, 119842.0
414.1720, 120763.0
415.3660, 122191.0
416.5600, 124760.0
417.7530, 127028.0
418.9470, 127361.0
420.1410, 125609.0
421.3340, 123135.0
422.5270, 121022.0
423.7200, 119171.0
424.9130, 119194.0
426.1060, 120343.0
427.2980, 123520.0
428.4900, 127165.0
429.6830, 132156.0
430.8750, 139478.0
432.0670, 148029.0
433.2580, 158230.0
434.4500, 168168.0
435.6410, 174775.0
436.8320, 175805.0
438.0240, 171015.0
439.2140, 159594.0
440.4050, 148175.0
441.5960, 139318.0
442.7860, 132550.0
443.9760, 130476.0
445.1670, 129494.0
446.3560, 129355.0
447.5460, 129327.0
448.7360, 126722.0
449.9250, 123888.0
451.1150, 119846.0
452.3040, 117213.0
453.4930, 115528.0
454.6810, 114544.0
455.8700, 114811.0
457.0590, 114758.0
458.2470, 115042.0
459.4350, 116193.0
460.6230, 117442.0
461.8110, 119214.0
462.9980, 120257.0
464.1860, 121474.0
465.3730, 121801.0
466.5600, 122003.0
467.7470, 122193.0
468.9340, 122310.0
470.1210, 123212.0
471.3080, 124912.0
472.4940, 127378.0
473.6800, 131378.0
474.8660, 137892.0
476.0520, 145720.0
477.2380, 156668.0
478.4230, 171884.0
479.6090, 190222.0
480.7940, 214579.0
481.9790, 244183.0
483.1640, 275274.0
484.3490, 303927.0
485.5330, 317070.0
486.7180, 305115.0
487.9020, 276243.0
489.0860, 245267.0
490.2700, 217175.0
491.4540, 196311.0
492.6370, 180484.0
493.8210, 167813.0
495.0040, 156744.0
496.1870, 147347.0
497.3700, 140241.0
498.5530, 134980.0
499.7360, 131738.0
500.9180, 129767.0
502.1000, 128319.0
503.2830, 127708.0
504.4650, 127745.0
505.6460, 127937.0
506.8280, 128858.0
508.0100, 130164.0
509.1910, 130379.0
510.3720, 130969.0
511.5530, 130579.0
512.7340, 129301.0
513.9150, 127343.0
515.0950, 124791.0
516.2760, 123333.0
517.4560, 121157.0
518.6360, 120231.0
519.8160, 119568.0
520.9950, 118487.0
522.1750, 118169.0
523.3540, 117566.0
524.5340, 118042.0
525.7130, 117627.0
526.8920, 117347.0
528.0700, 117981.0
529.2490, 117438.0
530.4270, 117466.0
531.6060, 117456.0
532.7840, 117282.0
533.9620, 118107.0
535.1390, 118273.0
536.3170, 118336.0
537.4940, 118705.0
538.6720, 119636.0
539.8490, 120470.0
541.0260, 121586.0
542.2030, 122289.0
543.3790, 123538.0
544.5560, 124289.0
545.7320, 123621.0
546.9080, 123727.0
548.0840, 123021.0
549.2600, 122639.0
550.4360, 123182.0
551.6110, 123333.0
552.7860, 124104.0
553.9620, 125763.0
555.1370, 127685.0
556.3110, 130459.0
557.4860, 134106.0
558.6610, 138352.0
559.8350, 143741.0
561.0090, 148711.0
562.1830, 149825.0
563.3570, 148677.0
564.5310, 144257.0
565.7040, 140606.0
566.8780, 138159.0
568.0510, 136664.0
569.2240, 136845.0
570.3970, 136865.0
571.5700, 137887.0
572.7420, 136326.0
573.9150, 134238.0
575.0870, 131646.0
576.2590, 129465.0
577.4310, 127434.0
578.6030, 125849.0
579.7740, 125671.0
580.9460, 125349.0
582.1170, 124752.0
583.2880, 124922.0
584.4590, 124703.0
585.6300, 125034.0
586.8010, 124907.0
587.9710, 124438.0
589.1410, 124127.0
590.3110, 123879.0
591.4810, 123555.0
592.6510, 123822.0
593.8210, 123899.0
594.9900, 124375.0
596.1600, 125089.0
597.3290, 125954.0
598.4980, 126760.1
599.6670, 127645.0
600.8350, 128781.0
602.0040, 129987.0
603.1720, 131265.0
604.3400, 132215.0
605.5080, 132193.7
606.6760, 132583.0
607.8440, 131317.0
609.0120, 130301.0
610.1790, 129136.0
611.3460, 129073.0
612.5130, 128716.0
613.6800, 128721.0
614.8470, 128661.0
616.0130, 129157.0
617.1800, 129100.0
618.3460, 128623.0
619.5120, 128969.0
620.6780, 128663.0
621.8440, 128727.0
623.0090, 128399.0
624.1750, 128246.0
625.3400, 128795.0
626.5050, 129429.8
627.6700, 130717.0
628.8350, 131978.0
629.9990, 133453.0
631.1640, 135711.0
632.3280, 137687.0
633.4920, 140666.0
634.6560, 142784.0
635.8200, 143989.0
636.9840, 144278.0
638.1470, 142459.0
639.3100, 140234.0
640.4730, 137480.0
641.6360, 135151.0
642.7990, 133195.0
643.9620, 131874.0
645.1240, 131302.0
646.2870, 131132.0
647.4490, 131989.0
648.6110, 132977.0
649.7730, 133862.0
650.9340, 135160.0
652.0960, 136908.0
653.2570, 138058.0
654.4180, 139856.0
655.5790, 140649.0
656.7400, 140548.0
657.9010, 139624.0
659.0620, 138262.0
660.2220, 136539.0
661.3820, 135153.0
662.5420, 134275.0
663.7020, 134157.0
664.8620, 134328.0
666.0210, 134800.0
667.1810, 135328.0
668.3400, 135613.0
669.4990, 136041.0
670.6580, 135266.0
671.8170, 135656.0
672.9750, 133583.0
674.1340, 132467.0
675.2920, 131069.0
676.4500, 130281.0
677.6080, 129731.0
678.7660, 130429.0
679.9230, 129822.0
681.0810, 130007.0
682.2380, 129699.0
683.3950, 129814.0
684.5520, 129964.0
685.7090, 129608.0
686.8660, 129619.0
688.0220, 129331.0
689.1780, 129066.0
690.3340, 129433.0
691.4900, 128771.0
692.6460, 128846.0
693.8020, 129389.0
694.9570, 129137.0
696.1130, 128977.0
697.2680, 129763.0
698.4230, 129309.0
699.5780, 129954.0
700.7320, 130229.0
701.8870, 129690.0
703.0410, 130377.0
704.1950, 130559.0
705.3490, 130226.0
706.5030, 130196.0
707.6570, 129608.0
708.8110, 129842.0
709.9640, 129834.0
711.1170, 129934.0
712.2700, 129738.0
713.4230, 129458.0
714.5760, 129207.0
715.7280, 128863.0
716.8810, 129118.0
718.0330, 128961.0
719.1850, 129346.0
720.3370, 129633.0
721.4890, 129987.0
722.6400, 130082.0
723.7920, 130717.0
724.9430, 130653.0
726.0940, 130638.0
727.2450, 130133.0
728.3960, 130339.0
729.5460, 130215.0
730.6970, 130520.0
731.8470, 130275.0
732.9970, 130526.0
734.1470, 130573.0
735.2970, 130695.0
736.4460, 130813.0
737.5960, 131006.0
738.7450, 130895.0
739.8940, 131319.0
741.0430, 131139.0
742.1920, 131563.0
743.3410, 131343.0
744.4890, 131612.0
745.6370, 131448.0
746.7850, 131961.0
747.9330, 131694.0
749.0810, 131722.0
750.2290, 131980.6
751.3760, 131781.5
752.5240, 132259.0
753.6710, 131735.0
754.8180, 131665.0
755.9650, 131729.4
757.1110, 131802.0
758.2580, 131844.0
759.4040, 131874.1
760.5510, 131730.0
761.6970, 131915.0
762.8420, 131948.0
763.9880, 131988.0
765.1340, 132219.0
766.2790, 132483.0
767.4240, 131972.0
768.5690, 132384.0
769.7140, 132671.0
770.8590, 132256.0
772.0030, 132126.0
773.1480, 132047.0
774.2920, 131904.6
775.4360, 133014.0
776.5800, 132024.0
777.7240, 132302.0
778.8670, 132772.0
780.0110, 132314.0
781.1540, 132187.0
782.2970, 132325.0
783.4400, 132795.0
784.5830, 133291.0
785.7250, 133244.0
786.8680, 132752.0
788.0100, 133008.0
789.1520, 133422.0
790.2940, 132835.0
791.4360, 133678.0
792.5780, 133361.0
793.7190, 133497.0
794.8600, 134007.0
796.0010, 133560.0
797.1420, 134378.0
798.2830, 134044.0
799.4240, 134276.0
800.5640, 134580.0
801.7050, 134279.0
802.8450, 134700.0
803.9850, 134784.0
805.1250, 135015.0
806.2640, 135380.0
807.4040, 135140.0
808.5430, 135382.0
809.6820, 135461.0
810.8210, 135790.0
811.9600, 135380.0
813.0990, 135473.0
814.2370, 135160.0
815.3760, 136064.0
816.5140, 136176.0
817.6520, 135936.0
818.7900, 136295.0
819.9270, 136066.0
821.0650, 136657.0
822.2020, 136774.0
823.3390, 137120.0
824.4760, 136786.0
825.6130, 136882.0
826.7500, 137125.0
827.8870, 137215.0
829.0230, 137390.0
830.1590, 137526.0
831.2950, 137714.0
832.4310, 137789.0
833.5670, 138004.5
834.7030, 138046.0
835.8380, 138327.0
836.9730, 138466.0
838.1080, 138480.0
839.2430, 139133.0
840.3780, 139283.0
841.5130, 139602.0
842.6470, 139124.0
843.7810, 139837.0
844.9150, 139698.0
846.0490, 140107.0
847.1830, 140309.0
848.3170, 140271.0
849.4500, 140611.0
850.5830, 141110.0
851.7160, 141002.0
852.8490, 141459.0
853.9820, 141794.0
855.1150, 142005.5
856.2470, 142195.0
857.3800, 142772.0
858.5120, 142952.0
859.6440, 143578.0
860.7760, 143126.0
861.9070, 143611.0
863.0390, 144188.0
864.1700, 144435.0
865.3010, 145205.0
866.4320, 145740.0
867.5630, 146050.0
868.6940, 146965.0
869.8240, 147870.0
870.9540, 148702.0
872.0850, 149657.0
873.2150, 151167.0
874.3450, 152249.0
875.4740, 153700.0
876.6040, 155036.0
877.7330, 156786.0
878.8620, 159897.0
879.9910, 162541.0
881.1200, 166030.0
882.2490, 170488.0
883.3770, 173925.0
884.5060, 180301.0
885.6340, 185757.0
886.7620, 191992.0
887.8900, 196741.0
889.0180, 200041.0
890.1450, 201964.0
891.2730, 201978.0
892.4000, 200813.0
893.5270, 199697.0
894.6540, 199993.0
895.7810, 201376.0
896.9070, 204648.0
898.0340, 208146.0
899.1600, 210820.0
900.2860, 213472.0
901.4120, 212426.0
902.5380, 208885.0
903.6630, 202002.0
904.7890, 194305.0
905.9140, 187523.0
907.0390, 180749.0
908.1640, 175348.0
909.2890, 171026.0
910.4130, 167558.0
911.5380, 165678.0
912.6620, 163393.0
913.7860, 162299.0
914.9100, 161815.0
916.0340, 161094.0
917.1580, 160548.0
918.2810, 160492.0
919.4040, 160601.0
920.5280, 160656.0
921.6510, 161272.0
922.7730, 161768.0
923.8960, 162293.0
925.0180, 162821.0
926.1410, 164743.0
927.2630, 166124.0
928.3850, 167582.0
929.5070, 169023.0
930.6280, 171391.0
931.7500, 173820.0
932.8710, 176120.0
933.9920, 178625.0
935.1130, 182291.0
936.2340, 185483.0
937.3550, 187625.0
938.4760, 190607.0
939.5960, 193584.0
940.7160, 196866.0
941.8360, 199795.0
942.9560, 203532.0
944.0760, 207131.0
945.1950, 210175.0
946.3150, 212933.0
947.4340, 215796.0
948.5530, 216850.0
949.6720, 218997.0
950.7900, 220579.0
951.9090, 222973.0
953.0270, 223877.0
954.1460, 225189.0
955.2640, 227924.0
956.3820, 229498.0
957.4990, 232996.0
958.6170, 234682.0
959.7340, 236776.0
960.8520, 235631.0
961.9690, 234386.0
963.0860, 229615.0
964.2020, 223602.0
965.3190, 216584.0
966.4350, 208626.0
967.5520, 202648.0
968.6680, 195749.0
969.7840, 189729.0
970.8990, 185358.0
972.0150, 180980.0
973.1310, 177930.0
974.2460, 174366.0
975.3610, 171851.0
976.4760, 169928.0
977.5910, 168302.0
978.7050, 166708.0
979.8200, 165402.0
980.9340, 164437.0
982.0480, 163949.0
983.1620, 162802.0
984.2760, 162548.0
985.3900, 161538.0
986.5030, 161350.0
987.6160, 161422.0
988.7300, 161402.0
989.8430, 160660.0
990.9550, 161674.0
992.0680, 161868.0
993.1810, 162481.0
994.2930, 163671.0
995.4050, 164882.0
996.5170, 166789.0
997.6290, 167661.0
998.7410, 169162.0
999.8520, 170646.0
1000.964, 170829.0
1002.075, 169606.0
1003.186, 168625.0
1004.297, 166790.0
1005.407, 165480.0
1006.518, 163293.0
1007.628, 162137.0
1008.738, 161057.0
1009.848, 160151.0
1010.958, 159461.0
1012.068, 159012.0
1013.178, 158896.0
1014.287, 158315.0
1015.396, 158361.0
1016.505, 158135.0
1017.614, 157821.0
1018.723, 158061.0
1019.831, 157459.0
1020.940, 157560.0
1022.048, 157645.0
1023.156, 157211.0
1024.264, 156612.0
1025.372, 157306.0
1026.479, 157032.0
1027.587, 156874.0
1028.694, 157186.0
1029.801, 156837.0
1030.908, 157113.0
1032.015, 156994.0
1033.121, 156908.0
1034.228, 156882.0
1035.334, 156832.0
1036.440, 156946.0
1037.546, 156723.0
1038.652, 157401.0
1039.758, 157063.0
1040.863, 157678.0
1041.968, 156939.0
1043.074, 157558.0
1044.178, 157736.0
1045.283, 157613.0
1046.388, 157776.0
1047.492, 157697.0
1048.597, 158039.0
1049.701, 157950.0
1050.805, 157630.0
1051.909, 158526.0
1053.012, 157993.0
1054.116, 158659.0
1055.219, 158033.0
1056.322, 157808.0
1057.425, 158690.0
1058.528, 158583.0
1059.631, 158932.0
1060.733, 158907.0
1061.836, 159068.0
1062.938, 159212.0
1064.040, 159102.0
1065.142, 159167.3
1066.243, 159173.9
1067.345, 159108.0
1068.446, 159342.0
1069.547, 159398.0
1070.648, 159840.0
1071.749, 159721.0
1072.850, 159463.0
1073.951, 159625.0
1075.051, 159222.0
1076.151, 159711.0
1077.251, 159728.0
1078.351, 160507.0
1079.451, 160024.0
1080.550, 160323.0
1081.650, 160688.0
1082.749, 160195.0
1083.848, 160744.0
1084.947, 160673.0
1086.046, 160615.0
1087.144, 161418.0
1088.243, 161454.0
1089.341, 161166.0
1090.439, 161436.0
1091.537, 161833.0
1092.635, 161163.0
1093.732, 161377.0
1094.830, 162074.0
1095.927, 161889.0
1097.024, 162259.0
1098.121, 162287.0
1099.218, 162175.0
1100.314, 162721.0
1101.411, 162718.0
1102.507, 162729.0
1103.603, 162866.0
1104.699, 163173.0
1105.795, 162527.0
1106.890, 162737.0
1107.986, 163325.0
1109.081, 163299.0
1110.176, 163862.0
1111.271, 163548.0
1112.366, 163478.0
1113.461, 163464.0
1114.555, 163367.0
1115.649, 163822.0
1116.744, 163626.0
1117.838, 164373.0
1118.931, 163770.0
1120.025, 164081.0
1121.119, 164283.0
1122.212, 164318.0
1123.305, 164758.0
1124.398, 164589.0
1125.491, 164784.0
1126.584, 164598.0
1127.676, 164958.0
1128.768, 165220.0
1129.861, 165217.0
1130.953, 164917.0
1132.044, 164910.0
1133.136, 164812.7
1134.228, 164997.7
1135.319, 164683.0
1136.410, 165477.0
1137.501, 165473.0
1138.592, 165544.0
1139.683, 165354.0
1140.773, 165395.0
1141.864, 165878.0
1142.954, 165508.0
1144.044, 166440.0
1145.134, 166486.0
1146.224, 166361.0
1147.313, 166423.0
1148.402, 166269.0
1149.492, 167031.0
1150.581, 166538.0
1151.670, 167102.0
1152.758, 167518.0
1153.847, 167536.0
1154.935, 167351.0
1156.024, 167372.0
1157.112, 167520.2
1158.200, 167537.0
1159.287, 167998.7
1160.375, 168242.0
1161.462, 168657.0
1162.550, 168203.0
1163.637, 168472.0
1164.724, 168254.0
1165.810, 168825.0
1166.897, 168515.0
1167.983, 169188.0
1169.070, 168162.0
1170.156, 168755.0
1171.242, 168158.0
1172.327, 169109.0
1173.413, 168927.0
1174.499, 168862.0
1175.584, 169170.0
1176.669, 169003.0
1177.754, 169440.0
1178.839, 169371.0
1179.923, 169752.0
1181.008, 169562.0
1182.092, 170553.0
1183.176, 169767.0
1184.260, 168929.0
1185.344, 170396.0
1186.428, 170469.0
1187.511, 170064.0
1188.595, 170656.0
1189.678, 170221.0
1190.761, 170031.0
1191.843, 170935.0
1192.926, 170377.0
1194.009, 170679.0
1195.091, 170311.0
1196.173, 171250.0
1197.255, 170553.0
1198.337, 171638.0
1199.419, 171377.0
1200.500, 171395.0
1201.582, 171338.0
1202.663, 171849.0
1203.744, 171711.0
1204.825, 172167.0
1205.905, 171711.0
1206.986, 172590.0
1208.066, 172277.0
1209.146, 172674.0
1210.226, 172033.0
1211.306, 172286.0
1212.386, 172857.0
1213.466, 172429.0
1214.545, 172818.0
1215.624, 173137.0
1216.703, 172748.0
1217.782, 173466.0
1218.861, 172911.0
1219.939, 173594.0
1221.018, 173706.0
1222.096, 173914.0
1223.174, 174258.0
1224.252, 173946.0
1225.330, 175025.0
1226.407, 174082.0
1227.485, 174860.0
1228.562, 174849.0
1229.639, 174831.0
1230.716, 175887.0
1231.793, 174707.0
1232.869, 174993.0
1233.946, 174772.0
1235.022, 175268.0
1236.098, 175930.0
1237.174, 175610.0
1238.250, 175270.0
1239.325, 175801.0
1240.401, 175974.0
1241.476, 176518.0
1242.551, 175643.0
1243.626, 175153.0
1244.701, 176219.0
1245.776, 176609.0
1246.850, 176245.0
1247.924, 176299.0
1248.999, 176574.0
1250.073, 176365.0
1251.146, 176868.0
1252.220, 176381.0
1253.293, 176880.0
1254.367, 176888.0
1255.440, 177072.0
1256.513, 177289.0
1257.586, 176977.0
1258.658, 177847.0
1259.731, 177353.0
1260.803, 177476.0
1261.875, 177853.0
1262.947, 177376.0
1264.019, 177849.0
1265.091, 178030.0
1266.162, 178027.0
1267.234, 178104.0
1268.305, 177823.0
1269.376, 178162.0
1270.447, 178307.0
1271.517, 178808.0
1272.588, 178213.0
1273.658, 179246.0
1274.729, 179102.0
1275.799, 178595.0
1276.868, 178896.0
1277.938, 179475.0
1279.008, 179170.0
1280.077, 179692.0
1281.146, 179575.0
1282.215, 179723.0
1283.284, 180136.0
1284.353, 179928.0
1285.421, 180164.4
1286.490, 179524.0
1287.558, 180278.0
1288.626, 179857.0
1289.694, 179804.0
1290.762, 180318.0
1291.829, 180409.0
1292.897, 180723.0
1293.964, 180706.0
1295.031, 180699.0
1296.098, 180833.8
1297.165, 180956.8
1298.231, 181046.0
1299.298, 181371.0
1300.364, 181752.0
1301.430, 182025.0
1302.496, 181809.0
1303.562, 182484.0
1304.627, 182494.0
1305.693, 181791.0
1306.758, 182991.0
1307.823, 181760.0
1308.888, 183373.0
1309.953, 182293.0
1311.018, 182111.0
1312.082, 182567.0
1313.146, 180806.0
1314.210, 182735.0
1315.274, 182965.0
1316.338, 183706.0
1317.402, 183574.0
1318.465, 182881.0
1319.529, 183446.0
1320.592, 182768.0
1321.655, 183374.0
1322.718, 183930.0
1323.780, 183483.0
1324.843, 184341.0
1325.905, 184178.0
1326.967, 184225.0
1328.029, 184630.0
1329.091, 183989.0
1330.153, 184549.0
1331.214, 184763.0
1332.275, 183795.0
1333.337, 184981.0
1334.398, 185371.0
1335.458, 184998.0
1336.519, 184679.0
1337.580, 185011.0
1338.640, 185174.0
1339.700, 184904.0
1340.760, 185891.0
1341.820, 185745.0
1342.880, 185825.0
1343.939, 185481.0
1344.999, 185787.0
1346.058, 186055.0
1347.117, 186205.0
1348.176, 186355.0
1349.235, 186493.7
1350.293, 186533.0
1351.351, 186646.0
1352.410, 186521.0
1353.468, 186485.0
1354.526, 186357.0
1355.583, 186827.0
1356.641, 186502.0
1357.698, 187363.0
1358.756, 187512.0
1359.813, 187004.0
1360.869, 187788.0
1361.926, 187368.0
1362.983, 187319.0
1364.039, 187329.0
1365.095, 187440.0
1366.152, 187700.0
1367.207, 187927.0
1368.263, 188192.0
1369.319, 189116.0
1370.374, 188238.0
1371.430, 188196.0
1372.485, 188589.0
1373.540, 189408.0
1374.594, 189158.0
1375.649, 188619.0
1376.703, 188703.0
1377.758, 189499.0
1378.812, 188980.0
1379.866, 189065.0
1380.920, 189569.0
1381.973, 189446.0
1383.027, 189607.1
1384.080, 189586.0
1385.133, 189696.0
1386.186, 189773.0
1387.239, 189903.0
1388.291, 190106.3
1389.344, 190338.6
1390.396, 190448.0
1391.448, 190766.0
1392.500, 190700.0
1393.552, 190556.0
1394.604, 190177.0
1395.655, 190605.0
1396.707, 190665.0
1397.758, 191164.0
1398.809, 190653.0
1399.860, 191141.0
1400.910, 191032.0
1401.961, 191037.0
1403.011, 191353.2
1404.061, 191412.0
1405.111, 191752.0
1406.161, 191743.0
1407.211, 191864.0
1408.260, 191829.0
1409.310, 192104.0
1410.359, 192403.0
1411.408, 192078.0
1412.457, 192287.0
1413.506, 192842.0
1414.554, 192736.0
1415.603, 192558.0
1416.651, 192828.0
1417.699, 192541.0
1418.747, 193024.0
1419.794, 193061.0
1420.842, 193264.0
1421.889, 193162.0
1422.937, 193508.0
1423.984, 193491.0
1425.031, 193842.0
1426.077, 193418.0
1427.124, 193977.0
1428.170, 193543.0
1429.217, 194091.0
1430.263, 194175.0
1431.309, 193949.0
1432.354, 194204.0
1433.400, 194623.0
1434.445, 195361.0
1435.491, 194177.0
1436.536, 195458.0
1437.581, 194216.0
1438.625, 194748.0
1439.670, 195221.0
1440.714, 194851.0
1441.759, 195419.0
1442.803, 195347.0
1443.847, 194441.0
1444.890, 195302.0
1445.934, 194828.0
1446.978, 194446.0
1448.021, 195449.0
1449.064, 195421.0
1450.107, 195461.0
1451.150, 195308.0
1452.192, 195140.0
1453.235, 195990.0
1454.277, 195620.0
1455.319, 196526.0
1456.361, 195620.0
1457.403, 196156.0
1458.445, 196577.0
1459.486, 196650.0
1460.528, 196597.0
1461.569, 196948.0
1462.610, 196992.0
1463.651, 197053.0
1464.691, 196379.0
1465.732, 197852.0
1466.772, 197013.0
1467.812, 196885.0
1468.852, 197285.0
1469.892, 196855.0
1470.932, 197600.0
1471.971, 197741.0
1473.011, 197702.0
1474.050, 197388.0
1475.089, 196784.0
1476.128, 198071.0
1477.166, 197407.0
1478.205, 197666.0
1479.243, 198648.0
1480.282, 197871.0
1481.320, 198811.0
1482.357, 198049.0
1483.395, 198463.0
1484.433, 198420.0
1485.470, 198780.0
1486.507, 198605.0
1487.544, 198948.0
1488.581, 199254.0
1489.618, 199283.0
1490.655, 199069.0
1491.691, 199411.0
1492.727, 199367.0
1493.763, 199689.0
1494.799, 199969.0
1495.835, 199205.0
1496.871, 199937.0
1497.906, 200221.0
1498.941, 199175.0
1499.976, 200090.0
1501.011, 199861.0
1502.046, 200591.0
1503.081, 200920.0
1504.115, 200264.0
1505.149, 200407.0
1506.183, 199827.0
1507.217, 200822.0
1508.251, 200948.0
1509.285, 200345.0
1510.318, 201359.0
1511.352, 200661.0
1512.385, 201136.0
1513.418, 201217.0
1514.450, 201454.0
1515.483, 201628.0
1516.516, 201194.0
1517.548, 201133.0
1518.580, 201647.0
1519.612, 201625.0
1520.644, 202046.0
1521.675, 201741.0
1522.707, 202219.0
1523.738, 202271.0
1524.769, 202122.0
1525.800, 202156.0
1526.831, 201919.0
1527.862, 202917.0
1528.892, 202192.0
1529.923, 202237.0
1530.953, 203238.0
1531.983, 203005.0
1533.013, 203870.0
1534.042, 203754.0
1535.072, 203770.8
1536.101, 203899.0
1537.131, 203702.0
1538.160, 203604.0
1539.188, 203796.0
1540.217, 203507.0
1541.246, 204227.0
1542.274, 204002.0
1543.302, 203913.0
1544.330, 204305.0
1545.358, 203443.0
1546.386, 204163.0
1547.413, 204122.0
1548.441, 205066.0
1549.468, 204837.0
1550.495, 204458.0
1551.522, 204948.0
1552.549, 204432.0
1553.575, 204857.0
1554.602, 205180.0
1555.628, 206207.0
1556.654, 205765.0
1557.680, 205203.0
1558.706, 204734.0
1559.731, 205495.0
1560.757, 205795.0
1561.782, 205656.0
1562.807, 205608.0
1563.832, 205364.0
1564.857, 206164.0
1565.881, 206304.0
1566.906, 206072.0
1567.930, 206096.0
1568.954, 206227.0
1569.978, 206351.0
1571.002, 206560.0
1572.025, 206650.0
1573.049, 207016.0
1574.072, 206373.0
1575.095, 207143.0
1576.118, 206272.0
1577.141, 206899.0
1578.164, 207216.0
##END=



