##NAMES=Magnesiotaaffeite-6N3S
##RRUFFID=X070005
##IDEAL CHEMISTRY=Mg_2_BeAl_6_O_12_
##LOCALITY=Tunduru, Tanzania
##OWNER=www.multicolour.com
##SOURCE=www.multicolour.com
##DESCRIPTION=Pale lavendar cut gemstone, 0.65 cts, formerly known as musgravite-18R
##STATUS=The identification of this mineral has been confirmed by single-crystal X-ray diffraction.
##URL=rruff.info/X070005
164.0825, 19906.90
164.5646, 19865.71
165.0467, 19850.89
165.5288, 19838.13
166.0110, 19814.54
166.4931, 19782.64
166.9752, 19755.41
167.4573, 19730.42
167.9394, 19715.98
168.4215, 19720.77
168.9037, 19775.32
169.3858, 19829.69
169.8679, 19852.10
170.3500, 19840.51
170.8321, 19811.92
171.3142, 19758.85
171.7964, 19696.81
172.2785, 19654.46
172.7606, 19668.16
173.2427, 19697.88
173.7248, 19702.27
174.2069, 19670.20
174.6891, 19629.21
175.1712, 19601.09
175.6533, 19584.37
176.1354, 19571.84
176.6175, 19556.63
177.0996, 19543.35
177.5818, 19540.86
178.0639, 19564.53
178.5460, 19587.20
179.0281, 19563.26
179.5102, 19494.46
179.9923, 19431.01
180.4745, 19417.59
180.9566, 19442.78
181.4387, 19479.37
181.9208, 19535.87
182.4029, 19591.94
182.8850, 19600.61
183.3672, 19553.67
183.8493, 19497.35
184.3314, 19500.39
184.8135, 19550.58
185.2956, 19581.13
185.7777, 19529.53
186.2599, 19428.50
186.7420, 19377.21
187.2241, 19401.65
187.7062, 19455.75
188.1883, 19459.58
188.6705, 19414.32
189.1526, 19359.29
189.6347, 19317.38
190.1168, 19289.02
190.5989, 19279.48
191.0810, 19302.49
191.5632, 19339.70
192.0453, 19331.18
192.5274, 19270.97
193.0095, 19204.11
193.4916, 19180.25
193.9737, 19198.46
194.4559, 19219.38
194.9380, 19228.08
195.4201, 19227.00
195.9022, 19236.04
196.3843, 19257.46
196.8664, 19283.58
197.3486, 19301.17
197.8307, 19309.21
198.3128, 19317.66
198.7949, 19330.98
199.2770, 19348.99
199.7591, 19369.04
200.2413, 19392.13
200.7234, 19414.80
201.2055, 19425.07
201.6876, 19418.49
202.1697, 19416.24
202.6518, 19444.78
203.1340, 19510.72
203.6161, 19534.39
204.0982, 19483.72
204.5803, 19379.26
205.0624, 19344.29
205.5445, 19398.66
206.0267, 19474.92
206.5088, 19504.63
206.9909, 19478.41
207.4730, 19453.52
207.9551, 19447.61
208.4372, 19461.13
208.9194, 19463.45
209.4015, 19453.99
209.8836, 19435.23
210.3657, 19409.29
210.8478, 19374.60
211.3299, 19339.86
211.8121, 19308.71
212.2942, 19282.17
212.7763, 19256.11
213.2584, 19228.18
213.7405, 19202.87
214.2226, 19191.61
214.7048, 19198.50
215.1869, 19210.11
215.6690, 19217.82
216.1511, 19217.25
216.6332, 19226.69
217.1153, 19249.59
217.5975, 19283.26
218.0796, 19314.02
218.5617, 19341.28
219.0438, 19365.59
219.5259, 19385.73
220.0080, 19398.06
220.4902, 19415.62
220.9723, 19447.93
221.4544, 19494.48
221.9365, 19500.65
222.4186, 19442.20
222.9007, 19371.90
223.3829, 19352.51
223.8650, 19409.99
224.3471, 19464.52
224.8292, 19495.96
225.3113, 19500.48
225.7934, 19506.94
226.2756, 19512.68
226.7577, 19522.94
227.2398, 19548.00
227.7219, 19599.18
228.2040, 19645.58
228.6861, 19673.00
229.1683, 19666.51
229.6504, 19682.51
230.1325, 19732.85
230.6146, 19801.50
231.0967, 19846.02
231.5789, 19842.42
232.0610, 19848.34
232.5431, 19893.75
233.0252, 19993.11
233.5073, 20102.20
233.9894, 20234.45
234.4716, 20377.73
234.9537, 20467.88
235.4358, 20458.71
235.9179, 20453.69
236.4000, 20527.34
236.8821, 20719.04
237.3643, 20909.88
237.8464, 21081.38
238.3285, 21232.89
238.8106, 21402.32
239.2927, 21609.80
239.7748, 21814.81
240.2570, 21982.70
240.7391, 22136.50
241.2212, 22212.68
241.7033, 22203.87
242.1854, 22111.94
242.6675, 21903.90
243.1497, 21510.62
243.6318, 21055.18
244.1139, 20695.80
244.5960, 20462.57
245.0781, 20275.03
245.5602, 20107.43
246.0424, 19945.02
246.5245, 19863.91
247.0066, 19905.49
247.4887, 20005.68
247.9708, 20046.49
248.4529, 20002.76
248.9351, 19939.08
249.4172, 19875.57
249.8993, 19801.41
250.3814, 19754.15
250.8635, 19743.47
251.3456, 19757.63
251.8278, 19763.42
252.3099, 19752.53
252.7920, 19745.26
253.2741, 19756.00
253.7562, 19803.83
254.2383, 19822.92
254.7205, 19795.08
255.2026, 19733.91
255.6847, 19704.44
256.1668, 19715.93
256.6489, 19745.86
257.1310, 19781.86
257.6132, 19828.84
258.0953, 19869.31
258.5774, 19893.42
259.0595, 19905.42
259.5416, 19951.07
260.0237, 20054.69
260.5059, 20159.05
260.9880, 20204.80
261.4701, 20152.48
261.9522, 20142.69
262.4343, 20213.61
262.9164, 20363.97
263.3986, 20494.48
263.8807, 20601.14
264.3628, 20695.02
264.8449, 20792.67
265.3270, 20910.75
265.8091, 20988.29
266.2913, 21001.99
266.7734, 20947.17
267.2555, 20895.26
267.7376, 20852.02
268.2197, 20803.61
268.7018, 20726.88
269.1840, 20612.34
269.6661, 20498.36
270.1482, 20402.63
270.6303, 20329.86
271.1124, 20228.17
271.5945, 20074.09
272.0767, 19920.47
272.5588, 19864.68
273.0409, 19933.92
273.5230, 20013.08
274.0051, 20057.94
274.4872, 20065.14
274.9694, 20061.59
275.4515, 20048.68
275.9336, 20024.24
276.4157, 19975.20
276.8978, 19891.96
277.3799, 19823.38
277.8621, 19792.62
278.3442, 19800.93
278.8263, 19837.77
279.3084, 19912.00
279.7905, 20002.81
280.2726, 20065.77
280.7548, 20100.49
281.2369, 20108.78
281.7190, 20083.65
282.2011, 20023.75
282.6832, 19966.17
283.1653, 19912.21
283.6475, 19866.04
284.1296, 19841.80
284.6117, 19841.76
285.0938, 19849.81
285.5759, 19858.73
286.0580, 19868.74
286.5402, 19871.78
287.0223, 19866.77
287.5044, 19855.26
287.9865, 19836.70
288.4686, 19810.38
288.9507, 19789.42
289.4329, 19788.44
289.9150, 19805.01
290.3971, 19817.89
290.8792, 19822.25
291.3614, 19820.34
291.8435, 19817.82
292.3256, 19814.51
292.8077, 19808.45
293.2898, 19788.00
293.7719, 19759.12
294.2541, 19753.89
294.7362, 19788.69
295.2183, 19847.07
295.7004, 19897.69
296.1825, 19940.42
296.6646, 19978.62
297.1468, 20010.43
297.6289, 20038.97
298.1110, 20075.30
298.5931, 20131.30
299.0752, 20191.95
299.5573, 20223.15
300.0395, 20224.32
300.5216, 20232.42
301.0037, 20287.73
301.4858, 20376.16
301.9679, 20463.28
302.4500, 20538.84
302.9322, 20604.65
303.4143, 20671.88
303.8964, 20741.54
304.3785, 20782.19
304.8606, 20729.77
305.3427, 20631.04
305.8249, 20576.60
306.3070, 20649.24
306.7891, 20760.87
307.2712, 20802.22
307.7533, 20770.99
308.2354, 20745.43
308.7176, 20782.60
309.1997, 20865.61
309.6818, 20965.94
310.1639, 21087.09
310.6460, 21211.64
311.1281, 21316.99
311.6103, 21402.33
312.0924, 21499.54
312.5745, 21644.80
313.0566, 21812.86
313.5387, 21964.68
314.0208, 22126.13
314.5030, 22237.57
314.9851, 22250.93
315.4672, 22159.06
315.9493, 22033.55
316.4314, 21900.92
316.9135, 21759.74
317.3957, 21605.93
317.8778, 21435.94
318.3599, 21256.45
318.8420, 21056.89
319.3241, 20830.98
319.8062, 20642.50
320.2884, 20523.42
320.7705, 20449.16
321.2526, 20387.71
321.7347, 20317.40
322.2168, 20267.46
322.6989, 20257.92
323.1811, 20299.49
323.6632, 20325.45
324.1453, 20312.14
324.6274, 20278.57
325.1095, 20248.00
325.5916, 20219.19
326.0738, 20199.73
326.5559, 20195.64
327.0380, 20212.77
327.5201, 20224.78
328.0022, 20240.64
328.4843, 20248.12
328.9665, 20232.23
329.4486, 20154.74
329.9307, 20092.23
330.4128, 20064.72
330.8949, 20082.79
331.3770, 20093.15
331.8592, 20091.17
332.3413, 20083.37
332.8234, 20075.92
333.3055, 20052.42
333.7876, 20051.81
334.2697, 20092.92
334.7519, 20189.23
335.2340, 20244.30
335.7161, 20231.78
336.1982, 20058.89
336.6803, 20160.04
337.1624, 20219.07
337.6446, 20236.15
338.1267, 20202.69
338.6088, 20144.90
339.0909, 20042.09
339.5730, 19899.94
340.0551, 20026.09
340.5373, 20024.89
341.0194, 20045.30
341.5015, 20048.37
341.9836, 20013.38
342.4657, 19944.12
342.9478, 19906.99
343.4300, 19907.95
343.9121, 19927.87
344.3942, 19954.23
344.8763, 19988.55
345.3584, 19997.73
345.8405, 19950.17
346.3227, 19866.32
346.8048, 19857.96
347.2869, 19936.00
347.7690, 20030.67
348.2511, 20068.19
348.7332, 20054.46
349.2154, 20033.26
349.6975, 20008.71
350.1796, 19989.04
350.6617, 20000.30
351.1438, 20043.75
351.6259, 20090.99
352.1081, 20122.82
352.5902, 20138.57
353.0723, 20135.32
353.5544, 20102.63
354.0365, 20056.30
354.5186, 20009.21
355.0008, 19962.16
355.4829, 19934.06
355.9650, 19962.60
356.4471, 20015.30
356.9292, 20041.26
357.4113, 19995.53
357.8935, 19939.75
358.3756, 19925.82
358.8577, 19951.52
359.3398, 19989.35
359.8219, 20038.02
360.3040, 20085.00
360.7862, 20117.44
361.2683, 20111.68
361.7504, 20109.18
362.2325, 20128.18
362.7146, 20167.65
363.1967, 20220.45
363.6789, 20288.64
364.1610, 20365.49
364.6431, 20445.98
365.1252, 20556.37
365.6073, 20638.90
366.0894, 20664.44
366.5716, 20642.99
367.0537, 20624.64
367.5358, 20618.38
368.0179, 20617.88
368.5000, 20619.87
368.9821, 20635.48
369.4643, 20640.24
369.9464, 20619.61
370.4285, 20584.38
370.9106, 20575.99
371.3927, 20622.39
371.8748, 20671.64
372.3570, 20700.68
372.8391, 20694.38
373.3212, 20698.21
373.8033, 20716.79
374.2855, 20746.02
374.7676, 20774.71
375.2497, 20802.32
375.7318, 20831.53
376.2139, 20861.56
376.6960, 20888.02
377.1782, 20935.99
377.6603, 21018.31
378.1424, 21109.48
378.6245, 21162.38
379.1066, 21176.34
379.5887, 21151.59
380.0709, 21068.66
380.5530, 20925.74
381.0351, 20822.13
381.5172, 20761.43
381.9993, 20728.23
382.4814, 20660.55
382.9636, 20720.80
383.4457, 20747.12
383.9278, 20741.35
384.4099, 20607.32
384.8920, 20638.90
385.3741, 20604.11
385.8563, 20566.60
386.3384, 20621.49
386.8205, 20506.11
387.3026, 20559.54
387.7847, 20545.58
388.2668, 20562.46
388.7490, 20512.56
389.2311, 20483.29
389.7132, 20520.82
390.1953, 20487.96
390.6774, 20564.62
391.1595, 20644.15
391.6417, 20728.26
392.1238, 20800.60
392.6059, 20834.88
393.0880, 20837.05
393.5701, 20860.51
394.0522, 20942.75
394.5344, 21054.46
395.0165, 21169.22
395.4986, 21276.45
395.9807, 21387.88
396.4628, 21494.28
396.9449, 21602.12
397.4271, 21745.64
397.9092, 21927.07
398.3913, 22150.03
398.8734, 22417.13
399.3555, 22752.67
399.8376, 23099.90
400.3198, 23437.68
400.8019, 23780.63
401.2840, 24178.64
401.7661, 24705.70
402.2482, 25215.65
402.7303, 25652.28
403.2125, 25995.19
403.6946, 26315.06
404.1767, 26631.40
404.6588, 26919.93
405.1409, 27131.86
405.6230, 27272.69
406.1052, 27329.79
406.5873, 27270.54
407.0694, 27074.93
407.5515, 26936.52
408.0336, 26831.06
408.5157, 26823.91
408.9979, 27010.34
409.4800, 27394.53
409.9621, 27905.23
410.4442, 28556.44
410.9263, 29315.30
411.4084, 30071.89
411.8906, 30822.19
412.3727, 31551.94
412.8548, 32321.22
413.3369, 33074.10
413.8190, 33588.33
414.3011, 33865.85
414.7833, 33811.39
415.2654, 33206.25
415.7475, 32082.14
416.2296, 30723.22
416.7117, 29121.38
417.1938, 27480.09
417.6760, 26064.63
418.1581, 24964.09
418.6402, 24071.54
419.1223, 23326.79
419.6044, 22726.65
420.0865, 22247.29
420.5687, 21934.18
421.0508, 21707.90
421.5329, 21518.68
422.0150, 21356.63
422.4971, 21228.21
422.9792, 21153.68
423.4614, 21112.51
423.9435, 21061.30
424.4256, 20961.85
424.9077, 20876.03
425.3898, 20830.92
425.8719, 20847.24
426.3541, 20847.82
426.8362, 20810.88
427.3183, 20765.55
427.8004, 20747.92
428.2825, 20790.84
428.7646, 20811.57
429.2468, 20776.54
429.7289, 20681.71
430.2110, 20657.04
430.6931, 20729.62
431.1752, 20831.58
431.6573, 20898.98
432.1395, 20924.00
432.6216, 20954.76
433.1037, 20998.43
433.5858, 21054.51
434.0679, 21124.14
434.5500, 21207.89
435.0322, 21299.27
435.5143, 21392.32
435.9964, 21487.90
436.4785, 21589.10
436.9606, 21696.02
437.4427, 21808.76
437.9249, 21926.86
438.4070, 22051.76
438.8891, 22182.21
439.3712, 22304.93
439.8533, 22438.55
440.3354, 22613.07
440.8176, 22834.98
441.2997, 23076.14
441.7818, 23292.24
442.2639, 23515.52
442.7460, 23799.98
443.2281, 24190.58
443.7103, 24629.98
444.1924, 25102.05
444.6745, 25606.83
445.1566, 26091.83
445.6387, 26574.04
446.1208, 27012.27
446.6030, 27365.75
447.0851, 27704.96
447.5672, 27873.06
448.0493, 27845.81
448.5314, 27621.81
449.0135, 27207.47
449.4957, 26459.44
449.9778, 25653.70
450.4599, 24916.61
450.9420, 24232.62
451.4241, 23661.96
451.9063, 23211.11
452.3884, 22866.63
452.8705, 22609.63
453.3526, 22450.29
453.8347, 22344.07
454.3168, 22282.23
454.7990, 22265.65
455.2811, 22260.53
455.7632, 22269.73
456.2453, 22281.63
456.7274, 22288.96
457.2096, 22289.79
457.6917, 22263.70
458.1738, 22200.98
458.6559, 22107.39
459.1380, 21987.07
459.6201, 21842.24
460.1023, 21688.98
460.5844, 21528.25
461.0665, 21371.56
461.5486, 21243.03
462.0307, 21155.96
462.5128, 21085.35
462.9950, 21007.49
463.4771, 20927.71
463.9592, 20867.68
464.4413, 20848.57
464.9234, 20844.60
465.4055, 20838.22
465.8877, 20824.15
466.3698, 20813.78
466.8519, 20808.76
467.3340, 20809.55
467.8161, 20817.25
468.2982, 20831.69
468.7804, 20853.64
469.2625, 20886.44
469.7446, 20931.94
470.2267, 20973.81
470.7088, 21015.72
471.1909, 21051.68
471.6731, 21075.68
472.1552, 21081.57
472.6373, 21091.26
473.1194, 21101.87
473.6015, 21120.17
474.0836, 21177.14
474.5658, 21278.49
475.0479, 21391.85
475.5300, 21497.08
476.0121, 21594.89
476.4942, 21691.48
476.9763, 21782.13
477.4585, 21884.57
477.9406, 22023.49
478.4227, 22197.21
478.9048, 22393.86
479.3869, 22604.43
479.8690, 22837.50
480.3512, 23111.13
480.8333, 23426.41
481.3154, 23755.39
481.7975, 24094.15
482.2796, 24430.17
482.7617, 24748.05
483.2439, 25037.59
483.7260, 25316.87
484.2081, 25622.38
484.6902, 25935.57
485.1723, 26168.09
485.6544, 26248.75
486.1366, 26271.98
486.6187, 26282.99
487.1008, 26263.67
487.5829, 26269.29
488.0650, 26260.63
488.5471, 26288.89
489.0293, 26438.51
489.5114, 26704.45
489.9935, 27097.47
490.4756, 27641.69
490.9577, 28330.26
491.4398, 29070.38
491.9220, 29884.63
492.4041, 30703.84
492.8862, 31509.87
493.3683, 32308.41
493.8504, 32957.45
494.3326, 33472.77
494.8147, 33784.04
495.2968, 33775.17
495.7789, 33448.23
496.2610, 32819.24
496.7431, 31783.76
497.2253, 30483.34
497.7074, 29086.61
498.1895, 27570.49
498.6716, 26167.03
499.1537, 25008.21
499.6358, 24079.81
500.1180, 23331.51
500.6001, 22802.60
501.0822, 22407.78
501.5643, 22139.30
502.0464, 21994.32
502.5285, 21866.76
503.0107, 21733.10
503.4928, 21600.73
503.9749, 21473.37
504.4570, 21333.12
504.9391, 21223.06
505.4212, 21156.73
505.9034, 21121.19
506.3855, 21077.03
506.8676, 21014.05
507.3497, 20961.62
507.8318, 20935.97
508.3139, 20942.04
508.7961, 20934.86
509.2782, 20911.59
509.7603, 20882.70
510.2424, 20859.97
510.7245, 20843.60
511.2066, 20829.56
511.6888, 20813.97
512.1709, 20801.52
512.6530, 20806.58
513.1351, 20827.22
513.6172, 20844.55
514.0994, 20834.59
514.5815, 20814.99
515.0636, 20812.56
515.5457, 20834.64
516.0278, 20863.67
516.5099, 20896.53
516.9921, 20926.80
517.4742, 20943.04
517.9563, 20930.45
518.4384, 20913.15
518.9205, 20896.87
519.4026, 20881.79
519.8848, 20886.41
520.3669, 20946.26
520.8490, 21008.17
521.3311, 21032.10
521.8132, 20971.91
522.2953, 20949.88
522.7775, 20977.00
523.2596, 21046.49
523.7417, 21142.64
524.2238, 21274.32
524.7059, 21405.70
525.1880, 21524.42
525.6702, 21628.79
526.1523, 21708.28
526.6344, 21757.49
527.1165, 21798.09
527.5986, 21863.12
528.0807, 21942.51
528.5629, 21996.68
529.0450, 22017.55
529.5271, 22002.43
530.0092, 21941.00
530.4913, 21838.25
530.9734, 21714.28
531.4556, 21550.01
531.9377, 21390.66
532.4198, 21281.49
532.9019, 21245.81
533.3840, 21210.82
533.8661, 21142.27
534.3483, 21060.02
534.8304, 20991.35
535.3125, 20935.40
535.7946, 20899.00
536.2767, 20891.68
536.7589, 20911.11
537.2410, 20913.97
537.7231, 20879.80
538.2052, 20854.03
538.6873, 20870.56
539.1694, 20942.08
539.6516, 20993.56
540.1337, 21018.19
540.6158, 21023.48
541.0979, 21025.09
541.5800, 21022.86
542.0621, 21001.84
542.5443, 20949.37
543.0264, 20876.18
543.5085, 20795.79
543.9906, 20708.75
544.4727, 20647.35
544.9548, 20658.19
545.4370, 20704.26
545.9191, 20735.97
546.4012, 20743.03
546.8833, 20731.15
547.3654, 20685.38
547.8475, 20622.94
548.3297, 20581.82
548.8118, 20584.81
549.2939, 20599.59
549.7760, 20613.13
550.2581, 20622.85
550.7402, 20637.35
551.2224, 20658.73
551.7045, 20681.49
552.1866, 20705.19
552.6687, 20741.81
553.1508, 20741.11
553.6329, 20679.50
554.1151, 20590.89
554.5972, 20566.88
555.0793, 20613.78
555.5614, 20661.11
556.0435, 20672.58
556.5256, 20656.40
557.0078, 20636.96
557.4899, 20614.04
557.9720, 20600.84
558.4541, 20619.02
558.9362, 20654.04
559.4183, 20678.95
559.9005, 20679.99
560.3826, 20678.51
560.8647, 20685.75
561.3468, 20701.85
561.8289, 20726.62
562.3110, 20774.28
562.7932, 20818.52
563.2753, 20840.33
563.7574, 20825.94
564.2395, 20842.74
564.7216, 20907.94
565.2037, 20995.97
565.6859, 21081.78
566.1680, 21158.30
566.6501, 21252.47
567.1322, 21370.96
567.6143, 21505.85
568.0964, 21637.97
568.5786, 21767.18
569.0607, 21881.64
569.5428, 21952.70
570.0249, 21999.21
570.5070, 22096.83
570.9891, 22249.13
571.4713, 22417.76
571.9534, 22555.57
572.4355, 22684.88
572.9176, 22845.44
573.3997, 23076.91
573.8818, 23305.37
574.3640, 23465.79
574.8461, 23584.30
575.3282, 23739.45
575.8103, 24015.05
576.2924, 24283.99
576.7745, 24494.92
577.2567, 24633.16
577.7388, 24745.89
578.2209, 24849.38
578.7030, 24918.10
579.1851, 24933.05
579.6672, 24895.91
580.1494, 24796.94
580.6315, 24627.56
581.1136, 24400.46
581.5957, 24145.30
582.0778, 23859.61
582.5599, 23576.41
583.0421, 23300.28
583.5242, 23037.85
584.0063, 22804.97
584.4884, 22600.98
584.9705, 22421.56
585.4526, 22269.18
585.9348, 22132.71
586.4169, 21994.13
586.8990, 21836.54
587.3811, 21696.43
587.8632, 21597.47
588.3453, 21528.78
588.8275, 21466.96
589.3096, 21410.82
589.7917, 21356.78
590.2738, 21300.31
590.7559, 21240.15
591.2380, 21202.36
591.7202, 21203.83
592.2023, 21206.77
592.6844, 21180.72
593.1665, 21120.90
593.6486, 21069.37
594.1307, 21029.95
594.6129, 21000.72
595.0950, 20976.43
595.5771, 20958.20
596.0592, 20953.63
596.5413, 20962.75
597.0234, 20989.17
597.5056, 21054.76
597.9877, 21152.72
598.4698, 21226.39
598.9519, 21215.07
599.4340, 21176.28
599.9161, 21158.67
600.3983, 21170.57
600.8804, 21202.05
601.3625, 21257.18
601.8446, 21327.62
602.3267, 21403.72
602.8088, 21509.34
603.2910, 21587.03
603.7731, 21618.76
604.2552, 21613.53
604.7373, 21619.60
605.2194, 21639.33
605.7015, 21663.65
606.1837, 21701.79
606.6658, 21748.94
607.1479, 21732.02
607.6300, 21640.89
608.1121, 21537.89
608.5942, 21500.23
609.0764, 21503.31
609.5585, 21491.73
610.0406, 21437.64
610.5227, 21379.96
611.0048, 21331.44
611.4869, 21302.05
611.9691, 21317.57
612.4512, 21437.50
612.9333, 21561.97
613.4154, 21635.83
613.8975, 21642.17
614.3796, 21689.03
614.8618, 21802.83
615.3439, 21935.35
615.8260, 22053.10
616.3081, 22145.96
616.7902, 22250.70
617.2723, 22371.70
617.7545, 22504.34
618.2366, 22635.97
618.7187, 22768.41
619.2008, 22925.02
619.6829, 23143.68
620.1650, 23374.27
620.6472, 23530.16
621.1293, 23616.38
621.6114, 23681.36
622.0935, 23781.79
622.5756, 23861.54
623.0577, 23864.14
623.5399, 23767.69
624.0220, 23643.91
624.5041, 23505.49
624.9862, 23356.72
625.4683, 23202.25
625.9504, 23031.48
626.4326, 22869.56
626.9147, 22720.55
627.3968, 22582.11
627.8789, 22446.46
628.3610, 22315.63
628.8431, 22186.14
629.3253, 22051.04
629.8074, 21914.82
630.2895, 21801.85
630.7716, 21712.15
631.2537, 21650.57
631.7358, 21650.35
632.2180, 21675.39
632.7001, 21657.46
633.1822, 21567.46
633.6643, 21470.67
634.1464, 21390.54
634.6285, 21335.53
635.1107, 21319.94
635.5928, 21409.42
636.0749, 21475.07
636.5570, 21457.87
637.0391, 21369.72
637.5212, 21322.58
638.0034, 21339.62
638.4855, 21363.39
638.9676, 21358.91
639.4497, 21317.79
639.9318, 21334.40
640.4139, 21422.17
640.8961, 21518.42
641.3782, 21552.79
641.8603, 21535.41
642.3424, 21506.28
642.8245, 21469.53
643.3066, 21434.74
643.7888, 21406.66
644.2709, 21388.35
644.7530, 21386.36
645.2351, 21423.95
645.7172, 21461.25
646.1993, 21472.44
646.6815, 21458.09
647.1636, 21459.04
647.6457, 21500.05
648.1278, 21542.94
648.6099, 21566.46
649.0920, 21554.48
649.5742, 21582.76
650.0563, 21661.71
650.5384, 21763.07
651.0205, 21855.33
651.5026, 21937.26
651.9847, 22007.32
652.4669, 22057.92
652.9490, 22104.80
653.4311, 22165.73
653.9132, 22241.73
654.3953, 22338.08
654.8774, 22463.61
655.3596, 22605.79
655.8417, 22767.85
656.3238, 22947.00
656.8059, 23103.59
657.2880, 23175.33
657.7701, 23255.60
658.2523, 23411.67
658.7344, 23717.75
659.2165, 23925.59
659.6986, 23994.44
660.1807, 24016.46
660.6628, 24114.21
661.1450, 24296.67
661.6271, 24447.34
662.1093, 24531.62
662.5914, 24588.77
663.0735, 24720.95
663.5556, 24904.91
664.0377, 25032.37
664.5198, 24991.21
665.0020, 24903.23
665.4841, 24901.28
665.9662, 24982.73
666.4483, 25018.54
666.9304, 24936.28
667.4125, 24800.21
667.8947, 24648.44
668.3768, 24479.17
668.8589, 24300.69
669.3410, 24102.84
669.8231, 23902.07
670.3052, 23715.38
670.7874, 23544.28
671.2695, 23386.88
671.7516, 23247.25
672.2337, 23114.45
672.7158, 22964.47
673.1979, 22800.50
673.6801, 22645.04
674.1622, 22514.08
674.6443, 22395.62
675.1264, 22265.53
675.6085, 22127.61
676.0906, 22013.99
676.5728, 21958.93
677.0549, 21921.21
677.5370, 21875.16
678.0191, 21812.98
678.5012, 21757.13
678.9833, 21705.95
679.4655, 21663.21
679.9476, 21639.02
680.4297, 21645.67
680.9118, 21614.05
681.3939, 21522.92
681.8760, 21410.99
682.3582, 21347.53
682.8403, 21328.54
683.3224, 21319.83
683.8045, 21303.22
684.2866, 21293.18
684.7687, 21319.91
685.2509, 21373.94
685.7330, 21407.89
686.2151, 21370.42
686.6972, 21327.08
687.1793, 21315.54
687.6614, 21342.97
688.1436, 21378.87
688.6257, 21429.50
689.1078, 21478.20
689.5899, 21514.75
690.0720, 21540.66
690.5541, 21543.00
691.0363, 21513.20
691.5184, 21477.17
692.0005, 21476.18
692.4826, 21505.13
692.9647, 21537.20
693.4468, 21569.12
693.9290, 21594.95
694.4111, 21592.10
694.8932, 21576.42
695.3753, 21592.84
695.8574, 21698.07
696.3395, 21807.40
696.8217, 21874.51
697.3038, 21895.51
697.7859, 21932.28
698.2680, 21987.27
698.7501, 22057.73
699.2322, 22146.14
699.7144, 22257.57
700.1965, 22349.42
700.6786, 22414.54
701.1607, 22483.94
701.6428, 22589.98
702.1249, 22728.63
702.6071, 22893.11
703.0892, 23091.14
703.5713, 23291.52
704.0534, 23452.87
704.5355, 23598.09
705.0176, 23768.86
705.4998, 23979.15
705.9819, 24217.26
706.4640, 24493.10
706.9461, 24799.10
707.4282, 25091.81
707.9103, 25338.57
708.3925, 25625.84
708.8746, 26002.57
709.3567, 26460.58
709.8388, 26869.75
710.3209, 27228.42
710.8030, 27571.39
711.2852, 27913.79
711.7673, 28259.73
712.2494, 28629.05
712.7315, 29034.45
713.2136, 29396.99
713.6957, 29650.80
714.1779, 29842.25
714.6600, 30022.71
715.1421, 30287.27
715.6242, 30428.75
716.1063, 30396.11
716.5884, 30217.05
717.0706, 29912.84
717.5527, 29438.60
718.0348, 28961.09
718.5169, 28530.98
718.9990, 28116.79
719.4811, 27623.09
719.9633, 27051.50
720.4454, 26496.75
720.9275, 26012.62
721.4096, 25576.36
721.8917, 25148.03
722.3738, 24733.51
722.8560, 24353.66
723.3381, 24030.96
723.8202, 23743.79
724.3023, 23479.16
724.7844, 23235.30
725.2665, 23029.95
725.7487, 22876.56
726.2308, 22749.16
726.7129, 22630.71
727.1950, 22525.63
727.6771, 22396.90
728.1592, 22228.41
728.6414, 22062.48
729.1235, 21962.53
729.6056, 21917.48
730.0877, 21895.33
730.5698, 21902.64
731.0519, 21904.73
731.5341, 21864.93
732.0162, 21796.64
732.4983, 21733.93
732.9804, 21682.63
733.4625, 21643.73
733.9446, 21621.18
734.4268, 21612.65
734.9089, 21607.05
735.3910, 21608.91
735.8731, 21603.82
736.3552, 21585.04
736.8373, 21553.41
737.3195, 21503.91
737.8016, 21435.03
738.2837, 21386.01
738.7658, 21409.07
739.2479, 21465.56
739.7300, 21497.11
740.2122, 21491.03
740.6943, 21483.54
741.1764, 21487.69
741.6585, 21502.08
742.1406, 21525.32
742.6227, 21576.56
743.1049, 21607.26
743.5870, 21607.36
744.0691, 21593.14
744.5512, 21588.76
745.0333, 21594.44
745.5154, 21602.54
745.9976, 21610.79
746.4797, 21620.06
746.9618, 21635.15
747.4439, 21653.60
747.9260, 21665.81
748.4081, 21650.65
748.8903, 21642.42
749.3724, 21674.64
749.8545, 21739.96
750.3366, 21789.83
750.8187, 21792.81
751.3008, 21799.40
751.7830, 21834.14
752.2651, 21899.54
752.7472, 21932.44
753.2293, 21926.85
753.7114, 21911.63
754.1935, 21900.96
754.6757, 21897.44
755.1578, 21921.34
755.6399, 21977.33
756.1220, 22017.92
756.6041, 21993.60
757.0862, 21936.53
757.5684, 21879.95
758.0505, 21821.69
758.5326, 21787.10
759.0147, 21809.19
759.4968, 21846.53
759.9789, 21849.71
760.4611, 21803.66
760.9432, 21757.22
761.4253, 21712.19
761.9074, 21673.71
762.3895, 21654.82
762.8716, 21653.39
763.3538, 21651.50
763.8359, 21641.92
764.3180, 21629.07
764.8001, 21627.47
765.2822, 21628.14
765.7643, 21605.09
766.2465, 21503.81
766.7286, 21419.30
767.2107, 21404.89
767.6928, 21456.28
768.1749, 21485.94
768.6570, 21488.45
769.1392, 21480.58
769.6213, 21464.11
770.1034, 21441.21
770.5855, 21431.93
771.0676, 21435.61
771.5497, 21495.02
772.0319, 21518.04
772.5140, 21538.03
772.9961, 21555.17
773.4782, 21560.87
773.9603, 21581.33
774.4424, 21595.88
774.9246, 21610.19
775.4067, 21632.73
775.8888, 21640.10
776.3709, 21662.51
776.8530, 21678.91
777.3351, 21698.06
777.8173, 21711.27
778.2994, 21726.31
778.7815, 21747.30
779.2636, 21765.00
779.7457, 21777.52
780.2278, 21796.85
780.7100, 21775.77
781.1921, 21804.16
781.6742, 21855.86
782.1563, 21904.74
782.6384, 21938.33
783.1205, 21959.96
783.6027, 21977.51
784.0848, 21990.36
784.5669, 21999.73
785.0490, 21996.03
785.5311, 21993.18
786.0132, 22049.98
786.4954, 22167.99
786.9775, 22270.85
787.4596, 22317.63
787.9417, 22332.92
788.4238, 22341.41
788.9059, 22348.85
789.3881, 22381.85
789.8702, 22484.38
790.3523, 22591.18
790.8344, 22661.55
791.3165, 22691.02
791.7986, 22734.92
792.2808, 22792.39
792.7629, 22867.11
793.2450, 22968.81
793.7271, 23096.02
794.2092, 23195.65
794.6913, 23263.73
795.1735, 23341.11
795.6556, 23487.21
796.1377, 23654.56
796.6198, 23751.40
797.1019, 23752.55
797.5840, 23789.54
798.0662, 23955.63
798.5483, 24166.63
799.0304, 24357.69
799.5125, 24534.70
799.9946, 24664.42
800.4767, 24730.91
800.9589, 24777.46
801.4410, 24855.59
801.9231, 24963.69
802.4052, 25063.77
802.8873, 25149.52
803.3694, 25230.82
803.8516, 25318.31
804.3337, 25409.52
804.8158, 25499.35
805.2979, 25592.28
805.7800, 25673.27
806.2621, 25722.32
806.7443, 25758.82
807.2264, 25824.73
807.7085, 25958.18
808.1906, 26025.49
808.6727, 25985.48
809.1548, 25884.36
809.6370, 25831.43
810.1191, 25817.32
810.6012, 25777.73
811.0833, 25675.68
811.5654, 25548.17
812.0475, 25419.21
812.5297, 25294.60
813.0118, 25192.51
813.4939, 25144.17
813.9760, 25092.13
814.4581, 25007.41
814.9402, 24901.76
815.4224, 24836.34
815.9045, 24824.28
816.3866, 24803.81
816.8687, 24735.21
817.3508, 24644.29
817.8329, 24620.81
818.3151, 24655.87
818.7972, 24683.53
819.2793, 24653.23
819.7614, 24606.47
820.2435, 24558.49
820.7256, 24513.67
821.2078, 24524.92
821.6899, 24680.80
822.1720, 24814.95
822.6541, 24852.23
823.1362, 24790.43
823.6183, 24782.59
824.1005, 24836.70
824.5826, 24892.68
825.0647, 24905.82
825.5469, 24889.25
826.0290, 24862.33
826.5111, 24826.54
826.9932, 24801.47
827.4753, 24820.30
827.9575, 24840.22
828.4396, 24826.71
828.9217, 24763.34
829.4038, 24711.94
829.8859, 24689.72
830.3680, 24654.75
830.8502, 24563.00
831.3323, 24417.62
831.8144, 24304.58
832.2965, 24233.33
832.7786, 24163.04
833.2607, 24042.46
833.7429, 23903.35
834.2250, 23795.91
834.7071, 23743.61
835.1892, 23665.26
835.6713, 23490.41
836.1534, 23302.98
836.6356, 23180.04
837.1177, 23152.28
837.5998, 23101.13
838.0819, 23018.80
838.5640, 22924.05
839.0461, 22839.03
839.5283, 22760.40
840.0104, 22674.74
840.4925, 22572.22
840.9746, 22489.68
841.4567, 22480.15
841.9388, 22497.75
842.4210, 22488.03
842.9031, 22425.36
843.3852, 22349.82
843.8673, 22240.63
844.3494, 22140.25
844.8315, 22115.58
845.3137, 22173.68
845.7958, 22202.10
846.2779, 22175.31
846.7600, 22135.46
847.2421, 22153.62
847.7242, 22197.41
848.2064, 22200.21
848.6885, 22100.33
849.1706, 22019.70
849.6527, 22023.79
850.1348, 22073.29
850.6169, 22105.07
851.0991, 22113.18
851.5812, 22111.93
852.0633, 22101.46
852.5454, 22084.00
853.0275, 22057.38
853.5096, 22025.06
853.9918, 22008.17
854.4739, 22022.35
854.9560, 22037.09
855.4381, 22027.84
855.9202, 22000.55
856.4023, 21965.41
856.8845, 21898.27
857.3666, 21860.38
857.8487, 21872.13
858.3308, 21910.41
858.8129, 21934.43
859.2950, 21944.91
859.7772, 21934.15
860.2593, 21892.53
860.7414, 21843.90
861.2235, 21826.18
861.7056, 21830.09
862.1877, 21834.14
862.6699, 21831.42
863.1520, 21825.78
863.6341, 21819.18
864.1162, 21810.70
864.5983, 21797.38
865.0804, 21773.22
865.5626, 21760.16
866.0447, 21765.46
866.5268, 21779.99
867.0089, 21782.12
867.4910, 21775.59
867.9731, 21777.57
868.4553, 21795.04
868.9374, 21821.94
869.4195, 21870.12
869.9016, 21921.99
870.3837, 21940.92
870.8658, 21871.87
871.3480, 21829.30
871.8301, 21836.54
872.3122, 21873.57
872.7943, 21895.19
873.2764, 21901.07
873.7585, 21913.36
874.2407, 21946.93
874.7228, 21977.52
875.2049, 21962.79
875.6870, 21922.58
876.1691, 21899.36
876.6512, 21928.24
877.1334, 21955.10
877.6155, 21970.17
878.0976, 21972.16
878.5797, 21953.64
879.0618, 21910.14
879.5439, 21869.77
880.0261, 21840.43
880.5082, 21816.18
880.9903, 21783.21
881.4724, 21746.37
881.9545, 21718.89
882.4366, 21707.07
882.9188, 21704.34
883.4009, 21709.69
883.8830, 21720.92
884.3651, 21734.21
884.8472, 21752.39
885.3293, 21763.09
885.8115, 21760.06
886.2936, 21753.27
886.7757, 21762.36
887.2578, 21785.26
887.7399, 21812.39
888.2220, 21842.83
888.7042, 21872.38
889.1863, 21902.12
889.6684, 21928.23
890.1505, 21944.45
890.6326, 21944.51
891.1147, 21940.67
891.5969, 21931.97
892.0790, 21922.59
892.5611, 21924.55
893.0432, 21937.56
893.5253, 21928.65
894.0074, 21881.58
894.4896, 21834.05
894.9717, 21837.02
895.4538, 21867.54
895.9359, 21887.27
896.4180, 21876.16
896.9001, 21864.80
897.3823, 21855.54
897.8644, 21851.69
898.3465, 21859.21
898.8286, 21880.28
899.3107, 21897.79
899.7928, 21908.35
900.2750, 21918.29
900.7571, 21939.06
901.2392, 21964.36
901.7213, 21982.08
902.2034, 21985.51
902.6855, 21988.51
903.1677, 22005.05
903.6498, 22018.98
904.1319, 22010.20
904.6140, 21965.15
905.0961, 21940.60
905.5782, 21942.17
906.0604, 21957.79
906.5425, 21975.78
907.0246, 21996.89
907.5067, 22027.36
907.9888, 22072.77
908.4709, 22103.51
908.9531, 22085.52
909.4352, 22054.23
909.9173, 22041.33
910.3994, 22053.40
910.8815, 22074.04
911.3636, 22107.87
911.8458, 22139.63
912.3279, 22153.80
912.8100, 22153.48
913.2921, 22151.61
913.7742, 22148.90
914.2563, 22147.06
914.7385, 22143.13
915.2206, 22143.47
915.7027, 22157.35
916.1848, 22192.31
916.6669, 22206.30
917.1490, 22181.79
917.6312, 22163.94
918.1133, 22191.00
918.5954, 22256.23
919.0775, 22288.55
919.5596, 22288.06
920.0417, 22273.87
920.5239, 22255.21
921.0060, 22232.64
921.4881, 22197.85
921.9702, 22150.83
922.4523, 22136.26
922.9344, 22179.50
923.4166, 22227.26
923.8987, 22261.16
924.3808, 22281.45
924.8629, 22287.50
925.3450, 22279.98
925.8271, 22277.80
926.3093, 22304.89
926.7914, 22332.90
927.2735, 22325.44
927.7556, 22291.87
928.2377, 22277.15
928.7198, 22325.38
929.2020, 22354.35
929.6841, 22335.90
930.1662, 22287.40
930.6483, 22266.25
931.1304, 22272.14
931.6125, 22294.65
932.0947, 22346.60
932.5768, 22393.00
933.0589, 22380.88
933.5410, 22334.74
934.0231, 22309.46
934.5052, 22339.14
934.9874, 22371.56
935.4695, 22404.13
935.9516, 22430.23
936.4337, 22431.66
936.9158, 22407.88
937.3979, 22397.94
937.8801, 22411.01
938.3622, 22439.45
938.8443, 22487.35
939.3264, 22539.94
939.8085, 22576.43
940.2906, 22599.45
940.7728, 22587.40
941.2549, 22499.89
941.7370, 22409.41
942.2191, 22394.47
942.7012, 22458.92
943.1833, 22519.50
943.6655, 22570.05
944.1476, 22609.38
944.6297, 22628.47
945.1118, 22638.90
945.5939, 22657.11
946.0760, 22689.74
946.5582, 22712.72
947.0403, 22709.51
947.5224, 22705.30
948.0045, 22719.34
948.4866, 22753.25
948.9688, 22747.16
949.4509, 22697.59
949.9330, 22661.35
950.4151, 22705.28
950.8972, 22771.77
951.3793, 22778.72
951.8615, 22727.44
952.3436, 22716.79
952.8257, 22841.80
953.3078, 22938.86
953.7899, 22938.23
954.2720, 22861.93
954.7542, 22849.14
955.2363, 22899.48
955.7184, 22949.72
956.2005, 22964.34
956.6826, 22964.39
957.1647, 22966.82
957.6469, 22973.27
958.1290, 22988.91
958.6111, 23026.75
959.0932, 23059.60
959.5753, 23088.80
960.0574, 23105.74
960.5396, 23081.45
961.0217, 23019.67
961.5038, 22977.21
961.9859, 22971.74
962.4680, 22986.11
962.9501, 23011.89
963.4323, 23043.48
963.9144, 23072.59
964.3965, 23086.09
964.8786, 23117.39
965.3607, 23185.31
965.8428, 23249.62
966.3250, 23249.19
966.8071, 23194.01
967.2892, 23215.59
967.7713, 23332.77
968.2534, 23446.05
968.7355, 23450.47
969.2177, 23425.51
969.6998, 23453.57
970.1819, 23561.59
970.6640, 23626.45
971.1461, 23614.93
971.6282, 23607.79
972.1104, 23658.62
972.5925, 23754.80
973.0746, 23824.29
973.5567, 23869.46
974.0388, 23906.96
974.5209, 23934.96
975.0031, 23970.65
975.4852, 24035.59
975.9673, 24122.44
976.4494, 24184.01
976.9315, 24218.61
977.4136, 24224.40
977.8958, 24187.94
978.3779, 24136.20
978.8600, 24137.36
979.3421, 24176.88
979.8242, 24204.39
980.3063, 24205.14
980.7885, 24183.21
981.2706, 24120.86
981.7527, 24045.40
982.2348, 24000.72
982.7169, 24004.80
983.1990, 23988.31
983.6812, 23942.12
984.1633, 23887.89
984.6454, 23852.70
985.1275, 23828.84
985.6096, 23799.22
986.0917, 23760.13
986.5739, 23722.17
987.0560, 23672.21
987.5381, 23640.91
988.0202, 23652.27
988.5023, 23710.67
988.9844, 23752.73
989.4666, 23778.88
989.9487, 23781.48
990.4308, 23738.89
990.9130, 23678.05
991.3951, 23630.87
991.8772, 23598.93
992.3593, 23586.68
992.8414, 23620.94
993.3235, 23645.09
993.8057, 23640.33
994.2878, 23614.77
994.7699, 23586.93
995.2520, 23557.42
995.7341, 23546.49
996.2162, 23570.77
996.6984, 23599.49
997.1805, 23605.63
997.6626, 23593.82
998.1447, 23571.21
998.6268, 23519.14
999.1089, 23488.31
999.5911, 23484.98
1000.073, 23497.41
1000.555, 23517.31
1001.037, 23542.75
1001.520, 23559.65
1002.002, 23565.53
1002.484, 23573.35
1002.966, 23601.17
1003.448, 23627.55
1003.930, 23631.44
1004.412, 23607.25
1004.894, 23588.65
1005.376, 23566.97
1005.859, 23575.34
1006.341, 23657.22
1006.823, 23769.23
1007.305, 23792.56
1007.787, 23744.93
1008.269, 23701.63
1008.751, 23697.66
1009.233, 23707.15
1009.716, 23731.03
1010.198, 23758.17
1010.680, 23764.75
1011.162, 23747.50
1011.644, 23731.03
1012.126, 23715.97
1012.608, 23715.31
1013.090, 23769.85
1013.572, 23839.78
1014.055, 23858.21
1014.537, 23772.98
1015.019, 23737.44
1015.501, 23814.05
1015.983, 23904.39
1016.465, 23941.22
1016.947, 23925.94
1017.429, 23879.23
1017.911, 23802.54
1018.394, 23750.07
1018.876, 23790.81
1019.358, 23847.02
1019.840, 23844.31
1020.322, 23789.39
1020.804, 23782.87
1021.286, 23857.59
1021.768, 23912.74
1022.251, 23914.76
1022.733, 23885.39
1023.215, 23855.23
1023.697, 23832.09
1024.179, 23844.80
1024.661, 23947.20
1025.143, 24014.11
1025.625, 23943.81
1026.107, 23836.24
1026.590, 23809.28
1027.072, 23880.53
1027.554, 23943.61
1028.036, 23994.19
1028.518, 24029.39
1029.000, 24052.19
1029.482, 24054.78
1029.964, 24007.62
1030.447, 23908.05
1030.929, 23860.57
1031.411, 23930.83
1031.893, 24007.85
1032.375, 24053.92
1032.857, 24076.69
1033.339, 24107.72
1033.821, 24144.96
1034.303, 24171.83
1034.786, 24175.57
1035.268, 24172.39
1035.750, 24162.23
1036.232, 24155.38
1036.714, 24174.23
1037.196, 24235.31
1037.678, 24274.50
1038.160, 24282.76
1038.642, 24277.30
1039.125, 24275.02
1039.607, 24274.97
1040.089, 24275.42
1040.571, 24276.20
1041.053, 24278.63
1041.535, 24303.23
1042.017, 24308.52
1042.499, 24258.00
1042.982, 24164.53
1043.464, 24159.87
1043.946, 24242.89
1044.428, 24317.72
1044.910, 24321.93
1045.392, 24307.07
1045.874, 24323.50
1046.356, 24356.90
1046.839, 24371.24
1047.321, 24337.98
1047.803, 24331.89
1048.285, 24368.20
1048.767, 24416.95
1049.249, 24428.44
1049.731, 24420.74
1050.213, 24460.07
1050.695, 24566.78
1051.177, 24631.45
1051.660, 24549.57
1052.142, 24451.55
1052.624, 24423.26
1053.106, 24463.48
1053.588, 24488.24
1054.070, 24497.07
1054.552, 24506.46
1055.034, 24533.18
1055.517, 24559.29
1055.999, 24555.70
1056.481, 24535.68
1056.963, 24533.09
1057.445, 24567.79
1057.927, 24601.75
1058.409, 24632.84
1058.891, 24658.34
1059.374, 24665.88
1059.856, 24664.11
1060.338, 24691.25
1060.820, 24758.16
1061.302, 24805.89
1061.784, 24785.97
1062.266, 24749.32
1062.748, 24727.48
1063.230, 24721.13
1063.713, 24723.23
1064.195, 24734.45
1064.677, 24754.17
1065.159, 24781.14
1065.641, 24817.67
1066.123, 24887.16
1066.605, 24966.14
1067.087, 25000.37
1067.569, 24921.85
1068.052, 24877.35
1068.534, 24881.10
1069.016, 24916.05
1069.498, 24980.43
1069.980, 25057.04
1070.462, 25088.41
1070.944, 25064.45
1071.426, 25032.39
1071.909, 25004.82
1072.391, 24991.88
1072.873, 25009.46
1073.355, 25052.12
1073.837, 25044.58
1074.319, 24984.83
1074.801, 24946.49
1075.283, 24971.09
1075.766, 25024.76
1076.248, 25085.79
1076.730, 25144.68
1077.212, 25181.55
1077.694, 25183.32
1078.176, 25173.56
1078.658, 25144.09
1079.140, 25119.52
1079.622, 25129.94
1080.105, 25165.61
1080.587, 25210.47
1081.069, 25262.22
1081.551, 25291.43
1082.033, 25245.93
1082.515, 25216.78
1082.997, 25259.26
1083.479, 25350.11
1083.962, 25381.65
1084.444, 25356.80
1084.926, 25328.00
1085.408, 25310.40
1085.890, 25304.72
1086.372, 25319.88
1086.854, 25343.78
1087.336, 25357.59
1087.818, 25346.93
1088.301, 25352.22
1088.783, 25370.99
1089.265, 25410.12
1089.747, 25506.17
1090.229, 25613.35
1090.711, 25625.21
1091.193, 25552.27
1091.675, 25503.69
1092.157, 25541.11
1092.640, 25584.55
1093.122, 25612.99
1093.604, 25633.47
1094.086, 25670.98
1094.568, 25719.10
1095.050, 25730.73
1095.532, 25683.98
1096.014, 25636.58
1096.497, 25621.35
1096.979, 25628.94
1097.461, 25651.19
1097.943, 25687.53
1098.425, 25744.39
1098.907, 25827.55
1099.389, 25884.01
1099.871, 25853.66
1100.354, 25798.42
1100.836, 25797.25
1101.318, 25833.67
1101.800, 25856.48
1102.282, 25852.46
1102.764, 25837.23
1103.246, 25809.64
1103.728, 25777.30
1104.210, 25745.16
1104.693, 25717.44
1105.175, 25705.29
1105.657, 25711.06
1106.139, 25723.51
1106.621, 25735.74
1107.103, 25757.32
1107.585, 25801.92
1108.067, 25859.56
1108.549, 25870.55
1109.032, 25838.44
1109.514, 25803.89
1109.996, 25770.04
1110.478, 25761.24
1110.960, 25820.27
1111.442, 25904.53
1111.924, 25951.76
1112.406, 25943.97
1112.889, 25956.43
1113.371, 25993.30
1113.853, 26030.53
1114.335, 26041.07
1114.817, 26042.79
1115.299, 26059.66
1115.781, 26090.20
1116.263, 26118.18
1116.745, 26145.64
1117.228, 26158.94
1117.710, 26149.11
1118.192, 26133.47
1118.674, 26152.90
1119.156, 26191.20
1119.638, 26202.53
1120.120, 26169.86
1120.602, 26141.39
1121.084, 26127.02
1121.567, 26134.78
1122.049, 26179.30
1122.531, 26253.69
1123.013, 26282.37
1123.495, 26270.27
1123.977, 26267.19
1124.459, 26317.07
1124.941, 26365.54
1125.424, 26373.63
1125.906, 26359.62
1126.388, 26360.17
1126.870, 26385.64
1127.352, 26366.56
1127.834, 26288.18
1128.316, 26230.28
1128.798, 26294.33
1129.281, 26396.30
1129.763, 26438.48
1130.245, 26419.85
1130.727, 26434.91
1131.209, 26514.29
1131.691, 26568.96
1132.173, 26568.61
1132.655, 26543.94
1133.137, 26542.69
1133.620, 26557.95
1134.102, 26577.61
1134.584, 26601.54
1135.066, 26619.29
1135.548, 26617.48
1136.030, 26624.05
1136.512, 26657.20
1136.994, 26712.33
1137.476, 26775.19
1137.959, 26840.97
1138.441, 26888.17
1138.923, 26914.02
1139.405, 26908.60
1139.887, 26826.67
1140.369, 26735.46
1140.851, 26728.81
1141.333, 26808.61
1141.816, 26863.37
1142.298, 26883.98
1142.780, 26886.77
1143.262, 26873.05
1143.744, 26857.14
1144.226, 26852.56
1144.708, 26857.15
1145.190, 26846.62
1145.672, 26813.69
1146.155, 26814.29
1146.637, 26874.91
1147.119, 26943.71
1147.601, 26950.30
1148.083, 26931.21
1148.565, 26932.78
1149.047, 26966.97
1149.529, 27013.24
1150.011, 27078.45
1150.494, 27133.14
1150.976, 27160.21
1151.458, 27165.91
1151.940, 27150.81
1152.422, 27125.35
1152.904, 27117.27
1153.386, 27165.10
1153.868, 27188.29
1154.351, 27163.46
1154.833, 27137.96
1155.315, 27178.59
1155.797, 27259.51
1156.279, 27287.30
1156.761, 27260.57
1157.243, 27236.87
1157.725, 27228.92
1158.208, 27251.21
1158.690, 27331.76
1159.172, 27424.92
1159.654, 27401.68
1160.136, 27282.93
1160.618, 27228.56
1161.100, 27282.93
1161.582, 27340.39
1162.064, 27310.75
1162.547, 27277.39
1163.029, 27310.58
1163.511, 27403.93
1163.993, 27443.30
1164.475, 27430.43
1164.957, 27418.04
1165.439, 27428.38
1165.921, 27450.65
1166.403, 27486.84
1166.886, 27525.10
1167.368, 27547.74
1167.850, 27550.83
1168.332, 27553.16
1168.814, 27554.70
1169.296, 27556.72
1169.778, 27552.47
1170.260, 27554.83
1170.743, 27583.93
1171.225, 27631.49
1171.707, 27666.99
1172.189, 27682.61
1172.671, 27699.30
1173.153, 27720.04
1173.635, 27739.85
1174.117, 27745.43
1174.599, 27750.53
1175.082, 27783.12
1175.564, 27845.85
1176.046, 27879.05
1176.528, 27861.41
1177.010, 27847.98
1177.492, 27856.47
1177.974, 27876.85
1178.456, 27897.10
1178.938, 27914.19
1179.421, 27920.74
1179.903, 27911.03
1180.385, 27906.48
1180.867, 27914.07
1181.349, 27922.58
1181.831, 27921.42
1182.313, 27918.12
1182.795, 27942.45
1183.278, 27987.23
1183.760, 28028.31
1184.242, 28037.47
1184.724, 28067.16
1185.206, 28151.99
1185.688, 28231.61
1186.170, 28238.05
1186.652, 28186.12
1187.135, 28158.66
1187.617, 28157.58
1188.099, 28167.68
1188.581, 28183.72
1189.063, 28207.98
1189.545, 28253.98
1190.027, 28300.05
1190.509, 28301.03
1190.991, 28263.72
1191.474, 28241.29
1191.956, 28241.67
1192.438, 28247.94
1192.920, 28249.92
1193.402, 28252.57
1193.884, 28250.94
1194.366, 28252.40
1194.848, 28302.15
1195.330, 28394.45
1195.813, 28449.24
1196.295, 28435.63
1196.777, 28404.12
1197.259, 28362.81
1197.741, 28345.01
1198.223, 28396.12
1198.705, 28515.30
1199.187, 28535.57
1199.670, 28457.90
1200.152, 28400.47
1200.634, 28441.06
1201.116, 28495.70
1201.598, 28504.82
1202.080, 28486.38
1202.562, 28461.17
1203.044, 28421.34
1203.526, 28427.79
1204.009, 28483.82
1204.491, 28536.30
1204.973, 28542.83
1205.455, 28534.21
1205.937, 28528.12
1206.419, 28528.52
1206.901, 28545.88
1207.383, 28587.30
1207.865, 28602.05
1208.348, 28579.28
1208.830, 28569.07
1209.312, 28634.94
1209.794, 28722.02
1210.276, 28785.98
1210.758, 28821.84
1211.240, 28829.90
1211.722, 28807.22
1212.205, 28765.44
1212.687, 28697.52
1213.169, 28646.13
1213.651, 28677.70
1214.133, 28740.02
1214.615, 28778.82
1215.097, 28785.63
1215.579, 28778.96
1216.062, 28752.64
1216.544, 28747.89
1217.026, 28789.46
1217.508, 28840.88
1217.990, 28853.02
1218.472, 28845.90
1218.954, 28844.88
1219.436, 28850.54
1219.918, 28880.40
1220.401, 28941.35
1220.883, 28989.35
1221.365, 28985.23
1221.847, 28968.32
1222.329, 28994.91
1222.811, 29046.60
1223.293, 29086.62
1223.775, 29107.71
1224.257, 29121.45
1224.740, 29126.21
1225.222, 29132.38
1225.704, 29154.24
1226.186, 29178.49
1226.668, 29185.80
1227.150, 29180.58
1227.632, 29176.17
1228.114, 29161.11
1228.597, 29185.95
1229.079, 29263.33
1229.561, 29347.69
1230.043, 29391.18
1230.525, 29413.84
1231.007, 29446.92
1231.489, 29485.87
1231.971, 29479.29
1232.453, 29407.80
1232.936, 29347.17
1233.418, 29309.53
1233.900, 29296.95
1234.382, 29319.94
1234.864, 29364.96
1235.346, 29433.16
1235.828, 29524.28
1236.310, 29530.65
1236.792, 29416.31
1237.275, 29350.11
1237.757, 29392.05
1238.239, 29486.47
1238.721, 29605.26
1239.203, 29707.35
1239.685, 29728.27
1240.167, 29636.88
1240.650, 29582.17
1241.132, 29569.15
1241.614, 29572.00
1242.096, 29583.71
1242.578, 29598.33
1243.060, 29606.19
1243.542, 29612.72
1244.024, 29627.77
1244.506, 29656.71
1244.989, 29676.15
1245.471, 29685.01
1245.953, 29689.78
1246.435, 29690.41
1246.917, 29692.63
1247.399, 29702.61
1247.881, 29719.27
1248.363, 29743.73
1248.845, 29789.13
1249.328, 29786.33
1249.810, 29726.38
1250.292, 29680.01
1250.774, 29705.75
1251.256, 29766.03
1251.738, 29843.05
1252.220, 29922.60
1252.702, 29969.04
1253.185, 29970.99
1253.667, 30001.80
1254.149, 30071.28
1254.631, 30128.47
1255.113, 30123.72
1255.595, 30093.16
1256.077, 30054.17
1256.559, 30015.85
1257.042, 30003.31
1257.524, 30019.84
1258.006, 30031.07
1258.488, 30030.55
1258.970, 30040.08
1259.452, 30098.38
1259.934, 30156.73
1260.416, 30165.35
1260.898, 30142.14
1261.380, 30155.90
1261.863, 30206.40
1262.345, 30244.17
1262.827, 30259.50
1263.309, 30252.30
1263.791, 30198.96
1264.273, 30143.95
1264.755, 30109.83
1265.237, 30101.12
1265.720, 30161.63
1266.202, 30281.73
1266.684, 30359.22
1267.166, 30355.79
1267.648, 30338.35
1268.130, 30337.16
1268.612, 30345.84
1269.094, 30356.27
1269.577, 30371.13
1270.059, 30427.26
1270.541, 30509.01
1271.023, 30535.36
1271.505, 30437.89
1271.987, 30372.97
1272.469, 30459.04
1272.951, 30552.34
1273.433, 30558.35
1273.916, 30502.44
1274.398, 30500.13
1274.880, 30540.57
1275.362, 30582.12
1275.844, 30609.89
1276.326, 30637.49
1276.808, 30685.98
1277.290, 30710.61
1277.772, 30647.93
1278.255, 30540.55
1278.737, 30534.80
1279.219, 30608.18
1279.701, 30684.47
1280.183, 30744.86
1280.665, 30787.57
1281.147, 30803.64
1281.629, 30820.99
1282.112, 30874.12
1282.594, 30940.53
1283.076, 30979.76
1283.558, 30993.36
1284.040, 30988.19
1284.522, 30927.18
1285.004, 30934.79
1285.486, 31040.51
1285.969, 31144.12
1286.451, 31132.53
1286.933, 31073.75
1287.415, 31058.08
1287.897, 31076.60
1288.379, 31070.31
1288.861, 31019.81
1289.343, 31006.75
1289.825, 31045.38
1290.307, 31094.91
1290.790, 31114.49
1291.272, 31128.27
1291.754, 31154.34
1292.236, 31195.40
1292.718, 31261.75
1293.200, 31359.97
1293.682, 31403.83
1294.164, 31374.69
1294.647, 31344.91
1295.129, 31373.09
1295.611, 31424.28
1296.093, 31487.71
1296.575, 31550.02
1297.057, 31571.54
1297.539, 31556.26
1298.021, 31561.02
1298.504, 31597.96
1298.986, 31633.71
1299.468, 31645.43
1299.950, 31654.22
1300.432, 31674.23
1300.914, 31698.98
1301.396, 31706.87
1301.878, 31702.89
1302.360, 31703.31
1302.843, 31706.87
1303.325, 31720.13
1303.807, 31759.41
1304.289, 31789.06
1304.771, 31792.34
1305.253, 31781.10
1305.735, 31769.14
1306.217, 31755.18
##END=



