##NAMES=Magnesiotaaffeite-6N3S
##RRUFFID=X070005
##IDEAL CHEMISTRY=Mg_2_BeAl_6_O_12_
##LOCALITY=Tunduru, Tanzania
##OWNER=www.multicolour.com
##SOURCE=www.multicolour.com
##DESCRIPTION=Pale lavendar cut gemstone, 0.65 cts, formerly known as musgravite-18R
##STATUS=The identification of this mineral has been confirmed by single-crystal X-ray diffraction.
##URL=rruff.info/X070005
162.6361, 19898.84
163.1183, 19887.35
163.6004, 19939.87
164.0825, 19998.27
164.5646, 20027.97
165.0467, 20014.01
165.5288, 19980.10
166.0110, 19920.67
166.4931, 19842.96
166.9752, 19784.31
167.4573, 19776.78
167.9394, 19792.41
168.4215, 19802.36
168.9037, 19797.88
169.3858, 19782.98
169.8679, 19756.29
170.3500, 19716.76
170.8321, 19677.64
171.3142, 19639.47
171.7964, 19607.71
172.2785, 19592.57
172.7606, 19623.59
173.2427, 19662.27
173.7248, 19666.72
174.2069, 19621.87
174.6891, 19569.76
175.1712, 19545.78
175.6533, 19546.03
176.1354, 19554.36
176.6175, 19572.76
177.0996, 19590.68
177.5818, 19588.89
178.0639, 19542.98
178.5460, 19493.04
179.0281, 19499.33
179.5102, 19559.01
179.9923, 19618.25
180.4745, 19623.20
180.9566, 19589.90
181.4387, 19558.67
181.9208, 19553.17
182.4029, 19557.89
182.8850, 19538.49
183.3672, 19489.47
183.8493, 19442.24
184.3314, 19447.39
184.8135, 19494.85
185.2956, 19529.37
185.7777, 19506.99
186.2599, 19447.80
186.7420, 19412.41
187.2241, 19416.92
187.7062, 19433.22
188.1883, 19404.67
188.6705, 19332.29
189.1526, 19266.20
189.6347, 19256.64
190.1168, 19292.43
190.5989, 19308.83
191.0810, 19283.72
191.5632, 19233.64
192.0453, 19204.12
192.5274, 19196.90
193.0095, 19200.82
193.4916, 19211.00
193.9737, 19226.89
194.4559, 19231.28
194.9380, 19211.66
195.4201, 19172.35
195.9022, 19145.51
196.3843, 19131.74
196.8664, 19129.11
197.3486, 19136.38
197.8307, 19153.69
198.3128, 19175.97
198.7949, 19198.08
199.2770, 19219.85
199.7591, 19259.18
200.2413, 19328.55
200.7234, 19403.94
201.2055, 19414.11
201.6876, 19343.86
202.1697, 19272.34
202.6518, 19262.30
203.1340, 19322.21
203.6161, 19358.73
204.0982, 19345.58
204.5803, 19296.32
205.0624, 19292.67
205.5445, 19347.79
206.0267, 19417.04
206.5088, 19461.08
206.9909, 19479.54
207.4730, 19475.01
207.9551, 19442.74
208.4372, 19382.69
208.9194, 19327.39
209.4015, 19275.53
209.8836, 19231.17
210.3657, 19204.07
210.8478, 19184.59
211.3299, 19200.52
211.8121, 19210.15
212.2942, 19213.82
212.7763, 19193.69
213.2584, 19204.29
213.7405, 19202.58
214.2226, 19200.36
214.7048, 19215.29
215.1869, 19198.62
215.6690, 19213.27
216.1511, 19215.43
216.6332, 19223.30
217.1153, 19218.78
217.5975, 19218.09
218.0796, 19229.80
218.5617, 19234.64
219.0438, 19228.70
219.5259, 19236.94
220.0080, 19219.83
220.4902, 19251.48
220.9723, 19277.12
221.4544, 19307.97
221.9365, 19319.56
222.4186, 19301.83
222.9007, 19277.04
223.3829, 19271.93
223.8650, 19298.82
224.3471, 19320.47
224.8292, 19324.33
225.3113, 19305.24
225.7934, 19304.06
226.2756, 19324.36
226.7577, 19360.69
227.2398, 19406.05
227.7219, 19470.12
228.2040, 19526.95
228.6861, 19566.03
229.1683, 19578.58
229.6504, 19595.58
230.1325, 19616.12
230.6146, 19640.52
231.0967, 19671.07
231.5789, 19707.01
232.0610, 19749.01
232.5431, 19795.61
233.0252, 19840.26
233.5073, 19904.93
233.9894, 20003.72
234.4716, 20126.08
234.9537, 20218.24
235.4358, 20258.83
235.9179, 20296.43
236.4000, 20362.46
236.8821, 20457.71
237.3643, 20579.47
237.8464, 20732.92
238.3285, 20915.61
238.8106, 21099.99
239.2927, 21288.13
239.7748, 21475.47
240.2570, 21666.62
240.7391, 21918.25
241.2212, 22072.30
241.7033, 22097.98
242.1854, 21991.39
242.6675, 21774.46
243.1497, 21381.63
243.6318, 20929.50
244.1139, 20565.65
244.5960, 20307.38
245.0781, 20109.50
245.5602, 19967.51
246.0424, 19892.47
246.5245, 19831.24
247.0066, 19779.72
247.4887, 19744.06
247.9708, 19742.55
248.4529, 19808.46
248.9351, 19855.24
249.4172, 19841.38
249.8993, 19722.72
250.3814, 19651.84
250.8635, 19650.80
251.3456, 19692.84
251.8278, 19699.68
252.3099, 19643.70
252.7920, 19593.57
253.2741, 19591.17
253.7562, 19673.55
254.2383, 19715.15
254.7205, 19688.80
255.2026, 19613.81
255.6847, 19583.54
256.1668, 19618.65
256.6489, 19669.17
257.1310, 19700.55
257.6132, 19698.83
258.0953, 19711.48
258.5774, 19746.30
259.0595, 19801.68
259.5416, 19860.43
260.0237, 19926.12
260.5059, 19990.46
260.9880, 20044.28
261.4701, 20079.88
261.9522, 20125.19
262.4343, 20186.79
262.9164, 20264.72
263.3986, 20344.54
263.8807, 20424.85
264.3628, 20509.95
264.8449, 20609.79
265.3270, 20741.58
265.8091, 20843.39
266.2913, 20899.96
266.7734, 20908.90
267.2555, 20886.92
267.7376, 20829.37
268.2197, 20745.18
268.7018, 20637.61
269.1840, 20494.42
269.6661, 20365.87
270.1482, 20277.14
270.6303, 20235.99
271.1124, 20166.69
271.5945, 20056.58
272.0767, 19934.89
272.5588, 19845.84
273.0409, 19791.96
273.5230, 19766.90
274.0051, 19781.69
274.4872, 19848.47
274.9694, 19872.12
275.4515, 19839.14
275.9336, 19778.33
276.4157, 19749.31
276.8978, 19758.66
277.3799, 19771.83
277.8621, 19767.09
278.3442, 19740.82
278.8263, 19730.81
279.3084, 19740.62
279.7905, 19764.79
280.2726, 19799.24
280.7548, 19849.22
281.2369, 19880.72
281.7190, 19860.51
282.2011, 19786.07
282.6832, 19735.85
283.1653, 19723.23
283.6475, 19735.46
284.1296, 19744.20
284.6117, 19750.26
285.0938, 19750.15
285.5759, 19740.94
286.0580, 19723.35
286.5402, 19702.27
287.0223, 19678.64
287.5044, 19653.40
287.9865, 19624.54
288.4686, 19591.20
288.9507, 19568.00
289.4329, 19573.15
289.9150, 19603.11
290.3971, 19627.81
290.8792, 19641.29
291.3614, 19645.40
291.8435, 19639.66
292.3256, 19623.00
292.8077, 19612.56
293.2898, 19634.91
293.7719, 19680.91
294.2541, 19702.91
294.7362, 19668.92
295.2183, 19614.83
295.7004, 19624.23
296.1825, 19698.12
296.6646, 19786.07
297.1468, 19841.00
297.6289, 19871.54
298.1110, 19905.66
298.5931, 19952.81
299.0752, 20007.82
299.5573, 20064.88
300.0395, 20123.54
300.5216, 20179.08
301.0037, 20214.37
301.4858, 20241.71
301.9679, 20291.95
302.4500, 20402.39
302.9322, 20529.23
303.4143, 20613.49
303.8964, 20656.03
304.3785, 20668.44
304.8606, 20638.58
305.3427, 20586.95
305.8249, 20553.02
306.3070, 20558.95
306.7891, 20587.41
307.2712, 20617.10
307.7533, 20647.56
308.2354, 20692.96
308.7176, 20766.51
309.1997, 20861.65
309.6818, 20966.09
310.1639, 21095.07
310.6460, 21219.13
311.1281, 21299.23
311.6103, 21332.70
312.0924, 21381.99
312.5745, 21501.37
313.0566, 21659.97
313.5387, 21811.09
314.0208, 21964.46
314.5030, 22084.88
314.9851, 22153.06
315.4672, 22168.64
315.9493, 22133.74
316.4314, 22040.94
316.9135, 21902.23
317.3957, 21730.92
317.8778, 21509.04
318.3599, 21275.66
318.8420, 21037.76
319.3241, 20792.88
319.8062, 20583.46
320.2884, 20418.66
320.7705, 20296.57
321.2526, 20213.66
321.7347, 20178.10
322.2168, 20171.78
322.6989, 20204.25
323.1811, 20289.37
323.6632, 20331.49
324.1453, 20269.13
324.6274, 20165.48
325.1095, 20097.42
325.5916, 20102.58
326.0738, 20122.96
326.5559, 20148.39
327.0380, 20184.12
327.5201, 20203.43
328.0022, 20201.63
328.4843, 20184.65
328.9665, 20159.67
329.4486, 20106.34
329.9307, 20066.42
330.4128, 20052.27
330.8949, 20071.99
331.3770, 20085.16
331.8592, 20093.38
332.3413, 20093.87
332.8234, 20080.97
333.3055, 20031.33
333.7876, 19999.62
334.2697, 20000.35
334.7519, 20037.46
335.2340, 20084.44
335.7161, 20151.48
336.1982, 20218.93
336.6803, 20260.78
337.1624, 20268.97
337.6446, 20268.81
338.1267, 20272.25
338.6088, 20282.13
339.0909, 20248.18
339.5730, 20154.36
340.0551, 20040.61
340.5373, 19950.62
341.0194, 19884.12
341.5015, 19843.69
341.9836, 19838.02
342.4657, 19865.04
342.9478, 19880.30
343.4300, 19884.37
343.9121, 19875.77
344.3942, 19844.63
344.8763, 19789.57
345.3584, 19748.71
345.8405, 19739.23
346.3227, 19754.47
346.8048, 19758.88
347.2869, 19750.25
347.7690, 19742.68
348.2511, 19753.26
348.7332, 19779.48
349.2154, 19805.38
349.6975, 19825.66
350.1796, 19841.36
350.6617, 19854.36
351.1438, 19864.29
351.6259, 19874.40
352.1081, 19884.84
352.5902, 19897.54
353.0723, 19912.80
353.5544, 19942.30
354.0365, 19965.51
354.5186, 19982.75
355.0008, 19976.20
355.4829, 20000.38
355.9650, 20012.24
356.4471, 20023.60
356.9292, 20052.10
357.4113, 20049.01
357.8935, 20077.25
358.3756, 20092.98
358.8577, 20114.43
359.3398, 20123.49
359.8219, 20136.37
360.3040, 20161.66
360.7862, 20180.08
361.2683, 20187.71
361.7504, 20209.53
362.2325, 20206.00
362.7146, 20224.71
363.1967, 20253.02
363.6789, 20261.28
364.1610, 20283.32
364.6431, 20300.11
365.1252, 20293.04
365.6073, 20327.47
366.0894, 20343.95
366.5716, 20342.01
367.0537, 20375.02
367.5358, 20376.96
368.0179, 20401.53
368.5000, 20420.26
368.9821, 20437.53
369.4643, 20442.77
369.9464, 20424.74
370.4285, 20392.18
370.9106, 20377.83
371.3927, 20390.34
371.8748, 20415.13
372.3570, 20447.10
372.8391, 20494.31
373.3212, 20537.20
373.8033, 20571.24
374.2855, 20603.13
374.7676, 20653.54
375.2497, 20739.10
375.7318, 20816.26
376.2139, 20862.83
376.6960, 20866.15
377.1782, 20888.31
377.6603, 20938.53
378.1424, 20998.45
378.6245, 21033.85
379.1066, 21043.60
379.5887, 21030.13
380.0709, 20994.78
380.5530, 20936.37
381.0351, 20838.18
381.5172, 20627.35
381.9993, 20653.96
382.4814, 20661.29
382.9636, 20650.39
383.4457, 20566.63
383.9278, 20576.95
384.4099, 20549.57
384.8920, 20520.64
385.3741, 20544.21
385.8563, 20471.04
386.3384, 20493.77
386.8205, 20478.22
387.3026, 20480.19
387.7847, 20444.23
388.2668, 20419.98
388.7490, 20433.67
389.2311, 20426.36
389.7132, 20386.03
390.1953, 20443.57
390.6774, 20521.52
391.1595, 20587.06
391.6417, 20606.60
392.1238, 20626.35
392.6059, 20677.84
393.0880, 20759.77
393.5701, 20856.09
394.0522, 20954.24
394.5344, 21064.52
395.0165, 21196.29
395.4986, 21368.79
395.9807, 21544.25
396.4628, 21692.80
396.9449, 21825.70
397.4271, 22000.79
397.9092, 22234.81
398.3913, 22513.00
398.8734, 22826.47
399.3555, 23160.51
399.8376, 23546.36
400.3198, 24009.06
400.8019, 24528.97
401.2840, 25042.62
401.7661, 25538.38
402.2482, 26038.38
402.7303, 26555.96
403.2125, 27122.89
403.6946, 27646.13
404.1767, 28150.37
404.6588, 28605.77
405.1409, 28945.04
405.6230, 29157.68
406.1052, 29285.81
406.5873, 29315.04
407.0694, 29226.52
407.5515, 29205.68
408.0336, 29228.81
408.5157, 29361.57
408.9979, 29688.13
409.4800, 30210.28
409.9621, 30901.51
410.4442, 31790.26
410.9263, 32840.50
411.4084, 33970.52
411.8906, 35186.88
412.3727, 36358.60
412.8548, 37432.24
413.3369, 38363.57
413.8190, 38970.07
414.3011, 39283.41
414.7833, 39170.92
415.2654, 38336.68
415.7475, 36821.90
416.2296, 34993.34
416.7117, 32854.91
417.1938, 30651.29
417.6760, 28690.57
418.1581, 27038.35
418.6402, 25663.52
419.1223, 24574.13
419.6044, 23749.74
420.0865, 23101.59
420.5687, 22684.54
421.0508, 22374.66
421.5329, 22091.52
422.0150, 21812.82
422.4971, 21570.72
422.9792, 21377.72
423.4614, 21227.77
423.9435, 21102.75
424.4256, 21007.42
424.9077, 20927.97
425.3898, 20860.90
425.8719, 20811.15
426.3541, 20760.41
426.8362, 20691.22
427.3183, 20628.08
427.8004, 20600.84
428.2825, 20639.13
428.7646, 20669.63
429.2468, 20674.83
429.7289, 20653.89
430.2110, 20635.12
430.6931, 20613.52
431.1752, 20601.77
431.6573, 20611.44
432.1395, 20643.53
432.6216, 20691.89
433.1037, 20754.77
433.5858, 20833.10
434.0679, 20938.13
434.5500, 21072.77
435.0322, 21209.85
435.5143, 21324.63
435.9964, 21421.87
436.4785, 21524.40
436.9606, 21634.63
437.4427, 21752.30
437.9249, 21871.37
438.4070, 21996.09
438.8891, 22139.60
439.3712, 22316.75
439.8533, 22515.89
440.3354, 22716.03
440.8176, 22910.93
441.2997, 23129.84
441.7818, 23378.01
442.2639, 23669.46
442.7460, 24025.64
443.2281, 24490.08
443.7103, 24992.88
444.1924, 25503.13
444.6745, 26019.50
445.1566, 26526.15
445.6387, 27072.64
446.1208, 27582.30
446.6030, 27982.13
447.0851, 28319.83
447.5672, 28478.77
448.0493, 28432.93
448.5314, 28183.81
449.0135, 27766.30
449.4957, 27097.13
449.9778, 26338.98
450.4599, 25551.17
450.9420, 24629.80
451.4241, 23902.78
451.9063, 23406.34
452.3884, 23087.58
452.8705, 22834.57
453.3526, 22647.05
453.8347, 22521.46
454.3168, 22471.77
454.7990, 22500.69
455.2811, 22527.46
455.7632, 22553.85
456.2453, 22574.00
456.7274, 22587.25
457.2096, 22591.61
457.6917, 22565.07
458.1738, 22498.80
458.6559, 22396.76
459.1380, 22264.79
459.6201, 22104.98
460.1023, 21914.15
460.5844, 21655.74
461.0665, 21372.11
461.5486, 21141.73
462.0307, 20997.37
462.5128, 20888.74
462.9950, 20772.12
463.4771, 20655.51
463.9592, 20571.32
464.4413, 20558.16
464.9234, 20566.17
465.4055, 20558.62
465.8877, 20517.96
466.3698, 20493.96
466.8519, 20519.60
467.3340, 20566.68
467.8161, 20592.64
468.2982, 20563.06
468.7804, 20539.75
469.2625, 20543.77
469.7446, 20580.36
470.2267, 20599.70
470.7088, 20581.04
471.1909, 20565.31
471.6731, 20591.72
472.1552, 20680.47
472.6373, 20757.69
473.1194, 20804.45
473.6015, 20834.18
474.0836, 20904.29
474.5658, 21022.15
475.0479, 21146.19
475.5300, 21240.73
476.0121, 21310.52
476.4942, 21409.14
476.9763, 21541.63
477.4585, 21701.08
477.9406, 21881.47
478.4227, 22082.15
478.9048, 22295.49
479.3869, 22507.13
479.8690, 22735.66
480.3512, 23010.78
480.8333, 23333.86
481.3154, 23679.88
481.7975, 24047.68
482.2796, 24423.18
482.7617, 24789.24
483.2439, 25179.43
483.7260, 25524.62
484.2081, 25799.12
484.6902, 26004.38
485.1723, 26147.28
485.6544, 26202.58
486.1366, 26214.22
486.6187, 26199.66
487.1008, 26118.71
487.5829, 26083.43
488.0650, 26085.15
488.5471, 26136.23
489.0293, 26254.50
489.5114, 26417.84
489.9935, 26682.79
490.4756, 27073.33
490.9577, 27583.53
491.4398, 28186.64
491.9220, 28910.89
492.4041, 29668.00
492.8862, 30415.83
493.3683, 31159.38
493.8504, 31786.39
494.3326, 32310.42
494.8147, 32675.19
495.2968, 32825.34
495.7789, 32752.35
496.2610, 32363.83
496.7431, 31495.88
497.2253, 30297.82
497.7074, 28942.94
498.1895, 27396.55
498.6716, 25952.89
499.1537, 24798.56
499.6358, 23899.62
500.1180, 23171.25
500.6001, 22662.80
501.0822, 22254.19
501.5643, 21886.58
502.0464, 21557.67
502.5285, 21307.92
503.0107, 21204.74
503.4928, 21151.54
503.9749, 21079.00
504.4570, 20945.80
504.9391, 20835.34
505.4212, 20756.42
505.9034, 20702.39
506.3855, 20652.56
506.8676, 20603.71
507.3497, 20566.29
507.8318, 20549.34
508.3139, 20557.22
508.7961, 20550.43
509.2782, 20526.21
509.7603, 20494.74
510.2424, 20468.81
510.7245, 20448.46
511.2066, 20422.53
511.6888, 20378.01
512.1709, 20332.94
512.6530, 20333.65
513.1351, 20376.46
513.6172, 20418.16
514.0994, 20422.43
514.5815, 20406.55
515.0636, 20395.28
515.5457, 20392.74
516.0278, 20393.61
516.5099, 20388.66
516.9921, 20385.10
517.4742, 20396.08
517.9563, 20459.96
518.4384, 20510.63
518.9205, 20509.97
519.4026, 20453.24
519.8848, 20413.97
520.3669, 20405.35
520.8490, 20420.26
521.3311, 20453.94
521.8132, 20520.10
522.2953, 20585.02
522.7775, 20649.37
523.2596, 20711.13
523.7417, 20758.69
524.2238, 20782.77
524.7059, 20819.34
525.1880, 20890.84
525.6702, 20995.33
526.1523, 21086.79
526.6344, 21163.50
527.1165, 21227.54
527.5986, 21269.10
528.0807, 21295.67
528.5629, 21343.73
529.0450, 21457.88
529.5271, 21563.57
530.0092, 21550.91
530.4913, 21436.42
530.9734, 21296.40
531.4556, 21163.93
531.9377, 21036.38
532.4198, 20909.04
532.9019, 20778.08
533.3840, 20663.84
533.8661, 20572.39
534.3483, 20504.47
534.8304, 20461.07
535.3125, 20455.34
535.7946, 20459.75
536.2767, 20469.88
536.7589, 20485.07
537.2410, 20502.93
537.7231, 20525.73
538.2052, 20546.60
538.6873, 20560.45
539.1694, 20565.25
539.6516, 20569.85
540.1337, 20575.81
540.6158, 20579.30
541.0979, 20577.65
541.5800, 20570.70
542.0621, 20546.30
542.5443, 20490.24
543.0264, 20416.26
543.5085, 20351.74
543.9906, 20296.84
544.4727, 20257.12
544.9548, 20244.37
545.4370, 20247.72
545.9191, 20260.34
546.4012, 20272.71
546.8833, 20278.77
547.3654, 20278.88
547.8475, 20255.18
548.3297, 20262.22
548.8118, 20256.94
549.2939, 20251.16
549.7760, 20262.53
550.2581, 20242.29
550.7402, 20253.38
551.2224, 20251.97
551.7045, 20256.29
552.1866, 20248.20
552.6687, 20243.95
553.1508, 20252.09
553.6329, 20253.38
554.1151, 20243.87
554.5972, 20248.54
555.0793, 20227.87
555.5614, 20229.44
556.0435, 20240.61
556.5256, 20231.73
557.0078, 20236.63
557.4899, 20236.28
557.9720, 20212.06
558.4541, 20229.36
558.9362, 20188.11
559.4183, 20186.97
559.9005, 20202.69
560.3826, 20230.17
560.8647, 20275.96
561.3468, 20332.52
561.8289, 20377.08
562.3110, 20389.74
562.7932, 20398.27
563.2753, 20410.26
563.7574, 20420.82
564.2395, 20460.15
564.7216, 20553.65
565.2037, 20659.72
565.6859, 20734.77
566.1680, 20751.43
566.6501, 20807.66
567.1322, 20926.40
567.6143, 21085.67
568.0964, 21220.31
568.5786, 21326.05
569.0607, 21429.10
569.5428, 21533.06
570.0249, 21642.62
570.5070, 21780.30
570.9891, 21947.28
571.4713, 22116.71
571.9534, 22244.53
572.4355, 22358.69
572.9176, 22508.14
573.3997, 22729.12
573.8818, 22960.20
574.3640, 23162.07
574.8461, 23343.49
575.3282, 23535.01
575.8103, 23771.41
576.2924, 23998.14
576.7745, 24201.53
577.2567, 24383.65
577.7388, 24510.99
578.2209, 24567.17
578.7030, 24584.73
579.1851, 24598.42
579.6672, 24632.47
580.1494, 24587.75
580.6315, 24437.74
581.1136, 24213.28
581.5957, 23998.58
582.0778, 23793.45
582.5599, 23569.72
583.0421, 23295.31
583.5242, 22990.91
584.0063, 22701.64
584.4884, 22426.31
584.9705, 22188.10
585.4526, 22022.99
585.9348, 21895.37
586.4169, 21752.86
586.8990, 21562.27
587.3811, 21387.48
587.8632, 21265.99
588.3453, 21183.05
588.8275, 21106.99
589.3096, 21030.76
589.7917, 20960.18
590.2738, 20894.66
590.7559, 20833.18
591.2380, 20795.56
591.7202, 20800.66
592.2023, 20806.15
592.6844, 20775.28
593.1665, 20700.08
593.6486, 20648.95
594.1307, 20632.50
594.6129, 20634.10
595.0950, 20625.92
595.5771, 20609.69
596.0592, 20597.78
596.5413, 20592.21
597.0234, 20595.82
597.5056, 20611.57
597.9877, 20639.41
598.4698, 20681.06
598.9519, 20757.52
599.4340, 20836.32
599.9161, 20881.80
600.3983, 20866.48
600.8804, 20873.72
601.3625, 20950.46
601.8446, 21056.23
602.3267, 21135.82
602.8088, 21173.59
603.2910, 21201.52
603.7731, 21217.07
604.2552, 21225.46
604.7373, 21259.27
605.2194, 21327.71
605.7015, 21392.88
606.1837, 21439.36
606.6658, 21466.58
607.1479, 21454.63
607.6300, 21399.01
608.1121, 21330.68
608.5942, 21280.32
609.0764, 21243.91
609.5585, 21212.90
610.0406, 21176.84
610.5227, 21156.39
611.0048, 21178.44
611.4869, 21230.12
611.9691, 21276.68
612.4512, 21289.29
612.9333, 21306.12
613.4154, 21344.62
613.8975, 21408.04
614.3796, 21475.67
614.8618, 21518.71
615.3439, 21589.04
615.8260, 21735.77
616.3081, 21989.03
616.7902, 22204.50
617.2723, 22363.28
617.7545, 22494.43
618.2366, 22650.25
618.7187, 22831.16
619.2008, 23016.51
619.6829, 23205.01
620.1650, 23388.06
620.6472, 23566.84
621.1293, 23737.15
621.6114, 23871.08
622.0935, 23957.32
622.5756, 23994.71
623.0577, 23973.66
623.5399, 23878.21
624.0220, 23777.26
624.5041, 23725.03
624.9862, 23666.54
625.4683, 23536.41
625.9504, 23269.93
626.4326, 23011.49
626.9147, 22772.75
627.3968, 22552.66
627.8789, 22341.06
628.3610, 22131.10
628.8431, 21963.93
629.3253, 21879.32
629.8074, 21861.14
630.2895, 21798.30
630.7716, 21688.56
631.2537, 21574.50
631.7358, 21492.61
632.2180, 21433.94
632.7001, 21385.02
633.1822, 21345.39
633.6643, 21308.10
634.1464, 21259.38
634.6285, 21210.60
635.1107, 21180.99
635.5928, 21185.72
636.0749, 21200.01
636.5570, 21222.86
637.0391, 21251.65
637.5212, 21265.54
638.0034, 21257.39
638.4855, 21244.53
638.9676, 21233.39
639.4497, 21223.39
639.9318, 21219.38
640.4139, 21220.89
640.8961, 21229.71
641.3782, 21259.81
641.8603, 21301.42
642.3424, 21311.23
642.8245, 21262.42
643.3066, 21210.47
643.7888, 21222.46
644.2709, 21277.41
644.7530, 21325.50
645.2351, 21338.98
645.7172, 21344.86
646.1993, 21356.83
646.6815, 21375.72
647.1636, 21390.92
647.6457, 21384.08
648.1278, 21389.79
648.6099, 21426.99
649.0920, 21506.01
649.5742, 21582.68
650.0563, 21654.21
650.5384, 21727.99
651.0205, 21809.14
651.5026, 21896.91
651.9847, 22004.31
652.4669, 22142.06
652.9490, 22284.68
653.4311, 22383.55
653.9132, 22452.12
654.3953, 22540.27
654.8774, 22688.37
655.3596, 22854.75
655.8417, 23011.95
656.3238, 23157.81
656.8059, 23304.76
657.2880, 23444.53
657.7701, 23593.63
658.2523, 23765.60
658.7344, 23985.90
659.2165, 24172.66
659.6986, 24312.20
660.1807, 24437.47
660.6628, 24589.46
661.1450, 24770.57
661.6271, 24960.07
662.1093, 25165.78
662.5914, 25365.74
663.0735, 25526.23
663.5556, 25646.23
664.0377, 25725.28
664.5198, 25749.09
665.0020, 25741.49
665.4841, 25731.48
665.9662, 25717.84
666.4483, 25662.93
666.9304, 25555.61
667.4125, 25397.54
667.8947, 25179.10
668.3768, 24831.96
668.8589, 24568.93
669.3410, 24440.10
669.8231, 24347.21
670.3052, 24165.08
670.7874, 23871.62
671.2695, 23623.43
671.7516, 23460.34
672.2337, 23339.46
672.7158, 23170.39
673.1979, 22961.63
673.6801, 22767.89
674.1622, 22629.87
674.6443, 22514.22
675.1264, 22370.19
675.6085, 22203.68
676.0906, 22067.34
676.5728, 22028.15
677.0549, 21999.20
677.5370, 21918.98
678.0191, 21748.28
678.5012, 21621.94
678.9833, 21567.74
679.4655, 21538.66
679.9476, 21488.17
680.4297, 21409.15
680.9118, 21344.92
681.3939, 21303.19
681.8760, 21275.91
682.3582, 21244.40
682.8403, 21212.06
683.3224, 21195.26
683.8045, 21214.95
684.2866, 21244.38
684.7687, 21249.41
685.2509, 21234.64
685.7330, 21221.63
686.2151, 21226.70
686.6972, 21231.48
687.1793, 21219.38
687.6614, 21180.22
688.1436, 21167.02
688.6257, 21196.09
689.1078, 21236.60
689.5899, 21266.21
690.0720, 21281.69
690.5541, 21298.80
691.0363, 21317.05
691.5184, 21340.60
692.0005, 21383.99
692.4826, 21441.47
692.9647, 21480.35
693.4468, 21480.73
693.9290, 21471.68
694.4111, 21485.04
694.8932, 21515.66
695.3753, 21548.84
695.8574, 21565.56
696.3395, 21593.91
696.8217, 21654.38
697.3038, 21748.90
697.7859, 21826.09
698.2680, 21851.02
698.7501, 21897.38
699.2322, 22011.79
699.7144, 22209.13
700.1965, 22383.39
700.6786, 22534.03
701.1607, 22663.54
701.6428, 22751.29
702.1249, 22816.64
702.6071, 22935.17
703.0892, 23134.03
703.5713, 23361.79
704.0534, 23572.52
704.5355, 23778.10
705.0176, 24000.49
705.4998, 24238.04
705.9819, 24501.59
706.4640, 24808.80
706.9461, 25151.02
707.4282, 25479.97
707.9103, 25774.91
708.3925, 26089.95
708.8746, 26449.33
709.3567, 26849.82
709.8388, 27258.96
710.3209, 27680.63
710.8030, 28096.21
711.2852, 28473.74
711.7673, 28833.48
712.2494, 29230.59
712.7315, 29682.70
713.2136, 30099.15
713.6957, 30426.98
714.1779, 30686.78
714.6600, 30899.36
715.1421, 31113.33
715.6242, 31221.67
716.1063, 31204.85
716.5884, 31065.62
717.0706, 30790.71
717.5527, 30341.52
718.0348, 29861.45
718.5169, 29393.79
718.9990, 28912.47
719.4811, 28331.59
719.9633, 27653.34
720.4454, 26996.32
720.9275, 26414.68
721.4096, 25899.49
721.8917, 25446.29
722.3738, 25054.69
722.8560, 24676.36
723.3381, 24268.15
723.8202, 23881.94
724.3023, 23557.02
724.7844, 23313.98
725.2665, 23091.35
725.7487, 22875.56
726.2308, 22690.87
726.7129, 22568.62
727.1950, 22526.22
727.6771, 22435.70
728.1592, 22271.39
728.6414, 22088.24
729.1235, 21962.60
729.6056, 21885.45
730.0877, 21829.70
730.5698, 21794.28
731.0519, 21766.53
731.5341, 21734.31
732.0162, 21701.06
732.4983, 21676.45
732.9804, 21682.20
733.4625, 21677.66
733.9446, 21648.49
734.4268, 21596.93
734.9089, 21532.29
735.3910, 21446.91
735.8731, 21363.50
736.3552, 21283.30
736.8373, 21211.10
737.3195, 21194.51
737.8016, 21235.81
738.2837, 21288.36
738.7658, 21318.65
739.2479, 21334.04
739.7300, 21345.19
740.2122, 21354.17
740.6943, 21356.47
741.1764, 21349.92
741.6585, 21335.32
742.1406, 21313.33
742.6227, 21263.41
743.1049, 21234.27
743.5870, 21226.13
744.0691, 21238.53
744.5512, 21274.70
745.0333, 21336.22
745.5154, 21403.68
745.9976, 21481.63
746.4797, 21547.70
746.9618, 21545.84
747.4439, 21492.90
747.9260, 21453.04
748.4081, 21471.79
748.8903, 21501.86
749.3724, 21510.97
749.8545, 21502.11
750.3366, 21497.76
750.8187, 21491.82
751.3008, 21504.79
751.7830, 21552.21
752.2651, 21636.87
752.7472, 21692.69
753.2293, 21718.77
753.7114, 21722.20
754.1935, 21690.69
754.6757, 21638.38
755.1578, 21635.93
755.6399, 21692.09
756.1220, 21742.25
756.6041, 21719.70
757.0862, 21666.96
757.5684, 21633.95
758.0505, 21641.91
758.5326, 21647.43
759.0147, 21647.43
759.4968, 21633.63
759.9789, 21592.65
760.4611, 21503.26
760.9432, 21440.32
761.4253, 21420.11
761.9074, 21420.48
762.3895, 21394.72
762.8716, 21346.56
763.3538, 21316.07
763.8359, 21331.81
764.3180, 21355.14
764.8001, 21335.57
765.2822, 21285.55
765.7643, 21241.58
766.2465, 21218.47
766.7286, 21206.28
767.2107, 21206.75
767.6928, 21218.59
768.1749, 21221.74
768.6570, 21215.91
769.1392, 21203.41
769.6213, 21183.20
770.1034, 21156.30
770.5855, 21126.28
771.0676, 21092.24
771.5497, 21080.08
772.0319, 21134.59
772.5140, 21213.17
772.9961, 21249.35
773.4782, 21232.20
773.9603, 21215.55
774.4424, 21233.46
774.9246, 21258.38
775.4067, 21265.06
775.8888, 21221.79
776.3709, 21226.17
776.8530, 21304.36
777.3351, 21397.44
777.8173, 21433.74
778.2994, 21413.16
778.7815, 21397.95
779.2636, 21394.98
779.7457, 21408.49
780.2278, 21460.30
780.7100, 21530.36
781.1921, 21578.11
781.6742, 21566.31
782.1563, 21556.54
782.6384, 21576.95
783.1205, 21618.93
783.6027, 21664.68
784.0848, 21723.31
784.5669, 21766.82
785.0490, 21779.94
785.5311, 21778.12
786.0132, 21822.23
786.4954, 21913.70
786.9775, 21984.29
787.4596, 21981.41
787.9417, 21952.49
788.4238, 21974.87
788.9059, 22041.55
789.3881, 22114.70
789.8702, 22179.73
790.3523, 22242.87
790.8344, 22311.66
791.3165, 22387.89
791.7986, 22439.98
792.2808, 22436.63
792.7629, 22456.79
793.2450, 22551.49
793.7271, 22718.82
794.2092, 22869.72
794.6913, 23003.56
795.1735, 23114.38
795.6556, 23168.96
796.1377, 23205.40
796.6198, 23287.92
797.1019, 23430.50
797.5840, 23569.45
798.0662, 23668.40
798.5483, 23753.18
799.0304, 23846.47
799.5125, 23954.04
799.9946, 24063.40
800.4767, 24183.48
800.9589, 24296.33
801.4410, 24375.12
801.9231, 24423.46
802.4052, 24487.47
802.8873, 24577.05
803.3694, 24677.10
803.8516, 24777.27
804.3337, 24875.20
804.8158, 24965.39
805.2979, 25046.62
805.7800, 25117.39
806.2621, 25165.31
806.7443, 25204.16
807.2264, 25262.65
807.7085, 25360.65
808.1906, 25430.68
808.6727, 25463.82
809.1548, 25457.73
809.6370, 25391.55
810.1191, 25273.27
810.6012, 25164.52
811.0833, 25092.66
811.5654, 25038.98
812.0475, 25000.41
812.5297, 24965.90
813.0118, 24904.67
813.4939, 24767.35
813.9760, 24643.50
814.4581, 24568.38
814.9402, 24532.00
815.4224, 24492.79
815.9045, 24453.51
816.3866, 24401.18
816.8687, 24322.08
817.3508, 24229.44
817.8329, 24159.55
818.3151, 24112.74
818.7972, 24087.87
819.2793, 24101.63
819.7614, 24123.74
820.2435, 24115.16
820.7256, 24077.22
821.2078, 24090.80
821.6899, 24258.06
822.1720, 24391.09
822.6541, 24401.53
823.1362, 24286.43
823.6183, 24236.83
824.1005, 24258.57
824.5826, 24305.15
825.0647, 24361.01
825.5469, 24411.92
826.0290, 24421.06
826.5111, 24386.76
826.9932, 24348.82
827.4753, 24337.31
827.9575, 24328.03
828.4396, 24303.07
828.9217, 24255.72
829.4038, 24209.10
829.8859, 24171.94
830.3680, 24122.93
830.8502, 24035.97
831.3323, 23913.47
831.8144, 23818.24
832.2965, 23757.77
832.7786, 23697.66
833.2607, 23591.96
833.7429, 23471.27
834.2250, 23385.37
834.7071, 23359.69
835.1892, 23304.18
835.6713, 23154.05
836.1534, 22979.90
836.6356, 22844.17
837.1177, 22757.88
837.5998, 22683.96
838.0819, 22629.46
838.5640, 22570.11
839.0461, 22464.87
839.5283, 22327.37
840.0104, 22215.54
840.4925, 22141.60
840.9746, 22086.63
841.4567, 22035.68
841.9388, 21995.19
842.4210, 21972.85
842.9031, 22002.72
843.3852, 22002.56
843.8673, 21949.85
844.3494, 21880.94
844.8315, 21843.35
845.3137, 21839.24
845.7958, 21833.36
846.2779, 21816.37
846.7600, 21806.91
847.2421, 21850.01
847.7242, 21915.49
848.2064, 21942.67
848.6885, 21889.39
849.1706, 21830.30
849.6527, 21788.89
850.1348, 21762.72
850.6169, 21748.51
851.0991, 21754.02
851.5812, 21749.58
852.0633, 21724.37
852.5454, 21697.59
853.0275, 21708.66
853.5096, 21750.50
853.9918, 21788.54
854.4739, 21816.82
854.9560, 21828.81
855.4381, 21816.89
855.9202, 21785.96
856.4023, 21744.38
856.8845, 21660.36
857.3666, 21612.57
857.8487, 21629.91
858.3308, 21678.41
858.8129, 21696.33
859.2950, 21683.72
859.7772, 21636.57
860.2593, 21531.33
860.7414, 21432.98
861.2235, 21474.22
861.7056, 21598.81
862.1877, 21675.36
862.6699, 21602.31
863.1520, 21525.35
863.6341, 21499.19
864.1162, 21508.19
864.5983, 21513.25
865.0804, 21508.69
865.5626, 21517.32
866.0447, 21551.92
866.5268, 21591.50
867.0089, 21582.24
867.4910, 21536.33
867.9731, 21509.29
868.4553, 21528.32
868.9374, 21565.01
869.4195, 21614.23
869.9016, 21662.67
870.3837, 21682.73
870.8658, 21617.36
871.3480, 21590.81
871.8301, 21640.42
872.3122, 21724.78
872.7943, 21743.98
873.2764, 21697.56
873.7585, 21658.32
874.2407, 21654.54
874.7228, 21660.13
875.2049, 21634.31
875.6870, 21593.18
876.1691, 21571.18
876.6512, 21599.59
877.1334, 21628.66
877.6155, 21650.56
878.0976, 21662.69
878.5797, 21657.58
879.0618, 21633.91
879.5439, 21598.94
880.0261, 21546.10
880.5082, 21497.80
880.9903, 21504.76
881.4724, 21549.66
881.9545, 21583.04
882.4366, 21576.90
882.9188, 21563.80
883.4009, 21556.76
883.8830, 21554.28
884.3651, 21551.66
884.8472, 21535.74
885.3293, 21547.52
885.8115, 21604.27
886.2936, 21676.03
886.7757, 21704.66
887.2578, 21695.41
887.7399, 21676.02
888.2220, 21645.01
888.7042, 21624.87
889.1863, 21650.71
889.6684, 21695.84
890.1505, 21716.09
890.6326, 21672.06
891.1147, 21642.14
891.5969, 21641.76
892.0790, 21652.71
892.5611, 21639.57
893.0432, 21603.41
893.5253, 21581.98
894.0074, 21583.56
894.4896, 21604.01
894.9717, 21656.89
895.4538, 21721.04
895.9359, 21760.27
896.4180, 21747.68
896.9001, 21731.47
897.3823, 21715.78
897.8644, 21705.09
898.3465, 21704.00
898.8286, 21711.68
899.3107, 21736.64
899.7928, 21784.43
900.2750, 21836.18
900.7571, 21872.26
901.2392, 21893.11
901.7213, 21896.04
902.2034, 21866.54
902.6855, 21851.95
903.1677, 21894.42
903.6498, 21949.86
904.1319, 21967.26
904.6140, 21930.52
905.0961, 21905.37
905.5782, 21895.83
906.0604, 21896.96
906.5425, 21911.23
907.0246, 21931.36
907.5067, 21936.12
907.9888, 21920.14
908.4709, 21899.69
908.9531, 21867.47
909.4352, 21846.13
909.9173, 21860.04
910.3994, 21928.93
910.8815, 21980.59
911.3636, 22009.39
911.8458, 22031.87
912.3279, 22068.78
912.8100, 22112.70
913.2921, 22128.28
913.7742, 22111.58
914.2563, 22090.29
914.7385, 22079.33
915.2206, 22076.57
915.7027, 22082.00
916.1848, 22098.42
916.6669, 22111.31
917.1490, 22124.44
917.6312, 22127.72
918.1133, 22102.28
918.5954, 22054.91
919.0775, 22063.90
919.5596, 22128.37
920.0417, 22190.22
920.5239, 22213.66
921.0060, 22210.06
921.4881, 22173.77
921.9702, 22105.41
922.4523, 22073.93
922.9344, 22101.56
923.4166, 22148.65
923.8987, 22210.78
924.3808, 22280.21
924.8629, 22300.20
925.3450, 22272.95
925.8271, 22252.22
926.3093, 22279.32
926.7914, 22321.37
927.2735, 22351.41
927.7556, 22369.39
928.2377, 22378.67
928.7198, 22375.10
929.2020, 22367.91
929.6841, 22357.21
930.1662, 22345.11
930.6483, 22336.38
931.1304, 22331.31
931.6125, 22339.00
932.0947, 22371.01
932.5768, 22408.28
933.0589, 22437.83
933.5410, 22456.23
934.0231, 22455.17
934.5052, 22392.30
934.9874, 22363.50
935.4695, 22403.62
935.9516, 22472.01
936.4337, 22486.10
936.9158, 22444.79
937.3979, 22429.82
937.8801, 22466.34
938.3622, 22516.85
938.8443, 22533.98
939.3264, 22536.72
939.8085, 22556.07
940.2906, 22628.06
940.7728, 22668.56
941.2549, 22643.15
941.7370, 22600.83
942.2191, 22592.29
942.7012, 22619.44
943.1833, 22642.13
943.6655, 22657.69
944.1476, 22664.21
944.6297, 22648.90
945.1118, 22628.52
945.5939, 22625.71
946.0760, 22646.80
946.5582, 22672.36
947.0403, 22698.91
947.5224, 22727.40
948.0045, 22757.64
948.4866, 22789.14
948.9688, 22832.11
949.4509, 22887.31
949.9330, 22928.38
950.4151, 22922.21
950.8972, 22898.54
951.3793, 22888.60
951.8615, 22894.41
952.3436, 22912.01
952.8257, 22949.54
953.3078, 22989.99
953.7899, 23033.28
954.2720, 23075.55
954.7542, 23083.33
955.2363, 23056.87
955.7184, 23045.97
956.2005, 23090.91
956.6826, 23151.77
957.1647, 23187.23
957.6469, 23202.59
958.1290, 23213.37
958.6111, 23216.37
959.0932, 23225.44
959.5753, 23250.64
960.0574, 23277.68
960.5396, 23268.80
961.0217, 23227.00
961.5038, 23200.76
961.9859, 23207.22
962.4680, 23224.81
962.9501, 23228.07
963.4323, 23229.94
963.9144, 23248.97
964.3965, 23305.11
964.8786, 23355.16
965.3607, 23392.64
965.8428, 23429.11
966.3250, 23485.30
966.8071, 23557.17
967.2892, 23584.69
967.7713, 23556.40
968.2534, 23547.71
968.7355, 23656.02
969.2177, 23792.02
969.6998, 23864.24
970.1819, 23845.81
970.6640, 23851.02
971.1461, 23891.21
971.6282, 23948.25
972.1104, 24019.43
972.5925, 24100.28
973.0746, 24163.60
973.5567, 24210.96
974.0388, 24251.47
974.5209, 24286.49
975.0031, 24321.25
975.4852, 24356.51
975.9673, 24393.59
976.4494, 24439.12
976.9315, 24500.79
977.4136, 24553.30
977.8958, 24592.18
978.3779, 24613.80
978.8600, 24597.38
979.3421, 24555.12
979.8242, 24532.40
980.3063, 24573.74
980.7885, 24598.41
981.2706, 24538.40
981.7527, 24445.82
982.2348, 24403.40
982.7169, 24437.75
983.1990, 24447.40
983.6812, 24420.69
984.1633, 24381.49
984.6454, 24364.44
985.1275, 24355.18
985.6096, 24319.01
986.0917, 24246.02
986.5739, 24176.10
987.0560, 24123.02
987.5381, 24082.95
988.0202, 24053.31
988.5023, 24034.45
988.9844, 24012.21
989.4666, 23983.16
989.9487, 23973.57
990.4308, 24027.20
990.9130, 24096.05
991.3951, 24105.09
991.8772, 24061.85
992.3593, 24018.98
992.8414, 23990.77
993.3235, 23971.21
993.8057, 23959.27
994.2878, 23953.73
994.7699, 23952.91
995.2520, 23956.86
995.7341, 23958.94
996.2162, 23956.93
996.6984, 23954.00
997.1805, 23967.77
997.6626, 23979.52
998.1447, 23959.05
998.6268, 23842.06
999.1089, 23780.95
999.5911, 23800.11
1000.073, 23848.99
1000.555, 23864.13
1001.037, 23856.44
1001.520, 23907.80
1002.002, 24031.30
1002.484, 24130.43
1002.966, 24110.60
1003.448, 24054.33
1003.930, 24021.80
1004.412, 24018.71
1004.894, 24041.04
1005.376, 24102.52
1005.859, 24149.82
1006.341, 24144.63
1006.823, 24111.56
1007.305, 24116.40
1007.787, 24151.15
1008.269, 24181.28
1008.751, 24185.66
1009.233, 24187.88
1009.716, 24199.83
1010.198, 24216.13
1010.680, 24230.42
1011.162, 24246.20
1011.644, 24227.77
1012.126, 24156.13
1012.608, 24083.90
1013.090, 24083.76
1013.572, 24123.34
1014.055, 24155.39
1014.537, 24165.95
1015.019, 24176.06
1015.501, 24194.46
1015.983, 24207.91
1016.465, 24202.08
1016.947, 24178.59
1017.429, 24176.98
1017.911, 24197.36
1018.394, 24211.27
1018.876, 24178.54
1019.358, 24147.95
1019.840, 24172.63
1020.322, 24245.98
1020.804, 24276.26
1021.286, 24228.47
1021.768, 24214.81
1022.251, 24283.22
1022.733, 24385.48
1023.215, 24423.06
1023.697, 24406.83
1024.179, 24366.66
1024.661, 24280.03
1025.143, 24225.94
1025.625, 24264.04
1026.107, 24338.73
1026.590, 24388.25
1027.072, 24411.03
1027.554, 24407.63
1028.036, 24372.35
1028.518, 24348.71
1029.000, 24400.64
1029.482, 24476.42
1029.964, 24504.74
1030.447, 24478.18
1030.929, 24457.16
1031.411, 24445.39
1031.893, 24458.28
1032.375, 24515.12
1032.857, 24597.44
1033.339, 24619.54
1033.821, 24589.24
1034.303, 24565.61
1034.786, 24579.19
1035.268, 24604.56
1035.750, 24632.15
1036.232, 24657.08
1036.714, 24668.43
1037.196, 24655.69
1037.678, 24656.89
1038.160, 24677.05
1038.642, 24705.04
1039.125, 24732.54
1039.607, 24756.42
1040.089, 24770.18
1040.571, 24773.21
1041.053, 24766.93
1041.535, 24759.90
1042.017, 24734.77
1042.499, 24670.32
1042.982, 24576.49
1043.464, 24540.55
1043.946, 24562.64
1044.428, 24612.48
1044.910, 24702.37
1045.392, 24787.12
1045.874, 24834.76
1046.356, 24844.77
1046.839, 24812.26
1047.321, 24671.17
1047.803, 24622.56
1048.285, 24718.46
1048.767, 24847.97
1049.249, 24846.66
1049.731, 24759.87
1050.213, 24719.90
1050.695, 24751.34
1051.177, 24791.93
1051.660, 24814.13
1052.142, 24832.71
1052.624, 24861.19
1053.106, 24899.34
1053.588, 24909.60
1054.070, 24890.79
1054.552, 24878.72
1055.034, 24892.73
1055.517, 24924.30
1055.999, 24980.76
1056.481, 25046.26
1056.963, 25080.09
1057.445, 25045.49
1057.927, 25016.74
1058.409, 24994.77
1058.891, 24989.40
1059.374, 25023.76
1059.856, 25086.29
1060.338, 25145.97
1060.820, 25200.26
1061.302, 25224.18
1061.784, 25171.31
1062.266, 25112.07
1062.748, 25092.13
1063.230, 25111.47
1063.713, 25145.94
1064.195, 25198.02
1064.677, 25243.53
1065.159, 25262.80
1065.641, 25276.03
1066.123, 25312.91
1066.605, 25361.10
1067.087, 25392.09
1067.569, 25362.39
1068.052, 25388.84
1068.534, 25408.97
1069.016, 25423.14
1069.498, 25413.51
1069.980, 25434.61
1070.462, 25443.40
1070.944, 25451.68
1071.426, 25477.11
1071.909, 25470.96
1072.391, 25496.12
1072.873, 25508.77
1073.355, 25527.15
1073.837, 25533.13
1074.319, 25542.94
1074.801, 25565.15
1075.283, 25580.49
1075.766, 25585.07
1076.248, 25603.81
1076.730, 25597.21
1077.212, 25612.84
1077.694, 25638.07
1078.176, 25643.25
1078.658, 25642.34
1079.140, 25621.84
1079.622, 25595.19
1080.105, 25571.87
1080.587, 25585.64
1081.069, 25638.55
1081.551, 25684.60
1082.033, 25696.25
1082.515, 25701.73
1082.997, 25717.89
1083.479, 25740.13
1083.962, 25740.46
1084.444, 25720.92
1084.926, 25715.58
1085.408, 25744.12
1085.890, 25779.13
1086.372, 25789.75
1086.854, 25793.57
1087.336, 25817.04
1087.818, 25879.37
1088.301, 25917.42
1088.783, 25925.34
1089.265, 25923.90
1089.747, 25923.52
1090.229, 25928.30
1090.711, 25955.17
1091.193, 25999.44
1091.675, 26025.49
1092.157, 25971.46
1092.640, 25961.95
1093.122, 26053.33
1093.604, 26190.27
1094.086, 26243.04
1094.568, 26222.14
1095.050, 26188.36
1095.532, 26151.27
1096.014, 26125.51
1096.497, 26121.14
1096.979, 26133.38
1097.461, 26161.24
1097.943, 26207.60
1098.425, 26238.81
1098.907, 26253.35
1099.389, 26267.55
1099.871, 26305.25
1100.354, 26338.52
1100.836, 26327.44
1101.318, 26283.65
1101.800, 26242.39
1102.282, 26205.55
1102.764, 26182.50
1103.246, 26176.31
1103.728, 26181.00
1104.210, 26190.78
1104.693, 26204.86
1105.175, 26222.04
1105.657, 26242.29
1106.139, 26263.55
1106.621, 26284.50
1107.103, 26307.88
1107.585, 26339.73
1108.067, 26375.41
1108.549, 26381.04
1109.032, 26360.47
1109.514, 26360.73
1109.996, 26421.70
1110.478, 26478.15
1110.960, 26466.22
1111.442, 26427.34
1111.924, 26419.77
1112.406, 26455.44
1112.889, 26487.32
1113.371, 26512.86
1113.853, 26540.64
1114.335, 26585.42
1114.817, 26631.05
1115.299, 26657.13
1115.781, 26663.34
1116.263, 26655.25
1116.745, 26610.52
1117.228, 26593.76
1117.710, 26622.97
1118.192, 26678.92
1118.674, 26738.21
1119.156, 26794.74
1119.638, 26834.26
1120.120, 26855.79
1120.602, 26851.42
1121.084, 26777.66
1121.567, 26717.15
1122.049, 26722.49
1122.531, 26785.57
1123.013, 26829.03
1123.495, 26854.47
1123.977, 26876.52
1124.459, 26904.46
1124.941, 26930.19
1125.424, 26959.24
1125.906, 26977.66
1126.388, 26957.28
1126.870, 26881.46
1127.352, 26851.98
1127.834, 26881.13
1128.316, 26923.87
1128.798, 26936.52
1129.281, 26943.16
1129.763, 26985.35
1130.245, 27059.16
1130.727, 27064.68
1131.209, 26940.34
1131.691, 26888.82
1132.173, 26988.81
1132.655, 27143.55
1133.137, 27183.51
1133.620, 27155.42
1134.102, 27154.40
1134.584, 27216.79
1135.066, 27261.58
1135.548, 27255.20
1136.030, 27249.25
1136.512, 27275.56
1136.994, 27327.43
1137.476, 27380.73
1137.959, 27430.92
1138.441, 27457.38
1138.923, 27443.03
1139.405, 27409.88
1139.887, 27335.72
1140.369, 27266.36
1140.851, 27267.70
1141.333, 27341.28
1141.816, 27404.81
1142.298, 27451.97
1142.780, 27487.67
1143.262, 27518.35
1143.744, 27538.06
1144.226, 27542.21
1144.708, 27530.98
1145.190, 27498.22
1145.672, 27432.44
1146.155, 27422.50
1146.637, 27509.67
1147.119, 27615.88
1147.601, 27645.55
1148.083, 27638.55
1148.565, 27646.99
1149.047, 27686.11
1149.529, 27715.72
1150.011, 27731.10
1150.494, 27747.57
1150.976, 27784.29
1151.458, 27820.74
1151.940, 27794.91
1152.422, 27735.63
1152.904, 27720.68
1153.386, 27857.55
1153.868, 27921.06
1154.351, 27860.70
1154.833, 27768.22
1155.315, 27738.33
1155.797, 27757.76
1156.279, 27786.87
1156.761, 27822.45
1157.243, 27859.05
1157.725, 27895.14
1158.208, 27929.27
1158.690, 27961.79
1159.172, 27990.63
1159.654, 28012.25
1160.136, 28026.04
1160.618, 28028.03
1161.100, 28014.39
1161.582, 28003.82
1162.064, 28000.95
1162.547, 28013.46
1163.029, 28054.43
1163.511, 28120.39
1163.993, 28152.64
1164.475, 28152.45
1164.957, 28148.46
1165.439, 28146.46
1165.921, 28157.28
1166.403, 28221.02
1166.886, 28288.54
1167.368, 28282.32
1167.850, 28165.07
1168.332, 28116.46
1168.814, 28142.70
1169.296, 28189.38
1169.778, 28212.07
1170.260, 28236.92
1170.743, 28310.63
1171.225, 28411.50
1171.707, 28452.34
1172.189, 28387.79
1172.671, 28383.23
1173.153, 28476.26
1173.635, 28574.89
1174.117, 28551.17
1174.599, 28477.13
1175.082, 28454.97
1175.564, 28495.54
1176.046, 28548.59
1176.528, 28617.99
1177.010, 28674.78
1177.492, 28710.57
1177.974, 28730.75
1178.456, 28739.08
1178.938, 28741.94
1179.421, 28751.86
1179.903, 28773.12
1180.385, 28800.66
1180.867, 28846.47
1181.349, 28876.74
1181.831, 28859.78
1182.313, 28817.77
1182.795, 28831.03
1183.278, 28885.86
1183.760, 28937.37
1184.242, 28975.75
1184.724, 28993.69
1185.206, 28986.42
1185.688, 28961.69
1186.170, 28904.26
1186.652, 28830.51
1187.135, 28860.69
1187.617, 28985.33
1188.099, 29076.91
1188.581, 29027.04
1189.063, 28976.25
1189.545, 28975.52
1190.027, 29010.42
1190.509, 29069.53
1190.991, 29147.42
1191.474, 29193.40
1191.956, 29198.91
1192.438, 29198.96
1192.920, 29214.01
1193.402, 29232.32
1193.884, 29241.44
1194.366, 29247.69
1194.848, 29310.58
1195.330, 29340.29
1195.813, 29363.73
1196.295, 29381.19
1196.777, 29374.83
1197.259, 29399.22
1197.741, 29411.29
1198.223, 29422.86
1198.705, 29451.57
1199.187, 29448.69
1199.670, 29477.16
1200.152, 29493.10
1200.634, 29514.76
1201.116, 29524.02
1201.598, 29537.12
1202.080, 29562.61
1202.562, 29581.24
1203.044, 29589.07
1203.526, 29611.10
1204.009, 29607.81
1204.491, 29626.73
1204.973, 29655.24
1205.455, 29663.70
1205.937, 29685.96
1206.419, 29702.95
1206.901, 29696.09
1207.383, 29730.73
1207.865, 29747.41
1208.348, 29745.71
1208.830, 29778.92
1209.312, 29729.74
1209.794, 29739.92
1210.276, 29758.83
1210.758, 29786.78
1211.240, 29825.32
1211.722, 29883.01
1212.205, 29909.17
1212.687, 29888.92
1213.169, 29851.92
1213.651, 29812.26
1214.133, 29786.80
1214.615, 29802.56
1215.097, 29868.19
1215.579, 29907.87
1216.062, 29921.25
1216.544, 29908.55
1217.026, 29854.48
1217.508, 29805.42
1217.990, 29839.51
1218.472, 29907.46
1218.954, 29933.52
1219.436, 29877.80
1219.918, 29903.65
1220.401, 30029.84
1220.883, 30142.62
1221.365, 30170.04
1221.847, 30156.30
1222.329, 30145.80
1222.811, 30141.30
1223.293, 30148.28
1223.775, 30159.89
1224.257, 30208.47
1224.740, 30305.57
1225.222, 30390.40
1225.704, 30400.66
1226.186, 30380.45
1226.668, 30382.83
1227.150, 30403.03
1227.632, 30417.73
1228.114, 30407.96
1228.597, 30443.52
1229.079, 30542.24
1229.561, 30639.57
1230.043, 30664.68
1230.525, 30651.40
1231.007, 30633.08
1231.489, 30613.08
1231.971, 30597.25
1232.453, 30587.98
1232.936, 30571.26
1233.418, 30536.39
1233.900, 30521.37
1234.382, 30609.69
1234.864, 30723.08
1235.346, 30757.77
1235.828, 30699.54
1236.310, 30677.74
1236.792, 30705.54
1237.275, 30736.08
1237.757, 30754.42
1238.239, 30770.53
1238.721, 30794.94
1239.203, 30826.14
1239.685, 30866.66
1240.167, 30922.04
1240.650, 30949.12
1241.132, 30943.95
1241.614, 30926.88
1242.096, 30897.98
1242.578, 30874.95
1243.060, 30881.04
1243.542, 30906.89
1244.024, 30941.31
1244.506, 30988.32
1244.989, 31016.48
1245.471, 31021.88
1245.953, 31032.33
1246.435, 31075.13
1246.917, 31122.20
1247.399, 31142.15
1247.881, 31143.84
1248.363, 31145.52
1248.845, 31158.84
1249.328, 31122.45
1249.810, 31023.55
1250.292, 30972.39
1250.774, 31098.47
1251.256, 31271.77
1251.738, 31386.51
1252.220, 31445.52
1252.702, 31466.54
1253.185, 31441.70
1253.667, 31426.87
1254.149, 31426.49
1254.631, 31432.13
1255.113, 31436.27
1255.595, 31443.23
1256.077, 31466.42
1256.559, 31494.67
1257.042, 31490.78
1257.524, 31451.86
1258.006, 31401.60
1258.488, 31336.78
1258.970, 31323.31
1259.452, 31489.05
1259.934, 31666.50
1260.416, 31702.34
1260.898, 31639.68
1261.380, 31635.34
1261.863, 31689.06
1262.345, 31741.83
1262.827, 31783.63
1263.309, 31802.99
1263.791, 31774.57
1264.273, 31734.42
1264.755, 31697.04
1265.237, 31670.54
1265.720, 31710.14
1266.202, 31807.44
1266.684, 31877.54
1267.166, 31894.61
1267.648, 31886.55
1268.130, 31822.08
1268.612, 31786.91
1269.094, 31850.08
1269.577, 31986.28
1270.059, 32055.48
1270.541, 32064.52
1271.023, 32052.29
1271.505, 32018.20
1271.987, 31997.88
1272.469, 32015.97
1272.951, 32046.27
1273.433, 32076.05
1273.916, 32105.85
1274.398, 32143.42
1274.880, 32183.49
1275.362, 32204.50
1275.844, 32176.43
1276.326, 32168.86
1276.808, 32211.82
1277.290, 32257.03
1277.772, 32257.90
1278.255, 32234.38
1278.737, 32255.15
1279.219, 32309.76
1279.701, 32363.71
1280.183, 32394.50
1280.665, 32440.90
1281.147, 32516.85
1281.629, 32582.04
1282.112, 32581.99
1282.594, 32555.40
1283.076, 32587.40
1283.558, 32662.92
1284.040, 32720.80
1284.522, 32733.69
1285.004, 32753.87
1285.486, 32788.71
1285.969, 32819.88
1286.451, 32823.13
1286.933, 32817.34
1287.415, 32833.75
1287.897, 32864.71
1288.379, 32867.91
1288.861, 32823.10
1289.343, 32826.98
1289.825, 32899.31
1290.307, 32969.98
1290.790, 32958.79
1291.272, 32925.30
1291.754, 32926.05
1292.236, 32955.16
1292.718, 32969.84
1293.200, 32966.81
1293.682, 32977.84
1294.164, 33007.86
1294.647, 33044.34
1295.129, 33072.11
1295.611, 33105.64
1296.093, 33164.16
1296.575, 33234.04
1297.057, 33280.28
1297.539, 33304.78
1298.021, 33331.68
1298.504, 33365.71
1298.986, 33398.68
1299.468, 33439.38
1299.950, 33462.14
1300.432, 33448.66
1300.914, 33418.96
1301.396, 33421.08
1301.878, 33451.31
1302.360, 33502.44
1302.843, 33575.29
1303.325, 33612.05
1303.807, 33543.37
1304.289, 33488.37
1304.771, 33489.79
1305.253, 33518.15
1305.735, 33497.16
1306.217, 33445.79
##END=



