##NAMES=Microcline
##RRUFFID=R050193
##IDEAL CHEMISTRY=KAlSi_3_O_8_
##LOCALITY=Devil's Head, Douglas County, Colorado, USA
##OWNER=RRUFF
##SOURCE=Dave Bunk Minerals
##DESCRIPTION=White to colorless heterogeneous mixture of K and Na feldspar in a cluster of crystals. Crystal structure determined, presented below. This sample is known as an intermediate microcline in the literature.
##STATUS=The identification of this mineral has been confirmed by X-ray diffraction and chemical analysis
##URL=rruff.info/R050193
##MEASURED CHEMISTRY=(K_0.929_Na_0.071_)(Al_1.005_Si_2.994_Fe_0.001_)O_7.993_F_0.007_  ; Light Band :  (Na_0.973_K_0.007_Ca_0.020_)(Al_1.020_Si_2.980_)O_8_ ; Dark Band
##PIN_ID=L00937
##ORIENTATION=Laser parallel to (1 1 0). Fiducial mark perpendicular to laser is parallel to c [0 0 1]
62.16800, 7659.000
63.41100, 9017.000
64.65300, 10625.00
65.89600, 12099.00
67.13800, 13911.00
68.38000, 16085.00
69.62200, 18105.00
70.86300, 20255.00
72.10500, 22958.00
73.34600, 25711.00
74.58700, 28126.00
75.82800, 30611.00
77.06900, 32472.00
78.30900, 34587.00
79.55000, 36604.00
80.79000, 38575.00
82.03000, 40755.00
83.27000, 43017.00
84.51000, 44727.00
85.74900, 46098.00
86.98900, 48459.00
88.22800, 50019.00
89.46700, 52146.00
90.70600, 53995.00
91.94400, 56221.00
93.18300, 57840.00
94.42100, 59193.00
95.65900, 60896.00
96.89700, 62410.00
98.13500, 63958.00
99.37300, 65633.67
100.6100, 67292.00
101.8480, 68970.00
103.0850, 70815.00
104.3220, 72596.00
105.5590, 73869.00
106.7950, 75275.00
108.0320, 76913.00
109.2680, 77566.00
110.5040, 78264.00
111.7400, 79182.00
112.9760, 79504.00
114.2120, 79980.00
115.4470, 80143.00
116.6820, 79783.00
117.9170, 79410.00
119.1520, 79222.00
120.3870, 79279.00
121.6220, 79155.00
122.8560, 79488.00
124.0900, 79490.00
125.3240, 79314.00
126.5580, 79124.00
127.7920, 78339.00
129.0260, 77378.00
130.2590, 76545.00
131.4920, 75676.00
132.7250, 75004.00
133.9580, 75030.00
135.1910, 74060.00
136.4230, 74701.00
137.6560, 74529.00
138.8880, 74532.00
140.1200, 74847.00
141.3520, 75325.00
142.5830, 75558.00
143.8150, 76042.00
145.0460, 76538.00
146.2770, 77250.44
147.5080, 78454.00
148.7390, 79070.00
149.9700, 79975.00
151.2000, 81235.00
152.4310, 81868.00
153.6610, 82065.00
154.8910, 81824.00
156.1210, 81819.00
157.3500, 81078.00
158.5800, 80918.00
159.8090, 80732.00
161.0380, 80037.00
162.2670, 79943.76
163.4960, 79797.00
164.7240, 79279.00
165.9530, 78955.00
167.1810, 78388.00
168.4090, 78111.00
169.6370, 78465.00
170.8650, 78497.00
172.0920, 79140.00
173.3200, 78994.00
174.5470, 79406.00
175.7740, 79794.00
177.0010, 79982.00
178.2280, 80558.00
179.4540, 80826.00
180.6810, 81428.00
181.9070, 81550.00
183.1330, 81343.00
184.3590, 81303.00
185.5850, 81242.00
186.8100, 81075.00
188.0350, 81200.00
189.2610, 81005.08
190.4860, 80529.00
191.7110, 80852.00
192.9350, 80537.00
194.1600, 80655.00
195.3840, 80318.00
196.6080, 80753.00
197.8320, 81098.00
199.0560, 81506.00
200.2800, 81503.00
201.5030, 81974.00
202.7270, 81749.00
203.9500, 81992.00
205.1730, 81492.00
206.3950, 82296.00
207.6180, 82343.00
208.8410, 82444.00
210.0630, 82910.00
211.2850, 82588.00
212.5070, 81823.00
213.7290, 81400.00
214.9500, 80381.00
216.1720, 80513.00
217.3930, 80066.00
218.6140, 79595.00
219.8350, 79998.00
221.0560, 79563.00
222.2770, 79499.00
223.4970, 79341.00
224.7170, 79459.00
225.9370, 79634.00
227.1570, 79646.00
228.3770, 79784.99
229.5970, 79925.60
230.8160, 79981.00
232.0350, 80207.00
233.2540, 80337.00
234.4730, 80438.00
235.6920, 80891.00
236.9110, 80324.00
238.1290, 80951.00
239.3470, 81183.00
240.5650, 80771.00
241.7830, 82024.00
243.0010, 81369.00
244.2180, 81726.00
245.4360, 82205.00
246.6530, 82501.00
247.8700, 83023.00
249.0870, 83675.00
250.3040, 83815.42
251.5200, 83873.00
252.7370, 84898.00
253.9530, 85646.00
255.1690, 85881.91
256.3850, 87143.00
257.6000, 86795.00
258.8160, 87199.00
260.0310, 88090.00
261.2460, 88852.00
262.4610, 89496.00
263.6760, 90438.00
264.8910, 90927.00
266.1050, 91862.00
267.3200, 92424.00
268.5340, 92798.00
269.7480, 93424.00
270.9620, 93878.00
272.1750, 94107.00
273.3890, 94562.00
274.6020, 95418.95
275.8150, 96137.00
277.0280, 97501.00
278.2410, 98685.00
279.4540, 100157.0
280.6660, 101463.0
281.8790, 102301.0
283.0910, 103363.0
284.3030, 103832.0
285.5140, 103322.0
286.7260, 102761.0
287.9380, 102739.0
289.1490, 101786.0
290.3600, 101057.0
291.5710, 100436.0
292.7820, 99007.00
293.9920, 97460.00
295.2030, 95279.00
296.4130, 93630.00
297.6230, 91620.00
298.8330, 90071.00
300.0430, 89740.00
301.2520, 88682.00
302.4620, 87919.00
303.6710, 87488.00
304.8800, 87483.00
306.0890, 86693.00
307.2980, 86885.00
308.5070, 86270.00
309.7150, 86371.00
310.9230, 86386.00
312.1310, 86643.00
313.3390, 86465.00
314.5470, 86717.00
315.7550, 86389.00
316.9620, 86940.00
318.1690, 86707.00
319.3760, 86731.00
320.5830, 86801.00
321.7900, 86964.13
322.9960, 87194.00
324.2030, 87528.00
325.4090, 87701.91
326.6150, 87910.13
327.8210, 88090.00
329.0270, 88206.00
330.2320, 88246.73
331.4380, 88298.83
332.6430, 88293.00
333.8480, 88393.00
335.0530, 88418.00
336.2580, 88141.00
337.4620, 88163.00
338.6670, 87685.00
339.8710, 88109.00
341.0750, 88251.00
342.2790, 87574.00
343.4820, 87861.00
344.6860, 88052.00
345.8890, 88108.00
347.0920, 88250.00
348.2960, 88202.00
349.4980, 88660.00
350.7010, 88506.00
351.9040, 88833.00
353.1060, 88593.00
354.3080, 88652.00
355.5100, 89168.00
356.7120, 89394.00
357.9140, 89639.00
359.1150, 89591.00
360.3170, 90210.00
361.5180, 89700.00
362.7190, 90310.00
363.9200, 90648.00
365.1200, 91309.00
366.3210, 91697.83
367.5210, 92026.00
368.7210, 92428.00
369.9210, 93005.00
371.1210, 93130.00
372.3210, 93245.00
373.5200, 93136.00
374.7200, 92826.00
375.9190, 92795.00
377.1180, 92404.00
378.3170, 92536.00
379.5150, 91752.00
380.7140, 91523.00
381.9120, 91756.00
383.1110, 91425.00
384.3090, 91615.00
385.5060, 91567.00
386.7040, 91438.00
387.9020, 91606.00
389.0990, 91811.00
390.2960, 91812.00
391.4930, 91693.00
392.6900, 92375.00
393.8860, 92728.00
395.0830, 92777.00
396.2790, 92735.00
397.4750, 93242.00
398.6710, 93590.00
399.8670, 94574.00
401.0630, 94907.00
402.2580, 95614.00
403.4540, 96484.00
404.6490, 97122.00
405.8440, 97406.28
407.0390, 97759.29
408.2330, 97665.00
409.4280, 97747.00
410.6220, 97657.00
411.8160, 97142.00
413.0100, 96849.00
414.2040, 96343.00
415.3980, 95796.00
416.5910, 96063.00
417.7850, 95247.00
418.9780, 95697.00
420.1710, 95117.00
421.3640, 94480.00
422.5560, 94930.00
423.7490, 94390.00
424.9410, 94705.00
426.1330, 94784.00
427.3250, 94432.00
428.5170, 95034.00
429.7090, 94794.00
430.9000, 95335.00
432.0910, 95020.00
433.2820, 95691.00
434.4730, 95704.00
435.6640, 96141.00
436.8550, 96720.00
438.0450, 97068.33
439.2360, 97595.00
440.4260, 98144.00
441.6160, 99014.65
442.8060, 99884.11
443.9950, 101131.0
445.1850, 102106.0
446.3740, 103490.0
447.5630, 104949.0
448.7520, 106199.0
449.9410, 108077.0
451.1300, 110027.0
452.3180, 111544.0
453.5060, 112351.0
454.6950, 113610.0
455.8830, 114487.0
457.0700, 115283.0
458.2580, 115349.0
459.4450, 115498.0
460.6330, 115898.0
461.8200, 116473.0
463.0070, 117962.0
464.1940, 119101.0
465.3800, 121450.0
466.5670, 125459.0
467.7530, 131112.0
468.9390, 137346.0
470.1250, 144899.0
471.3110, 153440.0
472.4970, 162766.0
473.6820, 172047.0
474.8680, 180672.0
476.0530, 185069.0
477.2380, 185889.0
478.4230, 182159.0
479.6070, 176043.0
480.7920, 166380.0
481.9760, 157087.0
483.1600, 147309.0
484.3440, 138833.0
485.5280, 132947.0
486.7120, 127051.0
487.8950, 123308.0
489.0780, 120768.0
490.2620, 118433.0
491.4450, 117429.0
492.6270, 116357.0
493.8100, 117049.0
494.9920, 117696.0
496.1750, 118728.0
497.3570, 121158.0
498.5390, 124488.0
499.7210, 129213.0
500.9020, 135143.0
502.0840, 141067.0
503.2650, 149041.0
504.4460, 157671.0
505.6270, 167083.0
506.8080, 178214.0
507.9890, 188300.0
509.1690, 197065.0
510.3500, 205611.0
511.5300, 211515.0
512.7100, 215482.0
513.8900, 215318.0
515.0690, 208931.0
516.2490, 196327.0
517.4280, 181780.0
518.6070, 167126.0
519.7860, 154244.0
520.9650, 143763.0
522.1440, 135439.0
523.3220, 129519.0
524.5010, 124419.0
525.6790, 120432.0
526.8570, 117876.0
528.0350, 115384.0
529.2130, 113894.0
530.3900, 112363.0
531.5670, 111279.0
532.7450, 109909.0
533.9220, 109719.0
535.0980, 109197.0
536.2750, 108168.0
537.4520, 108083.0
538.6280, 107726.0
539.8040, 107088.0
540.9800, 106930.0
542.1560, 106760.0
543.3320, 106427.0
544.5070, 106048.0
545.6830, 106241.0
546.8580, 105559.0
548.0330, 106143.0
549.2080, 105276.0
550.3830, 105609.0
551.5570, 105740.0
552.7310, 105480.0
553.9060, 105781.0
555.0800, 105696.0
556.2540, 106017.0
557.4270, 105240.0
558.6010, 105538.0
559.7740, 105373.0
560.9470, 105510.0
562.1210, 105488.0
563.2930, 105442.0
564.4660, 105964.0
565.6390, 105589.0
566.8110, 106444.0
567.9830, 105824.0
569.1550, 105903.0
570.3270, 106230.0
571.4990, 106266.0
572.6710, 106670.0
573.8420, 106606.0
575.0130, 106864.0
576.1840, 107376.0
577.3550, 107094.0
578.5260, 107492.0
579.6970, 107552.0
580.8670, 107097.0
582.0370, 107480.0
583.2070, 107609.0
584.3770, 107379.0
585.5470, 107423.0
586.7170, 107646.0
587.8860, 107684.0
589.0550, 107490.0
590.2240, 107720.0
591.3930, 107004.0
592.5620, 107552.0
593.7310, 107418.0
594.8990, 107758.0
596.0670, 108017.0
597.2350, 107533.0
598.4030, 107832.0
599.5710, 107776.0
600.7390, 107986.0
601.9060, 107744.0
603.0740, 107636.0
604.2410, 108171.0
605.4080, 107868.0
606.5740, 108177.0
607.7410, 108880.0
608.9080, 108399.0
610.0740, 108837.0
611.2400, 108721.0
612.4060, 108809.0
613.5720, 108649.0
614.7370, 108867.0
615.9030, 109356.0
617.0680, 109342.0
618.2330, 109707.0
619.3980, 109996.0
620.5630, 109979.0
621.7280, 110218.1
622.8920, 109954.0
624.0570, 110477.0
625.2210, 110424.0
626.3850, 110692.0
627.5490, 110748.0
628.7120, 110249.0
629.8760, 110700.0
631.0390, 111488.0
632.2020, 111279.0
633.3650, 111130.0
634.5280, 110882.0
635.6910, 111341.0
636.8530, 111342.0
638.0160, 111440.0
639.1780, 110827.0
640.3400, 111604.0
641.5020, 111281.0
642.6640, 111532.0
643.8250, 112097.0
644.9870, 112223.0
646.1480, 112148.0
647.3090, 112373.0
648.4700, 112483.5
649.6300, 112743.0
650.7910, 112856.0
651.9510, 112840.0
653.1120, 113045.0
654.2720, 112895.0
655.4320, 113069.0
656.5910, 113321.0
657.7510, 112658.0
658.9100, 112778.0
660.0690, 112820.0
661.2290, 112612.0
662.3880, 112645.0
663.5460, 112754.0
664.7050, 112714.0
665.8630, 112792.0
667.0220, 112766.0
668.1800, 113167.0
669.3380, 113084.0
670.4950, 113175.0
671.6530, 112847.0
672.8100, 113097.0
673.9680, 113019.0
675.1250, 112979.5
676.2820, 113164.0
677.4390, 113019.0
678.5950, 113016.0
679.7520, 113141.0
680.9080, 113065.0
682.0640, 113034.3
683.2200, 113183.0
684.3760, 112989.0
685.5320, 113074.0
686.6870, 113320.0
687.8420, 113687.0
688.9980, 113589.0
690.1530, 113522.0
691.3070, 113922.0
692.4620, 113701.0
693.6170, 113622.0
694.7710, 113696.0
695.9250, 113881.0
697.0790, 113788.0
698.2330, 114332.0
699.3870, 114267.0
700.5400, 114746.0
701.6940, 114630.0
702.8470, 114937.0
704.0000, 114750.0
705.1530, 115170.0
706.3050, 115716.0
707.4580, 115914.0
708.6100, 116147.0
709.7630, 116082.0
710.9150, 116702.0
712.0660, 117036.0
713.2180, 117168.5
714.3700, 117564.0
715.5210, 117571.0
716.6720, 117469.0
717.8240, 117679.0
718.9740, 117716.0
720.1250, 117859.0
721.2760, 118110.0
722.4260, 117853.0
723.5770, 118010.0
724.7270, 117804.0
725.8770, 118286.0
727.0260, 118314.0
728.1760, 118594.0
729.3250, 118631.0
730.4750, 118544.0
731.6240, 118914.0
732.7730, 119260.0
733.9220, 119371.0
735.0700, 120121.0
736.2190, 120544.0
737.3670, 121224.0
738.5150, 121568.0
739.6630, 121616.0
740.8110, 122190.0
741.9590, 122479.0
743.1060, 123303.0
744.2540, 122882.0
745.4010, 124104.0
746.5480, 124293.0
747.6950, 123935.0
748.8410, 124003.0
749.9880, 124288.0
751.1340, 124323.9
752.2800, 124631.0
753.4260, 124888.0
754.5720, 124897.0
755.7180, 125278.0
756.8640, 125717.0
758.0090, 125561.0
759.1540, 125724.0
760.2990, 126097.0
761.4440, 125857.0
762.5890, 126306.0
763.7340, 126493.0
764.8780, 126386.0
766.0220, 125635.0
767.1660, 125370.0
768.3100, 124604.0
769.4540, 124084.0
770.5980, 123906.0
771.7410, 123720.0
772.8840, 123213.0
774.0280, 123351.0
775.1700, 123362.0
776.3130, 122737.0
777.4560, 122534.0
778.5980, 122943.0
779.7410, 122825.0
780.8830, 122415.0
782.0250, 122510.0
783.1670, 122785.0
784.3080, 122752.0
785.4500, 122868.0
786.5910, 122755.0
787.7320, 122788.0
788.8730, 123225.0
790.0140, 123058.0
791.1550, 123506.0
792.2950, 123204.0
793.4360, 123236.0
794.5760, 123482.0
795.7160, 123806.0
796.8560, 124426.0
797.9960, 123683.0
799.1350, 123595.0
800.2750, 123990.0
801.4140, 123708.0
802.5530, 124060.0
803.6920, 124169.0
804.8310, 124741.0
805.9690, 124421.0
807.1080, 124791.0
808.2460, 124891.0
809.3840, 125465.0
810.5220, 126225.0
811.6600, 126303.0
812.7970, 126248.0
813.9350, 126530.6
815.0720, 126346.0
816.2090, 126502.0
817.3460, 126716.0
818.4830, 126519.0
819.6200, 126212.0
820.7560, 125920.0
821.8930, 125943.9
823.0290, 126047.0
824.1650, 126076.0
825.3010, 126168.0
826.4360, 126373.0
827.5720, 125995.0
828.7070, 126517.0
829.8420, 126490.0
830.9770, 126203.0
832.1120, 126261.0
833.2470, 126871.0
834.3820, 127103.0
835.5160, 126766.0
836.6500, 127364.0
837.7840, 126858.0
838.9180, 127434.0
840.0520, 127312.0
841.1860, 126875.0
842.3190, 127694.0
843.4520, 127932.0
844.5850, 127797.7
845.7180, 127396.0
846.8510, 127746.0
847.9840, 127830.0
849.1160, 127924.0
850.2490, 128322.0
851.3810, 128187.0
852.5130, 128116.0
853.6450, 128426.0
854.7760, 128430.0
855.9080, 129064.0
857.0390, 128929.0
858.1700, 129059.0
859.3010, 129135.0
860.4320, 129100.0
861.5630, 129328.0
862.6930, 129435.4
863.8240, 129290.0
864.9540, 129765.0
866.0840, 129441.0
867.2140, 129473.0
868.3440, 129943.0
869.4730, 129986.0
870.6030, 130273.0
871.7320, 129698.0
872.8610, 130197.0
873.9900, 130352.0
875.1190, 130098.0
876.2470, 130426.0
877.3760, 130669.0
878.5040, 130486.0
879.6320, 130671.0
880.7600, 130832.0
881.8880, 130943.0
883.0150, 130829.0
884.1430, 131621.0
885.2700, 131292.0
886.3970, 131825.0
887.5240, 131779.0
888.6510, 131580.0
889.7780, 131684.0
890.9040, 131836.0
892.0310, 131549.0
893.1570, 131881.0
894.2830, 132247.0
895.4090, 132112.0
896.5350, 131999.0
897.6600, 132175.0
898.7860, 132623.0
899.9110, 132999.0
901.0360, 133061.0
902.1610, 132818.0
903.2860, 132816.0
904.4100, 133281.0
905.5350, 132790.0
906.6590, 133531.0
907.7830, 133611.0
908.9070, 133575.0
910.0310, 133859.0
911.1540, 133919.0
912.2780, 134031.0
913.4010, 133917.0
914.5240, 134068.0
915.6470, 134696.0
916.7700, 134530.0
917.8930, 134902.0
919.0150, 134465.0
920.1380, 134644.0
921.2600, 134895.6
922.3820, 134943.0
923.5040, 135502.0
924.6260, 135831.0
925.7470, 136163.0
926.8690, 135855.0
927.9900, 135826.0
929.1110, 135879.0
930.2320, 136386.0
931.3530, 136291.0
932.4730, 136401.0
933.5940, 136029.0
934.7140, 136608.0
935.8340, 136547.0
936.9540, 136475.0
938.0740, 136673.0
939.1930, 137230.0
940.3130, 136816.0
941.4320, 137112.0
942.5510, 136739.0
943.6700, 137125.0
944.7890, 137488.0
945.9080, 137607.0
947.0260, 137724.0
948.1450, 137925.0
949.2630, 138082.8
950.3810, 138084.0
951.4990, 138443.0
952.6170, 139005.0
953.7340, 139158.8
954.8520, 139021.0
955.9690, 139464.0
957.0860, 139498.0
958.2030, 139505.0
959.3200, 138963.0
960.4360, 139616.0
961.5530, 139652.0
962.6690, 140205.0
963.7850, 140267.3
964.9010, 139882.0
966.0170, 140288.0
967.1330, 140558.0
968.2480, 140411.0
969.3630, 140692.0
970.4790, 141112.0
971.5940, 140868.0
972.7080, 141927.0
973.8230, 141932.0
974.9380, 142001.0
976.0520, 141912.0
977.1660, 142290.0
978.2800, 142252.0
979.3940, 143241.0
980.5080, 142973.0
981.6220, 143559.0
982.7350, 143310.0
983.8480, 143330.0
984.9610, 143144.0
986.0740, 143541.0
987.1870, 143679.7
988.3000, 144275.0
989.4120, 144375.0
990.5250, 144504.0
991.6370, 144924.0
992.7490, 145123.5
993.8610, 145767.0
994.9720, 145658.0
996.0840, 146188.3
997.1950, 146222.0
998.3060, 146743.0
999.4170, 147431.0
1000.528, 147846.0
1001.639, 147798.0
1002.750, 148644.0
1003.860, 148144.0
1004.970, 148285.0
1006.080, 147704.0
1007.190, 147299.0
1008.300, 147420.0
1009.410, 147027.0
1010.519, 147420.0
1011.628, 146898.0
1012.738, 147411.0
1013.846, 147524.0
1014.955, 147297.0
1016.064, 147164.0
1017.172, 147393.0
1018.281, 147318.0
1019.389, 147181.0
1020.497, 147704.0
1021.605, 147284.0
1022.713, 148225.0
1023.820, 147739.0
1024.928, 148326.0
1026.035, 148521.0
1027.142, 149089.0
1028.249, 149366.0
1029.356, 149399.0
1030.462, 149631.5
1031.569, 149540.0
1032.675, 149595.0
1033.781, 149613.0
1034.887, 149345.0
1035.993, 149139.0
1037.098, 150121.0
1038.204, 150236.0
1039.309, 149972.0
1040.415, 150678.0
1041.520, 150465.0
1042.624, 150265.0
1043.729, 150660.0
1044.834, 150520.0
1045.938, 150912.0
1047.042, 151155.0
1048.146, 150822.0
1049.250, 151553.0
1050.354, 151830.0
1051.458, 152011.0
1052.561, 152140.0
1053.664, 152040.0
1054.767, 151963.0
1055.870, 152126.0
1056.973, 152281.0
1058.076, 152269.5
1059.178, 152219.0
1060.281, 152287.0
1061.383, 152550.0
1062.485, 152428.0
1063.587, 152038.0
1064.688, 152421.0
1065.790, 152100.0
1066.891, 152816.0
1067.993, 152150.0
1069.094, 152929.0
1070.195, 153051.0
1071.295, 153359.0
1072.396, 153123.0
1073.496, 153535.6
1074.597, 153934.0
1075.697, 154034.0
1076.797, 154591.0
1077.897, 154703.0
1078.996, 154859.0
1080.096, 155519.0
1081.195, 155961.0
1082.294, 156166.0
1083.393, 156469.0
1084.492, 156856.0
1085.591, 157063.0
1086.689, 157755.0
1087.788, 158027.0
1088.886, 159122.0
1089.984, 159546.0
1091.082, 160185.0
1092.180, 161855.0
1093.277, 162637.0
1094.375, 162899.0
1095.472, 164397.0
1096.569, 165988.0
1097.666, 166146.7
1098.763, 166668.3
1099.860, 167043.2
1100.956, 167275.6
1102.053, 167142.6
1103.149, 167325.9
1104.245, 167287.4
1105.341, 167174.8
1106.436, 167208.8
1107.532, 167916.0
1108.627, 168184.0
1109.723, 168552.7
1110.818, 169765.0
1111.913, 170202.0
1113.007, 171304.0
1114.102, 172745.0
1115.197, 174304.0
1116.291, 174896.0
1117.385, 177571.0
1118.479, 179158.0
1119.573, 179165.0
1120.666, 180671.0
1121.760, 180223.0
1122.853, 181160.0
1123.947, 180939.0
1125.040, 181068.0
1126.132, 180734.0
1127.225, 178783.0
1128.318, 177880.0
1129.410, 177373.0
1130.502, 176163.0
1131.595, 176124.0
1132.687, 174565.0
1133.778, 175271.0
1134.870, 174831.0
1135.961, 175173.0
1137.053, 174343.0
1138.144, 173845.0
1139.235, 173254.0
1140.326, 173275.0
1141.416, 171885.0
1142.507, 171268.0
1143.597, 171860.0
1144.688, 170639.0
1145.778, 170346.0
1146.868, 169346.0
1147.957, 168607.0
1149.047, 168156.1
1150.136, 168240.0
1151.226, 167179.0
1152.315, 167478.0
1153.404, 167195.0
1154.493, 166894.0
1155.581, 166038.0
1156.670, 166416.0
1157.758, 165536.0
1158.846, 165642.0
1159.934, 165666.0
1161.022, 165460.0
1162.110, 165114.0
1163.198, 164881.0
1164.285, 165088.0
1165.372, 165045.0
1166.459, 165103.3
1167.546, 165010.0
1168.633, 165218.0
1169.720, 165534.0
1170.806, 165454.0
1171.892, 165496.0
1172.979, 165225.0
1174.065, 165191.0
1175.150, 165403.0
1176.236, 165553.0
1177.322, 165628.0
1178.407, 166083.0
1179.492, 165762.0
1180.577, 165880.0
1181.662, 165529.0
1182.747, 165580.6
1183.832, 165613.6
1184.916, 165630.0
1186.000, 165978.0
1187.084, 166068.0
1188.168, 166713.0
1189.252, 167139.0
1190.336, 167107.0
1191.419, 166431.0
1192.503, 166922.0
1193.586, 166746.0
1194.669, 166455.0
1195.752, 166946.0
1196.835, 167434.0
1197.917, 166740.0
1199.000, 167109.0
1200.082, 167469.0
1201.164, 167803.0
1202.246, 167505.0
1203.328, 167724.0
1204.409, 168089.0
1205.491, 168097.0
1206.572, 168421.0
1207.653, 168395.0
1208.734, 168372.0
1209.815, 168517.0
1210.896, 168208.0
1211.976, 168785.0
1213.057, 168713.0
1214.137, 168920.0
1215.217, 169472.0
1216.297, 169788.0
1217.377, 169585.0
1218.456, 169948.0
1219.536, 169780.0
1220.615, 170639.0
1221.694, 169720.0
1222.773, 170681.0
1223.852, 170781.0
1224.931, 170946.0
1226.009, 170849.0
1227.088, 170992.0
1228.166, 171027.0
1229.244, 171169.0
1230.322, 171797.0
1231.400, 171562.0
1232.477, 171753.0
1233.555, 172012.0
1234.632, 171699.0
1235.709, 172174.0
1236.786, 172169.0
1237.863, 172352.0
1238.939, 172145.0
1240.016, 172846.0
1241.092, 173033.0
1242.168, 172809.0
1243.245, 172557.0
1244.320, 173238.0
1245.396, 172973.0
1246.472, 172484.0
1247.547, 173527.0
1248.622, 173698.0
1249.697, 173586.0
1250.772, 173949.0
1251.847, 173946.2
1252.922, 173756.0
1253.996, 174031.0
1255.071, 174298.0
1256.145, 174140.0
1257.219, 174194.0
1258.293, 175101.0
1259.366, 175123.0
1260.440, 175121.0
1261.513, 175603.0
1262.587, 174920.0
1263.660, 175677.0
1264.733, 175810.0
1265.805, 175354.0
1266.878, 176269.0
1267.951, 176221.0
1269.023, 176092.0
1270.095, 176249.0
1271.167, 176455.2
1272.239, 176472.7
1273.311, 176983.0
1274.382, 176856.0
1275.454, 176809.0
1276.525, 177322.0
1277.596, 177142.0
1278.667, 177346.0
1279.738, 178211.0
1280.808, 178675.0
1281.879, 178666.0
1282.949, 178954.0
1284.019, 178512.0
1285.089, 179629.0
1286.159, 179489.0
1287.229, 179302.0
1288.298, 180318.0
1289.368, 179801.0
1290.437, 180656.0
1291.506, 180214.0
1292.575, 180453.0
1293.644, 181163.0
1294.712, 180398.0
1295.781, 180705.0
1296.849, 180467.0
1297.917, 181567.0
1298.985, 180820.0
1300.053, 180689.0
1301.121, 181379.0
1302.188, 181109.0
1303.255, 181385.0
1304.323, 181961.0
1305.390, 181474.0
1306.457, 181594.0
1307.523, 181568.0
1308.590, 181827.0
1309.656, 181858.0
1310.723, 182466.0
1311.789, 182066.0
1312.855, 182559.8
1313.921, 182425.0
1314.986, 182848.0
1316.052, 183304.0
1317.117, 182799.0
1318.182, 182101.0
1319.248, 183395.0
1320.312, 183135.0
1321.377, 182684.0
1322.442, 183822.0
1323.506, 183449.0
1324.571, 183147.0
1325.635, 183882.0
1326.699, 183563.0
1327.762, 184154.0
1328.826, 183992.0
1329.890, 183970.0
1330.953, 184060.0
1332.016, 184357.0
1333.079, 185070.0
1334.142, 184446.0
1335.205, 185293.0
1336.268, 185336.0
1337.330, 184710.8
1338.392, 185471.7
1339.454, 185957.2
1340.516, 186181.8
1341.578, 185364.9
1342.640, 185893.0
1343.701, 185882.0
1344.763, 185848.9
1345.824, 186566.2
1346.885, 185900.6
1347.946, 186606.0
1349.007, 186764.1
1350.067, 187172.6
1351.128, 187038.9
1352.188, 187072.5
1353.248, 187648.6
1354.308, 187924.4
1355.368, 187728.1
1356.428, 188152.5
1357.487, 187467.7
1358.547, 187756.2
1359.606, 188464.6
1360.665, 188295.4
1361.724, 188729.6
1362.783, 188933.9
1363.841, 188093.9
1364.900, 189070.1
1365.958, 189260.8
1367.016, 188645.0
1368.074, 189558.9
1369.132, 189054.3
1370.190, 189056.0
1371.247, 189438.6
1372.304, 189424.0
1373.362, 190035.8
1374.419, 190044.2
1375.476, 189925.0
1376.532, 189790.0
1377.589, 190512.0
1378.645, 190193.0
1379.702, 190710.0
1380.758, 190594.0
1381.814, 190514.0
1382.870, 190771.0
1383.925, 190709.0
1384.981, 191319.0
1386.036, 190912.0
1387.092, 191363.0
1388.147, 191601.0
1389.202, 191312.0
1390.256, 191956.0
1391.311, 191978.0
1392.365, 192103.0
1393.420, 192422.0
1394.474, 192550.0
1395.528, 192549.0
1396.582, 192264.0
1397.636, 193307.0
1398.689, 192956.0
1399.742, 192614.0
1400.796, 193396.0
1401.849, 193985.0
1402.902, 193720.0
1403.955, 193628.0
1405.007, 194039.0
1406.060, 194287.0
1407.112, 193815.0
1408.164, 194692.0
1409.216, 194192.0
1410.268, 194645.0
1411.320, 194564.0
1412.371, 194732.0
1413.423, 194751.0
1414.474, 195112.0
1415.525, 195483.0
1416.576, 195869.0
1417.627, 195916.0
1418.678, 195666.0
1419.728, 195901.0
1420.778, 196126.0
1421.829, 196505.0
1422.879, 196368.0
1423.928, 196257.0
1424.978, 196931.0
1426.028, 197325.0
1427.077, 197645.0
1428.126, 197257.0
1429.176, 197501.0
1430.225, 197939.0
1431.273, 197736.0
1432.322, 198226.0
1433.371, 198390.0
1434.419, 198477.0
1435.467, 199058.0
1436.515, 198656.0
1437.563, 198764.0
1438.611, 199232.0
1439.658, 199647.0
1440.706, 199225.0
1441.753, 199262.0
1442.800, 199638.0
1443.847, 199451.0
1444.894, 200013.0
1445.941, 199983.0
1446.987, 199825.0
1448.034, 200234.0
1449.080, 199839.0
1450.126, 200157.0
1451.172, 200586.0
1452.218, 200282.0
1453.263, 201065.0
1454.309, 200314.0
1455.354, 200584.0
1456.399, 200928.0
1457.444, 201246.0
1458.489, 201229.0
1459.534, 201431.6
1460.579, 201516.9
1461.623, 201506.0
1462.667, 201669.0
1463.711, 201637.0
1464.755, 201740.0
1465.799, 202085.0
1466.843, 201886.0
1467.886, 201571.0
1468.930, 202373.0
1469.973, 202190.2
1471.016, 203073.0
1472.059, 202606.0
1473.101, 202692.0
1474.144, 202886.0
1475.186, 202479.0
1476.229, 202838.0
1477.271, 202806.0
1478.313, 203029.0
1479.355, 203814.0
1480.396, 203038.0
1481.438, 202785.0
1482.479, 203484.0
1483.520, 203530.0
1484.561, 204193.0
1485.602, 204035.0
1486.643, 204242.0
1487.684, 204419.0
1488.724, 204157.0
1489.765, 203933.0
1490.805, 204713.0
1491.845, 205060.0
1492.885, 204976.0
1493.924, 204573.0
1494.964, 205151.0
1496.003, 204772.0
1497.042, 205102.3
1498.082, 205657.0
1499.120, 205506.0
1500.159, 206208.0
1501.198, 206146.0
1502.236, 206001.0
1503.275, 206883.0
1504.313, 206072.0
1505.351, 206661.0
1506.389, 206728.0
1507.427, 207300.0
1508.464, 207648.0
1509.502, 207341.0
1510.539, 207300.0
1511.576, 207927.0
1512.613, 208015.0
1513.650, 207624.0
1514.687, 207599.0
1515.723, 208113.0
1516.759, 208431.0
1517.796, 208018.0
1518.832, 208761.0
1519.868, 208241.0
1520.903, 208856.0
1521.939, 208938.0
1522.975, 208848.0
1524.010, 209406.0
1525.045, 209113.0
1526.080, 209077.0
1527.115, 209031.0
1528.150, 209805.0
1529.184, 209800.0
1530.219, 209542.0
1531.253, 210067.0
1532.287, 209516.0
1533.321, 210665.0
1534.355, 210551.0
1535.388, 210735.0
1536.422, 210618.0
1537.455, 211245.0
1538.488, 211065.0
1539.522, 211027.0
1540.554, 211115.0
1541.587, 212248.0
1542.620, 211174.0
1543.652, 212122.0
1544.685, 212238.0
1545.717, 212028.0
1546.749, 211343.0
1547.781, 212309.0
1548.812, 212264.0
1549.844, 212706.0
1550.875, 212923.0
1551.906, 212797.0
1552.938, 213315.0
1553.968, 213512.0
1554.999, 213566.0
1556.030, 213773.0
1557.060, 213933.0
1558.091, 213148.0
1559.121, 213025.0
1560.151, 213217.1
1561.181, 213870.0
1562.211, 213687.0
1563.240, 214298.0
1564.270, 214517.0
1565.299, 214875.0
1566.328, 214861.0
1567.357, 214878.0
1568.386, 214934.0
1569.415, 215036.7
1570.443, 215122.0
1571.472, 215218.5
1572.500, 215376.3
1573.528, 215458.0
1574.556, 215617.0
1575.584, 215805.0
1576.611, 215734.0
1577.639, 216428.0
1578.666, 216137.0
##END=



