##NAMES=Plumbophyllite
##RRUFFID=R130081
##IDEAL CHEMISTRY=Pb^2+^_2_Si_4_O_10_&#183;H_2_O
##LOCALITY=Blue Bell claims, about 11 km west of Baker, San Bernardino County, California, USA
##OWNER=Anthony R. Kampf 
##SOURCE=Anthony R. Kampf and George R. Rossman
##DESCRIPTION=Colorless to pale blue and transparent.  Data from Kampf et al (2009)
##STATUS=The identification of this mineral has been confirmed by X-ray diffraction and chemical analysis
##URL=rruff.info/R130081
##MEASURED CHEMISTRY=Pb_1.79_Cu_0.02_Si_4_O_9.62_(OH)_0.38_Â·1.02H_2_O
3999.94, 1366.33
3998.86, 1361.7
3997.78, 1375.37
3996.7, 1419.14
3995.62, 1388.82
3994.54, 1430.25
3993.46, 1430.02
3992.38, 1388.15
3991.3, 1392.55
3990.22, 1339.13
3989.14, 1334.29
3988.06, 1403.44
3986.98, 1322.3
3985.9, 1402.98
3984.81, 1342.67
3983.73, 1370.18
3982.65, 1356.1
3981.57, 1441.34
3980.48, 1443.42
3979.4, 1376.22
3978.32, 1403.71
3977.24, 1352.7
3976.15, 1343.25
3975.07, 1439.95
3973.99, 1409.72
3972.9, 1400.27
3971.82, 1450.78
3970.73, 1422.88
3969.65, 1378.84
3968.57, 1355.56
3967.48, 1438.32
3966.4, 1417.35
3965.31, 1389.47
3964.23, 1396.16
3963.14, 1391.32
3962.06, 1446.37
3960.97, 1367.85
3959.88, 1425.19
3958.8, 1424.96
3957.71, 1401.71
3956.63, 1364.66
3955.54, 1442.67
3954.45, 1334.31
3953.37, 1430.71
3952.28, 1448.87
3951.19, 1379.66
3950.1, 1404.72
3949.02, 1347.03
3947.93, 1450.23
3946.84, 1378.76
3945.75, 1424.49
3944.66, 1410.48
3943.58, 1325.27
3942.49, 1384.76
3941.4, 1432.76
3940.31, 1402.68
3939.22, 1430
3938.13, 1395.34
3937.04, 1388.23
3935.95, 1431.6
3934.86, 1385.49
3933.77, 1419.67
3932.68, 1412.56
3931.59, 1414.62
3930.5, 1398.35
3929.41, 1411.87
3928.32, 1381.85
3927.23, 1411.42
3926.14, 1461.59
3925.04, 1495.71
3923.95, 1399.28
3922.86, 1380.74
3921.77, 1398.83
3920.68, 1448.96
3919.58, 1407.53
3918.49, 1377.55
3917.4, 1427.66
3916.31, 1374.82
3915.21, 1470.66
3914.12, 1422.4
3913.03, 1381.01
3911.93, 1451.66
3910.84, 1414.85
3909.75, 1368.91
3908.65, 1471.52
3907.56, 1443.86
3906.46, 1432.21
3905.37, 1447.96
3904.27, 1372.37
3903.18, 1429.23
3902.08, 1481.5
3900.99, 1435.61
3899.89, 1421.69
3898.8, 1505.88
3897.7, 1466.85
3896.6, 1439.24
3895.51, 1413.92
3894.41, 1466.14
3893.32, 1445.38
3892.22, 1404.12
3891.12, 1392.5
3890.02, 1442.4
3888.93, 1462.67
3887.83, 1359.93
3886.73, 1405.26
3885.63, 1382.26
3884.54, 1391.14
3883.44, 1479.7
3882.34, 1506.77
3881.24, 1374.54
3880.14, 1449.4
3879.04, 1380.91
3877.94, 1458.03
3876.85, 1387.29
3875.75, 1484.84
3874.65, 1441.4
3873.55, 1538.91
3872.45, 1456.84
3871.35, 1381.62
3870.25, 1376.85
3869.15, 1492.48
3868.04, 1403.66
3866.94, 1469.29
3865.84, 1421.37
3864.74, 1457.46
3863.64, 1436.8
3862.54, 1393.44
3861.44, 1404.56
3860.33, 1533.65
3859.23, 1433.59
3858.13, 1451.51
3857.03, 1421.79
3855.93, 1512.25
3854.82, 1437.2
3853.72, 1436.96
3852.62, 1443.53
3851.51, 1427.43
3850.41, 1400.02
3849.31, 1377.14
3848.2, 1467.5
3847.1, 1465
3845.99, 1491.93
3844.89, 1412.46
3843.78, 1529.92
3842.68, 1473.1
3841.57, 1502.27
3840.47, 1375.35
3839.36, 1418.1
3838.26, 1435.96
3837.15, 1483.21
3836.05, 1467.14
3834.94, 1487.24
3833.83, 1505.08
3832.73, 1459.65
3831.62, 1459.41
3830.51, 1508.87
3829.41, 1490.55
3828.3, 1479.02
3827.19, 1544.25
3826.09, 1464.99
3824.98, 1442.19
3823.87, 1426.16
3822.76, 1414.64
3821.65, 1414.41
3820.55, 1448.02
3819.44, 1481.61
3818.33, 1481.37
3817.22, 1442.8
3816.11, 1431.29
3815, 1428.81
3813.89, 1448.86
3812.78, 1414.83
3811.67, 1482.17
3810.56, 1502.2
3809.45, 1501.96
3808.34, 1490.45
3807.23, 1559.99
3806.12, 1447.2
3805.01, 1489.73
3803.9, 1433.23
3802.79, 1457.75
3801.67, 1477.75
3800.56, 1376.31
3799.45, 1486.26
3798.34, 1434.31
3797.23, 1463.3
3796.11, 1528.24
3795, 1505.52
3793.89, 1473.82
3792.78, 1505.03
3791.66, 1473.34
3790.55, 1540.47
3789.44, 1475.11
3788.32, 1517.52
3787.21, 1470.14
3786.09, 1523.75
3784.98, 1545.94
3783.87, 1426.79
3782.75, 1462.45
3781.64, 1531.73
3780.52, 1533.72
3779.41, 1495.36
3778.29, 1488.39
3777.18, 1564.35
3776.06, 1532.72
3774.94, 1474.22
3773.83, 1447.1
3772.71, 1496.14
3771.6, 1527.25
3770.48, 1504.61
3769.36, 1584.95
3768.25, 1492.92
3767.13, 1519.54
3766.01, 1543.9
3764.89, 1507.85
3763.78, 1556.82
3762.66, 1514.07
3761.54, 1484.75
3760.42, 1513.58
3759.3, 1533.45
3758.18, 1501.91
3757.07, 1512.84
3755.95, 1517.06
3754.83, 1541.38
3753.71, 1503.16
3752.59, 1627.97
3751.47, 1498.2
3750.35, 1522.52
3749.23, 1459.77
3748.11, 1577.81
3746.99, 1541.85
3745.87, 1472.44
3744.75, 1539.12
3743.63, 1507.64
3742.51, 1556.45
3741.38, 1574.04
3740.26, 1518.05
3739.14, 1569.06
3738.02, 1593.32
3736.9, 1486.11
3735.77, 1574.98
3734.65, 1583.63
3733.53, 1492.07
3732.41, 1571.98
3731.28, 1593.98
3730.16, 1524.72
3729.04, 1551.18
3727.91, 1588.75
3726.79, 1557.35
3725.67, 1568.21
3724.54, 1583.53
3723.42, 1536.57
3722.29, 1531.87
3721.17, 1527.17
3720.04, 1624.72
3718.92, 1617.79
3717.79, 1601.97
3716.67, 1535.06
3715.54, 1619.21
3714.42, 1574.53
3713.29, 1603.14
3712.17, 1600.66
3711.04, 1593.74
3709.91, 1551.31
3708.79, 1591
3707.66, 1612.92
3706.53, 1630.4
3705.41, 1601.31
3704.28, 1592.17
3703.15, 1645.12
3702.02, 1675.89
3700.89, 1622.42
3699.77, 1673.12
3698.64, 1613.03
3697.51, 1632.7
3696.38, 1641.29
3695.25, 1625.52
3694.12, 1658.47
3692.99, 1611.71
3691.86, 1653.5
3690.73, 1569.13
3689.6, 1644.11
3688.47, 1665.96
3687.34, 1676.75
3686.21, 1625.6
3685.08, 1640.82
3683.95, 1664.87
3682.82, 1717.65
3681.69, 1673.17
3680.56, 1646.37
3679.43, 1683.66
3678.3, 1725.36
3677.16, 1698.57
3676.03, 1667.38
3674.9, 1746.59
3673.77, 1715.4
3672.64, 1726.16
3671.5, 1690.56
3670.37, 1774.14
3669.24, 1747.37
3668.1, 1742.67
3666.97, 1707.1
3665.84, 1735.48
3664.7, 1799.14
3663.57, 1697.44
3662.43, 1818.39
3661.3, 1888.61
3660.17, 1762.7
3659.03, 1813.09
3657.9, 1777.54
3656.76, 1799.28
3655.62, 1836.41
3654.49, 1888.95
3653.35, 1802.79
3652.22, 1844.31
3651.08, 1905.62
3649.95, 1925.11
3648.81, 1891.8
3647.67, 1884.89
3646.54, 1904.37
3645.4, 1899.66
3644.26, 1853.19
3643.12, 1824.31
3641.99, 1907.52
3640.85, 1951.15
3639.71, 1983.78
3638.57, 2029.58
3637.43, 2031.45
3636.29, 2020.13
3635.16, 2041.76
3634.02, 1949.23
3632.88, 2032.31
3631.74, 2045.14
3630.6, 2007.5
3629.46, 2066.4
3628.32, 2138.44
3627.18, 2050.37
3626.04, 2093.89
3624.9, 2102.31
3623.76, 2134.84
3622.62, 2138.87
3621.48, 2156.05
3620.34, 2181.99
3619.19, 2240.77
3618.05, 2240.4
3616.91, 2264.12
3615.77, 2268.12
3614.63, 2269.94
3613.48, 2335.22
3612.34, 2247.31
3611.2, 2367.27
3610.06, 2452.2
3608.91, 2408.05
3607.77, 2359.55
3606.63, 2350.41
3605.48, 2404.68
3604.34, 2419.58
3603.2, 2432.29
3602.05, 2490.89
3600.91, 2516.69
3599.76, 2553.41
3598.62, 2577.02
3597.47, 2598.43
3596.33, 2676.59
3595.18, 2746
3594.04, 2732.46
3592.89, 2753.83
3591.75, 2812.28
3590.6, 2888.17
3589.45, 2848.43
3588.31, 2915.57
3587.16, 2869.3
3586.01, 3049.76
3584.87, 2959.9
3583.72, 3059.65
3582.57, 3189.88
3581.42, 3100.04
3580.28, 3088.64
3579.13, 3216.62
3577.98, 3237.86
3576.83, 3276.52
3575.68, 3289.04
3574.53, 3410.37
3573.39, 3420.69
3572.24, 3487.57
3571.09, 3565.31
3569.94, 3597.34
3568.79, 3670.69
3567.64, 3583.11
3566.49, 3647.74
3565.34, 3658
3564.19, 3674.78
3563.04, 3648.1
3561.89, 3806.09
3560.74, 3855.42
3559.58, 3726.65
3558.43, 3782.49
3557.28, 3810.09
3556.13, 3978.77
3554.98, 3884.8
3553.83, 3827.74
3552.67, 3809.75
3551.52, 3813.46
3550.37, 3799.82
3549.22, 3972.67
3548.06, 3874.45
3546.91, 3860.8
3545.76, 3847.16
3544.6, 3753.34
3543.45, 3891.39
3542.29, 3871.25
3541.14, 3950.75
3539.99, 3932.77
3538.83, 3934.29
3537.68, 3972.61
3536.52, 3883.21
3535.37, 3852.27
3534.21, 3949
3533.06, 3909.41
3531.9, 3962.84
3530.74, 3983.81
3529.59, 4054.51
3528.43, 4068.98
3527.27, 3949.41
3526.12, 4046.02
3524.96, 3935.14
3523.8, 3988.51
3522.65, 3979.21
3521.49, 4032.55
3520.33, 4031.88
3519.17, 4100.31
3518.02, 3996.01
3516.86, 4107.59
3515.7, 4173.81
3514.54, 3953.03
3513.38, 4243.63
3512.22, 4186.84
3511.06, 4224.97
3509.9, 4066.86
3508.74, 4283.94
3507.58, 4156.05
3506.42, 4163.98
3505.26, 4350.77
3504.1, 4281.1
3502.94, 4357.95
3501.78, 4208.61
3500.62, 4341.43
3499.46, 4493.59
3498.3, 4367.98
3497.14, 4468.42
3495.98, 4598.96
3494.81, 4438.97
3493.65, 4489.87
3492.49, 4620.34
3491.33, 4544.3
3490.17, 4605.91
3489, 4714.79
3487.84, 4888.12
3486.68, 4691.74
3485.51, 4918.74
3484.35, 4883.55
3483.19, 4949.33
3482.02, 4985.02
3480.86, 5007.82
3479.69, 5015.58
3478.53, 5182.19
3477.36, 5198.51
3476.2, 5133.26
3475.03, 5265.44
3473.87, 5133.71
3472.7, 5300.16
3471.54, 5230.66
3470.37, 5236.22
3469.21, 5291.1
3468.04, 5380.25
3466.87, 5383.64
3465.71, 5200.61
3464.54, 5296.16
3463.37, 5312.42
3462.2, 5362.94
3461.04, 5167.18
3459.87, 5359.02
3458.7, 5251.1
3457.53, 5245.95
3456.37, 5251.5
3455.2, 5162.9
3454.03, 5125.68
3452.86, 5124.83
3451.69, 5070.51
3450.52, 5050.43
3449.35, 4966.22
3448.18, 5040.2
3447.01, 4981.67
3445.84, 4989.39
3444.67, 4896.69
3443.5, 4910.83
3442.33, 4816.04
3441.16, 4898.52
3439.99, 4880.63
3438.82, 4847.8
3437.65, 4889.68
3436.48, 4769.37
3435.3, 4819.78
3434.13, 4742.19
3432.96, 4816.05
3431.79, 4813.12
3430.61, 4803.79
3429.44, 4628.18
3428.27, 4759.57
3427.1, 4707.63
3425.92, 4802.73
3424.75, 4799.8
3423.58, 4822.44
3422.4, 4894.05
3421.23, 4767.6
3420.05, 4869
3418.88, 4851.16
3417.7, 4775.87
3416.53, 4864.45
3415.35, 4918.95
3414.18, 4913.88
3413, 4900.3
3411.83, 4910.12
3410.65, 4864.66
3409.48, 4974.39
3408.3, 4982.07
3407.12, 5066.24
3405.95, 4942.16
3404.77, 4875.49
3403.59, 4980.88
3402.42, 5113.84
3401.24, 5017.44
3400.06, 4897.72
3398.88, 5058.22
3397.71, 5104.07
3396.53, 5154.15
3395.35, 5178.75
3394.17, 5241.53
3392.99, 5217.33
3391.81, 5288.55
3390.63, 5270.71
3389.45, 5386.43
3388.27, 5213.85
3387.09, 5350.73
3385.91, 5360.43
3384.73, 5317.17
3383.55, 5352.29
3382.37, 5393.75
3381.19, 5530.48
3380.01, 5656.58
3378.83, 5479.96
3377.65, 5671.63
3376.47, 5418.89
3375.29, 5627.43
3374.1, 5774.56
3372.92, 5739.76
3371.74, 5688.05
3370.56, 5742.07
3369.37, 5766.48
3368.19, 5735.93
3367.01, 5737.09
3365.83, 5949.52
3364.64, 5815.45
3363.46, 5936.98
3362.27, 5944.44
3361.09, 5776.65
3359.91, 6029.01
3358.72, 5954.13
3357.54, 6031.22
3356.35, 5966.92
3355.17, 6043.98
3353.98, 6078.83
3352.8, 6128.43
3351.61, 6045.17
3350.42, 5886.05
3349.24, 6112.71
3348.05, 6029.5
3346.87, 6152.82
3345.68, 6094.91
3344.49, 6039.12
3343.31, 6269.79
3342.12, 6300.33
3340.93, 6166.64
3339.74, 6039.31
3338.56, 6156.16
3337.37, 6176.18
3336.18, 6107.82
3334.99, 6096.28
3333.8, 6238.29
3332.61, 6151.02
3331.42, 6223.59
3330.23, 6262.49
3329.05, 6187.88
3327.86, 6081.77
3326.67, 5994.61
3325.48, 6172.18
3324.29, 6064.02
3323.1, 5974.81
3321.9, 6036.8
3320.71, 5920.33
3319.52, 5959.22
3318.33, 6014.89
3317.14, 6015.98
3315.95, 5928.96
3314.76, 5894.41
3313.56, 5840.99
3312.37, 5930.18
3311.18, 5885.16
3309.99, 5789.85
3308.79, 5648.45
3307.6, 5756.48
3306.41, 5761.8
3305.22, 5725.23
3304.02, 5780.82
3302.83, 5624.89
3301.63, 5682.58
3300.44, 5742.34
3299.25, 5753.93
3298.05, 5729.95
3296.86, 5779.21
3295.66, 5780.34
3294.47, 5720.8
3293.27, 5755.4
3292.07, 5762.8
3290.88, 5680.3
3289.68, 5676.22
3288.49, 5672.14
3287.29, 5668.06
3286.09, 5663.97
3284.9, 5659.89
3283.7, 5655.8
3282.5, 5615.18
3281.31, 5620.51
3280.11, 5607.04
3278.91, 5597.75
3277.71, 5690.72
3276.51, 5554.15
3275.32, 5661.7
3274.12, 5577.32
3272.92, 5555.53
3271.72, 5652.6
3270.52, 5530.74
3269.32, 5757.01
3268.12, 5426.77
3266.92, 5600.89
3265.72, 5556.2
3264.52, 5628.18
3263.32, 5546.01
3262.12, 5607.55
3260.92, 5467.12
3259.72, 5672.28
3258.52, 5673.41
3257.32, 5632.93
3256.11, 5698.56
3254.91, 5660.16
3253.71, 5613.46
3252.51, 5624.99
3251.31, 5649
3250.1, 5708.34
3248.9, 5715.69
3247.7, 5702.27
3246.49, 5597.43
3245.29, 5656.73
3244.09, 5614.24
3242.88, 5733.75
3241.68, 5811.69
3240.47, 5758.81
3239.27, 5714.26
3238.07, 5835.74
3236.86, 5683.29
3235.66, 5759.1
3234.45, 5807.92
3233.24, 5692.88
3232.04, 5845.37
3230.83, 5817.43
3229.63, 5874.5
3228.42, 5844.5
3227.21, 5793.78
3226.01, 5817.67
3224.8, 5880.91
3223.59, 5792.94
3222.39, 6040.46
3221.18, 5859.32
3219.97, 5876.96
3218.76, 5873.91
3217.56, 5883.27
3216.35, 5838.83
3215.14, 5993
3213.93, 6070.59
3212.72, 5937.22
3211.51, 5907.28
3210.3, 5933.16
3209.09, 5948.7
3207.88, 5867.1
3206.67, 5847.52
3205.46, 5960.16
3204.25, 5864.15
3203.04, 5879.68
3201.83, 5922.06
3200.62, 5855
3199.41, 5851.95
3198.2, 5902.56
3196.99, 5918.08
3195.77, 5696.33
3194.56, 5804.7
3193.35, 5805.78
3192.14, 5749.13
3190.93, 5950.22
3189.71, 5720.4
3188.5, 5770.96
3187.29, 5844.18
3186.07, 5785.51
3184.86, 5815.43
3183.65, 5608.49
3182.43, 5619.9
3181.22, 5715.73
3180, 5535.67
3178.79, 5551.2
3177.57, 5546.15
3176.36, 5539.05
3175.14, 5474.34
3173.93, 5448.73
3172.71, 5530.08
3171.5, 5313.25
3170.28, 5232.17
3169.06, 5434.79
3167.85, 5396.88
3166.63, 5336.38
3165.41, 5314.94
3164.2, 5295.56
3162.98, 5138.58
3161.76, 5246.55
3160.55, 5147.11
3159.33, 5211.94
3158.11, 5211.06
3156.89, 5160.93
3155.67, 5155.96
3154.45, 4972.52
3153.24, 5045.52
3152.02, 5065.17
3150.8, 5029.46
3149.58, 4866.67
3148.36, 4994.98
3147.14, 4826.09
3145.92, 4913.38
3144.7, 4855.19
3143.48, 4702.8
3142.26, 4808.5
3141.03, 4731.93
3139.81, 4755.7
3138.59, 4734.43
3137.37, 4819.59
3136.15, 4573.23
3134.93, 4586.78
3133.7, 4604.42
3132.48, 4605.69
3131.26, 4564.01
3130.04, 4614.36
3128.81, 4482.75
3127.59, 4473.82
3126.37, 4368.85
3125.14, 4427.37
3123.92, 4363.29
3122.7, 4319.67
3121.47, 4208.67
3120.25, 4332.5
3119.02, 4239.91
3117.8, 4280.01
3116.57, 4291.54
3115.35, 4233.68
3114.12, 4251.33
3112.9, 4109.88
3111.67, 4180.56
3110.44, 4134.99
3109.22, 4109.83
3107.99, 4182.52
3106.76, 4028.97
3105.54, 3936.59
3104.31, 3911.48
3103.08, 3959.71
3101.86, 3910.16
3100.63, 3842.31
3099.4, 3896.63
3098.17, 3841.01
3096.94, 3805.76
3095.71, 3729.83
3094.49, 3808.55
3093.26, 3702.13
3092.03, 3658.79
3090.8, 3751.71
3089.57, 3643.32
3088.34, 3673.2
3087.11, 3558.76
3085.88, 3613.03
3084.65, 3543.34
3083.42, 3583.37
3082.19, 3436.53
3080.95, 3456.25
3079.72, 3506.43
3078.49, 3377.94
3077.26, 3430.14
3076.03, 3334.18
3074.8, 3422.89
3073.56, 3373.63
3072.33, 3375.09
3071.1, 3244.73
3069.87, 3298.92
3068.63, 3241.6
3067.4, 3257.27
3066.17, 3216.19
3064.93, 3167.01
3063.7, 3211.05
3062.46, 3186.2
3061.23, 3177.55
3059.99, 3049.45
3058.76, 3154.21
3057.52, 3121.29
3056.29, 3049.93
3055.05, 3122.26
3053.82, 2990.22
3052.58, 3038.26
3051.35, 2999.32
3050.11, 2938.15
3048.87, 3050.87
3047.64, 2908.85
3046.4, 2944.74
3045.16, 2964.45
3043.92, 2808.38
3042.69, 2791.74
3041.45, 2874.08
3040.21, 2778.68
3038.97, 2848.87
3037.73, 2822.15
3036.5, 2751.03
3035.26, 2738.45
3034.02, 2758.16
3032.78, 2751.65
3031.54, 2743.11
3030.3, 2700.3
3029.06, 2726.05
3027.82, 2671.16
3026.58, 2686.83
3025.34, 2746.83
3024.1, 2768.53
3022.86, 2669.35
3021.62, 2634.65
3020.37, 2652.33
3019.13, 2643.82
3017.89, 2601.1
3016.65, 2650.98
3015.41, 2547.89
3014.16, 2559.53
3012.92, 2536.97
3011.68, 2530.5
3010.44, 2542.14
3009.19, 2569.86
3007.95, 2476.94
3006.71, 2510.69
3005.46, 2524.33
3004.22, 2505.82
3002.97, 2527.5
3001.73, 2430.64
3000.48, 2480.44
2999.24, 2453.92
2997.99, 2393.27
2996.75, 2479.18
2995.5, 2438.62
2994.26, 2488.37
2993.01, 2457.85
2991.76, 2391.24
2990.52, 2364.75
2989.27, 2342.29
2988.03, 2388.01
2986.78, 2349.52
2985.53, 2355.13
2984.28, 2370.76
2983.04, 2400.41
2981.79, 2369.96
2980.54, 2363.54
2979.29, 2303.06
2978.04, 2312.68
2976.79, 2258.24
2975.54, 2365.94
2974.3, 2213.44
2973.05, 2333.12
2971.8, 2262.7
2970.55, 2252.32
2969.3, 2281.93
2968.05, 2213.56
2966.8, 2329.14
2965.55, 2316.75
2964.29, 2226.42
2963.04, 2279.99
2961.79, 2241.65
2960.54, 2257.24
2959.29, 2286.82
2958.04, 2242.5
2956.78, 2248.11
2955.53, 2241.74
2954.28, 2161.52
2953.03, 2236.98
2951.77, 2272.51
2950.52, 2238.21
2949.27, 2142.1
2948.01, 2233.46
2946.76, 2298.88
2945.51, 2220.74
2944.25, 2232.32
2943, 2156.22
2941.74, 2179.76
2940.49, 2191.34
2939.23, 2147.15
2937.98, 2152.76
2936.72, 2158.36
2935.47, 2299.34
2934.21, 2247.2
2932.95, 2181.14
2931.7, 2204.65
2930.44, 2148.57
2929.18, 2185.99
2927.93, 2195.57
2926.67, 2240.92
2925.41, 2121.26
2924.15, 2134.81
2922.9, 2128.49
2921.64, 2181.77
2920.38, 2235.04
2919.12, 2212.81
2917.86, 2152.85
2916.6, 2154.47
2915.34, 2231.53
2914.08, 2185.5
2912.82, 2191.08
2911.56, 2133.16
2910.3, 2208.19
2909.04, 2158.22
2907.78, 2179.67
2906.52, 2094.03
2905.26, 2180.91
2904, 2214.23
2902.74, 2168.27
2901.48, 2106.47
2900.22, 2195.27
2898.95, 2129.52
2897.69, 2200.46
2896.43, 2164.44
2895.17, 2181.89
2893.9, 2118.17
2892.64, 2198.96
2891.38, 2050.16
2890.11, 2194.25
2888.85, 2160.25
2887.59, 2112.41
2886.32, 2165.44
2885.06, 2178.91
2883.79, 2170.63
2882.53, 2164.33
2881.26, 2219.3
2880, 2212.99
2878.73, 2297.56
2877.47, 2237.91
2876.2, 2180.26
2874.93, 2148.29
2873.67, 2116.34
2872.4, 2123.87
2871.13, 2137.32
2869.87, 2127.09
2868.6, 2091.22
2867.33, 2043.52
2866.07, 2106.28
2864.8, 2034.93
2863.53, 2014.87
2862.26, 2093.37
2860.99, 2051.63
2859.72, 2065.07
2858.46, 2098.21
2857.19, 2026.94
2855.92, 2064.01
2854.65, 2081.38
2853.38, 1986.52
2852.11, 2074.76
2850.84, 2005.52
2849.57, 2081.92
2848.3, 2063.86
2847.03, 2057.6
2845.75, 2120.19
2844.48, 2084.43
2843.21, 2019.19
2841.94, 2107.31
2840.67, 1955.61
2839.4, 2053.53
2838.12, 2045.32
2836.85, 1932.99
2835.58, 1958.2
2834.3, 1973.57
2833.03, 1967.34
2831.76, 1880.63
2830.48, 1921.53
2829.21, 1919.23
2827.94, 1879.66
2826.66, 1924.46
2825.39, 1865.29
2824.11, 1861.05
2822.84, 1827.4
2821.56, 1811.4
2820.29, 1891.45
2819.01, 1848.02
2817.73, 1822.23
2816.46, 1853.26
2815.18, 1798.1
2813.91, 1844.79
2812.63, 1903.22
2811.35, 1869.61
2810.07, 1857.54
2808.8, 1872.88
2807.52, 1878.43
2806.24, 1883.98
2804.96, 1875.83
2803.68, 1828.57
2802.41, 1867.37
2801.13, 1800.57
2799.85, 1831.54
2798.57, 1850.77
2797.29, 1862.18
2796.01, 1926.33
2794.73, 1842
2793.45, 1845.59
2792.17, 1845.28
2790.89, 1913.29
2789.61, 1858.31
2788.33, 1818.96
2787.05, 1808.89
2785.77, 1876.86
2784.48, 1816.07
2783.2, 1833.31
2781.92, 1754.99
2780.64, 1865.82
2779.36, 1886.95
2778.07, 1793.07
2776.79, 1862.91
2775.51, 1774.92
2774.22, 1885.65
2772.94, 1824.95
2771.66, 1853.85
2770.37, 1820.43
2769.09, 1765.61
2767.8, 1815.91
2766.52, 1821.44
2765.23, 1852.25
2763.95, 1863.61
2762.66, 1902.19
2761.38, 1857.13
2760.09, 1790.71
2758.81, 1897.32
2757.52, 1854.23
2756.23, 1799.5
2754.95, 1770.05
2753.66, 1826.08
2752.37, 1823.82
2751.08, 1885.65
2749.8, 1862.03
2748.51, 1762.7
2747.22, 1830.33
2745.93, 1822.25
2744.64, 1854.93
2743.36, 1844.91
2742.07, 1817.43
2740.78, 1807.43
2739.49, 1785.79
2738.2, 1799.05
2736.91, 1781.29
2735.62, 1879.82
2734.33, 1864
2733.04, 1857.87
2731.75, 1894.35
2730.46, 1886.28
2729.17, 1901.44
2727.87, 1934.03
2726.58, 1887.24
2725.29, 1857.88
2724, 1822.73
2722.71, 1892.07
2721.41, 1887.87
2720.12, 1881.75
2718.83, 1798.28
2717.54, 1873.36
2716.24, 1826.65
2714.95, 1905.57
2713.65, 1816.36
2712.36, 1860.48
2711.07, 1867.89
2709.77, 1902.33
2708.48, 1844.07
2707.18, 1876.58
2705.89, 1843.44
2704.59, 1883.65
2703.3, 1817.72
2702, 1850.2
2700.7, 1766.94
2699.41, 1893.92
2698.11, 1787.54
2696.81, 1866.28
2695.52, 1869.81
2694.22, 1848.29
2692.92, 1907.7
2691.63, 1859.21
2690.33, 1847.33
2689.03, 1873.98
2687.73, 1829.36
2686.43, 1869.48
2685.13, 1880.71
2683.84, 1901.55
2682.54, 1905.07
2681.24, 1933.6
2679.94, 1858.25
2678.64, 1842.54
2677.34, 1840.3
2676.04, 1866.9
2674.74, 1818.52
2673.44, 1862.41
2672.13, 1956.25
2670.83, 1909.8
2669.53, 1834.55
2668.23, 1928.35
2666.93, 1826.24
2665.63, 1868.16
2664.32, 1921.59
2663.02, 1957.73
2661.72, 1945.87
2660.42, 1878.38
2659.11, 1947.12
2657.81, 1900.75
2656.51, 1898.5
2655.2, 1905.85
2653.9, 1892.1
2652.59, 1882.19
2651.29, 1862.7
2649.98, 1848.96
2648.68, 1829.49
2647.37, 1855.99
2646.07, 1905.46
2644.76, 1891.72
2643.46, 1927.77
2642.15, 1923.61
2640.84, 1902.22
2639.54, 1877.02
2638.23, 1815.48
2636.92, 1849.59
2635.62, 1868.4
2634.31, 1977.06
2633, 1827.61
2631.69, 1833.02
2630.39, 1809.77
2629.08, 1868.69
2627.77, 1870.28
2626.46, 1877.6
2625.15, 1865.81
2623.84, 1867.4
2622.53, 1859.44
2621.22, 1866.75
2619.91, 1919.87
2618.6, 1915.72
2617.29, 1839.08
2615.98, 1875
2614.67, 1907.09
2613.36, 1895.32
2612.05, 1866.4
2610.74, 1803.17
2609.42, 1858.13
2608.11, 1873.05
2606.8, 1823.19
2605.49, 1862.88
2604.17, 1854.94
2602.86, 1858.42
2601.55, 1888.56
2600.23, 1853.97
2598.92, 1842.23
2597.61, 1860.94
2596.29, 1809.25
2594.98, 1866
2593.66, 1859.97
2592.35, 1893.88
2591.03, 1906.86
2589.72, 1864.71
2588.4, 1839.68
2587.09, 1902.07
2585.77, 1785.85
2584.46, 1926.1
2583.14, 1851.7
2581.82, 1853.28
2580.51, 1799.8
2579.19, 1824.16
2577.87, 1894.06
2576.55, 1853.89
2575.24, 1815.62
2573.92, 1877.9
2572.6, 1784.65
2571.28, 1845.02
2569.96, 1835.22
2568.64, 1891.76
2567.33, 1851.64
2566.01, 1737.62
2564.69, 1843.42
2563.37, 1810.89
2562.05, 1791.64
2560.73, 1867.07
2559.41, 1895.15
2558.09, 1820.99
2556.76, 1871.78
2555.44, 1880.91
2554.12, 1852.21
2552.8, 1844.32
2551.48, 1913.98
2550.16, 1773.71
2548.83, 1918.98
2547.51, 1835.48
2546.19, 1821.93
2544.87, 1804.61
2543.54, 1893.09
2542.22, 1834.2
2540.9, 1898.1
2539.57, 1850.56
2538.25, 1829.47
2536.92, 1823.49
2535.6, 1817.51
2534.27, 1875.69
2532.95, 1792.35
2531.62, 1803.36
2530.3, 1857.74
2528.97, 1885.7
2527.65, 1881.6
2526.32, 1869.96
2524.99, 1860.22
2523.67, 1829.74
2522.34, 1880.29
2521.01, 1840.41
2519.69, 1909.77
2518.36, 1847.3
2517.03, 1877.1
2515.7, 1833.48
2514.37, 1902.8
2513.04, 1847.89
2511.72, 1832.52
2510.39, 1817.15
2509.06, 1863.86
2507.73, 1857.89
2506.4, 1910.21
2505.07, 1908
2503.74, 1892.63
2502.41, 1935.52
2501.08, 1905.12
2499.75, 1916.06
2498.42, 1838.72
2497.08, 1898.49
2495.75, 1948.86
2494.42, 1948.52
2493.09, 1809.29
2491.76, 1914.06
2490.42, 1819.92
2489.09, 1902.14
2487.76, 1890.55
2486.43, 1895.85
2485.09, 1850.52
2483.76, 1807.08
2482.42, 1879.86
2481.09, 1858.92
2479.76, 1873.59
2478.42, 1867.64
2477.09, 1902.9
2475.75, 1865.12
2474.42, 1891
2473.08, 1813.92
2471.75, 1839.81
2470.41, 1897.5
2469.07, 1899.04
2467.74, 1795.82
2466.4, 1991.89
2465.06, 1916.75
2463.73, 1865.93
2462.39, 1949.73
2461.05, 1895.18
2459.71, 1924.75
2458.37, 1905.73
2457.04, 1860.57
2455.7, 1869.58
2454.36, 1908.47
2453.02, 1876.4
2451.68, 1941.4
2450.34, 1952.26
2449, 1936.99
2447.66, 1888.15
2446.32, 1895.28
2444.98, 1870.7
2443.64, 1952.42
2442.3, 1911.07
2440.96, 1955.47
2439.62, 1958.86
2438.28, 1923.11
2436.93, 1920.91
2435.59, 1874
2434.25, 1938.86
2432.91, 1908.73
2431.56, 1923.29
2430.22, 1980.66
2428.88, 1943.09
2427.53, 1903.67
2426.19, 1912.64
2424.85, 1884.41
2423.5, 1887.8
2422.16, 1959.99
2420.81, 1898.29
2419.47, 1912.83
2418.12, 1903.2
2416.78, 1919.59
2415.43, 1913.68
2414.09, 1985.8
2412.74, 1927.87
2411.39, 1973.96
2410.05, 1932.77
2408.7, 1912.01
2407.35, 1893.12
2406.01, 1954.02
2404.66, 1918.43
2403.31, 1895.83
2401.96, 1967.83
2400.62, 1930.4
2399.27, 1954.17
2397.92, 1909.34
2396.57, 1892.32
2395.22, 1947.58
2393.87, 1937.98
2392.52, 1983.95
2391.17, 1933.59
2389.82, 1883.26
2388.47, 1925.51
2387.12, 1890
2385.77, 1876.72
2384.42, 1911.55
2383.07, 1853.86
2381.72, 1927.52
2380.37, 1945.68
2379.01, 1958.28
2377.66, 1970.88
2376.31, 1874.41
2374.96, 1938.77
2373.6, 1918.11
2372.25, 1906.68
2370.9, 1965.46
2369.54, 1976.2
2368.19, 1911.22
2366.84, 1990.28
2365.48, 1951.16
2364.13, 1906.53
2362.77, 1876.67
2361.42, 2057.14
2360.06, 1911.06
2358.71, 1927.32
2357.35, 1971.24
2355.99, 1956.14
2354.64, 1944.74
2353.28, 1944.4
2351.92, 1945.9
2350.57, 1916.08
2349.21, 1943.37
2347.85, 1911.72
2346.5, 1927.96
2345.14, 1934.99
2343.78, 2004.6
2342.42, 1949.03
2341.06, 1897.17
2339.7, 1929.95
2338.34, 1879.94
2336.99, 1975.25
2335.63, 1943.64
2334.27, 2033.39
2332.91, 1983.4
2331.55, 1918.73
2330.18, 2074.58
2328.82, 2072.38
2327.46, 2048.13
2326.1, 2115.73
2324.74, 2076.79
2323.38, 2045.22
2322.02, 1986.12
2320.65, 2035.32
2319.29, 1968.91
2317.93, 1981.4
2316.57, 1960.88
2315.2, 1978.87
2313.84, 1973.02
2312.48, 1994.68
2311.11, 1932
2309.75, 2039.79
2308.38, 1962.48
2307.02, 1921.82
2305.65, 2000.25
2304.29, 2047.52
2302.92, 2030.68
2301.56, 1999.2
2300.19, 1907.32
2298.83, 1978.36
2297.46, 1985.33
2296.09, 2008.77
2294.73, 2006.58
2293.36, 2051.95
2291.99, 2073.53
2290.63, 2074.99
2289.26, 2025.28
2287.89, 2013.96
2286.52, 2046.49
2285.15, 2002.28
2283.78, 2060.38
2282.42, 1999.75
2281.05, 2017.66
2279.68, 2010
2278.31, 2044.33
2276.94, 2056.74
2275.57, 2027.19
2274.2, 2043.25
2272.83, 2053.83
2271.46, 1989.64
2270.08, 2022.11
2268.71, 2005.35
2267.34, 1957.6
2265.97, 2055.67
2264.6, 2055.31
2263.23, 2040.37
2261.85, 2067.33
2260.48, 2036.01
2259.11, 2026.55
2257.73, 1993.42
2256.36, 2065.87
2254.99, 1985.44
2253.61, 1986.91
2252.24, 2061.14
2250.86, 1998.94
2249.49, 2036.78
2248.11, 1980.05
2246.74, 2019.7
2245.36, 1937.55
2243.99, 1962.65
2242.61, 2074.95
2241.24, 1992.84
2239.86, 1981.59
2238.48, 2008.48
2237.11, 2009.94
2235.73, 1956.94
2234.35, 2009.23
2232.97, 1994.36
2231.6, 1894.21
2230.22, 1966.44
2228.84, 2033.2
2227.46, 2027.4
2226.08, 1979.91
2224.7, 2030.31
2223.32, 2004.58
2221.94, 1957.11
2220.56, 2012.93
2219.18, 1960.04
2217.8, 1990.49
2216.42, 2004.62
2215.04, 1969.87
2213.66, 2011.15
2212.28, 1980.03
2210.9, 2006.82
2209.52, 2013.71
2208.13, 1906.62
2206.75, 2009.38
2205.37, 1924.03
2203.99, 2010.47
2202.6, 2046.27
2201.22, 1998.92
2199.84, 2020.25
2198.45, 1915.1
2197.07, 1961.73
2195.69, 2019.18
2194.3, 1977.29
2192.92, 1924.58
2191.53, 2036.16
2190.15, 1952.78
2188.76, 2035.44
2187.37, 2011.62
2185.99, 1977
2184.6, 1973.04
2183.22, 1974.49
2181.83, 1921.86
2180.44, 2062.12
2179.06, 1971.64
2177.67, 1967.69
2176.28, 2037.6
2174.89, 2010.22
2173.5, 2015.27
2172.12, 1968.1
2170.73, 1920.94
2169.34, 1999.8
2167.95, 1927.46
2166.56, 1993.69
2165.17, 2025.72
2163.78, 1994.79
2162.39, 2017.81
2161, 1988.68
2159.61, 1950.58
2158.22, 1970
2156.83, 2002
2155.44, 2012.43
2154.04, 2035.43
2152.65, 1952.44
2151.26, 2070.62
2149.87, 2025.37
2148.48, 2035.78
2147.08, 1985.16
2145.69, 1934.56
2144.3, 2005.99
2142.9, 2048.69
2141.51, 1990.93
2140.11, 1983.4
2138.72, 1956.16
2137.33, 2068.75
2135.93, 2055.83
2134.54, 1967.66
2133.14, 2042.56
2131.75, 1999.21
2130.35, 2018.55
2128.95, 2046.85
2127.56, 1960.54
2126.16, 1996
2124.76, 2033.23
2123.37, 1979.18
2121.97, 2037.87
2120.57, 2039.3
2119.17, 1933.42
2117.78, 1993.87
2116.38, 1995.31
2114.98, 2062.88
2113.58, 1989.24
2112.18, 2038.92
2110.78, 2054.63
2109.38, 1982.82
2107.98, 1989.61
2106.58, 2010.68
2105.18, 1963.91
2103.78, 1922.5
2102.38, 1966.78
2100.98, 2027.1
2099.58, 1941.1
2098.18, 1937.19
2096.78, 1911.88
2095.37, 1986.43
2093.97, 1989.64
2092.57, 2003.55
2091.17, 1958.64
2089.76, 2009.96
2088.36, 2002.48
2086.96, 1921.97
2085.55, 2030.26
2084.15, 1967.58
2082.74, 1995.71
2081.34, 1975.78
2079.94, 1943.39
2078.53, 1980.41
2077.12, 2024.54
2075.72, 1992.16
2074.31, 1940.23
2072.91, 1913.22
2071.5, 2014.21
2070.09, 1972.97
2068.69, 2024.15
2067.28, 1990.03
2065.87, 1938.16
2064.47, 1975.12
2063.06, 1928.59
2061.65, 1965.53
2060.24, 1970.51
2058.83, 2014.53
2057.42, 2040.79
2056.02, 1937.52
2054.61, 1921.21
2053.2, 1984.72
2051.79, 1970.18
2050.38, 1953.87
2048.97, 1983.66
2047.56, 1935.45
2046.15, 1995.36
2044.73, 1975.51
2043.32, 1968.07
2041.91, 2017.31
2040.5, 1942.58
2039.09, 1972.33
2037.68, 2039.25
2036.26, 2003.49
2034.85, 2024.36
2033.44, 1958.54
2032.02, 1984.73
2030.61, 2025.05
2029.2, 1971.64
2027.78, 1927.09
2026.37, 1894.93
2024.95, 1937.01
2023.54, 1947.26
2022.12, 1897.45
2020.71, 1973.06
2019.29, 1978.01
2017.88, 2009.44
2016.46, 1954.35
2015.04, 1968.12
2013.63, 1983.66
2012.21, 1942.72
2010.79, 1922.97
2009.38, 1924.39
2007.96, 1932.86
2006.54, 1978.36
2005.12, 1939.22
2003.71, 1907.15
2002.29, 2054.84
2000.87, 1906.47
1999.45, 1892.03
1998.03, 1911.07
1996.61, 2005.83
1995.19, 1950.88
1993.77, 1955.82
1992.35, 1950.19
1990.93, 1911.12
1989.51, 1937.17
1988.09, 1961.46
1986.67, 1966.38
1985.24, 1886.9
1983.82, 1897.11
1982.4, 1931.93
1980.98, 1986.07
1979.55, 1899.61
1978.13, 1962.52
1976.71, 1995.54
1975.29, 1935.47
1973.86, 1966.73
1972.44, 1920.73
1971.01, 1955.5
1969.59, 1916.54
1968.16, 1930.23
1966.74, 1940.41
1965.31, 1929.54
1963.89, 1978.3
1962.46, 1962.17
1961.04, 1910.97
1959.61, 1919.39
1958.18, 1920.8
1956.76, 1927.47
1955.33, 1960.41
1953.9, 1961.81
1952.48, 1924.68
1951.05, 1943.6
1949.62, 1887.23
1948.19, 1899.14
1946.76, 1893.55
1945.33, 1917.71
1943.91, 1861.39
1942.48, 1878.54
1941.05, 1944.66
1939.62, 1967.04
1938.19, 1936.97
1936.76, 1913.9
1935.33, 1920.55
1933.89, 1942.92
1932.46, 1905.89
1931.03, 1903.8
1929.6, 1947.11
1928.17, 1924.07
1926.74, 1824.22
1925.3, 1937.34
1923.87, 1966.66
1922.44, 1882.56
1921.01, 1910.13
1919.57, 1904.56
1918.14, 1881.55
1916.7, 1851.57
1915.27, 1842.52
1913.84, 1927.59
1912.4, 1897.62
1910.97, 1939.09
1909.53, 1910.88
1908.1, 1927.95
1906.66, 1857.95
1905.22, 1927.26
1903.79, 1954.76
1902.35, 1919.6
1900.91, 1954.06
1899.48, 1918.92
1898.04, 1885.52
1896.6, 1855.62
1895.16, 1898.76
1893.73, 1893.2
1892.29, 1894.6
1890.85, 1882.09
1889.41, 1942.57
1887.97, 1924.85
1886.53, 1884.55
1885.09, 1833.85
1883.65, 1885.61
1882.21, 1916.52
1880.77, 1893.61
1879.33, 1893.27
1877.89, 1899.87
1876.45, 1882.18
1875.01, 1888.78
1873.57, 1930.06
1872.13, 1908.91
1870.68, 1866.96
1869.24, 1890.89
1867.8, 1897.48
1866.35, 1888.48
1864.91, 1924.52
1863.47, 1835.84
1862.02, 1844.17
1860.58, 1869.81
1859.14, 1890.24
1857.69, 1926.25
1856.25, 1893.02
1854.8, 1871.92
1853.36, 1890.61
1851.91, 1921.4
1850.47, 1857.08
1849.02, 1903.42
1847.57, 1961.85
1846.13, 1921.75
1844.68, 1886.84
1843.23, 1915.87
1841.78, 1836.07
1840.34, 1891.01
1838.89, 1830.23
1837.44, 1866.16
1835.99, 1907.24
1834.54, 1856.86
1833.1, 1811.66
1831.65, 1868.26
1830.2, 1897.25
1828.75, 1952.09
1827.3, 1948.29
1825.85, 1892.77
1824.4, 1926.9
1822.95, 1931.73
1821.49, 1927.93
1820.04, 1844.9
1818.59, 1904.85
1817.14, 1851.12
1815.69, 1849.07
1814.23, 1865.95
1812.78, 1879.38
1811.33, 1916.9
1809.88, 1882.14
1808.42, 1900.73
1806.97, 1872.87
1805.52, 1920.67
1804.06, 1858.44
1802.61, 1839.19
1801.15, 1921.35
1799.7, 1831.66
1798.24, 1838.2
1796.79, 1870.5
1795.33, 1866.73
1793.87, 1899.02
1792.42, 1848.89
1790.96, 1925.79
1789.5, 1817.33
1788.05, 1890.78
1786.59, 1941.9
1785.13, 1850.65
1783.68, 1853.75
1782.22, 1903.13
1780.76, 1902.79
1779.3, 1895.59
1777.84, 1840.41
1776.38, 1829.8
1774.92, 1839.75
1773.46, 1824
1772, 1849.36
1770.54, 1867.86
1769.08, 1845.27
1767.62, 1843.22
1766.16, 1803.53
1764.7, 1854.53
1763.24, 1826.83
1761.78, 1927.4
1760.31, 1874.04
1758.85, 1901.06
1757.39, 1914.39
1755.93, 1910.63
1754.46, 1893.19
1753, 1886.02
1751.54, 1771.24
1750.07, 1909.24
1748.61, 1919.14
1747.14, 1853.93
1745.68, 1848.47
1744.21, 1906.16
1742.75, 1943.35
1741.28, 1879.88
1739.82, 1876.13
1738.35, 1896.25
1736.88, 2008.43
1735.42, 1902.38
1733.95, 1879.88
1732.48, 1819.9
1731.02, 1906.46
1729.55, 1812.43
1728.08, 1905.77
1726.61, 1888.4
1725.14, 1915.3
1723.68, 1865.59
1722.21, 1865.25
1720.74, 1910.85
1719.27, 1934.32
1717.8, 1888.05
1716.33, 1911.51
1714.86, 1941.77
1713.39, 1917.62
1711.92, 1907.08
1710.45, 1905.03
1708.97, 1858.81
1707.5, 1912.84
1706.03, 1958.35
1704.56, 1859.5
1703.09, 1867.65
1701.61, 1933.52
1700.14, 1912.8
1698.67, 1932.82
1697.19, 1918.89
1695.72, 1882.92
1694.25, 1904.63
1692.77, 1900.89
1691.3, 1909.02
1689.82, 1891.73
1688.35, 1879.52
1686.87, 1870.71
1685.4, 1822.93
1683.92, 1934.39
1682.44, 1939.12
1680.97, 1918.45
1679.49, 1902.87
1678.01, 1872.06
1676.54, 1885.25
1675.06, 1952.59
1673.58, 1967.46
1672.1, 1997.55
1670.62, 2032.7
1669.15, 1971.47
1667.67, 2026.89
1666.19, 2090.75
1664.71, 2086.99
1663.23, 2103.51
1661.75, 2071.03
1660.27, 2106.12
1658.79, 2093.92
1657.31, 2046.27
1655.83, 2069.53
1654.34, 2121.47
1652.86, 2002.97
1651.38, 2112.26
1649.9, 2074.77
1648.42, 2035.6
1646.93, 2104.37
1645.45, 2103.98
1643.97, 2031.12
1642.48, 2027.38
1641, 2001.74
1639.52, 2068.76
1638.03, 2115.55
1636.55, 2046.12
1635.06, 2044.06
1633.58, 2026.85
1632.09, 2090.44
1630.61, 2041.26
1629.12, 2094.73
1627.64, 1942.95
1626.15, 2018.28
1624.66, 2088.54
1623.18, 2017.55
1621.69, 2039.03
1620.2, 2036.98
1618.71, 2024.85
1617.23, 2024.48
1615.74, 2050.99
1614.25, 1961.6
1612.76, 2013.3
1611.27, 1999.5
1609.78, 2041.1
1608.29, 1955.14
1606.8, 1926.26
1605.31, 1989.66
1603.82, 2001.04
1602.33, 1965.46
1600.84, 1970.13
1599.35, 1929.54
1597.86, 1952.65
1596.36, 1923.8
1594.87, 1968.69
1593.38, 1916.4
1591.89, 1939.5
1590.39, 1890.59
1588.9, 1942.14
1587.41, 1904.96
1585.91, 1876.16
1584.42, 1961.16
1582.93, 1929.02
1581.43, 1885.17
1579.94, 1896.54
1578.44, 1882.81
1576.95, 1912.56
1575.45, 1932.27
1573.95, 1923.56
1572.46, 1898.15
1570.96, 1972.98
1569.46, 1910.82
1567.97, 1922.16
1566.47, 1928.49
1564.97, 1863.03
1563.47, 1952.82
1561.98, 1925.76
1560.48, 1940.43
1558.98, 1941.74
1557.48, 1926.38
1555.98, 1926.03
1554.48, 1957.35
1552.98, 1933.66
1551.48, 1961.64
1549.98, 1961.28
1548.48, 1932.6
1546.98, 1960.56
1545.48, 1876.93
1543.98, 1924.88
1542.48, 1914.54
1540.97, 1985.76
1539.47, 1867.24
1537.97, 1960.08
1536.47, 1961.38
1534.96, 1934.41
1533.46, 1919.09
1531.96, 1922.07
1530.45, 1878.49
1528.95, 1876.49
1527.44, 1972.53
1525.94, 1950.57
1524.44, 1916.99
1522.93, 1979.75
1521.42, 2030.86
1519.92, 1970.72
1518.41, 1972.02
1516.91, 1978.3
1515.4, 1977.94
1513.89, 2037.3
1512.39, 1993.8
1510.88, 2082.99
1509.37, 2077.64
1507.86, 1934.68
1506.35, 1959.19
1504.85, 1977.06
1503.34, 1978.36
1501.83, 2006.16
1500.32, 2048.86
1498.81, 1934.22
1497.3, 1981.88
1495.79, 1870.6
1494.28, 1880.19
1492.77, 1833.51
1491.26, 1882.81
1489.74, 1856
1488.23, 1855.66
1486.72, 1838.78
1485.21, 1869.86
1483.7, 1813.31
1482.18, 1812.98
1480.67, 1865.53
1479.16, 1858.58
1477.64, 1800.42
1476.13, 1816.61
1474.62, 1770.04
1473.1, 1819.24
1471.59, 1799.1
1470.07, 1816.93
1468.56, 1805.04
1467.04, 1864.1
1465.53, 1792.84
1464.01, 1817.24
1462.49, 1848.24
1460.98, 1783.61
1459.46, 1857.45
1457.94, 1784.6
1456.43, 1818.87
1454.91, 1876.19
1453.39, 1854.44
1451.87, 1806.34
1450.35, 1804.37
1448.83, 1789.22
1447.32, 1816.87
1445.8, 1857.67
1444.28, 1839.23
1442.76, 1806
1441.24, 1787.58
1439.72, 1859.6
1438.19, 1805
1436.67, 1788.24
1435.15, 1833.92
1433.63, 1848.37
1432.11, 1800.39
1430.59, 1867.4
1429.06, 1783.31
1427.54, 1802.69
1426.02, 1789.22
1424.5, 1803.66
1422.97, 1864.05
1421.45, 1760.35
1419.92, 1786.27
1418.4, 1853.18
1416.87, 1820.04
1415.35, 1765.61
1413.82, 1809.54
1412.3, 1802.65
1410.77, 1805.6
1409.25, 1797.07
1407.72, 1822.95
1406.19, 1719.45
1404.67, 1789.53
1403.14, 1872.69
1401.61, 1801.97
1400.08, 1768.91
1398.56, 1770.22
1397.03, 1773.17
1395.5, 1776.11
1393.97, 1772.51
1392.44, 1772.19
1390.91, 1724.46
1389.38, 1800.95
1387.85, 1753.24
1386.32, 1770.88
1384.79, 1785.26
1383.26, 1791.46
1381.73, 1812.36
1380.2, 1733.66
1378.67, 1736.61
1377.13, 1765.66
1375.6, 1739.23
1374.07, 1766.64
1372.54, 1779.37
1371, 1726.86
1369.47, 1757.52
1367.94, 1773.49
1366.4, 1755.24
1364.87, 1761.43
1363.33, 1780.66
1361.8, 1739.61
1360.26, 1833.74
1358.73, 1737.34
1357.19, 1828.18
1355.66, 1676.48
1354.12, 1764.04
1352.58, 1757.21
1351.05, 1730.86
1349.51, 1784.21
1347.97, 1728.59
1346.43, 1754.29
1344.9, 1723.08
1343.36, 1771.52
1341.82, 1759.82
1340.28, 1764.37
1338.74, 1712.06
1337.2, 1740.98
1335.66, 1719.55
1334.12, 1751.7
1332.58, 1743.26
1331.04, 1712.1
1329.5, 1799.41
1327.96, 1807.18
1326.42, 1756.57
1324.88, 1783.81
1323.34, 1752.68
1321.79, 1736.14
1320.25, 1834.69
1318.71, 1777.64
1317.17, 1817.81
1315.62, 1759.16
1314.08, 1789.61
1312.53, 1824.9
1310.99, 1808.37
1309.45, 1788.61
1307.9, 1846.54
1306.36, 1742.65
1304.81, 1842.63
1303.26, 1818.02
1301.72, 1861.35
1300.17, 1810.88
1298.63, 1834.8
1297.08, 1803.75
1295.53, 1811.5
1293.98, 1801.47
1292.44, 1805.98
1290.89, 1766.88
1289.34, 1779.48
1287.79, 1756.54
1286.24, 1817.56
1284.69, 1801.08
1283.15, 1829.79
1281.6, 1848.81
1280.05, 1737.18
1278.5, 1782.01
1276.95, 1815.54
1275.39, 1855.51
1273.84, 1818.09
1272.29, 1767.8
1270.74, 1796.47
1269.19, 1796.14
1267.64, 1731.38
1266.08, 1689.2
1264.53, 1761.33
1262.98, 1743.3
1261.42, 1741.37
1259.87, 1753.92
1258.32, 1755.2
1256.76, 1737.18
1255.21, 1698.26
1253.65, 1685.09
1252.1, 1774.8
1250.54, 1716.61
1248.99, 1753.25
1247.43, 1743.29
1245.87, 1715.65
1244.32, 1708.91
1242.76, 1719.83
1241.2, 1687.41
1239.65, 1724.01
1238.09, 1770.24
1236.53, 1721.77
1234.97, 1681.34
1233.41, 1729.15
1231.86, 1683.92
1230.3, 1720.49
1228.74, 1720.17
1227.18, 1729.47
1225.62, 1733.96
1224.06, 1716.01
1222.5, 1718.9
1220.94, 1718.58
1219.37, 1691.03
1217.81, 1732.35
1216.25, 1720.82
1214.69, 1746.11
1213.13, 1753.79
1211.56, 1651.07
1210, 1717.94
1208.44, 1685.64
1206.87, 1758.88
1205.31, 1732.97
1203.75, 1707.08
1202.18, 1743.52
1200.62, 1669.69
1199.05, 1674.18
1197.49, 1731.36
1195.92, 1707.09
1194.36, 1794.59
1192.79, 1706.45
1191.22, 1758.81
1189.66, 1744.12
1188.09, 1818.78
1186.52, 1694.02
1184.95, 1736.77
1183.39, 1798.63
1181.82, 1790.32
1180.25, 1716.67
1178.68, 1751.41
1177.11, 1797.29
1175.54, 1824.04
1173.97, 1814.14
1172.4, 1834.51
1170.83, 1746.6
1169.26, 1846.56
1167.69, 1819.16
1166.12, 1845.87
1164.55, 1882.12
1162.98, 1845.19
1161.41, 1828.94
1159.83, 1819.06
1158.26, 1923.64
1156.69, 1827.92
1155.12, 1851.41
1153.54, 1852.66
1151.97, 1811.01
1150.39, 1899.62
1148.82, 1878.62
1147.25, 1867.16
1145.67, 1873.16
1144.1, 1828.37
1142.52, 1842.31
1140.94, 1908.6
1139.37, 1865.42
1137.79, 1923.75
1136.22, 1948.76
1134.64, 1946.81
1133.06, 1873.54
1131.48, 1965.1
1129.91, 1952.06
1128.33, 1940.61
1126.75, 1952.92
1125.17, 1965.22
1123.59, 1880.94
1122.01, 1912.25
1120.43, 1979.95
1118.85, 1938.44
1117.27, 1966.56
1115.69, 1926.64
1114.11, 1894.65
1112.53, 1970.2
1110.95, 2007.77
1109.37, 2039.01
1107.79, 2040.21
1106.2, 2065.11
1104.62, 2026.81
1103.04, 2129.1
1101.45, 2157.12
1099.87, 2199.35
1098.29, 2299.97
1096.7, 2327.95
1095.12, 2475.84
1093.53, 2590.55
1091.95, 2662.63
1090.36, 2750.45
1088.78, 2879.23
1087.19, 2987.47
1085.61, 3083.06
1084.02, 3125.03
1082.43, 3193.78
1080.85, 3286.13
1079.26, 3263.46
1077.67, 3406.15
1076.08, 3745.59
1074.5, 4130.56
1072.91, 4672.77
1071.32, 5633.34
1069.73, 6812.23
1068.14, 8045.74
1066.55, 9368.43
1064.96, 9849.39
1063.37, 9734.36
1061.78, 8984.37
1060.19, 7951.78
1058.6, 6773.46
1057.01, 5752.68
1055.41, 5211.31
1053.82, 4703.12
1052.23, 4473.01
1050.64, 4357.59
1049.04, 4218.66
1047.45, 4363.8
1045.86, 4530.85
1044.26, 4748.03
1042.67, 5093.73
1041.08, 5511.43
1039.48, 6189.2
1037.89, 6866.72
1036.29, 7934.19
1034.7, 9349.09
1033.1, 11294.5
1031.5, 13568.1
1029.91, 16514.2
1028.31, 20104.2
1026.71, 23447.1
1025.12, 25325.5
1023.52, 25533.5
1021.92, 23940.8
1020.32, 21195.9
1018.72, 17776.5
1017.12, 14617.8
1015.52, 11751.2
1013.93, 9657.69
1012.33, 7918.17
1010.73, 6852.69
1009.12, 5748.56
1007.52, 5139.93
1005.92, 4692.37
1004.32, 4321.48
1002.72, 4024.09
1001.12, 3822.01
999.516, 3591.93
997.914, 3491.41
996.311, 3305.14
994.708, 3362.22
993.104, 3302.34
991.5, 3398.37
989.896, 3416.44
988.292, 3647.98
986.688, 3926.18
985.083, 4285.28
983.477, 4709.65
981.872, 5043.55
980.266, 5210.74
978.66, 5225.33
977.054, 4899.09
975.447, 4614.98
973.84, 4245.42
972.232, 4079.76
970.625, 3954.58
969.017, 3784.37
967.409, 3600.23
965.8, 3475.21
964.191, 3393.76
962.582, 3391.56
960.973, 3381.61
959.363, 3508.32
957.753, 3526.29
956.143, 3642.06
954.532, 3695.71
952.921, 3629.83
951.31, 3751.72
949.698, 3647.08
948.086, 3658.8
946.474, 3831.8
944.862, 3948.91
943.249, 4073.72
941.636, 4303.88
940.022, 4599.03
938.409, 5014.92
936.795, 5731.14
935.18, 6502.85
933.566, 7865.74
931.951, 9449.5
930.336, 11874.7
928.72, 14866.8
927.104, 18178.2
925.488, 20937.5
923.872, 22064.2
922.255, 21416.7
920.638, 19305.4
919.021, 16150
917.403, 13028.2
915.785, 10460.8
914.167, 8109.07
912.548, 6742.13
910.93, 5500.79
909.31, 4695.32
907.691, 4070.78
906.071, 3679.52
904.451, 3283.79
902.831, 3020.89
901.21, 2827.5
899.589, 2711.29
897.968, 2582.8
896.346, 2549.94
894.724, 2512.46
893.102, 2394.87
891.479, 2374.38
889.857, 2272.26
888.233, 2270.29
886.61, 2183.63
884.986, 2200.15
883.362, 2224.37
881.738, 2160.85
880.113, 2137.36
878.488, 2135.41
876.863, 2151.93
875.237, 2011.58
873.611, 2014.27
871.985, 2055.4
870.359, 2084.22
868.732, 1990.08
867.105, 1952.83
865.477, 2076.89
863.85, 1984.35
862.222, 1960.94
860.593, 1945.21
858.965, 1949.45
857.336, 1935.27
855.706, 1941.04
854.077, 1948.35
852.447, 1909.63
850.817, 1946.08
849.186, 1961.04
847.555, 1923.88
845.924, 1925.05
844.293, 1936.94
842.661, 1869.17
841.029, 1873.41
839.397, 1883.77
837.764, 1875.76
836.131, 1866.22
834.498, 1833.73
832.864, 1833.38
831.23, 1953.91
829.596, 1860.22
827.961, 1882.81
826.327, 1935.98
824.691, 1869.87
823.056, 1897.03
821.42, 1892.09
819.784, 1916.18
818.148, 1917.34
816.511, 1878.79
814.874, 1852.47
813.237, 1975.8
811.599, 1909.78
809.961, 1955.21
808.323, 1904.48
806.684, 1997.19
805.046, 1961.73
803.406, 2001.01
801.767, 2025.03
800.127, 2010.93
798.487, 2071.52
796.847, 2054.36
795.206, 2095.11
793.565, 2122.14
791.923, 2141.53
790.282, 2215.75
788.64, 2230.55
786.998, 2225.56
785.355, 2251.02
783.712, 2224.72
782.069, 2269.94
780.425, 2225.4
778.781, 2217.37
777.137, 2264.09
775.493, 2208.93
773.848, 2244.99
772.203, 2258.24
770.558, 2379.36
768.912, 2375.88
767.266, 2469.59
765.62, 2601.23
763.973, 2684.24
762.326, 2703.47
760.679, 2628.59
759.031, 2534.01
757.383, 2327.21
755.735, 2269.13
754.086, 2145.86
752.438, 2143.94
750.788, 2084.41
749.139, 1996.11
747.489, 2018.46
745.839, 2042.31
744.189, 2038.9
742.538, 2044.57
740.887, 2016.92
739.236, 2052.87
737.584, 2043.4
735.932, 2079.33
734.28, 2041.11
732.627, 2008.96
730.974, 2026.73
729.321, 2064.14
727.667, 2078.87
726.014, 2102.66
724.359, 2096.22
722.705, 2148.71
721.05, 2151.32
719.395, 2155.44
717.74, 2275.85
716.084, 2221.06
714.428, 2273.47
712.771, 2244.36
711.115, 2274.11
709.458, 2246.52
707.8, 2240.06
706.143, 2227.57
704.485, 2225.64
702.827, 2193.56
701.168, 2176.56
699.509, 2183.68
697.85, 2175.73
696.19, 2225.03
694.53, 2208.04
692.87, 2240.75
691.21, 2270.43
689.549, 2241.4
687.888, 2287.63
686.227, 2260.11
684.565, 2273.22
682.903, 2352.5
681.24, 2267.84
679.578, 2309.51
677.915, 2298.54
676.251, 2284.58
674.588, 2414.88
672.924, 2327.28
671.259, 2379.41
669.595, 2490.1
667.93, 2512.14
666.265, 2546.2
664.599, 2682.3
662.933, 2689.29
661.267, 2774.31
659.601, 2922.29
657.934, 3100.22
656.267, 3255.58
654.599, 3580.31
652.931, 3960.37
651.263, 4460.19
649.595, 5252.01
647.926, 6209.82
646.257, 7514.77
644.588, 8738.36
642.918, 9567.69
641.248, 9848.79
639.578, 9427.83
637.907, 8480.29
636.236, 7310.18
634.565, 6269.16
632.893, 5256.95
631.221, 4417.09
629.549, 3970.73
627.877, 3567.9
626.204, 3268.33
624.531, 3037.6
622.857, 2786.06
621.183, 2724.29
619.509, 2740.19
617.835, 2602.31
616.16, 2552.55
614.485, 2471.48
612.809, 2530.69
611.133, 2434.73
609.457, 2411.89
607.781, 2378.62
606.104, 2440.78
604.427, 2319.57
602.75, 2331.05
601.072, 2309.74
599.394, 2316.75
597.716, 2265.66
596.037, 2335.22
594.358, 2278.19
592.679, 2306.04
590.999, 2257.97
589.32, 2241.17
587.639, 2233.3
585.959, 2259.65
584.278, 2211.63
582.597, 2267.71
580.915, 2175.1
579.233, 2246.03
577.551, 2254.52
575.869, 2161.96
574.186, 2207.6
572.503, 2254.71
570.819, 2251.31
569.135, 2246.42
567.451, 2146.53
565.767, 2217.36
564.082, 2157.58
562.397, 2204.64
560.712, 2220.54
559.026, 2202.32
557.34, 2181.14
555.653, 2174.79
553.967, 2178.82
552.28, 2218.41
550.592, 2183.91
548.905, 2340.51
547.217, 2200.84
545.528, 2284.83
543.84, 2210.36
542.151, 2214.38
540.461, 2224.32
538.772, 2247.56
537.082, 2199.79
535.392, 2323.61
533.701, 2275.85
532.01, 2337.51
530.319, 2337.06
528.627, 2332.18
526.936, 2346.5
525.243, 2431.74
523.551, 2426.84
521.858, 2538.61
520.165, 2538.13
518.471, 2571.59
516.777, 2602.09
515.083, 2769.82
513.389, 2857.81
511.694, 3218.66
509.999, 3508.58
508.303, 3845.57
506.608, 4108.73
504.912, 4037.19
503.215, 3881.67
501.518, 3712.96
499.821, 3290.94
498.124, 3054.65
496.426, 2911.23
494.728, 2850.3
493.03, 2877.72
491.331, 2888.95
489.632, 3089.97
487.933, 3271.8
486.233, 3416.79
484.533, 3738.18
482.832, 4050.63
481.132, 4130.71
479.431, 4112.27
477.729, 3913.11
476.028, 3534.78
474.326, 3282.93
472.623, 3057.6
470.921, 2807.4
469.218, 2698.23
467.515, 2590.56
465.811, 2650.23
464.107, 2677.6
462.403, 2568.53
460.698, 2597.37
458.993, 2473.7
457.288, 2455.63
455.582, 2376
453.876, 2333.05
452.17, 2401.46
450.464, 2370.24
448.757, 2469.38
447.049, 2512.83
445.342, 2565.05
443.634, 2602.62
441.926, 2747
440.217, 2867.92
438.508, 2882
436.799, 2812.7
435.09, 2768.28
433.38, 2636.16
431.669, 2564.03
429.959, 2562.07
428.248, 2495.82
426.537, 2457.35
424.825, 2475.87
423.113, 2422.82
421.401, 2473.45
419.689, 2452.54
417.976, 2473.96
416.263, 2590.22
414.549, 2646.63
412.835, 2786.15
411.121, 2895
409.407, 2852.15
407.692, 2928.87
405.977, 2840.85
404.261, 2773.26
402.545, 2691.13
400.829, 2671.68
399.113, 2703.2
397.396, 2670.65
395.679, 2758.94
393.961, 2768.6
392.244, 2792.8
390.525, 2859.2
388.807, 2832.46
387.088, 2901.73
385.369, 3055.31
383.65, 3288.81
381.93, 3488.78
380.21, 3595.65
378.489, 3673.42
376.768, 3602.98
375.047, 3509.32
373.326, 3431.67
371.604, 3362.77
369.882, 3391.15
368.159, 3285.99
366.437, 3427.57
364.713, 3428.36
362.99, 3662.69
361.266, 3824.41
359.542, 3962.87
357.818, 4268
356.093, 4626.63
354.368, 5189.46
352.642, 5750.63
350.916, 6563.63
349.19, 7374.87
347.464, 7829.58
345.737, 7822.27
344.01, 7505.21
342.282, 7309.83
340.555, 7299.73
338.827, 7768.48
337.098, 8283.33
335.369, 9256.38
333.64, 10161.1
331.911, 11169.6
330.181, 11583.6
328.451, 11225.9
326.72, 10400.3
324.989, 9231.19
323.258, 8227.18
321.527, 7106.6
319.795, 6249.19
318.063, 5789.02
316.33, 5502.18
314.597, 5544.39
312.864, 5632.75
311.131, 5693.67
309.397, 5668.06
307.663, 5491.08
305.928, 5191.66
304.193, 4795.81
302.458, 4568.68
300.723, 4430.94
298.987, 4215.49
297.251, 4098.04
295.514, 4025.26
293.777, 3964.03
292.04, 3868.28
290.302, 3850.26
288.565, 3823.62
286.826, 3597.08
285.088, 3632.33
283.349, 3549.67
281.61, 3410.99
279.87, 3440.51
278.13, 3434.09
276.39, 3439.17
274.649, 3424.14
272.908, 3452.2
271.167, 3491.73
269.426, 3478.13
267.684, 3487.5
265.941, 3730.76
264.199, 3778.81
262.456, 3910.04
260.713, 4196.09
258.969, 4552.29
257.225, 5015.86
255.481, 5423.36
253.736, 5903.78
251.991, 6348.19
250.246, 6285.37
248.5, 6060.73
246.754, 5879.14
245.008, 5538.72
243.261, 5146.9
241.514, 4758.1
239.767, 4586.92
238.019, 4495.91
236.271, 4376.33
234.522, 4298.26
232.774, 4360.33
231.025, 4390.92
229.275, 4451.52
227.526, 4526.38
225.775, 4744.06
224.025, 4817.4
222.274, 5110.62
220.523, 5442.27
218.772, 5760.95
217.02, 6330.67
215.268, 6941.55
213.515, 7590.71
211.763, 8084.15
210.009, 8417.69
208.256, 8277.75
206.502, 8102.24
204.748, 7563.37
202.993, 7051.78
201.238, 6409.33
199.483, 5930.93
197.728, 5469.81
195.972, 5369.08
194.216, 5020.69
192.459, 4844.66
190.702, 4816.68
188.945, 4778.75
187.187, 4767.86
185.429, 4903.45
183.671, 5004.87
181.912, 4989.68
180.153, 5172.05
178.394, 4955.05
176.634, 4917.14
174.874, 4772.72
173.114, 4574.38
171.353, 4606.15
169.592, 4666.29
167.831, 4678.16
166.069, 4736.84
164.307, 5014
162.545, 5150.62
160.782, 5548.14
159.019, 5941.25
157.255, 6544.02
155.492, 7451.3
153.728, 8652.98
151.963, 10266.5
150.198, 11954.5
148.433, 13629
146.668, 14324.5
144.902, 14139
143.136, 13183.7
141.369, 11990.9
139.602, 10483.1
137.835, 9342.27
136.067, 8443.74
134.299, 7910.39
132.531, 7391.39
130.762, 7175.09
128.994, 7160.97
127.224, 7285.32
125.455, 7433.65
123.685, 7843.21
121.914, 8249.79
120.143, 9058.59
118.372, 9666.63
116.601, 10212.3
114.829, 10827
113.057, 11125.3
111.285, 11357.3
109.512, 11446.7
107.739, 11680
105.965, 12313.4
104.192, 13101.7
102.417, 14447.7
100.643, 17527.4
98.8681, 23214.5
97.0929, 31279.5
95.3173, 38254.3
93.5414, 39951.5
91.7652, 35901.5
89.9886, 28301.3
88.2116, 21286.5
86.4344, 16304.3
84.6567, 12941.3
82.8787, 10997
81.1004, 9362.67
79.3217, 8413.51
77.5427, 7771.06
75.7633, 7381.76
73.9835, 7103.59
72.2035, 6930.86
70.423, 6762.4
68.6422, 6692.29
66.8611, 6529.56
65.0796, 6455.31
63.2978, 6458.25
61.5156, 6601.47
59.7331, 6478.16
57.9502, 6573.64
56.167, 6576.56
54.3834, 6509.39
52.5995, 6403.01
50.8152, 6565.68
49.0306, 6738.1
##END=



