##NAMES=Sodalite
##RRUFFID=R060435
##IDEAL CHEMISTRY=Na_4_Si_3_Al_3_O_12_Cl
##LOCALITY=Koksha Valley, Badakshan Province, Afghanistan
##OWNER=RRUFF
##SOURCE=Herb Obodda
##DESCRIPTION=Pale purple fragment
##STATUS=The identification of this mineral has been confirmed by X-ray diffraction and chemical analysis
##URL=rruff.info/R060435
##MEASURED CHEMISTRY=(Na_0.99_K_0.01_)_8_Al_6.00_Si_6.00_O_24_Cl_2_
##PIN_ID=L00857
##ORIENTATION=Laser parallel to a* (1 0 0). Fiducial mark perpendicular to laser is parallel to b [0 1 0]
69.76100, 361025.0
71.00100, 362858.0
72.24000, 366087.0
73.47900, 367569.0
74.71800, 369428.0
75.95700, 371033.0
77.19600, 371923.0
78.43500, 373751.0
79.67300, 375504.0
80.91200, 375851.0
82.15000, 377419.0
83.38800, 378748.0
84.62600, 379104.0
85.86300, 381038.0
87.10100, 382661.0
88.33800, 382866.0
89.57500, 383454.0
90.81200, 385150.0
92.04900, 385760.0
93.28600, 386999.0
94.52300, 388199.0
95.75900, 389313.5
96.99500, 390525.0
98.23100, 391835.0
99.46700, 393086.0
100.7030, 394200.0
101.9390, 394917.0
103.1740, 397042.0
104.4090, 397078.0
105.6440, 398610.0
106.8790, 399679.0
108.1140, 401452.0
109.3490, 401965.0
110.5830, 403122.0
111.8180, 404603.0
113.0520, 405263.0
114.2860, 406572.0
115.5200, 407784.0
116.7530, 407208.0
117.9870, 407867.0
119.2200, 407554.0
120.4530, 408813.0
121.6860, 410685.0
122.9190, 411263.0
124.1520, 412631.3
125.3850, 413140.0
126.6170, 414339.0
127.8490, 415296.0
129.0810, 415388.0
130.3130, 417180.0
131.5450, 417774.0
132.7770, 418344.0
134.0080, 419724.0
135.2390, 420352.0
136.4710, 421117.0
137.7020, 422998.0
138.9320, 423288.0
140.1630, 423419.0
141.3930, 423935.0
142.6240, 425754.0
143.8540, 427354.0
145.0840, 428231.0
146.3140, 429523.0
147.5440, 430232.0
148.7730, 431962.0
150.0020, 432718.0
151.2320, 433870.0
152.4610, 434121.0
153.6900, 435392.0
154.9180, 437062.0
156.1470, 437137.0
157.3750, 439223.0
158.6040, 441422.0
159.8320, 442992.0
161.0600, 444382.0
162.2870, 446744.0
163.5150, 449825.0
164.7420, 451602.0
165.9700, 452675.0
167.1970, 453524.0
168.4240, 453498.0
169.6510, 452778.0
170.8770, 450280.0
172.1040, 451549.0
173.3300, 450287.0
174.5560, 451035.0
175.7820, 451548.0
177.0080, 450682.0
178.2340, 451827.0
179.4590, 450929.0
180.6850, 452208.0
181.9100, 452854.0
183.1350, 452922.0
184.3600, 453545.0
185.5850, 454541.0
186.8090, 455000.0
188.0340, 455514.0
189.2580, 456078.0
190.4820, 456640.0
191.7060, 458191.0
192.9300, 459316.0
194.1530, 459615.0
195.3770, 460152.0
196.6000, 460511.0
197.8230, 461560.0
199.0460, 462288.7
200.2690, 463941.0
201.4910, 464451.0
202.7140, 465371.0
203.9360, 466916.0
205.1580, 466782.0
206.3800, 467428.0
207.6020, 469736.0
208.8240, 469346.0
210.0450, 470617.0
211.2670, 470993.0
212.4880, 471532.0
213.7090, 472275.0
214.9300, 472761.0
216.1510, 473430.0
217.3710, 475066.0
218.5920, 476211.0
219.8120, 476723.0
221.0320, 477405.0
222.2520, 478450.0
223.4720, 479836.0
224.6910, 480372.0
225.9110, 481239.0
227.1300, 482707.0
228.3490, 482605.0
229.5680, 484497.0
230.7870, 485309.0
232.0050, 485957.0
233.2240, 487075.0
234.4420, 487541.6
235.6600, 488045.0
236.8780, 488636.0
238.0960, 490124.0
239.3140, 490681.0
240.5310, 492113.0
241.7490, 493038.6
242.9660, 493619.0
244.1830, 495196.0
245.4000, 496264.0
246.6160, 497747.0
247.8330, 499160.0
249.0490, 500640.8
250.2660, 502377.0
251.4820, 503898.0
252.6980, 506076.0
253.9130, 507906.0
255.1290, 509348.0
256.3440, 512477.0
257.5600, 514459.0
258.7750, 517574.0
259.9900, 518537.0
261.2040, 520746.0
262.4190, 522647.0
263.6330, 523282.0
264.8480, 524191.0
266.0620, 523872.0
267.2760, 523631.0
268.4900, 522736.0
269.7030, 522196.0
270.9170, 520096.0
272.1300, 521108.0
273.3430, 519746.0
274.5560, 518783.0
275.7690, 519570.0
276.9820, 518746.0
278.1940, 519176.0
279.4070, 519031.0
280.6190, 519767.0
281.8310, 519524.0
283.0430, 520859.0
284.2550, 521646.0
285.4660, 521695.0
286.6770, 522659.0
287.8890, 523396.0
289.1000, 525183.0
290.3110, 525175.0
291.5210, 527814.0
292.7320, 528173.0
293.9420, 529007.0
295.1530, 530107.0
296.3630, 531179.0
297.5730, 531110.0
298.7830, 530791.0
299.9920, 529357.0
301.2020, 530625.0
302.4110, 530343.0
303.6200, 531103.0
304.8290, 530824.0
306.0380, 531852.0
307.2470, 531750.0
308.4550, 532431.0
309.6630, 533146.2
310.8720, 533190.0
312.0800, 534597.0
313.2880, 535249.0
314.4950, 535939.0
315.7030, 535944.0
316.9100, 537275.0
318.1170, 537224.0
319.3240, 538874.0
320.5310, 538893.0
321.7380, 540302.0
322.9450, 540192.0
324.1510, 540203.0
325.3570, 542715.0
326.5630, 543447.0
327.7690, 543178.0
328.9750, 543562.0
330.1810, 545060.0
331.3860, 546438.0
332.5910, 546550.0
333.7960, 546699.0
335.0010, 547828.0
336.2060, 548074.0
337.4110, 549406.0
338.6150, 549490.0
339.8200, 551622.0
341.0240, 552962.0
342.2280, 552221.0
343.4320, 552888.0
344.6350, 554721.0
345.8390, 554032.0
347.0420, 554839.0
348.2450, 557009.0
349.4480, 556557.0
350.6510, 557001.0
351.8540, 558313.0
353.0560, 558335.0
354.2590, 559471.0
355.4610, 560577.0
356.6630, 560821.0
357.8650, 561382.0
359.0670, 562734.0
360.2680, 563977.0
361.4700, 564402.0
362.6710, 564335.0
363.8720, 566643.0
365.0730, 566108.0
366.2740, 567009.0
367.4740, 567539.0
368.6750, 567578.0
369.8750, 568593.0
371.0750, 569358.0
372.2750, 570561.0
373.4750, 571185.0
374.6740, 571511.0
375.8740, 572092.0
377.0730, 573021.0
378.2720, 573650.0
379.4710, 574483.2
380.6700, 575067.0
381.8690, 576128.9
383.0670, 576714.0
384.2660, 577502.0
385.4640, 577991.0
386.6620, 578381.0
387.8600, 579997.0
389.0570, 579682.0
390.2550, 581503.0
391.4520, 581093.0
392.6490, 583298.0
393.8460, 581816.0
395.0430, 583146.0
396.2400, 585048.0
397.4370, 584770.0
398.6330, 586065.0
399.8290, 587370.0
401.0250, 587604.0
402.2210, 588056.0
403.4170, 589332.0
404.6130, 590229.0
405.8080, 592050.0
407.0030, 592516.0
408.1980, 594242.0
409.3930, 596249.0
410.5880, 596252.0
411.7830, 596953.0
412.9770, 596863.0
414.1720, 597421.0
415.3660, 600004.0
416.5600, 598392.0
417.7530, 600356.0
418.9470, 600875.0
420.1410, 600570.0
421.3340, 601843.0
422.5270, 603439.0
423.7200, 602167.0
424.9130, 603834.0
426.1060, 603416.0
427.2980, 605595.0
428.4900, 606055.0
429.6830, 606148.0
430.8750, 606952.0
432.0670, 608139.0
433.2580, 608518.0
434.4500, 609815.0
435.6410, 611416.0
436.8320, 613273.0
438.0240, 612618.0
439.2140, 614154.0
440.4050, 615263.0
441.5960, 617489.0
442.7860, 618016.0
443.9760, 619781.0
445.1670, 619599.0
446.3560, 623692.0
447.5460, 627036.0
448.7360, 627693.0
449.9250, 631200.0
451.1150, 635970.0
452.3040, 640506.0
453.4930, 646042.0
454.6810, 653912.0
455.8700, 662024.0
457.0590, 671000.0
458.2470, 683180.0
459.4350, 695241.0
460.6230, 709174.0
461.8110, 721227.0
462.9980, 728807.0
464.1860, 732130.0
465.3730, 727049.0
466.5600, 718481.0
467.7470, 706209.0
468.9340, 694498.0
470.1210, 682009.0
471.3080, 673710.0
472.4940, 664542.0
473.6800, 659515.0
474.8660, 656337.0
476.0520, 652231.0
477.2380, 650401.0
478.4230, 647887.0
479.6090, 647771.0
480.7940, 646205.0
481.9790, 645898.0
483.1640, 644682.0
484.3490, 645630.0
485.5330, 645888.0
486.7180, 646304.0
487.9020, 645154.0
489.0860, 645359.0
490.2700, 646527.0
491.4540, 645920.0
492.6370, 646847.0
493.8210, 646183.0
495.0040, 648222.0
496.1870, 647440.0
497.3700, 648351.0
498.5530, 648877.0
499.7360, 649002.0
500.9180, 648995.0
502.1000, 650235.0
503.2830, 649807.0
504.4650, 649138.0
505.6460, 650164.0
506.8280, 650730.0
508.0100, 650838.0
509.1910, 651665.0
510.3720, 652181.0
511.5530, 652480.5
512.7340, 653138.0
513.9150, 653477.0
515.0950, 653981.0
516.2760, 655094.0
517.4560, 656148.0
518.6360, 656746.0
519.8160, 655888.0
520.9950, 658262.0
522.1750, 656752.0
523.3540, 658549.0
524.5340, 658039.0
525.7130, 659146.0
526.8920, 660329.0
528.0700, 659235.0
529.2490, 661879.0
530.4270, 661102.0
531.6060, 661890.0
532.7840, 662983.0
533.9620, 663855.0
535.1390, 664665.7
536.3170, 665325.5
537.4940, 665952.0
538.6720, 666256.0
539.8490, 666207.0
541.0260, 666317.0
542.2030, 668362.0
543.3790, 667230.0
544.5560, 669347.0
545.7320, 669153.0
546.9080, 668437.0
548.0840, 670380.0
549.2600, 671130.0
550.4360, 671057.0
551.6110, 671713.0
552.7860, 673329.0
553.9620, 672714.0
555.1370, 674942.0
556.3110, 674499.0
557.4860, 675315.0
558.6610, 676334.0
559.8350, 675355.0
561.0090, 677498.0
562.1830, 676425.0
563.3570, 677807.0
564.5310, 677957.0
565.7040, 678566.0
566.8780, 679504.0
568.0510, 679764.0
569.2240, 680196.0
570.3970, 681309.0
571.5700, 682115.0
572.7420, 681452.0
573.9150, 681475.0
575.0870, 683288.0
576.2590, 683684.0
577.4310, 684440.0
578.6030, 684365.0
579.7740, 684580.0
580.9460, 685127.0
582.1170, 685679.6
583.2880, 687215.0
584.4590, 687108.0
585.6300, 688555.0
586.8010, 688890.0
587.9710, 691203.0
589.1410, 691795.0
590.3110, 690741.0
591.4810, 691323.0
592.6510, 693429.0
593.8210, 693226.0
594.9900, 695810.0
596.1600, 695922.0
597.3290, 695638.0
598.4980, 695829.0
599.6670, 696011.4
600.8350, 696311.9
602.0040, 696768.0
603.1720, 697516.0
604.3400, 698330.0
605.5080, 699527.0
606.6760, 699090.0
607.8440, 700983.0
609.0120, 700660.0
610.1790, 701094.0
611.3460, 702587.0
612.5130, 700973.0
613.6800, 702399.0
614.8470, 702152.0
616.0130, 702861.0
617.1800, 703580.0
618.3460, 704106.3
619.5120, 703887.0
620.6780, 705575.0
621.8440, 705655.0
623.0090, 705934.0
624.1750, 707524.0
625.3400, 707728.0
626.5050, 708818.0
627.6700, 709805.0
628.8350, 708592.0
629.9990, 709502.0
631.1640, 709783.0
632.3280, 710963.0
633.4920, 711684.0
634.6560, 711636.0
635.8200, 712615.0
636.9840, 711808.0
638.1470, 713185.0
639.3100, 714276.0
640.4730, 713862.0
641.6360, 715995.0
642.7990, 716746.0
643.9620, 715473.0
645.1240, 716348.0
646.2870, 717475.0
647.4490, 717620.0
648.6110, 718081.0
649.7730, 719130.0
650.9340, 719271.0
652.0960, 719061.0
653.2570, 718624.0
654.4180, 718370.0
655.5790, 719903.0
656.7400, 720575.0
657.9010, 720554.0
659.0620, 721366.0
660.2220, 721303.0
661.3820, 721660.0
662.5420, 721927.0
663.7020, 724219.0
664.8620, 722268.0
666.0210, 724634.0
667.1810, 724919.0
668.3400, 724845.0
669.4990, 724942.0
670.6580, 725572.0
671.8170, 726955.0
672.9750, 726905.0
674.1340, 728119.0
675.2920, 727879.0
676.4500, 727473.0
677.6080, 727848.0
678.7660, 730654.0
679.9230, 729564.0
681.0810, 729835.0
682.2380, 731253.0
683.3950, 730122.0
684.5520, 729537.0
685.7090, 730830.0
686.8660, 730838.0
688.0220, 730903.0
689.1780, 732918.0
690.3340, 733536.0
691.4900, 735045.0
692.6460, 735477.8
693.8020, 735926.5
694.9570, 735862.0
696.1130, 736447.0
697.2680, 736315.0
698.4230, 736747.0
699.5780, 737529.0
700.7320, 738217.0
701.8870, 737998.0
703.0410, 738299.0
704.1950, 737832.0
705.3490, 739464.0
706.5030, 738067.0
707.6570, 740036.0
708.8110, 739648.0
709.9640, 739430.0
711.1170, 740654.0
712.2700, 740623.0
713.4230, 741093.0
714.5760, 739553.0
715.7280, 742390.0
716.8810, 739939.0
718.0330, 739844.0
719.1850, 739956.0
720.3370, 738672.0
721.4890, 739325.0
722.6400, 739459.0
723.7920, 741604.0
724.9430, 741741.0
726.0940, 741777.0
727.2450, 743927.0
728.3960, 744848.0
729.5460, 746206.0
730.6970, 745759.0
731.8470, 748333.0
732.9970, 747997.0
734.1470, 749412.0
735.2970, 750138.0
736.4460, 751505.0
737.5960, 752006.0
738.7450, 752997.3
739.8940, 753048.0
741.0430, 754605.0
742.1920, 755472.0
743.3410, 756135.0
744.4890, 757341.0
745.6370, 758018.0
746.7850, 758548.6
747.9330, 758415.0
749.0810, 759299.0
750.2290, 759763.0
751.3760, 759903.0
752.5240, 760758.0
753.6710, 761162.0
754.8180, 761964.0
755.9650, 761925.0
757.1110, 761994.0
758.2580, 763536.0
759.4040, 763392.0
760.5510, 763606.0
761.6970, 763262.0
762.8420, 764334.0
763.9880, 764698.0
765.1340, 765022.0
766.2790, 765204.0
767.4240, 764537.0
768.5690, 765868.0
769.7140, 765339.0
770.8590, 766029.0
772.0030, 765226.0
773.1480, 766443.0
774.2920, 766906.0
775.4360, 766110.0
776.5800, 766349.0
777.7240, 766391.9
778.8670, 766474.6
780.0110, 766774.0
781.1540, 767274.0
782.2970, 767833.0
783.4400, 768526.0
784.5830, 769193.0
785.7250, 769421.7
786.8680, 769756.6
788.0100, 769567.0
789.1520, 770092.0
790.2940, 769624.0
791.4360, 769937.0
792.5780, 770041.6
793.7190, 769987.3
794.8600, 770462.0
796.0010, 770417.0
797.1420, 770933.0
798.2830, 771749.0
799.4240, 772064.0
800.5640, 771626.0
801.7050, 772512.0
802.8450, 772894.0
803.9850, 772770.0
805.1250, 774117.0
806.2640, 775312.0
807.4040, 775436.0
808.5430, 775887.0
809.6820, 777683.0
810.8210, 776366.0
811.9600, 777355.0
813.0990, 778663.0
814.2370, 777649.0
815.3760, 779205.0
816.5140, 779580.0
817.6520, 780244.0
818.7900, 781274.0
819.9270, 780769.0
821.0650, 782110.0
822.2020, 781948.0
823.3390, 782747.0
824.4760, 782380.0
825.6130, 782602.0
826.7500, 782277.0
827.8870, 782129.0
829.0230, 783672.0
830.1590, 782564.0
831.2950, 784066.0
832.4310, 784209.0
833.5670, 785299.0
834.7030, 786291.0
835.8380, 785180.0
836.9730, 785041.0
838.1080, 787103.0
839.2430, 787727.0
840.3780, 788374.0
841.5130, 787548.0
842.6470, 788160.0
843.7810, 788536.0
844.9150, 789373.0
846.0490, 788916.0
847.1830, 789349.0
848.3170, 788010.0
849.4500, 790547.0
850.5830, 790306.0
851.7160, 790040.0
852.8490, 791190.0
853.9820, 791342.0
855.1150, 792759.0
856.2470, 793272.0
857.3800, 794525.0
858.5120, 793626.0
859.6440, 792871.0
860.7760, 792977.0
861.9070, 793569.0
863.0390, 794930.0
864.1700, 793892.0
865.3010, 795314.0
866.4320, 794162.0
867.5630, 795527.0
868.6940, 796273.0
869.8240, 796418.0
870.9540, 797149.0
872.0850, 796852.6
873.2150, 795662.0
874.3450, 796762.0
875.4740, 796079.0
876.6040, 797247.0
877.7330, 798603.0
878.8620, 797810.0
879.9910, 798567.6
881.1200, 798368.0
882.2490, 798576.0
883.3770, 798905.0
884.5060, 799175.0
885.6340, 798827.0
886.7620, 798883.0
887.8900, 799290.0
889.0180, 798577.0
890.1450, 799395.0
891.2730, 800483.0
892.4000, 798718.0
893.5270, 800143.0
894.6540, 799492.0
895.7810, 799713.0
896.9070, 798947.0
898.0340, 801190.0
899.1600, 800560.0
900.2860, 802462.0
901.4120, 802359.0
902.5380, 802884.0
903.6630, 802435.0
904.7890, 803600.0
905.9140, 802889.0
907.0390, 803368.0
908.1640, 804073.0
909.2890, 805275.0
910.4130, 804756.0
911.5380, 805150.0
912.6620, 804482.0
913.7860, 805048.0
914.9100, 806657.0
916.0340, 806662.0
917.1580, 807571.0
918.2810, 808140.4
919.4040, 807498.0
920.5280, 808629.0
921.6510, 807728.0
922.7730, 807016.0
923.8960, 808426.0
925.0180, 808736.0
926.1410, 809046.0
927.2630, 809196.0
928.3850, 810044.0
929.5070, 808133.0
930.6280, 809576.0
931.7500, 808607.0
932.8710, 809656.0
933.9920, 809531.0
935.1130, 809255.0
936.2340, 809965.6
937.3550, 809360.0
938.4760, 810648.0
939.5960, 810798.0
940.7160, 811000.0
941.8360, 812882.0
942.9560, 811343.0
944.0760, 811295.0
945.1950, 809713.0
946.3150, 811530.0
947.4340, 811541.0
948.5530, 812104.0
949.6720, 812971.0
950.7900, 811514.0
951.9090, 811520.0
953.0270, 812506.0
954.1460, 811508.0
955.2640, 813576.0
956.3820, 814072.0
957.4990, 813424.0
958.6170, 813074.0
959.7340, 814335.0
960.8520, 814363.0
961.9690, 815638.0
963.0860, 817007.0
964.2020, 816320.0
965.3190, 817367.2
966.4350, 816926.0
967.5520, 817712.0
968.6680, 818601.0
969.7840, 818375.0
970.8990, 819511.0
972.0150, 818802.0
973.1310, 820896.0
974.2460, 818753.0
975.3610, 820878.0
976.4760, 822276.0
977.5910, 821971.0
978.7050, 824117.0
979.8200, 825174.0
980.9340, 829118.0
982.0480, 832219.0
983.1620, 836522.0
984.2760, 841905.0
985.3900, 846293.0
986.5030, 849470.0
987.6160, 848216.0
988.7300, 847713.0
989.8430, 842035.0
990.9550, 837113.0
992.0680, 832104.0
993.1810, 828010.0
994.2930, 826701.0
995.4050, 824446.0
996.5170, 823665.0
997.6290, 823050.0
998.7410, 823209.0
999.8520, 822698.7
1000.964, 821984.0
1002.075, 822696.0
1003.186, 822403.0
1004.297, 823048.0
1005.407, 822281.0
1006.518, 822567.4
1007.628, 822439.0
1008.738, 822665.0
1009.848, 822977.0
1010.958, 823124.0
1012.068, 823298.0
1013.178, 822610.0
1014.287, 822227.0
1015.396, 822686.0
1016.505, 820992.0
1017.614, 822424.0
1018.723, 822821.0
1019.831, 820191.0
1020.940, 821163.0
1022.048, 820239.0
1023.156, 820430.0
1024.264, 819985.0
1025.372, 819809.0
1026.479, 819412.0
1027.587, 819296.0
1028.694, 820620.0
1029.801, 818266.0
1030.908, 821992.0
1032.015, 819753.0
1033.121, 821006.0
1034.228, 819371.0
1035.334, 820881.0
1036.440, 820631.0
1037.546, 819649.0
1038.652, 820740.0
1039.758, 820603.0
1040.863, 821568.0
1041.968, 822160.0
1043.074, 819717.0
1044.178, 820646.0
1045.283, 819762.0
1046.388, 822307.0
1047.492, 822299.0
1048.597, 822049.0
1049.701, 822167.0
1050.805, 822803.0
1051.909, 823267.8
1053.012, 823522.0
1054.116, 825030.0
1055.219, 825297.0
1056.322, 826379.0
1057.425, 827056.8
1058.528, 825657.0
1059.631, 827728.0
1060.733, 827958.0
1061.836, 827052.0
1062.938, 829415.0
1064.040, 829085.0
1065.142, 827887.0
1066.243, 827497.0
1067.345, 826983.0
1068.446, 826125.0
1069.547, 826234.0
1070.648, 826466.0
1071.749, 826330.0
1072.850, 825614.0
1073.951, 826005.0
1075.051, 825069.0
1076.151, 825486.0
1077.251, 823958.0
1078.351, 826697.0
1079.451, 824848.0
1080.550, 827589.0
1081.650, 825458.0
1082.749, 826976.0
1083.848, 825744.0
1084.947, 823836.0
1086.046, 825650.0
1087.144, 824373.0
1088.243, 824430.0
1089.341, 826095.0
1090.439, 824917.0
1091.537, 826457.0
1092.635, 825882.0
1093.732, 825716.0
1094.830, 825412.0
1095.927, 826743.0
1097.024, 826537.0
1098.121, 825838.0
1099.218, 827896.0
1100.314, 825592.0
1101.411, 825847.0
1102.507, 827645.0
1103.603, 827554.0
1104.699, 828375.0
1105.795, 827982.0
1106.890, 827217.0
1107.986, 826963.0
1109.081, 827116.9
1110.176, 828728.0
1111.271, 827472.0
1112.366, 828656.0
1113.461, 828228.0
1114.555, 827101.0
1115.649, 827018.0
1116.744, 827413.0
1117.838, 828215.0
1118.931, 827785.0
1120.025, 828441.0
1121.119, 827190.0
1122.212, 827308.0
1123.305, 827821.0
1124.398, 827442.0
1125.491, 828519.0
1126.584, 827265.0
1127.676, 827552.0
1128.768, 826008.0
1129.861, 827109.0
1130.953, 826012.0
1132.044, 827474.0
1133.136, 826922.0
1134.228, 826729.0
1135.319, 825493.0
1136.410, 826983.0
1137.501, 825191.0
1138.592, 826649.0
1139.683, 826071.0
1140.773, 826140.0
1141.864, 827255.0
1142.954, 825371.0
1144.044, 826814.0
1145.134, 825207.0
1146.224, 826521.0
1147.313, 826651.0
1148.402, 824492.0
1149.492, 825966.0
1150.581, 826657.0
1151.670, 827397.0
1152.758, 825581.0
1153.847, 827536.0
1154.935, 827594.0
1156.024, 825755.0
1157.112, 826821.0
1158.200, 825019.0
1159.287, 826912.0
1160.375, 824713.0
1161.462, 825883.0
1162.550, 826254.0
1163.637, 825220.0
1164.724, 826326.0
1165.810, 825788.0
1166.897, 824876.0
1167.983, 825599.0
1169.070, 824892.0
1170.156, 825624.0
1171.242, 824675.0
1172.327, 824888.0
1173.413, 826001.0
1174.499, 826211.0
1175.584, 824168.0
1176.669, 824827.0
1177.754, 826231.0
1178.839, 823698.0
1179.923, 824894.0
1181.008, 824871.0
1182.092, 823093.0
1183.176, 825322.0
1184.260, 824364.0
1185.344, 825176.0
1186.428, 823875.0
1187.511, 823179.0
1188.595, 825138.0
1189.678, 823316.0
1190.761, 824070.0
1191.843, 822426.0
1192.926, 822558.0
1194.009, 823422.0
1195.091, 821998.0
1196.173, 823275.0
1197.255, 823163.0
1198.337, 823230.0
1199.419, 823180.0
1200.500, 822471.0
1201.582, 823568.0
1202.663, 822347.0
1203.744, 821965.0
1204.825, 823693.0
1205.905, 822610.0
1206.986, 823705.0
1208.066, 820033.0
1209.146, 822480.0
1210.226, 821960.0
1211.306, 821262.0
1212.386, 822956.0
1213.466, 821259.0
1214.545, 822349.0
1215.624, 820477.0
1216.703, 822355.0
1217.782, 822669.0
1218.861, 821433.0
1219.939, 823661.0
1221.018, 821754.0
1222.096, 821825.0
1223.174, 821933.0
1224.252, 821007.0
1225.330, 820824.0
1226.407, 822261.0
1227.485, 821320.0
1228.562, 821743.0
1229.639, 820281.0
1230.716, 821500.0
1231.793, 820691.0
1232.869, 821737.0
1233.946, 820971.0
1235.022, 820211.0
1236.098, 822446.0
1237.174, 819793.0
1238.250, 820904.0
1239.325, 820513.0
1240.401, 821645.0
1241.476, 820422.0
1242.551, 818577.0
1243.626, 819051.0
1244.701, 818786.0
1245.776, 818619.0
1246.850, 819103.0
1247.924, 818106.0
1248.999, 818480.0
1250.073, 815634.0
1251.146, 818390.0
1252.220, 817061.0
1253.293, 818450.0
1254.367, 817925.0
1255.440, 816191.0
1256.513, 817925.0
1257.586, 816481.0
1258.658, 815739.0
1259.731, 816537.0
1260.803, 815621.0
1261.875, 817318.0
1262.947, 815970.0
1264.019, 816648.0
1265.091, 815195.0
1266.162, 814169.0
1267.234, 815771.0
1268.305, 813810.0
1269.376, 815706.0
1270.447, 814906.0
1271.517, 815123.0
1272.588, 816560.0
1273.658, 814601.0
1274.729, 815873.0
1275.799, 815224.0
1276.868, 813873.0
1277.938, 815448.0
1279.008, 812225.0
1280.077, 815320.0
1281.146, 814117.0
1282.215, 813886.0
1283.284, 814494.0
1284.353, 813105.0
1285.421, 813798.0
1286.490, 812185.0
1287.558, 812378.0
1288.626, 811700.0
1289.694, 811297.0
1290.762, 813958.0
1291.829, 811976.0
1292.897, 812742.0
1293.964, 812337.0
1295.031, 810674.0
1296.098, 812570.0
1297.165, 810070.0
1298.231, 810857.0
1299.298, 811204.0
1300.364, 810455.0
1301.430, 810618.0
1302.496, 809736.0
1303.562, 810424.0
1304.627, 810845.0
1305.693, 809975.0
1306.758, 810184.0
1307.823, 808636.0
1308.888, 810052.0
1309.953, 808247.0
1311.018, 809925.0
1312.082, 808211.0
1313.146, 808470.3
1314.210, 807380.0
1315.274, 808151.0
1316.338, 808775.0
1317.402, 808046.0
1318.465, 806929.0
1319.529, 809862.0
1320.592, 807596.0
1321.655, 804970.0
1322.718, 806630.0
1323.780, 806174.0
1324.843, 806752.0
1325.905, 805175.0
1326.967, 805653.0
1328.029, 804418.0
1329.091, 803902.0
1330.153, 805647.0
1331.214, 803138.0
1332.275, 803693.0
1333.337, 803868.0
1334.398, 803602.0
1335.458, 804587.0
1336.519, 804417.0
1337.580, 804427.0
1338.640, 804280.5
1339.700, 804003.4
1340.760, 803263.0
1341.820, 803414.0
1342.880, 802755.0
1343.939, 802501.0
1344.999, 801601.0
1346.058, 802604.0
1347.117, 801691.0
1348.176, 802708.0
1349.235, 801613.0
1350.293, 801966.0
1351.351, 802825.0
1352.410, 800673.0
1353.468, 801927.0
1354.526, 800288.0
1355.583, 799863.0
1356.641, 801143.0
1357.698, 800370.0
1358.756, 801533.0
1359.813, 798934.0
1360.869, 799453.0
1361.926, 799086.0
1362.983, 798698.0
1364.039, 799919.0
1365.095, 798444.0
1366.152, 799061.0
1367.207, 797718.0
1368.263, 798016.0
1369.319, 799109.0
1370.374, 797444.0
1371.430, 796811.0
1372.485, 798096.0
1373.540, 796766.0
1374.594, 797443.0
1375.649, 796796.0
1376.703, 796529.0
1377.758, 796305.0
1378.812, 795603.0
1379.866, 797619.0
1380.920, 793309.0
1381.973, 796487.0
1383.027, 796541.0
1384.080, 794193.0
1385.133, 797174.0
1386.186, 792678.0
1387.239, 794411.0
1388.291, 793242.0
1389.344, 793395.0
1390.396, 794128.0
1391.448, 792601.0
1392.500, 793831.0
1393.552, 793910.0
1394.604, 791710.0
1395.655, 793287.0
1396.707, 791354.0
1397.758, 793366.0
1398.809, 790529.0
1399.860, 790710.0
1400.910, 792322.0
1401.961, 790607.0
1403.011, 790926.0
1404.061, 789993.0
1405.111, 789968.0
1406.161, 790367.0
1407.211, 789705.5
1408.260, 790867.0
1409.310, 788858.0
1410.359, 789358.0
1411.408, 788393.0
1412.457, 787583.0
1413.506, 789586.0
1414.554, 787513.0
1415.603, 787714.0
1416.651, 787697.0
1417.699, 786059.0
1418.747, 787558.0
1419.794, 786312.0
1420.842, 786242.0
1421.889, 787735.0
1422.937, 784812.0
1423.984, 786150.0
1425.031, 783406.0
1426.077, 785355.0
1427.124, 785072.0
1428.170, 783343.0
1429.217, 784130.0
1430.263, 783541.0
1431.309, 783390.0
1432.354, 783857.0
1433.400, 781502.0
1434.445, 784073.0
1435.491, 780628.0
1436.536, 781435.0
1437.581, 781868.0
1438.625, 779658.0
1439.670, 781568.0
1440.714, 780330.0
1441.759, 780175.0
1442.803, 781130.0
1443.847, 778317.0
1444.890, 779349.0
1445.934, 778812.0
1446.978, 778061.0
1448.021, 778246.0
1449.064, 776842.0
1450.107, 777644.0
1451.150, 776762.0
1452.192, 777500.0
1453.235, 777553.0
1454.277, 774762.0
1455.319, 776814.0
1456.361, 775310.0
1457.403, 774973.0
1458.445, 777323.0
1459.486, 774734.0
1460.528, 776085.0
1461.569, 773756.0
1462.610, 773704.0
1463.651, 774885.0
1464.691, 771505.0
1465.732, 772615.0
1466.772, 771512.0
1467.812, 770605.0
1468.852, 771529.0
1469.892, 769357.0
1470.932, 771876.0
1471.971, 768727.0
1473.011, 770571.0
1474.050, 769821.0
1475.089, 767969.0
1476.128, 769564.0
1477.166, 768005.0
1478.205, 768664.0
1479.243, 769712.0
1480.282, 766590.0
1481.320, 767298.0
1482.357, 767559.0
1483.395, 765973.0
1484.433, 768490.0
1485.470, 767385.0
1486.507, 767169.0
1487.544, 766902.0
1488.581, 764822.0
1489.618, 766652.0
1490.655, 764741.0
1491.691, 764318.0
1492.727, 764568.0
1493.763, 764696.0
1494.799, 765258.0
1495.835, 763632.0
1496.871, 764701.0
1497.906, 762469.0
1498.941, 762444.0
1499.976, 764240.0
1501.011, 761305.0
1502.046, 761996.0
1503.081, 762751.0
1504.115, 761139.0
1505.149, 760926.0
1506.183, 759709.0
1507.217, 759347.1
1508.251, 759569.0
1509.285, 758599.0
1510.318, 758343.0
1511.352, 757592.0
1512.385, 757351.0
1513.418, 757743.0
1514.450, 757442.0
1515.483, 757796.0
1516.516, 757536.6
1517.548, 757195.0
1518.580, 757214.0
1519.612, 755986.0
1520.644, 756088.0
1521.675, 755116.0
1522.707, 754788.0
1523.738, 755399.0
1524.769, 754043.0
1525.800, 754352.1
1526.831, 753330.0
1527.862, 753932.0
1528.892, 753251.0
1529.923, 752711.0
1530.953, 754338.0
1531.983, 752860.0
1533.013, 752278.0
1534.042, 753464.0
1535.072, 752167.0
1536.101, 753507.0
1537.131, 751749.0
1538.160, 750729.0
1539.188, 751211.0
1540.217, 750616.0
1541.246, 750654.0
1542.274, 750278.0
1543.302, 749500.0
1544.330, 750033.0
1545.358, 749203.2
1546.386, 749768.0
1547.413, 748859.0
1548.441, 748077.0
1549.468, 749219.0
1550.495, 745623.0
1551.522, 747478.0
1552.549, 746950.0
1553.575, 745288.0
1554.602, 746137.0
1555.628, 742887.0
1556.654, 745306.0
1557.680, 745226.0
1558.706, 740726.0
1559.731, 743884.0
1560.757, 743631.0
1561.782, 744330.0
1562.807, 744063.0
1563.832, 744138.0
1564.857, 744146.0
1565.881, 741976.0
1566.906, 742179.0
1567.930, 742060.0
1568.954, 740819.0
1569.978, 742743.0
1571.002, 740975.0
1572.025, 740106.0
1573.049, 739929.0
1574.072, 738046.0
1575.095, 740199.0
1576.118, 738893.0
1577.141, 738285.0
1578.164, 739886.0
##END=



