##NAMES=Sodalite
##RRUFFID=R060435
##IDEAL CHEMISTRY=Na_4_Si_3_Al_3_O_12_Cl
##LOCALITY=Koksha Valley, Badakshan Province, Afghanistan
##OWNER=RRUFF
##SOURCE=Herb Obodda
##DESCRIPTION=Pale purple fragment
##STATUS=The identification of this mineral has been confirmed by X-ray diffraction and chemical analysis
##URL=rruff.info/R060435
##MEASURED CHEMISTRY=(Na_0.99_K_0.01_)_8_Al_6.00_Si_6.00_O_24_Cl_2_
##PIN_ID=L00857
##ORIENTATION=Laser parallel to a* (1 0 0). Fiducial mark perpendicular to laser is parallel to b [0 1 0]
69.76100, 353776.0
71.00100, 355392.0
72.24000, 356951.0
73.47900, 358679.0
74.71800, 361091.0
75.95700, 362581.0
77.19600, 363489.0
78.43500, 364080.0
79.67300, 365781.0
80.91200, 367180.0
82.15000, 367719.0
83.38800, 369441.0
84.62600, 370708.0
85.86300, 370966.0
87.10100, 372681.0
88.33800, 373699.0
89.57500, 374570.0
90.81200, 375147.0
92.04900, 376370.0
93.28600, 377828.0
94.52300, 378927.0
95.75900, 379765.0
96.99500, 380716.0
98.23100, 381897.0
99.46700, 382734.0
100.7030, 383893.8
101.9390, 384709.0
103.1740, 386047.0
104.4090, 387690.0
105.6440, 388683.9
106.8790, 389965.0
108.1140, 390644.0
109.3490, 391491.0
110.5830, 392697.0
111.8180, 395069.0
113.0520, 396136.0
114.2860, 397014.0
115.5200, 398742.0
116.7530, 398698.0
117.9870, 398763.0
119.2200, 400601.0
120.4530, 400482.0
121.6860, 401199.0
122.9190, 403282.0
124.1520, 403369.0
125.3850, 404296.0
126.6170, 405891.0
127.8490, 405921.0
129.0810, 406577.0
130.3130, 408485.0
131.5450, 408946.0
132.7770, 409058.0
134.0080, 410515.0
135.2390, 411358.0
136.4710, 412190.0
137.7020, 413481.0
138.9320, 414219.0
140.1630, 414771.0
141.3930, 415498.0
142.6240, 416475.0
143.8540, 418795.0
145.0840, 418832.0
146.3140, 419870.0
147.5440, 421249.0
148.7730, 421612.0
150.0020, 423070.0
151.2320, 424353.0
152.4610, 425512.0
153.6900, 425739.0
154.9180, 427001.0
156.1470, 429290.0
157.3750, 430261.0
158.6040, 432654.0
159.8320, 435125.0
161.0600, 437222.5
162.2870, 438883.6
163.5150, 440446.5
164.7420, 441241.0
165.9700, 442395.0
167.1970, 442402.0
168.4240, 442266.1
169.6510, 442772.0
170.8770, 441926.0
172.1040, 442114.0
173.3300, 441724.0
174.5560, 441717.2
175.7820, 442555.0
177.0080, 441901.0
178.2340, 442671.0
179.4590, 442787.0
180.6850, 443803.0
181.9100, 445188.0
183.1350, 445380.0
184.3600, 445642.0
185.5850, 445427.0
186.8090, 446822.0
188.0340, 447975.0
189.2580, 447548.0
190.4820, 448895.0
191.7060, 449752.0
192.9300, 450521.0
194.1530, 450607.0
195.3770, 451389.0
196.6000, 453145.0
197.8230, 452840.0
199.0460, 454718.0
200.2690, 455649.0
201.4910, 456106.0
202.7140, 457463.0
203.9360, 457947.0
205.1580, 458455.0
206.3800, 459002.0
207.6020, 460672.0
208.8240, 460284.0
210.0450, 462705.0
211.2670, 462236.0
212.4880, 462948.0
213.7090, 464174.0
214.9300, 465212.0
216.1510, 464863.0
217.3710, 467058.0
218.5920, 467049.0
219.8120, 467656.0
221.0320, 469332.0
222.2520, 468742.0
223.4720, 470466.0
224.6910, 471925.0
225.9110, 472876.0
227.1300, 473813.0
228.3490, 475227.0
229.5680, 474962.0
230.7870, 476473.0
232.0050, 478329.0
233.2240, 478435.0
234.4420, 478906.0
235.6600, 480230.0
236.8780, 480579.0
238.0960, 482405.0
239.3140, 482296.0
240.5310, 483533.0
241.7490, 484805.0
242.9660, 485921.0
244.1830, 487574.0
245.4000, 488237.0
246.6160, 489910.0
247.8330, 490481.0
249.0490, 492695.0
250.2660, 493405.0
251.4820, 494709.0
252.6980, 497613.0
253.9130, 499394.0
255.1290, 501243.0
256.3440, 503209.0
257.5600, 504888.0
258.7750, 507874.0
259.9900, 509064.0
261.2040, 512111.0
262.4190, 512605.0
263.6330, 513957.0
264.8480, 514343.0
266.0620, 513342.0
267.2760, 513324.0
268.4900, 511493.0
269.7030, 512734.0
270.9170, 510897.0
272.1300, 511702.0
273.3430, 510211.0
274.5560, 510971.0
275.7690, 510783.0
276.9820, 510595.0
278.1940, 510708.0
279.4070, 511314.0
280.6190, 511104.0
281.8310, 512320.0
283.0430, 513019.0
284.2550, 513490.0
285.4660, 514714.7
286.6770, 515294.0
287.8890, 516655.0
289.1000, 517858.0
290.3110, 518566.0
291.5210, 520211.0
292.7320, 520579.0
293.9420, 521755.0
295.1530, 523338.0
296.3630, 522945.0
297.5730, 521551.0
298.7830, 522696.0
299.9920, 522025.0
301.2020, 522511.0
302.4110, 522835.0
303.6200, 522347.0
304.8290, 521727.0
306.0380, 523779.0
307.2470, 523113.0
308.4550, 525086.0
309.6630, 523693.0
310.8720, 526290.0
312.0800, 526261.0
313.2880, 526337.0
314.4950, 527139.0
315.7030, 528616.0
316.9100, 529036.0
318.1170, 529828.0
319.3240, 530300.0
320.5310, 530899.0
321.7380, 531563.7
322.9450, 532090.0
324.1510, 533117.0
325.3570, 533403.0
326.5630, 534780.0
327.7690, 535307.0
328.9750, 536348.0
330.1810, 537375.0
331.3860, 538069.0
332.5910, 538218.0
333.7960, 538830.0
335.0010, 538966.0
336.2060, 539946.5
337.4110, 541700.0
338.6150, 541988.0
339.8200, 543672.0
341.0240, 544815.0
342.2280, 543440.0
343.4320, 544711.0
344.6350, 544950.0
345.8390, 546372.0
347.0420, 547505.0
348.2450, 548278.6
349.4480, 548877.0
350.6510, 549674.0
351.8540, 550137.0
353.0560, 549586.0
354.2590, 550653.0
355.4610, 551258.0
356.6630, 552551.0
357.8650, 553190.0
359.0670, 554181.0
360.2680, 555481.0
361.4700, 555762.0
362.6710, 555884.0
363.8720, 556267.0
365.0730, 557246.0
366.2740, 557737.0
367.4740, 558738.0
368.6750, 561035.0
369.8750, 561302.0
371.0750, 561801.0
372.2750, 561881.0
373.4750, 562296.7
374.6740, 563670.0
375.8740, 563539.0
377.0730, 564630.0
378.2720, 566572.0
379.4710, 565248.0
380.6700, 567604.0
381.8690, 567241.0
383.0670, 567860.0
384.2660, 568893.0
385.4640, 569321.0
386.6620, 570902.0
387.8600, 570657.0
389.0570, 571681.0
390.2550, 572221.0
391.4520, 571920.0
392.6490, 573537.0
393.8460, 575047.0
395.0430, 574844.0
396.2400, 575428.0
397.4370, 576352.0
398.6330, 577498.0
399.8290, 578159.0
401.0250, 577259.0
402.2210, 579071.0
403.4170, 580936.0
404.6130, 580073.0
405.8080, 582340.0
407.0030, 582110.0
408.1980, 584758.0
409.3930, 585887.0
410.5880, 586042.0
411.7830, 586130.0
412.9770, 587624.0
414.1720, 588864.0
415.3660, 589403.0
416.5600, 589184.0
417.7530, 591960.0
418.9470, 591076.0
420.1410, 592896.0
421.3340, 592022.0
422.5270, 594880.0
423.7200, 593821.0
424.9130, 594969.0
426.1060, 595047.0
427.2980, 596274.0
428.4900, 596801.0
429.6830, 595922.0
430.8750, 598540.0
432.0670, 598242.0
433.2580, 599892.0
434.4500, 600888.0
435.6410, 602440.0
436.8320, 601354.0
438.0240, 603950.0
439.2140, 604189.0
440.4050, 605834.0
441.5960, 607729.0
442.7860, 609340.0
443.9760, 610236.0
445.1670, 611531.0
446.3560, 613882.0
447.5460, 617130.0
448.7360, 619012.0
449.9250, 621885.0
451.1150, 626113.0
452.3040, 631144.0
453.4930, 635507.0
454.6810, 643808.0
455.8700, 650913.0
457.0590, 660076.0
458.2470, 671999.0
459.4350, 681873.0
460.6230, 693765.0
461.8110, 702932.0
462.9980, 708289.0
464.1860, 710543.0
465.3730, 704986.0
466.5600, 697975.0
467.7470, 687185.0
468.9340, 675569.0
470.1210, 665620.0
471.3080, 658318.0
472.4940, 651050.0
473.6800, 645882.0
474.8660, 643176.0
476.0520, 639827.0
477.2380, 638549.0
478.4230, 636262.0
479.6090, 635516.0
480.7940, 633969.0
481.9790, 633906.0
483.1640, 633515.0
484.3490, 633358.0
485.5330, 633314.0
486.7180, 634223.0
487.9020, 633592.0
489.0860, 633982.0
490.2700, 634071.1
491.4540, 632912.0
492.6370, 634366.0
493.8210, 635480.0
495.0040, 636157.0
496.1870, 635002.0
497.3700, 635475.0
498.5530, 635478.0
499.7360, 636103.0
500.9180, 636814.0
502.1000, 637390.0
503.2830, 636753.0
504.4650, 638126.0
505.6460, 637433.0
506.8280, 638654.0
508.0100, 638588.0
509.1910, 638868.0
510.3720, 640301.0
511.5530, 640937.0
512.7340, 641986.0
513.9150, 642726.7
515.0950, 642281.0
516.2760, 643807.0
517.4560, 643661.0
518.6360, 643701.0
519.8160, 644382.0
520.9950, 645262.0
522.1750, 645254.0
523.3540, 645862.0
524.5340, 646297.0
525.7130, 645774.0
526.8920, 646737.0
528.0700, 647896.0
529.2490, 649581.0
530.4270, 648850.0
531.6060, 648125.0
532.7840, 650214.0
533.9620, 650004.0
535.1390, 650149.0
536.3170, 652307.0
537.4940, 652763.0
538.6720, 653009.0
539.8490, 653557.0
541.0260, 653699.0
542.2030, 654568.0
543.3790, 655420.0
544.5560, 655813.4
545.7320, 656082.0
546.9080, 656877.0
548.0840, 657386.0
549.2600, 657750.0
550.4360, 658913.0
551.6110, 659558.0
552.7860, 659349.0
553.9620, 659136.0
555.1370, 662057.0
556.3110, 662163.0
557.4860, 660126.0
558.6610, 662769.0
559.8350, 662137.0
561.0090, 664303.0
562.1830, 663627.0
563.3570, 664047.0
564.5310, 664318.0
565.7040, 665198.0
566.8780, 665383.0
568.0510, 666878.0
569.2240, 666326.0
570.3970, 666386.0
571.5700, 668306.0
572.7420, 668942.0
573.9150, 668833.0
575.0870, 669138.0
576.2590, 669334.0
577.4310, 671104.0
578.6030, 670955.0
579.7740, 671925.0
580.9460, 672421.0
582.1170, 672717.0
583.2880, 671973.0
584.4590, 673326.0
585.6300, 673888.0
586.8010, 675152.0
587.9710, 676384.0
589.1410, 676358.0
590.3110, 676498.0
591.4810, 676139.0
592.6510, 676933.0
593.8210, 678360.0
594.9900, 679905.0
596.1600, 678928.0
597.3290, 680609.0
598.4980, 680436.0
599.6670, 680034.0
600.8350, 680071.0
602.0040, 680630.0
603.1720, 680528.0
604.3400, 682496.0
605.5080, 682497.0
606.6760, 683569.0
607.8440, 683776.0
609.0120, 683738.0
610.1790, 684137.0
611.3460, 685844.0
612.5130, 684366.0
613.6800, 685942.0
614.8470, 685935.0
616.0130, 685797.0
617.1800, 687381.0
618.3460, 687585.0
619.5120, 688105.0
620.6780, 688757.0
621.8440, 688922.0
623.0090, 689162.0
624.1750, 691732.0
625.3400, 690093.0
626.5050, 692138.0
627.6700, 691115.0
628.8350, 691322.0
629.9990, 691843.0
631.1640, 694689.0
632.3280, 693234.0
633.4920, 693973.0
634.6560, 695068.0
635.8200, 694667.0
636.9840, 695615.0
638.1470, 696271.0
639.3100, 696474.0
640.4730, 695990.0
641.6360, 696503.0
642.7990, 698508.0
643.9620, 697942.0
645.1240, 699262.0
646.2870, 699330.0
647.4490, 699331.0
648.6110, 699777.0
649.7730, 699736.0
650.9340, 700698.0
652.0960, 700071.0
653.2570, 702324.0
654.4180, 701080.0
655.5790, 702902.0
656.7400, 701300.0
657.9010, 701569.0
659.0620, 702241.0
660.2220, 703582.0
661.3820, 703163.0
662.5420, 702548.0
663.7020, 704397.0
664.8620, 703192.0
666.0210, 704156.0
667.1810, 704328.0
668.3400, 704441.0
669.4990, 706785.0
670.6580, 705517.0
671.8170, 706906.0
672.9750, 706450.0
674.1340, 707870.0
675.2920, 707496.0
676.4500, 708583.0
677.6080, 708986.0
678.7660, 709558.0
679.9230, 709424.0
681.0810, 709479.0
682.2380, 711214.0
683.3950, 709673.0
684.5520, 710431.0
685.7090, 710927.0
686.8660, 710406.0
688.0220, 711491.0
689.1780, 713004.0
690.3340, 712275.0
691.4900, 713397.0
692.6460, 714182.0
693.8020, 714298.0
694.9570, 714696.0
696.1130, 714490.0
697.2680, 715009.2
698.4230, 715039.0
699.5780, 715667.0
700.7320, 715961.4
701.8870, 716518.0
703.0410, 716742.0
704.1950, 717172.0
705.3490, 717581.9
706.5030, 718399.0
707.6570, 718955.0
708.8110, 719119.6
709.9640, 719485.2
711.1170, 719255.0
712.2700, 719505.0
713.4230, 719354.0
714.5760, 718913.0
715.7280, 719209.0
716.8810, 717399.0
718.0330, 718821.0
719.1850, 718771.0
720.3370, 718222.0
721.4890, 720079.0
722.6400, 719986.0
723.7920, 719766.0
724.9430, 721286.0
726.0940, 721386.0
727.2450, 722084.0
728.3960, 725191.0
729.5460, 724793.0
730.6970, 724492.0
731.8470, 727322.0
732.9970, 727261.0
734.1470, 726564.0
735.2970, 728199.0
736.4460, 728367.0
737.5960, 729386.0
738.7450, 728729.0
739.8940, 728740.0
741.0430, 730179.0
742.1920, 731607.0
743.3410, 731779.0
744.4890, 732862.0
745.6370, 731815.0
746.7850, 733691.0
747.9330, 734707.0
749.0810, 734008.0
750.2290, 734785.0
751.3760, 735764.0
752.5240, 736526.0
753.6710, 735673.0
754.8180, 736129.0
755.9650, 737146.0
757.1110, 736108.0
758.2580, 736180.0
759.4040, 735487.0
760.5510, 736330.0
761.6970, 736075.0
762.8420, 738054.0
763.9880, 736234.0
765.1340, 737922.0
766.2790, 739555.0
767.4240, 738301.0
768.5690, 737736.0
769.7140, 737706.0
770.8590, 738748.0
772.0030, 738020.0
773.1480, 738588.0
774.2920, 738847.0
775.4360, 737724.0
776.5800, 737028.0
777.7240, 737857.0
778.8670, 737427.0
780.0110, 736102.0
781.1540, 734919.0
782.2970, 733144.0
783.4400, 733872.0
784.5830, 732496.0
785.7250, 732405.0
786.8680, 733917.0
788.0100, 735376.0
789.1520, 737476.0
790.2940, 739663.0
791.4360, 741102.0
792.5780, 742977.0
793.7190, 743631.0
794.8600, 744699.0
796.0010, 745437.0
797.1420, 744837.0
798.2830, 745120.0
799.4240, 745244.0
800.5640, 745161.0
801.7050, 745434.0
802.8450, 745558.0
803.9850, 744915.0
805.1250, 746464.0
806.2640, 745088.0
807.4040, 746719.0
808.5430, 746881.0
809.6820, 748564.0
810.8210, 748276.0
811.9600, 747566.0
813.0990, 749663.0
814.2370, 747793.0
815.3760, 749252.0
816.5140, 748897.0
817.6520, 749001.0
818.7900, 750224.0
819.9270, 750903.0
821.0650, 750696.0
822.2020, 751310.4
823.3390, 751620.0
824.4760, 751767.0
825.6130, 752669.0
826.7500, 753526.0
827.8870, 752476.0
829.0230, 753424.0
830.1590, 752595.0
831.2950, 753937.0
832.4310, 753973.0
833.5670, 754476.0
834.7030, 755263.0
835.8380, 754189.0
836.9730, 755623.0
838.1080, 754802.0
839.2430, 756905.0
840.3780, 755692.0
841.5130, 756287.0
842.6470, 756365.0
843.7810, 757511.0
844.9150, 757854.0
846.0490, 757706.2
847.1830, 757904.0
848.3170, 757402.0
849.4500, 758422.0
850.5830, 758806.0
851.7160, 759430.0
852.8490, 758690.0
853.9820, 757957.0
855.1150, 760248.0
856.2470, 758989.0
857.3800, 759548.0
858.5120, 760978.0
859.6440, 760327.0
860.7760, 759784.0
861.9070, 760060.0
863.0390, 761097.0
864.1700, 760175.0
865.3010, 761865.0
866.4320, 760414.0
867.5630, 760475.0
868.6940, 763989.0
869.8240, 762057.0
870.9540, 763586.0
872.0850, 761250.0
873.2150, 762287.0
874.3450, 761243.0
875.4740, 761050.0
876.6040, 762281.0
877.7330, 763536.0
878.8620, 762299.0
879.9910, 762798.0
881.1200, 762725.0
882.2490, 763150.0
883.3770, 761356.0
884.5060, 763873.0
885.6340, 762245.0
886.7620, 763404.0
887.8900, 763268.0
889.0180, 763472.0
890.1450, 763714.0
891.2730, 763060.0
892.4000, 763774.0
893.5270, 762918.0
894.6540, 764271.0
895.7810, 761935.0
896.9070, 762407.0
898.0340, 764620.0
899.1600, 762891.0
900.2860, 765430.0
901.4120, 764023.0
902.5380, 765059.0
903.6630, 765372.0
904.7890, 765281.0
905.9140, 766113.8
907.0390, 765406.0
908.1640, 767160.0
909.2890, 767405.0
910.4130, 767969.0
911.5380, 767537.0
912.6620, 767892.1
913.7860, 768191.0
914.9100, 768021.0
916.0340, 767957.0
917.1580, 768000.0
918.2810, 768731.0
919.4040, 768418.0
920.5280, 768814.9
921.6510, 769536.0
922.7730, 768793.0
923.8960, 769222.0
925.0180, 768336.0
926.1410, 769662.0
927.2630, 770223.0
928.3850, 770289.0
929.5070, 769153.0
930.6280, 769504.0
931.7500, 769808.0
932.8710, 768970.0
933.9920, 770493.0
935.1130, 768486.0
936.2340, 770728.0
937.3550, 770730.0
938.4760, 769054.0
939.5960, 771375.0
940.7160, 769407.0
941.8360, 771114.0
942.9560, 770503.0
944.0760, 769576.0
945.1950, 769825.0
946.3150, 769943.0
947.4340, 771581.0
948.5530, 769936.0
949.6720, 772239.0
950.7900, 770339.0
951.9090, 771166.0
953.0270, 770583.0
954.1460, 770729.0
955.2640, 771504.0
956.3820, 770636.0
957.4990, 773188.0
958.6170, 771680.0
959.7340, 771399.0
960.8520, 772671.0
961.9690, 774031.0
963.0860, 773315.0
964.2020, 774442.0
965.3190, 775350.0
966.4350, 775643.0
967.5520, 775692.0
968.6680, 776045.9
969.7840, 776108.0
970.8990, 776100.0
972.0150, 776076.0
973.1310, 775926.3
974.2460, 776438.0
975.3610, 776796.0
976.4760, 777138.0
977.5910, 778439.0
978.7050, 780478.0
979.8200, 781731.0
980.9340, 783783.0
982.0480, 787735.0
983.1620, 791290.0
984.2760, 797098.0
985.3900, 799635.0
986.5030, 803547.0
987.6160, 800272.0
988.7300, 800042.0
989.8430, 794130.0
990.9550, 788436.0
992.0680, 786311.0
993.1810, 781302.0
994.2930, 781758.0
995.4050, 778860.0
996.5170, 778760.0
997.6290, 777315.0
998.7410, 776805.0
999.8520, 775727.0
1000.964, 777870.0
1002.075, 777099.0
1003.186, 776150.0
1004.297, 776691.0
1005.407, 775925.0
1006.518, 774306.0
1007.628, 775913.0
1008.738, 775188.0
1009.848, 775684.0
1010.958, 776672.0
1012.068, 773871.0
1013.178, 776155.0
1014.287, 773584.0
1015.396, 774752.0
1016.505, 772738.0
1017.614, 774136.0
1018.723, 773605.0
1019.831, 773881.0
1020.940, 772933.0
1022.048, 773226.0
1023.156, 773230.0
1024.264, 773169.0
1025.372, 773112.0
1026.479, 772653.0
1027.587, 772925.0
1028.694, 772936.0
1029.801, 772583.0
1030.908, 774025.0
1032.015, 772930.0
1033.121, 772837.0
1034.228, 771539.0
1035.334, 771299.0
1036.440, 773039.0
1037.546, 772349.0
1038.652, 772141.0
1039.758, 771318.0
1040.863, 772979.0
1041.968, 771096.0
1043.074, 771443.0
1044.178, 771616.0
1045.283, 770739.0
1046.388, 770670.0
1047.492, 771395.0
1048.597, 771235.0
1049.701, 771129.0
1050.805, 772869.0
1051.909, 773316.0
1053.012, 773214.0
1054.116, 773062.0
1055.219, 773200.0
1056.322, 773719.0
1057.425, 774843.0
1058.528, 774340.0
1059.631, 774085.0
1060.733, 776092.0
1061.836, 775543.0
1062.938, 776572.0
1064.040, 776074.0
1065.142, 776576.0
1066.243, 776009.0
1067.345, 776681.0
1068.446, 775085.0
1069.547, 776089.0
1070.648, 774486.0
1071.749, 775053.0
1072.850, 774841.0
1073.951, 773732.0
1075.051, 773288.0
1076.151, 774804.0
1077.251, 773354.0
1078.351, 773673.0
1079.451, 774405.0
1080.550, 773106.0
1081.650, 772535.0
1082.749, 772445.0
1083.848, 774210.0
1084.947, 773566.0
1086.046, 774589.0
1087.144, 771476.0
1088.243, 771727.0
1089.341, 772756.0
1090.439, 771373.0
1091.537, 773179.0
1092.635, 772698.0
1093.732, 773640.0
1094.830, 771988.0
1095.927, 773483.0
1097.024, 772484.0
1098.121, 771649.0
1099.218, 771880.0
1100.314, 772419.0
1101.411, 770547.0
1102.507, 774313.0
1103.603, 772394.0
1104.699, 773411.0
1105.795, 772347.0
1106.890, 772258.0
1107.986, 772173.0
1109.081, 773070.0
1110.176, 772993.0
1111.271, 771705.0
1112.366, 772684.0
1113.461, 771854.0
1114.555, 772752.0
1115.649, 773249.0
1116.744, 771107.0
1117.838, 772777.0
1118.931, 770857.0
1120.025, 772288.0
1121.119, 772197.0
1122.212, 771600.0
1123.305, 771825.0
1124.398, 770948.0
1125.491, 772541.0
1126.584, 769916.0
1127.676, 769981.0
1128.768, 771407.0
1129.861, 770449.0
1130.953, 770014.0
1132.044, 770142.0
1133.136, 769674.0
1134.228, 770638.0
1135.319, 768803.0
1136.410, 769573.0
1137.501, 768699.0
1138.592, 769003.0
1139.683, 768434.0
1140.773, 767993.0
1141.864, 768838.0
1142.954, 767196.0
1144.044, 769833.0
1145.134, 768046.0
1146.224, 767803.0
1147.313, 767914.0
1148.402, 766264.0
1149.492, 768891.0
1150.581, 767808.0
1151.670, 767676.0
1152.758, 767059.0
1153.847, 767363.0
1154.935, 767790.0
1156.024, 766113.0
1157.112, 766351.0
1158.200, 766062.0
1159.287, 767068.0
1160.375, 766205.0
1161.462, 766125.0
1162.550, 766379.0
1163.637, 765729.0
1164.724, 767012.0
1165.810, 766248.0
1166.897, 764606.0
1167.983, 766225.0
1169.070, 764027.0
1170.156, 764943.0
1171.242, 764143.0
1172.327, 765184.0
1173.413, 765232.0
1174.499, 763896.0
1175.584, 764058.0
1176.669, 763750.2
1177.754, 763695.0
1178.839, 763600.0
1179.923, 763668.0
1181.008, 763644.0
1182.092, 763466.0
1183.176, 763874.0
1184.260, 763300.0
1185.344, 762194.0
1186.428, 763116.0
1187.511, 762025.0
1188.595, 763285.0
1189.678, 761049.0
1190.761, 762880.0
1191.843, 761142.0
1192.926, 761021.0
1194.009, 761366.0
1195.091, 760379.0
1196.173, 759647.0
1197.255, 760868.0
1198.337, 758610.0
1199.419, 761613.0
1200.500, 758588.0
1201.582, 760087.0
1202.663, 759122.0
1203.744, 760202.0
1204.825, 759839.0
1205.905, 759125.0
1206.986, 759745.0
1208.066, 758063.0
1209.146, 758212.0
1210.226, 760042.0
1211.306, 758944.0
1212.386, 759042.0
1213.466, 757816.0
1214.545, 758855.0
1215.624, 757832.0
1216.703, 758211.0
1217.782, 758526.0
1218.861, 756610.0
1219.939, 757446.0
1221.018, 756459.0
1222.096, 757271.0
1223.174, 757930.0
1224.252, 756143.0
1225.330, 757735.0
1226.407, 756998.0
1227.485, 757589.0
1228.562, 756867.0
1229.639, 757294.0
1230.716, 758349.0
1231.793, 755152.0
1232.869, 756892.0
1233.946, 755762.0
1235.022, 755551.0
1236.098, 756583.0
1237.174, 755350.0
1238.250, 754947.0
1239.325, 755328.0
1240.401, 754627.0
1241.476, 755065.0
1242.551, 753957.0
1243.626, 754919.0
1244.701, 752528.0
1245.776, 752741.0
1246.850, 751319.0
1247.924, 752045.0
1248.999, 752169.0
1250.073, 750942.0
1251.146, 753066.0
1252.220, 751428.0
1253.293, 750557.0
1254.367, 750493.0
1255.440, 750023.0
1256.513, 751051.0
1257.586, 748542.0
1258.658, 749454.0
1259.731, 750461.0
1260.803, 748764.0
1261.875, 749102.0
1262.947, 747127.0
1264.019, 749183.0
1265.091, 748416.0
1266.162, 746804.0
1267.234, 749233.0
1268.305, 747342.0
1269.376, 746808.0
1270.447, 747445.0
1271.517, 748003.0
1272.588, 749547.0
1273.658, 745982.0
1274.729, 748113.0
1275.799, 747392.0
1276.868, 744933.0
1277.938, 746015.0
1279.008, 745118.0
1280.077, 745525.0
1281.146, 745649.0
1282.215, 746334.0
1283.284, 744991.0
1284.353, 745351.0
1285.421, 745701.0
1286.490, 742939.0
1287.558, 743646.0
1288.626, 744192.0
1289.694, 743732.0
1290.762, 743774.0
1291.829, 742120.0
1292.897, 742919.0
1293.964, 742726.0
1295.031, 741381.0
1296.098, 743301.0
1297.165, 742582.0
1298.231, 742046.0
1299.298, 741702.0
1300.364, 741288.0
1301.430, 741655.0
1302.496, 739699.0
1303.562, 741753.0
1304.627, 740757.0
1305.693, 739213.0
1306.758, 740022.0
1307.823, 739024.0
1308.888, 739225.0
1309.953, 738694.0
1311.018, 737342.0
1312.082, 737740.0
1313.146, 737206.8
1314.210, 736852.0
1315.274, 737546.0
1316.338, 737648.0
1317.402, 738795.0
1318.465, 735702.0
1319.529, 737127.0
1320.592, 735183.0
1321.655, 734874.0
1322.718, 736914.0
1323.780, 735959.0
1324.843, 736154.0
1325.905, 735113.0
1326.967, 734830.0
1328.029, 733802.0
1329.091, 732810.0
1330.153, 734055.0
1331.214, 732962.0
1332.275, 731839.0
1333.337, 731641.0
1334.398, 729848.0
1335.458, 731192.0
1336.519, 730710.0
1337.580, 731616.0
1338.640, 730349.0
1339.700, 730231.0
1340.760, 731271.0
1341.820, 731235.0
1342.880, 729881.0
1343.939, 730422.0
1344.999, 730141.0
1346.058, 731026.0
1347.117, 729493.0
1348.176, 729929.0
1349.235, 728935.0
1350.293, 728530.0
1351.351, 729392.0
1352.410, 727889.0
1353.468, 728356.0
1354.526, 727839.0
1355.583, 727479.0
1356.641, 727284.0
1357.698, 726046.0
1358.756, 725923.0
1359.813, 725209.0
1360.869, 724118.0
1361.926, 725561.0
1362.983, 725114.0
1364.039, 724878.0
1365.095, 724167.0
1366.152, 724434.0
1367.207, 724119.0
1368.263, 722371.0
1369.319, 724417.0
1370.374, 723521.0
1371.430, 722418.0
1372.485, 722724.0
1373.540, 723009.0
1374.594, 722234.0
1375.649, 721602.0
1376.703, 721905.0
1377.758, 721441.0
1378.812, 720858.0
1379.866, 721593.0
1380.920, 719625.0
1381.973, 721217.0
1383.027, 720269.0
1384.080, 720839.0
1385.133, 721365.0
1386.186, 717903.0
1387.239, 719335.0
1388.291, 718763.0
1389.344, 717787.0
1390.396, 720196.0
1391.448, 717155.0
1392.500, 717986.0
1393.552, 717045.0
1394.604, 716051.0
1395.655, 718110.0
1396.707, 715238.0
1397.758, 716842.0
1398.809, 714559.0
1399.860, 714776.0
1400.910, 716449.0
1401.961, 714676.0
1403.011, 714178.0
1404.061, 714297.0
1405.111, 714007.0
1406.161, 713134.0
1407.211, 712791.0
1408.260, 713761.0
1409.310, 712978.0
1410.359, 711456.0
1411.408, 714093.0
1412.457, 711355.0
1413.506, 712297.0
1414.554, 711226.0
1415.603, 711593.0
1416.651, 710870.0
1417.699, 710019.0
1418.747, 709143.0
1419.794, 709328.7
1420.842, 709352.0
1421.889, 709727.0
1422.937, 709139.0
1423.984, 708983.0
1425.031, 707620.0
1426.077, 707861.0
1427.124, 708177.0
1428.170, 705848.0
1429.217, 706296.0
1430.263, 705463.0
1431.309, 705792.0
1432.354, 705546.0
1433.400, 704927.0
1434.445, 705144.0
1435.491, 704172.0
1436.536, 703470.0
1437.581, 703763.0
1438.625, 701503.0
1439.670, 704054.0
1440.714, 702624.0
1441.759, 701174.0
1442.803, 701999.0
1443.847, 700312.0
1444.890, 701182.0
1445.934, 699652.0
1446.978, 699610.0
1448.021, 699870.0
1449.064, 699098.0
1450.107, 699799.0
1451.150, 698760.0
1452.192, 697716.0
1453.235, 698794.0
1454.277, 697875.0
1455.319, 697744.0
1456.361, 697433.0
1457.403, 697817.0
1458.445, 696756.0
1459.486, 696795.0
1460.528, 697027.0
1461.569, 695170.0
1462.610, 694764.0
1463.651, 695080.0
1464.691, 692328.0
1465.732, 695064.0
1466.772, 692796.0
1467.812, 691594.0
1468.852, 693301.0
1469.892, 691616.0
1470.932, 691756.0
1471.971, 691246.0
1473.011, 690891.0
1474.050, 691742.0
1475.089, 689565.0
1476.128, 690860.0
1477.166, 690133.0
1478.205, 689237.0
1479.243, 690263.0
1480.282, 688301.0
1481.320, 687364.0
1482.357, 687318.0
1483.395, 687071.0
1484.433, 686607.0
1485.470, 686004.0
1486.507, 686803.0
1487.544, 685866.0
1488.581, 685468.0
1489.618, 687205.0
1490.655, 683748.0
1491.691, 684591.0
1492.727, 685310.0
1493.763, 682818.0
1494.799, 683389.0
1495.835, 682291.0
1496.871, 683449.0
1497.906, 683130.0
1498.941, 680286.0
1499.976, 682592.0
1501.011, 680722.0
1502.046, 680531.0
1503.081, 680787.0
1504.115, 679463.0
1505.149, 679537.0
1506.183, 678411.0
1507.217, 678736.0
1508.251, 678756.0
1509.285, 677844.0
1510.318, 677989.0
1511.352, 676953.0
1512.385, 678077.0
1513.418, 677217.0
1514.450, 676129.0
1515.483, 678143.0
1516.516, 676043.0
1517.548, 675850.0
1518.580, 674958.0
1519.612, 675429.0
1520.644, 675364.0
1521.675, 673649.0
1522.707, 673296.0
1523.738, 674050.0
1524.769, 673249.0
1525.800, 673727.0
1526.831, 670986.0
1527.862, 672353.0
1528.892, 672041.0
1529.923, 669995.0
1530.953, 671248.0
1531.983, 670144.0
1533.013, 669483.0
1534.042, 671287.0
1535.072, 669270.0
1536.101, 670315.0
1537.131, 668789.0
1538.160, 669156.0
1539.188, 668872.0
1540.217, 668034.0
1541.246, 669064.0
1542.274, 668539.0
1543.302, 667081.0
1544.330, 668218.0
1545.358, 666193.0
1546.386, 666669.0
1547.413, 666214.0
1548.441, 664333.0
1549.468, 665303.0
1550.495, 663143.0
1551.522, 663802.0
1552.549, 663946.0
1553.575, 663937.0
1554.602, 662940.0
1555.628, 661872.0
1556.654, 662875.0
1557.680, 662624.0
1558.706, 659668.0
1559.731, 661550.0
1560.757, 660476.0
1561.782, 661029.0
1562.807, 661682.0
1563.832, 659792.0
1564.857, 660649.0
1565.881, 659453.0
1566.906, 658746.0
1567.930, 659168.0
1568.954, 658132.0
1569.978, 659094.0
1571.002, 656839.0
1572.025, 656879.0
1573.049, 656804.0
1574.072, 655504.0
1575.095, 655201.0
1576.118, 654112.0
1577.141, 654971.0
1578.164, 655411.0
##END=



