##NAMES=Sodalite
##RRUFFID=R060354
##IDEAL CHEMISTRY=Na_4_Si_3_Al_3_O_12_Cl
##LOCALITY=Koksha Valley, Badakshan Province, Afghanistan
##OWNER=RRUFF
##SOURCE=Herb Obodda
##DESCRIPTION=Pale purple transparent fragment
##STATUS=The identification of this mineral has been confirmed by X-ray diffraction and chemical analysis
##URL=rruff.info/R060354
##MEASURED CHEMISTRY=(Na_0.99_K_0.01_)_8_Al_6.00_Si_6.00_O_24_Cl_2.00_
##PIN_ID=L01562
##ORIENTATION=Laser parallel to a* (1 0 0). Fiducial mark perpendicular to laser is parallel to -c [0 0 -1]
61.44800, 63513.00
62.69200, 63577.00
63.93500, 63892.00
65.17800, 64285.00
66.42100, 64447.00
67.66400, 64640.00
68.90700, 64873.00
70.15000, 64849.00
71.39200, 65202.00
72.63400, 65274.00
73.87600, 65530.00
75.11800, 65676.00
76.36000, 65811.00
77.60100, 66028.00
78.84200, 65734.00
80.08400, 66917.00
81.32500, 66984.00
82.56500, 67164.41
83.80600, 68053.00
85.04600, 67215.00
86.28700, 67271.00
87.52700, 66829.00
88.76700, 67274.00
90.00600, 67582.00
91.24600, 67696.00
92.48500, 67992.00
93.72500, 68287.00
94.96400, 68914.00
96.20300, 68713.00
97.44100, 68722.00
98.68000, 69206.00
99.91800, 69029.00
101.1560, 69011.00
102.3940, 69150.00
103.6320, 69251.00
104.8700, 69748.00
106.1070, 69744.02
107.3450, 70306.84
108.5820, 70658.91
109.8190, 70811.61
111.0550, 70167.72
112.2920, 70552.44
113.5290, 70524.96
114.7650, 70480.52
116.0010, 71009.94
117.2370, 70481.90
118.4730, 71002.22
119.7080, 71547.00
120.9440, 75245.00
122.1790, 76096.00
123.4140, 73921.00
124.6490, 72485.00
125.8830, 71748.00
127.1180, 71637.00
128.3520, 71537.00
129.5870, 72072.00
130.8210, 72260.00
132.0540, 72668.00
133.2880, 72754.00
134.5220, 72577.00
135.7550, 72790.00
136.9880, 72626.00
138.2210, 73001.00
139.4540, 72785.00
140.6860, 73320.00
141.9190, 73002.00
143.1510, 73827.00
144.3830, 73698.00
145.6150, 73910.00
146.8470, 74145.00
148.0790, 74428.00
149.3100, 74584.00
150.5410, 74472.00
151.7720, 74948.00
153.0030, 75423.00
154.2340, 75431.00
155.4640, 76178.00
156.6950, 76376.00
157.9250, 76801.00
159.1550, 77290.00
160.3850, 78367.00
161.6150, 79442.00
162.8440, 80937.00
164.0730, 81989.00
165.3030, 83152.00
166.5320, 83228.00
167.7600, 83037.00
168.9890, 82237.00
170.2180, 80905.00
171.4460, 80578.00
172.6740, 79762.00
173.9020, 79561.00
175.1300, 79587.00
176.3570, 79132.00
177.5850, 79267.00
178.8120, 79134.00
180.0390, 79224.00
181.2660, 79182.00
182.4930, 78832.00
183.7190, 79044.00
184.9460, 78806.00
186.1720, 79094.00
187.3980, 78558.00
188.6240, 78625.00
189.8500, 79031.00
191.0750, 79118.00
192.3010, 79258.00
193.5260, 79384.00
194.7510, 79162.00
195.9760, 79407.00
197.2000, 79948.00
198.4250, 80211.00
199.6490, 79990.00
200.8730, 80161.00
202.0970, 80314.00
203.3210, 80557.00
204.5450, 80382.00
205.7680, 80384.00
206.9920, 80828.00
208.2150, 80989.00
209.4380, 80829.00
210.6610, 81097.00
211.8830, 80985.00
213.1060, 81647.00
214.3280, 81769.00
215.5500, 81936.00
216.7720, 81991.00
217.9940, 81903.00
219.2150, 82381.00
220.4370, 82665.00
221.6580, 82738.00
222.8790, 83257.00
224.1000, 83182.00
225.3210, 83394.00
226.5410, 83173.00
227.7620, 83366.00
228.9820, 84004.00
230.2020, 83952.00
231.4220, 84716.00
232.6410, 84733.00
233.8610, 85199.00
235.0800, 85580.00
236.2990, 85241.00
237.5180, 86011.00
238.7370, 86108.00
239.9560, 86425.00
241.1750, 86150.00
242.3930, 86520.00
243.6110, 86928.00
244.8290, 87391.00
246.0470, 87333.00
247.2640, 88243.00
248.4820, 88760.00
249.6990, 89119.00
250.9160, 90084.00
252.1330, 90931.00
253.3500, 91247.00
254.5670, 92567.00
255.7830, 93019.00
256.9990, 94108.00
258.2160, 95461.00
259.4310, 96521.00
260.6470, 97537.00
261.8630, 98144.00
263.0780, 98912.00
264.2930, 98964.00
265.5090, 98873.00
266.7230, 98413.00
267.9380, 97888.00
269.1530, 97001.00
270.3670, 95877.00
271.5810, 95414.00
272.7950, 94341.00
274.0090, 93765.00
275.2230, 93238.00
276.4370, 92967.00
277.6500, 92458.00
278.8630, 92331.00
280.0760, 92289.00
281.2890, 91946.00
282.5020, 92147.00
283.7140, 92252.00
284.9270, 92411.00
286.1390, 92318.00
287.3510, 92722.00
288.5630, 93216.00
289.7740, 93601.00
290.9860, 94610.00
292.1970, 94778.00
293.4080, 95898.00
294.6190, 95932.00
295.8300, 95632.00
297.0410, 95100.00
298.2510, 94599.00
299.4610, 94275.00
300.6710, 93421.00
301.8810, 93044.00
303.0910, 92796.00
304.3010, 92876.00
305.5100, 92760.00
306.7200, 92780.00
307.9290, 92796.00
309.1380, 92764.00
310.3460, 92583.00
311.5550, 92552.00
312.7630, 92643.00
313.9720, 93084.00
315.1800, 93218.00
316.3880, 93279.83
317.5950, 92903.00
318.8030, 93466.00
320.0100, 93398.00
321.2180, 93810.00
322.4250, 93458.00
323.6320, 93498.00
324.8380, 93784.00
326.0450, 94142.00
327.2510, 94393.00
328.4570, 94474.12
329.6640, 94009.00
330.8690, 94573.00
332.0750, 94444.00
333.2810, 94561.00
334.4860, 94803.00
335.6910, 94916.00
336.8960, 95022.00
338.1010, 95132.87
339.3060, 95255.00
340.5100, 95322.00
341.7150, 95411.00
342.9190, 95634.00
344.1230, 95615.00
345.3270, 96038.00
346.5300, 96143.00
347.7340, 96115.00
348.9370, 96249.00
350.1400, 96257.00
351.3430, 96668.00
352.5460, 96800.00
353.7490, 96710.00
354.9510, 97090.00
356.1540, 97677.00
357.3560, 97151.00
358.5580, 97411.00
359.7600, 97130.00
360.9610, 97843.00
362.1630, 97702.00
363.3640, 97752.00
364.5650, 98155.00
365.7660, 98223.00
366.9670, 98496.00
368.1680, 98383.00
369.3680, 98983.00
370.5680, 98939.00
371.7680, 98620.00
372.9680, 98813.00
374.1680, 99268.00
375.3680, 99235.00
376.5670, 99638.00
377.7660, 99281.00
378.9660, 100046.0
380.1640, 99760.00
381.3630, 99992.00
382.5620, 99950.00
383.7600, 100259.0
384.9590, 100087.0
386.1570, 100551.0
387.3550, 100392.0
388.5520, 100695.0
389.7500, 100710.0
390.9470, 101283.0
392.1450, 101071.0
393.3420, 100882.0
394.5390, 101110.0
395.7350, 100900.0
396.9320, 101537.0
398.1280, 101940.0
399.3250, 101554.0
400.5210, 101967.0
401.7160, 102461.0
402.9120, 102467.0
404.1080, 102794.0
405.3030, 102771.0
406.4980, 103007.0
407.6930, 103565.0
408.8880, 103405.0
410.0830, 104075.0
411.2780, 104365.0
412.4720, 103628.0
413.6660, 104265.0
414.8600, 104096.0
416.0540, 104428.0
417.2480, 104912.0
418.4410, 104482.0
419.6350, 104484.0
420.8280, 105449.0
422.0210, 104938.0
423.2140, 105139.0
424.4070, 105673.0
425.5990, 105847.0
426.7920, 105964.0
427.9840, 106318.0
429.1760, 106110.0
430.3680, 107050.0
431.5590, 106786.0
432.7510, 106948.0
433.9420, 107365.0
435.1330, 107322.0
436.3240, 107603.0
437.5150, 107776.0
438.7060, 108234.0
439.8960, 108975.0
441.0870, 109400.0
442.2770, 109390.0
443.4670, 110443.0
444.6570, 111190.0
445.8470, 111883.0
447.0360, 112994.0
448.2250, 113873.0
449.4150, 115063.0
450.6040, 116107.0
451.7920, 118409.0
452.9810, 120930.0
454.1700, 123644.0
455.3580, 127368.0
456.5460, 132845.0
457.7340, 138921.0
458.9220, 146935.0
460.1100, 156227.0
461.2970, 166528.0
462.4850, 173612.0
463.6720, 177727.0
464.8590, 176170.0
466.0460, 169978.0
467.2320, 161099.0
468.4190, 151786.0
469.6050, 143654.0
470.7910, 137023.0
471.9770, 132539.0
473.1630, 128276.0
474.3490, 125175.0
475.5340, 122911.0
476.7200, 121188.0
477.9050, 119659.0
479.0900, 118685.0
480.2750, 117489.0
481.4590, 117143.0
482.6440, 116576.0
483.8280, 115921.0
485.0120, 115828.0
486.1960, 115374.0
487.3800, 115528.0
488.5640, 115473.0
489.7470, 114776.0
490.9310, 114879.0
492.1140, 114660.0
493.2970, 114482.0
494.4800, 114318.0
495.6620, 114399.0
496.8450, 114376.0
498.0270, 114302.0
499.2090, 113992.0
500.3910, 114520.0
501.5730, 114744.0
502.7550, 114012.0
503.9360, 114466.0
505.1170, 114705.0
506.2990, 113946.0
507.4800, 114038.0
508.6600, 114197.0
509.8410, 114349.0
511.0220, 114675.0
512.2020, 114648.0
513.3820, 114856.0
514.5620, 114461.0
515.7420, 114814.0
516.9220, 114314.0
518.1010, 114679.0
519.2800, 114924.0
520.4600, 115093.0
521.6390, 114924.0
522.8170, 115527.0
523.9960, 115260.0
525.1750, 115135.0
526.3530, 115466.0
527.5310, 115652.0
528.7090, 116073.0
529.8870, 115792.0
531.0650, 116012.0
532.2420, 115767.0
533.4190, 115953.0
534.5970, 115698.0
535.7740, 116406.0
536.9500, 116207.0
538.1270, 116342.0
539.3040, 116530.0
540.4800, 116236.0
541.6560, 116611.0
542.8320, 116870.0
544.0080, 116710.0
545.1840, 116961.0
546.3590, 116839.0
547.5340, 117181.0
548.7100, 116964.0
549.8850, 117352.0
551.0600, 117766.0
552.2340, 117309.0
553.4090, 117192.0
554.5830, 117920.0
555.7570, 117701.0
556.9310, 117924.0
558.1050, 117672.0
559.2790, 118126.0
560.4520, 118288.0
561.6260, 118479.0
562.7990, 118530.3
563.9720, 118538.1
565.1450, 118541.0
566.3170, 118557.0
567.4900, 118650.0
568.6620, 118600.0
569.8350, 118621.0
571.0070, 118733.0
572.1780, 119163.0
573.3500, 119165.0
574.5220, 119108.0
575.6930, 119364.0
576.8640, 119197.0
578.0350, 119371.0
579.2060, 119614.0
580.3770, 119644.0
581.5470, 119556.0
582.7180, 119783.0
583.8880, 119580.0
585.0580, 119990.0
586.2280, 119970.0
587.3980, 120347.0
588.5670, 120652.3
589.7370, 120789.0
590.9060, 121254.0
592.0750, 121083.0
593.2440, 121129.0
594.4130, 120821.0
595.5810, 120732.0
596.7500, 121310.0
597.9180, 121268.0
599.0860, 121311.0
600.2540, 121747.0
601.4220, 121784.0
602.5890, 121599.0
603.7570, 121529.0
604.9240, 121949.0
606.0910, 121848.0
607.2580, 122144.0
608.4250, 122175.0
609.5910, 122556.0
610.7580, 122441.0
611.9240, 122276.0
613.0900, 122699.0
614.2560, 122410.0
615.4220, 122320.0
616.5870, 122625.0
617.7530, 122724.0
618.9180, 122768.0
620.0830, 122715.0
621.2480, 122796.0
622.4130, 122859.6
623.5770, 122978.8
624.7420, 123066.0
625.9060, 123223.0
627.0700, 123363.8
628.2340, 123312.0
629.3980, 123649.0
630.5620, 123847.0
631.7250, 123926.0
632.8880, 123749.0
634.0510, 123673.0
635.2140, 124083.0
636.3770, 124128.0
637.5400, 124424.0
638.7020, 124529.0
639.8650, 124554.0
641.0270, 124702.0
642.1890, 124774.0
643.3510, 124927.0
644.5120, 124995.3
645.6740, 124981.0
646.8350, 125031.0
647.9960, 124942.0
649.1570, 124712.0
650.3180, 124762.9
651.4790, 125220.0
652.6390, 125040.0
653.8000, 125272.0
654.9600, 125723.0
656.1200, 125161.0
657.2800, 125439.0
658.4390, 125928.0
659.5990, 125468.0
660.7580, 125871.0
661.9170, 125462.0
663.0770, 125657.0
664.2350, 126269.0
665.3940, 126288.0
666.5530, 126053.0
667.7110, 126603.0
668.8690, 126193.0
670.0270, 126313.0
671.1850, 126402.0
672.3430, 126777.0
673.5000, 126677.0
674.6580, 126931.0
675.8150, 127067.0
676.9720, 126508.0
678.1290, 126638.0
679.2860, 127021.0
680.4420, 126828.0
681.5990, 127433.0
682.7550, 127331.0
683.9110, 127391.0
685.0670, 127336.0
686.2230, 127704.0
687.3790, 127873.0
688.5340, 128042.0
689.6890, 127557.0
690.8440, 127673.0
691.9990, 128801.0
693.1540, 129310.0
694.3090, 128738.0
695.4630, 128657.0
696.6170, 128298.0
697.7720, 128551.0
698.9260, 128558.0
700.0790, 129042.0
701.2330, 129200.0
702.3870, 128717.0
703.5400, 128213.4
704.6930, 128900.6
705.8460, 129324.4
706.9990, 129499.1
708.1510, 128678.0
709.3040, 129142.6
710.4560, 129092.0
711.6090, 129020.3
712.7610, 129665.8
713.9120, 128989.4
715.0640, 129623.6
716.2160, 129734.7
717.3670, 130085.0
718.5180, 129917.0
719.6690, 129909.1
720.8200, 130419.8
721.9710, 130643.3
723.1210, 130415.5
724.2720, 130781.2
725.4220, 130086.6
726.5720, 130322.3
727.7220, 130959.4
728.8720, 130757.6
730.0210, 131132.6
731.1710, 131287.9
732.3200, 130445.0
733.4690, 131338.1
734.6180, 131480.4
735.7670, 131302.0
736.9150, 131471.0
738.0640, 131226.0
739.2120, 131283.0
740.3600, 131334.0
741.5080, 131793.0
742.6560, 132059.0
743.8040, 132470.0
744.9510, 132021.0
746.0980, 132348.0
747.2450, 132335.0
748.3920, 132558.0
749.5390, 132398.0
750.6860, 132304.0
751.8320, 132948.0
752.9790, 132824.0
754.1250, 132468.0
755.2710, 132870.0
756.4170, 132632.0
757.5620, 132679.0
758.7080, 132542.0
759.8530, 132906.0
760.9990, 132748.0
762.1440, 133501.0
763.2880, 132493.0
764.4330, 133470.0
765.5780, 133429.0
766.7220, 133788.0
767.8660, 133255.0
769.0100, 133405.0
770.1540, 133688.0
771.2980, 133550.0
772.4420, 133454.0
773.5850, 133511.8
774.7280, 133282.0
775.8710, 133411.0
777.0140, 133781.0
778.1570, 133730.0
779.3000, 133825.0
780.4420, 133991.0
781.5840, 133841.0
782.7270, 133585.0
783.8690, 133631.0
785.0100, 133358.0
786.1520, 133788.0
787.2940, 133605.0
788.4350, 133968.0
789.5760, 133244.0
790.7170, 133342.0
791.8580, 133896.0
792.9980, 133434.0
794.1390, 133785.0
795.2790, 134137.0
796.4200, 133903.0
797.5600, 134445.0
798.6990, 134159.0
799.8390, 134468.0
800.9790, 134832.0
802.1180, 134392.0
803.2570, 134784.0
804.3960, 135116.0
805.5350, 135106.0
806.6740, 135236.0
807.8130, 135546.0
808.9510, 135783.0
810.0890, 135384.0
811.2270, 135446.0
812.3650, 135734.0
813.5030, 136315.0
814.6410, 136354.0
815.7780, 136155.0
816.9150, 136188.0
818.0530, 136343.0
819.1900, 136361.0
820.3260, 136810.0
821.4630, 136314.0
822.5990, 136688.0
823.7360, 136464.0
824.8720, 137063.0
826.0080, 137351.0
827.1440, 136974.0
828.2790, 136880.0
829.4150, 136961.0
830.5500, 136062.0
831.6860, 137158.0
832.8210, 136826.0
833.9560, 137484.0
835.0900, 137109.0
836.2250, 137745.0
837.3590, 137397.0
838.4930, 137190.0
839.6280, 137342.0
840.7610, 137347.0
841.8950, 137622.0
843.0290, 137218.0
844.1620, 137812.0
845.2950, 137749.0
846.4290, 137840.0
847.5620, 137292.0
848.6940, 137308.0
849.8270, 137750.0
850.9590, 137557.0
852.0920, 137785.0
853.2240, 138074.0
854.3560, 138266.0
855.4880, 137842.0
856.6190, 138005.0
857.7510, 138201.0
858.8820, 138556.0
860.0130, 138554.0
861.1450, 138204.0
862.2750, 138370.0
863.4060, 138123.0
864.5370, 138022.0
865.6670, 138671.0
866.7970, 138461.0
867.9270, 138708.0
869.0570, 138676.0
870.1870, 138648.0
871.3170, 138770.0
872.4460, 138802.0
873.5750, 138966.0
874.7040, 139202.0
875.8330, 139269.0
876.9620, 138957.0
878.0910, 138995.0
879.2190, 139226.0
880.3480, 139566.0
881.4760, 139142.0
882.6040, 139457.0
883.7320, 139421.0
884.8590, 139504.0
885.9870, 139472.0
887.1140, 139290.0
888.2410, 139421.0
889.3680, 139402.8
890.4950, 139655.0
891.6220, 139485.0
892.7490, 139231.0
893.8750, 139128.0
895.0010, 138818.0
896.1270, 138837.6
897.2530, 138883.7
898.3790, 138891.0
899.5050, 139055.0
900.6300, 139171.0
901.7550, 139004.0
902.8800, 139934.0
904.0050, 139286.0
905.1300, 139728.0
906.2550, 140038.0
907.3790, 139830.0
908.5040, 139778.0
909.6280, 140466.0
910.7520, 140009.0
911.8760, 140396.0
912.9990, 140438.0
914.1230, 140205.0
915.2460, 140461.0
916.3690, 140197.0
917.4930, 140851.0
918.6150, 140563.0
919.7380, 140974.0
920.8610, 140967.0
921.9830, 140848.0
923.1050, 140701.0
924.2280, 140683.0
925.3490, 140639.0
926.4710, 141158.0
927.5930, 141333.0
928.7140, 141414.9
929.8360, 140742.0
930.9570, 141372.0
932.0780, 141269.0
933.1990, 140767.0
934.3190, 141389.0
935.4400, 141631.0
936.5600, 141566.0
937.6800, 141149.0
938.8000, 141575.0
939.9200, 141226.0
941.0400, 141671.0
942.1600, 141417.0
943.2790, 141326.0
944.3980, 141125.0
945.5170, 141814.0
946.6360, 141722.0
947.7550, 141820.0
948.8740, 142703.0
949.9920, 141652.0
951.1100, 141768.0
952.2280, 142009.0
953.3460, 142380.0
954.4640, 142069.0
955.5820, 142343.0
956.6990, 142181.0
957.8170, 142543.0
958.9340, 142897.0
960.0510, 142780.0
961.1680, 142891.0
962.2850, 143753.0
963.4010, 143920.0
964.5170, 144163.0
965.6340, 144076.0
966.7500, 144367.6
967.8660, 144820.0
968.9810, 144805.0
970.0970, 144988.0
971.2130, 145281.0
972.3280, 145210.0
973.4430, 144945.0
974.5580, 145054.0
975.6730, 145274.0
976.7870, 145635.0
977.9020, 146334.0
979.0160, 147097.0
980.1300, 148264.0
981.2440, 149967.0
982.3580, 152368.0
983.4720, 155684.0
984.5860, 159050.0
985.6990, 161850.0
986.8120, 162597.0
987.9250, 161357.0
989.0380, 159335.0
990.1510, 155639.0
991.2630, 152833.0
992.3760, 150679.0
993.4880, 148873.0
994.6000, 147329.0
995.7120, 146116.0
996.8240, 146007.0
997.9360, 145164.0
999.0470, 144904.0
1000.159, 144978.0
1001.270, 144958.0
1002.381, 144470.0
1003.492, 144614.0
1004.602, 144492.0
1005.713, 144400.0
1006.823, 143393.0
1007.934, 144317.0
1009.044, 144103.0
1010.154, 143797.0
1011.263, 144453.0
1012.373, 144009.0
1013.482, 143994.0
1014.592, 143951.0
1015.701, 143926.0
1016.810, 143930.0
1017.919, 143554.0
1019.027, 143474.0
1020.136, 143223.0
1021.244, 144421.0
1022.352, 143336.0
1023.460, 143686.0
1024.568, 143038.0
1025.676, 143072.0
1026.784, 143293.0
1027.891, 143028.0
1028.998, 143136.0
1030.105, 143098.0
1031.212, 143256.0
1032.319, 143006.0
1033.426, 143228.0
1034.532, 143020.0
1035.638, 144139.0
1036.745, 143905.0
1037.851, 144217.0
1038.956, 143490.0
1040.062, 143589.0
1041.168, 143913.0
1042.273, 143763.0
1043.378, 143733.0
1044.483, 143171.0
1045.588, 143656.0
1046.693, 144052.0
1047.798, 142679.8
1048.902, 143555.9
1050.006, 144193.8
1051.110, 144603.0
1052.214, 144285.9
1053.318, 144763.3
1054.422, 144834.6
1055.525, 144829.2
1056.629, 145239.5
1057.732, 144706.1
1058.835, 144983.9
1059.938, 145912.0
1061.040, 145589.0
1062.143, 146169.0
1063.245, 146366.0
1064.348, 146239.0
1065.450, 146156.0
1066.552, 145885.0
1067.653, 145546.0
1068.755, 145484.0
1069.856, 144826.0
1070.958, 144979.0
1072.059, 144455.0
1073.160, 144539.0
1074.261, 144169.0
1075.361, 144435.0
1076.462, 144117.0
1077.562, 144064.0
1078.662, 144322.0
1079.762, 144061.0
1080.862, 143697.0
1081.962, 144313.0
1083.062, 144274.0
1084.161, 144058.0
1085.260, 144167.0
1086.359, 144150.0
1087.458, 143876.0
1088.557, 143977.8
1089.656, 144144.0
1090.754, 143953.0
1091.853, 144214.0
1092.951, 144259.0
1094.049, 144205.0
1095.147, 143900.0
1096.244, 144204.0
1097.342, 144013.0
1098.439, 144246.0
1099.537, 144263.0
1100.634, 143820.0
1101.731, 144732.0
1102.827, 144225.0
1103.924, 143964.0
1105.021, 143882.0
1106.117, 144574.0
1107.213, 144110.0
1108.309, 143957.0
1109.405, 144342.0
1110.501, 144103.0
1111.596, 144439.0
1112.691, 143809.0
1113.787, 143518.0
1114.882, 144135.0
1115.977, 144125.0
1117.071, 144247.0
1118.166, 144249.0
1119.260, 144376.0
1120.355, 144299.0
1121.449, 144200.0
1122.543, 144325.0
1123.637, 143614.0
1124.730, 144338.0
1125.824, 143680.0
1126.917, 143911.0
1128.010, 144419.0
1129.103, 143940.0
1130.196, 144054.0
1131.289, 144059.0
1132.382, 144255.0
1133.474, 144574.0
1134.566, 143932.0
1135.659, 143988.0
1136.750, 143352.2
1137.842, 143745.1
1138.934, 143962.4
1140.025, 144013.6
1141.117, 143401.0
1142.208, 143645.5
1143.299, 143546.6
1144.390, 143433.5
1145.481, 143798.7
1146.571, 143282.7
1147.662, 143640.2
1148.752, 143649.1
1149.842, 143817.5
1150.932, 144328.0
1152.022, 143981.0
1153.111, 144023.0
1154.201, 144137.0
1155.290, 144117.0
1156.379, 144016.0
1157.468, 144105.0
1158.557, 143913.0
1159.646, 143915.0
1160.734, 144290.0
1161.823, 144187.0
1162.911, 143776.0
1163.999, 144243.0
1165.087, 143979.0
1166.175, 143992.0
1167.262, 144034.9
1168.350, 143387.0
1169.437, 143778.0
1170.524, 143628.0
1171.611, 143196.0
1172.698, 143631.0
1173.785, 143165.0
1174.872, 143576.0
1175.958, 144404.0
1177.044, 144373.0
1178.130, 143576.0
1179.216, 143518.0
1180.302, 144010.0
1181.388, 143516.0
1182.473, 143864.0
1183.558, 143629.0
1184.644, 143255.0
1185.729, 143939.0
1186.813, 143548.0
1187.898, 143857.0
1188.983, 143082.0
1190.067, 144037.0
1191.151, 143408.0
1192.235, 143672.0
1193.319, 143600.0
1194.403, 143497.0
1195.487, 142835.0
1196.570, 143413.0
1197.653, 143241.0
1198.737, 143686.0
1199.820, 143667.0
1200.902, 142700.0
1201.985, 143075.0
1203.068, 142887.0
1204.150, 143128.0
1205.232, 143596.0
1206.314, 143078.0
1207.396, 142984.0
1208.478, 142904.0
1209.560, 143488.0
1210.641, 142860.0
1211.722, 142799.0
1212.804, 143450.0
1213.885, 143164.0
1214.965, 143043.0
1216.046, 143534.0
1217.127, 142960.0
1218.207, 143079.0
1219.287, 143194.0
1220.367, 143126.0
1221.447, 142740.0
1222.527, 143577.0
1223.607, 142692.0
1224.686, 143499.0
1225.765, 143374.0
1226.845, 143738.0
1227.924, 142884.0
1229.002, 143184.0
1230.081, 143602.0
1231.160, 143162.0
1232.238, 143461.0
1233.316, 143316.0
1234.394, 143226.0
1235.472, 143423.0
1236.550, 143408.0
1237.628, 143001.0
1238.705, 142819.0
1239.783, 142855.0
1240.860, 142573.0
1241.937, 142711.0
1243.014, 142963.0
1244.090, 142906.0
1245.167, 142623.0
1246.243, 142574.0
1247.319, 142570.0
1248.396, 142622.0
1249.471, 142730.0
1250.547, 142262.0
1251.623, 142242.0
1252.698, 142324.0
1253.774, 142615.0
1254.849, 142243.0
1255.924, 142262.0
1256.999, 142781.0
1258.074, 142334.0
1259.148, 142206.0
1260.222, 142371.0
1261.297, 142152.0
1262.371, 142409.0
1263.445, 142174.0
1264.519, 142444.0
1265.592, 142162.0
1266.666, 142124.0
1267.739, 142447.0
1268.812, 141615.0
1269.885, 142350.0
1270.958, 142057.0
1272.031, 142196.0
1273.104, 141879.0
1274.176, 142376.0
1275.248, 141968.0
1276.320, 141850.0
1277.392, 142455.0
1278.464, 141743.0
1279.536, 141996.0
1280.607, 142797.0
1281.679, 142184.0
1282.750, 141955.0
1283.821, 142136.0
1284.892, 141845.0
1285.963, 142386.0
1287.033, 142334.0
1288.104, 141447.0
1289.174, 141841.0
1290.244, 141521.0
1291.314, 141596.0
1292.384, 141513.0
1293.454, 142081.0
1294.523, 141061.0
1295.592, 141657.0
1296.662, 141602.0
1297.731, 140964.0
1298.800, 141355.0
1299.868, 141275.0
1300.937, 141950.0
1302.006, 141644.0
1303.074, 141267.0
1304.142, 141378.0
1305.210, 141433.0
1306.278, 141741.0
1307.346, 141476.0
1308.413, 140874.0
1309.481, 141316.0
1310.548, 141460.0
1311.615, 140987.0
1312.682, 141147.3
1313.749, 140981.0
1314.815, 140914.0
1315.882, 141030.0
1316.948, 141145.0
1318.014, 140838.0
1319.080, 141506.0
1320.146, 140981.0
1321.212, 140350.0
1322.278, 140802.0
1323.343, 140863.0
1324.408, 140700.0
1325.473, 140721.0
1326.538, 141038.0
1327.603, 140404.0
1328.668, 140132.0
1329.732, 140338.0
1330.797, 140526.0
1331.861, 140442.0
1332.925, 140472.0
1333.989, 140191.0
1335.053, 140335.0
1336.116, 140951.0
1337.180, 140064.0
1338.243, 140344.0
1339.306, 140256.0
1340.369, 140991.0
1341.432, 140608.0
1342.495, 140523.0
1343.557, 140212.0
1344.620, 140076.0
1345.682, 140343.0
1346.744, 139725.0
1347.806, 140089.0
1348.868, 139694.0
1349.930, 139840.0
1350.991, 140172.0
1352.052, 139864.0
1353.114, 140018.0
1354.175, 140121.0
1355.235, 139508.0
1356.296, 139928.0
1357.357, 139745.0
1358.417, 139455.0
1359.478, 139644.0
1360.538, 139250.0
1361.598, 139833.0
1362.657, 139349.0
1363.717, 139449.0
1364.777, 139715.0
1365.836, 139716.0
1366.895, 139929.0
1367.954, 139310.0
1369.013, 139613.0
1370.072, 139451.0
1371.131, 139347.0
1372.189, 139408.3
1373.247, 139288.0
1374.306, 139352.0
1375.364, 139277.0
1376.422, 139314.0
1377.479, 139376.0
1378.537, 139211.0
1379.594, 139189.5
1380.651, 139145.0
1381.709, 139058.0
1382.766, 139082.0
1383.822, 139207.0
1384.879, 139306.0
1385.936, 138740.0
1386.992, 138557.0
1388.048, 139262.0
1389.104, 138856.0
1390.160, 139315.0
1391.216, 138778.0
1392.272, 139114.0
1393.327, 138926.0
1394.382, 138367.0
1395.437, 138443.0
1396.492, 138547.0
1397.547, 138430.0
1398.602, 138510.1
1399.657, 138247.0
1400.711, 138483.0
1401.765, 138282.0
1402.819, 138173.0
1403.873, 138101.0
1404.927, 137705.0
1405.981, 138377.0
1407.034, 138045.0
1408.088, 137993.0
1409.141, 138372.0
1410.194, 138363.0
1411.247, 138268.0
1412.300, 138034.0
1413.352, 137786.0
1414.405, 137687.8
1415.457, 137799.0
1416.509, 137573.0
1417.561, 137750.0
1418.613, 138040.0
1419.665, 137920.0
1420.716, 137845.0
1421.768, 138024.0
1422.819, 137510.0
1423.870, 137454.0
1424.921, 137620.0
1425.972, 137172.0
1427.022, 137611.0
1428.073, 137258.0
1429.123, 137610.0
1430.173, 137267.0
1431.224, 136686.0
1432.273, 137486.0
1433.323, 137050.0
1434.373, 137427.0
1435.422, 137071.0
1436.472, 136917.0
1437.521, 137138.0
1438.570, 136651.0
1439.619, 136968.0
1440.667, 136564.0
1441.716, 136807.0
1442.764, 136677.0
1443.813, 136090.0
1444.861, 136563.0
1445.909, 136253.0
1446.956, 136528.0
1448.004, 136744.0
1449.052, 135996.0
1450.099, 135948.0
1451.146, 136098.0
1452.193, 135431.0
1453.240, 136027.0
1454.287, 135666.0
1455.334, 136070.0
1456.380, 135938.0
1457.426, 136440.0
1458.473, 136775.0
1459.519, 135878.0
1460.565, 136008.0
1461.610, 135914.0
1462.656, 136314.0
1463.701, 135649.0
1464.747, 135430.0
1465.792, 136027.0
1466.837, 136096.0
1467.881, 135645.0
1468.926, 135620.0
1469.971, 134981.0
1471.015, 135397.0
1472.059, 135097.0
1473.103, 134733.0
1474.147, 135278.0
1475.191, 134249.0
1476.235, 135012.0
1477.278, 134922.0
1478.322, 134453.0
1479.365, 134744.0
1480.408, 134409.0
1481.451, 134344.0
1482.493, 134647.0
1483.536, 134090.0
1484.578, 134941.0
1485.621, 134688.0
1486.663, 134743.0
1487.705, 134892.0
1488.747, 134475.0
1489.788, 134795.0
1490.830, 134479.0
1491.871, 134105.0
1492.913, 134590.0
1493.954, 133733.0
1494.995, 134563.0
1496.036, 133966.0
1497.076, 134361.0
1498.117, 134283.0
1499.157, 133777.0
1500.197, 133899.0
1501.237, 133664.0
1502.277, 133887.0
1503.317, 133685.0
1504.357, 133544.0
1505.396, 133414.0
1506.436, 133356.0
1507.475, 133205.8
1508.514, 133495.0
1509.553, 133109.0
1510.591, 133206.0
1511.630, 133493.0
1512.668, 133121.0
1513.707, 132887.0
1514.745, 132674.0
1515.783, 133277.0
1516.821, 133076.0
1517.858, 133066.0
1518.896, 132996.0
1519.933, 132707.0
1520.971, 132916.0
1522.008, 132608.0
1523.045, 132276.0
1524.081, 132444.0
1525.118, 132237.0
1526.155, 132488.0
1527.191, 132273.0
1528.227, 132703.0
1529.263, 132198.0
1530.299, 131761.0
1531.335, 132702.0
1532.371, 132358.0
1533.406, 131601.0
1534.441, 132228.0
1535.477, 131894.0
1536.512, 132110.0
1537.547, 132313.0
1538.581, 131921.0
1539.616, 131957.0
1540.650, 131693.0
1541.685, 132333.0
1542.719, 132097.0
1543.753, 132041.2
1544.787, 132068.0
1545.820, 131658.0
1546.854, 131779.0
1547.887, 131505.0
1548.921, 131234.0
1549.954, 131630.0
1550.987, 131513.0
1552.019, 130979.0
1553.052, 131906.0
1554.085, 131040.0
1555.117, 131175.0
1556.149, 131109.0
1557.181, 131153.0
1558.213, 130947.0
1559.245, 130970.0
1560.277, 130989.0
1561.308, 131051.0
1562.340, 131145.0
1563.371, 131000.0
1564.402, 131064.0
1565.433, 131216.0
1566.463, 131001.0
1567.494, 130814.0
1568.524, 130972.0
1569.555, 130240.0
1570.585, 131105.0
1571.615, 130550.0
1572.645, 130148.0
1573.675, 130873.0
1574.704, 129959.0
1575.734, 130040.0
1576.763, 130275.0
1577.792, 129952.0
1578.821, 130608.0
##END=



