##NAMES=Volaschioite
##RRUFFID=R130078
##IDEAL CHEMISTRY=Fe^3+^_4_(S^6+^O_4_)O_2_(OH)_6_&#183;2H_2_O
##LOCALITY=Fornovolasco, Apuan Alps, Tuscany, Italy
##OWNER=Cristian Biagioni
##SOURCE=Cristian Biagioni
##DESCRIPTION=Radial aggregates of yellowish-orange, transparent bladed crystals. Associated with pyrite and iron oxyhydroxides. Data from Biagioni et al (2011)
##STATUS=The identification of this mineral has been confirmed by X-ray diffraction and chemical analysis
##URL=rruff.info/R130078
##MEASURED CHEMISTRY=Fe_4.16_(SO_4_)_0.92_O_2.32_(OH)_6_Â·2H_2_O
98.0428, 585.095
98.8168, 630.679
99.5908, 672.558
100.365, 712.487
101.139, 758.486
101.913, 784.629
102.687, 801.33
103.461, 815.97
104.235, 820.822
105.009, 815.789
105.783, 798.61
106.557, 787.85
107.331, 760.509
108.105, 720.19
108.879, 701.838
109.653, 672.133
110.427, 640.168
111.201, 620.629
111.975, 602.695
112.749, 590.003
113.523, 585.815
114.297, 575.788
115.071, 570.139
115.845, 569.966
116.618, 578.358
117.392, 581.883
118.166, 585.435
118.94, 600.104
119.714, 623.962
120.488, 650.021
121.262, 675.068
122.036, 690.67
122.81, 703.678
123.584, 715.266
124.358, 734.14
125.132, 740.004
125.906, 738.307
126.68, 738.307
127.454, 742.122
128.228, 748.027
129.002, 755.72
129.776, 750.128
130.55, 745.025
131.324, 742.022
132.098, 739.219
132.872, 738.587
133.646, 736.387
134.42, 721.883
135.194, 717.924
135.968, 718.404
136.742, 721.205
137.516, 724.991
138.29, 730.724
139.064, 737.551
139.838, 729.632
140.612, 723.165
141.386, 715.127
142.16, 697.588
142.934, 682.413
143.708, 666.845
144.482, 649.302
145.256, 639.553
146.03, 626.208
146.804, 609.357
147.578, 600.932
148.352, 598.458
149.126, 599.712
149.9, 602.859
150.674, 591.092
151.448, 578.296
152.222, 569.866
152.996, 562.801
153.77, 556.16
154.544, 550.594
155.318, 551.297
156.092, 551.388
156.866, 555.117
157.64, 569.878
158.414, 580.511
159.188, 599.817
159.962, 632.352
160.736, 664.002
161.51, 695.039
162.284, 726.527
163.058, 763.105
163.832, 818.676
164.606, 869.22
165.38, 892.656
166.154, 927.805
166.928, 951.587
167.702, 959.711
168.476, 947.04
169.25, 927.312
170.024, 899.748
170.798, 858.204
171.572, 812.818
172.346, 770.509
173.12, 735.293
173.894, 709.421
174.668, 679.05
175.441, 646.309
176.215, 630.787
176.989, 614.79
177.763, 597.963
178.537, 579.489
179.311, 574.981
180.085, 568.241
180.859, 555.828
181.633, 557.905
182.407, 554.481
183.181, 549.641
183.955, 554.578
184.729, 553.366
185.503, 552.356
186.277, 555.178
187.051, 558.664
187.825, 562.985
188.599, 568.611
189.373, 579.198
190.147, 588.677
190.921, 597.13
191.695, 604.19
192.469, 602.189
193.243, 601.147
194.017, 602.771
194.791, 585.089
195.565, 576.483
196.339, 569.447
197.113, 545.301
197.887, 528.971
198.661, 519.775
199.435, 519.068
200.209, 508.295
200.983, 496.633
201.757, 484.704
202.531, 473.376
203.305, 470.63
204.079, 467.66
204.853, 456.329
205.627, 450.046
206.401, 443.689
207.175, 437.345
207.949, 441.59
208.723, 444.449
209.497, 444.663
210.271, 438.911
211.045, 437.352
211.819, 436.942
212.593, 436.982
213.367, 441.102
214.141, 444.878
214.915, 446.949
215.689, 442.694
216.463, 443.963
217.237, 445.23
218.011, 443.811
218.785, 445.203
219.559, 441.978
220.333, 436.791
221.107, 443.178
221.881, 442.832
222.655, 440.482
223.429, 439.062
224.203, 441.541
224.977, 442.332
225.751, 442.298
226.525, 452.964
227.299, 458.214
228.073, 460.835
228.847, 462.899
229.621, 474.362
230.395, 481.154
231.169, 481.367
231.943, 484.728
232.717, 492.413
233.491, 502.189
234.264, 511.443
235.038, 518.286
235.812, 527.486
236.586, 540.196
237.36, 550.165
238.134, 568.087
238.908, 587.147
239.682, 593.558
240.456, 603.451
241.23, 619.407
242.004, 642.765
242.778, 647.034
243.552, 657.323
244.326, 671.341
245.1, 684.414
245.874, 698.429
246.648, 714.086
247.422, 731.911
248.196, 741.299
248.97, 744.736
249.744, 745.069
250.518, 750.062
251.292, 750.073
252.066, 746.517
252.84, 739.382
253.614, 724.862
254.388, 706.731
255.162, 688.509
255.936, 682.085
256.71, 662.401
257.484, 643.555
258.258, 632.845
259.032, 615.21
259.806, 597.356
260.58, 580.228
261.354, 566.675
262.128, 552.01
262.902, 540.777
263.676, 536.036
264.45, 533.117
265.224, 522.541
265.998, 509.729
266.772, 514.733
267.546, 515.333
268.32, 512.228
269.094, 505.078
269.868, 503.091
270.642, 505.182
271.416, 508.299
272.19, 502.577
272.964, 496.703
273.738, 492.491
274.512, 491.058
275.286, 486.809
276.06, 484.73
276.834, 484.035
277.608, 482.603
278.382, 484.576
279.156, 485.13
279.93, 482.156
280.704, 477.855
281.478, 477.02
282.252, 478.615
283.026, 480.832
283.8, 481.831
284.574, 484.945
285.348, 491.274
286.122, 492.446
286.896, 501.433
287.67, 513.223
288.444, 518.957
289.218, 528.079
289.992, 538.932
290.766, 551.21
291.54, 564.834
292.314, 575.174
293.087, 584.357
293.861, 595.116
294.635, 605.757
295.409, 618.845
296.183, 634.09
296.957, 643.431
297.731, 649.367
298.505, 656.992
299.279, 672.065
300.053, 670.198
300.827, 668.268
301.601, 668.12
302.375, 669.558
303.149, 669.942
303.923, 669.965
304.697, 670.033
305.471, 684.4
306.245, 695.872
307.019, 710.635
307.793, 755.291
308.567, 789.246
309.341, 824.391
310.115, 866.08
310.889, 914.488
311.663, 970.704
312.437, 1033.34
313.211, 1101.02
313.985, 1163.3
314.759, 1214.58
315.533, 1251.95
316.307, 1263.48
317.081, 1257.79
317.855, 1238.45
318.629, 1206.03
319.403, 1148.53
320.177, 1090.54
320.951, 1034.53
321.725, 974.699
322.499, 914.336
323.273, 864.198
324.047, 834.065
324.821, 801.716
325.595, 768.851
326.369, 737.947
327.143, 717.222
327.917, 694.591
328.691, 673.269
329.465, 654.675
330.239, 642.254
331.013, 635.477
331.787, 627.996
332.561, 609.202
333.335, 594.966
334.109, 585.19
334.883, 578.458
335.657, 563.272
336.431, 556.344
337.205, 546.399
337.979, 524.006
338.753, 519.447
339.527, 507.756
340.301, 491.196
341.075, 480.342
341.849, 474.133
342.623, 469.968
343.397, 467.021
344.171, 463.406
344.945, 455.53
345.719, 445.987
346.493, 438.032
347.267, 430.067
348.041, 425.418
348.815, 423.724
349.589, 420.323
350.363, 422.702
351.137, 422.675
351.91, 415.064
352.684, 419.934
353.458, 420.19
354.232, 416.119
355.006, 408.002
355.78, 413.456
356.554, 414.701
357.328, 408.893
358.102, 410.804
358.876, 414.946
359.65, 417.42
360.424, 414.518
361.198, 417.907
361.972, 422.409
362.746, 426.241
363.52, 424.79
364.294, 424.553
365.068, 427.106
365.842, 432.955
366.616, 439.49
367.39, 443.496
368.164, 444.358
368.938, 440.727
369.712, 446.517
370.486, 454.483
371.26, 462.791
372.034, 467.151
372.808, 468.615
373.582, 474.54
374.356, 487.459
375.13, 496.908
375.904, 502.471
376.678, 507.306
377.452, 514.996
378.226, 518.288
379, 527.534
379.774, 540.2
380.548, 543.661
381.322, 553.057
382.096, 560.286
382.87, 563.283
383.644, 582.622
384.418, 584.526
385.192, 583.228
385.966, 594.146
386.74, 600.985
387.514, 609.947
388.288, 618.883
389.062, 618.883
389.836, 627.95
390.61, 637.114
391.384, 643.623
392.158, 649.458
392.932, 659.312
393.706, 676.124
394.48, 703.813
395.254, 714.898
396.028, 733.691
396.802, 756.835
397.576, 772.894
398.35, 801.192
399.124, 833.656
399.898, 868.643
400.672, 908.077
401.446, 939.014
402.22, 967.802
402.994, 998.439
403.768, 1046.43
404.542, 1079.29
405.316, 1103.47
406.09, 1130.07
406.864, 1137.09
407.638, 1144.85
408.412, 1150.19
409.186, 1122.08
409.96, 1098.19
410.734, 1073.43
411.508, 1045.7
412.281, 1019.28
413.055, 981.601
413.829, 939.337
414.603, 899.101
415.377, 870.815
416.151, 835.178
416.925, 797.381
417.699, 774.693
418.473, 744.638
419.247, 721.133
420.021, 706.884
420.795, 695.901
421.569, 685.585
422.343, 675.437
423.117, 665.264
423.891, 661.602
424.665, 664.647
425.439, 670.081
426.213, 672.279
426.987, 666.405
427.761, 672.633
428.535, 688.125
429.309, 699.12
430.083, 708.916
430.857, 720.831
431.631, 736.15
432.405, 757.416
433.179, 775.463
433.953, 797.763
434.727, 829.054
435.501, 854.03
436.275, 879.939
437.049, 908.184
437.823, 940.997
438.597, 969.933
439.371, 1002.3
440.145, 1035.77
440.919, 1062.1
441.693, 1113.25
442.467, 1153.96
443.241, 1180.55
444.015, 1224.31
444.789, 1258.31
445.563, 1288.32
446.337, 1316.92
447.111, 1343.26
447.885, 1367.7
448.659, 1386.56
449.433, 1395.39
450.207, 1406.46
450.981, 1416.66
451.755, 1420.2
452.529, 1404.74
453.303, 1375.69
454.077, 1354.45
454.851, 1339.6
455.625, 1313.09
456.399, 1282.73
457.173, 1247.95
457.947, 1209.93
458.721, 1181.94
459.495, 1137.11
460.269, 1090.46
461.043, 1050.96
461.817, 1024.42
462.591, 992.484
463.365, 956.009
464.139, 915.458
464.913, 887.551
465.687, 861.331
466.461, 832.555
467.235, 793.461
468.009, 770.012
468.783, 742.968
469.557, 713.621
470.331, 696.649
471.104, 671.798
471.878, 649.357
472.652, 630.975
473.426, 607.352
474.2, 593.808
474.974, 581.437
475.748, 566.135
476.522, 552.103
477.296, 536.008
478.07, 521.716
478.844, 512.569
479.618, 508.831
480.392, 504.188
481.166, 496.967
481.94, 484.674
482.714, 480.404
483.488, 470.676
484.262, 457.977
485.036, 449.79
485.81, 450.752
486.584, 449.461
487.358, 444.673
488.132, 438.277
488.906, 432.276
489.68, 427.057
490.454, 422.315
491.228, 415.49
492.002, 409.934
492.776, 406.954
493.55, 406.458
494.324, 399.786
495.098, 401.181
495.872, 402.28
496.646, 397.783
497.42, 391.624
498.194, 386.626
498.968, 386.345
499.742, 394.493
500.516, 394.271
501.29, 394.13
502.064, 394.342
502.838, 395.084
503.612, 392.642
504.386, 390.24
505.16, 390.177
505.934, 396.858
506.708, 399.873
507.482, 398.582
508.256, 396.856
509.03, 405.768
509.804, 404.818
510.578, 404.694
511.352, 406.799
512.126, 408.285
512.9, 411.731
513.674, 414.119
514.448, 415.151
515.222, 418.124
515.996, 416.646
516.77, 419.054
517.544, 427.416
518.318, 430.39
519.092, 431.906
519.866, 433.124
520.64, 434.708
521.414, 437.684
522.188, 437.982
522.962, 436.729
523.736, 434.781
524.51, 437.017
525.284, 434.105
526.058, 433.299
526.832, 440.698
527.606, 439.209
528.38, 439.696
529.154, 439.165
529.927, 434.375
530.701, 435.014
531.475, 428.619
532.249, 420.665
533.023, 418.585
533.797, 414.93
534.571, 410.283
535.345, 407.47
536.119, 411.017
536.893, 402.873
537.667, 392.148
538.441, 383.15
539.215, 382.763
539.989, 377.267
540.763, 372.582
541.537, 369.34
542.311, 367.688
543.085, 362.825
543.859, 354.673
544.633, 345.52
545.407, 340.993
546.181, 341.119
546.955, 336.173
547.729, 327.899
548.503, 325.182
549.277, 322.877
550.051, 318.649
550.825, 312.592
551.599, 306.221
552.373, 302.741
553.147, 299.357
553.921, 296.837
554.695, 299.715
555.469, 296.982
556.243, 293.621
557.017, 290.308
557.791, 285.527
558.565, 284.766
559.339, 283.252
560.113, 280.766
560.887, 280.766
561.661, 275.135
562.435, 271.016
563.209, 270.84
563.983, 277.281
564.757, 268.383
565.531, 264.234
566.305, 266.832
567.079, 263.584
567.853, 264.905
568.627, 264.917
569.401, 262.41
570.175, 258.613
570.949, 259.851
571.723, 259.853
572.497, 258.783
573.271, 263.601
574.045, 261.895
574.819, 260.778
575.593, 261.795
576.367, 264.093
577.141, 263.829
577.915, 261.934
578.689, 259.06
579.463, 256.806
580.237, 257.927
581.011, 257.213
581.785, 255.326
582.559, 258.333
583.333, 258.917
584.107, 260.584
584.881, 262.408
585.655, 259.399
586.429, 254.832
587.203, 253.423
587.977, 254.298
588.75, 252.793
589.524, 253.798
590.298, 254.401
591.072, 253.729
591.846, 250.717
592.62, 254.404
593.394, 256.77
594.168, 257.886
594.942, 260.146
595.716, 256.904
596.49, 256.224
597.264, 259.094
598.038, 265.884
598.812, 262.234
599.586, 260.952
600.36, 261.706
601.134, 262.46
601.908, 264.018
602.682, 263.194
603.456, 262.521
604.23, 265.542
605.004, 260.882
605.778, 259.681
606.552, 261.174
607.326, 264.188
608.1, 262.997
608.874, 258.519
609.648, 254.079
610.422, 252.584
611.196, 251.597
611.97, 252.373
612.744, 252.44
613.518, 250.36
614.292, 251.276
615.066, 250.406
615.84, 247.645
616.614, 243.903
617.388, 248.21
618.162, 247.471
618.936, 245.201
619.71, 243.587
620.484, 246.614
621.258, 246.405
622.032, 246.611
622.806, 247.641
623.58, 246.127
624.354, 244.247
625.128, 242.13
625.902, 240.606
626.676, 242.12
627.45, 239.548
628.224, 239.841
628.998, 241.257
629.772, 237.468
630.546, 238.143
631.32, 241.745
632.094, 244.525
632.868, 240.735
633.642, 239.85
634.416, 242.007
635.19, 244.089
635.964, 242.596
636.738, 248.618
637.512, 246.879
638.286, 245.472
639.06, 250.349
639.834, 246.921
640.608, 249.335
641.382, 253.892
642.156, 257.837
642.93, 256.156
643.704, 256.976
644.478, 256.73
645.252, 255.402
646.026, 259.52
646.799, 254.518
647.573, 253.568
648.347, 257.139
649.121, 256.772
649.895, 258.751
650.669, 260.164
651.443, 261.118
652.217, 262.64
652.991, 265.4
653.765, 264.075
654.539, 262.887
655.313, 267.448
656.087, 274.106
656.861, 275.691
657.635, 274.93
658.409, 274.445
659.183, 278.486
659.957, 280.653
660.731, 284.15
661.505, 290.073
662.279, 294.728
663.053, 297.476
663.827, 296.379
664.601, 293.711
665.375, 299.603
666.149, 307.002
666.923, 310.365
667.697, 311.686
668.471, 317.024
669.245, 320.221
670.019, 326.608
670.793, 334.041
671.567, 339.402
672.341, 351.627
673.115, 358.543
673.889, 364.986
674.663, 373.842
675.437, 375.371
676.211, 380.986
676.985, 391.933
677.759, 406.682
678.533, 415.093
679.307, 416.46
680.081, 430.193
680.855, 451.108
681.629, 454.047
682.403, 473.137
683.177, 489.159
683.951, 501.071
684.725, 510.416
685.499, 518.834
686.273, 533.502
687.047, 547.814
687.821, 557
688.595, 571.548
689.369, 579.111
690.143, 588.701
690.917, 602.667
691.691, 612.611
692.465, 625.791
693.239, 628.793
694.013, 627.456
694.787, 642.782
695.561, 641.79
696.335, 643.562
697.109, 646.957
697.883, 648.488
698.657, 650.021
699.431, 640.636
700.205, 629.832
700.979, 624.221
701.753, 623.454
702.527, 617.206
703.301, 609.884
704.075, 601.486
704.849, 586.908
705.622, 581.16
706.396, 578.07
707.17, 572.335
707.944, 556.982
708.718, 546.877
709.492, 538.552
710.266, 527.813
711.04, 512.399
711.814, 506.254
712.588, 497.896
713.362, 486.979
714.136, 474.691
714.91, 466.24
715.684, 460.442
716.458, 448.529
717.232, 434.269
718.006, 427.342
718.78, 426.251
719.554, 418.783
720.328, 407.446
721.102, 396.039
721.876, 397.316
722.65, 397.022
723.424, 393.732
724.198, 386.135
724.972, 371.498
725.746, 368.311
726.52, 369.433
727.294, 369.138
728.068, 359.889
728.842, 360.194
729.616, 351.987
730.39, 347.013
731.164, 352.248
731.938, 338.84
732.712, 334.764
733.486, 330.954
734.26, 327.678
735.034, 336.463
735.808, 331.135
736.582, 329.293
737.356, 328.118
738.13, 320.824
738.904, 320.824
739.678, 316.415
740.452, 312.372
741.226, 310.853
742, 306.22
742.774, 304.783
743.548, 304.2
744.322, 302.397
745.096, 296.217
745.87, 303.922
746.644, 303.858
747.418, 299.554
748.192, 296.095
748.966, 296.095
749.74, 285.945
750.514, 281.184
751.288, 284.443
752.062, 282.896
752.836, 279.274
753.61, 277.757
754.384, 278.028
755.158, 278.775
755.932, 278.002
756.706, 276.428
757.48, 271.667
758.254, 264.92
759.028, 268.79
759.802, 269.365
760.576, 269.8
761.35, 268.476
762.124, 261.508
762.898, 262.286
763.672, 259.368
764.445, 259.371
765.219, 264.803
765.993, 257.832
766.767, 255.23
767.541, 256.108
768.315, 257.707
769.089, 254.603
769.863, 255.043
770.637, 252.666
771.411, 252.296
772.185, 257.267
772.959, 257.477
773.733, 255.031
774.507, 253.917
775.281, 255.182
776.055, 258.124
776.829, 253.928
777.603, 252.307
778.377, 252.383
779.151, 252.15
779.925, 246.71
780.699, 248.039
781.473, 249.864
782.247, 249.792
783.021, 247.46
783.795, 239.315
784.569, 235.802
785.343, 237.006
786.117, 241.062
786.891, 237.946
787.665, 237.925
788.439, 236.612
789.213, 234.739
789.987, 237.852
790.761, 234.37
791.535, 235.981
792.309, 239.079
793.083, 239.086
793.857, 231.3
794.631, 233.581
795.405, 235.416
796.179, 234.637
796.953, 233.858
797.727, 230.653
798.501, 230.104
799.275, 231.499
800.049, 233.49
800.823, 232.709
801.597, 230.457
802.371, 229.735
803.145, 230.723
803.919, 232.284
804.693, 229.509
805.467, 229.222
806.241, 229.671
807.015, 229.221
807.789, 226.097
808.563, 224.322
809.337, 222.758
810.111, 224.827
810.885, 234.68
811.659, 226.865
812.433, 226.05
813.207, 225.5
813.981, 223.536
814.755, 225.885
815.529, 228.231
816.303, 229.333
817.077, 228.197
817.851, 224.81
818.625, 227.944
819.399, 224.207
820.173, 220.394
820.947, 219.814
821.721, 224.51
822.495, 223.158
823.268, 223.325
824.042, 224.206
824.816, 223.707
825.59, 215.094
826.364, 217.926
827.138, 220.341
827.912, 220.883
828.686, 220.97
829.46, 223.656
830.234, 218.957
831.008, 217.199
831.782, 221.059
832.556, 224.697
833.33, 218.354
834.104, 219.561
834.878, 222.942
835.652, 222.675
836.426, 220.274
837.2, 217.91
837.974, 215.556
838.748, 215.341
839.522, 220.282
840.296, 218.71
841.07, 220.06
841.844, 220.237
842.618, 218.11
843.392, 216.539
844.166, 219.339
844.94, 219.909
845.714, 220.327
846.488, 222.424
847.262, 222.424
848.036, 221.763
848.81, 220.123
849.584, 218.987
850.358, 220.37
851.132, 214.855
851.906, 218.196
852.68, 220.216
853.454, 218.535
854.228, 219.324
855.002, 218.892
855.776, 222.465
856.55, 225.087
857.324, 223.185
858.098, 219.242
858.872, 220.103
859.646, 219.781
860.42, 219.422
861.194, 221.468
861.968, 223.046
862.742, 223.365
863.516, 222.114
864.29, 221.191
865.064, 224.348
865.838, 217.3
866.612, 217.086
867.386, 219.223
868.16, 221.339
868.934, 224.498
869.708, 223.998
870.482, 221.864
871.256, 220.465
872.03, 220.848
872.804, 218.478
873.578, 225.551
874.352, 225.694
875.126, 222.526
875.9, 224.001
876.674, 224.001
877.448, 224.329
878.222, 223.239
878.996, 222.17
879.77, 224.491
880.544, 221.783
881.318, 222.276
882.091, 222.712
882.865, 221.958
883.64, 221.334
884.414, 219.034
885.188, 222.151
885.961, 226.237
886.735, 227.241
887.509, 222.485
888.283, 224.187
889.057, 227.027
889.831, 228.336
890.605, 226.942
891.379, 226.942
892.153, 230.346
892.927, 229.992
893.701, 227.558
894.475, 226.884
895.249, 227.678
896.023, 229.53
896.797, 231.78
897.571, 233.226
898.345, 232.214
899.119, 225.068
899.893, 226.537
900.667, 231.327
901.441, 235.15
902.215, 233.945
902.989, 235.527
903.763, 236.529
904.537, 236.178
905.311, 236.679
906.085, 244.505
906.859, 237.129
907.633, 238.154
908.407, 238.611
909.181, 234.973
909.955, 236.564
910.729, 241.126
911.503, 242.899
912.277, 243.095
913.051, 243.87
913.825, 248.643
914.599, 243.782
915.373, 245.87
916.147, 248.477
916.921, 245.621
917.695, 244.824
918.469, 245.648
919.243, 251.532
920.017, 256.146
920.791, 254.492
921.565, 258.405
922.339, 260.318
923.113, 261.912
923.887, 261.873
924.661, 259.953
925.435, 267.922
926.209, 267.129
926.983, 270.882
927.757, 276.425
928.531, 276.946
929.305, 274.554
930.079, 274.818
930.853, 277.246
931.627, 281.242
932.401, 285.49
933.175, 283.094
933.949, 281.293
934.723, 282.405
935.497, 284.833
936.271, 285.751
937.045, 288.271
937.819, 291.998
938.593, 293.73
939.367, 293.478
940.141, 292.971
940.915, 296.682
941.689, 295.408
942.463, 293.008
943.237, 290.885
944.01, 289.616
944.784, 292.02
945.558, 289.191
946.332, 290.428
947.106, 291.965
947.88, 285.721
948.654, 281.719
949.428, 288.096
950.202, 290.412
950.976, 287.23
951.75, 283.035
952.524, 286.239
953.298, 282.904
954.072, 278.612
954.846, 277.279
955.62, 280.788
956.394, 279.013
957.168, 276.709
957.942, 277.633
958.716, 277.723
959.49, 272.68
960.264, 274.286
961.038, 274.518
961.812, 272.145
962.586, 269.379
963.36, 268.955
964.134, 271.364
964.908, 269.568
965.682, 272.078
966.456, 274.808
967.23, 274.093
968.004, 278.915
968.778, 276.282
969.552, 276.631
970.326, 280.355
971.1, 285.232
971.874, 286.282
972.648, 280.444
973.422, 278.365
974.196, 276.965
974.97, 275.334
975.744, 280.378
976.518, 283.69
977.292, 286.343
978.066, 284.007
978.84, 278.121
979.614, 278.927
980.388, 282.104
981.162, 279.237
981.936, 276.328
982.71, 275.107
983.484, 272.706
984.258, 271.313
985.032, 275.381
985.806, 278.433
986.58, 278.283
987.354, 275.627
988.128, 269.085
988.902, 271.177
989.676, 273.815
990.45, 276.396
991.224, 280.263
991.998, 278.648
992.772, 281.895
993.546, 283.182
994.32, 284.178
995.094, 287.759
995.868, 293.413
996.642, 298.336
997.416, 303.788
998.19, 312.641
998.964, 324.007
999.738, 328.856
1000.51, 342.417
1001.29, 356.215
1002.06, 368.786
1002.83, 379.509
1003.61, 388.366
1004.38, 393.219
1005.16, 395.562
1005.93, 393.252
1006.7, 388.65
1007.48, 385.296
1008.25, 365.876
1009.03, 359.26
1009.8, 349.922
1010.57, 337.309
1011.35, 326.204
1012.12, 322.156
1012.9, 315.662
1013.67, 310.684
1014.44, 308.018
1015.22, 306.58
1015.99, 302.525
1016.77, 298.185
1017.54, 292.282
1018.31, 289.001
1019.09, 289.514
1019.86, 291.4
1020.64, 290.589
1021.41, 289.13
1022.18, 291.997
1022.96, 295.942
1023.73, 295.375
1024.51, 296.999
1025.28, 298.963
1026.05, 299.694
1026.83, 301.352
1027.6, 305.27
1028.38, 308.52
1029.15, 308.324
1029.92, 313.446
1030.7, 316.818
1031.47, 317.248
1032.24, 321.434
1033.02, 330.389
1033.79, 333.507
1034.57, 337.41
1035.34, 343.349
1036.11, 349.508
1036.89, 352.762
1037.66, 358.887
1038.44, 367.747
1039.21, 376.336
1039.98, 383.492
1040.76, 393.257
1041.53, 406.453
1042.31, 416.537
1043.08, 428.004
1043.85, 441.505
1044.63, 454.04
1045.4, 465.44
1046.18, 478.212
1046.95, 484.846
1047.72, 493.37
1048.5, 511.501
1049.27, 527.798
1050.05, 540.336
1050.82, 548.576
1051.59, 553.941
1052.37, 558.431
1053.14, 564.353
1053.92, 578.234
1054.69, 578.386
1055.46, 579.352
1056.24, 582.288
1057.01, 581.663
1057.79, 571.14
1058.56, 567.902
1059.33, 566.006
1060.11, 556.726
1060.88, 541.683
1061.66, 537.502
1062.43, 523.588
1063.2, 511.443
1063.98, 503.134
1064.75, 493.491
1065.53, 477.283
1066.3, 468.286
1067.07, 458.898
1067.85, 446.436
1068.62, 432.893
1069.4, 420.692
1070.17, 411.388
1070.94, 394.997
1071.72, 387.686
1072.49, 378.86
1073.27, 368.06
1074.04, 359.999
1074.81, 358.36
1075.59, 340.325
1076.36, 334.179
1077.14, 331.842
1077.91, 328.154
1078.68, 327.788
1079.46, 316.128
1080.23, 312.608
1081.01, 309.505
1081.78, 306.942
1082.55, 305.857
1083.33, 298.943
1084.1, 296.977
1084.88, 291.785
1085.65, 289.693
1086.42, 288.791
1087.2, 280.255
1087.97, 278.609
1088.75, 279.657
1089.52, 273.958
1090.29, 269.583
1091.07, 271.059
1091.84, 265.299
1092.62, 266.908
1093.39, 267.307
1094.16, 266.396
1094.94, 264.256
1095.71, 260.721
1096.49, 254.133
1097.26, 259.492
1098.03, 258.463
1098.81, 257.332
1099.58, 258.505
1100.36, 256.349
1101.13, 260.469
1101.9, 254.321
1102.68, 251.724
1103.45, 252.547
1104.23, 252.401
1105, 248.181
1105.77, 248.095
1106.55, 243.669
1107.32, 242.078
1108.1, 243.811
1108.87, 245.248
1109.64, 245.248
1110.42, 241.465
1111.19, 239.242
1111.97, 238.518
1112.74, 238.983
1113.51, 240.461
1114.29, 239.635
1115.06, 240.227
1115.84, 242.124
1116.61, 241.711
1117.38, 238.944
1118.16, 240.815
1118.93, 242.47
1119.71, 245.456
1120.48, 244.532
1121.25, 243.491
1122.03, 245.33
1122.8, 240.372
1123.58, 241.136
1124.35, 240.109
1125.12, 237.088
1125.9, 236.348
1126.67, 241.453
1127.45, 242.105
1128.22, 245.219
1128.99, 241.397
1129.77, 240.867
1130.54, 243.448
1131.32, 240.55
1132.09, 245.671
1132.86, 244.989
1133.64, 244.771
1134.41, 245.505
1135.19, 246.279
1135.96, 245.968
1136.73, 245.446
1137.51, 246.592
1138.28, 246.273
1139.06, 247.311
1139.83, 249.684
1140.6, 247.474
1141.38, 252.537
1142.15, 253.643
1142.93, 255.203
1143.7, 260.924
1144.47, 261.969
1145.25, 262.811
1146.02, 262.176
1146.8, 259.677
1147.57, 266.218
1148.34, 266.699
1149.12, 268.371
1149.89, 271.967
1150.66, 276.24
1151.44, 278.437
1152.21, 273.898
1152.99, 277.072
1153.76, 281.009
1154.53, 283.404
1155.31, 285.172
1156.08, 291.731
1156.86, 293.706
1157.63, 297.67
1158.4, 301.554
1159.18, 305.592
1159.95, 312.524
1160.73, 310.886
1161.5, 316.432
1162.27, 321.678
1163.05, 324.181
1163.82, 326.139
1164.6, 337.613
1165.37, 342.082
1166.14, 346.783
1166.92, 354.233
1167.69, 362.222
1168.47, 365.796
1169.24, 369.903
1170.01, 378.238
1170.79, 384.781
1171.56, 390.528
1172.34, 397.269
1173.11, 404.665
1173.88, 415.292
1174.66, 418.62
1175.43, 423.662
1176.21, 430.227
1176.98, 432.952
1177.75, 431.532
1178.53, 441.034
1179.3, 435.93
1180.08, 423.63
1180.85, 414.068
1181.62, 412.295
1182.4, 407.358
1183.17, 399.033
1183.95, 389.296
1184.72, 382.475
1185.49, 379.066
1186.27, 367.542
1187.04, 354.092
1187.82, 348.848
1188.59, 343.736
1189.36, 334.812
1190.14, 322.831
1190.91, 312.123
1191.69, 306.558
1192.46, 299.938
1193.23, 293.346
1194.01, 286.84
1194.78, 278.155
1195.56, 278.979
1196.33, 266.383
1197.1, 261.946
1197.88, 261.112
1198.65, 256.272
1199.43, 255.447
1200.2, 251.958
1200.97, 251.122
1201.75, 248.379
1202.52, 245.036
1203.3, 244.063
1204.07, 238.279
1204.84, 237.816
1205.62, 234.357
1206.39, 233.557
1207.17, 234.722
1207.94, 231.039
1208.71, 232.691
1209.49, 233.433
1210.26, 234.184
1211.04, 235.381
1211.81, 236.151
1212.58, 234.28
1213.36, 238.417
1214.13, 237.122
1214.91, 233.766
1215.68, 228.095
1216.45, 222.072
1217.23, 225.379
1218, 221.35
1218.78, 224.055
1219.55, 220.874
1220.32, 215.963
1221.1, 217.943
1221.87, 217.163
1222.65, 213.201
1223.42, 211.51
1224.19, 211.563
1224.97, 209.605
1225.74, 203.188
1226.52, 206.503
1227.29, 207.55
1228.06, 207.366
1228.84, 207.063
1229.61, 207.063
1230.39, 206.717
1231.16, 202.818
1231.93, 201.635
1232.71, 203.625
1233.48, 203.402
1234.26, 200.64
1235.03, 201.688
1235.8, 203.348
1236.58, 201.439
1237.35, 201.524
1238.13, 203.436
1238.9, 204.488
1239.67, 201.236
1240.45, 199.575
1241.22, 198.128
1242, 199.736
1242.77, 200.172
1243.54, 198.973
1244.32, 204.606
1245.09, 202.109
1245.87, 198.929
1246.64, 198.902
1247.41, 199.339
1248.19, 198.04
1248.96, 198.144
1249.74, 203.974
1250.51, 197.942
1251.28, 197.154
1252.06, 200.283
1252.83, 200.737
1253.61, 196.707
1254.38, 193.374
1255.15, 195.453
1255.93, 196.237
1256.7, 196.411
1257.48, 197.688
1258.25, 197.707
1259.02, 199.375
1259.8, 201.366
1260.57, 200.131
1261.35, 199.545
1262.12, 201.664
1262.89, 199.396
1263.67, 204.403
1264.44, 198.514
1265.22, 196.354
1265.99, 198.139
1266.76, 200.207
1267.54, 202.477
1268.31, 194.962
1269.08, 200.733
1269.86, 204.972
1270.63, 204.844
1271.41, 203.313
1272.18, 204.961
1272.95, 205.973
1273.73, 205.432
1274.5, 205.135
1275.28, 203.763
1276.05, 202.093
1276.82, 204.464
1277.6, 204.464
1278.37, 209.908
1279.15, 209.818
1279.92, 208.04
1280.69, 207.583
1281.47, 206.147
1282.24, 207.517
1283.02, 203.979
1283.79, 207.868
1284.56, 210.219
1285.34, 208.158
1286.11, 207.979
1286.89, 206.305
1287.66, 207.687
1288.43, 209.744
1289.21, 210.353
1289.98, 209.515
1290.76, 208.856
1291.53, 209.309
1292.3, 207.748
1293.08, 209.862
1293.85, 210.067
1294.63, 209.257
1295.4, 209.901
1296.17, 205.704
1296.95, 205.64
1297.72, 207.716
1298.5, 207.748
1299.27, 202.978
1300.04, 198.061
1300.82, 208.38
1301.59, 210.06
1302.37, 206.819
1303.14, 206.42
1303.91, 207.879
1304.69, 208.087
1305.46, 205.694
1306.24, 204.853
1307.01, 206.404
1307.78, 206.384
1308.56, 207.673
1309.33, 207.567
1310.11, 201.679
1310.88, 207.159
1311.65, 202.742
1312.43, 200.855
1313.2, 204.155
1313.98, 208.24
1314.75, 208.239
1315.52, 208.24
1316.3, 204.038
1317.07, 202.476
1317.85, 205.273
1318.62, 204.819
1319.39, 198.787
1320.17, 197.627
1320.94, 199.312
1321.72, 195.834
1322.49, 200.45
1323.26, 203.041
1324.04, 204.468
1324.81, 214.297
1325.59, 210.921
1326.36, 206.964
1327.13, 206.645
1327.91, 208.456
1328.68, 208.474
1329.46, 206.017
1330.23, 209.318
1331, 208.474
1331.78, 206.221
1332.55, 203.457
1333.33, 204.657
1334.1, 209.385
1334.87, 211.278
1335.65, 215.066
1336.42, 215.393
1337.2, 217.244
1337.97, 217.467
1338.74, 215.907
1339.52, 215.123
1340.29, 216.814
1341.07, 212.592
1341.84, 209.306
1342.61, 209.79
1343.39, 210.034
1344.16, 208.409
1344.94, 209.138
1345.71, 208.65
1346.48, 205.538
1347.26, 205.831
1348.03, 203.944
1348.81, 201.429
1349.58, 203.278
1350.35, 205.813
1351.13, 202.914
1351.9, 203.784
1352.68, 203.307
1353.45, 202.002
1354.22, 202.041
1355, 203.263
1355.77, 194.79
1356.55, 194.903
1357.32, 195.026
1358.09, 196.401
1358.87, 199.922
1359.64, 203.969
1360.42, 203.952
1361.19, 203.282
1361.96, 202.46
1362.74, 202.181
1363.51, 201.36
1364.29, 199.681
1365.06, 198.099
1365.83, 197.251
1366.61, 197.216
1367.38, 198.344
1368.16, 198.396
1368.93, 199.002
1369.7, 200.255
1370.48, 197.852
1371.25, 197.852
1372.03, 197.086
1372.8, 198.699
1373.57, 199.16
1374.35, 198.369
1375.12, 196.856
1375.9, 189.48
1376.67, 194.437
1377.44, 195.193
1378.22, 193.476
1378.99, 196.005
1379.77, 199.453
1380.54, 195.243
1381.31, 197.798
1382.09, 197.864
1382.86, 194.377
1383.64, 194.349
1384.41, 196.133
1385.18, 197.701
1385.96, 200.346
1386.73, 196.577
1387.51, 198.712
1388.28, 194.782
1389.05, 194.069
1389.83, 195.097
1390.6, 194.014
1391.37, 194.623
1392.15, 192.061
1392.92, 193.594
1393.7, 194.756
1394.47, 195.61
1395.24, 196.661
1396.02, 196.451
1396.79, 190.771
1397.57, 191.626
1398.34, 192.479
1399.11, 193.404
1399.89, 194.306
1400.66, 194.852
1401.44, 194.298
1402.21, 191.358
1402.98, 185.37
1403.76, 190.321
1404.53, 191.902
1405.31, 190.473
1406.08, 190.654
1406.85, 193.279
1407.63, 188.201
1408.4, 190.95
1409.18, 191.393
1409.95, 190.818
1410.72, 191.254
1411.5, 190.532
1412.27, 186.054
1413.05, 186.91
1413.82, 188.624
1414.59, 189.817
1415.37, 192.461
1416.14, 190.333
1416.92, 186.893
1417.69, 191.737
1418.46, 195.085
1419.24, 189.946
1420.01, 189.086
1420.79, 186.363
1421.56, 186.487
1422.33, 189.334
1423.11, 188.598
1423.88, 184.352
1424.66, 187.471
1425.43, 190.135
1426.2, 188.067
1426.98, 187.472
1427.75, 189.691
1428.53, 190.236
1429.3, 189.409
1430.07, 190.267
1430.85, 189.701
1431.62, 190.045
1432.4, 190.904
1433.17, 191.518
1433.94, 191.316
1434.72, 189.793
1435.49, 193.234
1436.27, 197.429
1437.04, 193.361
1437.81, 192.875
1438.59, 194.353
1439.36, 192.114
1440.14, 196.493
1440.91, 194.771
1441.68, 194.604
1442.46, 197.8
1443.23, 196.919
1444.01, 193.878
1444.78, 194.133
1445.55, 197.535
1446.33, 200.536
1447.1, 201.53
1447.88, 199.711
1448.65, 198.722
1449.42, 197.885
1450.2, 196.089
1450.97, 195.326
1451.75, 200.499
1452.52, 192.284
1453.29, 192.88
1454.07, 195.47
1454.84, 193.718
1455.62, 189.603
1456.39, 189.72
1457.16, 192.239
1457.94, 192.24
1458.71, 190.78
1459.49, 191.529
1460.26, 190.381
1461.03, 189.329
1461.81, 190.784
1462.58, 188.816
1463.36, 188.816
1464.13, 186.414
1464.9, 185.01
1465.68, 187.253
1466.45, 189.209
1467.23, 188.344
1468, 187.88
1468.77, 189.794
1469.55, 190.672
1470.32, 187.929
1471.1, 187.991
1471.87, 187.457
1472.64, 187.408
1473.42, 190.447
1474.19, 189.112
1474.97, 194.178
1475.74, 189.962
1476.51, 188.663
1477.29, 188.146
1478.06, 185.643
1478.84, 183.644
1479.61, 186.924
1480.38, 183.456
1481.16, 188.6
1481.93, 188.071
1482.71, 186.923
1483.48, 187.874
1484.25, 188.965
1485.03, 187.057
1485.8, 183.873
1486.58, 184.742
1487.35, 185.274
1488.12, 183.406
1488.9, 184.516
1489.67, 186.393
1490.45, 187.539
1491.22, 190.112
1491.99, 186.657
1492.77, 185.787
1493.54, 181.738
1494.32, 185.921
1495.09, 187.942
1495.86, 185.334
1496.64, 185.141
1497.41, 191.055
1498.19, 189.315
1498.96, 186.741
1499.73, 185.834
1500.51, 185.663
1501.28, 186.55
1502.06, 188.292
1502.83, 188.989
1503.6, 186.141
1504.38, 187.883
1505.15, 188.826
1505.92, 188.359
1506.7, 189.794
1507.47, 188.828
1508.25, 185.582
1509.02, 186.623
1509.79, 188.339
1510.57, 186.595
1511.34, 185.622
1512.12, 184.749
1512.89, 184.611
1513.66, 184.039
1514.44, 183.86
1515.21, 187.568
1515.99, 192.427
1516.76, 188.937
1517.53, 189.956
1518.31, 189.2
1519.08, 191.261
1519.86, 194.086
1520.63, 193.84
1521.4, 192.771
1522.18, 190.466
1522.95, 194.789
1523.73, 197.678
1524.5, 198.451
1525.27, 199.715
1526.05, 203.582
1526.82, 208.267
1527.6, 208.896
1528.37, 207.888
1529.14, 210.466
1529.92, 204.221
1530.69, 207.4
1531.47, 206.726
1532.24, 204.582
1533.01, 208.874
1533.79, 211.209
1534.56, 217.342
1535.34, 211.952
1536.11, 214.097
1536.88, 215.122
1537.66, 215.028
1538.43, 214.56
1539.21, 212.935
1539.98, 210.06
1540.75, 210.916
1541.53, 206.294
1542.3, 200.362
1543.08, 201.2
1543.85, 201.343
1544.62, 198.135
1545.4, 196.157
1546.17, 198.796
1546.95, 196.944
1547.72, 191.441
1548.49, 190.816
1549.27, 191.473
1550.04, 192.887
1550.82, 193.728
1551.59, 193.604
1552.36, 193.604
1553.14, 193.677
1553.91, 194.927
1554.69, 194.219
1555.46, 194.028
1556.23, 190.622
1557.01, 190.615
1557.78, 192.51
1558.56, 190.022
1559.33, 191.024
1560.1, 193.157
1560.88, 194.086
1561.65, 190.603
1562.43, 188.025
1563.2, 189.779
1563.97, 191.715
1564.75, 190.95
1565.52, 192.582
1566.3, 193.405
1567.07, 189.879
1567.84, 189.451
1568.62, 188.797
1569.39, 188.76
1570.17, 190.699
1570.94, 192.128
1571.71, 189.296
1572.49, 186.273
1573.26, 189.615
1574.04, 193.133
1574.81, 193.105
1575.58, 188.786
1576.36, 186.028
1577.13, 184.95
1577.91, 185.456
1578.68, 191.315
1579.45, 179.512
1580.23, 191.889
1581, 188.737
1581.78, 186.734
1582.55, 190.308
1583.32, 189.763
1584.1, 185.537
1584.87, 188.107
1585.65, 190.102
1586.42, 189.217
1587.19, 187.483
1587.97, 187.181
1588.74, 186.265
1589.52, 187.709
1590.29, 188.924
1591.06, 189.005
1591.84, 191.853
1592.61, 188.884
1593.39, 196.846
1594.16, 190.97
1594.93, 191.548
1595.71, 193.015
1596.48, 192.009
1597.26, 191.865
1598.03, 192.373
1598.8, 187.253
1599.58, 194.988
1600.35, 191.442
1601.13, 192.983
1601.9, 190.77
1602.67, 192.884
1603.45, 196.393
1604.22, 197.002
1605, 196.75
1605.77, 198.714
1606.54, 196.048
1607.32, 192.497
1608.09, 194.285
1608.87, 198.252
1609.64, 196.574
1610.41, 197.913
1611.19, 202.91
1611.96, 201.578
1612.74, 197.244
1613.51, 199.91
1614.28, 193.529
1615.06, 195.068
1615.83, 199.072
1616.61, 198.239
1617.38, 196.252
1618.15, 196.589
1618.93, 197.931
1619.7, 199.771
1620.47, 196.105
1621.25, 196.996
1622.02, 193.162
1622.8, 190.067
1623.57, 193.639
1624.34, 195.723
1625.12, 193.05
1625.89, 191.45
1626.67, 192.69
1627.44, 193.581
1628.21, 194.473
1628.99, 195.365
1629.76, 193.826
1630.54, 193.076
1631.31, 191.15
1632.08, 190.196
1632.86, 192.132
1633.63, 191.811
1634.41, 189.645
1635.18, 195.893
1635.95, 190.191
1636.73, 188.265
1637.5, 189.239
1638.28, 189.479
1639.05, 190.801
1639.82, 191.604
1640.6, 188.395
1641.37, 192.238
1642.15, 190.452
1642.92, 191.512
1643.69, 193.207
1644.47, 194.996
1645.24, 194.652
1646.02, 192.946
1646.79, 192.551
1647.56, 195.562
1648.34, 201.667
1649.11, 206.834
1649.89, 210.415
1650.66, 211.525
1651.43, 205.942
1652.21, 199.436
1652.98, 195.24
1653.76, 194.99
1654.53, 195.959
1655.3, 192.889
1656.08, 188.267
1656.85, 190.059
1657.63, 193.626
1658.4, 189.377
1659.17, 187.397
1659.95, 188.235
1660.72, 188.603
1661.5, 189.509
1662.27, 191.118
1663.04, 188.26
1663.82, 185.485
1664.59, 193.255
1665.37, 195.302
1666.14, 191.035
1666.91, 190.239
1667.69, 190.883
1668.46, 189.316
1669.24, 187.124
1670.01, 188.12
1670.78, 191.07
1671.56, 190.806
1672.33, 191.705
1673.11, 183.303
1673.88, 187.521
1674.65, 192.075
1675.43, 191.868
1676.2, 190.056
1676.98, 189.987
1677.75, 190.923
1678.52, 190.207
1679.3, 186.185
1680.07, 191.588
1680.85, 181.458
1681.62, 183.258
1682.39, 184.535
1683.17, 184.965
1683.94, 183.983
1684.72, 182.323
1685.49, 182.825
1686.26, 183.586
1687.04, 180.118
1687.81, 190.937
1688.59, 184.623
1689.36, 182.718
1690.13, 175.897
1690.91, 177.597
1691.68, 184.318
1692.46, 178.676
1693.23, 164.279
1694, 168.378
1694.78, 177.62
1695.55, 179.428
1696.33, 176.561
1697.1, 182.467
1697.87, 186.933
1698.65, 190.548
1699.42, 186.603
1700.2, 186.172
1700.97, 192.742
1701.74, 191.35
1702.52, 196.133
1703.29, 192.407
1704.07, 183.359
1704.84, 184.241
1705.61, 184.834
1706.39, 184.925
1707.16, 183.3
1707.94, 178.794
1708.71, 178.414
1709.48, 183.268
1710.26, 178.49
1711.03, 177.643
1711.81, 188.363
1712.58, 187.771
1713.35, 182.139
1714.13, 183.428
1714.9, 186.94
1715.68, 184.405
1716.45, 181.293
1717.22, 184.069
1718, 186.015
1718.77, 180.56
1719.55, 177.441
1720.32, 184.697
1721.09, 186.815
1721.87, 186.585
1722.64, 186.428
1723.42, 185.847
1724.19, 184.836
1724.96, 185.408
1725.74, 186.604
1726.51, 185.216
1727.29, 184.911
1728.06, 182.702
1728.83, 181.793
1729.61, 183.434
1730.38, 182.216
1731.16, 182.789
1731.93, 182.153
1732.7, 183.263
1733.48, 185.853
1734.25, 185.754
1735.03, 182.806
1735.8, 180.058
1736.57, 182.794
1737.35, 185.632
1738.12, 184.934
1738.9, 185.563
1739.67, 188.515
1740.44, 187.25
1741.22, 184.492
1741.99, 182.255
1742.76, 179.522
1743.54, 179.124
1744.31, 184.049
1745.09, 182.654
1745.86, 187.212
1746.63, 184.588
1747.41, 182.634
1748.18, 184.359
1748.96, 183.984
1749.73, 182.423
1750.5, 181.724
1751.28, 181.001
1752.05, 182.189
1752.83, 186.483
1753.6, 177.302
1754.37, 181.922
1755.15, 190.149
1755.92, 187.425
1756.7, 184.538
1757.47, 181.798
1758.24, 184.897
1759.02, 186.435
1759.79, 184.642
1760.57, 184.383
1761.34, 185.298
1762.11, 186.007
1762.89, 185.165
1763.66, 177.842
1764.44, 179.556
1765.21, 182.206
1765.98, 180.744
1766.76, 178.719
1767.53, 181.979
1768.31, 186.086
1769.08, 185.636
1769.85, 184.176
1770.63, 186.694
1771.4, 190.103
1772.18, 200.494
1772.95, 195.911
1773.72, 189.524
1774.5, 191.266
1775.27, 189.211
1776.05, 185.011
1776.82, 182.696
1777.59, 183.237
1778.37, 182.364
1779.14, 182.137
1779.92, 187.318
1780.69, 186.379
1781.46, 185.428
1782.24, 185.428
1783.01, 185.428
1783.79, 186.261
1784.56, 182.192
1785.33, 183.478
1786.11, 184.202
1786.88, 181.242
1787.66, 182.504
1788.43, 185.68
1789.2, 183.505
1789.98, 185.292
1790.75, 180.441
1791.53, 180.663
1792.3, 184.344
1793.07, 188.031
1793.85, 181.083
1794.62, 181.972
1795.4, 184.388
1796.17, 182.349
1796.94, 181.724
1797.72, 183.089
1798.49, 182.806
1799.27, 183.246
1800.04, 182.762
1800.81, 184.011
1801.59, 182.206
1802.36, 185.897
1803.14, 184.477
1803.91, 180.219
1804.68, 179.76
1805.46, 180.684
1806.23, 181.063
1807.01, 183.94
1807.78, 185.682
1808.55, 184.179
1809.33, 185.68
1810.1, 183.714
1810.88, 182.875
1811.65, 182.882
1812.42, 183.806
1813.2, 182.969
1813.97, 187.498
1814.75, 182.463
1815.52, 181.709
1816.29, 186.62
1817.07, 185.82
1817.84, 180.852
1818.62, 181.645
1819.39, 184.934
1820.16, 182.998
1820.94, 183.278
1821.71, 179.006
1822.49, 184.372
1823.26, 176.635
1824.03, 180.479
1824.81, 184.558
1825.58, 186.63
1826.36, 185.961
1827.13, 182.551
1827.9, 181.037
1828.68, 182.022
1829.45, 182.417
1830.23, 183.132
1831, 181.126
1831.77, 182.698
1832.55, 181.404
1833.32, 182.332
1834.1, 179.789
1834.87, 179.393
1835.64, 181.98
1836.42, 179.707
1837.19, 177.388
1837.97, 177.401
1838.74, 178.694
1839.51, 178.71
1840.29, 177.414
1841.06, 179.681
1841.84, 181.816
1842.61, 177.778
1843.38, 179.554
1844.16, 176.761
1844.93, 179.609
1845.71, 180.028
1846.48, 184.461
1847.25, 183.35
1848.03, 178.303
1848.8, 179.532
1849.58, 183.74
1850.35, 184.03
1851.12, 182.273
1851.9, 182.429
1852.67, 185.206
1853.45, 181.055
1854.22, 180.497
1854.99, 182.36
1855.77, 180.56
1856.54, 182.091
1857.31, 180.093
1858.09, 179.451
1858.86, 182.037
1859.64, 182.872
1860.41, 183.664
1861.18, 182.139
1861.96, 179.955
1862.73, 179.311
1863.51, 175.453
1864.28, 181.175
1865.05, 184.22
1865.83, 182.451
1866.6, 182.451
1867.38, 181.058
1868.15, 182.638
1868.92, 183.721
1869.7, 180.388
1870.47, 181.66
1871.25, 181.841
1872.02, 182.084
1872.79, 182.029
1873.57, 182.073
1874.34, 184.21
1875.12, 183.516
1875.89, 179.579
1876.66, 178.308
1877.44, 177.692
1878.21, 180.364
1878.99, 175.686
1879.76, 179.714
1880.53, 175.275
1881.31, 176.534
1882.08, 177.942
1882.86, 179.149
1883.63, 179.087
1884.4, 179.691
1885.18, 180.663
1885.95, 179.8
1886.73, 180.094
1887.5, 182.112
1888.27, 179.038
1889.05, 181.298
1889.82, 180.966
1890.6, 177.32
1891.37, 178.26
1892.14, 180.047
1892.92, 174.362
1893.69, 178.699
1894.47, 180.24
1895.24, 179.24
1896.01, 179.32
1896.79, 178.105
1897.56, 178.159
1898.34, 178.236
1899.11, 176.901
1899.88, 177.578
1900.66, 176.423
1901.43, 177.584
1902.21, 179.145
1902.98, 177.129
1903.75, 173.422
1904.53, 177.19
1905.3, 180.115
1906.08, 177.123
1906.85, 174.129
1907.62, 173.451
1908.4, 175.048
1909.17, 181.288
1909.95, 181.067
1910.72, 178.642
1911.49, 178.591
1912.27, 176.703
1913.04, 175.451
1913.82, 174.246
1914.59, 171.427
1915.36, 174.26
1916.14, 177.09
1916.91, 179.677
1917.69, 175.953
1918.46, 174.027
1919.23, 179.089
1920.01, 180.688
1920.78, 177.404
1921.56, 174.892
1922.33, 174.298
1923.1, 177.861
1923.88, 179.988
1924.65, 177.3
1925.43, 179.024
1926.2, 181.714
1926.97, 176.246
1927.75, 176.31
1928.52, 177.313
1929.3, 171.204
1930.07, 176.399
1930.84, 177.939
1931.62, 181.718
1932.39, 178.877
1933.17, 180.46
1933.94, 175.608
1934.71, 174.663
1935.49, 180.57
1936.26, 177.317
1937.04, 178.679
1937.81, 180.875
1938.58, 177.692
1939.36, 175.455
1940.13, 176.086
1940.91, 176.463
1941.68, 178.063
1942.45, 179.203
1943.23, 176.651
1944, 175.875
1944.78, 175.875
1945.55, 176.149
1946.32, 179.557
1947.1, 174.804
1947.87, 178.352
1948.65, 181.282
1949.42, 179.192
1950.19, 178.663
1950.97, 175.768
1951.74, 175.338
1952.52, 174.639
1953.29, 174.605
1954.06, 175.028
1954.84, 175.988
1955.61, 178.191
1956.39, 178.572
1957.16, 178.064
1957.93, 179.673
1958.71, 175.644
1959.48, 171.857
1960.26, 174.797
1961.03, 173.448
1961.8, 176.503
1962.58, 171.761
1963.35, 172.715
1964.13, 178.219
1964.9, 175.635
1965.67, 180.868
1966.45, 178.288
1967.22, 174.967
1968, 174.209
1968.77, 174.239
1969.54, 174.24
1970.32, 174.24
1971.09, 176.967
1971.87, 176.1
1972.64, 174.986
1973.41, 178.631
1974.19, 176.906
1974.96, 176.749
1975.73, 175.989
1976.51, 176.996
1977.28, 171.737
1978.06, 174.393
1978.83, 174.393
1979.6, 174.434
1980.38, 178.265
1981.15, 173.682
1981.93, 175.942
1982.7, 177.974
1983.47, 177.502
1984.25, 176.66
1985.02, 179.295
1985.8, 179.783
1986.57, 175.065
1987.34, 173.194
1988.12, 176.435
1988.89, 176.718
1989.67, 175.251
1990.44, 175.875
1991.21, 177.006
1991.99, 179.21
1992.76, 178.696
1993.54, 176.384
1994.31, 177.875
1995.08, 178.049
1995.86, 178.967
1996.63, 179.287
1997.41, 176.461
1998.18, 174.583
1998.95, 175.543
1999.73, 175.855
2000.5, 178.561
2001.28, 181.443
2002.05, 180.241
2002.82, 175.493
2003.6, 172.76
2004.37, 174.343
2005.15, 177.226
2005.92, 178.372
2006.69, 177.865
2007.47, 177.451
2008.24, 177.451
2009.02, 176.805
2009.79, 176.086
2010.56, 177.282
2011.34, 179.448
2012.11, 179.043
2012.89, 176.875
2013.66, 177.377
2014.43, 178.66
2015.21, 178.086
2015.98, 178.935
2016.76, 178.687
2017.53, 181.985
2018.3, 173.878
2019.08, 181.51
2019.85, 178.613
2020.63, 174.926
2021.4, 176.583
2022.17, 180.596
2022.95, 183.609
2023.72, 179.696
2024.5, 179.516
2025.27, 178.321
2026.04, 179.742
2026.82, 180.857
2027.59, 178.873
2028.37, 174.805
2029.14, 176.45
2029.91, 177.118
2030.69, 175.752
2031.46, 175.898
2032.24, 176.555
2033.01, 175.786
2033.78, 176.232
2034.56, 180.066
2035.33, 181.106
2036.11, 179.968
2036.88, 178.064
2037.65, 176.434
2038.43, 177.258
2039.2, 175.357
2039.98, 177.234
2040.75, 175.495
2041.52, 176.134
2042.3, 177.086
2043.07, 174.267
2043.85, 176.857
2044.62, 179.002
2045.39, 179.343
2046.17, 175.389
2046.94, 175.891
2047.72, 181.548
2048.49, 182.49
2049.26, 181.702
2050.04, 183.598
2050.81, 181.263
2051.59, 178.163
2052.36, 177.209
2053.13, 176.704
2053.91, 178.131
2054.68, 175.381
2055.46, 174.46
2056.23, 176.37
2057, 176.546
2057.78, 174.804
2058.55, 178.711
2059.33, 177.982
2060.1, 176.927
2060.87, 173.224
2061.65, 175.626
2062.42, 175.881
2063.2, 176.229
2063.97, 176.36
2064.74, 176.834
2065.52, 177.968
2066.29, 178.799
2067.07, 180.631
2067.84, 179.066
2068.61, 177.049
2069.39, 177.249
2070.16, 178.124
2070.94, 181.584
2071.71, 176.606
2072.48, 170.716
2073.26, 181.172
2074.03, 178.297
2074.81, 180.956
2075.58, 174.656
2076.35, 173.767
2077.13, 178.553
2077.9, 179.767
2078.68, 179.009
2079.45, 181.404
2080.22, 178.912
2081, 174.931
2081.77, 176.266
2082.55, 176.81
2083.32, 175.343
2084.09, 175.343
2084.87, 176.802
2085.64, 176.961
2086.42, 174.009
2087.19, 177.163
2087.96, 180.404
2088.74, 180.531
2089.51, 176.496
2090.29, 176.38
2091.06, 175.889
2091.83, 180.689
2092.61, 182.613
2093.38, 181.653
2094.16, 177.002
2094.93, 178.28
2095.7, 174.265
2096.48, 176.733
2097.25, 174.412
2098.02, 175.896
2098.8, 178.855
2099.57, 180.426
2100.35, 178.281
2101.12, 175.44
2101.89, 175.593
2102.67, 174.45
2103.44, 175.344
2104.22, 176.675
2104.99, 175.147
2105.76, 174.881
2106.54, 172.343
2107.31, 174.437
2108.09, 179.202
2108.86, 178.237
2109.63, 177.33
2110.41, 176.919
2111.18, 177.999
2111.96, 179.522
2112.73, 176.915
2113.5, 179.871
2114.28, 176.004
2115.05, 174.975
2115.83, 178.56
2116.6, 175.788
2117.37, 171.977
2118.15, 175.382
2118.92, 177.117
2119.7, 175.321
2120.47, 176.029
2121.24, 176.614
2122.02, 180.463
2122.79, 176.013
2123.57, 175.218
2124.34, 176.138
2125.11, 176.809
2125.89, 177.838
2126.66, 176.379
2127.44, 175.825
2128.21, 175.825
2128.98, 175.751
2129.76, 174.658
2130.53, 174.049
2131.31, 178.895
2132.08, 181.904
2132.85, 179.267
2133.63, 178.135
2134.4, 177.123
2135.18, 181.397
2135.95, 180.472
2136.72, 175.866
2137.5, 176.803
2138.27, 174.863
2139.05, 179.638
2139.82, 177.118
2140.59, 179.561
2141.37, 178.159
2142.14, 177.659
2142.92, 176.004
2143.69, 174.838
2144.46, 176.854
2145.24, 176.221
2146.01, 177.051
2146.79, 179.654
2147.56, 178.777
2148.33, 179.869
2149.11, 179.577
2149.88, 178.308
2150.66, 179.869
2151.43, 181.07
2152.2, 179.893
2152.98, 178.386
2153.75, 176.176
2154.53, 175.69
2155.3, 178.672
2156.07, 178.009
2156.85, 177.587
2157.62, 179.243
2158.4, 177.375
2159.17, 175.589
2159.94, 177.538
2160.72, 178.937
2161.49, 177.698
2162.27, 175.748
2163.04, 174.197
2163.81, 176.12
2164.59, 177.667
2165.36, 177.568
2166.14, 173.667
2166.91, 174.642
2167.68, 178.36
2168.46, 177.622
2169.23, 174.842
2170.01, 176.303
2170.78, 176.292
2171.55, 174.588
2172.33, 173.441
2173.1, 177.959
2173.88, 177.237
2174.65, 177.346
2175.42, 175.462
2176.2, 176.684
2176.97, 178.38
2177.75, 174.87
2178.52, 175.261
2179.29, 176.759
2180.07, 172.94
2180.84, 174.107
2181.62, 177.19
2182.39, 177.707
2183.16, 177.557
2183.94, 175.015
2184.71, 175.63
2185.49, 177.616
2186.26, 175.828
2187.03, 177.27
2187.81, 177.12
2188.58, 173.757
2189.36, 174.408
2190.13, 171.458
2190.9, 171.635
2191.68, 174.577
2192.45, 173.742
2193.23, 167.244
2194, 176.131
2194.77, 177.131
2195.55, 174.908
2196.32, 175.396
2197.1, 173.134
2197.87, 174.626
2198.64, 172.982
2199.42, 174.316
2200.19, 176.82
2200.97, 173.073
2201.74, 173.202
2202.51, 177.779
2203.29, 172.861
2204.06, 176.726
2204.84, 173.951
2205.61, 172.033
2206.38, 174.694
2207.16, 171.289
2207.93, 177.156
2208.71, 171.979
2209.48, 173.706
2210.25, 174.132
2211.03, 175.785
2211.8, 175.196
2212.57, 176.569
2213.35, 177.758
2214.12, 172.627
2214.9, 174.249
2215.67, 175.343
2216.44, 174.624
2217.22, 178.571
2217.99, 175.469
2218.77, 172.609
2219.54, 173.606
2220.31, 173.637
2221.09, 174.723
2221.86, 173.076
2222.64, 171.555
2223.41, 172.148
2224.18, 171.941
2224.96, 173.196
2225.73, 172.836
2226.51, 172.578
2227.28, 175.751
2228.05, 176.221
2228.83, 177.279
2229.6, 175.844
2230.38, 171.216
2231.15, 173.877
2231.92, 176.25
2232.7, 175.943
2233.47, 174.135
2234.25, 170.817
2235.02, 173.372
2235.79, 174.157
2236.57, 173.391
2237.34, 172.755
2238.12, 170.302
2238.89, 168.554
2239.66, 172.985
2240.44, 175.491
2241.21, 173.496
2241.99, 173.181
2242.76, 173.385
2243.53, 176.883
2244.31, 179.543
2245.08, 177.124
2245.86, 176.329
2246.63, 175.091
2247.4, 172.132
2248.18, 172.616
2248.95, 173.011
2249.73, 170.247
2250.5, 173.561
2251.27, 174.343
2252.05, 174.374
2252.82, 174.496
2253.6, 174.496
2254.37, 174.496
2255.14, 174.754
2255.92, 175.646
2256.69, 174.138
2257.47, 175.131
2258.24, 176.27
2259.01, 177.44
2259.79, 173.731
2260.56, 171.259
2261.34, 172.253
2262.11, 173.016
2262.88, 172.351
2263.66, 173.921
2264.43, 171.834
2265.21, 169.798
2265.98, 176.012
2266.75, 174.19
2267.53, 173.626
2268.3, 167.53
2269.08, 171.993
2269.85, 175.369
2270.62, 170.708
2271.4, 170.568
2272.17, 168.677
2272.95, 174.396
2273.72, 175.294
2274.49, 174.307
2275.27, 173.513
2276.04, 172.711
2276.82, 176.336
2277.59, 170.582
2278.36, 171.437
2279.14, 174.227
2279.91, 170.343
2280.69, 170.38
2281.46, 171.743
2282.23, 170.789
2283.01, 171.747
2283.78, 170.714
2284.56, 167.92
2285.33, 167.903
2286.1, 166.951
2286.88, 168.936
2287.65, 169.92
2288.43, 169.951
2289.2, 171.818
2289.97, 164.962
2290.75, 167.795
2291.52, 169.829
2292.3, 173.722
2293.07, 170.674
2293.84, 165.125
2294.62, 171.962
2295.39, 168.977
2296.17, 167.048
2296.94, 168.77
2297.71, 171.663
2298.49, 169.684
2299.26, 168.682
2300.04, 167.824
2300.81, 171.674
2301.58, 168.8
2302.36, 169.838
2303.13, 171.43
2303.91, 163.184
2304.68, 168.11
2305.45, 171.025
2306.23, 171.783
2307, 168.445
2307.78, 174.732
2308.55, 169.011
2309.32, 168.179
2310.1, 169.296
2310.87, 164.216
2311.65, 170.63
2312.42, 169.777
2313.19, 170.905
2313.97, 174.097
2314.74, 169.75
2315.52, 171.49
2316.29, 171.136
2317.06, 172.582
2317.84, 169.326
2318.61, 165.025
2319.39, 166.811
2320.16, 173.767
2320.93, 172.477
2321.71, 166.022
2322.48, 172.878
2323.26, 171.517
2324.03, 173.19
2324.8, 172.937
2325.58, 172.137
2326.35, 173.19
2327.13, 171.363
2327.9, 173.723
2328.67, 174.636
2329.45, 176.54
2330.22, 170.483
2330.99, 171.394
2331.77, 166.124
2332.54, 170.861
2333.32, 170.063
2334.09, 167.861
2334.86, 168.88
2335.64, 170.555
2336.41, 167.83
2337.19, 165.497
2337.96, 166.972
2338.73, 172.676
2339.51, 169.343
2340.28, 169.343
2341.06, 169.012
2341.83, 168.813
2342.6, 168.665
2343.38, 168.231
2344.15, 168.88
2344.93, 168.493
2345.7, 168.641
2346.47, 168.073
2347.25, 169.299
2348.02, 169.364
2348.8, 169.206
2349.57, 169.782
2350.34, 169.533
2351.12, 170.285
2351.89, 170.815
2352.67, 167.483
2353.44, 167.067
2354.21, 166.765
2354.99, 163.695
2355.76, 164.65
2356.54, 163.421
2357.31, 163.867
2358.08, 163.796
2358.86, 166.987
2359.63, 169.073
2360.41, 168.038
2361.18, 169.644
2361.95, 171.978
2362.73, 168.921
2363.5, 170.297
2364.28, 171.249
2365.05, 168.93
2365.82, 168.249
2366.6, 167.473
2367.37, 167.285
2368.15, 163.932
2368.92, 168.408
2369.69, 165.485
2370.47, 166.695
2371.24, 166.92
2372.02, 165.997
2372.79, 165.666
2373.56, 167.561
2374.34, 161.809
2375.11, 168.589
2375.89, 167.651
2376.66, 167.852
2377.43, 168.779
2378.21, 167.825
2378.98, 167.798
2379.76, 167.089
2380.53, 164.34
2381.3, 169.798
2382.08, 165.632
2382.85, 166.7
2383.63, 168.343
2384.4, 168.999
2385.17, 169.8
2385.95, 165.12
2386.72, 165.861
2387.5, 166.161
2388.27, 166.579
2389.04, 167.34
2389.82, 171.422
2390.59, 171.681
2391.37, 167.955
2392.14, 167.07
2392.91, 166.367
2393.69, 165.982
2394.46, 166.884
2395.24, 168.998
2396.01, 168.538
2396.78, 168.63
2397.56, 165.594
2398.33, 166.688
2399.11, 166.571
2399.88, 163.126
2400.65, 166.776
2401.43, 171.857
2402.2, 172.353
2402.98, 166.124
2403.75, 164.84
2404.52, 166.654
2405.3, 166.257
2406.07, 165.232
2406.85, 168.53
2407.62, 166.404
2408.39, 163.331
2409.17, 164.013
2409.94, 165.038
2410.72, 167.055
2411.49, 163.089
2412.26, 164.115
2413.04, 165.142
2413.81, 165.791
2414.59, 163.798
2415.36, 168.778
2416.13, 167.94
2416.91, 170.268
2417.68, 165.121
2418.46, 171.051
2419.23, 168.355
2420, 168.142
2420.78, 165.735
2421.55, 166.171
2422.33, 167.285
2423.1, 166.917
2423.87, 167.623
2424.65, 166.594
2425.42, 165.566
2426.2, 163.464
2426.97, 164.901
2427.74, 165.289
2428.52, 164.697
2429.29, 165.727
2430.07, 166.756
2430.84, 162.078
2431.61, 165.275
2432.39, 162.431
2433.16, 165.092
2433.94, 160.229
2434.71, 161.667
2435.48, 165.658
2436.26, 162.362
2437.03, 162.073
2437.81, 167.022
2438.58, 166.007
2439.35, 163.127
2440.13, 163.987
2440.9, 163.542
2441.68, 167.073
2442.45, 166.345
2443.22, 162.858
2444, 162.568
2444.77, 164.353
2445.54, 164.759
2446.32, 165.118
2447.09, 165.928
2447.87, 164.073
2448.64, 164.969
2449.42, 165.59
2450.19, 165.59
2450.96, 164.97
2451.74, 164.659
2452.51, 165.073
2453.28, 165.728
2454.06, 162.62
2454.83, 161.798
2455.61, 163.596
2456.38, 168.857
2457.15, 162.58
2457.93, 160.204
2458.7, 163.695
2459.48, 162.191
2460.25, 166.96
2461.02, 164.073
2461.8, 163.918
2462.57, 160.898
2463.35, 159.447
2464.12, 162.883
2464.89, 167.273
2465.67, 166.649
2466.44, 162.623
2467.22, 163.447
2467.99, 163.128
2468.76, 164.682
2469.54, 164.931
2470.31, 167.007
2471.09, 166.049
2471.86, 165.163
2472.63, 164.903
2473.41, 167.19
2474.18, 167.081
2474.96, 163.963
2475.73, 164.56
2476.5, 162.723
2477.28, 161.249
2478.05, 166.256
2478.83, 164.359
2479.6, 164.073
2480.37, 167.032
2481.15, 164.101
2481.92, 164.933
2482.7, 163.295
2483.47, 164.616
2484.24, 162.656
2485.02, 164.836
2485.79, 163.516
2486.57, 163.037
2487.34, 165.437
2488.11, 163.228
2488.89, 159.971
2489.66, 163.534
2490.44, 164.465
2491.21, 164.232
2491.98, 161.334
2492.76, 162.407
2493.53, 159.805
2494.31, 159.584
2495.08, 164.067
2495.85, 165.917
2496.63, 161.629
2497.4, 162.007
2498.18, 165.008
2498.95, 162.097
2499.72, 162.797
2500.5, 159.533
2501.27, 162.912
2502.05, 162.073
2502.82, 162.326
2503.59, 163.073
2504.37, 162.039
2505.14, 160.465
2505.92, 162.389
2506.69, 163.587
2507.46, 162.54
2508.24, 162.073
2509.01, 163.329
2509.79, 163.397
2510.56, 164.519
2511.33, 164.302
2512.11, 164.073
2512.88, 162.335
2513.66, 162.073
2514.43, 159.176
2515.2, 163.073
2515.98, 163.201
2516.75, 164.622
2517.53, 161.236
2518.3, 161.223
2519.07, 158.598
2519.85, 161.634
2520.62, 163.256
2521.4, 158.832
2522.17, 158.928
2522.94, 161.588
2523.72, 162.073
2524.49, 161.456
2525.27, 161.741
2526.04, 162.073
2526.81, 158.986
2527.59, 158.073
2528.36, 157.197
2529.14, 161.711
2529.91, 165.014
2530.68, 159.139
2531.46, 160.902
2532.23, 159.211
2533.01, 160.073
2533.78, 158.608
2534.55, 156.758
2535.33, 163.073
2536.1, 161.857
2536.88, 159.154
2537.65, 158.586
2538.42, 159.641
2539.2, 159.45
2539.97, 159.073
2540.75, 162.731
2541.52, 160.137
2542.29, 159.916
2543.07, 161.869
2543.84, 159.212
2544.62, 161.092
2545.39, 162.874
2546.16, 160.073
2546.94, 160.429
2547.71, 161.135
2548.49, 158.948
2549.26, 160.027
2550.03, 159.695
2550.81, 162.073
2551.58, 161.032
2552.36, 161.228
2553.13, 158.257
2553.9, 156.767
2554.68, 158.577
2555.45, 155.833
2556.23, 161.158
2557, 161.145
2557.77, 161.073
2558.55, 158.165
2559.32, 160.073
2560.09, 160.073
2560.87, 160.297
2561.64, 160.221
2562.42, 159.104
2563.19, 159.86
2563.97, 159.468
2564.74, 160.022
2565.51, 160.245
2566.29, 158.485
2567.06, 159.198
2567.83, 159.303
2568.61, 159.073
2569.38, 159.073
2570.16, 156.207
2570.93, 158.073
2571.7, 158.31
2572.48, 160.931
2573.25, 159.256
2574.03, 156.339
2574.8, 157.402
2575.57, 158.859
2576.35, 158.705
2577.12, 157.593
2577.9, 158.073
2578.67, 160.016
2579.44, 157.515
2580.22, 159.178
2580.99, 157.553
2581.77, 162.502
2582.54, 160.165
2583.31, 157.107
2584.09, 158.273
2584.86, 160.073
2585.64, 158.228
2586.41, 154.445
2587.18, 157.172
2587.96, 154.646
2588.73, 158.073
2589.51, 159.759
2590.28, 158.559
2591.05, 156.377
2591.83, 157.598
2592.6, 158.073
2593.38, 159.866
2594.15, 160.073
2594.92, 157.04
2595.7, 156.073
2596.47, 156.073
2597.25, 157.258
2598.02, 159.239
2598.79, 156.197
2599.57, 158.073
2600.34, 159.61
2601.12, 160.491
2601.89, 158.769
2602.66, 161.679
2603.44, 158.327
2604.21, 158.796
2604.99, 157.211
2605.76, 156.074
2606.53, 156.928
2607.31, 155.789
2608.08, 159.429
2608.86, 157.358
2609.63, 159.143
2610.4, 159.358
2611.18, 157.573
2611.95, 160.36
2612.73, 160.786
2613.5, 157.922
2614.27, 158.651
2615.05, 155.626
2615.82, 158.814
2616.6, 161.048
2617.37, 158.395
2618.14, 161.764
2618.92, 159.162
2619.69, 157.282
2620.47, 158.193
2621.24, 156.875
2622.01, 159.073
2622.79, 159.073
2623.56, 161.771
2624.34, 162.323
2625.11, 158.777
2625.88, 156.274
2626.66, 154.122
2627.43, 163.767
2628.21, 158.073
2628.98, 158.885
2629.75, 159.559
2630.53, 154.85
2631.3, 157.207
2632.08, 157.093
2632.85, 159.834
2633.62, 155.763
2634.4, 157.525
2635.17, 154.976
2635.95, 154.969
2636.72, 155.073
2637.49, 156.232
2638.27, 158.809
2639.04, 157.073
2639.82, 155.05
2640.59, 152.648
2641.36, 155.73
2642.14, 154.073
2642.91, 153.467
2643.69, 153.759
2644.46, 155.605
2645.23, 156.919
2646.01, 164.487
2646.78, 172.02
2647.56, 164.808
2648.33, 160.889
2649.1, 155.823
2649.88, 158.073
2650.65, 157.66
2651.43, 153.612
2652.2, 152.379
2652.97, 158.682
2653.75, 154.41
2654.52, 155.366
2655.3, 159.695
2656.07, 155.128
2656.84, 159.858
2657.62, 156.763
2658.39, 155.311
2659.17, 156.073
2659.94, 154.855
2660.71, 153.562
2661.49, 156.369
2662.26, 157.415
2663.04, 158.558
2663.81, 154.935
2664.58, 155.898
2665.36, 154.077
2666.13, 155.74
2666.91, 151.735
2667.68, 151.091
2668.45, 153.392
2669.23, 154.207
2670, 158.1
2670.78, 155.474
2671.55, 155.818
2672.32, 155.525
2673.1, 154.212
2673.87, 154.073
2674.65, 152.002
2675.42, 150.808
2676.19, 155.862
2676.97, 155.672
2677.74, 156.685
2678.52, 157.024
2679.29, 158.073
2680.06, 156.113
2680.84, 155.816
2681.61, 157.738
2682.39, 157.152
2683.16, 151.124
2683.93, 155.771
2684.71, 152.501
2685.48, 152.038
2686.25, 155.214
2687.03, 153.926
2687.8, 155.519
2688.58, 155.717
2689.35, 153.133
2690.13, 151.245
2690.9, 151.073
2691.67, 155.023
2692.45, 150.073
2693.22, 151.437
2693.99, 157.073
2694.77, 154.414
2695.54, 151.019
2696.32, 155.471
2697.09, 155.436
2697.86, 153.32
2698.64, 153.918
2699.41, 153.133
2700.19, 154.21
2700.96, 157.559
2701.73, 154.518
2702.51, 155.437
2703.28, 153.248
2704.06, 152.58
2704.83, 156.687
2705.6, 156.282
2706.38, 149.514
2707.15, 153.411
2707.93, 156.043
2708.7, 152.992
2709.47, 152.608
2710.25, 154.524
2711.02, 153.073
2711.8, 152.135
2712.57, 149.375
2713.34, 152.716
2714.12, 152.792
2714.89, 154.649
2715.67, 155.073
2716.44, 150.397
2717.21, 155.461
2717.99, 152.577
2718.76, 153.722
2719.54, 153.523
2720.31, 153.524
2721.08, 156.317
2721.86, 152.836
2722.63, 154.464
2723.41, 154.125
2724.18, 151.978
2724.95, 150.222
2725.73, 152.319
2726.5, 155.373
2727.28, 154.524
2728.05, 155.073
2728.82, 157.034
2729.6, 155.053
2730.37, 147.214
2731.15, 153.742
2731.92, 153.073
2732.69, 153.729
2733.47, 155.742
2734.24, 152.442
2735.02, 154.018
2735.79, 154.497
2736.56, 152.033
2737.34, 154.992
2738.11, 151.635
2738.89, 152.064
2739.66, 153.977
2740.43, 153.073
2741.21, 152.464
2741.98, 149.846
2742.76, 149.617
2743.53, 151.073
2744.3, 154.698
2745.08, 153.58
2745.85, 154.947
2746.63, 153.115
2747.4, 153.924
2748.17, 153.841
2748.95, 153.172
2749.72, 149.481
2750.5, 151.649
2751.27, 152.757
2752.04, 152.281
2752.82, 152.971
2753.59, 152.066
2754.37, 151.188
2755.14, 152.073
2755.91, 152.073
2756.69, 150.751
2757.46, 148.524
2758.24, 149.39
2759.01, 153.148
2759.78, 152.316
2760.56, 149.111
2761.33, 151.267
2762.11, 153.073
2762.88, 153.391
2763.65, 154.502
2764.43, 152.372
2765.2, 151.375
2765.98, 151.311
2766.75, 150.2
2767.52, 149.088
2768.3, 150.365
2769.07, 153.282
2769.85, 152.148
2770.62, 150.676
2771.39, 151.887
2772.17, 148.754
2772.94, 151.163
2773.72, 152.959
2774.49, 151.074
2775.26, 151.847
2776.04, 150.299
2776.81, 151.757
2777.59, 153.529
2778.36, 152.364
2779.13, 150.318
2779.91, 149.43
2780.68, 153.771
2781.46, 149.746
2782.23, 150.421
2783, 152.395
2783.78, 149.798
2784.55, 148.329
2785.33, 149.359
2786.1, 151.515
2786.87, 152.641
2787.65, 151.025
2788.42, 147.88
2789.2, 151.839
2789.97, 153.886
2790.74, 153.767
2791.52, 152.444
2792.29, 153.112
2793.07, 151.344
2793.84, 152.108
2794.61, 151.74
2795.39, 150.084
2796.16, 150.665
2796.94, 151.643
2797.71, 147.74
2798.48, 148.401
2799.26, 150.74
2800.03, 150.321
2800.8, 151.291
2801.58, 150.89
2802.35, 148.306
2803.13, 149.371
2803.9, 150.655
2804.68, 151.785
2805.45, 154.277
2806.22, 151.172
2807, 153.056
2807.77, 152.071
2808.54, 150.776
2809.32, 151.74
2810.09, 151.74
2810.87, 154.207
2811.64, 151.967
2812.41, 152.583
2813.19, 147.635
2813.96, 153.049
2814.74, 152.069
2815.51, 153.001
2816.28, 150.202
2817.06, 150.38
2817.83, 148.508
2818.61, 151.127
2819.38, 154.589
2820.15, 147.013
2820.93, 151.424
2821.7, 149.74
2822.48, 149.74
2823.25, 150.21
2824.02, 151.315
2824.8, 149.019
2825.57, 147.74
2826.35, 153.97
2827.12, 152.747
2827.89, 148.042
2828.67, 150.946
2829.44, 152.053
2830.22, 151.484
2830.99, 150.264
2831.76, 151.371
2832.54, 151.001
2833.31, 147.362
2834.09, 150.544
2834.86, 149.74
2835.63, 150.237
2836.41, 152.74
2837.18, 152.74
2837.96, 151.762
2838.73, 152.533
2839.5, 153.74
2840.28, 148.851
2841.05, 149.585
2841.83, 148.866
2842.6, 152.456
2843.37, 150.99
2844.15, 152.099
2844.92, 152.27
2845.7, 148.846
2846.47, 150.873
2847.24, 151.142
2848.02, 152.559
2848.79, 151.779
2849.57, 153.216
2850.34, 149.981
2851.11, 151.092
2851.89, 149.881
2852.66, 149.466
2853.44, 152.114
2854.21, 154.338
2854.98, 149.27
2855.76, 148.764
2856.53, 150.415
2857.31, 153.747
2858.08, 150.018
2858.85, 149.214
2859.63, 150.914
2860.4, 151.039
2861.18, 145.857
2861.95, 148.454
2862.72, 153.74
2863.5, 153.427
2864.27, 150.658
2865.05, 148.895
2865.82, 150.74
2866.59, 150.74
2867.37, 152.2
2868.14, 151.895
2868.92, 153.659
2869.69, 146.969
2870.46, 149.548
2871.24, 149.047
2872.01, 152.281
2872.79, 152.494
2873.56, 147.769
2874.33, 150.608
2875.11, 149.066
2875.88, 149.762
2876.66, 152.364
2877.43, 150.711
2878.2, 154.1
2878.98, 152.822
2879.75, 151.933
2880.53, 147.74
2881.3, 147.405
2882.07, 149.643
2882.85, 150.88
2883.62, 151.977
2884.4, 150.288
2885.17, 151.593
2885.94, 150.933
2886.72, 151.404
2887.49, 150.74
2888.27, 148.013
2889.04, 149.826
2889.81, 153.04
2890.59, 153.39
2891.36, 149.348
2892.14, 149.764
2892.91, 149.472
2893.68, 151.76
2894.46, 146.599
2895.23, 153.74
2896.01, 150.861
2896.78, 151.983
2897.55, 153.472
2898.33, 154.251
2899.1, 151.292
2899.88, 151.21
2900.65, 152.597
2901.42, 151.758
2902.2, 148.844
2902.97, 150.197
2903.75, 151.386
2904.52, 148.353
2905.29, 148.145
2906.07, 147.562
2906.84, 148.443
2907.62, 151.67
2908.39, 150.74
2909.16, 150.74
2909.94, 150.034
2910.71, 150.655
2911.49, 150.927
2912.26, 151.201
2913.03, 150.026
2913.81, 145.802
2914.58, 148.629
2915.35, 148.452
2916.13, 151.469
2916.9, 152.74
2917.68, 152.12
2918.45, 152.487
2919.23, 149.24
2920, 149.724
2920.77, 145.267
2921.55, 149.782
2922.32, 151.182
2923.09, 147.705
2923.87, 148.679
2924.64, 148.964
2925.42, 149.645
2926.19, 147.74
2926.96, 148.235
2927.74, 151.035
2928.51, 151.314
2929.29, 149.626
2930.06, 150.801
2930.83, 150.104
2931.61, 152.59
2932.38, 153.659
2933.16, 152.74
2933.93, 152.74
2934.7, 151.313
2935.48, 151.562
2936.25, 154.958
2937.03, 153.995
2937.8, 152.728
2938.57, 150.464
2939.35, 149.281
2940.12, 151.95
2940.9, 150.513
2941.67, 149.755
2942.44, 153.153
2943.22, 151.862
2943.99, 150.96
2944.77, 153.532
2945.54, 152.74
2946.31, 152.262
2947.09, 149.902
2947.86, 149.487
2948.64, 151.505
2949.41, 152.74
2950.18, 152.431
2950.96, 151.32
2951.73, 152.74
2952.51, 148.799
2953.28, 149.241
2954.05, 150.74
2954.83, 149.766
2955.6, 149.628
2956.38, 149.236
2957.15, 151.126
2957.92, 152.788
2958.7, 152.416
2959.47, 152.54
2960.25, 148.988
2961.02, 152.663
2961.79, 151.307
2962.57, 150.095
2963.34, 152.221
2964.12, 153.74
2964.89, 148.327
2965.66, 150.394
2966.44, 146.9
2967.21, 149.158
2967.99, 147.742
2968.76, 150.215
2969.53, 151.355
2970.31, 150.983
2971.08, 151.637
2971.86, 152.547
2972.63, 147.921
2973.4, 149.384
2974.18, 150.74
2974.95, 151.953
2975.73, 150.493
2976.5, 148.847
2977.27, 152.534
2978.05, 147.274
2978.82, 147.815
2979.6, 146.99
2980.37, 152.563
2981.14, 152.235
2981.92, 151.74
2982.69, 149.74
2983.47, 149.74
2984.24, 150.069
2985.01, 151.213
2985.79, 149.264
2986.56, 149.268
2987.34, 151.56
2988.11, 151.517
2988.88, 147.941
2989.66, 149.087
2990.43, 149.74
2991.21, 151.021
2991.98, 150.952
2992.75, 147.003
2993.53, 148.659
2994.3, 147.74
2995.08, 148.868
2995.85, 149.168
2996.62, 150.428
2997.4, 150.101
2998.17, 146.835
2998.95, 146.32
2999.72, 150.474
3000.49, 150.154
3001.27, 148.486
3002.04, 148.166
3002.82, 149.602
3003.59, 144.787
3004.36, 148.902
3005.14, 149.114
3005.91, 146.813
3006.69, 145.74
3007.46, 150.32
3008.23, 150.825
3009.01, 150.344
3009.78, 144.74
3010.56, 146.219
3011.33, 148.74
3012.1, 146.72
3012.88, 148.214
3013.65, 148.74
3014.43, 149.087
3015.2, 145.023
3015.97, 144.429
3016.75, 143.33
3017.52, 147.456
3018.3, 146.944
3019.07, 146.147
3019.84, 152.714
3020.62, 148.381
3021.39, 147.225
3022.17, 148.077
3022.94, 147.093
3023.71, 149.676
3024.49, 148.74
3025.26, 148.16
3026.04, 147.184
3026.81, 148.34
3027.58, 147.982
3028.36, 149.567
3029.13, 147.088
3029.91, 149.927
3030.68, 144.894
3031.45, 146.74
3032.23, 149.535
3033, 146.46
3033.78, 146.74
3034.55, 147.946
3035.32, 152.088
3036.1, 149.229
3036.87, 149.74
3037.65, 150.546
3038.42, 148.808
3039.19, 148.74
3039.97, 149.025
3040.74, 149.295
3041.51, 148.135
3042.29, 145.446
3043.06, 145.665
3043.84, 150.4
3044.61, 147.232
3045.38, 148.74
3046.16, 147.033
3046.93, 147.93
3047.71, 148.74
3048.48, 147.793
3049.25, 148.524
3050.03, 148.117
3050.8, 148.199
3051.58, 148.443
3052.35, 150.471
3053.12, 149.598
3053.9, 145.317
3054.67, 147.74
3055.45, 148.259
3056.22, 148.74
3056.99, 148.74
3057.77, 148.764
3058.54, 150.563
3059.32, 149.74
3060.09, 149.234
3060.86, 149.411
3061.64, 148.064
3062.41, 149.737
3063.19, 148.74
3063.96, 148.405
3064.73, 149.744
3065.51, 148.401
3066.28, 148.408
3067.06, 147.74
3067.83, 147.571
3068.6, 146.404
3069.38, 147.75
3070.15, 149.069
3070.93, 147.9
3071.7, 142.754
3072.47, 145.264
3073.25, 149.46
3074.02, 150.173
3074.8, 147.74
3075.57, 147.74
3076.34, 148.657
3077.12, 145.313
3077.89, 147.74
3078.67, 147.74
3079.44, 149.141
3080.21, 147.124
3080.99, 144.782
3081.76, 146.167
3082.54, 147.355
3083.31, 146.74
3084.08, 151.103
3084.86, 148.244
3085.63, 151.456
3086.41, 146.765
3087.18, 145.405
3087.95, 144.792
3088.73, 150.361
3089.5, 147.128
3090.28, 149.301
3091.05, 146.587
3091.82, 148.283
3092.6, 149.001
3093.37, 148.936
3094.15, 145.803
3094.92, 145.045
3095.69, 147.725
3096.47, 149.74
3097.24, 149.061
3098.02, 148.74
3098.79, 144.74
3099.56, 145.975
3100.34, 149.593
3101.11, 146.622
3101.89, 148.684
3102.66, 146.088
3103.43, 147.56
3104.21, 146.007
3104.98, 146.74
3105.76, 149.227
3106.53, 147.542
3107.3, 151.626
3108.08, 153.269
3108.85, 150.07
3109.63, 149.767
3110.4, 150.047
3111.17, 146.253
3111.95, 145.843
3112.72, 147.97
3113.5, 147.918
3114.27, 147.922
3115.04, 147.196
3115.82, 143.885
3116.59, 146.607
3117.37, 146.683
3118.14, 147.749
3118.91, 148.092
3119.69, 150.455
3120.46, 150.62
3121.24, 148.184
3122.01, 148.527
3122.78, 146.74
3123.56, 152.126
3124.33, 148.018
3125.11, 147.74
3125.88, 149.337
3126.65, 151.229
3127.43, 150.427
3128.2, 150.74
3128.98, 148.796
3129.75, 149.499
3130.52, 149.165
3131.3, 148.519
3132.07, 146.15
3132.85, 146.72
3133.62, 148.073
3134.39, 150.091
3135.17, 150.74
3135.94, 149.289
3136.72, 151.472
3137.49, 145.837
3138.26, 147.308
3139.04, 146.38
3139.81, 149.013
3140.59, 150.893
3141.36, 150.671
3142.13, 148.963
3142.91, 149.328
3143.68, 147.54
3144.46, 148.318
3145.23, 151.674
3146, 150.74
3146.78, 150.383
3147.55, 149.74
3148.33, 149.74
3149.1, 146.959
3149.87, 149.623
3150.65, 147.203
3151.42, 145.733
3152.2, 150.495
3152.97, 151.74
3153.74, 150.595
3154.52, 148.477
3155.29, 148.65
3156.06, 149.74
3156.84, 152.258
3157.61, 148.61
3158.39, 145.639
3159.16, 149.576
3159.93, 149.516
3160.71, 151.961
3161.48, 148.746
3162.26, 150.74
3163.03, 150.74
3163.8, 148.412
3164.58, 148.291
3165.35, 149.711
3166.13, 146.74
3166.9, 147.101
3167.67, 147.74
3168.45, 147.74
3169.22, 147.74
3170, 150.45
3170.77, 148.74
3171.54, 150.356
3172.32, 151.005
3173.09, 147.945
3173.87, 148.869
3174.64, 148.76
3175.41, 150.407
3176.19, 151.57
3176.96, 150.74
3177.74, 147.219
3178.51, 151.375
3179.28, 152.222
3180.06, 151.74
3180.83, 152.655
3181.61, 150.74
3182.38, 150.109
3183.15, 148.74
3183.93, 147.308
3184.7, 150.408
3185.48, 150.974
3186.25, 151.146
3187.02, 146.181
3187.8, 147.622
3188.57, 148.74
3189.35, 151.864
3190.12, 149.469
3190.89, 147.506
3191.67, 148.809
3192.44, 144.934
3193.22, 153.602
3193.99, 152.399
3194.76, 152.285
3195.54, 147.496
3196.31, 150.502
3197.09, 150.271
3197.86, 148.824
3198.63, 147.908
3199.41, 149.594
3200.18, 151.716
3200.96, 147.466
3201.73, 149.576
3202.5, 149.519
3203.28, 149.141
3204.05, 149.746
3204.83, 150.527
3205.6, 149.74
3206.37, 149.74
3207.15, 150.573
3207.92, 145.984
3208.7, 151.74
3209.47, 150.371
3210.24, 148.075
3211.02, 151.234
3211.79, 152.412
3212.57, 148.159
3213.34, 148.24
3214.11, 152.578
3214.89, 150.984
3215.66, 148.611
3216.44, 148.755
3217.21, 150.74
3217.98, 151.499
3218.76, 149.798
3219.53, 147.102
3220.31, 148.74
3221.08, 150.553
3221.85, 148.473
3222.63, 150.74
3223.4, 150.02
3224.18, 148.644
3224.95, 151.733
3225.72, 149.229
3226.5, 147.83
3227.27, 148.435
3228.05, 147.74
3228.82, 148.471
3229.59, 151.58
3230.37, 152.258
3231.14, 148.99
3231.92, 148.919
3232.69, 149.74
3233.46, 145.877
3234.24, 152.504
3235.01, 149.936
3235.79, 147.072
3236.56, 146.74
3237.33, 150.839
3238.11, 151.106
3238.88, 149.206
3239.66, 148.74
3240.43, 151.645
3241.2, 151.553
3241.98, 149.932
3242.75, 149.361
3243.53, 152.259
3244.3, 152.447
3245.07, 148.573
3245.85, 150.243
3246.62, 149.74
3247.4, 148.804
3248.17, 149.585
3248.94, 149.49
3249.72, 149.549
3250.49, 149.555
3251.27, 150.666
3252.04, 148.482
3252.81, 146.783
3253.59, 146.44
3254.36, 150.428
3255.14, 151.74
3255.91, 152.106
3256.68, 150.972
3257.46, 149.74
3258.23, 147.843
3259.01, 150.74
3259.78, 148.336
3260.55, 147.851
3261.33, 147.811
3262.1, 148.74
3262.88, 149.116
3263.65, 147.936
3264.42, 149.219
3265.2, 150.535
3265.97, 147.57
3266.75, 147.731
3267.52, 147.921
3268.29, 148.74
3269.07, 153.199
3269.84, 149.927
3270.61, 150.637
3271.39, 152.599
3272.16, 145.09
3272.94, 147.795
3273.71, 146.824
3274.48, 147.74
3275.26, 147.74
3276.03, 146.195
3276.81, 149.108
3277.58, 147.317
3278.35, 145.74
3279.13, 149.165
3279.9, 146.861
3280.68, 151.758
3281.45, 150.405
3282.22, 151.482
3283, 148.034
3283.77, 148.214
3284.55, 152.278
3285.32, 146.824
3286.09, 148.057
3286.87, 148.675
3287.64, 145.792
3288.42, 148.573
3289.19, 150.993
3289.96, 147.503
3290.74, 147.51
3291.51, 147.587
3292.29, 150.658
3293.06, 150.055
3293.83, 150.19
3294.61, 147.387
3295.38, 144.868
3296.16, 150.471
3296.93, 148.206
3297.7, 147.569
3298.48, 151.537
3299.25, 148.566
3300.03, 146.328
3300.8, 151.075
3301.57, 150.835
3302.35, 145.164
3303.12, 147.74
3303.9, 149.584
3304.67, 149.035
3305.44, 150.74
3306.22, 150.08
3306.99, 148.172
3307.77, 147.74
3308.54, 146.915
3309.31, 149.888
3310.09, 149.309
3310.86, 147.69
3311.64, 151.736
3312.41, 148.497
3313.18, 148.222
3313.96, 150.909
3314.73, 148.85
3315.51, 148.74
3316.28, 148.293
3317.05, 150.492
3317.83, 150.809
3318.6, 151.568
3319.38, 150.74
3320.15, 151.396
3320.92, 152.639
3321.7, 151.74
3322.47, 151.354
3323.25, 151.368
3324.02, 146.501
3324.79, 150.74
3325.57, 150.017
3326.34, 148.74
3327.12, 149.591
3327.89, 150.74
3328.66, 149.715
3329.44, 150.086
3330.21, 148.408
3330.99, 149.502
3331.76, 147.39
3332.53, 149.882
3333.31, 150.74
3334.08, 150.282
3334.86, 144.991
3335.63, 149.98
3336.4, 146.892
3337.18, 148.682
3337.95, 148.35
3338.73, 151.399
3339.5, 149.528
3340.27, 150.74
3341.05, 150.439
3341.82, 149.74
3342.6, 144.937
3343.37, 149.64
3344.14, 149.544
3344.92, 152.086
3345.69, 149.938
3346.47, 151.526
3347.24, 146.824
3348.01, 148.638
3348.79, 147.693
3349.56, 148.862
3350.34, 149.485
3351.11, 146.74
3351.88, 145.921
3352.66, 146.811
3353.43, 147.74
3354.21, 146.002
3354.98, 144.74
3355.75, 145.74
3356.53, 146.422
3357.3, 147.74
3358.08, 151.145
3358.85, 149.316
3359.62, 145.378
3360.4, 147.212
3361.17, 146.119
3361.95, 149.74
3362.72, 148.194
3363.49, 147.026
3364.27, 146.839
3365.04, 148.424
3365.82, 147.984
3366.59, 148.395
3367.36, 144.011
3368.14, 143.309
3368.91, 145.292
3369.69, 144.033
3370.46, 141.808
3371.23, 150.062
3372.01, 145.799
3372.78, 147.463
3373.56, 147.724
3374.33, 145.537
3375.1, 148.265
3375.88, 147.165
3376.65, 149.593
3377.43, 147.361
3378.2, 148.167
3378.97, 147.74
3379.75, 148.354
3380.52, 144.74
3381.3, 145.361
3382.07, 145.74
3382.84, 144.481
3383.62, 147.506
3384.39, 149.115
3385.17, 144.169
3385.94, 147.331
3386.71, 146.208
3387.49, 145.274
3388.26, 144.74
3389.04, 145.476
3389.81, 147.383
3390.58, 145.766
3391.36, 145.862
3392.13, 146.756
3392.91, 145.334
3393.68, 144.016
3394.45, 143.126
3395.23, 145.74
3396, 145.076
3396.77, 146.601
3397.55, 143.74
3398.32, 142.804
3399.1, 142.477
3399.87, 144.728
3400.64, 143.29
3401.42, 145.83
3402.19, 144.293
3402.97, 144.57
3403.74, 143.095
3404.51, 145.618
3405.29, 144.946
3406.06, 141.58
3406.84, 144.861
3407.61, 141.605
3408.38, 145.655
3409.16, 142.974
3409.93, 142.324
3410.71, 142.137
3411.48, 143.666
3412.25, 142.74
3413.03, 143.981
3413.8, 142.949
3414.58, 142.571
3415.35, 142.183
3416.12, 143.457
3416.9, 141.755
3417.67, 145.472
3418.45, 143.109
3419.22, 145.018
3419.99, 139.307
3420.77, 143.256
3421.54, 142.035
3422.32, 140.892
3423.09, 143.134
3423.86, 140.26
3424.64, 144.279
3425.41, 143.774
3426.19, 143.486
3426.96, 141.921
3427.73, 142.74
3428.51, 142.591
3429.28, 142.596
3430.06, 143.74
3430.83, 143.74
3431.6, 141.006
3432.38, 142.835
3433.15, 142.911
3433.93, 140.959
3434.7, 141.959
3435.47, 140.74
3436.25, 140.74
3437.02, 141.504
3437.8, 142.292
3438.57, 146.139
3439.34, 140.904
3440.12, 142.008
3440.89, 140.74
3441.67, 140.74
3442.44, 139.812
3443.21, 140.939
3443.99, 145.638
3444.76, 142.054
3445.54, 149.56
3446.31, 145.873
3447.08, 139.078
3447.86, 141.667
3448.63, 139.714
3449.41, 141.818
3450.18, 141.104
3450.95, 140.229
3451.73, 139.625
3452.5, 141.718
3453.28, 140.779
3454.05, 142.252
3454.82, 140.99
3455.6, 142.319
3456.37, 139.289
3457.15, 140.576
3457.92, 139.83
3458.69, 141.22
3459.47, 139.077
3460.24, 139.473
3461.02, 140.715
3461.79, 142.625
3462.56, 140.889
3463.34, 140.565
3464.11, 138.83
3464.89, 141.094
3465.66, 138.128
3466.43, 138.802
3467.21, 139.83
3467.98, 140.806
3468.76, 141.057
3469.53, 138.115
3470.3, 137.204
3471.08, 139.44
3471.85, 139.488
3472.63, 137.979
3473.4, 139.603
3474.17, 145.128
3474.95, 151.468
3475.72, 138.886
3476.5, 138.301
3477.27, 137.363
3478.04, 137.83
3478.82, 135.83
3479.59, 137.195
3480.37, 139.83
3481.14, 138.951
3481.91, 134.981
3482.69, 135.83
3483.46, 137.213
3484.24, 135.907
3485.01, 137.13
3485.78, 136.344
3486.56, 137.83
3487.33, 136.878
3488.11, 137.511
3488.88, 136.83
3489.65, 134.239
3490.43, 138.284
3491.2, 135.241
3491.98, 137.197
3492.75, 135.919
3493.52, 136.289
3494.3, 137.327
3495.07, 136.83
3495.85, 132.986
3496.62, 135.83
3497.39, 136.433
3498.17, 136.83
3498.94, 135.83
3499.72, 135.83
3500.49, 133.717
3501.26, 135.77
3502.04, 135.317
3502.81, 134.897
3503.59, 134.21
3504.36, 137.743
3505.13, 136.466
3505.91, 135.83
3506.68, 133.07
3507.46, 136.433
3508.23, 134.354
3509, 133.076
3509.78, 134.83
3510.55, 134.83
3511.32, 134.83
3512.1, 133.086
3512.87, 136.678
3513.65, 136.695
3514.42, 135.693
3515.19, 133.838
3515.97, 135.011
3516.74, 133.385
3517.52, 138.01
3518.29, 134.363
3519.06, 132.824
3519.84, 135.83
3520.61, 131.976
3521.39, 135.076
3522.16, 133.716
3522.93, 134.265
3523.71, 134.36
3524.48, 130.587
3525.26, 133.816
3526.03, 134.83
3526.8, 133.061
3527.58, 132.285
3528.35, 134.027
3529.13, 130.334
3529.9, 134.723
3530.67, 134.139
3531.45, 129.188
3532.22, 132.83
3533, 132.83
3533.77, 131.231
3534.54, 130.917
3535.32, 131.83
3536.09, 131.17
3536.87, 133.677
3537.64, 131.359
3538.41, 132.449
3539.19, 133.207
3539.96, 127.131
3540.74, 129.83
3541.51, 129.152
3542.28, 128.83
3543.06, 132.601
3543.83, 130.999
3544.61, 132.012
3545.38, 129.83
3546.15, 130.247
3546.93, 130.83
3547.7, 126.834
3548.48, 128.991
3549.25, 131.83
3550.02, 129.211
3550.8, 131.83
3551.57, 130.456
3552.35, 128.83
3553.12, 126.786
3553.89, 127.512
3554.67, 130.201
3555.44, 127.985
3556.22, 125.265
3556.99, 127.852
3557.76, 125.612
3558.54, 127.83
3559.31, 126.255
3560.09, 126.588
3560.86, 127.83
3561.63, 127.551
3562.41, 125.679
3563.18, 127.447
3563.96, 127.83
3564.73, 125.971
3565.5, 123.83
3566.28, 124.83
3567.05, 125.186
3567.83, 125.83
3568.6, 126.783
3569.37, 126.33
3570.15, 127.282
3570.92, 126.83
3571.7, 125.83
3572.47, 126.72
3573.24, 127.086
3574.02, 124.787
3574.79, 124.174
3575.57, 124.187
3576.34, 125.719
3577.11, 123.587
3577.89, 121.739
3578.66, 122.524
3579.44, 125.384
3580.21, 121.929
3580.98, 125.34
3581.76, 120.098
3582.53, 123.759
3583.31, 124.468
3584.08, 122.943
3584.85, 122.3
3585.63, 122.535
3586.4, 124.703
3587.18, 125.301
3587.95, 122.83
3588.72, 124.4
3589.5, 124.011
3590.27, 126.226
3591.05, 123.328
3591.82, 123.824
3592.59, 123.454
3593.37, 124.83
3594.14, 123.905
3594.92, 124.061
3595.69, 124.293
3596.46, 122.985
3597.24, 123.678
3598.01, 123.75
3598.79, 122.527
3599.56, 124.679
3600.33, 123.215
3601.11, 123.83
3601.88, 124.823
3602.66, 122.764
3603.43, 125.451
3604.2, 123.039
3604.98, 125.351
3605.75, 124.932
3606.53, 126.692
3607.3, 123.174
3608.07, 124.83
3608.85, 125.625
3609.62, 126.83
3610.4, 126.412
3611.17, 128.018
3611.94, 124.999
3612.72, 128.83
3613.49, 128.163
3614.27, 126.849
3615.04, 127.652
3615.81, 124.83
3616.59, 123.909
3617.36, 123.595
3618.14, 121.729
3618.91, 123.427
3619.68, 122.65
3620.46, 122.326
3621.23, 122.83
3622.01, 124.577
3622.78, 121.503
3623.55, 121.347
3624.33, 121.678
3625.1, 120.223
3625.88, 121.54
3626.65, 120.748
3627.42, 117.83
3628.2, 119.155
3628.97, 118.85
3629.74, 121.83
3630.52, 122.449
3631.29, 118.147
3632.07, 121.063
3632.84, 120.557
3633.61, 120.038
3634.39, 120.83
3635.16, 121.903
3635.94, 121.974
3636.71, 119.008
3637.48, 120.329
3638.26, 120.83
3639.03, 120.254
3639.81, 121.903
3640.58, 119.259
3641.35, 118.156
3642.13, 120.4
3642.9, 119.83
3643.68, 121.83
3644.45, 120.228
3645.22, 120.001
3646, 121.686
3646.77, 119.575
3647.55, 118.741
3648.32, 119.763
3649.09, 117.178
3649.87, 119.848
3650.64, 115.843
3651.42, 118.83
3652.19, 118.179
3652.96, 121.74
3653.74, 118.223
3654.51, 118.091
3655.29, 117.872
3656.06, 119.686
3656.83, 118.671
3657.61, 117.946
3658.38, 117.1
3659.16, 118.429
3659.93, 116.975
3660.7, 121.316
3661.48, 118.069
3662.25, 119.58
3663.03, 118.31
3663.8, 121.101
3664.57, 121.644
3665.35, 118.353
3666.12, 118.538
3666.9, 121.631
3667.67, 118.528
3668.44, 120.83
3669.22, 120.83
3669.99, 119.372
3670.77, 117.83
3671.54, 118.725
3672.31, 118.602
3673.09, 118.392
3673.86, 117.04
3674.64, 120.141
3675.41, 117.266
3676.18, 115.931
3676.96, 118.127
3677.73, 118.678
3678.51, 118.116
3679.28, 117.551
3680.05, 117.525
3680.83, 117.657
3681.6, 119.581
3682.38, 118.83
3683.15, 116.059
3683.92, 117.091
3684.7, 117.232
3685.47, 117.767
3686.25, 119.281
3687.02, 117.217
3687.79, 116.83
3688.57, 116.539
3689.34, 116.462
3690.12, 115.859
3690.89, 118.898
3691.66, 119.43
3692.44, 118.849
3693.21, 118.495
3693.99, 120.504
3694.76, 118.771
3695.53, 114.474
3696.31, 115.926
3697.08, 115.951
3697.86, 118.83
3698.63, 119.556
3699.4, 116.83
3700.18, 116.418
3700.95, 115.83
3701.73, 116.93
3702.5, 117.387
3703.27, 116.83
3704.05, 116.83
3704.82, 116.353
3705.6, 116.653
3706.37, 114.503
3707.14, 117.317
3707.92, 117.691
3708.69, 115.624
3709.47, 115.937
3710.24, 115.029
3711.01, 116.326
3711.79, 117.235
3712.56, 115.887
3713.34, 114.83
3714.11, 118.666
3714.88, 112.926
3715.66, 117.158
3716.43, 115.144
3717.21, 115.83
3717.98, 116.216
3718.75, 116.83
3719.53, 118.745
3720.3, 117.83
3721.08, 116.256
3721.85, 115.969
3722.62, 117.32
3723.4, 115.305
3724.17, 115.024
3724.95, 115.83
3725.72, 115.83
3726.49, 114.585
3727.27, 115.62
3728.04, 115.788
3728.82, 114.894
3729.59, 115.495
3730.36, 116.809
3731.14, 115.83
3731.91, 115.101
3732.69, 114.171
3733.46, 117.83
3734.23, 115.439
3735.01, 117.83
3735.78, 116.814
3736.56, 117.561
3737.33, 113.607
3738.1, 113.991
3738.88, 115.768
3739.65, 116.241
3740.43, 114.177
3741.2, 116.819
3741.97, 115.83
3742.75, 115.101
3743.52, 116.742
3744.29, 114.935
3745.07, 116.253
3745.84, 115.334
3746.62, 117.302
3747.39, 115.054
3748.17, 118.58
3748.94, 119.054
3749.71, 120.803
3750.49, 116.165
3751.26, 115.436
3752.03, 116.712
3752.81, 114.83
3753.58, 114.046
3754.36, 115.533
3755.13, 114.854
3755.9, 114.078
3756.68, 115.351
3757.45, 116.247
3758.23, 113.956
3759, 114.168
3759.77, 115.432
3760.55, 112.158
3761.32, 115.537
3762.1, 113.83
3762.87, 114.504
3763.64, 112.83
3764.42, 113.728
3765.19, 115.096
3765.97, 114.566
3766.74, 113.83
3767.51, 114.936
3768.29, 115.355
3769.06, 113.937
3769.84, 114.355
3770.61, 112.14
3771.38, 116.4
3772.16, 113.661
3772.93, 114.741
3773.71, 114.505
3774.48, 115.919
3775.25, 115.762
3776.03, 113.95
3776.8, 113.641
3777.58, 113.013
3778.35, 113.275
3779.12, 111.902
3779.9, 113.927
3780.67, 111.83
3781.45, 113.83
3782.22, 113.83
3782.99, 113.035
3783.77, 113.173
3784.54, 114.83
3785.32, 114.83
3786.09, 115.534
3786.86, 114.159
3787.64, 113.784
3788.41, 112.406
3789.19, 115.838
3789.96, 113.83
3790.73, 112.722
3791.51, 111.83
3792.28, 112.83
3793.06, 113.518
3793.83, 111.83
3794.6, 113.165
3795.38, 114.006
3796.15, 114.627
3796.93, 113.83
3797.7, 114.793
3798.47, 112.202
3799.25, 112.661
3800.02, 113.83
3800.8, 113.345
3801.57, 112.83
3802.34, 112.582
3803.12, 111.2
3803.89, 111.857
3804.67, 113.435
3805.44, 115.163
3806.21, 113.67
3806.99, 112.286
3807.76, 116.476
3808.54, 112.517
3809.31, 113.224
3810.08, 111.993
3810.86, 113.83
3811.63, 112.978
3812.41, 114.118
3813.18, 112.454
3813.95, 112.82
3814.73, 112.623
3815.5, 113.83
3816.28, 112.341
3817.05, 113.157
3817.82, 114.669
3818.6, 111.83
3819.37, 112.553
3820.15, 113.608
3820.92, 112.33
3821.69, 113.719
3822.47, 113.387
3823.24, 114.162
3824.02, 112.83
3824.79, 112.83
3825.56, 113.67
3826.34, 112.599
3827.11, 112.453
3827.89, 111.858
3828.66, 113.83
3829.43, 113.032
3830.21, 112.021
3830.98, 112.246
3831.76, 110.852
3832.53, 111.088
3833.3, 111.361
3834.08, 113.83
3834.85, 112.723
3835.63, 112.779
3836.4, 111.142
3837.17, 111.308
3837.95, 112.695
3838.72, 111.83
3839.5, 112.758
3840.27, 109.83
3841.04, 111.273
3841.82, 112.83
3842.59, 112.315
3843.37, 113.659
3844.14, 111.83
3844.91, 113.961
3845.69, 111.83
3846.46, 111.83
3847.24, 113.646
3848.01, 112.83
3848.78, 111.414
3849.56, 110.047
3850.33, 111.321
3851.11, 111.74
3851.88, 112.142
3852.65, 111.403
3853.43, 111.83
3854.2, 112.865
3854.98, 111.991
3855.75, 111.83
3856.52, 111.83
3857.3, 110.22
3858.07, 113.364
3858.84, 111.018
3859.62, 111.83
3860.39, 111.83
3861.17, 111.527
3861.94, 110.947
3862.72, 111.83
3863.49, 111.83
3864.26, 113.382
3865.04, 112.014
3865.81, 112.24
3866.58, 111.83
3867.36, 113.046
3868.13, 112.393
3868.91, 113.388
3869.68, 111.83
3870.45, 112.83
3871.23, 112.83
3872, 110.255
3872.78, 111.562
3873.55, 110.83
3874.32, 110.007
3875.1, 110.332
3875.87, 111.562
3876.65, 111.83
3877.42, 111.83
3878.19, 110.83
3878.97, 110.83
3879.74, 108.889
3880.52, 110.214
3881.29, 111.628
3882.06, 109.463
3882.84, 111.83
3883.61, 111.83
3884.39, 110.921
3885.16, 111.57
3885.93, 109.976
3886.71, 110.63
3887.48, 111.83
3888.26, 111.83
3889.03, 110.882
3889.8, 111.733
3890.58, 109.047
3891.35, 111.031
3892.13, 110.594
3892.9, 109.83
3893.67, 109.83
3894.45, 111.579
3895.22, 112.244
3896, 111.543
3896.77, 110.83
3897.54, 110.83
3898.32, 111.804
3899.09, 109.012
3899.87, 110.014
3900.64, 110.83
3901.41, 108.856
3902.19, 108.749
3902.96, 110.348
3903.74, 110.978
3904.51, 109.18
3905.28, 109.058
3906.06, 109.027
3906.83, 108.59
3907.61, 108.83
3908.38, 109.769
3909.15, 109.041
3909.93, 109.83
3910.7, 110.576
3911.48, 109.002
3912.25, 108.034
3913.02, 109.855
3913.8, 111.282
3914.57, 110.951
3915.35, 108.754
3916.12, 111.566
3916.89, 111.504
3917.67, 111.015
3918.44, 107.913
3919.22, 110.479
3919.99, 110.591
3920.76, 107.451
3921.54, 110.31
3922.31, 108.002
3923.09, 109.433
3923.86, 108.764
3924.63, 107.76
3925.41, 109.728
3926.18, 109.83
3926.96, 108.306
3927.73, 109.83
3928.5, 110.459
3929.28, 109.892
3930.05, 109.343
3930.83, 107.83
3931.6, 111.196
3932.37, 108.633
3933.15, 108.065
3933.92, 110.171
3934.7, 110.512
3935.47, 107.83
3936.24, 110.769
3937.02, 107.08
3937.79, 107.122
3938.57, 107.704
3939.34, 109.101
3940.11, 106.333
3940.89, 108.224
3941.66, 109.785
3942.44, 108.83
3943.21, 108.83
3943.98, 108.559
3944.76, 108.22
3945.53, 108.585
3946.31, 109.204
3947.08, 107.575
3947.85, 106.969
3948.63, 107.862
3949.4, 110.376
3950.18, 107.142
3950.95, 108.51
3951.72, 108.264
3952.5, 105.283
3953.27, 106.83
3954.05, 108.716
3954.82, 108.39
3955.59, 105.844
3956.37, 108.38
3957.14, 104.246
3957.92, 107.515
3958.69, 108.83
3959.46, 107.595
3960.24, 108.879
3961.01, 106.961
3961.79, 106.676
3962.56, 108.778
3963.33, 107.779
3964.11, 107.908
3964.88, 107.575
3965.66, 108.009
3966.43, 107.83
3967.2, 108.552
3967.98, 106.175
3968.75, 106.584
3969.53, 106.275
3970.3, 108.677
3971.07, 106.808
3971.85, 106.69
3972.62, 107.83
3973.4, 107.496
3974.17, 107.619
3974.94, 107.346
3975.72, 106.527
3976.49, 109.227
3977.27, 105.225
3978.04, 106.952
3978.81, 108.315
3979.59, 106.86
3980.36, 105.83
3981.14, 105.83
3981.91, 107.83
3982.68, 107.034
3983.46, 106.321
3984.23, 106.257
3985, 108.489
3985.78, 107.459
3986.55, 105.83
3987.33, 106.378
3988.1, 107.844
3988.87, 108.433
3989.65, 110.539
3990.42, 108.218
3991.2, 106.288
3991.97, 107.139
3992.74, 106.289
3993.52, 107.132
3994.29, 106.914
3995.07, 103.989
3995.84, 106.073
3996.61, 106.915
3997.39, 106.734
3998.16, 108.83
3998.94, 107.399
3999.71, 106.771
4000.48, 108.018
4001.26, 107.701
4002.03, 107.155
4002.81, 105.026
4003.58, 106.643
4004.35, 107.355
4005.13, 107.42
4005.9, 104.486
4006.68, 104.11
4007.45, 104.614
4008.22, 104.984
4009, 107.376
4009.77, 105.816
4010.55, 105.8
4011.32, 105.875
4012.09, 104.107
4012.87, 106.726
4013.64, 104.728
4014.42, 107.021
4015.19, 107.521
4015.96, 106.83
4016.74, 106.085
4017.51, 103.915
4018.29, 104.635
4019.06, 105.805
4019.83, 104.979
4020.61, 105.83
4021.38, 107.733
4022.16, 106.258
4022.93, 106.734
4023.7, 105.355
4024.48, 104.83
##END=



