##NAMES=Weloganite
##RRUFFID=R050217
##IDEAL CHEMISTRY=Na_2_Sr_3_Zr^4+^(C^4+^O_3_)_6_&#183;3H_2_O
##LOCALITY=Francon Quarry, Montréal, Québec, Canada
##OWNER=RRUFF
##SOURCE=Marcus Origlieri
##DESCRIPTION=Tan colored tapered hexagonal single crystals
##STATUS=The identification of this mineral has been confirmed by X-ray diffraction and chemical analysis
##URL=rruff.info/R050217
##MEASURED CHEMISTRY=Na_2.00_(Sr_2.93_Ca_0.07_)_Σ=3_(Zr_0.90_Hf_0.10_)_Σ=1_(CO_3_)_6_·3H_2_O
##PIN_ID=M01339
##ORIENTATION=Laser parallel to (0 1 1). Fiducial mark perpendicular to laser is parallel to -a [-1 0 0]
64.63500, 4415.000
65.87000, 4774.000
67.10500, 4906.000
68.34000, 5315.000
69.57400, 5851.000
70.80900, 6451.000
72.04300, 7038.000
73.27700, 8032.000
74.51100, 9504.000
75.74500, 11011.00
76.97800, 12866.00
78.21200, 15077.00
79.44500, 18248.00
80.67800, 21993.00
81.91200, 26299.00
83.14400, 29475.00
84.37700, 31047.00
85.61000, 32919.00
86.84200, 35942.00
88.07500, 39729.00
89.30700, 43282.00
90.53900, 46903.00
91.77100, 50724.00
93.00200, 54818.00
94.23400, 58407.00
95.46500, 61595.00
96.69700, 64379.00
97.92800, 67040.00
99.15900, 69836.00
100.3900, 72188.00
101.6200, 74360.51
102.8510, 76359.00
104.0810, 78291.00
105.3120, 80356.00
106.5420, 82290.00
107.7720, 84337.00
109.0020, 86321.00
110.2310, 87904.00
111.4610, 88425.00
112.6900, 88612.00
113.9190, 89635.00
115.1480, 90178.00
116.3770, 90574.69
117.6060, 92252.25
118.8350, 93485.35
120.0630, 94297.34
121.2920, 93429.65
122.5200, 94731.07
123.7480, 95163.00
124.9760, 95559.27
126.2040, 97166.08
127.4310, 96541.69
128.6590, 98129.29
129.8860, 98833.59
131.1130, 99941.91
132.3400, 100175.4
133.5670, 100679.0
134.7940, 101745.0
136.0200, 102381.0
137.2470, 102973.0
138.4730, 104222.0
139.6990, 106286.0
140.9250, 107684.0
142.1510, 109679.0
143.3770, 111644.0
144.6020, 113510.4
145.8280, 115847.0
147.0530, 117725.0
148.2780, 119893.0
149.5030, 122308.0
150.7280, 123923.0
151.9520, 125711.0
153.1770, 126886.0
154.4010, 127552.0
155.6250, 128005.0
156.8490, 127432.0
158.0730, 127017.0
159.2970, 124945.0
160.5210, 122779.0
161.7440, 120108.0
162.9680, 117766.0
164.1910, 114565.0
165.4140, 112647.0
166.6370, 109818.0
167.8590, 108261.0
169.0820, 106904.0
170.3040, 105402.0
171.5270, 105258.0
172.7490, 104297.0
173.9710, 103717.0
175.1930, 102741.0
176.4140, 102114.0
177.6360, 101574.4
178.8570, 101203.0
180.0780, 100597.0
181.2990, 100317.0
182.5200, 99382.00
183.7410, 99710.00
184.9620, 99412.00
186.1820, 99090.00
187.4030, 99474.00
188.6230, 99493.00
189.8430, 99595.00
191.0630, 99656.00
192.2830, 100558.0
193.5020, 100763.0
194.7220, 100937.0
195.9410, 101802.0
197.1600, 102229.0
198.3790, 102436.0
199.5980, 103063.0
200.8170, 103031.0
202.0350, 103876.0
203.2540, 104130.0
204.4720, 104188.0
205.6900, 104628.0
206.9080, 104861.0
208.1260, 105404.0
209.3430, 105486.0
210.5610, 105768.3
211.7780, 105486.0
212.9960, 106044.0
214.2130, 106022.0
215.4290, 105953.0
216.6460, 106817.0
217.8630, 107382.0
219.0790, 107730.0
220.2960, 108639.0
221.5120, 109095.0
222.7280, 109660.0
223.9440, 110755.0
225.1590, 110897.0
226.3750, 111084.0
227.5900, 112914.0
228.8060, 112823.0
230.0210, 113130.0
231.2360, 113810.0
232.4510, 113275.0
233.6650, 113693.0
234.8800, 113807.0
236.0940, 113366.0
237.3080, 112900.0
238.5220, 113005.0
239.7360, 112668.0
240.9500, 112703.0
242.1640, 112176.0
243.3770, 111528.6
244.5910, 111223.0
245.8040, 110027.0
247.0170, 109592.0
248.2300, 109160.0
249.4420, 108767.0
250.6550, 108618.0
251.8670, 108145.0
253.0800, 108211.0
254.2920, 107604.0
255.5040, 107699.0
256.7160, 107132.0
257.9270, 107388.0
259.1390, 107949.0
260.3500, 108247.0
261.5610, 108179.2
262.7720, 108728.0
263.9830, 108740.0
265.1940, 108668.0
266.4050, 108891.0
267.6150, 108922.0
268.8260, 108763.0
270.0360, 108831.0
271.2460, 108656.0
272.4560, 108872.0
273.6650, 108834.0
274.8750, 108680.0
276.0840, 109147.0
277.2940, 109114.5
278.5030, 109249.5
279.7120, 109529.0
280.9200, 109578.0
282.1290, 109917.0
283.3380, 110310.0
284.5460, 109604.0
285.7540, 109545.0
286.9620, 108805.0
288.1700, 108615.0
289.3780, 108237.0
290.5860, 108551.0
291.7930, 107380.0
293.0000, 107825.0
294.2080, 107356.0
295.4150, 107073.0
296.6210, 107420.0
297.8280, 107282.0
299.0350, 107303.0
300.2410, 107912.0
301.4470, 107975.0
302.6530, 108108.0
303.8590, 108565.0
305.0650, 109022.0
306.2710, 109730.0
307.4760, 110110.0
308.6820, 110787.0
309.8870, 111210.0
311.0920, 112296.0
312.2970, 112752.0
313.5020, 113358.0
314.7060, 114125.0
315.9110, 114637.0
317.1150, 115661.0
318.3190, 115659.0
319.5230, 116893.0
320.7270, 116727.0
321.9300, 117140.0
323.1340, 117443.0
324.3370, 117349.0
325.5410, 117680.0
326.7440, 117979.0
327.9470, 117140.0
329.1490, 117027.0
330.3520, 117052.0
331.5550, 116959.0
332.7570, 116717.3
333.9590, 116228.0
335.1610, 116192.0
336.3630, 116089.0
337.5650, 115885.0
338.7660, 116369.0
339.9680, 116358.0
341.1690, 116702.0
342.3700, 117140.0
343.5710, 117892.0
344.7720, 118501.0
345.9720, 119505.0
347.1730, 120118.0
348.3730, 121375.0
349.5730, 123144.0
350.7730, 123909.0
351.9730, 125274.0
353.1730, 126162.0
354.3730, 126976.0
355.5720, 127636.0
356.7710, 128689.0
357.9710, 128811.0
359.1700, 129114.2
360.3680, 129306.0
361.5670, 129013.0
362.7660, 128556.0
363.9640, 128273.0
365.1620, 127930.0
366.3600, 127330.0
367.5580, 126869.0
368.7560, 126130.0
369.9540, 125755.0
371.1510, 125284.0
372.3480, 124389.0
373.5450, 123779.0
374.7420, 123462.0
375.9390, 122315.0
377.1360, 121543.0
378.3330, 121027.0
379.5290, 120767.0
380.7250, 119627.0
381.9210, 119856.0
383.1170, 119063.0
384.3130, 119100.0
385.5090, 118304.0
386.7040, 118242.0
387.8990, 118297.0
389.0950, 118088.0
390.2900, 117829.0
391.4850, 117905.0
392.6790, 118115.0
393.8740, 117646.0
395.0680, 117797.0
396.2620, 118220.0
397.4570, 117597.0
398.6510, 118206.0
399.8440, 118400.0
401.0380, 118141.0
402.2310, 118200.0
403.4250, 118450.0
404.6180, 118153.0
405.8110, 118906.0
407.0040, 118440.0
408.1970, 119189.0
409.3890, 119139.0
410.5820, 119292.0
411.7740, 118929.0
412.9660, 119316.0
414.1580, 119898.0
415.3500, 119260.0
416.5420, 120345.0
417.7330, 120436.0
418.9240, 120366.0
420.1160, 120192.0
421.3070, 120969.0
422.4980, 121172.0
423.6880, 121210.0
424.8790, 121945.0
426.0690, 121390.0
427.2600, 121356.0
428.4500, 121934.0
429.6400, 121934.0
430.8300, 121464.0
432.0190, 122440.0
433.2090, 122917.0
434.3980, 122876.0
435.5870, 123714.0
436.7760, 123469.0
437.9650, 123628.0
439.1540, 123516.0
440.3430, 123988.0
441.5310, 124204.0
442.7190, 124414.0
443.9080, 124733.3
445.0960, 124825.0
446.2830, 125220.0
447.4710, 125286.0
448.6590, 125508.0
449.8460, 125478.0
451.0330, 125777.7
452.2200, 125931.0
453.4070, 126289.0
454.5940, 126704.0
455.7800, 126918.0
456.9670, 126914.0
458.1530, 127741.0
459.3390, 127859.0
460.5250, 128540.0
461.7110, 128429.0
462.8970, 127911.0
464.0820, 128354.0
465.2680, 128534.0
466.4530, 128955.0
467.6380, 129288.7
468.8230, 129634.0
470.0080, 130036.0
471.1920, 130087.0
472.3770, 130516.0
473.5610, 130793.6
474.7450, 130738.0
475.9290, 131260.0
477.1130, 131333.0
478.2970, 131133.0
479.4800, 131511.0
480.6640, 131502.0
481.8470, 132307.0
483.0300, 132647.0
484.2130, 132583.0
485.3960, 132632.0
486.5780, 133372.0
487.7610, 133286.0
488.9430, 133313.0
490.1250, 133718.0
491.3070, 133685.0
492.4890, 134408.0
493.6710, 134232.0
494.8520, 134373.0
496.0340, 135060.0
497.2150, 135293.0
498.3960, 135198.0
499.5770, 135330.0
500.7570, 135656.0
501.9380, 136093.0
503.1180, 136727.0
504.2990, 136667.0
505.4790, 136707.0
506.6590, 137437.0
507.8390, 137694.0
509.0180, 137744.0
510.1980, 137958.0
511.3770, 137886.0
512.5560, 138133.0
513.7360, 138893.0
514.9140, 138529.0
516.0930, 139286.0
517.2720, 139773.0
518.4500, 139632.0
519.6290, 140542.0
520.8070, 140220.0
521.9850, 141039.0
523.1620, 141398.0
524.3400, 141348.0
525.5180, 141518.0
526.6950, 141846.0
527.8720, 142244.0
529.0490, 142535.0
530.2260, 142725.0
531.4030, 143366.0
532.5790, 143256.0
533.7560, 143709.0
534.9320, 143972.0
536.1080, 143718.0
537.2840, 145164.0
538.4600, 144790.0
539.6360, 146001.0
540.8110, 145704.0
541.9860, 145852.0
543.1620, 145847.0
544.3370, 145634.0
545.5120, 146398.0
546.6860, 146725.0
547.8610, 147295.0
549.0350, 147484.2
550.2090, 147848.0
551.3840, 147707.0
552.5580, 148108.0
553.7310, 148223.0
554.9050, 148470.0
556.0780, 148870.2
557.2520, 149344.0
558.4250, 149576.0
559.5980, 149785.0
560.7710, 149964.5
561.9430, 149994.0
563.1160, 150201.0
564.2880, 150279.5
565.4610, 150968.0
566.6330, 150788.0
567.8050, 151498.0
568.9760, 152462.0
570.1480, 151696.0
571.3200, 152301.0
572.4910, 152236.0
573.6620, 152875.0
574.8330, 152832.0
576.0040, 153712.0
577.1740, 153613.0
578.3450, 153577.0
579.5150, 154069.0
580.6860, 154035.0
581.8560, 154806.0
583.0260, 154348.0
584.1950, 155212.0
585.3650, 155196.0
586.5340, 155893.0
587.7040, 155581.0
588.8730, 155929.0
590.0420, 156081.0
591.2110, 156387.0
592.3790, 157124.0
593.5480, 157315.0
594.7160, 158107.0
595.8840, 157908.0
597.0520, 158846.0
598.2200, 158552.0
599.3880, 158594.0
600.5550, 159486.0
601.7230, 159975.0
602.8900, 160127.0
604.0570, 160214.0
605.2240, 160368.0
606.3910, 160592.0
607.5580, 161101.0
608.7240, 161769.0
609.8900, 161897.0
611.0570, 162297.0
612.2230, 162557.0
613.3880, 163248.0
614.5540, 162987.0
615.7200, 162958.0
616.8850, 163362.0
618.0500, 164705.0
619.2150, 164632.0
620.3800, 164910.0
621.5450, 165320.0
622.7100, 165449.0
623.8740, 165844.0
625.0380, 166049.0
626.2020, 166354.0
627.3660, 166600.0
628.5300, 166749.0
629.6940, 166816.0
630.8570, 167752.0
632.0210, 168115.0
633.1840, 168207.0
634.3470, 168911.0
635.5100, 168442.0
636.6730, 169362.0
637.8350, 169372.0
638.9980, 170294.0
640.1600, 170306.0
641.3220, 171179.0
642.4840, 171513.0
643.6460, 171506.0
644.8070, 171717.0
645.9690, 172151.0
647.1300, 173050.0
648.2910, 172715.0
649.4520, 173651.0
650.6130, 173607.0
651.7740, 174394.0
652.9340, 174480.0
654.0950, 174851.0
655.2550, 175263.0
656.4150, 175578.0
657.5750, 175743.0
658.7350, 176229.0
659.8940, 176479.0
661.0540, 177137.0
662.2130, 177799.0
663.3720, 177887.0
664.5310, 178417.0
665.6900, 178856.0
666.8490, 178812.0
668.0070, 179900.0
669.1650, 180070.0
670.3240, 180503.0
671.4820, 181387.0
672.6400, 181561.0
673.7970, 182520.0
674.9550, 182978.0
676.1120, 184561.0
677.2690, 185046.0
678.4270, 186085.0
679.5830, 187025.0
680.7400, 188158.0
681.8970, 188658.0
683.0530, 187932.0
684.2100, 188106.0
685.3660, 187678.0
686.5220, 186874.0
687.6780, 186992.0
688.8330, 187591.0
689.9890, 187467.0
691.1440, 187689.0
692.2990, 187774.0
693.4540, 188137.0
694.6090, 188748.0
695.7640, 188243.0
696.9180, 188761.0
698.0730, 188851.0
699.2270, 189686.0
700.3810, 190116.0
701.5350, 190164.0
702.6890, 190875.0
703.8430, 190649.0
704.9960, 191328.0
706.1490, 191165.0
707.3030, 191811.0
708.4560, 191940.0
709.6080, 192327.0
710.7610, 192988.0
711.9140, 192965.0
713.0660, 193795.0
714.2180, 193818.0
715.3700, 194815.0
716.5220, 195228.0
717.6740, 195180.0
718.8250, 196383.0
719.9770, 196723.0
721.1280, 197733.0
722.2790, 197614.0
723.4300, 198468.0
724.5810, 199558.0
725.7320, 200711.0
726.8820, 201562.0
728.0320, 203045.0
729.1830, 204245.0
730.3330, 204636.0
731.4820, 205105.0
732.6320, 205564.3
733.7820, 205880.0
734.9310, 206028.0
736.0800, 206391.0
737.2290, 206654.0
738.3780, 207173.0
739.5270, 206867.0
740.6750, 206775.0
741.8240, 206303.0
742.9720, 206513.0
744.1200, 207565.0
745.2680, 207915.0
746.4160, 209450.0
747.5640, 211152.0
748.7110, 213373.0
749.8580, 213268.0
751.0060, 213129.0
752.1530, 213148.0
753.2990, 213490.0
754.4460, 213587.0
755.5930, 213867.0
756.7390, 214104.0
757.8850, 215154.0
759.0310, 216340.0
760.1770, 217862.0
761.3230, 219601.0
762.4690, 222009.0
763.6140, 221972.0
764.7590, 220558.0
765.9040, 219078.0
767.0490, 217344.0
768.1940, 216645.0
769.3390, 214757.0
770.4830, 215066.0
771.6270, 213980.0
772.7720, 214643.0
773.9160, 214137.0
775.0590, 214089.0
776.2030, 214838.0
777.3470, 214615.0
778.4900, 215041.0
779.6330, 215801.0
780.7760, 216089.0
781.9190, 216392.0
783.0620, 216811.0
784.2040, 217079.8
785.3470, 217837.0
786.4890, 217710.0
787.6310, 218221.0
788.7730, 218564.0
789.9150, 219496.0
791.0570, 219833.0
792.1980, 220471.0
793.3390, 220182.0
794.4810, 221390.0
795.6210, 221161.0
796.7620, 222175.0
797.9030, 222204.0
799.0430, 223045.0
800.1840, 223350.0
801.3240, 223954.0
802.4640, 224401.0
803.6040, 224289.0
804.7440, 224990.0
805.8830, 225101.0
807.0230, 226333.0
808.1620, 226348.0
809.3010, 226446.0
810.4400, 227422.0
811.5790, 227124.0
812.7170, 228177.0
813.8560, 228801.0
814.9940, 228427.0
816.1320, 228983.0
817.2700, 229959.0
818.4080, 229962.0
819.5460, 230277.0
820.6830, 231512.0
821.8200, 230798.0
822.9580, 231982.0
824.0950, 232506.0
825.2310, 232462.0
826.3680, 232884.0
827.5050, 233473.0
828.6410, 234472.0
829.7770, 235038.0
830.9130, 235033.0
832.0490, 235993.0
833.1850, 235819.0
834.3210, 235816.0
835.4560, 236523.0
836.5910, 236690.7
837.7260, 237583.0
838.8610, 237618.0
839.9960, 238690.0
841.1310, 239006.0
842.2650, 239666.0
843.4000, 240012.0
844.5340, 240736.0
845.6680, 240939.0
846.8010, 241129.0
847.9350, 242151.0
849.0690, 242737.0
850.2020, 243291.0
851.3350, 243344.0
852.4680, 244199.0
853.6010, 244730.0
854.7340, 245481.0
855.8660, 245274.0
856.9990, 246414.0
858.1310, 246113.0
859.2630, 246144.0
860.3950, 247498.0
861.5270, 247945.0
862.6580, 247605.0
863.7900, 248474.0
864.9210, 249026.0
866.0520, 249507.0
867.1830, 250361.0
868.3140, 251232.0
869.4450, 251339.0
870.5750, 252679.0
871.7060, 251756.0
872.8360, 252907.0
873.9660, 252828.0
875.0960, 253187.0
876.2250, 253474.0
877.3550, 253949.0
878.4840, 254515.0
879.6130, 254302.0
880.7420, 255518.0
881.8710, 255379.0
883.0000, 255700.0
884.1290, 256520.0
885.2570, 256500.0
886.3850, 257201.0
887.5130, 257613.0
888.6410, 259030.0
889.7690, 258838.0
890.8970, 259554.0
892.0240, 260460.0
893.1510, 260577.0
894.2790, 261267.0
895.4050, 262002.0
896.5320, 262807.0
897.6590, 263214.0
898.7850, 262848.0
899.9120, 264635.0
901.0380, 264536.0
902.1640, 265738.0
903.2900, 264920.0
904.4150, 265531.0
905.5410, 265959.0
906.6660, 266108.0
907.7920, 266987.0
908.9170, 267612.0
910.0420, 268571.0
911.1660, 268580.0
912.2910, 269165.0
913.4150, 269905.8
914.5400, 269763.0
915.6640, 271176.0
916.7880, 271808.0
917.9110, 272028.0
919.0350, 272567.3
920.1580, 272353.0
921.2820, 272716.0
922.4050, 273378.0
923.5280, 273325.0
924.6510, 273839.0
925.7730, 275057.0
926.8960, 274814.0
928.0180, 274480.0
929.1400, 275872.0
930.2620, 276683.0
931.3840, 277214.0
932.5060, 276787.0
933.6270, 277822.0
934.7490, 278377.0
935.8700, 277448.0
936.9910, 278526.0
938.1120, 278427.0
939.2330, 279684.0
940.3530, 279636.0
941.4740, 280057.0
942.5940, 281286.0
943.7140, 281992.0
944.8340, 281866.0
945.9540, 282896.0
947.0730, 282484.0
948.1930, 283940.0
949.3120, 284410.0
950.4310, 284495.0
951.5500, 284755.0
952.6690, 285115.0
953.7870, 285877.0
954.9060, 286109.9
956.0240, 286969.0
957.1420, 286987.2
958.2600, 287329.4
959.3780, 287933.0
960.4960, 288110.0
961.6130, 288736.0
962.7310, 289552.0
963.8480, 289280.0
964.9650, 290358.0
966.0820, 290056.0
967.1990, 290996.0
968.3150, 291083.0
969.4310, 291505.0
970.5480, 291720.0
971.6640, 291372.0
972.7800, 293520.0
973.8950, 292498.0
975.0110, 293279.0
976.1260, 294069.0
977.2420, 293461.0
978.3570, 294482.0
979.4720, 293961.0
980.5870, 295244.0
981.7010, 294951.0
982.8160, 295931.0
983.9300, 296262.7
985.0440, 296907.0
986.1580, 297062.0
987.2720, 296936.0
988.3860, 297479.0
989.4990, 297759.0
990.6120, 298256.1
991.7260, 298127.0
992.8390, 299258.0
993.9510, 299145.0
995.0640, 299087.0
996.1770, 300482.0
997.2890, 300003.0
998.4010, 301816.0
999.5130, 301504.0
1000.625, 301422.0
1001.737, 303279.0
1002.848, 303340.0
1003.960, 304004.0
1005.071, 303387.0
1006.182, 304001.0
1007.293, 304592.0
1008.404, 304887.0
1009.514, 306025.0
1010.625, 305733.0
1011.735, 306076.0
1012.845, 307103.0
1013.955, 306863.0
1015.065, 308298.0
1016.175, 307818.0
1017.284, 308633.0
1018.393, 309385.0
1019.503, 310448.0
1020.612, 310290.0
1021.720, 311659.0
1022.829, 311194.0
1023.937, 311730.0
1025.046, 311973.0
1026.154, 312296.8
1027.262, 313425.0
1028.370, 313706.0
1029.478, 314107.0
1030.585, 315582.0
1031.692, 315804.0
1032.800, 317282.0
1033.907, 317360.0
1035.014, 318095.0
1036.120, 318729.0
1037.227, 319742.0
1038.333, 319197.0
1039.440, 320919.0
1040.546, 320896.0
1041.652, 322127.0
1042.757, 323130.0
1043.863, 323292.0
1044.968, 322496.0
1046.074, 324176.0
1047.179, 324741.0
1048.284, 325503.0
1049.388, 326794.0
1050.493, 326555.0
1051.598, 328290.0
1052.702, 328529.0
1053.806, 329311.0
1054.910, 330613.0
1056.014, 332014.0
1057.117, 334333.0
1058.221, 334603.0
1059.324, 337412.0
1060.427, 336840.0
1061.530, 339320.0
1062.633, 341374.0
1063.736, 343083.0
1064.838, 345639.0
1065.941, 346817.0
1067.043, 349331.0
1068.145, 352156.0
1069.247, 355145.0
1070.349, 359694.0
1071.450, 364358.0
1072.552, 369631.0
1073.653, 374960.0
1074.754, 381472.0
1075.855, 387560.0
1076.955, 392305.0
1078.056, 396210.0
1079.156, 402505.0
1080.257, 412313.0
1081.357, 419492.0
1082.457, 424227.0
1083.557, 419978.0
1084.656, 408147.0
1085.756, 396979.0
1086.855, 383967.0
1087.954, 375573.0
1089.053, 366598.0
1090.152, 361810.0
1091.250, 358619.0
1092.349, 354601.0
1093.447, 353814.0
1094.545, 351792.0
1095.643, 350582.0
1096.741, 349661.0
1097.839, 349707.0
1098.936, 349930.0
1100.034, 347912.0
1101.131, 349293.0
1102.228, 348416.0
1103.325, 348579.0
1104.421, 349597.0
1105.518, 348411.0
1106.614, 349498.0
1107.710, 348928.0
1108.806, 349181.0
1109.902, 349722.0
1110.998, 349429.0
1112.094, 350416.0
1113.189, 349774.0
1114.284, 351327.0
1115.379, 350614.0
1116.474, 350511.0
1117.569, 351513.0
1118.664, 351202.0
1119.758, 352458.0
1120.852, 352269.0
1121.946, 352557.0
1123.040, 353244.0
1124.134, 353175.0
1125.228, 353823.0
1126.321, 353827.0
1127.414, 354604.0
1128.507, 354637.0
1129.600, 354508.0
1130.693, 355520.0
1131.786, 354908.0
1132.878, 356790.0
1133.971, 356657.0
1135.063, 357092.0
1136.155, 356853.0
1137.247, 357244.0
1138.338, 358331.0
1139.430, 357785.0
1140.521, 358976.0
1141.612, 359648.0
1142.703, 360132.0
1143.794, 359964.0
1144.885, 359460.0
1145.975, 360587.0
1147.066, 360583.0
1148.156, 360599.0
1149.246, 362646.0
1150.336, 361121.0
1151.425, 362837.0
1152.515, 361990.0
1153.604, 363384.0
1154.693, 363213.0
1155.783, 363633.0
1156.871, 363728.0
1157.960, 364523.0
1159.049, 365251.0
1160.137, 365223.0
1161.225, 364919.0
1162.313, 366627.0
1163.401, 365816.0
1164.489, 366262.0
1165.577, 367116.0
1166.664, 367413.8
1167.751, 368379.0
1168.838, 368707.0
1169.925, 368672.0
1171.012, 368376.0
1172.099, 369296.0
1173.185, 368411.0
1174.272, 369951.0
1175.358, 369639.0
1176.444, 370089.0
1177.529, 371232.0
1178.615, 371430.0
1179.700, 371844.0
1180.786, 372182.0
1181.871, 372765.0
1182.956, 372821.0
1184.041, 372326.0
1185.125, 373130.0
1186.210, 372807.0
1187.294, 373934.0
1188.378, 373758.0
1189.462, 373813.0
1190.546, 374899.0
1191.630, 374803.0
1192.713, 375722.0
1193.797, 375078.0
1194.880, 375792.0
1195.963, 375943.0
1197.046, 376459.0
1198.129, 377639.0
1199.211, 376564.0
1200.293, 377297.0
1201.376, 377841.0
1202.458, 377389.0
1203.540, 378471.0
1204.621, 378555.0
1205.703, 379566.0
1206.784, 379494.0
1207.865, 379848.7
1208.947, 380617.0
1210.027, 380314.0
1211.108, 380118.0
1212.189, 380544.0
1213.269, 381429.0
1214.349, 381782.0
1215.430, 382028.0
1216.509, 382254.0
1217.589, 382835.0
1218.669, 383099.0
1219.748, 383864.0
1220.827, 383915.0
1221.907, 383367.0
1222.986, 384059.0
1224.064, 384955.0
1225.143, 384549.0
1226.221, 385303.0
1227.300, 385710.0
1228.378, 386456.0
1229.456, 386705.0
1230.534, 387021.4
1231.611, 387070.0
1232.689, 387240.0
1233.766, 387058.0
1234.843, 386785.0
1235.920, 387327.0
1236.997, 388591.0
1238.074, 388546.0
1239.150, 388172.0
1240.226, 390419.0
1241.303, 388546.0
1242.379, 389129.0
1243.454, 390697.0
1244.530, 390676.0
1245.606, 390935.0
1246.681, 391336.0
1247.756, 391171.0
1248.831, 391609.0
1249.906, 391954.0
1250.981, 393040.0
1252.055, 392875.0
1253.130, 393486.0
1254.204, 393409.0
1255.278, 393083.0
1256.352, 393810.5
1257.425, 393312.0
1258.499, 394596.0
1259.572, 394369.0
1260.646, 394206.0
1261.719, 395552.0
1262.791, 395210.0
1263.864, 396141.0
1264.937, 395620.0
1266.009, 396264.0
1267.081, 396884.0
1268.153, 395938.0
1269.225, 397609.0
1270.297, 398082.0
1271.369, 397535.0
1272.440, 397556.0
1273.511, 397653.0
1274.582, 398505.0
1275.653, 398030.0
1276.724, 399580.0
1277.795, 399241.0
1278.865, 398862.0
1279.935, 400063.0
1281.006, 399323.0
1282.076, 400783.0
1283.145, 400166.0
1284.215, 400871.0
1285.284, 400633.0
1286.354, 401251.0
1287.423, 402349.0
1288.492, 401476.0
1289.561, 401796.0
1290.629, 403078.0
1291.698, 402980.0
1292.766, 404222.0
1293.834, 403553.0
1294.902, 403624.0
1295.970, 404222.0
1297.037, 404415.0
1298.105, 405206.0
1299.172, 405290.0
1300.239, 405855.0
1301.306, 406059.0
1302.373, 406386.3
1303.440, 407076.0
1304.506, 406791.0
1305.573, 407177.0
1306.639, 406863.0
1307.705, 408229.0
1308.771, 408546.0
1309.836, 407707.0
1310.902, 407539.0
1311.967, 409089.0
1313.033, 409137.0
1314.098, 409927.0
1315.162, 409430.0
1316.227, 410436.0
1317.292, 409231.0
1318.356, 410314.0
1319.420, 411362.0
1320.484, 411007.0
1321.548, 412144.0
1322.612, 411230.0
1323.675, 412180.0
1324.739, 412051.0
1325.802, 412228.0
1326.865, 412694.0
1327.928, 412812.0
1328.991, 414256.0
1330.053, 413845.0
1331.116, 413973.0
1332.178, 414991.0
1333.240, 414538.0
1334.302, 415725.0
1335.363, 416228.0
1336.425, 417061.0
1337.486, 417432.0
1338.548, 417365.0
1339.609, 417779.0
1340.670, 417653.0
1341.730, 418520.0
1342.791, 419328.0
1343.851, 419289.0
1344.912, 420654.0
1345.972, 421217.0
1347.032, 422585.0
1348.091, 423457.0
1349.151, 423348.0
1350.210, 424200.0
1351.270, 424738.0
1352.329, 424546.0
1353.388, 425262.0
1354.447, 425172.2
1355.505, 425845.0
1356.564, 425693.0
1357.622, 425051.0
1358.680, 426302.0
1359.738, 425334.0
1360.796, 426872.0
1361.853, 425273.0
1362.911, 426289.0
1363.968, 426918.0
1365.025, 426575.0
1366.082, 427738.0
1367.139, 427894.0
1368.196, 428012.0
1369.252, 428294.0
1370.308, 427477.0
1371.365, 428925.0
1372.421, 428415.0
1373.476, 428795.0
1374.532, 429743.0
1375.588, 428919.0
1376.643, 429731.0
1377.698, 428190.0
1378.753, 428826.0
1379.808, 429572.0
1380.862, 429476.0
1381.917, 430351.0
1382.971, 429820.0
1384.025, 429710.0
1385.079, 429444.0
1386.133, 429918.0
1387.187, 429773.0
1388.240, 430040.0
1389.294, 430461.0
1390.347, 429611.0
1391.400, 431001.0
1392.453, 429704.0
1393.506, 430296.0
1394.558, 430227.0
1395.610, 430139.0
1396.663, 429765.0
1397.715, 429480.0
1398.766, 429643.0
1399.818, 429883.0
1400.870, 431077.0
1401.921, 431546.0
1402.972, 432307.0
1404.023, 431056.0
1405.074, 432492.0
1406.125, 432804.0
1407.175, 434013.0
1408.226, 434518.0
1409.276, 435103.0
1410.326, 435644.0
1411.376, 436757.0
1412.426, 439548.0
1413.475, 438418.0
1414.525, 440891.0
1415.574, 440874.0
1416.623, 440516.0
1417.672, 440027.0
1418.720, 440056.0
1419.769, 439945.0
1420.817, 439802.0
1421.866, 437881.0
1422.914, 438558.0
1423.962, 437518.0
1425.009, 437405.0
1426.057, 437360.0
1427.104, 436370.0
1428.152, 437057.0
1429.199, 436597.0
1430.246, 435785.0
1431.292, 436987.0
1432.339, 437176.0
1433.385, 437681.0
1434.431, 436650.0
1435.478, 436966.0
1436.523, 437879.0
1437.569, 436683.0
1438.615, 438482.0
1439.660, 438268.0
1440.706, 438037.0
1441.751, 439268.0
1442.796, 438182.0
1443.840, 439273.0
1444.885, 439405.0
1445.929, 438359.0
1446.974, 438882.0
1448.018, 438952.0
1449.062, 440502.0
1450.105, 440688.0
1451.149, 440244.0
1452.192, 441502.0
1453.236, 440293.0
1454.279, 441471.0
1455.322, 441423.0
1456.365, 440533.0
1457.407, 441914.0
1458.450, 441630.0
1459.492, 441268.0
1460.534, 441350.0
1461.576, 441836.0
1462.618, 442264.0
1463.659, 441124.0
1464.701, 443144.0
1465.742, 443077.0
1466.783, 442313.0
1467.824, 443554.0
1468.865, 443164.0
1469.906, 443733.0
1470.946, 444999.0
1471.986, 444478.0
1473.026, 445161.0
1474.066, 445300.0
1475.106, 445424.0
1476.146, 445743.0
1477.185, 446212.0
1478.225, 446390.3
1479.264, 446674.3
1480.303, 446769.0
1481.342, 447428.0
1482.380, 447256.0
1483.419, 448345.0
1484.457, 447338.0
1485.495, 447855.0
1486.533, 448299.0
1487.571, 447476.0
1488.609, 448903.0
1489.646, 448983.0
1490.683, 448969.0
1491.721, 449787.0
1492.758, 449251.9
1493.794, 450183.0
1494.831, 449517.0
1495.868, 449341.0
1496.904, 451442.0
1497.940, 450641.0
1498.976, 451420.0
1500.012, 451454.0
1501.047, 452229.0
1502.083, 452473.0
1503.118, 451670.0
1504.153, 453392.0
1505.188, 453595.0
1506.223, 452801.0
1507.258, 454137.0
1508.292, 453311.0
1509.327, 454178.0
1510.361, 454874.0
1511.395, 454284.0
1512.429, 456130.0
1513.462, 454855.0
1514.496, 456469.0
1515.529, 456232.0
1516.563, 456511.0
1517.596, 457794.0
1518.628, 456755.0
1519.661, 458138.0
1520.694, 457428.0
1521.726, 458036.0
1522.758, 458636.0
1523.790, 459304.0
1524.822, 458985.0
1525.854, 459148.0
1526.885, 458909.0
1527.917, 459786.0
1528.948, 460184.0
1529.979, 460362.0
1531.010, 460638.0
1532.040, 460091.0
1533.071, 462016.0
1534.101, 460602.0
1535.131, 461787.0
1536.161, 462604.0
1537.191, 462092.0
1538.221, 462712.0
1539.250, 462291.0
1540.280, 463430.0
1541.309, 463230.0
1542.338, 463721.0
1543.367, 464090.0
1544.396, 464761.0
1545.424, 465523.0
1546.453, 466124.0
1547.481, 465409.0
1548.509, 466759.0
1549.537, 466863.0
1550.564, 466048.0
1551.592, 466683.0
1552.619, 466891.0
1553.646, 467634.0
1554.673, 468436.0
1555.700, 468407.0
1556.727, 468656.0
1557.754, 469213.0
1558.780, 468636.0
1559.806, 468874.0
1560.832, 469407.0
1561.858, 470005.0
1562.884, 469372.0
1563.909, 470233.0
1564.935, 470109.0
1565.960, 469887.0
1566.985, 470675.0
1568.010, 470857.1
1569.035, 470202.0
1570.059, 471681.0
1571.084, 471899.0
1572.108, 471584.0
1573.132, 471342.0
1574.156, 473051.0
1575.179, 473443.0
1576.203, 472961.0
1577.226, 475228.0
1578.250, 471861.0
1579.273, 473978.0
##END=



