##NAMES=Abelsonite
##RRUFFID=R070007
##IDEAL CHEMISTRY=Ni^2+^C_31_H_32_N_4_
##LOCALITY=Green River Formation, Utah, USA
##OWNER=RRUFF
##SOURCE=Geophysical Laboratory, Carnegie Institution of Washington
##DESCRIPTION=Purple platy crystals embedded in drill core
##STATUS=The identification of this mineral is confirmed by single-crystal X-ray diffraction and chemical analysis.
##URL=rruff.info/R070007
##MEASURED CHEMISTRY=(Ni_0.92_Fe^2+^_0.05_Cr_0.02_)C_31_H_32_N_4_ ; C, H and N not measured but estimated by stoichiometry
153.5570, 5903.083
154.0391, 5950.253
154.5212, 5984.752
155.0034, 5997.440
155.4855, 5990.493
155.9676, 5984.178
156.4497, 5981.319
156.9318, 5981.162
157.4139, 5983.127
157.8961, 5983.903
158.3782, 5989.718
158.8603, 6005.023
159.3424, 6030.679
159.8245, 6053.847
160.3066, 6059.841
160.7888, 6063.780
161.2709, 6083.794
161.7530, 6155.599
162.2351, 6222.736
162.7172, 6252.153
163.1993, 6232.848
163.6814, 6209.888
164.1636, 6201.795
164.6457, 6205.131
165.1278, 6213.208
165.6099, 6223.175
166.0920, 6236.696
166.5741, 6255.541
167.0563, 6281.502
167.5384, 6309.669
168.0205, 6339.132
168.5026, 6368.917
168.9847, 6395.257
169.4668, 6413.994
169.9490, 6428.941
170.4311, 6444.046
170.9132, 6460.396
171.3953, 6477.125
171.8774, 6493.503
172.3595, 6509.523
172.8417, 6525.612
173.3238, 6543.875
173.8059, 6562.279
174.2880, 6577.541
174.7701, 6586.203
175.2522, 6592.374
175.7344, 6600.878
176.2165, 6611.706
176.6986, 6623.172
177.1807, 6634.643
177.6628, 6645.724
178.1449, 6655.732
178.6270, 6660.247
179.1092, 6664.463
179.5913, 6680.021
180.0734, 6708.983
180.5555, 6738.834
181.0376, 6752.717
181.5197, 6754.056
182.0019, 6758.926
182.4840, 6775.985
182.9661, 6802.739
183.4482, 6833.778
183.9303, 6870.540
184.4124, 6907.165
184.8946, 6937.094
185.3767, 6959.885
185.8588, 6976.495
186.3409, 6986.023
186.8230, 6989.295
187.3051, 6988.056
187.7873, 6979.905
188.2694, 6971.153
188.7515, 6974.956
189.2336, 6991.658
189.7157, 7012.980
190.1978, 7036.528
190.6799, 7061.400
191.1621, 7079.970
191.6442, 7090.594
192.1263, 7094.240
192.6084, 7088.436
193.0905, 7070.824
193.5726, 7059.954
194.0548, 7079.737
194.5369, 7129.858
195.0190, 7168.742
195.5011, 7185.480
195.9832, 7183.072
196.4653, 7174.606
196.9475, 7157.523
197.4296, 7143.004
197.9117, 7147.636
198.3938, 7174.014
198.8759, 7191.246
199.3580, 7187.450
199.8402, 7164.090
200.3223, 7142.918
200.8044, 7123.302
201.2865, 7107.144
201.7686, 7097.598
202.2507, 7095.115
202.7328, 7096.387
203.2150, 7104.254
203.6971, 7119.924
204.1792, 7116.204
204.6613, 7083.971
205.1434, 7044.458
205.6255, 7038.778
206.1077, 7076.134
206.5898, 7112.896
207.0719, 7131.597
207.5540, 7130.621
208.0361, 7117.787
208.5182, 7085.638
209.0004, 7047.518
209.4825, 7036.063
209.9646, 7060.011
210.4467, 7088.461
210.9288, 7106.605
211.4109, 7112.335
211.8931, 7116.420
212.3752, 7120.624
212.8573, 7122.987
213.3394, 7114.323
213.8215, 7085.921
214.3036, 7064.495
214.7858, 7069.183
215.2679, 7110.981
215.7500, 7143.878
216.2321, 7163.193
216.7142, 7170.630
217.1963, 7173.792
217.6785, 7169.869
218.1606, 7166.238
218.6427, 7168.232
219.1248, 7177.949
219.6069, 7187.600
220.0890, 7196.002
220.5712, 7203.398
221.0533, 7213.622
221.5354, 7231.343
222.0175, 7245.432
222.4996, 7244.185
222.9817, 7215.032
223.4639, 7199.891
223.9460, 7208.980
224.4281, 7241.428
224.9102, 7268.302
225.3923, 7287.820
225.8744, 7303.836
226.3566, 7320.849
226.8387, 7344.491
227.3208, 7357.250
227.8029, 7350.861
228.2850, 7324.180
228.7671, 7314.085
229.2492, 7327.633
229.7314, 7351.022
230.2135, 7369.544
230.6956, 7380.752
231.1777, 7392.366
231.6598, 7406.235
232.1419, 7422.827
232.6241, 7438.558
233.1062, 7454.421
233.5883, 7468.661
234.0704, 7478.518
234.5525, 7482.380
235.0346, 7484.721
235.5168, 7485.048
235.9989, 7481.670
236.4810, 7487.025
236.9631, 7505.614
237.4452, 7529.768
237.9273, 7548.819
238.4095, 7561.105
238.8916, 7571.296
239.3737, 7579.374
239.8558, 7583.558
240.3379, 7594.183
240.8200, 7614.800
241.3021, 7639.618
241.7843, 7659.714
242.2664, 7672.925
242.7485, 7684.709
243.2306, 7696.907
243.7127, 7710.316
244.1948, 7721.386
244.6770, 7731.226
245.1591, 7738.109
245.6412, 7737.830
246.1233, 7724.243
246.6054, 7713.938
247.0875, 7715.554
247.5697, 7738.104
248.0518, 7740.365
248.5339, 7707.046
249.0160, 7661.476
249.4981, 7651.087
249.9802, 7696.324
250.4624, 7742.796
250.9445, 7770.280
251.4266, 7772.024
251.9087, 7774.625
252.3908, 7776.338
252.8729, 7779.751
253.3551, 7791.809
253.8372, 7818.948
254.3193, 7843.185
254.8014, 7856.846
255.2835, 7856.186
255.7656, 7855.015
256.2477, 7848.519
256.7299, 7843.912
257.2120, 7858.410
257.6941, 7898.890
258.1762, 7945.948
258.6583, 7996.765
259.1404, 8062.260
259.6226, 8096.407
260.1047, 8088.524
260.5868, 8055.398
261.0689, 8034.459
261.5510, 8028.916
262.0331, 8028.990
262.5153, 8028.681
262.9974, 8023.871
263.4795, 8036.520
263.9616, 8078.354
264.4437, 8130.816
264.9258, 8144.921
265.4080, 8105.893
265.8901, 8063.604
266.3722, 8043.515
266.8543, 8051.694
267.3364, 8052.482
267.8185, 8040.174
268.3007, 8023.584
268.7828, 8026.511
269.2649, 8057.270
269.7470, 8083.964
270.2291, 8088.512
270.7112, 8066.563
271.1934, 8048.001
271.6755, 8034.723
272.1576, 8024.441
272.6397, 8009.905
273.1218, 7987.679
273.6039, 7973.968
274.0860, 7981.710
274.5681, 8014.359
275.0503, 8034.306
275.5324, 8036.358
276.0145, 8029.623
276.4966, 8034.130
276.9787, 8052.389
277.4608, 8069.404
277.9430, 8076.813
278.4251, 8074.262
278.9072, 8069.937
279.3893, 8062.442
279.8714, 8055.959
280.3535, 8060.449
280.8357, 8077.241
281.3178, 8093.919
281.7999, 8104.611
282.2820, 8109.402
282.7641, 8110.508
283.2462, 8107.533
283.7284, 8101.928
284.2105, 8094.274
284.6926, 8084.336
285.1747, 8078.591
285.6568, 8079.345
286.1389, 8086.825
286.6211, 8106.268
287.1032, 8142.143
287.5853, 8178.956
288.0674, 8187.858
288.5495, 8170.156
289.0316, 8154.909
289.5138, 8159.819
289.9959, 8180.328
290.4780, 8196.337
290.9601, 8205.526
291.4422, 8214.563
291.9243, 8238.598
292.4065, 8274.362
292.8886, 8298.280
293.3707, 8283.938
293.8528, 8248.667
294.3349, 8244.096
294.8170, 8276.380
295.2992, 8319.619
295.7813, 8344.555
296.2634, 8353.947
296.7455, 8358.327
297.2276, 8358.513
297.7097, 8357.903
298.1919, 8364.420
298.6740, 8379.076
299.1561, 8394.735
299.6382, 8403.737
300.1203, 8407.706
300.6024, 8410.856
301.0845, 8416.438
301.5667, 8421.811
302.0488, 8422.377
302.5309, 8417.707
303.0130, 8412.902
303.4951, 8409.374
303.9772, 8409.011
304.4594, 8415.610
304.9415, 8437.798
305.4236, 8463.793
305.9057, 8480.121
306.3878, 8486.078
306.8699, 8493.553
307.3521, 8511.117
307.8342, 8535.646
308.3163, 8562.887
308.7984, 8605.276
309.2805, 8639.388
309.7626, 8639.053
310.2448, 8605.235
310.7269, 8578.931
311.2090, 8590.649
311.6911, 8620.722
312.1732, 8647.108
312.6553, 8665.599
313.1375, 8675.541
313.6196, 8669.000
314.1017, 8648.454
314.5838, 8639.316
315.0659, 8663.749
315.5480, 8699.471
316.0302, 8727.718
316.5123, 8738.009
316.9944, 8744.624
317.4765, 8751.161
317.9586, 8757.831
318.4407, 8765.654
318.9229, 8774.248
319.4050, 8784.589
319.8871, 8797.570
320.3692, 8821.919
320.8513, 8838.774
321.3334, 8837.075
321.8156, 8822.378
322.2977, 8816.854
322.7798, 8826.112
323.2619, 8844.937
323.7440, 8871.753
324.2261, 8923.919
324.7083, 8959.677
325.1904, 8969.247
325.6725, 8959.026
326.1546, 8947.388
326.6367, 8918.439
327.1188, 8902.515
327.6009, 8912.865
328.0830, 8973.745
328.5652, 9017.757
329.0473, 9036.627
329.5294, 9040.337
330.0115, 9048.999
330.4936, 9064.411
330.9757, 9082.634
331.4579, 9101.890
331.9400, 9119.991
332.4221, 9146.191
332.9042, 9179.053
333.3863, 9220.641
333.8684, 9277.090
334.3506, 9359.801
334.8327, 9433.487
335.3148, 9487.488
335.7969, 9519.932
336.2790, 9546.979
336.7611, 9564.274
337.2433, 9582.223
337.7254, 9617.449
338.2075, 9677.409
338.6896, 9726.284
339.1717, 9752.824
339.6538, 9759.099
340.1360, 9770.939
340.6181, 9790.806
341.1002, 9808.545
341.5823, 9809.561
342.0644, 9792.863
342.5465, 9786.827
343.0287, 9805.444
343.5108, 9835.898
343.9929, 9831.335
344.4750, 9788.788
344.9571, 9743.008
345.4392, 9728.820
345.9214, 9739.924
346.4035, 9739.813
346.8856, 9721.854
347.3677, 9688.913
347.8498, 9635.405
348.3319, 9564.000
348.8141, 9504.317
349.2962, 9485.511
349.7783, 9492.629
350.2604, 9491.532
350.7425, 9477.636
351.2246, 9452.921
351.7067, 9412.304
352.1888, 9360.712
352.6710, 9315.655
353.1531, 9288.337
353.6352, 9272.194
354.1173, 9258.536
354.5994, 9246.073
355.0815, 9238.841
355.5637, 9250.842
356.0458, 9269.875
356.5279, 9272.532
357.0100, 9229.480
357.4921, 9178.864
357.9742, 9152.467
358.4564, 9154.295
358.9385, 9151.204
359.4206, 9115.766
359.9027, 9069.368
360.3848, 9036.743
360.8669, 9037.903
361.3491, 9043.552
361.8312, 9046.028
362.3133, 9044.601
362.7954, 9031.996
363.2775, 8998.619
363.7596, 8957.385
364.2418, 8917.829
364.7239, 8878.256
365.2060, 8844.275
365.6881, 8821.677
366.1702, 8807.407
366.6523, 8785.676
367.1345, 8746.194
367.6166, 8705.319
368.0987, 8670.442
368.5808, 8638.178
369.0629, 8617.147
369.5450, 8613.465
370.0272, 8620.334
370.5093, 8620.230
370.9914, 8605.291
371.4735, 8594.104
371.9556, 8596.586
372.4377, 8622.138
372.9199, 8625.999
373.4020, 8596.553
373.8841, 8555.884
374.3662, 8541.604
374.8483, 8564.710
375.3304, 8579.290
375.8126, 8567.854
376.2947, 8531.317
376.7768, 8504.177
377.2589, 8488.029
377.7410, 8476.409
378.2231, 8462.180
378.7052, 8445.202
379.1873, 8430.986
379.6695, 8420.773
380.1516, 8414.210
380.6337, 8412.250
381.1158, 8415.292
381.5979, 8415.077
382.0800, 8399.537
382.5622, 8373.714
383.0443, 8361.002
383.5264, 8370.893
384.0085, 8384.727
384.4906, 8368.330
384.9727, 8327.994
385.4549, 8296.252
385.9370, 8306.651
386.4191, 8333.347
386.9012, 8333.688
387.3833, 8297.110
387.8654, 8261.466
388.3476, 8267.220
388.8297, 8297.426
389.3118, 8319.316
389.7939, 8306.899
390.2760, 8287.767
390.7581, 8285.037
391.2403, 8300.345
391.7224, 8311.468
392.2045, 8298.696
392.6866, 8279.270
393.1687, 8271.143
393.6508, 8301.686
394.1330, 8322.750
394.6151, 8306.863
395.0972, 8260.167
395.5793, 8231.111
396.0614, 8246.741
396.5435, 8272.552
397.0257, 8288.533
397.5078, 8287.446
397.9899, 8282.947
398.4720, 8265.662
398.9541, 8245.140
399.4362, 8247.934
399.9184, 8304.881
400.4005, 8349.906
400.8826, 8354.508
401.3647, 8298.559
401.8468, 8271.175
402.3289, 8284.360
402.8111, 8316.149
403.2932, 8337.850
403.7753, 8349.549
404.2574, 8349.748
404.7395, 8330.531
405.2216, 8295.087
405.7037, 8291.538
406.1859, 8328.030
406.6680, 8371.880
407.1501, 8394.035
407.6322, 8394.539
408.1143, 8389.036
408.5964, 8379.067
409.0786, 8366.342
409.5607, 8354.171
410.0428, 8342.666
410.5249, 8332.078
411.0070, 8319.193
411.4891, 8307.583
411.9713, 8309.363
412.4534, 8329.524
412.9355, 8349.919
413.4176, 8345.962
413.8997, 8325.200
414.3818, 8309.457
414.8640, 8317.490
415.3461, 8330.588
415.8282, 8325.650
416.3103, 8301.202
416.7924, 8282.793
417.2745, 8291.645
417.7567, 8313.691
418.2388, 8332.575
418.7209, 8347.872
419.2030, 8354.220
419.6851, 8342.919
420.1672, 8317.943
420.6494, 8300.022
421.1315, 8301.428
421.6136, 8307.356
422.0957, 8309.071
422.5778, 8300.290
423.0599, 8295.730
423.5421, 8294.434
424.0242, 8298.612
424.5063, 8312.707
424.9884, 8349.426
425.4705, 8381.832
425.9526, 8402.681
426.4348, 8411.041
426.9169, 8412.474
427.3990, 8402.095
427.8811, 8390.171
428.3632, 8387.794
428.8453, 8396.720
429.3275, 8410.014
429.8095, 8429.155
430.2917, 8451.477
430.7738, 8463.056
431.2559, 8463.217
431.7380, 8456.701
432.2201, 8438.676
432.7022, 8411.808
433.1844, 8411.509
433.6665, 8447.796
434.1486, 8496.302
434.6307, 8519.320
435.1128, 8520.121
435.5949, 8515.532
436.0771, 8513.837
436.5592, 8512.152
437.0413, 8500.473
437.5234, 8477.781
438.0055, 8465.715
438.4876, 8496.131
438.9698, 8544.942
439.4519, 8575.457
439.9340, 8550.593
440.4161, 8529.183
440.8982, 8563.099
441.3803, 8638.058
441.8625, 8693.682
442.3446, 8701.204
442.8267, 8681.187
443.3088, 8640.938
443.7909, 8561.003
444.2730, 8506.596
444.7552, 8506.842
445.2373, 8538.586
445.7194, 8564.300
446.2015, 8585.351
446.6836, 8593.229
447.1657, 8581.340
447.6479, 8546.921
448.1300, 8521.230
448.6121, 8500.885
449.0942, 8492.443
449.5763, 8505.458
450.0584, 8553.509
450.5406, 8583.769
451.0227, 8584.408
451.5048, 8566.094
451.9869, 8562.915
452.4690, 8577.771
452.9511, 8593.261
453.4333, 8598.327
453.9154, 8594.019
454.3975, 8596.266
454.8796, 8607.626
455.3617, 8617.148
455.8438, 8604.143
456.3259, 8574.808
456.8080, 8556.882
457.2902, 8567.620
457.7723, 8590.577
458.2544, 8600.322
458.7365, 8598.412
459.2186, 8599.862
459.7007, 8625.732
460.1829, 8656.508
460.6650, 8666.040
461.1471, 8637.103
461.6292, 8612.330
462.1113, 8626.936
462.5934, 8662.944
463.0756, 8685.535
463.5577, 8661.037
464.0398, 8639.056
464.5219, 8648.807
465.0040, 8698.648
465.4861, 8727.380
465.9683, 8701.929
466.4504, 8664.440
466.9325, 8650.688
467.4146, 8679.192
467.8967, 8705.487
468.3788, 8725.122
468.8610, 8739.652
469.3431, 8755.362
469.8252, 8773.783
470.3073, 8790.411
470.7894, 8803.252
471.2715, 8812.208
471.7537, 8818.244
472.2358, 8821.635
472.7179, 8821.492
473.2000, 8809.437
473.6821, 8786.361
474.1642, 8784.269
474.6464, 8823.151
475.1285, 8882.442
475.6106, 8914.286
476.0927, 8920.136
476.5748, 8921.387
477.0569, 8931.110
477.5391, 8947.332
478.0212, 8967.154
478.5033, 8990.168
478.9854, 9016.497
479.4675, 9047.961
479.9496, 9082.674
480.4318, 9117.115
480.9139, 9149.005
481.3960, 9181.135
481.8781, 9217.465
482.3602, 9258.236
482.8423, 9289.497
483.3244, 9297.103
483.8065, 9299.892
484.2887, 9311.112
484.7708, 9339.297
485.2529, 9367.444
485.7350, 9394.496
486.2171, 9421.103
486.6992, 9447.733
487.1814, 9472.451
487.6635, 9500.888
488.1456, 9535.835
488.6277, 9578.037
489.1098, 9616.416
489.5919, 9648.808
490.0741, 9681.572
490.5562, 9727.102
491.0383, 9785.175
491.5204, 9823.713
492.0025, 9829.922
492.4846, 9821.478
492.9668, 9837.047
493.4489, 9873.843
493.9310, 9906.167
494.4131, 9917.406
494.8952, 9914.831
495.3773, 9908.979
495.8595, 9900.409
496.3416, 9890.157
496.8237, 9877.379
497.3058, 9863.811
497.7879, 9851.675
498.2701, 9848.110
498.7522, 9839.715
499.2343, 9817.886
499.7164, 9785.276
500.1985, 9752.541
500.6806, 9723.887
501.1628, 9694.407
501.6449, 9660.256
502.1270, 9613.921
502.6091, 9581.106
503.0912, 9565.574
503.5733, 9561.644
504.0555, 9565.643
504.5376, 9588.446
505.0197, 9595.628
505.5018, 9577.516
505.9839, 9539.145
506.4660, 9503.631
506.9482, 9471.001
507.4303, 9441.239
507.9124, 9410.024
508.3945, 9379.086
508.8766, 9370.087
509.3587, 9388.606
509.8408, 9410.878
510.3229, 9404.076
510.8051, 9376.417
511.2872, 9354.737
511.7693, 9359.063
512.2514, 9365.049
512.7335, 9333.947
513.2156, 9275.346
513.6978, 9234.613
514.1799, 9261.528
514.6620, 9302.962
515.1441, 9313.521
515.6262, 9275.286
516.1083, 9243.485
516.5905, 9244.294
517.0726, 9259.076
517.5547, 9264.242
518.0368, 9236.301
518.5189, 9221.069
519.0010, 9229.728
519.4832, 9259.549
519.9653, 9288.471
520.4474, 9322.320
520.9295, 9346.833
521.4116, 9350.302
521.8937, 9326.127
522.3759, 9318.385
522.8580, 9333.112
523.3401, 9352.758
523.8222, 9349.290
524.3043, 9323.785
524.7864, 9306.421
525.2686, 9309.673
525.7507, 9323.806
526.2328, 9331.438
526.7149, 9332.869
527.1970, 9329.845
527.6791, 9321.885
528.1613, 9310.857
528.6434, 9296.729
529.1255, 9277.823
529.6076, 9266.460
530.0897, 9281.301
530.5718, 9304.600
531.0540, 9314.268
531.5361, 9283.519
532.0182, 9259.767
532.5003, 9258.783
532.9824, 9277.486
533.4645, 9297.529
533.9467, 9325.269
534.4288, 9346.172
534.9109, 9353.305
535.3930, 9342.880
535.8751, 9333.121
536.3572, 9320.679
536.8394, 9313.324
537.3215, 9323.273
537.8036, 9353.483
538.2857, 9375.652
538.7678, 9382.763
539.2499, 9379.998
539.7321, 9378.025
540.2142, 9376.842
540.6963, 9376.311
541.1784, 9376.087
541.6605, 9376.567
542.1426, 9378.801
542.6248, 9382.912
543.1069, 9387.172
543.5890, 9384.007
544.0711, 9382.560
544.5532, 9394.460
545.0353, 9432.002
545.5175, 9470.829
545.9996, 9505.674
546.4817, 9534.658
546.9637, 9553.206
547.4459, 9540.415
547.9280, 9536.423
548.4101, 9561.428
548.8922, 9619.213
549.3743, 9653.461
549.8564, 9651.394
550.3386, 9641.910
550.8207, 9645.757
551.3028, 9664.298
551.7849, 9692.801
552.2670, 9738.023
552.7491, 9781.665
553.2313, 9784.612
553.7134, 9749.463
554.1955, 9721.292
554.6776, 9725.888
555.1597, 9746.020
555.6418, 9746.159
556.1240, 9728.121
556.6061, 9708.775
557.0882, 9702.218
557.5703, 9699.400
558.0524, 9689.747
558.5345, 9669.447
559.0167, 9649.582
559.4988, 9635.936
559.9809, 9625.484
560.4630, 9614.455
560.9451, 9595.740
561.4272, 9583.259
561.9094, 9585.990
562.3915, 9599.425
562.8736, 9599.515
563.3557, 9574.215
563.8378, 9553.396
564.3199, 9552.111
564.8021, 9572.803
565.2842, 9589.908
565.7663, 9603.547
566.2484, 9612.855
566.7305, 9613.403
567.2126, 9606.654
567.6948, 9607.763
568.1769, 9623.488
568.6590, 9641.720
569.1411, 9634.533
569.6232, 9612.341
570.1053, 9610.667
570.5875, 9679.497
571.0696, 9754.765
571.5517, 9771.707
572.0338, 9730.546
572.5159, 9700.768
572.9980, 9721.655
573.4802, 9760.070
573.9623, 9792.612
574.4444, 9811.464
574.9265, 9832.098
575.4086, 9859.042
575.8907, 9886.791
576.3729, 9909.622
576.8550, 9930.530
577.3371, 9938.598
577.8192, 9926.405
578.3013, 9900.358
578.7834, 9889.152
579.2656, 9893.898
579.7477, 9905.280
580.2298, 9916.360
580.7119, 9929.120
581.1940, 9953.249
581.6761, 9989.827
582.1583, 10028.66
582.6404, 10068.92
583.1225, 10103.06
583.6046, 10115.43
584.0867, 10087.14
584.5688, 10062.44
585.0510, 10076.53
585.5331, 10113.55
586.0152, 10139.94
586.4973, 10136.59
586.9794, 10129.48
587.4615, 10126.49
587.9437, 10128.10
588.4258, 10132.01
588.9079, 10143.89
589.3900, 10151.23
589.8721, 10143.95
590.3542, 10115.77
590.8364, 10101.52
591.3185, 10103.71
591.8006, 10115.74
592.2827, 10132.32
592.7648, 10152.68
593.2469, 10169.12
593.7291, 10180.13
594.2112, 10185.44
594.6933, 10176.35
595.1754, 10159.00
595.6575, 10156.19
596.1396, 10190.59
596.6218, 10237.81
597.1039, 10285.80
597.5860, 10333.83
598.0681, 10358.63
598.5502, 10326.31
599.0323, 10283.39
599.5144, 10263.19
599.9965, 10282.77
600.4786, 10303.65
600.9608, 10326.80
601.4429, 10350.35
601.9250, 10370.40
602.4071, 10384.64
602.8892, 10405.10
603.3713, 10440.47
603.8535, 10480.02
604.3356, 10480.40
604.8177, 10441.64
605.2998, 10410.16
605.7819, 10423.55
606.2640, 10461.14
606.7462, 10477.52
607.2283, 10471.06
607.7104, 10468.17
608.1925, 10490.24
608.6746, 10525.32
609.1567, 10561.69
609.6389, 10597.80
610.1210, 10631.91
610.6031, 10669.81
611.0852, 10703.42
611.5673, 10719.85
612.0494, 10689.79
612.5316, 10678.42
613.0137, 10704.84
613.4958, 10758.59
613.9779, 10789.04
614.4600, 10787.87
614.9421, 10787.40
615.4243, 10810.26
615.9064, 10851.94
616.3885, 10863.27
616.8706, 10842.17
617.3527, 10815.86
617.8348, 10810.18
618.3170, 10817.63
618.7991, 10823.81
619.2812, 10826.96
619.7633, 10825.68
620.2454, 10815.74
620.7275, 10801.40
621.2097, 10789.24
621.6918, 10786.82
622.1739, 10781.20
622.6560, 10759.84
623.1381, 10729.16
623.6202, 10721.95
624.1024, 10760.34
624.5845, 10792.96
625.0666, 10797.55
625.5487, 10772.43
626.0308, 10766.79
626.5129, 10785.34
626.9951, 10807.77
627.4772, 10816.60
627.9593, 10814.09
628.4414, 10813.34
628.9235, 10816.21
629.4056, 10819.55
629.8878, 10818.31
630.3699, 10815.16
630.8520, 10814.95
631.3341, 10815.89
631.8162, 10824.26
632.2983, 10846.67
632.7805, 10879.68
633.2626, 10912.97
633.7447, 10945.81
634.2268, 10976.90
634.7089, 11008.42
635.1910, 11040.58
635.6732, 11057.61
636.1553, 11046.14
636.6374, 11043.23
637.1195, 11079.38
637.6016, 11157.53
638.0837, 11210.30
638.5659, 11230.58
639.0480, 11244.49
639.5301, 11286.68
640.0122, 11346.96
640.4943, 11396.98
640.9764, 11429.07
641.4586, 11449.69
641.9407, 11449.65
642.4228, 11443.84
642.9049, 11462.00
643.3870, 11543.39
643.8691, 11623.78
644.3513, 11680.71
644.8334, 11714.06
645.3155, 11734.56
645.7976, 11719.44
646.2797, 11720.94
646.7618, 11768.72
647.2440, 11868.83
647.7261, 11932.40
648.2082, 11952.78
648.6903, 11955.82
649.1724, 11960.54
649.6545, 11967.09
650.1367, 11979.83
650.6187, 12002.81
651.1008, 12017.13
651.5829, 11992.31
652.0651, 11945.70
652.5472, 11909.16
653.0293, 11894.88
653.5114, 11892.00
653.9935, 11905.29
654.4756, 11925.99
654.9578, 11931.34
655.4399, 11914.82
655.9220, 11882.76
656.4041, 11827.32
656.8862, 11751.37
657.3683, 11709.04
657.8505, 11713.15
658.3326, 11721.55
658.8147, 11705.30
659.2968, 11666.87
659.7789, 11644.92
660.2610, 11640.59
660.7432, 11648.58
661.2253, 11672.97
661.7074, 11704.02
662.1895, 11722.19
662.6716, 11719.62
663.1537, 11714.75
663.6359, 11715.26
664.1180, 11722.45
664.6001, 11738.16
665.0822, 11776.46
665.5643, 11807.95
666.0464, 11826.72
666.5286, 11834.27
667.0107, 11830.83
667.4928, 11804.17
667.9749, 11793.74
668.4570, 11820.16
668.9391, 11875.29
669.4213, 11900.84
669.9034, 11895.20
670.3855, 11896.50
670.8676, 11942.57
671.3497, 12012.12
671.8318, 12060.07
672.3140, 12083.08
672.7961, 12100.33
673.2782, 12130.40
673.7603, 12159.15
674.2424, 12170.72
674.7245, 12147.88
675.2067, 12136.38
675.6888, 12150.49
676.1709, 12179.67
676.6530, 12212.19
677.1351, 12258.41
677.6172, 12283.45
678.0994, 12275.08
678.5815, 12249.25
679.0636, 12244.90
679.5457, 12262.22
680.0278, 12282.75
680.5099, 12304.01
680.9921, 12320.53
681.4742, 12317.24
681.9563, 12298.17
682.4384, 12284.51
682.9205, 12288.54
683.4026, 12303.41
683.8848, 12326.57
684.3669, 12358.48
684.8490, 12388.50
685.3311, 12416.44
685.8132, 12440.22
686.2953, 12459.27
686.7775, 12475.13
687.2596, 12479.73
687.7417, 12465.32
688.2238, 12452.82
688.7059, 12468.30
689.1880, 12510.27
689.6702, 12556.32
690.1523, 12604.18
690.6344, 12649.53
691.1165, 12680.80
691.5986, 12705.46
692.0807, 12739.92
692.5629, 12807.38
693.0450, 12869.66
693.5271, 12892.14
694.0092, 12891.38
694.4913, 12914.05
694.9734, 12989.86
695.4556, 13070.96
695.9377, 13149.32
696.4198, 13223.10
696.9019, 13275.29
697.3840, 13296.50
697.8661, 13324.21
698.3483, 13386.44
698.8304, 13476.53
699.3125, 13548.14
699.7946, 13601.16
700.2767, 13642.42
700.7589, 13680.09
701.2410, 13709.16
701.7231, 13713.59
702.2052, 13680.91
702.6873, 13674.83
703.1694, 13759.21
703.6515, 13869.95
704.1336, 13943.66
704.6157, 13943.51
705.0978, 13942.31
705.5800, 13937.60
706.0621, 13935.02
706.5442, 13947.84
707.0263, 13981.08
707.5084, 13994.11
707.9905, 13966.52
708.4727, 13929.77
708.9548, 13956.00
709.4369, 14031.06
709.9190, 14093.56
710.4011, 14102.35
710.8832, 14093.47
711.3654, 14089.01
711.8475, 14091.65
712.3296, 14111.81
712.8117, 14177.36
713.2938, 14239.20
713.7759, 14272.18
714.2581, 14275.41
714.7402, 14286.30
715.2223, 14309.82
715.7044, 14332.13
716.1865, 14343.66
716.6686, 14344.72
717.1508, 14351.88
717.6329, 14365.73
718.1150, 14381.86
718.5971, 14400.41
719.0792, 14417.03
719.5613, 14423.85
720.0435, 14418.93
720.5256, 14407.27
721.0077, 14380.51
721.4898, 14353.77
721.9719, 14342.82
722.4540, 14399.00
722.9362, 14405.48
723.4183, 14333.95
723.9004, 14224.90
724.3825, 14142.29
724.8646, 14093.03
725.3467, 14028.16
725.8289, 13927.48
726.3110, 13819.34
726.7931, 13774.50
727.2752, 13779.91
727.7573, 13774.26
728.2394, 13709.65
728.7216, 13636.61
729.2037, 13605.17
729.6858, 13604.70
730.1679, 13596.63
730.6500, 13550.70
731.1321, 13510.53
731.6143, 13503.01
732.0964, 13525.19
732.5785, 13516.80
733.0606, 13464.27
733.5427, 13410.50
734.0248, 13375.41
734.5070, 13358.68
734.9891, 13360.26
735.4712, 13380.48
735.9533, 13407.71
736.4354, 13436.05
736.9175, 13463.91
737.3997, 13491.47
737.8818, 13520.14
738.3639, 13537.05
738.8460, 13525.69
739.3281, 13506.19
739.8102, 13493.87
740.2924, 13480.19
740.7745, 13495.55
741.2566, 13552.39
741.7387, 13625.38
742.2208, 13687.30
742.7029, 13737.81
743.1851, 13778.64
743.6672, 13807.52
744.1493, 13833.95
744.6314, 13866.41
745.1135, 13906.86
745.5956, 13960.63
746.0778, 14025.24
746.5599, 14109.04
747.0420, 14241.51
747.5241, 14394.19
748.0062, 14511.73
748.4883, 14533.63
748.9705, 14575.34
749.4526, 14662.30
749.9347, 14781.31
750.4168, 14902.32
750.8989, 15027.74
751.3810, 15134.96
751.8632, 15207.86
752.3453, 15261.12
752.8274, 15330.67
753.3095, 15415.28
753.7916, 15508.91
754.2737, 15624.27
754.7558, 15734.79
755.2379, 15817.17
755.7200, 15872.64
756.2021, 15916.67
756.6843, 15932.91
757.1664, 15960.00
757.6485, 16030.48
758.1306, 16150.82
758.6127, 16176.04
759.0948, 16081.54
759.5770, 15971.23
760.0591, 15931.79
760.5412, 15939.88
761.0233, 15893.09
761.5054, 15787.59
761.9875, 15657.95
762.4697, 15530.21
762.9518, 15395.58
763.4339, 15236.72
763.9160, 15041.92
764.3981, 14867.20
764.8802, 14726.12
765.3624, 14614.87
765.8445, 14530.84
766.3266, 14492.29
766.8087, 14428.43
767.2908, 14328.34
767.7729, 14223.89
768.2551, 14150.57
768.7372, 14105.57
769.2193, 14079.88
769.7014, 14073.73
770.1835, 14077.95
770.6656, 14086.70
771.1478, 14099.10
771.6299, 14114.15
772.1120, 14136.05
772.5941, 14154.18
773.0762, 14159.60
773.5583, 14161.86
774.0405, 14174.82
774.5226, 14200.68
775.0047, 14230.57
775.4868, 14261.06
775.9689, 14297.63
776.4510, 14358.45
776.9332, 14437.86
777.4153, 14508.52
777.8974, 14563.21
778.3795, 14601.26
778.8616, 14606.30
779.3438, 14594.70
779.8259, 14603.97
780.3080, 14686.61
780.7901, 14749.62
781.2722, 14759.53
781.7543, 14728.45
782.2365, 14685.35
782.7186, 14623.41
783.2007, 14568.24
783.6828, 14525.57
784.1649, 14496.89
784.6470, 14497.34
785.1292, 14521.40
785.6113, 14529.33
786.0934, 14474.08
786.5755, 14411.99
787.0576, 14404.64
787.5397, 14441.40
788.0219, 14461.76
788.5040, 14426.04
788.9861, 14390.75
789.4682, 14376.25
789.9503, 14381.34
790.4324, 14389.50
790.9146, 14399.80
791.3967, 14416.23
791.8788, 14442.17
792.3609, 14475.76
792.8430, 14512.61
793.3251, 14552.36
793.8073, 14587.57
794.2894, 14615.02
794.7715, 14634.98
795.2536, 14641.43
795.7357, 14634.04
796.2178, 14642.87
796.7000, 14703.78
797.1821, 14754.85
797.6642, 14765.49
798.1463, 14733.11
798.6284, 14704.02
799.1105, 14676.00
799.5927, 14662.10
800.0748, 14690.97
800.5569, 14738.27
801.0390, 14735.85
801.5211, 14680.89
802.0032, 14613.47
802.4854, 14553.65
802.9675, 14497.19
803.4496, 14442.71
803.9317, 14390.42
804.4138, 14336.48
804.8959, 14281.68
805.3781, 14223.95
805.8602, 14157.16
806.3423, 14078.29
806.8243, 14027.52
807.3065, 14007.88
807.7886, 13997.22
808.2707, 13971.95
808.7528, 13942.45
809.2349, 13930.68
809.7170, 13941.34
810.1992, 13948.50
810.6813, 13929.11
811.1634, 13905.93
811.6455, 13895.67
812.1276, 13897.72
812.6097, 13921.31
813.0919, 13978.01
813.5740, 14037.68
814.0561, 14074.80
814.5382, 14090.28
815.0203, 14092.54
815.5024, 14080.47
815.9846, 14073.51
816.4667, 14086.58
816.9488, 14117.60
817.4309, 14167.08
817.9130, 14241.38
818.3951, 14310.83
818.8773, 14369.27
819.3594, 14416.51
819.8415, 14451.12
820.3236, 14462.45
820.8057, 14497.18
821.2878, 14564.94
821.7700, 14632.04
822.2521, 14649.71
822.7342, 14634.88
823.2163, 14650.19
823.6984, 14707.64
824.1805, 14772.18
824.6627, 14821.71
825.1448, 14860.31
825.6269, 14890.63
826.1090, 14909.27
826.5911, 14929.01
827.0732, 14958.32
827.5554, 14982.12
828.0375, 14987.98
828.5196, 14975.44
829.0017, 14949.44
829.4838, 14910.36
829.9659, 14858.46
830.4481, 14781.17
830.9302, 14696.34
831.4123, 14641.65
831.8944, 14635.61
832.3765, 14611.91
832.8586, 14509.44
833.3408, 14389.94
833.8229, 14315.08
834.3050, 14305.59
834.7871, 14295.07
835.2692, 14287.71
835.7513, 14271.53
836.2335, 14232.79
836.7156, 14173.50
837.1977, 14099.06
837.6798, 14007.55
838.1619, 13929.93
838.6440, 13902.33
839.1262, 13901.06
839.6083, 13903.23
840.0904, 13912.00
840.5725, 13901.24
841.0546, 13848.47
841.5367, 13789.06
842.0189, 13747.66
842.5010, 13725.51
842.9831, 13708.08
843.4652, 13689.49
843.9473, 13701.10
844.4294, 13821.27
844.9116, 13983.03
845.3937, 14040.70
845.8758, 13958.87
846.3579, 13888.78
846.8400, 13947.99
847.3221, 14032.08
847.8043, 14048.00
848.2864, 13955.66
848.7685, 13908.93
849.2506, 13929.07
849.7327, 13953.53
850.2148, 13924.60
850.6970, 13851.08
851.1791, 13790.33
851.6612, 13746.80
852.1433, 13706.72
852.6254, 13644.71
853.1075, 13589.44
853.5897, 13574.63
854.0718, 13610.77
854.5539, 13647.75
855.0360, 13687.86
855.5181, 13714.32
856.0002, 13711.84
856.4824, 13676.48
856.9645, 13666.56
857.4466, 13684.13
857.9287, 13708.61
858.4108, 13734.09
858.8929, 13750.85
859.3750, 13731.63
859.8571, 13675.89
860.3392, 13637.64
860.8214, 13659.18
861.3035, 13692.88
861.7856, 13707.61
862.2677, 13701.18
862.7498, 13716.75
863.2319, 13767.47
863.7141, 13803.00
864.1962, 13776.46
864.6783, 13710.80
865.1604, 13694.06
865.6425, 13722.36
866.1246, 13754.21
866.6068, 13760.67
867.0889, 13763.15
867.5710, 13781.24
868.0531, 13814.52
868.5352, 13832.65
869.0173, 13823.91
869.4995, 13681.25
869.9816, 13772.16
870.4637, 13826.80
870.9458, 13847.10
871.4279, 13730.27
871.9100, 13790.52
872.3922, 13779.81
872.8743, 13766.19
873.3564, 13851.37
873.8385, 13754.48
874.3206, 13838.10
874.8027, 13849.66
875.2849, 13894.20
875.7670, 13912.18
876.2491, 13907.07
876.7312, 13937.16
877.2133, 14009.29
877.6954, 14051.40
878.1776, 14024.30
878.6597, 13971.36
879.1418, 13960.92
879.6239, 13982.79
880.1060, 14012.00
880.5881, 14046.40
881.0703, 14076.87
881.5524, 14096.00
882.0345, 14109.85
882.5166, 14131.91
882.9987, 14167.01
883.4808, 14192.72
883.9630, 14201.30
884.4451, 14206.16
884.9272, 14231.58
885.4093, 14272.04
885.8914, 14311.85
886.3735, 14346.60
886.8557, 14379.26
887.3378, 14415.11
887.8199, 14449.00
888.3020, 14473.25
888.7841, 14481.50
889.2662, 14489.99
889.7484, 14494.03
890.2305, 14507.17
890.7126, 14553.30
891.1947, 14625.59
891.6768, 14681.68
892.1589, 14713.84
892.6411, 14747.48
893.1232, 14817.45
893.6053, 14891.99
894.0874, 14932.55
894.5695, 14912.76
895.0516, 14925.98
895.5338, 14992.00
896.0159, 15071.95
896.4980, 15137.64
896.9801, 15189.88
897.4622, 15255.80
897.9443, 15336.29
898.4265, 15407.82
898.9086, 15451.63
899.3907, 15476.79
899.8728, 15485.11
900.3549, 15477.39
900.8370, 15482.10
901.3192, 15533.73
901.8013, 15569.31
902.2834, 15552.30
902.7655, 15493.13
903.2476, 15503.73
903.7297, 15587.67
904.2119, 15654.27
904.6940, 15646.24
905.1761, 15595.88
905.6582, 15533.85
906.1403, 15465.50
906.6224, 15412.33
907.1046, 15392.76
907.5867, 15378.28
908.0688, 15359.25
908.5509, 15338.82
909.0330, 15328.58
909.5151, 15330.69
909.9973, 15321.31
910.4793, 15284.64
910.9614, 15249.41
911.4435, 15263.97
911.9257, 15312.12
912.4078, 15360.71
912.8899, 15402.07
913.3720, 15435.71
913.8541, 15457.64
914.3362, 15473.45
914.8184, 15488.16
915.3005, 15499.55
915.7826, 15525.23
916.2647, 15573.22
916.7468, 15613.09
917.2289, 15580.20
917.7111, 15520.13
918.1932, 15532.91
918.6753, 15654.25
919.1574, 15747.74
919.6395, 15723.45
920.1216, 15666.95
920.6038, 15645.90
921.0859, 15670.13
921.5680, 15666.06
922.0501, 15622.60
922.5322, 15598.82
923.0143, 15669.17
923.4965, 15783.44
923.9786, 15819.62
924.4607, 15781.81
924.9428, 15755.06
925.4249, 15799.90
925.9070, 15852.75
926.3892, 15878.93
926.8713, 15882.10
927.3534, 15887.27
927.8355, 15890.99
928.3176, 15912.14
928.7997, 15965.49
929.2819, 16033.44
929.7640, 16074.67
930.2461, 16098.18
930.7282, 16130.53
931.2103, 16189.36
931.6924, 16253.17
932.1746, 16317.70
932.6567, 16380.18
933.1388, 16433.38
933.6209, 16473.85
934.1030, 16518.24
934.5851, 16569.04
935.0673, 16625.28
935.5494, 16701.40
936.0315, 16779.82
936.5136, 16815.35
936.9957, 16779.81
937.4778, 16767.15
937.9600, 16841.33
938.4421, 16945.97
938.9242, 17030.87
939.4063, 17085.92
939.8884, 17166.93
940.3705, 17281.30
940.8527, 17389.17
941.3348, 17448.21
941.8169, 17479.18
942.2990, 17527.87
942.7811, 17594.54
943.2632, 17652.74
943.7454, 17687.70
944.2275, 17712.68
944.7096, 17728.45
945.1917, 17738.51
945.6738, 17764.85
946.1559, 17809.86
946.6381, 17860.78
947.1202, 17922.72
947.6023, 17975.00
948.0844, 17964.78
948.5665, 17915.19
949.0486, 17885.39
949.5308, 17901.38
950.0129, 17939.34
950.4950, 18016.99
950.9771, 18100.13
951.4592, 18138.96
951.9413, 18125.37
952.4235, 18116.70
952.9056, 18121.10
953.3877, 18127.48
953.8698, 18113.33
954.3519, 18095.91
954.8340, 18110.26
955.3162, 18172.70
955.7983, 18208.98
956.2804, 18151.48
956.7625, 18099.02
957.2446, 18119.70
957.7267, 18217.46
958.2089, 18254.90
958.6910, 18229.65
959.1731, 18189.36
959.6552, 18144.65
960.1373, 18117.35
960.6194, 18155.55
961.1016, 18242.69
961.5837, 18298.72
962.0658, 18272.07
962.5479, 18239.34
963.0300, 18209.85
963.5121, 18192.15
963.9942, 18221.16
964.4763, 18294.32
964.9584, 18343.19
965.4406, 18341.70
965.9227, 18322.84
966.4048, 18308.52
966.8869, 18303.15
967.3690, 18313.17
967.8511, 18349.42
968.3333, 18386.78
968.8154, 18434.51
969.2975, 18467.56
969.7796, 18449.25
970.2617, 18388.67
970.7438, 18370.91
971.2260, 18400.20
971.7081, 18438.14
972.1902, 18468.69
972.6723, 18485.74
973.1544, 18472.19
973.6365, 18428.95
974.1187, 18420.34
974.6008, 18457.90
975.0829, 18511.59
975.5650, 18583.84
976.0471, 18655.03
976.5292, 18665.25
977.0114, 18626.05
977.4935, 18582.03
977.9756, 18544.84
978.4577, 18517.79
978.9398, 18501.28
979.4219, 18496.81
979.9041, 18509.57
980.3862, 18555.61
980.8683, 18563.56
981.3504, 18518.54
981.8325, 18467.66
982.3146, 18469.59
982.7968, 18503.09
983.2789, 18528.05
983.7610, 18539.51
984.2431, 18538.25
984.7252, 18499.10
985.2073, 18472.47
985.6895, 18492.56
986.1716, 18555.88
986.6537, 18582.14
987.1358, 18566.97
987.6179, 18571.21
988.1000, 18641.36
988.5822, 18734.58
989.0643, 18802.42
989.5464, 18847.79
990.0285, 18878.01
990.5106, 18854.93
990.9927, 18873.80
991.4749, 18971.04
991.9570, 19092.55
992.4391, 19160.09
992.9212, 19177.06
993.4033, 19178.78
993.8854, 19166.43
994.3676, 19169.87
994.8497, 19237.01
995.3318, 19318.46
995.8139, 19363.04
996.2960, 19353.34
996.7781, 19377.79
997.2603, 19465.99
997.7424, 19526.12
998.2245, 19496.62
998.7066, 19405.20
999.1887, 19341.82
999.6708, 19301.14
1000.153, 19258.01
1000.635, 19186.29
1001.117, 19123.31
1001.599, 19096.94
1002.081, 19088.65
1002.564, 19061.05
1003.046, 19013.63
1003.528, 18946.32
1004.010, 18852.94
1004.492, 18764.36
1004.974, 18728.94
1005.456, 18721.15
1005.938, 18699.62
1006.420, 18654.52
1006.903, 18614.67
1007.385, 18589.62
1007.867, 18572.05
1008.349, 18562.94
1008.831, 18560.31
1009.313, 18538.86
1009.795, 18499.28
1010.277, 18461.90
1010.760, 18440.57
1011.242, 18423.21
1011.724, 18393.55
1012.206, 18360.08
1012.688, 18345.71
1013.170, 18370.49
1013.652, 18379.01
1014.134, 18356.84
1014.616, 18333.20
1015.099, 18356.19
1015.581, 18410.94
1016.063, 18453.82
1016.545, 18477.93
1017.027, 18491.89
1017.509, 18490.22
1017.991, 18489.09
1018.473, 18503.00
1018.955, 18531.53
1019.438, 18538.67
1019.920, 18520.64
1020.402, 18511.58
1020.884, 18532.82
1021.366, 18569.02
1021.848, 18600.05
1022.330, 18628.86
1022.812, 18662.33
1023.294, 18721.94
1023.777, 18758.01
1024.259, 18755.45
1024.741, 18739.58
1025.223, 18744.40
1025.705, 18766.37
1026.187, 18777.92
1026.669, 18775.58
1027.151, 18773.77
1027.634, 18776.84
1028.116, 18789.87
1028.598, 18822.00
1029.080, 18873.45
1029.562, 18912.69
1030.044, 18937.71
1030.526, 18958.48
1031.008, 18978.54
1031.490, 18997.13
1031.973, 19010.99
1032.455, 19022.79
1032.937, 19038.89
1033.419, 19063.60
1033.901, 19090.28
1034.383, 19122.98
1034.865, 19151.92
1035.347, 19157.20
1035.830, 19138.51
1036.312, 19178.48
1036.794, 19282.16
1037.276, 19376.77
1037.758, 19392.42
1038.240, 19382.60
1038.722, 19384.50
1039.204, 19401.48
1039.687, 19437.95
1040.169, 19503.63
1040.651, 19558.78
1041.133, 19585.43
1041.615, 19607.08
1042.097, 19680.82
1042.579, 19782.04
1043.061, 19849.09
1043.543, 19845.34
1044.026, 19855.47
1044.508, 19918.38
1044.990, 20002.42
1045.472, 20089.29
1045.954, 20180.51
1046.436, 20256.27
1046.918, 20316.53
1047.400, 20367.19
1047.882, 20405.05
1048.365, 20441.14
1048.847, 20489.04
1049.329, 20543.91
1049.811, 20586.51
1050.293, 20600.61
1050.775, 20636.93
1051.257, 20708.50
1051.739, 20792.01
1052.221, 20861.92
1052.704, 20916.23
1053.186, 20944.68
1053.668, 20942.05
1054.150, 20945.52
1054.632, 20976.23
1055.114, 21013.71
1055.596, 21044.99
1056.078, 21072.26
1056.561, 21124.53
1057.043, 21200.48
1057.525, 21252.72
1058.007, 21257.16
1058.489, 21231.55
1058.971, 21154.89
1059.453, 21070.56
1059.935, 21056.84
1060.417, 21181.83
1060.900, 21249.01
1061.382, 21241.22
1061.864, 21207.55
1062.346, 21185.58
1062.828, 21175.54
1063.310, 21183.50
1063.792, 21207.59
1064.274, 21227.50
1064.756, 21223.05
1065.239, 21227.79
1065.721, 21266.50
1066.203, 21314.56
1066.685, 21293.08
1067.167, 21209.95
1067.649, 21155.23
1068.131, 21151.37
1068.613, 21183.81
1069.096, 21275.94
1069.578, 21375.86
1070.060, 21428.17
1070.542, 21419.87
1071.024, 21419.64
1071.506, 21426.93
1071.988, 21444.70
1072.470, 21478.04
1072.953, 21520.97
1073.435, 21561.06
1073.917, 21601.92
1074.399, 21653.98
1074.881, 21735.10
1075.363, 21808.05
1075.845, 21872.12
1076.327, 21921.81
1076.809, 21937.49
1077.292, 21930.03
1077.774, 21967.95
1078.256, 22057.32
1078.738, 22144.26
1079.220, 22155.83
1079.702, 22188.45
1080.184, 22343.64
1080.666, 22575.15
1081.148, 22685.50
1081.631, 22661.47
1082.113, 22666.05
1082.595, 22755.88
1083.077, 22867.44
1083.559, 22924.01
1084.041, 22959.02
1084.523, 23019.85
1085.005, 23131.61
1085.488, 23217.75
1085.970, 23264.47
1086.452, 23313.28
1086.934, 23393.55
1087.416, 23494.52
1087.898, 23593.20
1088.380, 23684.50
1088.862, 23748.72
1089.344, 23736.04
1089.827, 23748.20
1090.309, 23829.52
1090.791, 23933.05
1091.273, 23998.13
1091.755, 24027.77
1092.237, 24075.47
1092.719, 24145.69
1093.201, 24224.16
1093.683, 24307.63
1094.166, 24388.81
1094.648, 24465.62
1095.130, 24536.19
1095.612, 24581.26
1096.094, 24588.82
1096.576, 24643.70
1097.058, 24777.62
1097.540, 24942.84
1098.022, 25094.96
1098.505, 25231.90
1098.987, 25348.78
1099.469, 25439.30
1099.951, 25529.54
1100.433, 25604.56
1100.915, 25713.08
1101.397, 25899.18
1101.879, 26129.69
1102.362, 26306.95
1102.844, 26448.56
1103.326, 26614.58
1103.808, 26860.29
1104.290, 27097.38
1104.772, 27289.83
1105.254, 27477.75
1105.736, 27695.06
1106.219, 27944.54
1106.701, 28229.54
1107.183, 28552.76
1107.665, 28883.45
1108.147, 29213.31
1108.629, 29536.84
1109.111, 29845.49
1109.593, 30146.82
1110.075, 30457.79
1110.557, 30781.58
1111.040, 31096.70
1111.522, 31400.91
1112.004, 31683.75
1112.486, 31918.95
1112.968, 32130.30
1113.450, 32350.59
1113.932, 32587.01
1114.414, 32765.81
1114.897, 32874.26
1115.379, 32959.01
1115.861, 33046.94
1116.343, 33113.31
1116.825, 33104.59
1117.307, 33036.20
1117.789, 32941.85
1118.271, 32823.40
1118.754, 32698.35
1119.236, 32588.36
1119.718, 32447.81
1120.200, 32223.70
1120.682, 31933.38
1121.164, 31691.83
1121.646, 31496.84
1122.128, 31321.26
1122.610, 31160.80
1123.093, 31005.57
1123.575, 30847.58
1124.057, 30694.55
1124.539, 30554.70
1125.021, 30428.91
1125.503, 30328.46
1125.985, 30254.87
1126.467, 30196.97
1126.949, 30136.57
1127.432, 30096.08
1127.914, 30101.75
1128.396, 30148.16
1128.878, 30186.99
1129.360, 30216.42
1129.842, 30244.00
1130.324, 30266.11
1130.806, 30304.69
1131.289, 30392.41
1131.771, 30509.75
1132.253, 30624.31
1132.735, 30723.55
1133.217, 30894.19
1133.699, 31165.01
1134.181, 31430.65
1134.663, 31637.84
1135.146, 31818.81
1135.628, 32032.95
1136.110, 32274.97
1136.592, 32526.02
1137.074, 32759.44
1137.556, 33055.38
1138.038, 33459.21
1138.520, 33864.50
1139.002, 34173.69
1139.484, 34415.28
1139.967, 34701.96
1140.449, 35027.91
1140.931, 35356.52
1141.413, 35677.38
1141.895, 35983.47
1142.377, 36256.92
1142.859, 36524.49
1143.341, 36833.93
1143.824, 37176.07
1144.306, 37455.27
1144.788, 37663.05
1145.270, 37826.14
1145.752, 37975.35
1146.234, 38075.18
1146.716, 38083.59
1147.198, 38029.44
1147.680, 37995.62
1148.163, 37986.45
1148.645, 37886.25
1149.127, 37668.43
1149.609, 37384.15
1150.091, 37055.88
1150.573, 36697.32
1151.055, 36317.54
1151.537, 35916.01
1152.020, 35476.95
1152.502, 34993.10
1152.984, 34487.38
1153.466, 33950.15
1153.948, 33429.13
1154.430, 32999.72
1154.912, 32607.23
1155.394, 32169.08
1155.876, 31632.48
1156.359, 31191.26
1156.841, 30855.71
1157.323, 30582.39
1157.805, 30359.48
1158.287, 30173.30
1158.769, 29998.24
1159.251, 29837.86
1159.733, 29699.70
1160.215, 29575.78
1160.698, 29501.71
1161.180, 29507.06
1161.662, 29499.60
1162.144, 29364.70
1162.626, 29170.34
1163.108, 29088.32
1163.590, 29103.62
1164.072, 29133.96
1164.555, 29147.75
1165.037, 29174.30
1165.519, 29220.49
1166.001, 29277.18
1166.483, 29324.39
1166.965, 29372.27
1167.447, 29465.83
1167.929, 29604.39
1168.411, 29728.80
1168.894, 29798.86
1169.376, 29860.64
1169.858, 29932.87
1170.340, 30004.15
1170.822, 30055.17
1171.304, 30084.30
1171.786, 30071.16
1172.268, 30007.27
1172.750, 29958.41
1173.233, 30032.82
1173.715, 30056.78
1174.197, 29925.83
1174.679, 29680.15
1175.161, 29468.50
1175.643, 29288.49
1176.125, 29115.74
1176.607, 28934.68
1177.090, 28779.45
1177.572, 28715.45
1178.054, 28646.71
1178.536, 28477.96
1179.018, 28220.36
1179.500, 28077.86
1179.982, 28044.46
1180.464, 27985.10
1180.947, 27815.78
1181.429, 27645.45
1181.911, 27568.96
1182.393, 27528.96
1182.875, 27453.13
1183.357, 27329.96
1183.839, 27261.57
1184.321, 27248.33
1184.803, 27237.52
1185.286, 27184.39
1185.768, 27132.79
1186.250, 27120.24
1186.732, 27132.65
1187.214, 27145.25
1187.696, 27157.37
1188.178, 27170.62
1188.660, 27185.86
1189.142, 27192.78
1189.625, 27175.19
1190.107, 27152.63
1190.589, 27147.23
1191.071, 27151.09
1191.553, 27137.50
1192.035, 27094.76
1192.517, 27086.74
1192.999, 27124.99
1193.482, 27162.85
1193.964, 27134.38
1194.446, 27099.59
1194.928, 27134.26
1195.410, 27225.23
1195.892, 27267.21
1196.374, 27234.34
1196.856, 27247.90
1197.338, 27340.95
1197.821, 27436.08
1198.303, 27437.18
1198.785, 27400.65
1199.267, 27387.02
1199.749, 27402.09
1200.231, 27422.67
1200.713, 27447.88
1201.195, 27479.84
1201.677, 27522.99
1202.160, 27562.73
1202.642, 27565.74
1203.124, 27562.94
1203.606, 27601.47
1204.088, 27694.21
1204.570, 27747.93
1205.052, 27743.27
1205.534, 27766.84
1206.016, 27867.06
1206.499, 27977.47
1206.981, 27987.96
1207.463, 27956.50
1207.945, 27966.31
1208.427, 28043.00
1208.909, 28132.08
1209.391, 28245.68
1209.873, 28325.27
1210.356, 28326.54
1210.838, 28301.66
1211.320, 28308.35
1211.802, 28351.35
1212.284, 28446.28
1212.766, 28643.39
1213.248, 28756.37
1213.730, 28760.91
1214.213, 28775.48
1214.695, 28894.24
1215.177, 29046.52
1215.659, 29120.44
1216.141, 29152.12
1216.623, 29217.36
1217.105, 29358.92
1217.587, 29472.51
1218.069, 29550.42
1218.552, 29628.11
1219.034, 29721.86
1219.516, 29839.13
1219.998, 29989.81
1220.480, 30170.14
1220.962, 30373.88
1221.444, 30631.93
1221.926, 30825.06
1222.408, 30931.68
1222.891, 31046.01
1223.373, 31271.72
1223.855, 31536.74
1224.337, 31758.89
1224.819, 31941.19
1225.301, 32098.36
1225.783, 32210.06
1226.265, 32367.81
1226.748, 32586.62
1227.230, 32824.16
1227.712, 33049.40
1228.194, 33264.01
1228.676, 33473.36
1229.158, 33673.21
1229.640, 33842.40
1230.122, 33967.84
1230.604, 34115.80
1231.087, 34302.56
1231.569, 34470.45
1232.051, 34559.38
1232.533, 34602.18
1233.015, 34620.23
1233.497, 34620.76
1233.979, 34641.32
1234.461, 34694.53
1234.943, 34707.13
1235.426, 34660.43
1235.908, 34600.12
1236.390, 34592.94
1236.872, 34580.06
1237.354, 34499.86
1237.836, 34350.97
1238.318, 34184.00
1238.800, 33991.66
1239.283, 33847.32
1239.765, 33779.06
1240.247, 33711.41
1240.729, 33533.91
1241.211, 33349.77
1241.693, 33275.14
1242.175, 33296.38
1242.657, 33273.31
1243.140, 33202.58
1243.622, 33148.41
1244.104, 33132.77
1244.586, 33112.36
1245.068, 33027.16
1245.550, 32937.44
1246.032, 32900.24
1246.514, 32907.79
1246.996, 32909.83
1247.479, 32906.28
1247.961, 32889.93
1248.443, 32852.77
1248.925, 32824.10
1249.407, 32838.25
1249.889, 32858.28
1250.371, 32842.70
1250.853, 32804.84
1251.335, 32853.02
1251.818, 32978.16
1252.300, 33090.68
1252.782, 33161.59
1253.264, 33220.94
1253.746, 33273.66
1254.228, 33334.97
1254.710, 33418.27
1255.192, 33517.82
1255.674, 33594.37
1256.157, 33655.45
1256.639, 33739.68
1257.121, 33866.39
1257.603, 34001.93
1258.085, 34141.92
1258.567, 34275.96
1259.049, 34405.71
1259.531, 34522.63
1260.014, 34561.88
1260.496, 34553.21
1260.978, 34598.60
1261.460, 34758.14
1261.942, 34916.39
1262.424, 35046.96
1262.906, 35167.71
1263.388, 35289.50
1263.870, 35407.20
1264.353, 35495.01
1264.835, 35566.34
1265.317, 35654.94
1265.799, 35777.16
1266.281, 35908.87
1266.763, 36056.76
1267.245, 36190.99
1267.727, 36270.89
1268.209, 36342.75
1268.692, 36527.21
1269.174, 36769.18
1269.656, 36955.22
1270.138, 36994.50
1270.620, 37106.84
1271.102, 37300.29
1271.584, 37544.89
1272.066, 37828.86
1272.549, 38142.57
1273.031, 38499.73
1273.513, 38866.20
1273.995, 39179.98
1274.477, 39397.71
1274.959, 39675.22
1275.441, 40014.65
1275.923, 40377.84
1276.406, 40738.14
1276.888, 41108.59
1277.370, 41513.25
1277.852, 41925.28
1278.334, 42307.05
1278.816, 42656.56
1279.298, 42980.53
1279.780, 43276.47
1280.262, 43539.47
1280.745, 43766.27
1281.227, 43954.20
1281.709, 44072.97
1282.191, 44175.98
1282.673, 44360.25
1283.155, 44625.05
1283.637, 44656.08
1284.119, 44467.22
1284.601, 44189.25
1285.084, 43876.68
1285.566, 43513.32
1286.048, 43089.37
1286.530, 42617.98
1287.012, 42080.78
1287.494, 41500.08
1287.976, 41019.67
1288.458, 40611.39
1288.941, 40157.13
1289.423, 39494.41
1289.905, 38955.00
1290.387, 38608.03
1290.869, 38331.96
1291.351, 38035.66
1291.833, 37730.30
1292.315, 37430.32
1292.797, 37148.05
1293.280, 36920.06
1293.762, 36761.17
1294.244, 36664.65
1294.726, 36642.32
1295.208, 36640.09
1295.690, 36622.95
1296.172, 36596.84
1296.654, 36563.18
1297.136, 36528.32
1297.619, 36507.52
1298.101, 36504.91
1298.583, 36497.90
1299.065, 36484.05
1299.547, 36490.96
1300.029, 36564.24
##END=



