##NAMES=Abhurite
##RRUFFID=R060227
##IDEAL CHEMISTRY=Sn^2+^_21_O_6_(OH)_14_Cl_16_
##LOCALITY=Wreck of the SS Cheerful, 14 miles NNW of St. Ives, Cornwall, England
##OWNER=RRUFF
##SOURCE=Michael Scott
##DESCRIPTION=Aggregate of tan colored platy crystals
##STATUS=The identification of this mineral is confirmed by single-crystal X-ray diffraction and chemical analysis.
##URL=rruff.info/R060227
##MEASURED CHEMISTRY=Sn^2+^_21.00_Cl_16.00_(OH)_14.00_O_6_; (OH) estimated by difference
91.82715, 8511.991
92.30927, 8360.948
92.79138, 8389.858
93.27350, 8527.466
93.75562, 8657.752
94.23773, 8758.342
94.71985, 8844.601
95.20197, 8913.393
95.68408, 8975.489
96.16620, 9018.394
96.64832, 9039.753
97.13043, 9042.593
97.61255, 9025.968
98.09467, 8987.147
98.57678, 8926.068
99.05890, 8824.702
99.54102, 8693.179
100.0231, 8555.295
100.5052, 8427.686
100.9874, 8315.699
101.4695, 8218.065
101.9516, 8137.776
102.4337, 8071.788
102.9158, 8025.574
103.3979, 8005.682
103.8801, 8005.401
104.3622, 8012.709
104.8443, 8017.064
105.3264, 8016.535
105.8085, 8039.268
106.2906, 8090.248
106.7728, 8152.197
107.2549, 8215.198
107.7370, 8278.203
108.2191, 8347.215
108.7012, 8429.271
109.1833, 8524.923
109.6655, 8626.104
110.1476, 8728.229
110.6297, 8835.790
111.1118, 8959.130
111.5939, 9103.983
112.0760, 9255.011
112.5582, 9409.158
113.0403, 9564.729
113.5224, 9686.838
114.0045, 9765.187
114.4866, 9798.688
114.9688, 9756.313
115.4509, 9599.380
115.9330, 9379.057
116.4151, 9109.607
116.8972, 8795.980
117.3793, 8464.096
117.8615, 8139.337
118.3436, 7810.058
118.8257, 7523.827
119.3078, 7278.406
119.7899, 7071.038
120.2720, 6902.979
120.7542, 6774.393
121.2363, 6679.896
121.7184, 6603.384
122.2005, 6551.677
122.6826, 6514.486
123.1647, 6496.958
123.6468, 6492.639
124.1290, 6493.791
124.6111, 6496.453
125.0932, 6500.262
125.5753, 6502.220
126.0574, 6499.757
126.5395, 6498.401
127.0217, 6502.829
127.5038, 6511.566
127.9859, 6517.470
128.4680, 6516.216
128.9501, 6506.942
129.4323, 6491.454
129.9144, 6469.810
130.3965, 6441.890
130.8786, 6407.244
131.3607, 6365.642
131.8428, 6318.303
132.3250, 6262.476
132.8071, 6201.428
133.2892, 6141.629
133.7713, 6083.390
134.2534, 6028.200
134.7355, 5980.318
135.2177, 5940.587
135.6998, 5908.438
136.1819, 5881.494
136.6640, 5860.487
137.1461, 5847.423
137.6282, 5844.536
138.1104, 5852.349
138.5925, 5864.580
139.0746, 5883.884
139.5567, 5905.600
140.0388, 5928.333
140.5209, 5951.899
141.0031, 5977.221
141.4852, 6006.214
141.9673, 6043.396
142.4494, 6071.766
142.9315, 6100.017
143.4136, 6115.915
143.8958, 6113.232
144.3779, 6089.813
144.8600, 6045.435
145.3421, 5978.911
145.8242, 5884.205
146.3063, 5774.372
146.7885, 5644.076
147.2706, 5500.300
147.7527, 5349.329
148.2348, 5191.978
148.7169, 5032.404
149.1990, 4876.133
149.6812, 4719.329
150.1633, 4571.713
150.6454, 4439.084
151.1275, 4318.835
151.6096, 4205.296
152.0917, 4097.036
152.5739, 3994.017
153.0560, 3893.024
153.5381, 3793.108
154.0202, 3699.510
154.5023, 3617.655
154.9844, 3548.057
155.4665, 3484.041
155.9487, 3423.481
156.4308, 3368.591
156.9129, 3321.413
157.3950, 3282.346
157.8771, 3251.621
158.3592, 3230.629
158.8414, 3222.602
159.3235, 3216.910
159.8056, 3209.997
160.2877, 3204.239
160.7698, 3201.188
161.2519, 3201.404
161.7341, 3205.678
162.2162, 3216.594
162.6983, 3239.650
163.1804, 3262.693
163.6625, 3284.518
164.1446, 3305.199
164.6268, 3324.622
165.1089, 3342.772
165.5910, 3359.875
166.0731, 3377.883
166.5552, 3399.623
167.0373, 3419.247
167.5195, 3436.898
168.0016, 3451.603
168.4837, 3461.815
168.9658, 3466.447
169.4479, 3465.534
169.9300, 3460.782
170.4122, 3454.890
170.8943, 3443.715
171.3764, 3422.066
171.8585, 3392.117
172.3406, 3363.230
172.8227, 3343.128
173.3049, 3330.746
173.7870, 3313.385
174.2691, 3286.171
174.7512, 3257.287
175.2333, 3231.854
175.7154, 3209.928
176.1976, 3193.546
176.6797, 3185.802
177.1618, 3185.041
177.6439, 3187.942
178.1260, 3192.647
178.6081, 3201.073
179.0903, 3216.295
179.5724, 3238.805
180.0545, 3266.830
180.5366, 3297.450
181.0187, 3332.403
181.5008, 3375.442
181.9830, 3428.595
182.4651, 3490.908
182.9472, 3560.596
183.4293, 3639.770
183.9114, 3723.654
184.3935, 3809.775
184.8757, 3898.064
185.3578, 3989.248
185.8399, 4084.009
186.3220, 4182.167
186.8041, 4279.280
187.2862, 4374.917
187.7684, 4470.286
188.2505, 4565.333
188.7326, 4660.331
189.2147, 4755.898
189.6968, 4851.993
190.1789, 4949.005
190.6611, 5046.149
191.1432, 5141.862
191.6253, 5239.816
192.1074, 5339.781
192.5895, 5442.403
193.0716, 5549.721
193.5538, 5662.870
194.0359, 5782.694
194.5180, 5905.695
195.0001, 6028.603
195.4822, 6156.658
195.9643, 6292.538
196.4465, 6435.755
196.9286, 6585.102
197.4107, 6738.978
197.8928, 6897.887
198.3749, 7059.712
198.8570, 7225.887
199.3392, 7393.435
199.8213, 7562.571
200.3034, 7732.947
200.7855, 7899.680
201.2676, 8061.171
201.7497, 8216.355
202.2319, 8355.313
202.7140, 8484.861
203.1961, 8593.944
203.6782, 8676.813
204.1603, 8733.765
204.6424, 8754.386
205.1246, 8725.998
205.6067, 8651.339
206.0888, 8535.006
206.5709, 8374.048
207.0530, 8172.996
207.5351, 7934.431
208.0173, 7653.741
208.4994, 7348.660
208.9815, 7019.278
209.4636, 6675.111
209.9457, 6335.456
210.4278, 6000.097
210.9100, 5673.845
211.3921, 5365.076
211.8742, 5075.433
212.3563, 4804.988
212.8384, 4552.136
213.3205, 4315.835
213.8027, 4095.584
214.2848, 3891.759
214.7669, 3704.024
215.2490, 3535.676
215.7311, 3391.372
216.2132, 3260.869
216.6954, 3138.882
217.1775, 3025.204
217.6596, 2919.079
218.1417, 2820.147
218.6238, 2728.361
219.1059, 2644.686
219.5881, 2571.345
220.0702, 2505.232
220.5523, 2446.112
221.0344, 2393.001
221.5165, 2344.119
221.9986, 2298.540
222.4808, 2256.392
222.9629, 2218.840
223.4450, 2189.480
223.9271, 2161.789
224.4092, 2132.734
224.8913, 2104.464
225.3735, 2081.006
225.8556, 2065.192
226.3377, 2056.445
226.8198, 2047.216
227.3019, 2036.675
227.7840, 2026.565
228.2662, 2015.908
228.7483, 2006.043
229.2304, 1999.546
229.7125, 1998.277
230.1946, 2001.673
230.6767, 2003.672
231.1589, 1999.695
231.6410, 1999.353
232.1231, 2006.703
232.6052, 2019.399
233.0873, 2032.577
233.5694, 2043.109
234.0516, 2051.810
234.5337, 2064.879
235.0158, 2084.008
235.4979, 2104.743
235.9800, 2125.382
236.4621, 2146.622
236.9443, 2170.595
237.4264, 2198.855
237.9085, 2230.338
238.3906, 2260.216
238.8727, 2288.072
239.3548, 2315.087
239.8370, 2339.885
240.3191, 2363.908
240.8012, 2390.871
241.2833, 2423.198
241.7654, 2459.126
242.2475, 2493.606
242.7297, 2526.298
243.2118, 2558.314
243.6939, 2588.535
244.1760, 2617.985
244.6581, 2649.877
245.1402, 2685.875
245.6224, 2724.685
246.1045, 2763.778
246.5866, 2802.832
247.0687, 2842.585
247.5508, 2884.253
248.0329, 2927.029
248.5151, 2968.747
248.9972, 3009.192
249.4793, 3047.789
249.9614, 3084.646
250.4435, 3120.378
250.9256, 3152.167
251.4078, 3180.141
251.8899, 3203.440
252.3720, 3219.300
252.8541, 3227.337
253.3362, 3226.025
253.8183, 3215.786
254.3005, 3196.805
254.7826, 3170.263
255.2647, 3137.294
255.7468, 3097.576
256.2289, 3049.149
256.7110, 2990.381
257.1931, 2923.501
257.6753, 2851.223
258.1574, 2773.919
258.6395, 2693.719
259.1216, 2610.236
259.6037, 2524.505
260.0858, 2441.124
260.5680, 2361.284
261.0501, 2283.423
261.5322, 2205.062
262.0143, 2127.068
262.4964, 2052.062
262.9785, 1982.088
263.4607, 1916.869
263.9428, 1852.733
264.4249, 1788.536
264.9070, 1728.015
265.3891, 1672.751
265.8712, 1621.817
266.3534, 1573.603
266.8355, 1526.744
267.3176, 1481.908
267.7997, 1441.934
268.2818, 1409.459
268.7639, 1378.085
269.2461, 1345.244
269.7282, 1311.844
270.2103, 1279.049
270.6924, 1247.261
271.1745, 1216.735
271.6566, 1188.866
272.1388, 1164.839
272.6209, 1141.958
273.1030, 1119.284
273.5851, 1097.142
274.0672, 1076.220
274.5493, 1056.746
275.0315, 1038.425
275.5136, 1020.738
275.9957, 1003.786
276.4778, 987.2568
276.9599, 970.9026
277.4420, 954.9401
277.9242, 939.6970
278.4063, 925.2121
278.8884, 911.1344
279.3705, 896.3522
279.8526, 879.4774
280.3347, 865.1829
280.8169, 855.4106
281.2990, 846.9787
281.7811, 837.8656
282.2632, 827.4863
282.7453, 816.2467
283.2274, 804.3917
283.7096, 790.8130
284.1917, 779.5337
284.6738, 771.2058
285.1559, 764.3766
285.6380, 759.0371
286.1201, 754.7327
286.6023, 750.0117
287.0844, 742.9443
287.5665, 732.7386
288.0486, 723.4827
288.5307, 714.5636
289.0128, 707.0426
289.4950, 702.1989
289.9771, 699.4421
290.4592, 696.8912
290.9413, 692.8058
291.4234, 687.0631
291.9055, 681.5155
292.3877, 675.7380
292.8698, 670.5555
293.3519, 666.4570
293.8340, 663.1803
294.3161, 660.1583
294.7982, 656.9988
295.2804, 653.7192
295.7625, 650.6927
296.2446, 647.1952
296.7267, 644.7807
297.2088, 644.5807
297.6909, 645.5023
298.1731, 646.0516
298.6552, 645.4233
299.1373, 643.7629
299.6194, 641.5947
300.1015, 638.1670
300.5836, 635.1381
301.0658, 632.2924
301.5479, 630.0683
302.0300, 629.1877
302.5121, 629.9004
302.9942, 631.3821
303.4763, 631.8978
303.9585, 630.4042
304.4406, 629.4749
304.9227, 629.2565
305.4048, 629.4875
305.8869, 629.9536
306.3690, 630.6084
306.8512, 631.5551
307.3333, 632.9399
307.8154, 634.8235
308.2975, 637.0516
308.7796, 639.8668
309.2617, 642.7828
309.7439, 645.5157
310.2260, 648.0492
310.7081, 650.5403
311.1902, 653.1899
311.6723, 656.1498
312.1544, 658.2474
312.6366, 658.7344
313.1187, 659.2398
313.6008, 659.8888
314.0829, 661.0556
314.5650, 663.4450
315.0471, 667.6315
315.5293, 673.4985
316.0114, 679.5255
316.4935, 687.1442
316.9756, 693.3628
317.4577, 696.5236
317.9398, 698.0801
318.4220, 700.1373
318.9041, 703.7670
319.3862, 708.5947
319.8683, 713.5121
320.3504, 719.0714
320.8326, 723.9110
321.3147, 726.9191
321.7968, 729.6847
322.2789, 733.9454
322.7610, 740.1876
323.2431, 747.4525
323.7253, 754.0297
324.2074, 759.3448
324.6895, 765.1290
325.1716, 771.8556
325.6537, 778.6712
326.1358, 785.2111
326.6180, 791.3253
327.1001, 796.8649
327.5822, 801.5541
328.0643, 805.0529
328.5464, 809.5338
329.0285, 815.7429
329.5107, 822.0812
329.9928, 827.7726
330.4749, 833.0228
330.9570, 838.5012
331.4391, 844.7839
331.9212, 851.7766
332.4034, 858.0438
332.8855, 863.6099
333.3676, 868.4144
333.8497, 871.6650
334.3318, 874.3193
334.8139, 877.5797
335.2961, 882.0123
335.7782, 887.5355
336.2603, 893.9784
336.7424, 903.8914
337.2245, 910.7477
337.7066, 911.8502
338.1888, 911.2681
338.6709, 912.2520
339.1530, 915.8008
339.6351, 921.1953
340.1172, 927.5783
340.5993, 935.5294
341.0815, 942.9517
341.5636, 949.5511
342.0457, 955.9039
342.5278, 962.0485
343.0099, 968.1685
343.4920, 974.7766
343.9742, 982.6504
344.4563, 991.9594
344.9384, 999.3656
345.4205, 1001.269
345.9026, 1004.766
346.3847, 1012.955
346.8669, 1023.975
347.3490, 1034.201
347.8311, 1041.179
348.3132, 1046.127
348.7953, 1054.021
349.2774, 1068.107
349.7596, 1080.198
350.2417, 1086.950
350.7238, 1092.124
351.2059, 1099.702
351.6880, 1111.038
352.1701, 1123.828
352.6523, 1134.190
353.1344, 1141.412
353.6165, 1148.337
354.0986, 1155.543
354.5807, 1162.341
355.0628, 1168.458
355.5450, 1173.784
356.0271, 1178.129
356.5092, 1181.165
356.9913, 1182.846
357.4734, 1184.177
357.9555, 1184.946
358.4377, 1185.569
358.9198, 1186.633
359.4019, 1187.677
359.8840, 1187.783
360.3661, 1186.391
360.8482, 1183.716
361.3304, 1180.408
361.8125, 1176.649
362.2946, 1171.835
362.7767, 1165.513
363.2588, 1158.242
363.7409, 1150.313
364.2231, 1141.659
364.7052, 1133.092
365.1873, 1126.536
365.6694, 1122.502
366.1515, 1115.323
366.6336, 1101.012
367.1158, 1085.176
367.5979, 1072.307
368.0800, 1062.346
368.5621, 1051.862
369.0442, 1037.440
369.5263, 1020.118
370.0085, 1005.239
370.4906, 994.2427
370.9727, 983.8727
371.4548, 971.8288
371.9369, 958.7294
372.4190, 945.7888
372.9012, 933.9767
373.3833, 922.3188
373.8654, 908.8809
374.3475, 893.3965
374.8296, 878.8688
375.3117, 867.0753
375.7939, 857.1558
376.2760, 847.9534
376.7581, 839.7952
377.2402, 831.1961
377.7223, 820.8477
378.2044, 809.0682
378.6866, 797.1486
379.1687, 785.1516
379.6508, 773.5220
380.1329, 762.8356
380.6150, 753.0795
381.0971, 743.6176
381.5793, 734.1721
382.0614, 724.8813
382.5435, 715.9320
383.0256, 707.3015
383.5077, 699.1423
383.9898, 691.6473
384.4720, 684.7563
384.9541, 677.5863
385.4362, 669.3339
385.9183, 661.5446
386.4004, 655.5706
386.8825, 650.9610
387.3647, 646.1976
387.8468, 640.7586
388.3289, 634.4630
388.8110, 626.4328
389.2931, 615.0049
389.7752, 605.5963
390.2574, 600.8085
390.7395, 597.9664
391.2216, 593.8561
391.7037, 587.7867
392.1858, 581.0702
392.6679, 575.2422
393.1501, 570.5185
393.6322, 565.6397
394.1143, 559.0402
394.5964, 553.6697
395.0785, 552.8197
395.5606, 554.8768
396.0428, 554.8316
396.5249, 549.1359
397.0070, 539.1937
397.4891, 532.3955
397.9712, 532.0236
398.4533, 530.9761
398.9355, 527.8695
399.4176, 523.9995
399.8997, 520.8646
400.3818, 518.9072
400.8639, 517.3455
401.3460, 514.9458
401.8282, 511.2319
402.3103, 508.0099
402.7924, 505.2625
403.2745, 502.9226
403.7566, 501.0406
404.2387, 499.5478
404.7209, 498.3140
405.2030, 497.3000
405.6851, 496.4490
406.1672, 495.3412
406.6493, 493.6130
407.1314, 492.1713
407.6136, 491.2558
408.0957, 490.6898
408.5778, 490.4190
409.0599, 490.4345
409.5420, 490.3254
410.0241, 489.2945
410.5063, 487.0775
410.9884, 485.3884
411.4705, 484.7458
411.9526, 484.5129
412.4347, 484.7347
412.9168, 485.1818
413.3990, 485.0252
413.8811, 482.9764
414.3632, 479.8015
414.8453, 478.6078
415.3274, 480.1672
415.8095, 481.8096
416.2917, 482.4031
416.7738, 482.1189
417.2559, 480.9059
417.7380, 478.3476
418.2201, 475.7193
418.7022, 474.2663
419.1844, 473.9019
419.6665, 473.9182
420.1486, 474.4951
420.6307, 474.8459
421.1128, 473.5461
421.5949, 470.5769
422.0771, 468.6470
422.5592, 469.2521
423.0413, 471.2183
423.5234, 473.3970
424.0055, 475.6721
424.4876, 476.9351
424.9698, 475.9641
425.4519, 473.1434
425.9340, 471.3425
426.4161, 470.9189
426.8982, 471.0920
427.3803, 471.9284
427.8625, 473.0807
428.3446, 473.7265
428.8267, 473.5168
429.3088, 473.0010
429.7909, 473.0905
430.2730, 473.8941
430.7552, 475.2115
431.2373, 478.2010
431.7194, 480.8298
432.2015, 481.1042
432.6836, 479.3590
433.1657, 477.7228
433.6479, 477.9481
434.1300, 479.8639
434.6121, 481.2048
435.0942, 480.5212
435.5763, 480.9618
436.0584, 484.3438
436.5406, 488.5493
437.0227, 490.8744
437.5048, 490.4586
437.9869, 489.0493
438.4690, 489.5749
438.9511, 493.0093
439.4333, 495.2057
439.9154, 494.9061
440.3975, 494.4216
440.8796, 494.4109
441.3617, 495.0592
441.8438, 496.6877
442.3260, 499.9849
442.8081, 504.0834
443.2902, 505.7575
443.7723, 504.0444
444.2544, 502.3281
444.7365, 501.1270
445.2187, 500.8085
445.7008, 502.2327
446.1829, 505.6730
446.6650, 509.0738
447.1471, 510.4280
447.6292, 510.0795
448.1114, 509.8893
448.5935, 510.0275
449.0756, 510.5567
449.5577, 511.8315
450.0398, 513.5787
450.5219, 514.9830
451.0041, 515.7584
451.4862, 516.1426
451.9683, 515.9729
452.4504, 515.4198
452.9325, 515.8168
453.4146, 518.1680
453.8968, 521.3129
454.3789, 522.4016
454.8610, 520.5676
455.3431, 519.8493
455.8252, 522.0660
456.3073, 525.3579
456.7895, 527.8214
457.2716, 529.1740
457.7537, 529.9777
458.2358, 530.5986
458.7179, 531.0397
459.2000, 532.2494
459.6822, 534.9928
460.1643, 537.4952
460.6464, 539.2796
461.1285, 540.5238
461.6106, 541.4131
462.0927, 542.0337
462.5748, 542.5314
463.0569, 543.1346
463.5391, 543.8212
464.0212, 544.6655
464.5033, 545.3261
464.9854, 546.4403
465.4675, 549.0574
465.9496, 552.4188
466.4318, 554.4933
466.9139, 553.5177
467.3960, 550.9137
467.8781, 551.7991
468.3602, 558.4781
468.8423, 562.6117
469.3245, 559.9227
469.8066, 554.9077
470.2887, 550.5859
470.7708, 547.4470
471.2529, 545.1965
471.7350, 544.2481
472.2172, 544.0925
472.6993, 542.8575
473.1814, 540.3736
473.6635, 536.8324
474.1456, 531.9427
474.6277, 526.0878
475.1099, 520.0983
475.5920, 514.1158
476.0741, 508.0443
476.5562, 501.8839
477.0383, 495.6159
477.5204, 488.9042
478.0026, 481.5820
478.4847, 474.2409
478.9668, 467.9424
479.4489, 463.0403
479.9310, 457.2812
480.4131, 450.1361
480.8953, 442.4686
481.3774, 434.5073
481.8595, 426.5204
482.3416, 419.1468
482.8237, 412.7648
483.3058, 407.1375
483.7880, 401.4379
484.2701, 396.3064
484.7522, 390.1153
485.2343, 380.9366
485.7164, 372.0316
486.1985, 366.5647
486.6807, 364.3383
487.1628, 362.2297
487.6449, 357.0900
488.1270, 349.2470
488.6091, 343.5868
489.0912, 341.8504
489.5734, 339.5251
490.0555, 334.1750
490.5376, 328.0645
491.0197, 324.0268
491.5018, 322.9286
491.9839, 322.4394
492.4661, 320.1171
492.9482, 316.1592
493.4303, 312.4032
493.9124, 309.1495
494.3945, 306.0349
494.8766, 302.8086
495.3588, 299.4963
495.8409, 296.1985
496.3230, 292.9592
496.8051, 289.7153
497.2872, 286.2733
497.7693, 282.7622
498.2515, 279.5469
498.7336, 276.6577
499.2157, 274.4858
499.6978, 273.9465
500.1799, 275.8087
500.6620, 276.3128
501.1442, 274.5195
501.6263, 271.8929
502.1084, 268.7930
502.5905, 265.6960
503.0726, 263.7347
503.5547, 263.7166
504.0369, 264.9676
504.5190, 265.1528
505.0011, 263.7454
505.4832, 262.0244
505.9653, 259.5959
506.4474, 257.2487
506.9296, 255.4757
507.4117, 254.3453
507.8938, 253.7560
508.3759, 253.7913
508.8580, 254.2896
509.3401, 254.2865
509.8223, 253.6162
510.3044, 252.7981
510.7865, 251.2702
511.2686, 250.0811
511.7507, 250.7449
512.2328, 253.6863
512.7150, 256.2488
513.1971, 255.7437
513.6792, 253.3193
514.1613, 252.5789
514.6434, 254.2823
515.1255, 256.0572
515.6077, 256.0909
516.0898, 254.6949
516.5719, 253.4538
517.0540, 252.0362
517.5361, 251.2458
518.0182, 252.1365
518.5004, 253.7151
518.9825, 254.1103
519.4646, 252.8309
519.9467, 251.1489
520.4288, 250.5981
520.9109, 251.3773
521.3931, 251.9730
521.8752, 252.4680
522.3573, 252.7276
522.8394, 252.6695
523.3215, 252.3539
523.8036, 251.8292
524.2858, 251.1227
524.7679, 250.3258
525.2500, 249.6252
525.7321, 249.0765
526.2142, 248.3445
526.6964, 247.3232
527.1785, 246.2015
527.6606, 244.8804
528.1427, 243.5422
528.6248, 242.5949
529.1069, 242.3382
529.5891, 242.3261
530.0712, 241.8802
530.5533, 241.0413
531.0354, 240.5274
531.5175, 240.5835
531.9996, 240.9613
532.4818, 241.8491
532.9639, 243.1822
533.4460, 243.0452
533.9281, 239.6285
534.4102, 235.7941
534.8923, 233.6597
535.3745, 233.0268
535.8566, 232.8929
536.3387, 232.8157
536.8208, 232.8915
537.3029, 233.3851
537.7850, 235.0458
538.2672, 235.5040
538.7493, 233.8775
539.2314, 231.9498
539.7135, 230.7468
540.1956, 230.1096
540.6777, 229.2743
541.1599, 227.7234
541.6420, 225.9174
542.1241, 225.0477
542.6062, 225.2951
543.0883, 225.9065
543.5704, 227.8764
544.0526, 229.2154
544.5347, 228.4625
545.0168, 225.8391
545.4989, 222.7166
545.9810, 218.8615
546.4631, 215.4506
546.9453, 214.8494
547.4274, 216.9749
547.9095, 218.9747
548.3916, 219.8437
548.8737, 219.8064
549.3558, 219.1012
549.8380, 217.7170
550.3201, 216.0877
550.8022, 213.7252
551.2843, 211.5961
551.7664, 210.7399
552.2485, 210.8921
552.7307, 210.9600
553.2128, 210.3119
553.6949, 209.2062
554.1770, 208.3724
554.6591, 208.0451
555.1412, 207.5750
555.6234, 207.4824
556.1055, 206.8035
556.5876, 204.4106
557.0697, 200.8548
557.5518, 197.7579
558.0339, 196.0311
558.5161, 195.5105
558.9982, 196.2397
559.4803, 198.5858
559.9624, 199.9157
560.4445, 199.0588
560.9266, 197.3293
561.4088, 195.9269
561.8909, 194.8415
562.3730, 193.8169
562.8551, 192.8150
563.3372, 191.7893
563.8193, 190.5954
564.3015, 189.3007
564.7836, 188.2221
565.2657, 187.4816
565.7478, 187.0939
566.2299, 187.1850
566.7120, 188.3559
567.1942, 188.4326
567.6763, 186.5507
568.1584, 184.3860
568.6405, 182.7119
569.1226, 181.5473
569.6047, 180.6645
570.0869, 179.9475
570.5690, 179.4815
571.0511, 179.5840
571.5332, 180.5372
572.0153, 180.9662
572.4974, 180.4494
572.9796, 179.6458
573.4617, 178.9622
573.9438, 178.2775
574.4259, 177.2442
574.9080, 175.6508
575.3901, 173.7584
575.8723, 171.2367
576.3544, 168.4449
576.8365, 167.7793
577.3186, 170.4434
577.8007, 173.7892
578.2828, 174.8483
578.7650, 173.4657
579.2471, 171.9365
579.7292, 169.3343
580.2113, 167.6264
580.6934, 168.7364
581.1755, 171.0740
581.6577, 171.9195
582.1398, 170.3992
582.6219, 167.8976
583.1040, 166.2551
583.5861, 165.5919
584.0682, 164.8271
584.5504, 163.4346
585.0325, 162.5972
585.5146, 163.2162
585.9967, 164.3447
586.4788, 164.8206
586.9609, 164.3204
587.4431, 163.1935
587.9252, 161.1337
588.4073, 158.6380
588.8894, 158.0239
589.3715, 159.9602
589.8536, 161.6170
590.3358, 160.6831
590.8179, 158.0948
591.3000, 157.2188
591.7821, 159.1259
592.2642, 160.7679
592.7463, 161.2103
593.2285, 160.8874
593.7106, 160.1534
594.1927, 159.1222
594.6748, 157.7941
595.1569, 156.0471
595.6390, 154.1700
596.1212, 153.7695
596.6033, 155.7227
597.0854, 157.6683
597.5675, 160.1210
598.0496, 161.8416
598.5317, 161.6241
599.0139, 159.7144
599.4960, 157.5115
599.9781, 155.6730
600.4602, 154.2740
600.9423, 153.5488
601.4244, 153.5035
601.9066, 153.5789
602.3887, 153.6020
602.8708, 153.6510
603.3529, 153.9025
603.8350, 154.3660
604.3171, 154.6180
604.7993, 154.5679
605.2814, 154.3223
605.7635, 153.9420
606.2456, 153.4186
606.7277, 152.6145
607.2098, 151.4937
607.6920, 150.4477
608.1741, 150.2386
608.6562, 151.2255
609.1383, 151.0287
609.6204, 147.0108
610.1025, 144.9170
610.5847, 148.8584
611.0668, 154.8178
611.5489, 156.9262
612.0310, 153.4162
612.5131, 148.9404
612.9952, 148.0804
613.4774, 149.6767
613.9595, 149.8026
614.4416, 147.9154
614.9237, 145.9814
615.4058, 145.1497
615.8879, 145.1940
616.3701, 145.4025
616.8522, 146.0988
617.3343, 146.2964
617.8164, 144.9868
618.2985, 143.6826
618.7806, 144.2343
619.2628, 146.2039
619.7449, 147.4482
620.2270, 146.5259
620.7091, 144.2269
621.1912, 142.7043
621.6733, 141.9779
622.1555, 141.9918
622.6376, 144.0299
623.1197, 145.5988
623.6018, 144.8193
624.0839, 142.4445
624.5660, 140.6446
625.0482, 140.4808
625.5303, 140.8345
626.0124, 140.3697
626.4945, 139.4689
626.9766, 139.7712
627.4587, 141.8242
627.9409, 143.7233
628.4230, 143.6675
628.9051, 141.6764
629.3872, 139.2040
629.8693, 134.2989
630.3514, 131.4550
630.8336, 133.0921
631.3157, 136.3360
631.7978, 138.4623
632.2799, 138.9933
632.7620, 138.7694
633.2441, 138.3311
633.7263, 137.7989
634.2084, 137.7510
634.6905, 138.3667
635.1726, 138.7350
635.6547, 138.3374
636.1368, 137.8088
636.6190, 137.9717
637.1011, 138.7478
637.5832, 139.0083
638.0653, 137.9152
638.5474, 136.5976
639.0295, 136.2035
639.5117, 136.3282
639.9938, 135.6814
640.4759, 133.8253
640.9580, 131.9306
641.4401, 131.6582
641.9222, 133.2874
642.4044, 133.9157
642.8865, 132.0153
643.3686, 130.9038
643.8507, 132.0483
644.3328, 133.8994
644.8149, 134.7585
645.2971, 134.3306
645.7792, 133.5727
646.2613, 133.2047
646.7434, 133.0890
647.2255, 132.8551
647.7076, 132.4888
648.1898, 132.2698
648.6719, 132.3706
649.1540, 132.6153
649.6361, 132.8001
650.1182, 133.0430
650.6003, 132.6469
651.0825, 130.5580
651.5646, 128.8037
652.0467, 128.5679
652.5288, 129.4924
653.0109, 131.2214
653.4930, 133.5191
653.9752, 135.2853
654.4573, 134.6908
654.9394, 131.6583
655.4215, 129.5651
655.9036, 128.7950
656.3857, 128.2097
656.8679, 127.2781
657.3500, 126.2743
657.8321, 125.5185
658.3142, 125.0631
658.7963, 124.6481
659.2784, 123.7973
659.7606, 123.1693
660.2427, 123.7703
660.7248, 125.3492
661.2069, 126.7490
661.6890, 127.4291
662.1711, 127.6292
662.6533, 127.8486
663.1354, 128.3804
663.6175, 127.8877
664.0996, 124.2593
664.5817, 121.9240
665.0638, 123.5468
665.5460, 126.7890
666.0281, 128.3024
666.5102, 127.1823
666.9923, 125.5870
667.4744, 125.4844
667.9565, 126.2516
668.4387, 126.3644
668.9208, 125.7313
669.4029, 124.7595
669.8850, 123.3600
670.3671, 122.1997
670.8492, 122.9413
671.3314, 127.2249
671.8135, 128.9540
672.2956, 125.8522
672.7777, 122.3466
673.2598, 120.7899
673.7419, 120.4636
674.2241, 119.6962
674.7062, 117.9050
675.1883, 116.3093
675.6704, 116.8377
676.1525, 119.1894
676.6346, 120.2653
677.1168, 119.7115
677.5989, 118.7797
678.0810, 117.6554
678.5631, 116.7860
679.0452, 117.2077
679.5273, 119.3821
680.0095, 120.4358
680.4916, 118.4458
680.9737, 116.1652
681.4558, 115.8072
681.9379, 116.8335
682.4200, 117.7739
682.9022, 118.0182
683.3843, 117.8433
683.8664, 117.6360
684.3485, 117.4095
684.8306, 116.9260
685.3127, 115.9430
685.7949, 115.1392
686.2770, 115.0467
686.7591, 115.1424
687.2412, 114.6944
687.7233, 113.5763
688.2054, 112.9818
688.6876, 113.8364
689.1697, 115.1704
689.6518, 116.2505
690.1339, 116.9318
690.6160, 116.7197
691.0981, 115.3907
691.5803, 113.9185
692.0624, 113.7753
692.5445, 115.1885
693.0266, 116.0396
693.5087, 116.2550
693.9908, 115.9641
694.4730, 114.7716
694.9551, 113.3858
695.4372, 112.5425
695.9193, 112.3276
696.4014, 112.2475
696.8835, 111.8186
697.3657, 111.4837
697.8478, 112.1589
698.3299, 113.5656
698.8120, 114.2292
699.2941, 113.5810
699.7762, 112.5012
700.2584, 112.0909
700.7405, 112.4025
701.2226, 112.7249
701.7047, 113.5136
702.1868, 113.7360
702.6689, 112.4281
703.1511, 110.9869
703.6332, 111.0333
704.1153, 112.4820
704.5974, 113.5655
705.0795, 112.7504
705.5616, 111.2353
706.0438, 111.0813
706.5259, 112.0480
707.0080, 112.5394
707.4901, 112.0544
707.9722, 111.3050
708.4543, 111.0887
708.9365, 110.3431
709.4186, 109.4528
709.9007, 109.2026
710.3828, 107.8840
710.8649, 107.5374
711.3470, 107.7039
711.8292, 108.0600
712.3113, 108.5562
712.7934, 109.3187
713.2755, 110.6415
713.7576, 111.8335
714.2397, 111.5440
714.7219, 110.0209
715.2040, 109.0429
715.6861, 109.0166
716.1682, 109.2805
716.6503, 109.4131
717.1324, 109.3870
717.6146, 109.0212
718.0967, 107.0756
718.5788, 106.5811
719.0609, 109.3618
719.5430, 112.3094
720.0251, 113.2226
720.5073, 112.4385
720.9894, 111.1657
721.4715, 109.8612
721.9536, 109.0539
722.4357, 109.9305
722.9178, 112.0904
723.4000, 113.1214
723.8821, 112.7248
724.3642, 111.5345
724.8463, 109.5974
725.3284, 107.3699
725.8105, 106.0938
726.2927, 106.1163
726.7748, 106.1708
727.2569, 106.3575
727.7390, 106.3919
728.2211, 105.8807
728.7032, 105.1837
729.1854, 104.9520
729.6675, 105.3823
730.1496, 105.9888
730.6317, 106.4597
731.1138, 106.6909
731.5959, 106.0484
732.0781, 104.4322
732.5602, 103.3044
733.0423, 103.3175
733.5244, 103.9886
734.0065, 104.6855
734.4886, 105.4276
734.9708, 106.0652
735.4529, 106.6191
735.9350, 107.0450
736.4171, 107.4233
736.8992, 107.6099
737.3813, 107.3756
737.8635, 106.7395
738.3456, 106.0008
738.8277, 105.2802
739.3098, 104.6977
739.7919, 104.6332
740.2740, 105.0390
740.7562, 105.1678
741.2383, 104.8066
741.7204, 104.2344
742.2025, 103.6285
742.6846, 103.0150
743.1667, 102.7029
743.6489, 103.2435
744.1310, 103.2932
744.6131, 101.7072
745.0952, 100.4221
745.5773, 101.4085
746.0594, 103.9264
746.5416, 105.7834
747.0237, 105.9333
747.5058, 105.1403
747.9879, 103.8607
748.4700, 102.3768
748.9521, 101.8910
749.4343, 102.5632
749.9164, 103.4622
750.3985, 104.1800
750.8806, 104.5843
751.3627, 104.2774
751.8448, 102.5452
752.3270, 101.9846
752.8091, 103.3782
753.2912, 104.9654
753.7733, 106.7619
754.2554, 108.0039
754.7375, 107.2638
755.2197, 104.3844
755.7018, 101.8907
756.1839, 102.0064
756.6660, 103.5131
757.1481, 104.9347
757.6302, 106.0458
758.1124, 105.2497
758.5945, 101.8013
759.0766, 98.45371
759.5587, 98.48067
760.0408, 101.7892
760.5229, 104.0230
761.0051, 104.6899
761.4872, 104.9854
761.9693, 105.3868
762.4514, 105.2371
762.9335, 103.3915
763.4156, 100.5233
763.8978, 98.92213
764.3799, 99.97914
764.8620, 101.5123
765.3441, 101.4700
765.8262, 100.7672
766.3083, 101.4157
766.7905, 103.4301
767.2726, 104.8791
767.7547, 104.5480
768.2368, 103.1239
768.7189, 102.1853
769.2010, 101.8640
769.6832, 101.5298
770.1653, 101.2226
770.6474, 100.8344
771.1295, 99.95407
771.6116, 99.15128
772.0938, 99.39351
772.5759, 100.8810
773.0580, 101.8506
773.5401, 100.8853
774.0222, 99.82426
774.5043, 100.4266
774.9865, 101.9779
775.4686, 103.0747
775.9507, 103.3072
776.4328, 102.9693
776.9149, 102.2431
777.3970, 101.2551
777.8792, 100.6177
778.3613, 100.3941
778.8434, 100.1685
779.3255, 99.89654
779.8076, 99.52531
780.2897, 98.79128
780.7719, 97.88770
781.2540, 97.68033
781.7361, 98.76289
782.2182, 99.64055
782.7003, 99.72226
783.1824, 99.65406
783.6646, 100.1550
784.1467, 100.9293
784.6288, 101.0455
785.1109, 100.0844
785.5930, 98.97076
786.0751, 99.03761
786.5573, 99.91825
787.0394, 100.0373
787.5215, 99.30404
788.0036, 98.48461
788.4857, 97.82681
788.9678, 97.41828
789.4500, 97.40370
789.9321, 97.81441
790.4142, 98.37364
790.8963, 99.10323
791.3784, 99.94705
791.8605, 101.2849
792.3427, 102.4428
792.8248, 103.0403
793.3069, 102.9267
793.7890, 101.6567
794.2711, 97.97415
794.7532, 94.92224
795.2354, 96.65415
795.7175, 100.8742
796.1996, 102.3211
796.6817, 100.5453
797.1638, 98.83242
797.6459, 99.26915
798.1281, 97.92242
798.6102, 97.16820
799.0923, 97.52304
799.5744, 96.12705
800.0565, 97.06768
800.5386, 98.10179
801.0208, 98.35519
801.5029, 98.13158
801.9850, 97.60792
802.4671, 96.77654
802.9492, 96.25376
803.4313, 96.05652
803.9135, 96.38560
804.3956, 97.89930
804.8777, 99.76244
805.3598, 100.8222
805.8419, 100.8943
806.3240, 100.4700
806.8062, 99.87183
807.2883, 99.10586
807.7704, 98.08405
808.2525, 96.82515
808.7346, 95.76614
809.2167, 94.85197
809.6989, 94.80776
810.1810, 96.58929
810.6631, 99.21371
811.1452, 99.84958
811.6273, 97.13000
812.1094, 95.52857
812.5916, 95.74725
813.0737, 96.27296
813.5558, 96.27702
814.0379, 96.34224
814.5200, 97.71305
815.0021, 100.3979
815.4843, 102.1426
815.9664, 100.5560
816.4485, 98.11318
816.9306, 98.02241
817.4127, 99.32349
817.8948, 99.39009
818.3770, 97.73746
818.8591, 95.91373
819.3412, 95.18054
819.8233, 94.20287
820.3054, 93.45496
820.7875, 93.52879
821.2697, 93.05855
821.7518, 93.52658
822.2339, 94.60072
822.7160, 96.69429
823.1981, 99.03563
823.6802, 100.1529
824.1624, 99.77810
824.6445, 99.30849
825.1266, 98.76747
825.6087, 98.47089
826.0908, 98.84863
826.5729, 99.45617
827.0551, 99.72504
827.5372, 99.53600
828.0193, 99.01226
828.5014, 98.03484
828.9835, 97.06471
829.4656, 97.00075
829.9478, 97.66821
830.4299, 98.31345
830.9120, 98.80992
831.3941, 98.97535
831.8762, 98.63097
832.3583, 97.96562
832.8404, 97.46925
833.3225, 97.12752
833.8046, 96.99855
834.2867, 97.19185
834.7689, 97.45937
835.2510, 97.96913
835.7331, 98.35101
836.2152, 97.98806
836.6973, 96.85513
837.1794, 96.12631
837.6616, 96.35588
838.1437, 96.90645
838.6258, 97.92674
839.1079, 98.74202
839.5900, 97.96748
840.0721, 95.89452
840.5543, 94.62479
841.0364, 95.62777
841.5185, 97.46267
842.0006, 97.45547
842.4827, 95.97625
842.9648, 95.54967
843.4470, 96.46924
843.9291, 97.60295
844.4112, 98.41191
844.8933, 99.06044
845.3754, 99.84226
845.8575, 100.8215
846.3397, 101.5519
846.8218, 102.9192
847.3039, 102.7874
847.7860, 99.39700
848.2681, 95.46263
848.7502, 93.04945
849.2324, 92.12211
849.7145, 91.84724
850.1966, 92.15960
850.6787, 92.72066
851.1608, 93.34807
851.6429, 94.11475
852.1251, 95.34943
852.6072, 96.80126
853.0893, 97.82899
853.5714, 98.14654
854.0535, 97.72379
854.5356, 96.10126
855.0178, 93.67560
855.4999, 92.21793
855.9820, 91.73261
856.4641, 92.27460
856.9462, 94.15295
857.4283, 95.91124
857.9105, 96.01177
858.3926, 94.67836
858.8747, 93.69458
859.3568, 92.87810
859.8389, 92.74388
860.3210, 94.37328
860.8032, 95.56425
861.2853, 94.46303
861.7674, 92.49171
862.2495, 92.32496
862.7316, 94.65252
863.2137, 96.42836
863.6959, 96.03929
864.1780, 94.95617
864.6601, 94.04170
865.1422, 93.33056
865.6243, 92.78476
866.1064, 92.40458
866.5886, 92.25908
867.0707, 92.41652
867.5528, 92.78764
868.0349, 93.26918
868.5170, 93.83442
868.9991, 94.43762
869.4813, 95.09469
869.9634, 95.19180
870.4455, 94.30434
870.9276, 92.88942
871.4097, 91.73770
871.8918, 90.82689
872.3740, 90.34498
872.8561, 90.64185
873.3382, 90.79887
873.8203, 90.14195
874.3024, 89.60536
874.7845, 90.25536
875.2667, 91.75513
875.7488, 92.50918
876.2309, 91.99831
876.7130, 91.08793
877.1951, 89.41197
877.6772, 88.03619
878.1594, 88.14949
878.6415, 89.23293
879.1236, 90.25093
879.6057, 90.82444
880.0878, 90.78950
880.5699, 89.35100
881.0521, 87.53822
881.5342, 87.24359
882.0163, 88.26223
882.4984, 90.13132
882.9805, 92.67405
883.4626, 94.35683
883.9448, 93.82975
884.4269, 91.92439
884.9090, 91.10396
885.3911, 91.58166
885.8732, 91.94691
886.3553, 92.14845
886.8375, 92.18492
887.3196, 91.94994
887.8017, 91.63602
888.2838, 91.51659
888.7659, 91.59901
889.2480, 91.78590
889.7302, 92.62505
890.2123, 92.83900
890.6944, 91.32742
891.1765, 89.73631
891.6586, 89.61796
892.1407, 90.55221
892.6229, 91.07655
893.1050, 90.60847
893.5871, 90.15155
894.0692, 90.33154
894.5513, 90.90789
895.0334, 92.15157
895.5156, 93.46240
895.9977, 93.15061
896.4798, 90.94182
896.9619, 88.71383
897.4440, 88.11957
897.9261, 88.69004
898.4083, 89.33814
898.8904, 90.07726
899.3725, 91.31339
899.8546, 93.21990
900.3367, 94.25484
900.8188, 93.22742
901.3010, 91.48112
901.7831, 91.83115
902.2652, 94.89754
902.7473, 96.04466
903.2294, 94.02919
903.7115, 92.27871
904.1937, 91.84965
904.6758, 91.89525
905.1579, 91.63572
905.6400, 91.86362
906.1221, 91.37274
906.6042, 92.56401
907.0864, 93.55861
907.5685, 94.19835
908.0506, 94.39508
908.5327, 93.50885
909.0148, 92.37956
909.4969, 92.66400
909.9791, 94.56537
910.4612, 95.85091
910.9433, 94.17313
911.4254, 92.03313
911.9075, 92.48695
912.3896, 94.31927
912.8718, 94.85373
913.3539, 94.02675
913.8360, 94.02077
914.3181, 96.12801
914.8002, 98.69182
915.2823, 98.72575
915.7645, 96.67604
916.2466, 96.11516
916.7287, 97.17681
917.2108, 97.68899
917.6929, 96.79176
918.1750, 95.92400
918.6572, 96.66460
919.1393, 98.61238
919.6214, 99.17833
920.1035, 96.55096
920.5856, 97.12753
921.0677, 103.9397
921.5499, 110.3497
922.0320, 114.1290
922.5141, 115.1978
922.9962, 112.3537
923.4783, 105.2549
923.9604, 100.3140
924.4426, 100.1335
924.9247, 99.97212
925.4068, 97.62831
925.8889, 95.16962
926.3710, 94.67522
926.8531, 95.62091
927.3353, 96.41687
927.8174, 96.62068
928.2995, 95.95067
928.7816, 93.03536
929.2637, 90.12315
929.7458, 90.15434
930.2280, 91.96155
930.7101, 92.93924
931.1922, 92.58501
931.6743, 91.93627
932.1564, 91.62988
932.6385, 91.85107
933.1207, 93.72847
933.6028, 96.49034
934.0849, 95.96648
934.5670, 92.02911
935.0491, 89.79797
935.5313, 91.60878
936.0134, 94.75846
936.4955, 96.01653
936.9776, 95.47704
937.4597, 93.80658
937.9418, 90.37698
938.4240, 88.56566
938.9061, 89.46539
939.3882, 90.88108
939.8703, 91.76900
940.3524, 92.01154
940.8345, 91.12115
941.3167, 88.35634
941.7988, 87.27089
942.2809, 89.70625
942.7630, 91.32429
943.2451, 89.56230
943.7272, 87.89034
944.2094, 89.64910
944.6915, 93.98912
945.1736, 97.79823
945.6557, 100.9281
946.1378, 102.1260
946.6199, 99.61813
947.1021, 96.35300
947.5842, 94.20833
948.0663, 92.79601
948.5484, 91.08513
949.0305, 89.10795
949.5126, 88.22546
949.9948, 89.62297
950.4769, 91.63982
950.9590, 92.70963
951.4411, 93.29567
951.9232, 94.54674
952.4053, 96.07779
952.8875, 95.81529
953.3696, 93.12209
953.8517, 90.82476
954.3338, 92.41216
954.8159, 96.22328
955.2980, 97.78821
955.7802, 97.40158
956.2623, 97.06744
956.7444, 97.12649
957.2265, 97.07655
957.7086, 96.48643
958.1907, 96.27390
958.6729, 98.54960
959.1550, 103.4338
959.6371, 105.4440
960.1192, 103.8646
960.6013, 102.3843
961.0834, 101.9511
961.5656, 101.7632
962.0477, 101.0615
962.5298, 100.1333
963.0119, 99.99797
963.4940, 100.9559
963.9761, 101.9566
964.4583, 103.2787
964.9404, 104.2704
965.4225, 104.3738
965.9046, 104.3450
966.3867, 105.2736
966.8688, 106.8532
967.3510, 107.1181
967.8331, 104.7682
968.3152, 102.9124
968.7973, 101.5679
969.2794, 101.6043
969.7615, 104.8463
970.2437, 109.1262
970.7258, 111.1727
971.2079, 110.7087
971.6900, 110.5767
972.1721, 112.7192
972.6542, 114.6586
973.1364, 114.6251
973.6185, 113.7286
974.1006, 112.5758
974.5827, 111.7575
975.0648, 112.6648
975.5469, 115.5990
976.0291, 118.1941
976.5112, 118.0481
976.9933, 116.8802
977.4754, 116.8061
977.9575, 117.5952
978.4396, 118.9497
978.9218, 120.6788
979.4039, 122.1494
979.8860, 123.0430
980.3681, 123.9538
980.8502, 125.8203
981.3323, 128.3150
981.8145, 130.2631
982.2966, 131.6971
982.7787, 132.8966
983.2608, 133.9143
983.7429, 134.7977
984.2250, 135.5166
984.7072, 136.3890
985.1893, 138.3961
985.6714, 141.6173
986.1535, 142.9182
986.6356, 141.9087
987.1177, 141.1413
987.5999, 141.1183
988.0820, 142.2767
988.5641, 145.5033
989.0462, 149.7678
989.5283, 151.3529
990.0104, 149.1377
990.4926, 147.8442
990.9747, 148.0117
991.4568, 148.0656
991.9389, 147.2719
992.4210, 146.3882
992.9031, 146.3319
993.3853, 146.9240
993.8674, 146.9287
994.3495, 146.0162
994.8316, 145.0833
995.3137, 144.1728
995.7958, 143.2126
996.2780, 142.1493
996.7601, 141.0457
997.2422, 139.8539
997.7243, 138.6353
998.2064, 137.8398
998.6885, 138.4475
999.1707, 138.0691
999.6528, 135.3654
1000.135, 132.2583
1000.617, 128.9442
1001.099, 126.5566
1001.581, 127.3642
1002.063, 131.2062
1002.545, 133.9121
1003.028, 133.6453
1003.510, 131.9851
1003.992, 128.6306
1004.474, 125.2784
1004.956, 124.1179
1005.438, 124.0529
1005.920, 122.5621
1006.402, 119.1364
1006.885, 115.5514
1007.367, 112.7118
1007.849, 110.5121
1008.331, 108.7020
1008.813, 107.5775
1009.295, 107.6922
1009.777, 108.8800
1010.259, 111.2569
1010.741, 114.5943
1011.224, 115.9735
1011.706, 111.5372
1012.188, 105.0670
1012.670, 102.0485
1013.152, 101.5251
1013.634, 101.7130
1014.116, 102.1446
1014.598, 102.1166
1015.081, 101.3311
1015.563, 100.3863
1016.045, 100.0937
1016.527, 100.0162
1017.009, 98.99394
1017.491, 97.18121
1017.973, 94.92953
1018.455, 92.44733
1018.937, 91.34345
1019.420, 92.50533
1019.902, 94.22375
1020.384, 94.01570
1020.866, 92.42528
1021.348, 92.43259
1021.830, 93.93327
1022.312, 93.55933
1022.794, 90.63182
1023.276, 88.20017
1023.759, 88.02039
1024.241, 89.06398
1024.723, 89.82384
1025.205, 90.28950
1025.687, 90.17828
1026.169, 89.40169
1026.651, 88.71709
1027.133, 88.17587
1027.616, 88.22893
1028.098, 89.39921
1028.580, 90.75191
1029.062, 90.45729
1029.544, 88.44753
1030.026, 87.36486
1030.508, 87.55847
1030.990, 87.36286
1031.473, 86.20304
1031.955, 85.32117
1032.437, 85.81512
1032.919, 86.67516
1033.401, 85.68739
1033.883, 82.44650
1034.365, 81.58015
1034.847, 84.24315
1035.329, 86.73616
1035.812, 88.50856
1036.294, 89.90115
1036.776, 91.47646
1037.258, 92.57210
1037.740, 91.57997
1038.222, 87.96812
1038.704, 85.78343
1039.186, 85.91396
1039.668, 86.03324
1040.151, 85.54275
1040.633, 85.21986
1041.115, 85.84383
1041.597, 86.84830
1042.079, 86.93844
1042.561, 85.81120
1043.043, 85.79863
1043.525, 88.64671
1044.008, 90.19925
1044.490, 88.87818
1044.972, 86.98933
1045.454, 85.50195
1045.936, 84.57384
1046.418, 84.68568
1046.900, 86.05585
1047.382, 86.50134
1047.865, 84.32360
1048.347, 83.26688
1048.829, 85.21687
1049.311, 87.48496
1049.793, 88.18298
1050.275, 88.06596
1050.757, 88.91802
1051.239, 91.02209
1051.721, 91.33430
1052.203, 87.07401
1052.686, 84.00832
1053.168, 84.59921
1053.650, 86.06786
1054.132, 87.21973
1054.614, 87.61589
1055.096, 86.43051
1055.578, 83.60017
1056.060, 81.31937
1056.543, 80.05696
1057.025, 79.57152
1057.507, 80.38893
1057.989, 81.34888
1058.471, 81.53191
1058.953, 81.35101
1059.435, 81.65478
1059.917, 82.50467
1060.400, 82.92427
1060.882, 82.45071
1061.364, 81.70615
1061.846, 80.81665
1062.328, 79.82762
1062.810, 78.28875
1063.292, 76.92629
1063.774, 77.13481
1064.256, 78.86188
1064.739, 80.06331
1065.221, 79.77438
1065.703, 79.27245
1066.185, 79.10448
1066.667, 78.88414
1067.149, 78.15251
1067.631, 77.29131
1068.113, 76.79730
1068.595, 76.74480
1069.078, 77.07273
1069.560, 78.12503
1070.042, 78.75699
1070.524, 77.98415
1071.006, 77.11723
1071.488, 77.05830
1071.970, 77.48368
1072.452, 78.03902
1072.935, 78.58675
1073.417, 78.94448
1073.899, 79.19216
1074.381, 78.81569
1074.863, 76.79314
1075.345, 74.91753
1075.827, 74.81283
1076.309, 75.27915
1076.792, 74.50883
1077.274, 72.82688
1077.756, 72.15887
1078.238, 73.29917
1078.720, 74.53955
1079.202, 74.65083
1079.684, 75.10905
1080.166, 78.28692
1080.648, 81.21262
1081.130, 79.80610
1081.613, 75.33570
1082.095, 72.10388
1082.577, 71.33042
1083.059, 71.60610
1083.541, 73.57741
1084.023, 74.88641
1084.505, 73.63631
1084.987, 71.54929
1085.469, 70.08186
1085.952, 69.26574
1086.434, 68.62912
1086.916, 68.05064
1087.398, 68.43253
1087.880, 71.64757
1088.362, 73.97694
1088.844, 72.53370
1089.326, 70.46689
1089.809, 70.75554
1090.291, 72.31875
1090.773, 72.84209
1091.255, 71.97169
1091.737, 71.15742
1092.219, 70.84306
1092.701, 70.79709
1093.183, 71.14598
1093.666, 71.50851
1094.148, 71.65099
1094.630, 71.60403
1095.112, 71.48796
1095.594, 71.28098
1096.076, 70.69245
1096.558, 69.03786
1097.040, 68.19488
1097.522, 69.50407
1098.005, 70.96841
1098.487, 71.78762
1098.969, 71.87472
1099.451, 71.05840
1099.933, 69.47974
1100.415, 67.53172
1100.897, 64.81527
1101.379, 63.20628
1101.861, 63.76820
1102.344, 64.81023
1102.826, 65.78352
1103.308, 66.76949
1103.790, 68.43178
1104.272, 70.10598
1104.754, 69.75890
1105.236, 66.54008
1105.718, 64.41887
1106.201, 64.66881
1106.683, 65.31530
1107.165, 66.32440
1107.647, 67.00902
1108.129, 66.59756
1108.611, 65.64941
1109.093, 65.37032
1109.575, 65.93073
1110.057, 65.64086
1110.540, 62.34624
1111.022, 61.18688
1111.504, 65.39635
1111.986, 69.05605
1112.468, 68.33549
1112.950, 65.96507
1113.432, 65.92159
1113.914, 68.00645
1114.396, 68.35832
1114.879, 65.12254
1115.361, 63.35397
1115.843, 64.12259
1116.325, 64.90511
1116.807, 64.79468
1117.289, 64.39528
1117.771, 64.22096
1118.253, 64.23682
1118.736, 64.32749
1119.218, 64.58404
1119.700, 64.60112
1120.182, 64.22560
1120.664, 63.94247
1121.146, 63.93325
1121.628, 63.92628
1122.110, 63.71493
1122.593, 63.38036
1123.075, 63.02065
1123.557, 62.59206
1124.039, 62.98973
1124.521, 64.65282
1125.003, 65.44611
1125.485, 64.72682
1125.967, 64.18727
1126.449, 64.82253
1126.932, 65.76143
1127.414, 65.77660
1127.896, 65.04747
1128.378, 64.82164
1128.860, 65.17262
1129.342, 65.34775
1129.824, 65.31115
1130.306, 64.88734
1130.788, 63.98357
1131.271, 62.84700
1131.753, 61.63752
1132.235, 60.57325
1132.717, 60.39262
1133.199, 61.00667
1133.681, 60.86638
1134.163, 60.01135
1134.645, 60.64243
1135.128, 63.23183
1135.610, 65.27251
1136.092, 65.15871
1136.574, 64.02268
1137.056, 63.44927
1137.538, 63.27659
1138.020, 62.96838
1138.502, 62.57081
1138.984, 62.11721
1139.467, 61.73228
1139.949, 62.38902
1140.431, 64.38725
1140.913, 65.75517
1141.395, 64.29271
1141.877, 61.75252
1142.359, 60.64664
1142.841, 60.73455
1143.323, 62.72880
1143.806, 65.30205
1144.288, 63.90517
1144.770, 58.40203
1145.252, 54.56401
1145.734, 56.08569
1146.216, 59.07870
1146.698, 60.15860
1147.180, 60.32841
1147.663, 60.55381
1148.145, 60.79835
1148.627, 60.83607
1149.109, 60.76188
1149.591, 61.16705
1150.073, 62.27540
1150.555, 62.44427
1151.037, 59.38802
1151.520, 56.68410
1152.002, 56.78319
1152.484, 58.16028
1152.966, 60.42542
1153.448, 62.40636
1153.930, 61.74075
1154.412, 58.55925
1154.894, 56.89724
1155.376, 58.93317
1155.859, 60.77157
1156.341, 61.00311
1156.823, 61.03772
1157.305, 61.65179
1157.787, 62.37615
1158.269, 62.78091
1158.751, 62.85549
1159.233, 62.64315
1159.715, 62.07845
1160.198, 61.49205
1160.680, 60.89385
1161.162, 60.29057
1161.644, 59.84814
1162.126, 59.15926
1162.608, 57.50647
1163.090, 55.89195
1163.572, 55.93727
1164.055, 57.55437
1164.537, 58.82320
1165.019, 59.74345
1165.501, 60.30402
1165.983, 60.46636
1166.465, 60.34441
1166.947, 59.88369
1167.429, 59.42810
1167.911, 59.28256
1168.394, 59.36383
1168.876, 59.53802
1169.358, 59.80625
1169.840, 59.55372
1170.322, 58.77314
1170.804, 58.03841
1171.286, 57.45483
1171.768, 57.25832
1172.250, 57.58007
1172.733, 58.23808
1173.215, 59.19378
1173.697, 60.06385
1174.179, 59.55225
1174.661, 58.15326
1175.143, 57.54443
1175.625, 57.71139
1176.107, 57.90484
1176.590, 57.94905
1177.072, 58.37339
1177.554, 59.64205
1178.036, 60.71381
1178.518, 60.18202
1179.000, 58.96238
1179.482, 58.01513
1179.964, 57.37974
1180.447, 57.08319
1180.929, 57.07494
1181.411, 57.18182
1181.893, 57.35922
1182.375, 57.90343
1182.857, 59.75149
1183.339, 60.98845
1183.821, 59.96263
1184.303, 58.48046
1184.786, 57.65096
1185.268, 57.49028
1185.750, 58.10830
1186.232, 59.31631
1186.714, 60.31446
1187.196, 61.01536
1187.678, 61.32444
1188.160, 60.84266
1188.642, 60.48135
1189.125, 60.74979
1189.607, 60.97602
1190.089, 60.58764
1190.571, 59.93920
1191.053, 59.63793
1191.535, 59.68099
1192.017, 59.69390
1192.499, 59.58861
1192.982, 59.82423
1193.464, 60.76217
1193.946, 60.84308
1194.428, 59.21033
1194.910, 57.65618
1195.392, 57.90042
1195.874, 58.99032
1196.356, 58.60033
1196.839, 56.85357
1197.321, 55.06563
1197.803, 53.36204
1198.285, 53.82082
1198.767, 56.59820
1199.249, 59.45145
1199.731, 61.35299
1200.213, 62.26221
1200.695, 62.13963
1201.177, 60.99009
1201.660, 57.64620
1202.142, 53.91484
1202.624, 54.09034
1203.106, 56.69442
1203.588, 57.58945
1204.070, 56.37690
1204.552, 55.24485
1205.034, 55.11483
1205.517, 55.85331
1205.999, 58.48285
1206.481, 60.60546
1206.963, 59.57557
1207.445, 58.04374
1207.927, 59.25540
1208.409, 61.54513
1208.891, 61.57587
1209.374, 59.15247
1209.856, 56.78459
1210.338, 54.35483
1210.820, 53.36617
1211.302, 55.44861
1211.784, 57.15745
1212.266, 56.95699
1212.748, 56.36521
1213.230, 56.49513
1213.713, 56.89979
1214.195, 56.57883
1214.677, 55.51757
1215.159, 55.47861
1215.641, 56.66186
1216.123, 58.17093
1216.605, 60.14687
1217.087, 61.26139
1217.569, 61.01649
1218.052, 59.70009
1218.534, 57.34008
1219.016, 54.95094
1219.498, 54.99398
1219.980, 56.78726
1220.462, 57.20892
1220.944, 56.62119
1221.426, 56.89430
1221.909, 57.96470
1222.391, 57.88963
1222.873, 56.06434
1223.355, 54.47964
1223.837, 54.63832
1224.319, 55.75280
1224.801, 58.09752
1225.283, 59.97786
1225.766, 58.64580
1226.248, 56.07175
1226.730, 55.44227
1227.212, 56.45090
1227.694, 56.82381
1228.176, 55.94114
1228.658, 54.89914
1229.140, 53.57078
1229.622, 52.84650
1230.104, 53.24763
1230.587, 54.03971
1231.069, 55.19535
1231.551, 56.21970
1232.033, 56.33945
1232.515, 55.91920
1232.997, 56.31892
1233.479, 57.55996
1233.961, 59.74999
1234.444, 63.54520
1234.926, 65.74768
1235.408, 65.78908
1235.890, 63.92451
1236.372, 59.97289
1236.854, 56.04768
1237.336, 54.47635
1237.818, 54.78808
1238.301, 55.99480
1238.783, 57.99670
1239.265, 61.03633
1239.747, 64.52692
1240.229, 66.53580
1240.711, 66.67341
1241.193, 64.72761
1241.675, 60.66232
1242.157, 57.25797
1242.640, 57.26628
1243.122, 58.16490
1243.604, 58.01398
1244.086, 57.45035
1244.568, 56.77646
1245.050, 56.31927
1245.532, 56.90768
1246.014, 58.10474
1246.496, 57.91258
1246.979, 55.46252
1247.461, 53.91351
1247.943, 54.25380
1248.425, 54.83984
1248.907, 55.62530
1249.389, 56.22514
1249.871, 56.44193
1250.353, 56.39042
1250.836, 56.03496
1251.318, 55.63564
1251.800, 56.27613
1252.282, 58.06130
1252.764, 59.33762
1253.246, 60.10656
1253.728, 59.91255
1254.210, 58.70571
1254.693, 57.23995
1255.175, 55.86644
1255.657, 54.83549
1256.139, 54.39268
1256.621, 54.42293
1257.103, 55.02999
1257.585, 55.79758
1258.067, 56.14938
1258.549, 56.09138
1259.031, 55.57677
1259.514, 54.74794
1259.996, 53.88021
1260.478, 53.05997
1260.960, 52.71283
1261.442, 53.24218
1261.924, 53.95206
1262.406, 54.31135
1262.888, 55.14550
1263.371, 58.19270
1263.853, 60.78201
1264.335, 59.67582
1264.817, 56.34621
1265.299, 54.28728
1265.781, 53.53088
1266.263, 53.48569
1266.745, 54.27040
1267.228, 55.29646
1267.710, 56.60820
1268.192, 57.18201
1268.674, 56.62114
1269.156, 55.87997
1269.638, 55.66983
1270.120, 55.95745
1270.602, 57.29682
1271.084, 58.73024
1271.567, 57.50138
1272.049, 54.99068
1272.531, 54.11940
1273.013, 54.70826
1273.495, 55.70354
1273.977, 56.62261
1274.459, 56.56547
1274.941, 54.84682
1275.423, 53.15244
1275.906, 51.95817
1276.388, 51.38430
1276.870, 51.86003
1277.352, 52.59008
1277.834, 52.55212
1278.316, 52.66752
1278.798, 54.94269
1279.280, 58.77522
1279.763, 59.84057
1280.245, 57.28538
1280.727, 55.33663
1281.209, 53.93040
1281.691, 53.91050
1282.173, 55.57696
1282.655, 56.95329
1283.137, 57.04039
1283.620, 56.65131
1284.102, 56.70967
1284.584, 56.67179
1285.066, 55.73525
##END=



