##NAMES=Abramovite
##RRUFFID=R070037
##IDEAL CHEMISTRY=Pb^2+^_2_Sn^4+^In^3+^Bi^3+^S^2-^_7_
##LOCALITY=Kudryaviy Volcano, Iturup Island, Kurilian Archipelago, Russia
##OWNER=Michael Scott
##SOURCE=Michael Scott
##DESCRIPTION=Dark gray metallic twisted and distorted fibers in a radiating aggregate, co-type sample.
##STATUS=The identification of this mineral has been confirmed only by single crystal X-ray diffraction.
##URL=rruff.info/R070037
110.1666, 941.1535
110.6487, 1026.833
111.1308, 1117.493
111.6129, 1213.535
112.0950, 1315.990
112.5771, 1419.911
113.0593, 1524.563
113.5414, 1630.764
114.0235, 1740.689
114.5056, 1834.234
114.9877, 1945.507
115.4698, 2094.806
115.9520, 2309.370
116.4341, 2527.203
116.9162, 2716.219
117.3983, 2886.266
117.8804, 3073.583
118.3625, 3299.101
118.8447, 3549.116
119.3268, 3811.287
119.8089, 4095.204
120.2910, 4377.067
120.7731, 4631.451
121.2552, 4859.019
121.7374, 5095.271
122.2195, 5371.208
122.7016, 5674.847
123.1837, 5984.042
123.6658, 6282.593
124.1479, 6579.789
124.6300, 6882.633
125.1122, 7189.051
125.5943, 7509.955
126.0764, 7866.821
126.5585, 8255.468
127.0406, 8642.086
127.5227, 9001.945
128.0049, 9347.007
128.4870, 9702.220
128.9691, 10077.97
129.4512, 10465.56
129.9333, 10859.59
130.4154, 11263.24
130.8976, 11641.07
131.3797, 11951.32
131.8618, 12201.30
132.3439, 12454.09
132.8260, 12754.53
133.3081, 13081.09
133.7903, 13323.99
134.2724, 13473.46
134.7545, 13565.42
135.2366, 13647.25
135.7187, 13720.72
136.2008, 13774.33
136.6830, 13795.06
137.1651, 13779.00
137.6472, 13774.74
138.1293, 13789.63
138.6114, 13813.32
139.0935, 13814.60
139.5757, 13783.12
140.0578, 13753.38
140.5399, 13750.13
141.0220, 13783.95
141.5041, 13811.20
141.9862, 13825.28
142.4684, 13827.40
142.9505, 13829.95
143.4326, 13830.18
143.9147, 13833.75
144.3968, 13847.20
144.8789, 13878.90
145.3610, 13906.79
145.8432, 13931.31
146.3253, 13958.07
146.8074, 13952.47
147.2895, 13901.14
147.7716, 13822.48
148.2537, 13741.75
148.7359, 13677.02
149.2180, 13594.64
149.7001, 13482.15
150.1822, 13320.54
150.6643, 13164.05
151.1464, 13026.58
151.6286, 12895.09
152.1107, 12733.64
152.5928, 12507.89
153.0749, 12274.72
153.5570, 12059.42
154.0391, 11880.83
154.5213, 11702.49
155.0034, 11516.76
155.4855, 11325.93
155.9676, 11148.18
156.4497, 10975.81
156.9318, 10822.25
157.4140, 10695.00
157.8961, 10619.03
158.3782, 10548.22
158.8603, 10468.55
159.3424, 10379.30
159.8245, 10291.17
160.3067, 10204.16
160.7888, 10122.15
161.2709, 10048.48
161.7530, 9997.441
162.2351, 9945.354
162.7172, 9877.208
163.1993, 9786.816
163.6815, 9699.622
164.1636, 9622.261
164.6457, 9556.357
165.1278, 9506.245
165.6099, 9480.943
166.0920, 9467.576
166.5742, 9459.134
167.0563, 9461.979
167.5384, 9454.982
168.0205, 9415.022
168.5026, 9349.816
168.9847, 9290.880
169.4669, 9267.542
169.9490, 9255.208
170.4311, 9224.684
170.9132, 9151.180
171.3953, 9073.196
171.8774, 9029.297
172.3596, 9016.506
172.8417, 9007.776
173.3238, 8991.521
173.8059, 8964.948
174.2880, 8923.779
174.7701, 8842.966
175.2523, 8756.791
175.7344, 8708.630
176.2165, 8700.174
176.6986, 8711.585
177.1807, 8739.265
177.6628, 8774.588
178.1449, 8794.829
178.6271, 8777.323
179.1092, 8740.155
179.5913, 8716.908
180.0734, 8712.287
180.5555, 8710.842
181.0376, 8693.023
181.5198, 8661.460
182.0019, 8627.927
182.4840, 8593.307
182.9661, 8561.659
183.4482, 8547.607
183.9303, 8557.248
184.4125, 8575.959
184.8946, 8580.479
185.3767, 8571.268
185.8588, 8559.087
186.3409, 8556.368
186.8230, 8558.934
187.3052, 8544.067
187.7873, 8498.530
188.2694, 8441.227
188.7515, 8419.150
189.2336, 8433.909
189.7157, 8461.284
190.1979, 8488.105
190.6800, 8513.303
191.1621, 8520.794
191.6442, 8498.720
192.1263, 8456.834
192.6084, 8435.063
193.0906, 8435.800
193.5727, 8445.448
194.0548, 8455.869
194.5369, 8467.307
195.0190, 8460.985
195.5011, 8420.938
195.9832, 8352.109
196.4654, 8308.810
196.9475, 8294.914
197.4296, 8297.172
197.9117, 8301.843
198.3938, 8310.189
198.8759, 8309.387
199.3581, 8291.333
199.8402, 8255.257
200.3223, 8219.997
200.8044, 8184.772
201.2865, 8151.464
201.7686, 8124.820
202.2508, 8106.632
202.7329, 8088.015
203.2150, 8061.692
203.6971, 8025.294
204.1792, 8002.472
204.6613, 7999.440
205.1435, 8006.985
205.6256, 8000.193
206.1077, 7976.309
206.5898, 7946.670
207.0719, 7915.101
207.5540, 7878.939
208.0362, 7855.194
208.5183, 7850.096
209.0004, 7857.826
209.4825, 7853.228
209.9646, 7832.276
210.4467, 7808.184
210.9288, 7792.794
211.4110, 7791.799
211.8931, 7777.409
212.3752, 7737.155
212.8573, 7676.993
213.3394, 7652.804
213.8215, 7682.114
214.3037, 7719.873
214.7858, 7722.287
215.2679, 7672.759
215.7500, 7635.299
216.2321, 7625.017
216.7142, 7641.480
217.1964, 7653.678
217.6785, 7659.972
218.1606, 7663.849
218.6427, 7670.624
219.1248, 7685.454
219.6069, 7690.741
220.0891, 7680.084
220.5712, 7651.840
221.0533, 7625.996
221.5354, 7603.602
222.0175, 7582.763
222.4996, 7560.667
222.9818, 7532.800
223.4639, 7512.128
223.9460, 7503.429
224.4281, 7509.150
224.9102, 7515.080
225.3923, 7522.396
225.8745, 7529.101
226.3566, 7531.230
226.8387, 7526.014
227.3208, 7521.271
227.8029, 7521.649
228.2850, 7532.956
228.7672, 7529.438
229.2493, 7503.500
229.7314, 7466.049
230.2135, 7439.728
230.6956, 7429.401
231.1777, 7422.537
231.6599, 7414.458
232.1420, 7404.322
232.6241, 7394.960
233.1062, 7387.467
233.5883, 7380.505
234.0704, 7368.793
234.5526, 7343.814
235.0347, 7326.800
235.5168, 7330.059
235.9989, 7369.025
236.4810, 7394.544
236.9631, 7406.047
237.4453, 7403.205
237.9274, 7381.697
238.4095, 7325.703
238.8916, 7273.439
239.3737, 7246.039
239.8558, 7257.569
240.3380, 7265.539
240.8201, 7267.786
241.3022, 7264.764
241.7843, 7258.291
242.2664, 7246.823
242.7485, 7233.854
243.2307, 7220.625
243.7128, 7204.343
244.1949, 7194.498
244.6770, 7197.870
245.1591, 7210.278
245.6412, 7200.477
246.1233, 7145.866
246.6055, 7096.981
247.0876, 7092.865
247.5697, 7169.221
248.0518, 7214.881
248.5339, 7208.665
249.0160, 7156.657
249.4982, 7119.395
249.9803, 7104.526
250.4624, 7094.992
250.9445, 7074.496
251.4266, 7026.823
251.9087, 7006.411
252.3909, 7034.917
252.8730, 7107.056
253.3551, 7133.260
253.8372, 7087.924
254.3193, 7029.359
254.8014, 7011.003
255.2836, 7057.322
255.7657, 7084.823
256.2478, 7072.236
256.7299, 7022.251
257.2120, 6995.404
257.6941, 7000.994
258.1762, 7017.782
258.6584, 7027.608
259.1405, 7029.671
259.6226, 7026.675
260.1047, 7019.752
260.5868, 7008.833
261.0689, 6986.677
261.5511, 6945.147
262.0332, 6904.265
262.5153, 6886.225
262.9974, 6900.442
263.4795, 6911.356
263.9616, 6911.670
264.4438, 6901.671
264.9259, 6886.636
265.4080, 6862.070
265.8901, 6839.695
266.3722, 6836.783
266.8543, 6863.579
267.3365, 6874.356
267.8186, 6854.203
268.3007, 6804.211
268.7828, 6761.129
269.2649, 6720.559
269.7470, 6693.910
270.2292, 6701.192
270.7113, 6754.812
271.1934, 6792.291
271.6755, 6797.219
272.1576, 6771.166
272.6397, 6734.662
273.1219, 6682.991
273.6040, 6631.171
274.0861, 6598.226
274.5682, 6587.353
275.0503, 6574.772
275.5324, 6550.699
276.0146, 6517.400
276.4967, 6502.963
276.9788, 6512.515
277.4609, 6527.247
277.9430, 6524.220
278.4251, 6501.347
278.9073, 6481.645
279.3894, 6475.159
279.8715, 6478.552
280.3536, 6465.752
280.8357, 6432.824
281.3178, 6397.305
281.8000, 6382.118
282.2821, 6387.859
282.7642, 6387.486
283.2463, 6371.269
283.7284, 6342.375
284.2105, 6313.522
284.6927, 6283.484
285.1747, 6259.409
285.6569, 6255.780
286.1390, 6271.028
286.6211, 6274.597
287.1032, 6251.612
287.5853, 6210.546
288.0674, 6181.211
288.5496, 6164.592
289.0317, 6152.333
289.5138, 6135.918
289.9959, 6116.056
290.4780, 6097.996
290.9601, 6083.432
291.4423, 6071.778
291.9244, 6061.406
292.4065, 6052.253
292.8886, 6044.509
293.3707, 6042.159
293.8528, 6042.556
294.3350, 6034.338
294.8171, 6008.083
295.2992, 5974.331
295.7813, 5952.368
296.2634, 5942.183
296.7455, 5937.538
297.2277, 5934.327
297.7098, 5932.351
298.1919, 5931.913
298.6740, 5939.426
299.1561, 5943.682
299.6382, 5921.820
300.1204, 5875.219
300.6025, 5830.354
301.0846, 5810.809
301.5667, 5807.496
302.0488, 5803.509
302.5309, 5799.644
303.0131, 5787.208
303.4952, 5744.898
303.9773, 5677.110
304.4594, 5623.034
304.9415, 5627.789
305.4236, 5658.862
305.9058, 5668.481
306.3879, 5630.280
306.8700, 5580.962
307.3521, 5552.826
307.8342, 5542.628
308.3163, 5533.176
308.7985, 5506.968
309.2806, 5478.604
309.7627, 5466.319
310.2448, 5492.650
310.7269, 5511.942
311.2090, 5479.372
311.6912, 5409.227
312.1733, 5356.730
312.6554, 5370.065
313.1375, 5402.551
313.6196, 5415.804
314.1017, 5393.691
314.5839, 5361.702
315.0660, 5325.755
315.5481, 5288.485
316.0302, 5256.973
316.5123, 5226.524
316.9944, 5207.233
317.4766, 5209.552
317.9586, 5257.837
318.4408, 5287.174
318.9229, 5261.710
319.4050, 5201.498
319.8871, 5154.565
320.3692, 5139.169
320.8513, 5135.966
321.3335, 5138.142
321.8156, 5152.839
322.2977, 5156.225
322.7798, 5134.641
323.2619, 5099.708
323.7440, 5073.916
324.2262, 5067.594
324.7083, 5064.617
325.1904, 5059.454
325.6725, 5050.409
326.1546, 5042.445
326.6367, 5040.838
327.1189, 5039.475
327.6010, 5028.306
328.0831, 4999.724
328.5652, 4969.359
329.0473, 4937.891
329.5294, 4899.443
330.0116, 4881.723
330.4937, 4895.376
330.9758, 4924.230
331.4579, 4948.705
331.9400, 4977.146
332.4221, 4988.068
332.9043, 4972.007
333.3864, 4925.460
333.8685, 4884.020
334.3506, 4843.686
334.8327, 4813.254
335.3148, 4806.492
335.7970, 4834.950
336.2791, 4855.374
336.7612, 4855.454
337.2433, 4836.722
337.7254, 4826.453
338.2076, 4828.820
338.6897, 4831.036
339.1718, 4820.463
339.6539, 4795.877
340.1360, 4767.086
340.6181, 4731.827
341.1003, 4694.726
341.5824, 4679.094
342.0645, 4687.413
342.5466, 4704.025
343.0287, 4721.529
343.5108, 4739.291
343.9930, 4743.109
344.4751, 4726.757
344.9572, 4699.668
345.4393, 4682.064
345.9214, 4674.071
346.4035, 4668.018
346.8857, 4660.675
347.3678, 4651.339
347.8499, 4635.869
348.3320, 4611.222
348.8141, 4586.126
349.2962, 4573.176
349.7784, 4571.119
350.2605, 4572.522
350.7426, 4577.140
351.2247, 4581.342
351.7068, 4576.405
352.1889, 4558.986
352.6710, 4543.167
353.1531, 4548.216
353.6353, 4566.216
354.1174, 4577.161
354.5995, 4564.976
355.0816, 4544.178
355.5637, 4530.127
356.0458, 4524.314
356.5280, 4517.576
357.0101, 4498.316
357.4922, 4475.140
357.9743, 4460.710
358.4564, 4474.468
358.9385, 4487.096
359.4207, 4477.984
359.9028, 4446.750
360.3849, 4416.715
360.8670, 4392.249
361.3491, 4376.267
361.8312, 4371.525
362.3134, 4389.445
362.7955, 4408.127
363.2776, 4428.105
363.7597, 4446.941
364.2418, 4445.350
364.7239, 4389.215
365.2061, 4329.945
365.6882, 4299.911
366.1703, 4326.601
366.6524, 4354.660
367.1345, 4384.953
367.6166, 4414.228
368.0988, 4430.336
368.5809, 4424.696
369.0630, 4413.489
369.5451, 4403.179
370.0272, 4396.245
370.5093, 4384.775
370.9915, 4362.307
371.4736, 4337.412
371.9557, 4330.526
372.4378, 4354.514
372.9199, 4373.879
373.4020, 4374.210
373.8842, 4350.880
374.3663, 4334.982
374.8484, 4328.580
375.3305, 4326.721
375.8126, 4322.692
376.2947, 4315.896
376.7769, 4309.529
377.2590, 4304.168
377.7411, 4299.941
378.2232, 4300.113
378.7053, 4307.115
379.1874, 4309.018
379.6696, 4286.380
380.1517, 4241.854
380.6338, 4211.380
381.1159, 4205.427
381.5980, 4217.630
382.0801, 4241.749
382.5623, 4277.103
383.0444, 4300.495
383.5265, 4280.548
384.0086, 4234.442
384.4907, 4207.673
384.9728, 4211.782
385.4549, 4229.697
385.9370, 4246.138
386.4192, 4260.087
386.9013, 4267.138
387.3834, 4261.840
387.8655, 4249.545
388.3476, 4235.193
388.8297, 4218.618
389.3119, 4203.782
389.7940, 4193.955
390.2761, 4187.660
390.7582, 4182.204
391.2403, 4177.141
391.7224, 4172.030
392.2046, 4167.082
392.6867, 4162.388
393.1688, 4155.984
393.6509, 4137.874
394.1330, 4121.752
394.6151, 4120.526
395.0973, 4159.582
395.5794, 4191.314
396.0615, 4198.096
396.5436, 4182.616
397.0257, 4175.783
397.5078, 4197.760
397.9900, 4218.405
398.4721, 4220.634
398.9542, 4190.190
399.4363, 4159.049
399.9184, 4118.674
400.4005, 4078.359
400.8827, 4066.794
401.3648, 4106.280
401.8469, 4142.708
402.3290, 4152.995
402.8111, 4128.638
403.2932, 4111.433
403.7754, 4103.718
404.2575, 4100.739
404.7396, 4093.826
405.2217, 4080.217
405.7038, 4075.608
406.1859, 4089.435
406.6681, 4118.597
407.1502, 4132.764
407.6323, 4129.519
408.1144, 4121.278
408.5965, 4115.595
409.0786, 4113.454
409.5608, 4126.986
410.0429, 4169.209
410.5250, 4218.118
411.0071, 4222.933
411.4892, 4186.774
411.9713, 4149.458
412.4535, 4139.410
412.9356, 4146.915
413.4177, 4154.533
413.8998, 4160.180
414.3819, 4163.804
414.8640, 4164.072
415.3462, 4162.224
415.8283, 4161.279
416.3104, 4168.777
416.7925, 4173.827
417.2746, 4162.322
417.7567, 4131.226
418.2388, 4110.167
418.7209, 4125.071
419.2031, 4155.068
419.6852, 4175.795
420.1673, 4165.878
420.6494, 4160.160
421.1315, 4177.179
421.6136, 4213.829
422.0958, 4235.848
422.5779, 4214.723
423.0600, 4192.144
423.5421, 4192.526
424.0242, 4258.249
424.5063, 4294.540
424.9885, 4287.114
425.4706, 4251.219
425.9527, 4222.836
426.4348, 4194.334
426.9169, 4184.348
427.3990, 4207.819
427.8812, 4276.719
428.3633, 4308.371
428.8454, 4288.946
429.3275, 4250.396
429.8096, 4234.871
430.2917, 4246.902
430.7739, 4254.896
431.2560, 4246.886
431.7381, 4228.570
432.2202, 4229.351
432.7023, 4251.662
433.1844, 4271.427
433.6666, 4261.844
434.1487, 4230.266
434.6308, 4212.818
435.1129, 4218.172
435.5950, 4234.917
436.0771, 4204.409
436.5593, 4239.608
437.0414, 4259.760
437.5235, 4265.422
438.0056, 4227.342
438.4877, 4234.922
438.9698, 4217.587
439.4520, 4194.696
439.9341, 4225.848
440.4162, 4246.166
440.8983, 4253.874
441.3804, 4214.899
441.8625, 4178.102
442.3447, 4172.496
442.8268, 4195.376
443.3089, 4212.824
443.7910, 4210.356
444.2731, 4201.444
444.7552, 4194.717
445.2374, 4196.222
445.7195, 4193.341
446.2016, 4183.612
446.6837, 4168.623
447.1658, 4151.600
447.6479, 4124.036
448.1301, 4105.530
448.6122, 4105.491
449.0943, 4129.256
449.5764, 4141.090
450.0585, 4135.684
450.5406, 4125.135
451.0227, 4126.495
451.5049, 4145.371
451.9870, 4147.476
452.4691, 4118.696
452.9512, 4069.856
453.4333, 4045.278
453.9154, 4046.775
454.3976, 4052.895
454.8797, 4042.228
455.3618, 4021.042
455.8439, 4024.680
456.3260, 4063.519
456.8081, 4106.321
457.2903, 4111.600
457.7724, 4087.153
458.2545, 4058.539
458.7366, 4026.846
459.2187, 4003.892
459.7008, 4011.235
460.1830, 4048.746
460.6651, 4079.290
461.1472, 4071.407
461.6293, 4046.991
462.1114, 4028.768
462.5935, 4016.018
463.0757, 4019.343
463.5578, 4064.065
464.0399, 4131.683
464.5220, 4164.799
465.0041, 4107.888
465.4862, 4046.955
465.9684, 4020.972
466.4505, 4049.418
466.9326, 4070.169
467.4147, 4080.132
467.8968, 4082.557
468.3789, 4079.993
468.8611, 4066.680
469.3432, 4059.757
469.8253, 4067.307
470.3074, 4085.930
470.7895, 4083.205
471.2716, 4050.598
471.7538, 4019.902
472.2359, 4017.660
472.7180, 4044.324
473.2001, 4063.447
473.6822, 4071.418
474.1643, 4071.394
474.6465, 4065.647
475.1286, 4055.010
475.6107, 4046.452
476.0928, 4041.519
476.5749, 4041.229
477.0570, 4052.587
477.5392, 4075.507
478.0213, 4090.885
478.5034, 4076.350
478.9855, 4047.104
479.4676, 4023.555
479.9497, 4013.018
480.4319, 4007.154
480.9140, 4000.948
481.3961, 3995.510
481.8782, 3993.715
482.3603, 4000.088
482.8424, 4007.627
483.3245, 4011.643
483.8066, 4009.421
484.2888, 4013.063
484.7709, 4037.974
485.2530, 4062.943
485.7351, 4065.474
486.2172, 4021.228
486.6993, 3990.776
487.1815, 3985.852
487.6636, 4002.071
488.1457, 4016.538
488.6278, 4031.100
489.1099, 4040.060
489.5920, 4034.769
490.0742, 4012.470
490.5563, 4013.722
491.0384, 4046.103
491.5205, 4085.883
492.0026, 4099.932
492.4847, 4089.916
492.9669, 4068.893
493.4490, 4030.856
493.9311, 3991.133
494.4132, 3979.344
494.8953, 3994.213
495.3774, 4019.417
495.8596, 4062.639
496.3417, 4101.908
496.8238, 4101.848
497.3059, 4040.014
497.7880, 3983.861
498.2701, 3982.756
498.7523, 4014.641
499.2344, 4040.339
499.7165, 4041.627
500.1986, 4039.132
500.6807, 4043.376
501.1628, 4055.269
501.6450, 4056.286
502.1271, 4024.861
502.6092, 3995.168
503.0913, 3990.095
503.5734, 4034.483
504.0555, 4058.489
504.5377, 4053.673
505.0198, 4030.511
505.5019, 4008.921
505.9840, 3986.200
506.4661, 3973.852
506.9482, 3983.667
507.4304, 4011.019
507.9125, 4006.510
508.3946, 3965.300
508.8767, 3920.941
509.3588, 3904.236
509.8409, 3911.160
510.3231, 3927.746
510.8052, 3955.450
511.2873, 3982.410
511.7694, 3993.209
512.2515, 3990.786
512.7336, 3984.045
513.2158, 3972.598
513.6979, 3962.181
514.1800, 3957.092
514.6621, 3957.671
515.1442, 3963.225
515.6263, 3989.436
516.1085, 4012.165
516.5906, 4010.781
517.0727, 3949.740
517.5548, 3900.776
518.0369, 3876.903
518.5190, 3873.436
519.0012, 3874.983
519.4833, 3884.116
519.9654, 3895.153
520.4475, 3910.042
520.9296, 3930.890
521.4117, 3928.348
521.8939, 3892.583
522.3760, 3852.012
522.8581, 3833.916
523.3402, 3838.773
523.8223, 3849.114
524.3044, 3864.318
524.7866, 3880.062
525.2687, 3887.312
525.7508, 3886.867
526.2329, 3885.064
526.7150, 3892.174
527.1971, 3897.259
527.6793, 3877.061
528.1614, 3830.528
528.6435, 3791.385
529.1256, 3788.610
529.6077, 3803.852
530.0898, 3816.803
530.5720, 3822.512
531.0541, 3824.450
531.5362, 3821.318
532.0182, 3815.418
532.5004, 3811.999
532.9825, 3818.216
533.4646, 3821.246
533.9467, 3817.948
534.4288, 3808.631
534.9109, 3788.590
535.3931, 3742.727
535.8752, 3703.661
536.3573, 3704.644
536.8394, 3763.250
537.3215, 3781.847
537.8036, 3735.817
538.2858, 3664.704
538.7679, 3655.666
539.2500, 3707.564
539.7321, 3757.526
540.2142, 3777.800
540.6964, 3776.231
541.1785, 3769.697
541.6606, 3758.128
542.1427, 3741.285
542.6248, 3714.239
543.1069, 3683.219
543.5891, 3654.930
544.0712, 3627.699
544.5533, 3611.164
545.0354, 3620.473
545.5175, 3642.585
545.9996, 3655.059
546.4818, 3645.338
546.9639, 3631.031
547.4460, 3617.036
547.9281, 3603.575
548.4102, 3588.332
548.8923, 3566.182
549.3745, 3547.501
549.8566, 3540.378
550.3387, 3554.621
550.8208, 3548.220
551.3029, 3510.599
551.7850, 3466.779
552.2672, 3460.265
552.7493, 3493.284
553.2314, 3513.618
553.7135, 3498.922
554.1956, 3466.413
554.6777, 3459.150
555.1599, 3474.583
555.6420, 3489.464
556.1241, 3490.115
556.6062, 3480.054
557.0883, 3461.134
557.5704, 3432.004
558.0526, 3405.563
558.5347, 3395.866
559.0168, 3391.361
559.4989, 3378.805
559.9810, 3334.425
560.4631, 3303.062
560.9453, 3308.480
561.4274, 3339.068
561.9095, 3351.374
562.3916, 3326.250
562.8737, 3302.563
563.3558, 3293.955
563.8380, 3302.585
564.3201, 3308.113
564.8022, 3310.730
565.2843, 3309.966
565.7664, 3303.658
566.2485, 3291.677
566.7307, 3284.192
567.2128, 3284.605
567.6949, 3285.770
568.1770, 3273.887
568.6591, 3251.409
569.1412, 3230.131
569.6234, 3214.995
570.1055, 3204.468
570.5876, 3196.888
571.0697, 3192.309
571.5518, 3190.761
572.0339, 3198.945
572.5161, 3206.093
572.9982, 3201.696
573.4803, 3176.549
573.9624, 3159.048
574.4445, 3165.792
574.9266, 3180.006
575.4088, 3179.591
575.8909, 3156.980
576.3730, 3130.095
576.8551, 3096.256
577.3372, 3060.314
577.8193, 3045.903
578.3015, 3058.266
578.7836, 3073.630
579.2657, 3080.012
579.7478, 3078.222
580.2299, 3077.520
580.7120, 3078.634
581.1942, 3075.235
581.6763, 3056.355
582.1584, 3028.557
582.6405, 3006.557
583.1226, 2994.466
583.6047, 2987.962
584.0869, 2982.246
584.5690, 2979.425
585.0511, 2984.111
585.5332, 3013.012
586.0153, 3036.030
586.4974, 3038.042
586.9796, 3018.908
587.4617, 2997.617
587.9438, 2964.062
588.4259, 2939.645
588.9080, 2938.017
589.3901, 2974.104
589.8723, 2987.922
590.3544, 2971.544
590.8365, 2944.134
591.3186, 2932.611
591.8007, 2938.039
592.2828, 2934.958
592.7650, 2912.867
593.2471, 2884.246
593.7292, 2877.698
594.2113, 2889.547
594.6934, 2900.879
595.1755, 2898.146
595.6577, 2890.727
596.1398, 2892.044
596.6219, 2902.517
597.1040, 2905.607
597.5861, 2877.331
598.0682, 2846.803
598.5503, 2839.932
599.0324, 2883.002
599.5145, 2911.708
599.9966, 2909.914
600.4788, 2890.637
600.9609, 2871.524
601.4430, 2850.051
601.9251, 2833.378
602.4072, 2823.068
602.8893, 2818.467
603.3715, 2818.489
603.8536, 2824.161
604.3357, 2827.329
604.8178, 2821.941
605.2999, 2810.087
605.7820, 2799.711
606.2642, 2791.020
606.7463, 2781.713
607.2284, 2769.116
607.7105, 2754.726
608.1926, 2739.502
608.6747, 2720.954
609.1569, 2708.173
609.6390, 2709.341
610.1211, 2719.123
610.6032, 2728.681
611.0853, 2738.537
611.5674, 2745.006
612.0496, 2747.584
612.5317, 2746.168
613.0138, 2738.882
613.4959, 2723.540
613.9780, 2706.134
614.4601, 2687.317
614.9423, 2666.499
615.4244, 2658.506
615.9065, 2665.638
616.3886, 2676.418
616.8707, 2681.396
617.3528, 2680.477
617.8350, 2672.288
618.3171, 2655.326
618.7992, 2634.366
619.2813, 2610.948
619.7634, 2587.349
620.2455, 2568.588
620.7277, 2552.429
621.2098, 2545.956
621.6919, 2561.849
622.1740, 2594.810
622.6561, 2611.486
623.1382, 2594.570
623.6204, 2570.003
624.1025, 2542.943
624.5846, 2508.455
625.0667, 2506.863
625.5488, 2556.368
626.0309, 2606.477
626.5131, 2601.731
626.9952, 2541.355
627.4773, 2503.667
627.9594, 2502.219
628.4415, 2517.525
628.9236, 2524.000
629.4058, 2524.028
629.8879, 2524.518
630.3700, 2524.923
630.8521, 2529.984
631.3342, 2554.380
631.8163, 2589.979
632.2985, 2604.640
632.7806, 2563.761
633.2627, 2517.111
633.7448, 2487.636
634.2269, 2478.914
634.7090, 2476.738
635.1912, 2483.645
635.6733, 2493.571
636.1554, 2504.000
636.6375, 2517.509
637.1196, 2518.185
637.6017, 2499.733
638.0839, 2480.017
638.5660, 2494.982
639.0481, 2537.928
639.5302, 2556.851
640.0123, 2527.240
640.4944, 2479.226
640.9766, 2444.156
641.4587, 2422.879
641.9408, 2416.917
642.4229, 2449.741
642.9050, 2479.703
643.3871, 2471.845
643.8693, 2426.595
644.3514, 2398.293
644.8335, 2410.644
645.3156, 2433.957
645.7977, 2454.370
646.2798, 2474.677
646.7620, 2481.369
647.2441, 2469.455
647.7262, 2451.217
648.2083, 2440.688
648.6904, 2437.904
649.1725, 2433.918
649.6547, 2427.000
650.1368, 2418.859
650.6189, 2414.074
651.1010, 2410.733
651.5831, 2402.646
652.0652, 2379.496
652.5474, 2356.528
653.0295, 2348.757
653.5116, 2352.559
653.9937, 2353.016
654.4758, 2332.314
654.9579, 2317.466
655.4401, 2324.143
655.9222, 2357.367
656.4043, 2385.118
656.8864, 2408.852
657.3685, 2425.204
657.8506, 2432.496
658.3328, 2430.899
658.8149, 2415.108
659.2970, 2380.269
659.7791, 2344.343
660.2612, 2330.264
660.7433, 2334.583
661.2255, 2345.198
661.7076, 2361.560
662.1897, 2378.061
662.6718, 2391.207
663.1539, 2400.038
663.6360, 2402.705
664.1181, 2392.570
664.6002, 2381.756
665.0823, 2376.891
665.5645, 2377.279
666.0466, 2372.395
666.5287, 2353.450
667.0108, 2339.329
667.4929, 2339.698
667.9750, 2356.039
668.4572, 2366.355
668.9393, 2370.560
669.4214, 2369.363
669.9035, 2360.733
670.3856, 2346.583
670.8677, 2335.832
671.3499, 2330.099
671.8320, 2326.208
672.3141, 2322.072
672.7962, 2317.478
673.2783, 2312.056
673.7604, 2304.071
674.2426, 2297.303
674.7247, 2293.082
675.2068, 2291.282
675.6889, 2291.616
676.1710, 2293.890
676.6531, 2298.731
677.1353, 2308.460
677.6174, 2321.265
678.0995, 2325.976
678.5816, 2320.655
679.0637, 2314.875
679.5458, 2317.679
680.0280, 2324.902
680.5101, 2310.695
680.9922, 2275.114
681.4743, 2248.515
681.9564, 2265.790
682.4385, 2302.321
682.9207, 2327.840
683.4028, 2337.844
683.8849, 2338.370
684.3670, 2322.705
684.8491, 2303.599
685.3312, 2293.875
685.8134, 2310.471
686.2955, 2315.550
686.7776, 2302.447
687.2597, 2281.052
687.7418, 2266.897
688.2239, 2259.448
688.7061, 2264.534
689.1882, 2291.103
689.6703, 2323.371
690.1524, 2321.105
690.6345, 2289.365
691.1166, 2258.489
691.5988, 2242.952
692.0809, 2237.368
692.5630, 2240.402
693.0451, 2250.650
693.5272, 2257.908
694.0093, 2253.240
694.4915, 2248.131
694.9736, 2250.060
695.4557, 2262.382
695.9378, 2268.216
696.4199, 2265.456
696.9020, 2258.964
697.3842, 2249.616
697.8663, 2236.112
698.3484, 2239.553
698.8305, 2266.969
699.3126, 2289.728
699.7947, 2253.807
700.2769, 2184.772
700.7590, 2156.094
701.2411, 2203.578
701.7232, 2262.784
702.2053, 2285.808
702.6874, 2283.773
703.1696, 2275.551
703.6517, 2256.787
704.1338, 2243.760
704.6159, 2247.172
705.0980, 2260.434
705.5801, 2260.194
706.0623, 2240.250
706.5444, 2220.606
707.0265, 2204.746
707.5086, 2194.752
707.9907, 2208.311
708.4728, 2245.639
708.9550, 2278.311
709.4371, 2287.820
709.9192, 2279.910
710.4013, 2255.520
710.8834, 2215.341
711.3655, 2189.965
711.8477, 2216.537
712.3298, 2253.229
712.8119, 2265.624
713.2940, 2235.255
713.7761, 2216.922
714.2582, 2224.723
714.7404, 2237.204
715.2225, 2231.693
715.7046, 2200.057
716.1867, 2190.798
716.6688, 2214.531
717.1509, 2248.220
717.6331, 2252.887
718.1152, 2235.806
718.5973, 2227.911
719.0794, 2245.884
719.5615, 2263.688
720.0436, 2250.859
720.5258, 2219.409
721.0079, 2194.700
721.4900, 2187.519
721.9721, 2188.070
722.4542, 2202.497
722.9363, 2224.335
723.4185, 2221.670
723.9006, 2176.114
724.3827, 2141.394
724.8648, 2140.319
725.3469, 2166.872
725.8290, 2179.210
726.3112, 2176.881
726.7933, 2177.297
727.2754, 2203.183
727.7575, 2235.382
728.2396, 2235.055
728.7217, 2201.022
729.2039, 2174.415
729.6859, 2196.359
730.1680, 2223.835
730.6501, 2219.005
731.1323, 2155.959
731.6144, 2126.561
732.0965, 2160.585
732.5786, 2206.815
733.0607, 2222.156
733.5428, 2201.651
734.0250, 2177.672
734.5071, 2149.983
734.9892, 2126.640
735.4713, 2120.321
735.9534, 2127.439
736.4355, 2135.299
736.9177, 2136.745
737.3998, 2146.485
737.8819, 2192.034
738.3640, 2250.960
738.8461, 2285.913
739.3282, 2264.396
739.8104, 2241.574
740.2925, 2228.182
740.7746, 2222.802
741.2567, 2224.958
741.7388, 2241.546
742.2209, 2244.459
742.7031, 2219.655
743.1852, 2179.090
743.6673, 2159.704
744.1494, 2160.319
744.6315, 2167.205
745.1136, 2177.202
745.5958, 2186.571
746.0779, 2190.404
746.5600, 2189.260
747.0421, 2187.546
747.5242, 2187.792
748.0063, 2187.423
748.4885, 2185.838
748.9706, 2183.256
749.4527, 2174.550
749.9348, 2153.447
750.4169, 2137.112
750.8990, 2141.378
751.3812, 2165.549
751.8633, 2169.467
752.3454, 2151.220
752.8275, 2130.573
753.3096, 2122.413
753.7917, 2124.832
754.2739, 2137.329
754.7560, 2161.847
755.2381, 2184.710
755.7202, 2200.182
756.2023, 2209.988
756.6844, 2216.184
757.1666, 2221.400
757.6487, 2217.875
758.1308, 2199.991
758.6129, 2179.342
759.0950, 2170.336
759.5771, 2173.586
760.0593, 2179.083
760.5414, 2186.919
761.0235, 2191.748
761.5056, 2182.090
761.9877, 2164.054
762.4698, 2151.790
762.9520, 2152.544
763.4341, 2156.976
763.9162, 2160.695
764.3983, 2164.422
764.8804, 2169.620
765.3625, 2181.946
765.8447, 2188.440
766.3268, 2186.604
766.8089, 2177.908
767.2910, 2162.576
767.7731, 2139.230
768.2552, 2128.116
768.7374, 2144.435
769.2195, 2170.034
769.7016, 2164.784
770.1837, 2137.139
770.6658, 2120.950
771.1479, 2152.849
771.6301, 2185.511
772.1122, 2184.084
772.5943, 2153.418
773.0764, 2136.222
773.5585, 2150.105
774.0406, 2164.087
774.5228, 2167.518
775.0049, 2161.372
775.4870, 2157.914
775.9691, 2156.718
776.4512, 2161.419
776.9333, 2181.946
777.4155, 2207.887
777.8976, 2215.012
778.3797, 2203.790
778.8618, 2189.105
779.3439, 2175.815
779.8260, 2165.764
780.3082, 2158.855
780.7903, 2154.153
781.2724, 2160.951
781.7545, 2194.656
782.2366, 2221.895
782.7188, 2218.199
783.2009, 2178.478
783.6830, 2161.949
784.1651, 2171.210
784.6472, 2186.633
785.1293, 2192.409
785.6115, 2190.657
786.0936, 2185.060
786.5757, 2176.094
787.0578, 2164.063
787.5399, 2137.679
788.0220, 2115.365
788.5042, 2115.687
788.9863, 2163.643
789.4684, 2185.466
789.9505, 2164.937
790.4326, 2134.683
790.9147, 2128.893
791.3969, 2148.876
791.8790, 2158.917
792.3611, 2155.677
792.8432, 2142.228
793.3253, 2108.329
793.8074, 2069.505
794.2896, 2058.620
794.7717, 2093.502
795.2537, 2128.259
795.7358, 2137.416
796.2180, 2135.144
796.7001, 2139.101
797.1822, 2159.898
797.6643, 2170.554
798.1464, 2164.896
798.6285, 2154.730
799.1107, 2160.577
799.5928, 2181.279
800.0749, 2188.689
800.5570, 2173.000
801.0391, 2153.107
801.5212, 2155.972
802.0034, 2170.398
802.4855, 2175.957
802.9676, 2152.495
803.4497, 2136.839
803.9318, 2151.171
804.4139, 2178.515
804.8961, 2187.776
805.3782, 2166.928
805.8603, 2156.230
806.3424, 2162.786
806.8245, 2180.587
807.3066, 2203.927
807.7888, 2230.382
808.2709, 2244.831
808.7530, 2241.191
809.2351, 2225.265
809.7172, 2190.613
810.1993, 2149.658
810.6815, 2126.629
811.1636, 2150.902
811.6457, 2168.722
812.1278, 2164.296
812.6099, 2146.133
813.0920, 2131.009
813.5742, 2119.485
814.0563, 2107.723
814.5384, 2090.664
815.0205, 2078.597
815.5026, 2101.990
815.9847, 2150.491
816.4669, 2186.782
816.9490, 2189.309
817.4311, 2178.436
817.9132, 2159.828
818.3953, 2137.943
818.8774, 2124.288
819.3596, 2129.927
819.8417, 2131.957
820.3238, 2120.879
820.8059, 2105.976
821.2880, 2121.725
821.7701, 2170.492
822.2523, 2198.238
822.7344, 2175.430
823.2165, 2133.222
823.6986, 2118.659
824.1807, 2124.456
824.6628, 2129.747
825.1450, 2123.682
825.6271, 2116.828
826.1092, 2114.526
826.5913, 2115.153
827.0734, 2111.339
827.5555, 2096.917
828.0377, 2092.539
828.5198, 2107.394
829.0019, 2132.829
829.4840, 2146.862
829.9661, 2150.005
830.4482, 2145.565
830.9304, 2127.583
831.4125, 2109.863
831.8946, 2107.153
832.3767, 2115.506
832.8588, 2124.329
833.3409, 2130.723
833.8231, 2136.934
834.3052, 2147.420
834.7873, 2157.544
835.2694, 2149.740
835.7515, 2120.347
836.2336, 2097.483
836.7158, 2093.751
837.1979, 2099.226
837.6800, 2091.211
838.1621, 2075.973
838.6442, 2073.056
839.1263, 2111.395
839.6085, 2145.212
840.0906, 2139.290
840.5727, 2109.304
841.0548, 2106.633
841.5369, 2159.571
842.0190, 2189.584
842.5012, 2173.057
842.9833, 2128.246
843.4654, 2098.991
843.9475, 2085.153
844.4296, 2086.589
844.9117, 2110.792
845.3939, 2140.464
845.8760, 2158.606
846.3581, 2167.997
846.8402, 2174.806
847.3223, 2185.204
847.8044, 2188.076
848.2866, 2176.769
848.7687, 2158.126
849.2508, 2148.441
849.7329, 2150.305
850.2150, 2144.000
850.6971, 2119.233
851.1793, 2092.209
851.6614, 2093.196
852.1435, 2114.501
852.6256, 2136.585
853.1077, 2155.870
853.5898, 2168.861
854.0720, 2168.032
854.5541, 2161.023
855.0362, 2164.181
855.5183, 2189.799
856.0004, 2200.648
856.4825, 2187.788
856.9647, 2162.641
857.4468, 2145.988
857.9289, 2136.263
858.4110, 2119.698
858.8931, 2084.069
859.3752, 2060.322
859.8574, 2094.468
860.3395, 2153.409
860.8216, 2188.648
861.3036, 2172.117
861.7858, 2149.146
862.2679, 2113.883
862.7500, 2083.161
863.2321, 2086.128
863.7142, 2126.455
864.1964, 2145.254
864.6785, 2128.456
865.1606, 2104.952
865.6427, 2115.840
866.1248, 2143.690
866.6069, 2156.203
867.0891, 2137.356
867.5712, 2121.852
868.0533, 2128.846
868.5354, 2142.100
869.0175, 2145.299
869.4996, 2137.369
869.9818, 2119.393
870.4639, 2086.229
870.9460, 2057.197
871.4281, 2059.018
871.9102, 2081.528
872.3923, 2094.320
872.8745, 2092.131
873.3566, 2087.228
873.8387, 2082.621
874.3208, 2082.557
874.8029, 2093.351
875.2850, 2126.394
875.7672, 2138.114
876.2493, 2119.007
876.7314, 2094.304
877.2135, 2082.256
877.6956, 2082.124
878.1777, 2087.654
878.6599, 2098.680
879.1420, 2112.073
879.6241, 2128.661
880.1062, 2144.208
880.5883, 2155.578
881.0704, 2162.629
881.5526, 2161.775
882.0347, 2138.104
882.5168, 2122.580
882.9989, 2133.979
883.4810, 2170.955
883.9631, 2187.690
884.4453, 2183.404
884.9274, 2172.250
885.4095, 2159.880
885.8916, 2148.513
886.3737, 2140.191
886.8558, 2135.310
887.3380, 2135.797
887.8201, 2149.410
888.3022, 2161.503
888.7843, 2170.271
889.2664, 2173.602
889.7485, 2151.630
890.2307, 2097.034
890.7128, 2062.189
891.1949, 2077.967
891.6770, 2119.272
892.1591, 2142.478
892.6412, 2150.535
893.1234, 2152.708
893.6055, 2149.623
894.0876, 2145.743
894.5697, 2142.621
895.0518, 2140.118
895.5339, 2137.361
896.0161, 2132.935
896.4982, 2133.643
896.9803, 2144.340
897.4624, 2155.043
897.9445, 2144.085
898.4266, 2118.074
898.9088, 2096.853
899.3909, 2086.448
899.8730, 2083.649
900.3551, 2091.694
900.8372, 2104.354
901.3193, 2112.646
901.8015, 2111.620
902.2836, 2115.297
902.7657, 2125.333
903.2478, 2138.336
903.7299, 2155.306
904.2120, 2172.531
904.6942, 2168.282
905.1763, 2136.013
905.6584, 2107.785
906.1405, 2112.667
906.6226, 2131.113
907.1047, 2145.600
907.5869, 2152.854
908.0690, 2158.604
908.5511, 2166.931
909.0332, 2167.624
909.5153, 2146.722
909.9974, 2108.199
910.4796, 2094.605
910.9617, 2105.984
911.4438, 2117.447
911.9259, 2099.918
912.4080, 2081.649
912.8901, 2094.346
913.3723, 2138.443
913.8544, 2164.412
914.3365, 2153.838
914.8186, 2140.360
915.3007, 2134.482
915.7828, 2135.407
916.2650, 2142.843
916.7471, 2155.894
917.2292, 2161.176
917.7113, 2142.429
918.1934, 2120.623
918.6755, 2121.301
919.1577, 2135.443
919.6398, 2138.936
920.1219, 2100.148
920.6040, 2084.686
921.0861, 2114.012
921.5682, 2163.475
922.0504, 2182.724
922.5325, 2172.724
923.0146, 2160.440
923.4967, 2151.879
923.9788, 2145.808
924.4609, 2134.155
924.9431, 2126.690
925.4252, 2139.854
925.9073, 2205.555
926.3894, 2238.906
926.8715, 2209.874
927.3536, 2167.841
927.8357, 2160.874
928.3178, 2189.388
928.7999, 2200.841
929.2820, 2190.746
929.7642, 2178.504
930.2463, 2184.806
930.7284, 2196.751
931.2105, 2197.192
931.6926, 2182.966
932.1747, 2176.724
932.6569, 2195.745
933.1390, 2210.146
933.6211, 2204.507
934.1032, 2181.405
934.5853, 2167.446
935.0674, 2162.848
935.5496, 2169.693
936.0317, 2203.865
936.5138, 2239.266
936.9959, 2245.444
937.4780, 2228.505
937.9601, 2210.973
938.4423, 2194.827
938.9244, 2185.153
939.4065, 2182.138
939.8886, 2186.477
940.3707, 2203.081
940.8528, 2231.482
941.3350, 2255.494
941.8171, 2272.837
942.2992, 2278.926
942.7813, 2256.417
943.2634, 2224.405
943.7455, 2210.703
944.2277, 2237.653
944.7098, 2255.996
945.1919, 2259.494
945.6740, 2256.152
946.1561, 2251.255
946.6382, 2245.131
947.1204, 2245.022
947.6025, 2251.399
948.0846, 2263.158
948.5667, 2283.158
949.0488, 2305.552
949.5309, 2326.226
950.0131, 2344.943
950.4952, 2355.462
950.9773, 2344.797
951.4594, 2345.601
951.9415, 2379.844
952.4236, 2435.774
952.9058, 2453.864
953.3879, 2437.207
953.8700, 2415.321
954.3521, 2389.470
954.8342, 2377.712
955.3163, 2409.223
955.7985, 2464.945
956.2806, 2496.577
956.7627, 2484.974
957.2448, 2467.420
957.7269, 2441.506
958.2090, 2421.176
958.6912, 2437.284
959.1733, 2481.624
959.6554, 2512.803
960.1375, 2519.250
960.6196, 2525.359
961.1017, 2556.987
961.5839, 2592.555
962.0660, 2609.386
962.5481, 2596.209
963.0302, 2593.611
963.5123, 2602.119
963.9944, 2619.844
964.4766, 2656.045
964.9587, 2699.587
965.4408, 2708.785
965.9229, 2685.972
966.4050, 2659.254
966.8871, 2636.207
967.3693, 2622.110
967.8514, 2627.292
968.3335, 2646.282
968.8156, 2649.452
969.2977, 2633.543
969.7798, 2612.943
970.2620, 2588.282
970.7441, 2566.568
971.2262, 2566.193
971.7083, 2578.212
972.1904, 2580.573
972.6725, 2560.256
973.1547, 2539.305
973.6368, 2531.394
974.1189, 2523.189
974.6010, 2496.747
975.0831, 2444.143
975.5652, 2422.318
976.0474, 2438.125
976.5295, 2460.127
977.0116, 2461.738
977.4937, 2450.097
977.9758, 2431.220
978.4579, 2405.996
978.9401, 2388.250
979.4222, 2395.710
979.9043, 2396.174
980.3864, 2371.080
980.8685, 2328.859
981.3506, 2323.773
981.8328, 2354.193
982.3149, 2365.155
982.7970, 2310.455
983.2791, 2253.237
983.7612, 2273.240
984.2433, 2333.951
984.7255, 2367.131
985.2076, 2331.780
985.6897, 2301.314
986.1718, 2279.459
986.6539, 2264.733
987.1360, 2254.929
987.6182, 2250.553
988.1003, 2256.463
988.5824, 2274.066
989.0645, 2289.892
989.5466, 2300.516
990.0287, 2300.073
990.5109, 2275.124
990.9930, 2221.770
991.4751, 2202.728
991.9572, 2228.565
992.4393, 2258.118
992.9214, 2274.102
993.4035, 2278.405
993.8856, 2273.557
994.3677, 2260.363
994.8499, 2242.169
995.3320, 2203.451
995.8141, 2179.292
996.2962, 2196.490
996.7783, 2230.392
997.2604, 2243.073
997.7426, 2229.615
998.2247, 2230.690
998.7068, 2255.151
999.1889, 2275.028
999.6710, 2245.167
1000.153, 2198.275
1000.635, 2180.958
1001.117, 2202.639
1001.599, 2228.822
1002.082, 2264.721
1002.564, 2286.462
1003.046, 2278.225
1003.528, 2245.651
1004.010, 2228.750
1004.492, 2226.292
1004.974, 2225.676
1005.456, 2218.472
1005.939, 2211.857
1006.421, 2215.251
1006.903, 2222.726
1007.385, 2219.866
1007.867, 2196.358
1008.349, 2183.193
1008.831, 2185.802
1009.313, 2194.262
1009.795, 2197.232
1010.278, 2195.416
1010.760, 2191.081
1011.242, 2184.810
1011.724, 2172.732
1012.206, 2141.965
1012.688, 2114.279
1013.170, 2101.080
1013.652, 2102.412
1014.135, 2131.064
1014.617, 2191.272
1015.099, 2230.149
1015.581, 2202.586
1016.063, 2157.125
1016.545, 2166.131
1017.027, 2208.199
1017.509, 2235.259
1017.991, 2216.925
1018.474, 2204.073
1018.956, 2204.128
1019.438, 2209.736
1019.920, 2211.155
1020.402, 2209.441
1020.884, 2217.534
1021.366, 2237.858
1021.848, 2245.389
1022.331, 2202.094
1022.813, 2153.624
1023.295, 2136.141
1023.777, 2152.458
1024.259, 2171.029
1024.741, 2193.275
1025.223, 2212.625
1025.705, 2228.385
1026.187, 2237.354
1026.670, 2228.248
1027.152, 2207.679
1027.634, 2191.373
1028.116, 2185.064
1028.598, 2184.120
1029.080, 2193.162
1029.562, 2202.192
1030.044, 2201.549
1030.526, 2191.045
1031.009, 2170.471
1031.491, 2138.516
1031.973, 2123.136
1032.455, 2174.324
1032.937, 2231.220
1033.419, 2228.143
1033.901, 2167.795
1034.383, 2143.393
1034.865, 2181.777
1035.348, 2207.038
1035.830, 2193.080
1036.312, 2160.306
1036.794, 2143.947
1037.276, 2142.523
1037.758, 2154.758
1038.240, 2192.353
1038.722, 2214.616
1039.205, 2188.059
1039.687, 2150.323
1040.169, 2131.720
1040.651, 2133.598
1041.133, 2144.586
1041.615, 2165.595
1042.097, 2180.023
1042.579, 2165.863
1043.062, 2146.941
1043.544, 2154.951
1044.026, 2181.265
1044.508, 2186.549
1044.990, 2140.323
1045.472, 2119.447
1045.954, 2144.932
1046.436, 2187.538
1046.918, 2199.685
1047.401, 2189.280
1047.883, 2176.804
1048.365, 2164.479
1048.847, 2161.735
1049.329, 2184.608
1049.811, 2209.149
1050.293, 2219.239
1050.775, 2215.184
1051.257, 2209.823
1051.740, 2202.927
1052.222, 2200.571
1052.704, 2214.562
1053.186, 2225.925
1053.668, 2202.364
1054.150, 2162.318
1054.632, 2144.959
1055.114, 2182.866
1055.597, 2201.789
1056.079, 2192.677
1056.561, 2174.653
1057.043, 2170.230
1057.525, 2173.761
1058.007, 2164.785
1058.489, 2142.513
1058.971, 2129.657
1059.453, 2145.300
1059.936, 2166.437
1060.418, 2185.374
1060.900, 2200.302
1061.382, 2203.315
1061.864, 2194.269
1062.346, 2184.712
1062.828, 2177.221
1063.310, 2172.797
1063.792, 2169.196
1064.275, 2170.733
1064.757, 2186.041
1065.239, 2232.107
1065.721, 2243.351
1066.203, 2205.977
1066.685, 2169.844
1067.167, 2178.593
1067.649, 2210.793
1068.132, 2205.241
1068.614, 2171.317
1069.096, 2147.896
1069.578, 2166.473
1070.060, 2180.368
1070.542, 2174.147
1071.024, 2158.099
1071.506, 2145.783
1071.989, 2137.230
1072.471, 2136.066
1072.953, 2143.220
1073.435, 2151.910
1073.917, 2158.977
1074.399, 2163.553
1074.881, 2162.326
1075.363, 2155.619
1075.845, 2160.357
1076.328, 2181.020
1076.810, 2194.438
1077.292, 2188.121
1077.774, 2177.524
1078.256, 2195.085
1078.738, 2224.463
1079.220, 2233.777
1079.702, 2199.191
1080.184, 2176.320
1080.667, 2175.134
1081.149, 2182.677
1081.631, 2195.532
1082.113, 2210.290
1082.595, 2199.948
1083.077, 2168.100
1083.559, 2142.025
1084.041, 2137.714
1084.524, 2142.560
1085.006, 2158.328
1085.488, 2176.266
1085.970, 2178.636
1086.452, 2163.286
1086.934, 2154.525
1087.416, 2155.816
1087.898, 2162.500
1088.380, 2174.705
1088.863, 2186.954
1089.345, 2194.508
1089.827, 2196.671
1090.309, 2191.234
1090.791, 2174.771
1091.273, 2158.882
1091.755, 2144.365
1092.237, 2137.816
1092.719, 2164.560
1093.202, 2207.256
1093.684, 2226.140
1094.166, 2197.398
1094.648, 2172.545
1095.130, 2161.085
1095.612, 2161.599
1096.094, 2181.416
1096.576, 2216.172
1097.058, 2216.286
1097.541, 2185.865
1098.023, 2160.036
1098.505, 2164.816
1098.987, 2174.517
1099.469, 2173.209
1099.951, 2168.426
1100.433, 2176.442
1100.915, 2201.436
1101.398, 2209.276
1101.880, 2195.095
1102.362, 2174.105
1102.844, 2153.452
1103.326, 2138.435
1103.808, 2135.627
1104.290, 2145.208
1104.772, 2159.528
1105.255, 2181.335
1105.737, 2199.219
1106.219, 2211.849
1106.701, 2215.211
1107.183, 2193.334
1107.665, 2159.413
1108.147, 2140.525
1108.629, 2145.925
1109.111, 2154.269
1109.594, 2163.856
1110.076, 2170.395
1110.558, 2170.721
1111.040, 2166.273
1111.522, 2161.258
1112.004, 2157.229
1112.486, 2162.452
1112.968, 2194.449
1113.450, 2219.147
1113.933, 2213.929
1114.415, 2197.336
1114.897, 2189.274
1115.379, 2190.285
1115.861, 2197.845
1116.343, 2212.250
1116.825, 2218.464
1117.307, 2189.740
1117.790, 2161.567
1118.272, 2172.352
1118.754, 2209.963
1119.236, 2222.292
1119.718, 2202.953
1120.200, 2171.949
1120.682, 2125.570
1121.164, 2093.192
1121.646, 2128.945
1122.129, 2189.659
1122.611, 2216.213
1123.093, 2200.162
1123.575, 2177.806
1124.057, 2146.459
1124.539, 2125.694
1125.021, 2124.083
1125.503, 2134.855
1125.985, 2148.194
1126.468, 2161.893
1126.950, 2169.789
1127.432, 2167.196
1127.914, 2167.028
1128.396, 2173.135
1128.878, 2183.349
1129.360, 2200.162
1129.842, 2220.760
1130.325, 2225.982
1130.807, 2216.679
1131.289, 2198.443
1131.771, 2160.007
1132.253, 2129.633
1132.735, 2121.568
1133.217, 2128.357
1133.699, 2143.446
1134.182, 2167.935
1134.664, 2185.138
1135.146, 2194.183
1135.628, 2200.843
1136.110, 2211.303
1136.592, 2219.443
1137.074, 2221.357
1137.556, 2216.657
1138.038, 2204.731
1138.521, 2181.718
1139.003, 2169.485
1139.485, 2172.433
1139.967, 2181.090
1140.449, 2188.942
1140.931, 2194.547
1141.413, 2195.108
1141.895, 2190.414
1142.377, 2189.176
1142.860, 2195.933
1143.342, 2194.719
1143.824, 2178.050
1144.306, 2156.278
1144.788, 2145.132
1145.270, 2142.179
1145.752, 2141.909
1146.234, 2140.372
1146.717, 2155.120
1147.199, 2203.761
1147.681, 2240.696
1148.163, 2238.818
1148.645, 2211.133
1149.127, 2187.383
1149.609, 2170.655
1150.091, 2171.404
1150.573, 2209.654
1151.056, 2238.756
1151.538, 2243.972
1152.020, 2239.050
1152.502, 2232.653
1152.984, 2224.849
1153.466, 2211.322
1153.948, 2194.898
1154.430, 2194.663
1154.912, 2253.124
1155.395, 2293.492
1155.877, 2259.964
1156.359, 2201.686
1156.841, 2181.201
1157.323, 2197.744
1157.805, 2204.637
1158.287, 2198.289
1158.769, 2181.175
1159.251, 2126.585
1159.734, 2089.173
1160.216, 2128.212
1160.698, 2209.707
1161.180, 2234.885
1161.662, 2199.055
1162.144, 2170.956
1162.626, 2162.486
1163.108, 2163.461
1163.591, 2173.366
1164.073, 2181.430
1164.555, 2173.583
1165.037, 2151.064
1165.519, 2142.921
1166.001, 2151.065
1166.483, 2162.648
1166.965, 2175.722
1167.448, 2185.572
1167.930, 2186.295
1168.412, 2180.465
1168.894, 2167.976
1169.376, 2144.870
1169.858, 2144.246
1170.340, 2174.601
1170.822, 2194.262
1171.304, 2180.809
1171.786, 2150.238
1172.269, 2112.031
1172.751, 2079.621
1173.233, 2078.864
1173.715, 2139.811
1174.197, 2179.583
1174.679, 2192.799
1175.161, 2197.827
1175.643, 2209.192
1176.126, 2219.921
1176.608, 2212.571
1177.090, 2193.903
1177.572, 2181.402
1178.054, 2186.409
1178.536, 2190.604
1179.018, 2195.658
1179.500, 2193.742
1179.983, 2168.017
1180.465, 2133.223
1180.947, 2123.914
1181.429, 2137.928
1181.911, 2159.250
1182.393, 2196.892
1182.875, 2219.264
1183.357, 2218.863
1183.839, 2206.453
1184.322, 2188.157
1184.804, 2170.429
1185.286, 2177.713
1185.768, 2209.445
1186.250, 2227.006
1186.732, 2193.054
1187.214, 2170.412
1187.696, 2180.212
1188.178, 2203.946
1188.661, 2207.923
1189.143, 2197.448
1189.625, 2188.927
1190.107, 2184.862
1190.589, 2183.234
1191.071, 2181.218
1191.553, 2184.744
1192.035, 2200.517
1192.518, 2219.490
1193.000, 2212.964
1193.482, 2188.028
1193.964, 2171.972
1194.446, 2172.372
1194.928, 2177.098
1195.410, 2184.091
1195.892, 2190.567
1196.375, 2198.957
1196.857, 2204.620
1197.339, 2175.759
1197.821, 2123.864
1198.303, 2102.805
1198.785, 2142.533
1199.267, 2183.299
1199.749, 2202.372
1200.231, 2207.105
1200.714, 2198.145
1201.196, 2178.534
1201.678, 2173.677
1202.160, 2180.252
1202.642, 2177.807
1203.124, 2142.764
1203.606, 2121.491
1204.088, 2149.264
1204.570, 2188.806
1205.053, 2214.843
1205.535, 2226.752
1206.017, 2206.841
1206.499, 2162.305
1206.981, 2143.436
1207.463, 2223.573
1207.945, 2280.473
1208.427, 2222.669
1208.910, 2142.565
1209.392, 2138.961
1209.874, 2206.049
1210.356, 2240.893
1210.838, 2243.085
1211.320, 2233.847
1211.802, 2211.874
1212.284, 2197.369
1212.766, 2208.072
1213.249, 2225.649
1213.731, 2226.073
1214.213, 2211.102
1214.695, 2207.058
1215.177, 2214.639
1215.659, 2217.483
1216.141, 2198.588
1216.623, 2180.314
1217.105, 2171.865
1217.588, 2171.028
1218.070, 2175.921
1218.552, 2186.138
1219.034, 2199.466
1219.516, 2215.561
1219.998, 2227.871
1220.480, 2234.510
1220.962, 2233.513
1221.445, 2223.616
1221.927, 2206.437
1222.409, 2177.854
1222.891, 2142.021
1223.373, 2131.231
1223.855, 2150.531
1224.337, 2173.978
1224.819, 2196.488
1225.301, 2206.436
1225.784, 2190.795
1226.266, 2166.088
1226.748, 2182.375
1227.230, 2229.245
1227.712, 2246.827
1228.194, 2220.719
1228.676, 2200.482
1229.158, 2228.190
1229.641, 2250.220
1230.123, 2236.172
1230.605, 2202.967
1231.087, 2207.062
1231.569, 2236.971
1232.051, 2243.717
1232.533, 2210.826
1233.015, 2184.483
1233.497, 2195.206
1233.979, 2207.808
1234.462, 2202.841
1234.944, 2191.361
1235.426, 2218.816
1235.908, 2268.976
1236.390, 2284.131
1236.872, 2237.316
1237.354, 2200.354
1237.836, 2212.344
1238.319, 2224.831
1238.801, 2214.514
1239.283, 2191.779
1239.765, 2186.207
1240.247, 2194.825
1240.729, 2210.775
1241.211, 2235.981
1241.693, 2257.566
1242.176, 2281.041
1242.658, 2286.609
1243.140, 2253.978
1243.622, 2204.182
1244.104, 2193.106
1244.586, 2209.713
1245.068, 2227.773
1245.550, 2240.501
1246.032, 2251.178
1246.515, 2260.997
1246.997, 2268.049
1247.479, 2272.492
1247.961, 2272.493
1248.443, 2258.747
1248.925, 2238.542
1249.407, 2227.816
1249.889, 2243.106
1250.371, 2239.850
1250.854, 2209.341
1251.336, 2179.949
1251.818, 2168.790
1252.300, 2171.040
1252.782, 2185.512
1253.264, 2205.299
1253.746, 2215.847
1254.228, 2206.091
1254.711, 2205.398
1255.193, 2216.482
1255.675, 2225.153
1256.157, 2214.264
1256.639, 2201.786
1257.121, 2217.973
1257.603, 2247.384
1258.085, 2259.240
1258.568, 2244.956
1259.050, 2229.105
1259.532, 2211.034
1260.014, 2196.772
1260.496, 2190.988
1260.978, 2190.751
1261.460, 2190.928
1261.942, 2195.913
1262.424, 2215.813
1262.906, 2257.364
1263.389, 2275.830
1263.871, 2269.851
1264.353, 2260.597
1264.835, 2264.104
1265.317, 2267.573
1265.799, 2259.157
1266.281, 2246.651
1266.763, 2243.214
1267.246, 2249.741
1267.728, 2244.142
1268.210, 2226.777
1268.692, 2213.941
1269.174, 2217.841
1269.656, 2226.747
1270.138, 2238.111
1270.620, 2249.034
1271.103, 2256.645
1271.585, 2261.056
1272.067, 2260.615
1272.549, 2256.417
1273.031, 2256.821
1273.513, 2268.875
1273.995, 2283.456
1274.477, 2301.967
1274.959, 2316.054
1275.442, 2312.362
1275.924, 2296.769
1276.406, 2292.883
1276.888, 2298.886
1277.370, 2301.265
1277.852, 2296.812
1278.334, 2281.876
1278.816, 2249.053
1279.298, 2221.270
1279.781, 2225.699
1280.263, 2250.575
1280.745, 2277.362
1281.227, 2303.711
1281.709, 2324.476
1282.191, 2350.735
1282.673, 2341.830
1283.155, 2285.379
1283.638, 2229.965
1284.120, 2228.764
1284.602, 2249.917
1285.084, 2255.935
1285.566, 2249.053
1286.048, 2240.359
1286.530, 2230.021
1287.012, 2219.320
1287.495, 2207.163
1287.977, 2205.991
1288.459, 2237.837
1288.941, 2273.869
1289.423, 2294.354
1289.905, 2298.489
1290.387, 2284.808
1290.869, 2250.346
1291.351, 2239.737
1291.833, 2255.255
1292.316, 2273.456
1292.798, 2287.427
1293.280, 2289.928
1293.762, 2265.205
1294.244, 2234.351
1294.726, 2222.733
1295.208, 2228.439
1295.690, 2235.282
1296.172, 2242.649
1296.655, 2252.811
1297.137, 2278.832
1297.619, 2290.160
1298.101, 2275.044
1298.583, 2251.501
1299.065, 2235.139
1299.547, 2227.281
1300.029, 2237.531
1300.512, 2261.406
1300.994, 2278.305
1301.476, 2277.001
1301.958, 2274.088
1302.440, 2269.932
1302.922, 2266.704
1303.404, 2267.985
1303.886, 2270.339
1304.369, 2265.832
1304.851, 2258.188
1305.333, 2261.099
1305.815, 2282.195
1306.297, 2287.950
1306.779, 2274.888
1307.261, 2262.580
1307.743, 2267.526
1308.225, 2278.351
1308.708, 2289.518
1309.190, 2298.028
1309.672, 2299.123
1310.154, 2292.363
1310.636, 2283.774
1311.118, 2273.752
1311.600, 2265.475
1312.082, 2262.548
##END=



