##NAMES=Actinolite
##RRUFFID=R040064
##IDEAL CHEMISTRY=Ca_2_(Mg_4.5-2.5_Fe^2+^_0.5-2.5_)Si_8_O_22_(OH)_2_
##LOCALITY=Ehime Perfecture, Uma Gun, Japan
##OWNER=RRUFF
##SOURCE=University of Arizona Mineral Museum
##DESCRIPTION=Aggregate of green acicular crystals associated with chlorite
##STATUS=The identification of this mineral has been confirmed by X-ray diffraction and chemical analysis
##URL=rruff.info/R040064
##MEASURED CHEMISTRY=(Ca_0.95_Na_0.04_Mn_0.01_)_2_(Mg_0.88_Fe_0.12_)_5_(Si_0.98_Al_0.02_)_8_O_22_(OH)_2_
208.3091, 41515.02
208.7912, 41611.30
209.2734, 41712.85
209.7555, 41814.71
210.2376, 41908.90
210.7197, 41992.65
211.2018, 42079.68
211.6839, 42179.37
212.1660, 42291.28
212.6482, 42425.67
213.1303, 42591.41
213.6124, 42778.74
214.0945, 42980.15
214.5766, 43194.95
215.0587, 43419.42
215.5409, 43641.98
216.0230, 43862.90
216.5051, 44114.39
216.9872, 44426.07
217.4693, 44753.69
217.9514, 45063.48
218.4336, 45352.67
218.9157, 45628.42
219.3978, 45897.09
219.8799, 46158.22
220.3620, 46406.20
220.8441, 46650.38
221.3263, 46868.02
221.8084, 47046.83
222.2905, 47186.60
222.7726, 47291.58
223.2547, 47365.51
223.7368, 47407.44
224.2190, 47406.27
224.7011, 47324.89
225.1832, 47246.59
225.6653, 47234.78
226.1474, 47285.74
226.6295, 47377.38
227.1117, 47512.19
227.5938, 47679.16
228.0759, 47856.20
228.5580, 48065.98
229.0401, 48234.38
229.5222, 48290.69
230.0044, 48252.64
230.4865, 48182.94
230.9686, 48130.55
231.4507, 48062.79
231.9328, 47894.74
232.4149, 47592.75
232.8971, 47261.55
233.3792, 46990.32
233.8613, 46759.27
234.3434, 46509.32
234.8255, 46179.11
235.3076, 45835.81
235.7898, 45580.87
236.2719, 45426.45
236.7540, 45320.35
237.2361, 45239.56
237.7182, 45179.10
238.2003, 45126.47
238.6825, 45073.43
239.1646, 45030.97
239.6467, 45016.45
240.1288, 45031.16
240.6109, 45049.13
241.0930, 45047.69
241.5752, 45039.26
242.0573, 45058.60
242.5394, 45139.89
243.0215, 45224.11
243.5036, 45257.41
243.9857, 45245.86
244.4679, 45241.56
244.9500, 45272.26
245.4321, 45331.13
245.9142, 45389.64
246.3963, 45438.26
246.8784, 45497.93
247.3606, 45604.68
247.8427, 45736.95
248.3248, 45820.75
248.8069, 45814.66
249.2890, 45747.74
249.7711, 45693.13
250.2533, 45661.45
250.7354, 45618.32
251.2175, 45530.04
251.6996, 45423.37
252.1817, 45355.05
252.6638, 45349.52
253.1460, 45375.18
253.6281, 45372.69
254.1102, 45331.86
254.5923, 45294.68
255.0744, 45268.00
255.5565, 45249.30
256.0387, 45236.78
256.5208, 45230.26
257.0029, 45226.81
257.4850, 45220.76
257.9671, 45205.56
258.4492, 45211.98
258.9314, 45262.41
259.4135, 45322.27
259.8956, 45364.91
260.3777, 45386.18
260.8598, 45393.20
261.3419, 45391.51
261.8241, 45378.32
262.3062, 45372.65
262.7883, 45376.23
263.2704, 45385.11
263.7525, 45403.58
264.2346, 45427.42
264.7168, 45444.21
265.1989, 45445.02
265.6810, 45429.96
266.1631, 45394.20
266.6452, 45308.96
267.1273, 45235.82
267.6095, 45194.92
268.0916, 45181.85
268.5737, 45186.28
269.0558, 45202.88
269.5379, 45230.06
270.0201, 45257.65
270.5022, 45282.75
270.9843, 45311.79
271.4664, 45356.26
271.9485, 45401.38
272.4306, 45425.94
272.9128, 45420.00
273.3949, 45396.90
273.8770, 45386.46
274.3591, 45373.38
274.8412, 45402.52
275.3233, 45505.73
275.8055, 45629.51
276.2876, 45728.82
276.7697, 45792.36
277.2518, 45840.54
277.7339, 45905.26
278.2160, 45995.80
278.6982, 46072.05
279.1803, 46111.90
279.6624, 46152.41
280.1445, 46219.23
280.6266, 46310.46
281.1087, 46400.70
281.5909, 46469.49
282.0730, 46516.93
282.5551, 46539.81
283.0372, 46505.54
283.5193, 46482.10
284.0014, 46510.97
284.4836, 46577.10
284.9657, 46638.55
285.4478, 46671.08
285.9299, 46678.54
286.4120, 46671.15
286.8941, 46641.78
287.3763, 46613.18
287.8584, 46597.95
288.3405, 46591.12
288.8226, 46584.57
289.3047, 46571.46
289.7868, 46562.69
290.2690, 46584.44
290.7511, 46644.08
291.2332, 46680.39
291.7153, 46640.11
292.1974, 46573.29
292.6795, 46545.05
293.1617, 46568.57
293.6438, 46616.83
294.1259, 46679.75
294.6080, 46753.05
295.0901, 46810.12
295.5722, 46829.49
296.0544, 46844.22
296.5365, 46909.07
297.0186, 47032.82
297.5007, 47142.59
297.9828, 47193.96
298.4649, 47215.27
298.9471, 47251.93
299.4292, 47311.46
299.9113, 47398.84
300.3934, 47538.35
300.8755, 47737.91
301.3576, 47878.24
301.8398, 47906.40
302.3219, 47896.93
302.8040, 47911.88
303.2861, 47955.02
303.7682, 47998.15
304.2503, 48015.36
304.7325, 48008.00
305.2146, 48037.21
305.6967, 48150.95
306.1788, 48247.30
306.6609, 48280.34
307.1430, 48264.86
307.6252, 48234.45
308.1073, 48206.03
308.5894, 48179.79
309.0715, 48156.90
309.5536, 48148.91
310.0357, 48129.88
310.5179, 48095.07
311.0000, 48049.77
311.4821, 47991.25
311.9642, 47920.95
312.4463, 47858.83
312.9284, 47842.19
313.4106, 47901.84
313.8927, 47941.01
314.3748, 47961.10
314.8569, 47964.20
315.3390, 47937.87
315.8211, 47890.33
316.3033, 47854.03
316.7854, 47866.05
317.2675, 47928.39
317.7496, 47964.90
318.2317, 47934.68
318.7138, 47923.91
319.1960, 47981.11
319.6781, 48077.37
320.1602, 48153.53
320.6423, 48164.54
321.1244, 48144.70
321.6065, 48193.36
322.0887, 48340.55
322.5708, 48469.03
323.0529, 48511.20
323.5350, 48519.24
324.0171, 48543.41
324.4992, 48596.67
324.9814, 48663.08
325.4635, 48722.39
325.9456, 48776.60
326.4277, 48857.64
326.9098, 49000.18
327.3919, 49143.72
327.8741, 49214.46
328.3562, 49209.52
328.8383, 49199.04
329.3204, 49221.80
329.8025, 49257.94
330.2846, 49266.86
330.7668, 49239.59
331.2489, 49209.25
331.7310, 49209.19
332.2131, 49239.05
332.6952, 49261.98
333.1773, 49277.97
333.6595, 49285.16
334.1415, 49283.21
334.6237, 49271.88
335.1058, 49247.37
335.5879, 49204.44
336.0700, 49148.85
336.5521, 49111.16
337.0342, 49094.52
337.5164, 49089.40
337.9985, 49083.60
338.4806, 49091.65
338.9627, 49141.53
339.4448, 49241.91
339.9269, 49360.98
340.4091, 49442.95
340.8912, 49465.21
341.3733, 49493.35
341.8554, 49503.84
342.3375, 49536.39
342.8196, 49637.05
343.3018, 49791.88
343.7839, 49934.82
344.2660, 49997.31
344.7481, 49979.17
345.2302, 50002.54
345.7123, 50094.98
346.1945, 50198.37
346.6766, 50311.58
347.1587, 50420.00
347.6408, 50499.48
348.1229, 50533.04
348.6050, 50544.41
349.0872, 50581.41
349.5693, 50650.98
350.0514, 50718.45
350.5335, 50783.51
351.0156, 50834.86
351.4977, 50857.77
351.9799, 50848.61
352.4620, 50831.75
352.9441, 50821.35
353.4262, 50817.59
353.9083, 50825.55
354.3904, 50854.82
354.8726, 50877.04
355.3547, 50854.22
355.8368, 50794.04
356.3189, 50736.67
356.8010, 50682.49
357.2831, 50640.85
357.7653, 50620.98
358.2474, 50623.16
358.7295, 50644.09
359.2116, 50685.20
359.6937, 50743.06
360.1758, 50797.81
360.6580, 50848.32
361.1401, 50897.78
361.6222, 50926.11
362.1043, 50959.90
362.5864, 51045.04
363.0685, 51197.72
363.5507, 51383.50
364.0328, 51544.06
364.5149, 51670.40
364.9970, 51789.40
365.4791, 51895.46
365.9612, 51999.98
366.4434, 52106.79
366.9255, 52217.79
367.4076, 52337.28
367.8897, 52478.20
368.3718, 52634.45
368.8539, 52726.54
369.3361, 52715.16
369.8182, 52689.02
370.3003, 52686.93
370.7824, 52682.82
371.2645, 52634.02
371.7466, 52516.17
372.2288, 52383.07
372.7109, 52323.11
373.1930, 52344.29
373.6751, 52334.29
374.1572, 52235.21
374.6393, 52122.33
375.1215, 52066.20
375.6036, 52067.84
376.0857, 52084.66
376.5678, 52110.97
377.0499, 52134.19
377.5320, 52124.44
378.0142, 52075.50
378.4963, 52023.23
378.9784, 51996.97
379.4605, 51993.58
379.9426, 51979.60
380.4247, 51940.36
380.9069, 51905.01
381.3890, 51885.20
381.8711, 51881.13
382.3532, 51889.26
382.8353, 51907.25
383.3174, 51943.08
383.7996, 52014.12
384.2817, 52147.45
384.7638, 52277.80
385.2459, 52409.06
385.7280, 52535.14
386.2101, 52639.11
386.6923, 52728.03
387.1744, 52834.43
387.6565, 52990.46
388.1386, 53196.11
388.6207, 53411.57
389.1028, 53677.23
389.5850, 53898.60
390.0671, 54017.96
390.5492, 54087.14
391.0313, 54188.03
391.5134, 54361.22
391.9955, 54542.43
392.4777, 54627.73
392.9598, 54607.96
393.4419, 54577.62
393.9240, 54581.57
394.4061, 54557.48
394.8882, 54437.05
395.3704, 54221.98
395.8525, 54012.77
396.3346, 53846.20
396.8167, 53720.19
397.2988, 53656.42
397.7809, 53661.87
398.2631, 53633.60
398.7452, 53473.11
399.2273, 53211.24
399.7094, 53046.62
400.1915, 53061.47
400.6736, 53081.39
401.1558, 53021.36
401.6379, 52921.55
402.1200, 52860.03
402.6021, 52865.08
403.0842, 52896.14
403.5663, 52882.04
404.0485, 52785.57
404.5306, 52736.00
405.0127, 52753.56
405.4948, 52794.94
405.9769, 52839.80
406.4590, 52887.29
406.9412, 52943.69
407.4233, 53012.68
407.9054, 53095.24
408.3875, 53195.39
408.8696, 53327.61
409.3517, 53449.44
409.8339, 53534.40
410.3160, 53611.47
410.7981, 53710.89
411.2802, 53840.72
411.7623, 53972.15
412.2444, 54075.18
412.7266, 54153.98
413.2087, 54242.79
413.6908, 54357.10
414.1729, 54458.50
414.6550, 54507.03
415.1371, 54511.09
415.6193, 54498.05
416.1014, 54461.90
416.5835, 54419.21
417.0656, 54385.21
417.5477, 54357.08
418.0298, 54325.94
418.5120, 54290.40
418.9941, 54242.15
419.4762, 54157.89
419.9583, 53989.67
420.4404, 53861.10
420.9225, 53803.35
421.4047, 53768.26
421.8868, 53716.87
422.3689, 53645.97
422.8510, 53574.78
423.3331, 53519.92
423.8152, 53480.95
424.2974, 53455.95
424.7795, 53457.18
425.2616, 53456.15
425.7437, 53453.54
426.2258, 53441.26
426.7079, 53401.17
427.1901, 53322.87
427.6722, 53249.63
428.1543, 53239.47
428.6364, 53288.74
429.1185, 53328.29
429.6006, 53335.66
430.0828, 53346.08
430.5649, 53410.48
431.0470, 53515.76
431.5291, 53581.59
432.0112, 53529.77
432.4933, 53470.87
432.9755, 53535.18
433.4576, 53697.95
433.9397, 53812.85
434.4218, 53793.87
434.9039, 53698.75
435.3860, 53690.21
435.8682, 53875.07
436.3503, 53983.34
436.8324, 53947.25
437.3145, 53865.25
437.7966, 53817.55
438.2787, 53812.05
438.7609, 53810.33
439.2430, 53773.41
439.7251, 53704.63
440.2072, 53672.75
440.6893, 53709.36
441.1714, 53736.58
441.6536, 53726.58
442.1357, 53698.46
442.6178, 53670.38
443.0999, 53645.89
443.5820, 53634.32
444.0641, 53656.34
444.5463, 53705.16
445.0284, 53727.19
445.5105, 53700.69
445.9926, 53672.74
446.4747, 53712.91
446.9568, 53800.05
447.4390, 53822.04
447.9211, 53706.95
448.4032, 53568.32
448.8853, 53467.14
449.3674, 53407.64
449.8495, 53400.93
450.3317, 53457.29
450.8138, 53545.36
451.2959, 53600.80
451.7780, 53601.85
452.2601, 53612.48
452.7422, 53640.61
453.2244, 53671.48
453.7065, 53703.60
454.1886, 53730.88
454.6707, 53737.23
455.1528, 53703.94
455.6349, 53647.95
456.1171, 53635.27
456.5992, 53678.93
457.0813, 53730.48
457.5634, 53786.47
458.0455, 53836.81
458.5276, 53876.75
459.0098, 53905.76
459.4919, 53909.36
459.9740, 53837.75
460.4561, 53742.01
460.9382, 53755.76
461.4203, 53901.86
461.9025, 54033.57
462.3846, 54039.94
462.8667, 53941.63
463.3488, 53878.59
463.8309, 53844.92
464.3130, 53851.13
464.7952, 53919.48
465.2773, 54022.55
465.7594, 54138.61
466.2415, 54257.23
466.7236, 54350.60
467.2057, 54379.61
467.6879, 54334.26
468.1700, 54304.09
468.6521, 54294.39
469.1342, 54295.07
469.6163, 54316.88
470.0984, 54342.57
470.5806, 54343.96
471.0627, 54306.14
471.5448, 54258.67
472.0269, 54239.33
472.5090, 54246.29
472.9911, 54256.87
473.4733, 54271.36
473.9554, 54280.39
474.4375, 54276.88
474.9196, 54261.49
475.4017, 54228.77
475.8839, 54146.51
476.3660, 54074.59
476.8481, 54058.54
477.3302, 54088.11
477.8123, 54134.95
478.2944, 54187.83
478.7766, 54245.73
479.2587, 54307.81
479.7408, 54391.20
480.2229, 54440.62
480.7050, 54429.81
481.1871, 54414.96
481.6693, 54423.14
482.1514, 54452.65
482.6335, 54492.00
483.1156, 54535.55
483.5977, 54581.98
484.0798, 54628.48
484.5620, 54674.96
485.0441, 54718.89
485.5262, 54743.66
486.0083, 54780.25
486.4904, 54873.62
486.9725, 55022.66
487.4547, 55136.09
487.9368, 55145.59
488.4189, 55123.95
488.9010, 55168.30
489.3831, 55267.30
489.8652, 55318.21
490.3474, 55253.48
490.8295, 55123.91
491.3116, 55071.73
491.7937, 55182.95
492.2758, 55253.98
492.7579, 55271.30
493.2401, 55260.09
493.7222, 55226.71
494.2043, 55180.23
494.6864, 55139.10
495.1685, 55117.19
495.6506, 55110.97
496.1328, 55109.85
496.6149, 55118.03
497.0970, 55117.75
497.5791, 55093.75
498.0612, 55065.22
498.5433, 55055.07
499.0254, 55065.83
499.5075, 55067.24
499.9897, 55016.41
500.4718, 54962.90
500.9539, 54989.26
501.4360, 55091.91
501.9181, 55186.33
502.4002, 55221.06
502.8824, 55208.91
503.3645, 55195.52
503.8466, 55145.80
504.3287, 55143.91
504.8108, 55225.97
505.2929, 55333.17
505.7751, 55427.29
506.2572, 55501.66
506.7393, 55563.61
507.2214, 55615.68
507.7035, 55660.60
508.1856, 55708.73
508.6678, 55761.77
509.1499, 55811.57
509.6320, 55843.32
510.1141, 55878.42
510.5962, 55936.41
511.0783, 56018.32
511.5605, 56122.55
512.0426, 56300.46
512.5247, 56472.07
513.0068, 56508.47
513.4890, 56418.81
513.9711, 56341.83
514.4532, 56364.24
514.9353, 56455.14
515.4174, 56507.71
515.8995, 56465.28
516.3817, 56462.87
516.8638, 56554.37
517.3459, 56645.15
517.8280, 56651.08
518.3101, 56585.51
518.7922, 56530.16
519.2744, 56548.50
519.7565, 56612.23
520.2386, 56644.17
520.7207, 56641.57
521.2028, 56616.90
521.6849, 56547.70
522.1671, 56480.89
522.6492, 56472.59
523.1313, 56525.54
523.6134, 56589.71
524.0955, 56657.41
524.5776, 56723.48
525.0598, 56794.08
525.5419, 56861.80
526.0240, 56894.82
526.5061, 56873.92
526.9882, 56822.40
527.4703, 56799.02
527.9525, 56838.27
528.4346, 56839.94
528.9167, 56765.77
529.3988, 56694.13
529.8809, 56675.23
530.3630, 56695.68
530.8452, 56710.93
531.3273, 56696.87
531.8094, 56666.02
532.2915, 56633.15
532.7736, 56598.32
533.2557, 56575.27
533.7379, 56570.66
534.2200, 56572.18
534.7021, 56556.05
535.1842, 56520.89
535.6663, 56527.26
536.1484, 56643.08
536.6306, 56740.51
537.1127, 56725.31
537.5948, 56641.05
538.0769, 56578.28
538.5590, 56571.43
539.0411, 56580.57
539.5233, 56534.08
540.0054, 56409.16
540.4875, 56351.35
540.9696, 56414.21
541.4517, 56483.46
541.9338, 56515.40
542.4160, 56522.00
542.8981, 56527.45
543.3802, 56546.19
543.8623, 56543.69
544.3444, 56466.77
544.8265, 56348.40
545.3087, 56276.68
545.7908, 56268.35
546.2729, 56284.36
546.7550, 56294.35
547.2371, 56298.74
547.7192, 56304.71
548.2014, 56305.14
548.6835, 56315.40
549.1656, 56359.49
549.6477, 56401.54
550.1298, 56388.18
550.6119, 56322.24
551.0941, 56276.16
551.5762, 56334.52
552.0583, 56466.91
552.5404, 56525.50
553.0225, 56495.17
553.5046, 56449.29
553.9868, 56387.93
554.4689, 56348.23
554.9510, 56392.10
555.4331, 56538.52
555.9152, 56656.54
556.3973, 56678.35
556.8795, 56674.12
557.3616, 56723.29
557.8437, 56809.54
558.3258, 56850.98
558.8079, 56799.09
559.2900, 56700.64
559.7722, 56664.75
560.2543, 56707.32
560.7364, 56770.54
561.2185, 56903.64
561.7006, 57007.82
562.1827, 57014.77
562.6649, 56956.19
563.1470, 56912.71
563.6291, 56921.20
564.1112, 56945.36
564.5933, 56946.04
565.0754, 56930.02
565.5576, 56926.46
566.0397, 56944.48
566.5218, 56956.73
567.0039, 56933.84
567.4860, 56875.04
567.9681, 56824.23
568.4503, 56787.19
568.9324, 56751.12
569.4145, 56702.85
569.8966, 56660.79
570.3787, 56647.70
570.8608, 56666.36
571.3430, 56698.92
571.8251, 56744.13
572.3072, 56790.55
572.7893, 56772.21
573.2714, 56672.13
573.7535, 56594.16
574.2357, 56583.88
574.7178, 56621.01
575.1999, 56672.77
575.6820, 56740.57
576.1641, 56812.35
576.6462, 56901.77
577.1284, 56979.83
577.6105, 57020.65
578.0926, 57030.00
578.5747, 57026.23
579.0568, 57018.01
579.5389, 57005.61
580.0211, 56984.21
580.5032, 56945.36
580.9852, 56938.91
581.4673, 56993.23
581.9495, 57048.87
582.4316, 57065.93
582.9137, 57061.80
583.3958, 57075.54
583.8779, 57128.35
584.3600, 57176.52
584.8422, 57184.55
585.3243, 57169.87
585.8064, 57161.02
586.2885, 57163.45
586.7706, 57175.39
587.2527, 57195.96
587.7349, 57224.74
588.2170, 57258.67
588.6991, 57319.89
589.1812, 57350.45
589.6633, 57339.95
590.1454, 57302.66
590.6276, 57227.77
591.1097, 57129.75
591.5918, 57065.93
592.0739, 57091.32
592.5560, 57151.39
593.0381, 57171.88
593.5203, 57156.43
594.0024, 57126.59
594.4845, 57086.18
594.9666, 57042.58
595.4487, 56997.82
595.9308, 56943.56
596.4130, 56950.87
596.8951, 57067.65
597.3772, 57182.50
597.8593, 57268.70
598.3414, 57329.31
598.8235, 57361.89
599.3057, 57369.35
599.7878, 57381.20
600.2699, 57440.77
600.7520, 57528.66
601.2341, 57565.95
601.7162, 57545.62
602.1984, 57526.56
602.6805, 57533.30
603.1626, 57560.38
603.6447, 57602.54
604.1268, 57670.75
604.6089, 57715.23
605.0911, 57701.03
605.5732, 57689.02
606.0553, 57728.91
606.5374, 57797.88
607.0195, 57841.95
607.5016, 57836.86
607.9838, 57815.84
608.4659, 57828.91
608.9480, 57874.96
609.4301, 57914.79
609.9122, 57944.11
610.3943, 57970.41
610.8765, 58001.31
611.3586, 58031.26
611.8407, 58050.12
612.3228, 58069.35
612.8049, 58053.60
613.2870, 57945.68
613.7692, 57832.62
614.2513, 57791.12
614.7334, 57822.96
615.2155, 57910.49
615.6976, 58052.05
616.1797, 58200.27
616.6619, 58227.60
617.1440, 58107.19
617.6261, 58047.23
618.1082, 58105.85
618.5903, 58185.82
619.0724, 58219.32
619.5546, 58220.04
620.0367, 58221.29
620.5188, 58223.04
621.0009, 58232.90
621.4830, 58270.66
621.9651, 58309.67
622.4473, 58300.42
622.9294, 58247.37
623.4115, 58215.05
623.8936, 58257.04
624.3757, 58349.04
624.8578, 58401.32
625.3400, 58400.34
625.8221, 58405.93
626.3042, 58447.20
626.7863, 58479.05
627.2684, 58462.75
627.7505, 58408.63
628.2327, 58358.09
628.7148, 58294.45
629.1969, 58269.12
629.6790, 58354.98
630.1611, 58485.43
630.6432, 58545.25
631.1254, 58516.16
631.6075, 58462.77
632.0896, 58440.10
632.5717, 58443.45
633.0538, 58446.31
633.5359, 58450.82
634.0181, 58448.23
634.5002, 58433.07
634.9823, 58412.07
635.4644, 58384.01
635.9465, 58351.88
636.4286, 58334.14
636.9108, 58350.80
637.3929, 58368.91
637.8750, 58372.37
638.3571, 58358.49
638.8392, 58321.48
639.3214, 58260.43
639.8035, 58178.24
640.2856, 58067.95
640.7677, 57939.78
641.2498, 57890.67
641.7319, 57963.38
642.2141, 58018.75
642.6962, 58024.54
643.1783, 57998.97
643.6604, 57937.68
644.1425, 57849.21
644.6246, 57795.98
645.1068, 57829.61
645.5889, 57876.01
646.0710, 57878.09
646.5531, 57856.09
647.0352, 57851.54
647.5173, 57874.03
647.9995, 57901.61
648.4816, 57913.63
648.9637, 57910.21
649.4458, 57882.47
649.9279, 57794.62
650.4100, 57769.76
650.8922, 57886.42
651.3743, 58042.84
651.8564, 58168.80
652.3385, 58259.27
652.8206, 58296.22
653.3027, 58217.88
653.7849, 58139.07
654.2670, 58137.98
654.7491, 58188.13
655.2312, 58244.44
655.7133, 58294.92
656.1954, 58352.05
656.6776, 58432.52
657.1597, 58529.52
657.6418, 58586.04
658.1239, 58570.06
658.6060, 58619.74
659.0881, 58828.92
659.5703, 59065.16
660.0524, 59189.03
660.5345, 59213.38
661.0166, 59261.88
661.4987, 59351.73
661.9808, 59481.65
662.4630, 59661.48
662.9451, 59877.77
663.4272, 60112.80
663.9093, 60363.24
664.3914, 60638.97
664.8735, 60947.86
665.3557, 61289.87
665.8378, 61655.00
666.3199, 62043.22
666.8020, 62456.86
667.2841, 62905.38
667.7662, 63367.22
668.2484, 63815.68
668.7305, 64253.63
669.2126, 64706.99
669.6947, 65211.97
670.1768, 65688.23
670.6589, 66161.22
671.1411, 66554.94
671.6232, 66787.29
672.1053, 66851.81
672.5874, 66796.52
673.0695, 66659.15
673.5516, 66420.30
674.0338, 66004.81
674.5159, 65411.33
674.9980, 64828.73
675.4801, 64301.16
675.9622, 63774.30
676.4443, 63183.85
676.9265, 62542.71
677.4086, 61995.48
677.8907, 61611.33
678.3728, 61215.68
678.8549, 60738.20
679.3370, 60270.30
679.8192, 59883.23
680.3013, 59575.10
680.7834, 59317.30
681.2655, 59098.34
681.7476, 58906.85
682.2297, 58723.47
682.7119, 58554.00
683.1940, 58433.96
683.6761, 58373.56
684.1582, 58312.65
684.6403, 58200.71
685.1224, 58056.68
685.6046, 57958.89
686.0867, 57956.56
686.5688, 57921.94
687.0509, 57809.23
687.5330, 57707.55
688.0151, 57676.99
688.4973, 57693.22
688.9794, 57697.91
689.4615, 57671.60
689.9436, 57629.64
690.4257, 57561.53
690.9078, 57494.81
691.3900, 57500.51
691.8721, 57569.75
692.3542, 57591.42
692.8363, 57496.33
693.3184, 57350.14
693.8005, 57304.25
694.2827, 57390.95
694.7648, 57455.46
695.2469, 57494.13
695.7290, 57512.24
696.2111, 57502.11
696.6932, 57477.68
697.1754, 57456.67
697.6575, 57440.08
698.1396, 57433.14
698.6217, 57468.16
699.1038, 57488.73
699.5859, 57423.05
700.0681, 57306.19
700.5502, 57229.37
701.0323, 57225.85
701.5144, 57235.75
701.9965, 57172.38
702.4786, 57046.96
702.9608, 56985.93
703.4429, 57006.21
703.9250, 57012.68
704.4071, 56960.33
704.8892, 56888.55
705.3713, 56852.55
705.8535, 56857.08
706.3356, 56852.69
706.8177, 56825.36
707.2998, 56802.91
707.7819, 56796.37
708.2640, 56799.30
708.7462, 56800.25
709.2283, 56799.99
709.7104, 56815.46
710.1925, 56870.79
710.6746, 56936.84
711.1567, 56958.58
711.6389, 56944.48
712.1210, 56941.93
712.6031, 56962.58
713.0852, 56991.78
713.5673, 57019.00
714.0494, 57042.42
714.5316, 57047.37
715.0137, 57015.91
715.4958, 56997.41
715.9779, 57009.24
716.4600, 57023.62
716.9421, 57004.30
717.4243, 56974.75
717.9064, 57006.43
718.3885, 57159.98
718.8706, 57291.13
719.3527, 57285.13
719.8348, 57220.55
720.3170, 57198.93
720.7991, 57221.90
721.2812, 57238.72
721.7633, 57220.73
722.2454, 57189.98
722.7275, 57191.63
723.2097, 57227.86
723.6918, 57241.95
724.1739, 57227.32
724.6560, 57202.63
725.1381, 57175.08
725.6202, 57145.11
726.1024, 57105.92
726.5845, 57042.67
727.0666, 57033.78
727.5487, 57146.75
728.0308, 57250.38
728.5129, 57271.24
728.9951, 57249.84
729.4772, 57247.96
729.9593, 57277.54
730.4414, 57301.28
730.9235, 57272.86
731.4056, 57227.30
731.8878, 57230.23
732.3699, 57272.79
732.8520, 57311.68
733.3341, 57334.02
733.8162, 57355.34
734.2983, 57393.79
734.7805, 57445.64
735.2626, 57472.93
735.7447, 57451.55
736.2268, 57455.25
736.7089, 57533.39
737.1910, 57605.77
737.6732, 57599.56
738.1553, 57544.74
738.6374, 57541.72
739.1195, 57648.03
739.6016, 57744.41
740.0837, 57779.52
740.5659, 57778.88
741.0480, 57753.63
741.5301, 57716.49
742.0122, 57695.91
742.4943, 57706.98
742.9764, 57724.33
743.4586, 57691.13
743.9407, 57624.60
744.4228, 57653.12
744.9049, 57793.14
745.3870, 57923.69
745.8691, 57994.13
746.3513, 58012.66
746.8334, 57985.57
747.3155, 57893.91
747.7976, 57843.10
748.2797, 57862.81
748.7618, 57885.84
749.2440, 57906.99
749.7261, 57916.29
750.2082, 57902.20
750.6903, 57865.15
751.1724, 57819.65
751.6545, 57742.39
752.1367, 57688.99
752.6188, 57732.41
753.1009, 57819.78
753.5830, 57870.70
754.0651, 57866.55
754.5472, 57799.96
755.0294, 57651.98
755.5115, 57477.89
755.9936, 57436.38
756.4757, 57534.76
756.9578, 57567.20
757.4399, 57487.21
757.9221, 57407.80
758.4042, 57400.15
758.8863, 57444.96
759.3684, 57490.09
759.8505, 57535.77
760.3326, 57580.76
760.8148, 57633.45
761.2969, 57675.59
761.7790, 57681.63
762.2611, 57679.26
762.7432, 57704.25
763.2253, 57764.04
763.7075, 57847.97
764.1896, 57984.91
764.6717, 58113.63
765.1538, 58149.53
765.6359, 58125.40
766.1180, 58123.20
766.6002, 58163.43
767.0823, 58217.91
767.5644, 58264.62
768.0465, 58300.61
768.5286, 58312.04
769.0107, 58297.67
769.4929, 58267.34
769.9750, 58208.51
770.4571, 58171.09
770.9392, 58204.12
771.4213, 58288.34
771.9034, 58343.49
772.3856, 58361.68
772.8677, 58366.62
773.3498, 58337.02
773.8319, 58317.46
774.3140, 58345.68
774.7961, 58394.81
775.2783, 58418.96
775.7604, 58405.86
776.2425, 58385.07
776.7246, 58358.57
777.2067, 58346.63
777.6888, 58384.75
778.1710, 58454.79
778.6531, 58501.11
779.1352, 58511.68
779.6173, 58540.33
780.0994, 58655.91
780.5815, 58816.88
781.0637, 58844.76
781.5458, 58725.67
782.0279, 58657.71
782.5100, 58690.58
782.9921, 58752.77
783.4742, 58788.26
783.9564, 58805.60
784.4385, 58844.66
784.9206, 58930.30
785.4027, 58996.12
785.8848, 59032.95
786.3669, 59058.04
786.8491, 59074.94
787.3312, 59086.89
787.8133, 59101.12
788.2954, 59120.28
788.7775, 59126.68
789.2596, 59095.91
789.7418, 59063.64
790.2239, 59056.91
790.7060, 59074.85
791.1881, 59130.79
791.6702, 59217.73
792.1523, 59270.50
792.6345, 59221.50
793.1166, 59113.07
793.5987, 59042.41
794.0808, 59008.83
794.5629, 58998.67
795.0450, 59010.00
795.5272, 59043.74
796.0093, 59106.37
796.4914, 59184.85
796.9735, 59238.03
797.4556, 59260.03
797.9377, 59267.48
798.4199, 59231.99
798.9020, 59216.09
799.3841, 59262.65
799.8662, 59333.17
800.3483, 59379.44
800.8304, 59396.61
801.3126, 59394.91
801.7947, 59365.47
802.2768, 59330.70
802.7589, 59291.84
803.2410, 59261.25
803.7231, 59258.56
804.2053, 59281.92
804.6874, 59308.48
805.1695, 59324.51
805.6516, 59335.68
806.1337, 59351.59
806.6158, 59368.26
807.0980, 59377.66
807.5801, 59377.61
808.0622, 59353.84
808.5443, 59294.07
809.0264, 59231.52
809.5085, 59234.10
809.9907, 59308.10
810.4728, 59373.08
810.9549, 59430.75
811.4370, 59472.44
811.9191, 59489.81
812.4012, 59496.27
812.8834, 59517.10
813.3655, 59555.44
813.8476, 59537.77
814.3297, 59401.64
814.8118, 59297.32
815.2939, 59274.24
815.7761, 59273.09
816.2582, 59246.70
816.7403, 59203.99
817.2224, 59186.02
817.7045, 59224.34
818.1866, 59231.68
818.6688, 59134.20
819.1509, 58998.27
819.6330, 58860.97
820.1151, 58749.11
820.5972, 58730.79
821.0793, 58821.28
821.5615, 58910.43
822.0436, 58860.51
822.5257, 58738.05
823.0078, 58733.22
823.4899, 58830.18
823.9720, 58899.94
824.4542, 58911.80
824.9363, 58888.84
825.4184, 58846.59
825.9005, 58789.45
826.3826, 58732.07
826.8647, 58669.96
827.3469, 58622.41
827.8290, 58583.98
828.3111, 58573.55
828.7932, 58624.86
829.2753, 58697.68
829.7574, 58719.55
830.2396, 58684.25
830.7217, 58635.18
831.2038, 58558.21
831.6859, 58488.74
832.1680, 58421.70
832.6501, 58379.00
833.1323, 58393.60
833.6144, 58455.74
834.0965, 58514.91
834.5786, 58561.42
835.0607, 58577.86
835.5428, 58542.15
836.0250, 58476.43
836.5071, 58390.67
836.9892, 58301.17
837.4713, 58249.09
837.9534, 58251.84
838.4355, 58269.71
838.9177, 58251.89
839.3998, 58214.01
839.8819, 58209.21
840.3640, 58233.20
840.8461, 58234.93
841.3282, 58198.84
841.8104, 58163.12
842.2925, 58165.30
842.7746, 58195.59
843.2567, 58210.81
843.7388, 58209.66
844.2209, 58193.00
844.7031, 58141.50
845.1852, 58114.04
845.6673, 58162.13
846.1494, 58243.23
846.6315, 58270.07
847.1136, 58222.60
847.5958, 58185.70
848.0779, 58156.79
848.5600, 58140.16
849.0421, 58153.37
849.5242, 58166.85
850.0063, 58147.04
850.4885, 58098.86
850.9706, 58058.91
851.4527, 58035.73
851.9348, 58029.05
852.4169, 57992.68
852.8990, 58010.51
853.3812, 58240.86
853.8633, 58582.51
854.3454, 58806.09
854.8275, 58827.47
855.3096, 58704.13
855.7917, 58380.99
856.2739, 58009.05
856.7560, 57858.69
857.2381, 57878.96
857.7202, 57905.15
858.2023, 57895.93
858.6844, 57874.07
859.1666, 57855.71
859.6487, 57841.22
860.1308, 57834.57
860.6129, 57835.26
861.0950, 57824.73
861.5771, 57799.35
862.0593, 57777.40
862.5414, 57769.37
863.0235, 57766.54
863.5056, 57756.70
863.9877, 57740.51
864.4698, 57709.34
864.9520, 57645.97
865.4341, 57603.20
865.9162, 57590.87
866.3983, 57604.68
866.8804, 57664.46
867.3625, 57749.70
867.8447, 57786.18
868.3268, 57748.55
868.8089, 57708.25
869.2910, 57667.68
869.7731, 57633.31
870.2552, 57611.03
870.7374, 57595.65
871.2195, 57574.36
871.7016, 57547.25
872.1837, 57542.70
872.6658, 57605.63
873.1479, 57657.05
873.6301, 57614.14
874.1122, 57552.61
874.5943, 57586.28
875.0764, 57691.51
875.5585, 57749.98
876.0406, 57704.51
876.5228, 57630.52
877.0049, 57582.66
877.4870, 57569.68
877.9691, 57641.45
878.4512, 57764.14
878.9333, 57800.85
879.4155, 57720.18
879.8976, 57645.68
880.3797, 57698.38
880.8618, 57815.78
881.3439, 57819.96
881.8260, 57722.38
882.3082, 57681.40
882.7903, 57720.61
883.2724, 57753.67
883.7545, 57736.30
884.2366, 57681.15
884.7188, 57596.66
885.2009, 57477.64
885.6830, 57460.17
886.1651, 57593.23
886.6472, 57678.86
887.1293, 57641.88
887.6115, 57587.99
888.0936, 57611.36
888.5757, 57690.34
889.0578, 57731.89
889.5399, 57735.09
890.0220, 57700.43
890.5042, 57557.62
890.9863, 57459.62
891.4684, 57508.43
891.9505, 57606.14
892.4326, 57629.70
892.9147, 57574.10
893.3969, 57536.35
893.8790, 57569.36
894.3611, 57580.88
894.8432, 57522.02
895.3253, 57445.58
895.8074, 57382.07
896.2896, 57340.32
896.7717, 57334.32
897.2538, 57371.14
897.7359, 57409.76
898.2180, 57421.73
898.7001, 57429.52
899.1823, 57469.66
899.6644, 57511.09
900.1465, 57488.15
900.6286, 57406.07
901.1107, 57346.45
901.5928, 57363.12
902.0750, 57401.89
902.5571, 57398.10
903.0392, 57372.36
903.5213, 57355.10
904.0034, 57353.46
904.4855, 57392.65
904.9677, 57478.09
905.4498, 57551.80
905.9319, 57542.18
906.4140, 57490.63
906.8961, 57523.75
907.3782, 57626.15
907.8604, 57683.14
908.3425, 57676.72
908.8246, 57642.48
909.3067, 57596.88
909.7888, 57554.62
910.2709, 57544.52
910.7530, 57566.27
911.2351, 57584.15
911.7172, 57603.18
912.1993, 57578.66
912.6815, 57478.91
913.1636, 57396.99
913.6457, 57424.75
914.1278, 57525.95
914.6099, 57560.43
915.0920, 57497.99
915.5742, 57459.09
916.0563, 57458.03
916.5384, 57458.57
917.0205, 57443.05
917.5026, 57426.35
917.9847, 57431.05
918.4669, 57457.07
918.9490, 57464.26
919.4311, 57426.02
919.9132, 57408.27
920.3953, 57423.37
920.8774, 57452.59
921.3596, 57490.15
921.8417, 57533.67
922.3238, 57582.47
922.8059, 57638.63
923.2880, 57681.68
923.7701, 57687.91
924.2523, 57705.37
924.7344, 57753.07
925.2165, 57817.84
925.6986, 57891.83
926.1807, 57971.63
926.6628, 58060.90
927.1450, 58174.19
927.6271, 58237.19
928.1092, 58138.11
928.5913, 58056.22
929.0734, 58181.15
929.5555, 58368.77
930.0377, 58391.56
930.5198, 58247.15
931.0019, 58123.34
931.4840, 58127.05
931.9661, 58141.74
932.4482, 58067.90
932.9304, 57958.65
933.4125, 57865.23
933.8946, 57793.93
934.3767, 57760.45
934.8588, 57761.00
935.3409, 57730.41
935.8231, 57596.68
936.3052, 57437.34
936.7873, 57356.83
937.2694, 57327.67
937.7515, 57313.86
938.2336, 57297.92
938.7158, 57220.09
939.1979, 57056.08
939.6800, 56915.35
940.1621, 56945.15
940.6442, 57075.16
941.1263, 57141.64
941.6085, 57157.05
942.0906, 57177.82
942.5727, 57210.80
943.0548, 57215.46
943.5369, 57166.33
944.0190, 57084.16
944.5012, 56975.08
944.9833, 56857.28
945.4654, 56878.26
945.9475, 57029.29
946.4296, 57097.47
946.9117, 57023.35
947.3939, 56942.68
947.8760, 56966.18
948.3581, 57053.91
948.8402, 57112.67
949.3223, 57142.20
949.8044, 57143.23
950.2866, 57113.21
950.7687, 57069.48
951.2508, 57011.70
951.7329, 56968.87
952.2150, 56976.61
952.6971, 57019.89
953.1793, 57027.34
953.6614, 56994.20
954.1435, 56942.89
954.6256, 56857.45
955.1077, 56819.93
955.5898, 56889.33
956.0720, 56981.88
956.5541, 56990.62
957.0362, 56918.54
957.5183, 56797.82
958.0004, 56574.52
958.4825, 56463.80
958.9647, 56536.39
959.4468, 56639.13
959.9289, 56705.95
960.4110, 56737.96
960.8931, 56727.70
961.3752, 56667.69
961.8574, 56646.59
962.3395, 56688.56
962.8216, 56723.71
963.3037, 56750.64
963.7858, 56754.73
964.2679, 56713.98
964.7501, 56648.48
965.2322, 56601.45
965.7143, 56577.49
966.1964, 56553.44
966.6785, 56511.23
967.1606, 56494.27
967.6428, 56549.84
968.1249, 56597.57
968.6070, 56556.19
969.0891, 56464.94
969.5712, 56438.47
970.0533, 56519.02
970.5355, 56548.95
971.0176, 56460.37
971.4997, 56393.08
971.9818, 56405.86
972.4639, 56444.40
972.9460, 56482.17
973.4282, 56504.66
973.9103, 56461.14
974.3924, 56293.39
974.8745, 56189.53
975.3566, 56228.56
975.8387, 56276.82
976.3209, 56266.43
976.8030, 56245.50
977.2851, 56275.08
977.7672, 56345.48
978.2493, 56391.30
978.7314, 56398.15
979.2136, 56384.46
979.6957, 56323.27
980.1778, 56278.43
980.6599, 56322.28
981.1420, 56377.79
981.6241, 56331.92
982.1063, 56195.25
982.5884, 56103.34
983.0705, 56110.96
983.5526, 56132.13
984.0347, 56170.68
984.5168, 56182.74
984.9990, 56110.57
985.4811, 56011.45
985.9632, 55970.51
986.4453, 55990.80
986.9274, 55997.56
987.4095, 55946.35
987.8917, 55909.46
988.3738, 55925.09
988.8559, 55952.78
989.3380, 55981.05
989.8201, 55993.32
990.3022, 55944.45
990.7844, 55839.83
991.2665, 55800.73
991.7486, 55963.53
992.2307, 56074.07
992.7128, 55970.01
993.1949, 55823.81
993.6771, 55750.20
994.1592, 55741.63
994.6413, 55776.83
995.1234, 55848.13
995.6055, 55919.56
996.0876, 55977.39
996.5698, 56030.12
997.0519, 56100.50
997.5340, 56148.63
998.0161, 56114.43
998.4982, 56042.02
998.9803, 56006.18
999.4625, 56022.76
999.9446, 56074.82
1000.427, 56215.79
1000.909, 56311.89
1001.391, 56257.80
1001.873, 56165.99
1002.355, 56138.71
1002.837, 56149.57
1003.319, 56128.94
1003.802, 56063.79
1004.284, 56009.56
1004.766, 55984.86
1005.248, 55986.13
1005.730, 56040.12
1006.212, 56095.11
1006.694, 56106.01
1007.176, 56082.19
1007.658, 56045.14
1008.141, 56000.09
1008.623, 55954.88
1009.105, 55912.93
1009.587, 55871.46
1010.069, 55809.38
1010.551, 55764.28
1011.033, 55783.90
1011.515, 55840.71
1011.997, 55866.32
1012.480, 55848.27
1012.962, 55880.56
1013.444, 56086.03
1013.926, 56240.68
1014.408, 56204.49
1014.890, 56107.48
1015.372, 56028.24
1015.854, 55984.13
1016.337, 55998.33
1016.819, 56073.89
1017.301, 56138.55
1017.783, 56156.22
1018.265, 56171.23
1018.747, 56197.71
1019.229, 56233.36
1019.711, 56275.86
1020.193, 56326.37
1020.676, 56394.61
1021.158, 56481.43
1021.640, 56544.08
1022.122, 56522.55
1022.604, 56538.88
1023.086, 56664.84
1023.568, 56816.16
1024.050, 56950.89
1024.533, 57060.25
1025.015, 57131.61
1025.497, 57164.26
1025.979, 57196.11
1026.461, 57233.89
1026.943, 57275.38
1027.425, 57341.89
1027.907, 57388.66
1028.390, 57373.46
1028.872, 57326.16
1029.354, 57304.66
1029.836, 57311.49
1030.318, 57258.60
1030.800, 57095.17
1031.282, 56921.86
1031.764, 56738.92
1032.246, 56572.11
1032.729, 56447.34
1033.211, 56342.65
1033.693, 56231.88
1034.175, 56113.61
1034.657, 55987.22
1035.139, 55791.25
1035.621, 55682.53
1036.103, 55767.65
1036.585, 55836.80
1037.068, 55776.25
1037.550, 55661.32
1038.032, 55574.89
1038.514, 55517.79
1038.996, 55483.50
1039.478, 55477.09
1039.960, 55483.64
1040.442, 55509.68
1040.925, 55539.18
1041.407, 55595.07
1041.889, 55622.68
1042.371, 55533.36
1042.853, 55357.89
1043.335, 55291.02
1043.817, 55406.89
1044.299, 55464.22
1044.781, 55442.91
1045.264, 55396.24
1045.746, 55311.25
1046.228, 55258.82
1046.710, 55338.62
1047.192, 55493.53
1047.674, 55488.88
1048.156, 55249.00
1048.638, 55139.56
1049.120, 55194.93
1049.603, 55279.07
1050.085, 55352.38
1050.567, 55452.93
1051.049, 55630.83
1051.531, 55832.98
1052.013, 55909.40
1052.495, 55845.27
1052.977, 55816.61
1053.460, 55830.07
1053.942, 55828.00
1054.424, 55791.01
1054.906, 55765.45
1055.388, 55781.52
1055.870, 55833.60
1056.352, 55930.05
1056.834, 56060.53
1057.317, 56067.25
1057.799, 55951.33
1058.281, 55898.64
1058.763, 55944.48
1059.245, 55989.00
1059.727, 55978.07
1060.209, 55927.09
1060.691, 55847.67
1061.173, 55751.52
1061.656, 55690.00
1062.138, 55653.33
1062.620, 55575.30
1063.102, 55454.19
1063.584, 55354.00
1064.066, 55302.78
1064.548, 55266.25
1065.030, 55207.34
1065.512, 55140.89
1065.995, 55087.58
1066.477, 55052.51
1066.959, 55065.38
1067.441, 55109.95
1067.923, 55120.23
1068.405, 55076.85
1068.887, 55014.82
1069.369, 54955.05
1069.852, 54902.43
1070.334, 54862.38
1070.816, 54834.12
1071.298, 54824.59
1071.780, 54823.46
1072.262, 54811.15
1072.744, 54783.23
1073.226, 54743.21
1073.708, 54690.06
1074.191, 54635.26
1074.673, 54570.62
1075.155, 54524.82
1075.637, 54555.93
1076.119, 54603.47
1076.601, 54579.48
1077.083, 54487.18
1077.565, 54374.07
1078.047, 54240.61
1078.530, 54164.48
1079.012, 54246.02
1079.494, 54312.41
1079.976, 54225.67
1080.458, 54120.10
1080.940, 54154.79
1081.422, 54267.77
1081.904, 54292.16
1082.386, 54195.55
1082.869, 54077.80
1083.351, 53896.38
1083.833, 53784.82
1084.315, 53835.84
1084.797, 53902.09
1085.279, 53884.20
1085.761, 53829.51
1086.243, 53810.02
1086.726, 53825.98
1087.208, 53873.05
1087.690, 54004.06
1088.172, 54052.99
1088.654, 53962.42
1089.136, 53872.06
1089.618, 53830.06
1090.100, 53824.95
1090.583, 53853.09
1091.065, 53903.58
1091.547, 53919.48
1092.029, 53885.70
1092.511, 53918.48
1092.993, 54045.95
1093.475, 54079.80
1093.957, 53945.32
1094.439, 53830.14
1094.922, 53890.61
1095.404, 54022.04
1095.886, 53995.05
1096.368, 53832.42
1096.850, 53750.73
1097.332, 53744.07
1097.814, 53756.96
1098.296, 53775.92
1098.778, 53768.66
1099.261, 53718.02
1099.743, 53654.17
1100.225, 53605.97
1100.707, 53576.49
1101.189, 53586.15
1101.671, 53615.23
1102.153, 53621.16
1102.635, 53600.08
1103.118, 53551.39
1103.600, 53478.95
1104.082, 53413.74
1104.564, 53379.90
1105.046, 53356.51
1105.528, 53310.27
1106.010, 53275.11
1106.492, 53314.93
1106.974, 53379.96
1107.457, 53368.31
1107.939, 53287.15
1108.421, 53248.16
1108.903, 53302.13
1109.385, 53362.12
1109.867, 53404.70
1110.349, 53423.63
1110.831, 53387.15
1111.313, 53348.63
1111.796, 53373.92
1112.278, 53434.21
1112.760, 53449.49
1113.242, 53402.98
1113.724, 53367.32
1114.206, 53346.88
1114.688, 53343.68
1115.170, 53401.80
1115.653, 53417.96
1116.135, 53302.38
1116.617, 53159.59
1117.099, 53138.61
1117.581, 53220.86
1118.063, 53220.59
1118.545, 53106.06
1119.027, 53053.48
1119.510, 53089.20
1119.992, 53100.33
1120.474, 53045.25
1120.956, 52976.44
1121.438, 52932.51
1121.920, 52919.91
1122.402, 52975.37
1122.884, 53081.99
1123.366, 53106.82
1123.849, 53057.81
1124.331, 52992.28
1124.813, 52924.49
1125.295, 52876.19
1125.777, 52858.04
1126.259, 52856.08
1126.741, 52854.32
1127.223, 52861.25
1127.705, 52912.91
1128.188, 52969.96
1128.670, 52962.63
1129.152, 52899.38
1129.634, 52801.37
1130.116, 52685.45
1130.598, 52610.32
1131.080, 52631.99
1131.562, 52639.28
1132.045, 52515.50
1132.527, 52404.21
1133.009, 52440.62
1133.491, 52528.15
1133.973, 52544.75
1134.455, 52505.08
1134.937, 52496.64
1135.419, 52544.44
1135.901, 52567.37
1136.384, 52538.37
1136.866, 52502.36
1137.348, 52445.57
1137.830, 52411.86
1138.312, 52445.13
1138.794, 52494.72
1139.276, 52485.08
1139.758, 52424.06
1140.240, 52398.79
1140.723, 52426.69
1141.205, 52401.25
1141.687, 52301.80
1142.169, 52242.42
1142.651, 52265.02
1143.133, 52296.19
1143.615, 52276.65
1144.097, 52233.28
1144.580, 52218.04
1145.062, 52224.27
1145.544, 52224.38
1146.026, 52218.73
1146.508, 52219.38
1146.990, 52219.54
1147.472, 52167.81
1147.954, 52046.52
1148.437, 51933.43
1148.919, 51887.32
1149.401, 51891.92
1149.883, 51981.68
1150.365, 52069.76
1150.847, 52017.85
1151.329, 51903.25
1151.811, 51883.96
1152.293, 51958.65
1152.776, 51981.76
1153.258, 51881.34
1153.740, 51816.06
1154.222, 51864.57
1154.704, 51924.98
1155.186, 51964.68
1155.668, 51989.89
1156.150, 52005.50
1156.632, 52009.86
1157.115, 51997.14
1157.597, 51966.21
1158.079, 51945.73
1158.561, 51949.57
1159.043, 51912.02
1159.525, 51801.64
1160.007, 51750.23
1160.489, 51822.90
1160.972, 51898.23
1161.454, 51866.48
1161.936, 51771.43
1162.418, 51699.52
1162.900, 51654.44
1163.382, 51685.50
1163.864, 51768.98
1164.346, 51766.45
1164.828, 51669.96
1165.311, 51573.31
1165.793, 51517.62
1166.275, 51496.81
1166.757, 51515.86
1167.239, 51550.44
1167.721, 51596.09
1168.203, 51623.41
1168.685, 51576.57
1169.167, 51496.64
1169.650, 51457.52
1170.132, 51459.75
1170.614, 51452.25
1171.096, 51422.10
1171.578, 51376.06
1172.060, 51296.84
1172.542, 51229.58
1173.024, 51167.94
1173.507, 51149.52
1173.989, 51246.04
1174.471, 51363.86
1174.953, 51357.06
1175.435, 51237.14
1175.917, 51140.85
1176.399, 51060.84
1176.881, 51054.40
1177.364, 51141.02
1177.846, 51177.71
1178.328, 51118.86
1178.810, 51036.54
1179.292, 50979.19
1179.774, 50946.61
1180.256, 50957.72
1180.738, 50984.81
1181.220, 50928.76
1181.703, 50834.95
1182.185, 50837.33
1182.667, 50915.61
1183.149, 50958.31
1183.631, 50934.13
1184.113, 50880.95
1184.595, 50802.42
1185.077, 50746.52
1185.559, 50764.72
1186.042, 50792.44
1186.524, 50788.84
1187.006, 50766.70
1187.488, 50729.33
1187.970, 50689.12
1188.452, 50678.26
1188.934, 50705.02
1189.416, 50713.52
1189.899, 50662.09
1190.381, 50687.59
1190.863, 50855.59
1191.345, 50966.70
1191.827, 50932.57
1192.309, 50839.89
1192.791, 50762.59
1193.273, 50703.23
1193.755, 50675.18
1194.238, 50671.89
1194.720, 50642.24
1195.202, 50591.65
1195.684, 50540.42
1196.166, 50497.62
1196.648, 50494.21
1197.130, 50539.50
1197.612, 50591.28
1198.094, 50622.79
1198.577, 50635.20
1199.059, 50622.91
1199.541, 50597.70
1200.023, 50555.41
1200.505, 50517.45
1200.987, 50522.62
1201.469, 50556.19
1201.951, 50564.89
1202.434, 50539.42
1202.916, 50496.21
1203.398, 50403.60
1203.880, 50352.08
1204.362, 50378.53
1204.844, 50396.96
1205.326, 50367.66
1205.808, 50326.63
1206.291, 50311.83
1206.773, 50309.56
1207.255, 50272.66
1207.737, 50207.23
1208.219, 50201.04
1208.701, 50240.66
1209.183, 50214.67
1209.665, 50123.80
1210.147, 50102.69
1210.630, 50197.87
1211.112, 50261.13
1211.594, 50144.08
1212.076, 50016.96
1212.558, 50047.80
1213.040, 50136.27
1213.522, 50211.48
1214.004, 50265.44
1214.486, 50288.32
1214.969, 50289.14
1215.451, 50298.23
1215.933, 50325.83
1216.415, 50317.38
1216.897, 50240.61
1217.379, 50177.37
1217.861, 50135.36
1218.343, 50109.39
1218.826, 50108.94
1219.308, 50089.46
1219.790, 50001.75
1220.272, 49892.35
1220.754, 49879.66
1221.236, 49938.91
1221.718, 49900.26
1222.200, 49801.45
1222.682, 49829.26
1223.165, 49967.39
1223.647, 50047.32
1224.129, 50017.00
1224.611, 49945.64
1225.093, 49860.12
1225.575, 49794.41
1226.057, 49783.28
1226.539, 49789.46
1227.021, 49793.46
1227.504, 49796.13
1227.986, 49811.84
1228.468, 49823.96
1228.950, 49789.63
1229.432, 49707.24
1229.914, 49643.69
1230.396, 49593.54
1230.878, 49582.68
1231.361, 49623.89
1231.843, 49659.70
1232.325, 49678.00
1232.807, 49649.70
1233.289, 49548.67
1233.771, 49443.66
1234.253, 49441.78
1234.735, 49492.66
1235.218, 49480.20
1235.700, 49439.17
1236.182, 49458.19
1236.664, 49504.21
1237.146, 49461.89
1237.628, 49343.05
1238.110, 49311.87
1238.592, 49452.98
1239.074, 49536.75
1239.557, 49417.74
1240.039, 49309.21
1240.521, 49310.25
1241.003, 49308.19
1241.485, 49234.76
1241.967, 49133.26
1242.449, 49032.28
1242.931, 48955.70
1243.413, 49009.63
1243.896, 49198.42
1244.378, 49238.68
1244.860, 49140.39
1245.342, 49059.72
1245.824, 49022.38
1246.306, 49033.99
1246.788, 49090.00
1247.270, 49106.01
1247.753, 48999.88
1248.235, 48888.75
1248.717, 48910.28
1249.199, 48949.60
1249.681, 48873.85
1250.163, 48784.99
1250.645, 48827.04
1251.127, 48939.36
1251.609, 48963.17
1252.092, 48883.77
1252.574, 48849.69
1253.056, 48890.84
1253.538, 48909.98
1254.020, 48909.96
1254.502, 48860.21
1254.984, 48742.59
1255.466, 48648.83
1255.948, 48634.10
1256.431, 48670.96
1256.913, 48745.88
1257.395, 48814.45
1257.877, 48757.64
1258.359, 48654.46
1258.841, 48660.03
1259.323, 48726.89
1259.805, 48747.76
1260.288, 48719.95
1260.770, 48703.05
1261.252, 48714.07
1261.734, 48717.12
1262.216, 48710.32
1262.698, 48680.68
1263.180, 48583.64
1263.662, 48533.19
1264.145, 48592.77
1264.627, 48665.61
1265.109, 48677.64
1265.591, 48649.73
1266.073, 48605.91
1266.555, 48559.73
1267.037, 48609.98
1267.519, 48718.23
1268.001, 48715.59
1268.484, 48623.62
1268.966, 48563.13
1269.448, 48554.67
1269.930, 48537.61
##END=



