##NAMES=Actinolite
##RRUFFID=R050025
##IDEAL CHEMISTRY=Ca_2_(Mg_4.5-2.5_Fe^2+^_0.5-2.5_)Si_8_O_22_(OH)_2_
##LOCALITY=Tyrol, Austria
##OWNER=RRUFF
##SOURCE=Eugene Schlepp
##DESCRIPTION=Green colored bladed single crystals
##STATUS=The identification of this mineral has been confirmed by X-ray diffraction and chemical analysis
##URL=rruff.info/R050025
##MEASURED CHEMISTRY=(Ca_.930_Na_.056_Mn_.010_K_.004_)_2_(Mg_.883_Fe_.117_)_5_(Si_.978_Al_.022_)_8_O_22_(OH)_2_
143.3943, 816.5643
143.8764, 823.6486
144.3585, 826.6967
144.8407, 829.8649
145.3228, 832.3588
145.8049, 835.5624
146.2870, 840.8397
146.7691, 849.6555
147.2512, 858.5118
147.7334, 866.2551
148.2155, 872.2018
148.6976, 880.4108
149.1797, 886.4225
149.6618, 896.0533
150.1439, 916.8031
150.6261, 961.1605
151.1082, 1005.189
151.5903, 1040.928
152.0724, 1059.868
152.5545, 1089.078
153.0366, 1132.067
153.5188, 1186.448
154.0009, 1247.267
154.4830, 1320.207
154.9651, 1395.328
155.4472, 1468.591
155.9293, 1534.877
156.4115, 1605.723
156.8936, 1688.419
157.3757, 1778.931
157.8578, 1864.507
158.3399, 1960.098
158.8221, 2038.688
159.3042, 2083.718
159.7863, 2084.711
160.2684, 2057.837
160.7505, 1997.417
161.2326, 1906.934
161.7148, 1817.438
162.1969, 1738.212
162.6790, 1667.301
163.1611, 1603.743
163.6432, 1549.268
164.1253, 1499.642
164.6075, 1450.008
165.0896, 1400.099
165.5717, 1361.125
166.0538, 1342.236
166.5359, 1337.790
167.0180, 1339.493
167.5002, 1343.642
167.9823, 1352.747
168.4644, 1368.493
168.9465, 1390.978
169.4286, 1420.287
169.9107, 1459.369
170.3929, 1505.301
170.8750, 1552.985
171.3571, 1596.758
171.8392, 1641.726
172.3213, 1691.966
172.8034, 1746.111
173.2856, 1810.007
173.7677, 1892.164
174.2498, 1989.910
174.7319, 2092.380
175.2140, 2203.031
175.6961, 2312.123
176.1783, 2405.243
176.6604, 2480.190
177.1425, 2535.739
177.6246, 2576.175
178.1067, 2598.711
178.5888, 2587.513
179.0710, 2521.451
179.5531, 2413.451
180.0352, 2289.290
180.5173, 2147.574
180.9994, 2001.547
181.4815, 1873.362
181.9637, 1761.870
182.4458, 1666.408
182.9279, 1588.308
183.4100, 1525.668
183.8921, 1469.677
184.3742, 1416.667
184.8564, 1369.055
185.3385, 1335.142
185.8206, 1315.122
186.3027, 1302.918
186.7848, 1294.067
187.2669, 1288.281
187.7491, 1283.021
188.2312, 1277.344
188.7133, 1271.524
189.1954, 1266.439
189.6775, 1262.145
190.1596, 1258.492
190.6418, 1256.092
191.1239, 1254.876
191.6060, 1251.909
192.0881, 1245.941
192.5702, 1237.116
193.0524, 1225.741
193.5345, 1210.840
194.0166, 1195.984
194.4987, 1188.370
194.9808, 1188.567
195.4629, 1187.393
195.9451, 1177.490
196.4272, 1159.063
196.9093, 1151.433
197.3914, 1157.393
197.8735, 1170.708
198.3556, 1179.114
198.8378, 1181.531
199.3199, 1185.665
199.8020, 1196.148
200.2841, 1213.266
200.7662, 1231.293
201.2483, 1250.409
201.7305, 1269.790
202.2126, 1286.242
202.6947, 1298.295
203.1768, 1312.909
203.6589, 1333.654
204.1410, 1360.194
204.6232, 1395.275
205.1053, 1443.391
205.5874, 1498.355
206.0695, 1536.782
206.5516, 1552.429
207.0337, 1567.935
207.5159, 1599.414
207.9980, 1648.777
208.4801, 1702.589
208.9622, 1761.059
209.4443, 1822.675
209.9264, 1879.091
210.4086, 1927.711
210.8907, 1976.572
211.3728, 2032.724
211.8549, 2100.404
212.3370, 2161.900
212.8191, 2212.082
213.3013, 2252.813
213.7834, 2304.173
214.2655, 2368.806
214.7476, 2440.126
215.2297, 2510.544
215.7118, 2576.959
216.1940, 2653.556
216.6761, 2745.003
217.1582, 2850.886
217.6403, 2953.707
218.1224, 3050.291
218.6045, 3146.449
219.0867, 3250.158
219.5688, 3368.815
220.0509, 3476.390
220.5330, 3568.962
221.0151, 3648.079
221.4972, 3697.436
221.9794, 3715.253
222.4615, 3705.895
222.9436, 3673.228
223.4257, 3614.167
223.9078, 3536.322
224.3899, 3437.881
224.8721, 3315.359
225.3542, 3199.540
225.8363, 3083.913
226.3184, 2980.145
226.8005, 2900.823
227.2827, 2851.480
227.7648, 2817.801
228.2469, 2800.807
228.7290, 2804.105
229.2111, 2796.368
229.6932, 2774.669
230.1754, 2744.419
230.6575, 2712.067
231.1396, 2678.161
231.6217, 2641.890
232.1038, 2606.796
232.5859, 2577.879
233.0681, 2521.758
233.5502, 2428.487
234.0323, 2315.584
234.5144, 2205.423
234.9965, 2096.039
235.4786, 1993.921
235.9608, 1899.096
236.4429, 1810.536
236.9250, 1740.117
237.4071, 1695.472
237.8892, 1664.785
238.3713, 1628.621
238.8535, 1579.707
239.3356, 1537.496
239.8177, 1508.661
240.2998, 1495.605
240.7819, 1486.826
241.2640, 1483.003
241.7462, 1482.917
242.2283, 1484.159
242.7104, 1485.041
243.1925, 1490.028
243.6746, 1500.668
244.1567, 1517.597
244.6389, 1538.874
245.1210, 1567.233
245.6031, 1598.249
246.0852, 1623.522
246.5673, 1639.906
247.0494, 1656.010
247.5316, 1676.775
248.0137, 1707.661
248.4958, 1723.951
248.9779, 1720.240
249.4600, 1704.845
249.9421, 1694.609
250.4243, 1697.289
250.9064, 1691.100
251.3885, 1665.693
251.8706, 1613.000
252.3527, 1567.417
252.8348, 1530.210
253.3170, 1499.376
253.7991, 1472.055
254.2812, 1450.433
254.7633, 1428.620
255.2454, 1402.624
255.7275, 1368.527
256.2097, 1346.604
256.6918, 1342.067
257.1739, 1346.361
257.6560, 1343.104
258.1381, 1328.523
258.6202, 1314.128
259.1024, 1304.195
259.5845, 1299.740
260.0666, 1296.294
260.5487, 1295.137
261.0308, 1294.018
261.5129, 1288.806
261.9951, 1279.282
262.4772, 1266.245
262.9593, 1249.084
263.4414, 1226.112
263.9235, 1206.637
264.4056, 1191.629
264.8878, 1178.992
265.3699, 1164.730
265.8520, 1148.328
266.3341, 1131.380
266.8162, 1113.064
267.2983, 1092.348
267.7805, 1078.816
268.2626, 1075.354
268.7447, 1076.002
269.2268, 1069.753
269.7089, 1054.496
270.1910, 1039.955
270.6732, 1029.960
271.1553, 1025.010
271.6374, 1020.134
272.1195, 1014.941
272.6016, 1010.390
273.0837, 1008.783
273.5659, 1010.815
274.0480, 1012.155
274.5301, 1010.108
275.0122, 1004.440
275.4943, 1003.271
275.9764, 1007.897
276.4586, 1014.584
276.9407, 1016.822
277.4228, 1013.799
277.9049, 1013.171
278.3870, 1020.387
278.8691, 1034.785
279.3513, 1039.027
279.8334, 1030.063
280.3155, 1018.784
280.7976, 1020.975
281.2798, 1037.131
281.7619, 1054.691
282.2440, 1070.173
282.7261, 1083.421
283.2082, 1091.923
283.6903, 1094.479
284.1725, 1096.711
284.6546, 1106.945
285.1367, 1124.754
285.6188, 1141.225
286.1009, 1152.809
286.5830, 1160.456
287.0652, 1167.469
287.5473, 1173.459
288.0294, 1180.754
288.5115, 1193.887
288.9936, 1211.925
289.4757, 1226.748
289.9579, 1236.068
290.4400, 1240.217
290.9221, 1238.335
291.4042, 1229.904
291.8863, 1221.910
292.3684, 1222.191
292.8506, 1229.252
293.3327, 1236.499
293.8148, 1241.254
294.2969, 1245.298
294.7790, 1254.395
295.2611, 1268.588
295.7433, 1279.364
296.2254, 1273.206
296.7075, 1257.123
297.1896, 1251.212
297.6717, 1264.399
298.1538, 1287.807
298.6360, 1310.179
299.1181, 1331.576
299.6002, 1350.283
300.0823, 1364.912
300.5644, 1376.126
301.0465, 1385.477
301.5287, 1394.120
302.0108, 1400.125
302.4929, 1401.232
302.9750, 1397.632
303.4571, 1390.366
303.9392, 1379.136
304.4214, 1364.958
304.9035, 1348.021
305.3856, 1325.521
305.8677, 1305.510
306.3498, 1297.877
306.8319, 1299.754
307.3141, 1300.881
307.7962, 1295.233
308.2783, 1285.921
308.7604, 1275.385
309.2425, 1263.267
309.7246, 1252.327
310.2068, 1244.365
310.6889, 1238.940
311.1710, 1234.787
311.6531, 1234.926
312.1352, 1233.883
312.6173, 1225.996
313.0995, 1206.911
313.5816, 1191.399
314.0637, 1187.411
314.5458, 1191.703
315.0279, 1198.063
315.5100, 1209.198
315.9922, 1217.944
316.4743, 1219.717
316.9564, 1212.553
317.4385, 1204.388
317.9206, 1194.313
318.4027, 1185.598
318.8849, 1182.813
319.3670, 1192.955
319.8491, 1204.161
320.3312, 1211.685
320.8133, 1214.423
321.2954, 1218.225
321.7776, 1225.295
322.2597, 1233.601
322.7418, 1240.976
323.2239, 1242.128
323.7060, 1247.293
324.1881, 1261.900
324.6703, 1287.368
325.1524, 1305.563
325.6345, 1306.885
326.1166, 1304.686
326.5987, 1309.749
327.0808, 1329.157
327.5630, 1347.539
328.0451, 1362.150
328.5272, 1373.281
329.0093, 1387.635
329.4914, 1409.064
329.9735, 1429.891
330.4557, 1444.277
330.9378, 1444.324
331.4199, 1452.163
331.9020, 1473.541
332.3841, 1504.734
332.8662, 1527.779
333.3484, 1541.344
333.8305, 1548.432
334.3126, 1548.202
334.7947, 1534.447
335.2768, 1533.862
335.7589, 1553.727
336.2411, 1584.191
336.7232, 1598.923
337.2053, 1592.113
337.6874, 1586.230
338.1695, 1592.714
338.6516, 1612.977
339.1338, 1633.144
339.6159, 1653.169
340.0980, 1672.495
340.5801, 1689.218
341.0622, 1703.241
341.5443, 1717.451
342.0265, 1733.779
342.5086, 1751.763
342.9907, 1767.327
343.4728, 1779.291
343.9549, 1792.964
344.4370, 1816.268
344.9192, 1848.149
345.4013, 1880.085
345.8834, 1910.044
346.3655, 1937.271
346.8476, 1958.056
347.3297, 1972.245
347.8119, 1982.707
348.2940, 1989.277
348.7761, 1993.783
349.2582, 2002.326
349.7403, 2021.475
350.2225, 2040.708
350.7046, 2042.493
351.1867, 2028.693
351.6688, 2013.547
352.1509, 2010.827
352.6331, 2012.410
353.1152, 2005.095
353.5973, 1982.281
354.0794, 1956.825
354.5615, 1939.621
355.0436, 1929.094
355.5258, 1920.455
356.0079, 1908.153
356.4900, 1898.208
356.9721, 1896.024
357.4542, 1903.117
357.9363, 1915.649
358.4185, 1931.829
358.9006, 1951.954
359.3827, 1976.539
359.8648, 2003.921
360.3469, 2037.295
360.8290, 2080.238
361.3112, 2134.588
361.7933, 2188.216
362.2754, 2232.923
362.7575, 2276.942
363.2396, 2329.441
363.7217, 2398.611
364.2039, 2469.629
364.6860, 2539.441
365.1681, 2608.204
365.6502, 2675.189
366.1323, 2735.982
366.6144, 2798.089
367.0966, 2867.140
367.5787, 2966.758
368.0608, 3043.858
368.5429, 3099.085
369.0250, 3130.453
369.5071, 3126.109
369.9893, 3069.830
370.4714, 2997.070
370.9535, 2924.769
371.4356, 2859.647
371.9177, 2780.256
372.3998, 2679.608
372.8820, 2567.560
373.3641, 2465.767
373.8462, 2373.540
374.3283, 2293.872
374.8104, 2229.391
375.2925, 2179.974
375.7747, 2142.904
376.2568, 2121.165
376.7389, 2105.222
377.2210, 2080.966
377.7031, 2047.480
378.1852, 2018.935
378.6674, 1999.269
379.1495, 1987.957
379.6316, 1982.253
380.1137, 1982.248
380.5958, 1987.479
381.0779, 1996.614
381.5601, 2010.419
382.0422, 2031.723
382.5243, 2061.919
383.0064, 2099.500
383.4885, 2145.024
383.9706, 2197.760
384.4528, 2249.105
384.9349, 2288.656
385.4170, 2324.549
385.8991, 2371.267
386.3812, 2432.320
386.8633, 2501.455
387.3455, 2577.604
387.8276, 2657.436
388.3097, 2734.667
388.7918, 2798.674
389.2739, 2862.723
389.7560, 2942.524
390.2382, 3041.392
390.7203, 3130.217
391.2024, 3197.508
391.6845, 3244.512
392.1666, 3273.323
392.6487, 3283.973
393.1309, 3276.453
393.6130, 3256.033
394.0951, 3221.086
394.5772, 3152.871
395.0593, 3022.749
395.5414, 2872.878
396.0236, 2730.744
396.5057, 2601.540
396.9878, 2477.913
397.4699, 2357.067
397.9520, 2241.620
398.4341, 2140.668
398.9163, 2056.467
399.3984, 1984.539
399.8805, 1922.987
400.3626, 1870.441
400.8447, 1833.573
401.3268, 1820.516
401.8090, 1817.174
402.2911, 1801.168
402.7732, 1763.948
403.2553, 1736.904
403.7374, 1729.668
404.2195, 1741.354
404.7017, 1757.191
405.1838, 1778.793
405.6659, 1800.368
406.1480, 1815.146
406.6301, 1823.036
407.1122, 1834.170
407.5944, 1849.574
408.0765, 1870.186
408.5586, 1899.636
409.0407, 1937.891
409.5228, 1977.794
410.0049, 2014.388
410.4871, 2048.581
410.9692, 2084.219
411.4513, 2122.556
411.9334, 2159.197
412.4155, 2189.368
412.8976, 2214.372
413.3798, 2236.894
413.8619, 2265.045
414.3440, 2287.918
414.8261, 2293.725
415.3082, 2282.190
415.7903, 2261.117
416.2725, 2235.152
416.7546, 2202.630
417.2367, 2160.675
417.7188, 2100.950
418.2009, 2040.880
418.6830, 1990.000
419.1652, 1945.815
419.6473, 1901.160
420.1294, 1849.824
420.6115, 1799.772
421.0937, 1753.675
421.5758, 1709.930
422.0579, 1676.513
422.5400, 1669.008
423.0221, 1669.394
423.5042, 1647.498
423.9864, 1574.949
424.4685, 1511.218
424.9506, 1470.868
425.4327, 1456.357
425.9148, 1440.737
426.3969, 1423.592
426.8791, 1405.824
427.3612, 1386.953
427.8433, 1363.707
428.3254, 1350.444
428.8075, 1352.236
429.2896, 1364.292
429.7718, 1370.057
430.2539, 1368.585
430.7360, 1366.011
431.2181, 1365.086
431.7002, 1365.882
432.1823, 1369.704
432.6645, 1376.924
433.1466, 1386.185
433.6287, 1398.865
434.1108, 1413.218
434.5929, 1420.154
435.0750, 1411.097
435.5572, 1394.266
436.0393, 1386.033
436.5214, 1385.846
437.0035, 1381.945
437.4856, 1363.988
437.9677, 1337.013
438.4499, 1307.229
438.9320, 1273.110
439.4141, 1241.833
439.8962, 1220.387
440.3783, 1206.060
440.8604, 1191.224
441.3426, 1169.896
441.8247, 1149.319
442.3068, 1134.505
442.7889, 1127.430
443.2710, 1119.188
443.7531, 1103.202
444.2353, 1086.512
444.7174, 1076.627
445.1995, 1084.671
445.6816, 1088.714
446.1637, 1081.428
446.6458, 1064.544
447.1280, 1056.687
447.6101, 1065.692
448.0922, 1075.091
448.5743, 1074.512
449.0564, 1056.750
449.5385, 1049.005
450.0207, 1055.680
450.5028, 1069.280
450.9849, 1075.500
451.4670, 1073.082
451.9491, 1069.237
452.4312, 1064.935
452.9134, 1060.990
453.3955, 1065.998
453.8776, 1081.356
454.3597, 1095.585
454.8418, 1095.277
455.3239, 1083.560
455.8061, 1073.109
456.2882, 1066.146
456.7703, 1062.544
457.2524, 1062.403
457.7345, 1065.511
458.2166, 1071.086
458.6988, 1083.715
459.1809, 1095.995
459.6630, 1097.392
460.1451, 1085.132
460.6272, 1074.927
461.1093, 1081.013
461.5915, 1093.652
462.0736, 1100.626
462.5557, 1090.893
463.0378, 1081.680
463.5199, 1079.510
464.0020, 1083.774
464.4842, 1089.117
464.9663, 1098.333
465.4484, 1105.430
465.9305, 1106.973
466.4126, 1098.428
466.8947, 1092.112
467.3769, 1088.332
467.8590, 1086.649
468.3411, 1086.264
468.8232, 1086.767
469.3053, 1089.552
469.7874, 1095.835
470.2696, 1105.322
470.7517, 1112.512
471.2338, 1117.054
471.7159, 1120.338
472.1980, 1124.236
472.6801, 1128.654
473.1623, 1128.310
473.6444, 1120.451
474.1265, 1111.469
474.6086, 1112.803
475.0907, 1123.411
475.5728, 1136.543
476.0550, 1149.619
476.5371, 1162.658
477.0192, 1176.652
477.5013, 1191.760
477.9834, 1203.607
478.4655, 1206.565
478.9477, 1204.941
479.4298, 1204.230
479.9119, 1205.431
480.3940, 1208.725
480.8761, 1213.665
481.3582, 1220.677
481.8404, 1230.993
482.3225, 1249.039
482.8046, 1267.159
483.2867, 1282.905
483.7688, 1297.268
484.2509, 1305.028
484.7331, 1300.220
485.2152, 1291.414
485.6973, 1286.867
486.1794, 1292.128
486.6615, 1291.928
487.1436, 1282.459
487.6258, 1265.823
488.1079, 1251.546
488.5900, 1239.644
489.0721, 1230.329
489.5542, 1223.595
490.0363, 1219.395
490.5185, 1220.024
491.0006, 1227.281
491.4827, 1233.532
491.9648, 1226.433
492.4470, 1208.371
492.9291, 1192.339
493.4112, 1183.205
493.8933, 1178.435
494.3754, 1174.728
494.8575, 1172.154
495.3397, 1171.381
495.8218, 1174.702
496.3039, 1179.145
496.7860, 1180.448
497.2681, 1176.431
497.7502, 1175.513
498.2324, 1182.666
498.7145, 1195.448
499.1966, 1210.686
499.6787, 1233.902
500.1608, 1252.809
500.6429, 1259.024
501.1251, 1253.890
501.6072, 1259.311
502.0893, 1287.350
502.5714, 1316.967
503.0535, 1337.288
503.5356, 1339.568
504.0178, 1354.134
504.4999, 1386.250
504.9820, 1425.776
505.4641, 1458.023
505.9462, 1481.906
506.4283, 1503.394
506.9105, 1522.661
507.3926, 1540.994
507.8747, 1563.053
508.3568, 1588.933
508.8389, 1618.724
509.3210, 1658.928
509.8032, 1703.519
510.2853, 1734.353
510.7674, 1746.830
511.2495, 1755.560
511.7316, 1777.753
512.2137, 1807.241
512.6959, 1831.135
513.1780, 1841.990
513.6601, 1847.468
514.1422, 1854.127
514.6243, 1860.820
515.1064, 1859.439
515.5886, 1841.316
516.0707, 1817.918
516.5528, 1796.201
517.0349, 1777.449
517.5170, 1759.145
517.9991, 1738.595
518.4813, 1719.458
518.9634, 1707.173
519.4455, 1707.727
519.9276, 1704.703
520.4097, 1693.343
520.8918, 1675.412
521.3740, 1660.906
521.8561, 1649.899
522.3382, 1642.074
522.8203, 1637.328
523.3024, 1635.675
523.7845, 1637.736
524.2667, 1644.528
524.7488, 1651.332
525.2309, 1650.531
525.7130, 1644.574
526.1951, 1642.126
526.6772, 1648.219
527.1594, 1657.323
527.6415, 1664.655
528.1236, 1669.837
528.6057, 1671.302
529.0878, 1666.771
529.5699, 1659.032
530.0521, 1651.985
530.5342, 1648.418
531.0163, 1634.798
531.4984, 1596.570
531.9805, 1550.339
532.4626, 1513.612
532.9448, 1497.683
533.4269, 1480.577
533.9090, 1457.308
534.3911, 1430.807
534.8732, 1414.058
535.3553, 1411.410
535.8375, 1410.105
536.3196, 1405.216
536.8017, 1396.635
537.2838, 1384.557
537.7659, 1367.560
538.2480, 1351.391
538.7302, 1343.557
539.2123, 1342.763
539.6944, 1340.733
540.1765, 1335.976
540.6586, 1328.654
541.1407, 1316.442
541.6229, 1301.114
542.1050, 1288.831
542.5871, 1283.098
543.0692, 1281.741
543.5513, 1285.591
544.0334, 1294.517
544.5156, 1298.605
544.9977, 1288.644
545.4798, 1274.556
545.9619, 1264.274
546.4440, 1261.716
546.9261, 1259.383
547.4083, 1256.687
547.8904, 1253.487
548.3725, 1249.413
548.8546, 1242.778
549.3367, 1238.005
549.8188, 1236.402
550.3010, 1237.761
550.7831, 1240.176
551.2652, 1244.277
551.7473, 1247.336
552.2294, 1246.877
552.7115, 1243.255
553.1937, 1240.549
553.6758, 1239.637
554.1579, 1237.336
554.6400, 1226.958
555.1221, 1211.664
555.6042, 1200.890
556.0864, 1201.326
556.5685, 1204.191
557.0506, 1199.991
557.5327, 1190.727
558.0148, 1183.907
558.4969, 1184.902
558.9791, 1188.180
559.4612, 1190.445
559.9433, 1191.072
560.4254, 1192.084
560.9075, 1196.648
561.3896, 1200.113
561.8718, 1198.406
562.3539, 1188.225
562.8360, 1178.205
563.3181, 1167.861
563.8002, 1158.677
564.2823, 1154.547
564.7645, 1156.247
565.2466, 1159.702
565.7287, 1163.557
566.2108, 1167.859
566.6929, 1174.309
567.1750, 1183.101
567.6572, 1188.416
568.1393, 1182.542
568.6214, 1170.062
569.1035, 1159.510
569.5856, 1151.544
570.0677, 1147.999
570.5499, 1154.381
571.0320, 1165.309
571.5141, 1172.302
571.9962, 1164.431
572.4783, 1159.822
572.9604, 1170.636
573.4426, 1192.855
573.9247, 1205.699
574.4068, 1196.321
574.8889, 1185.479
575.3710, 1181.468
575.8531, 1186.166
576.3353, 1187.908
576.8174, 1185.661
577.2995, 1181.962
577.7816, 1178.500
578.2637, 1175.072
578.7458, 1174.747
579.2280, 1178.776
579.7101, 1184.618
580.1922, 1188.317
580.6743, 1189.944
581.1564, 1189.894
581.6385, 1185.663
582.1207, 1181.292
582.6028, 1184.225
583.0849, 1193.286
583.5670, 1199.460
584.0491, 1195.858
584.5313, 1188.239
585.0134, 1180.514
585.4955, 1172.679
585.9776, 1166.784
586.4597, 1164.322
586.9418, 1163.719
587.4240, 1163.372
587.9061, 1165.446
588.3882, 1164.113
588.8703, 1157.012
589.3524, 1146.577
589.8345, 1140.148
590.3167, 1138.486
590.7988, 1137.916
591.2809, 1137.002
591.7630, 1135.888
592.2451, 1135.913
592.7272, 1137.165
593.2094, 1137.323
593.6915, 1133.454
594.1736, 1127.317
594.6557, 1122.179
595.1378, 1118.711
595.6199, 1116.060
596.1021, 1115.494
596.5842, 1114.863
597.0663, 1111.087
597.5485, 1094.112
598.0306, 1083.425
598.5127, 1091.046
598.9948, 1111.702
599.4769, 1122.226
599.9590, 1112.736
600.4412, 1103.457
600.9233, 1101.490
601.4054, 1107.445
601.8875, 1110.163
602.3696, 1107.979
602.8517, 1106.619
603.3339, 1113.648
603.8160, 1127.988
604.2981, 1132.516
604.7802, 1123.038
605.2623, 1111.428
605.7444, 1115.750
606.2266, 1130.516
606.7087, 1140.719
607.1908, 1137.887
607.6729, 1131.658
608.1550, 1128.992
608.6371, 1129.168
609.1193, 1129.755
609.6014, 1129.484
610.0835, 1129.666
610.5656, 1130.949
611.0477, 1133.453
611.5298, 1136.545
612.0120, 1141.354
612.4941, 1145.563
612.9762, 1146.662
613.4583, 1142.123
613.9404, 1144.501
614.4225, 1156.707
614.9047, 1171.684
615.3868, 1179.325
615.8689, 1180.116
616.3510, 1179.415
616.8331, 1177.899
617.3152, 1176.859
617.7974, 1179.604
618.2795, 1184.933
618.7616, 1188.334
619.2437, 1183.695
619.7258, 1178.872
620.2079, 1180.190
620.6901, 1187.955
621.1722, 1196.642
621.6543, 1203.647
622.1364, 1211.468
622.6185, 1221.948
623.1006, 1237.378
623.5828, 1251.041
624.0649, 1264.876
624.5470, 1275.167
625.0291, 1274.741
625.5112, 1260.002
625.9933, 1254.657
626.4755, 1265.306
626.9576, 1284.487
627.4397, 1296.492
627.9218, 1302.317
628.4039, 1309.548
628.8860, 1324.922
629.3682, 1342.329
629.8503, 1352.783
630.3324, 1357.013
630.8145, 1360.361
631.2966, 1363.691
631.7787, 1368.766
632.2609, 1376.891
632.7430, 1388.483
633.2251, 1402.191
633.7072, 1420.235
634.1893, 1438.638
634.6714, 1454.198
635.1536, 1465.932
635.6357, 1476.506
636.1178, 1484.253
636.5999, 1492.719
637.0820, 1509.986
637.5641, 1536.403
638.0463, 1560.993
638.5284, 1578.713
639.0105, 1593.927
639.4926, 1615.927
639.9747, 1644.077
640.4568, 1673.885
640.9390, 1707.285
641.4211, 1738.455
641.9032, 1757.780
642.3853, 1764.571
642.8674, 1780.768
643.3495, 1822.356
643.8317, 1871.538
644.3138, 1916.605
644.7959, 1953.581
645.2780, 1990.744
645.7601, 2025.412
646.2422, 2062.438
646.7244, 2110.178
647.2065, 2171.387
647.6886, 2227.215
648.1707, 2274.205
648.6528, 2313.564
649.1349, 2343.448
649.6171, 2365.863
650.0992, 2395.710
650.5813, 2442.300
651.0634, 2498.649
651.5455, 2558.521
652.0276, 2621.676
652.5098, 2683.954
652.9919, 2741.059
653.4740, 2798.352
653.9561, 2859.936
654.4382, 2927.259
654.9203, 2992.180
655.4025, 3042.847
655.8846, 3099.757
656.3667, 3177.537
656.8488, 3284.198
657.3309, 3384.990
657.8130, 3470.606
658.2952, 3565.919
658.7773, 3710.667
659.2594, 3902.655
659.7415, 4100.188
660.2236, 4290.405
660.7057, 4485.683
661.1879, 4696.274
661.6700, 4924.099
662.1521, 5172.460
662.6342, 5448.188
663.1163, 5740.451
663.5984, 6045.169
664.0806, 6361.527
664.5627, 6686.205
665.0448, 7011.729
665.5269, 7347.792
666.0090, 7696.915
666.4911, 8054.994
666.9733, 8434.767
667.4554, 8839.489
667.9375, 9259.455
668.4196, 9696.957
668.9017, 10152.25
669.3839, 10584.89
669.8660, 10994.73
670.3481, 11359.16
670.8302, 11669.88
671.3123, 11912.05
671.7944, 12056.56
672.2766, 12105.49
672.7587, 12033.17
673.2408, 11812.91
673.7229, 11461.10
674.2050, 11006.30
674.6871, 10375.46
675.1693, 9728.937
675.6514, 9095.494
676.1335, 8473.560
676.6156, 7863.583
677.0977, 7253.546
677.5798, 6685.651
678.0620, 6187.722
678.5441, 5752.313
679.0262, 5348.147
679.5083, 4971.312
679.9904, 4635.059
680.4725, 4356.665
680.9547, 4123.741
681.4368, 3912.911
681.9189, 3723.936
682.4010, 3552.759
682.8831, 3398.423
683.3652, 3261.538
683.8474, 3145.374
684.3295, 3059.827
684.8116, 2980.396
685.2937, 2904.251
685.7758, 2831.772
686.2579, 2765.205
686.7401, 2706.647
687.2222, 2648.207
687.7043, 2587.235
688.1864, 2527.389
688.6685, 2478.489
689.1506, 2440.071
689.6328, 2404.956
690.1149, 2372.801
690.5970, 2339.777
691.0791, 2297.905
691.5612, 2248.743
692.0433, 2201.630
692.5255, 2160.951
693.0076, 2123.286
693.4897, 2087.008
693.9718, 2052.111
694.4539, 2016.661
694.9360, 1978.020
695.4182, 1941.061
695.9003, 1908.274
696.3824, 1881.266
696.8645, 1853.003
697.3466, 1822.336
697.8287, 1793.438
698.3109, 1772.940
698.7930, 1758.916
699.2751, 1740.193
699.7572, 1713.789
700.2393, 1686.929
700.7214, 1664.212
701.2036, 1646.907
701.6857, 1637.393
702.1678, 1649.140
702.6499, 1654.077
703.1320, 1634.932
703.6141, 1601.405
704.0963, 1578.030
704.5784, 1571.754
705.0605, 1566.848
705.5426, 1561.085
706.0247, 1554.025
706.5068, 1543.421
706.9890, 1528.881
707.4711, 1513.620
707.9532, 1496.003
708.4353, 1479.665
708.9174, 1478.731
709.3995, 1491.403
709.8817, 1500.080
710.3638, 1487.918
710.8459, 1469.430
711.3280, 1456.914
711.8101, 1451.909
712.2922, 1450.063
712.7744, 1452.167
713.2565, 1455.542
713.7386, 1458.239
714.2207, 1459.357
714.7028, 1462.766
715.1849, 1470.418
715.6671, 1477.016
716.1492, 1474.606
716.6313, 1464.250
717.1134, 1459.125
717.5955, 1462.576
718.0776, 1468.415
718.5598, 1468.443
719.0419, 1465.418
719.5240, 1464.759
720.0061, 1471.015
720.4882, 1476.863
720.9703, 1477.614
721.4525, 1475.621
721.9346, 1476.199
722.4167, 1479.259
722.8988, 1486.355
723.3809, 1500.401
723.8630, 1518.459
724.3452, 1527.880
724.8273, 1527.619
725.3094, 1525.907
725.7915, 1524.024
726.2736, 1524.343
726.7557, 1535.339
727.2379, 1555.763
727.7200, 1575.780
728.2021, 1584.970
728.6842, 1593.860
729.1663, 1613.309
729.6484, 1644.487
730.1306, 1672.054
730.6127, 1687.920
731.0948, 1702.010
731.5769, 1719.934
732.0590, 1742.896
732.5411, 1765.389
733.0233, 1787.310
733.5054, 1808.988
733.9875, 1828.114
734.4696, 1846.188
734.9517, 1875.841
735.4338, 1920.419
735.9160, 1965.657
736.3981, 1996.148
736.8802, 2018.225
737.3623, 2042.128
737.8444, 2076.304
738.3266, 2101.541
738.8087, 2102.993
739.2908, 2093.873
739.7729, 2093.891
740.2551, 2112.728
740.7372, 2124.432
741.2193, 2124.622
741.7014, 2117.333
742.1835, 2110.246
742.6656, 2103.392
743.1478, 2096.629
743.6299, 2088.776
744.1120, 2082.336
744.5941, 2082.131
745.0762, 2086.820
745.5583, 2092.233
746.0405, 2097.788
746.5226, 2102.090
747.0047, 2105.615
747.4868, 2107.682
747.9689, 2104.298
748.4510, 2095.052
748.9332, 2080.227
749.4153, 2057.572
749.8974, 2028.257
750.3795, 2007.062
750.8616, 1995.579
751.3438, 1980.600
751.8259, 1953.209
752.3080, 1916.428
752.7901, 1871.982
753.2722, 1820.989
753.7543, 1778.600
754.2365, 1765.601
754.7186, 1757.967
755.2007, 1734.101
755.6828, 1687.098
756.1649, 1649.869
756.6470, 1633.237
757.1292, 1622.759
757.6113, 1610.570
758.0934, 1596.589
758.5755, 1580.599
759.0576, 1561.520
759.5397, 1543.553
760.0219, 1532.820
760.5040, 1526.763
760.9861, 1516.820
761.4682, 1500.932
761.9503, 1485.702
762.4324, 1473.502
762.9146, 1466.070
763.3967, 1465.983
763.8788, 1482.085
764.3609, 1492.117
764.8430, 1487.930
765.3251, 1478.377
765.8073, 1473.732
766.2894, 1476.097
766.7715, 1475.003
767.2536, 1468.541
767.7357, 1458.942
768.2178, 1448.675
768.7000, 1438.204
769.1821, 1430.010
769.6642, 1426.625
770.1463, 1422.839
770.6284, 1410.551
771.1105, 1395.099
771.5927, 1386.799
772.0748, 1395.509
772.5569, 1404.158
773.0390, 1412.012
773.5211, 1416.454
774.0032, 1406.504
774.4854, 1374.340
774.9675, 1358.665
775.4496, 1377.678
775.9317, 1414.768
776.4138, 1427.136
776.8959, 1418.510
777.3781, 1409.717
777.8602, 1416.463
778.3423, 1423.767
778.8244, 1415.706
779.3065, 1396.278
779.7886, 1382.871
780.2708, 1383.841
780.7529, 1388.807
781.2350, 1396.540
781.7171, 1406.058
782.1992, 1406.101
782.6813, 1393.392
783.1635, 1384.294
783.6456, 1389.707
784.1277, 1404.777
784.6098, 1415.075
785.0919, 1420.563
785.5740, 1421.516
786.0562, 1416.772
786.5383, 1408.563
787.0204, 1396.095
787.5025, 1379.459
787.9846, 1369.989
788.4667, 1376.437
788.9489, 1385.010
789.4310, 1390.976
789.9131, 1394.378
790.3952, 1392.656
790.8773, 1384.840
791.3594, 1376.486
791.8416, 1370.215
792.3237, 1366.845
792.8058, 1370.698
793.2879, 1381.840
793.7700, 1390.875
794.2521, 1389.538
794.7343, 1384.536
795.2164, 1381.293
795.6985, 1380.934
796.1806, 1380.006
796.6627, 1376.176
797.1448, 1373.770
797.6270, 1376.589
798.1091, 1385.789
798.5912, 1390.021
799.0733, 1388.386
799.5554, 1386.439
800.0375, 1391.361
800.5197, 1399.339
801.0018, 1403.250
801.4839, 1402.005
801.9660, 1397.406
802.4481, 1387.373
802.9302, 1376.425
803.4124, 1368.078
803.8945, 1361.992
804.3766, 1361.296
804.8587, 1369.070
805.3408, 1378.167
805.8229, 1380.928
806.3051, 1377.420
806.7872, 1378.729
807.2693, 1386.453
807.7514, 1395.048
808.2335, 1399.758
808.7156, 1401.336
809.1978, 1400.053
809.6799, 1394.323
810.1620, 1391.327
810.6441, 1395.610
811.1262, 1403.216
811.6083, 1410.434
812.0905, 1418.171
812.5726, 1422.862
813.0547, 1423.271
813.5368, 1422.793
814.0189, 1429.433
814.5010, 1440.210
814.9832, 1433.217
815.4653, 1400.504
815.9474, 1371.751
816.4295, 1380.493
816.9116, 1406.578
817.3937, 1425.358
817.8759, 1429.782
818.3580, 1428.385
818.8401, 1416.347
819.3222, 1403.487
819.8043, 1400.325
820.2864, 1410.248
820.7686, 1413.129
821.2507, 1405.325
821.7328, 1395.775
822.2149, 1397.776
822.6970, 1407.114
823.1791, 1412.392
823.6613, 1409.210
824.1434, 1407.700
824.6255, 1417.860
825.1076, 1431.871
825.5897, 1440.889
826.0718, 1443.751
826.5540, 1439.914
827.0361, 1424.569
827.5182, 1408.073
828.0003, 1404.970
828.4824, 1415.066
828.9645, 1417.377
829.4467, 1406.628
829.9288, 1396.782
830.4109, 1408.348
830.8930, 1429.841
831.3751, 1443.221
831.8572, 1440.354
832.3394, 1436.751
832.8215, 1440.306
833.3036, 1444.340
833.7857, 1440.345
834.2678, 1421.951
834.7499, 1415.627
835.2321, 1426.318
835.7142, 1441.646
836.1963, 1445.026
836.6784, 1439.742
837.1605, 1437.952
837.6426, 1442.520
838.1248, 1448.305
838.6069, 1451.916
839.0890, 1454.279
839.5711, 1456.489
840.0532, 1460.297
840.5353, 1460.721
841.0175, 1454.213
841.4996, 1447.712
841.9817, 1450.095
842.4638, 1461.954
842.9459, 1467.023
843.4280, 1462.912
843.9102, 1456.411
844.3923, 1454.007
844.8744, 1454.529
845.3565, 1455.960
845.8386, 1457.538
846.3207, 1461.349
846.8029, 1472.966
847.2850, 1484.082
847.7671, 1487.122
848.2492, 1478.260
848.7313, 1471.365
849.2134, 1466.459
849.6956, 1463.608
850.1777, 1463.486
850.6598, 1465.490
851.1419, 1467.197
851.6240, 1468.165
852.1061, 1470.552
852.5883, 1477.550
853.0704, 1485.795
853.5525, 1492.126
854.0346, 1495.086
854.5167, 1499.203
854.9988, 1506.955
855.4810, 1513.070
855.9631, 1513.624
856.4452, 1508.538
856.9273, 1500.193
857.4094, 1488.154
857.8915, 1479.899
858.3737, 1484.883
858.8558, 1496.178
859.3379, 1505.851
859.8200, 1512.936
860.3021, 1517.595
860.7842, 1518.237
861.2664, 1517.689
861.7485, 1517.821
862.2306, 1518.921
862.7127, 1517.001
863.1948, 1511.085
863.6769, 1506.381
864.1591, 1506.932
864.6412, 1511.346
865.1233, 1517.079
865.6054, 1523.915
866.0875, 1529.876
866.5696, 1531.830
867.0518, 1534.256
867.5339, 1541.296
868.0160, 1553.547
868.4981, 1560.873
868.9802, 1562.245
869.4623, 1560.641
869.9445, 1554.677
870.4266, 1547.025
870.9087, 1553.482
871.3908, 1572.595
871.8729, 1588.125
872.3550, 1589.347
872.8372, 1583.685
873.3193, 1572.985
873.8014, 1559.424
874.2835, 1554.086
874.7656, 1565.909
875.2477, 1579.008
875.7299, 1590.927
876.2120, 1600.835
876.6941, 1603.680
877.1762, 1599.469
877.6583, 1599.624
878.1404, 1613.605
878.6226, 1629.851
879.1047, 1629.638
879.5869, 1619.265
880.0690, 1614.938
880.5511, 1630.401
881.0332, 1643.951
881.5153, 1646.790
881.9974, 1644.410
882.4796, 1649.498
882.9617, 1664.574
883.4438, 1671.693
883.9259, 1663.727
884.4080, 1651.741
884.8901, 1654.828
885.3723, 1667.553
885.8544, 1677.273
886.3365, 1678.792
886.8186, 1677.719
887.3007, 1673.347
887.7828, 1669.140
888.2650, 1670.190
888.7471, 1679.003
889.2292, 1686.208
889.7113, 1690.602
890.1934, 1694.243
890.6755, 1698.404
891.1577, 1704.031
891.6398, 1716.742
892.1219, 1740.021
892.6040, 1756.979
893.0861, 1747.410
893.5682, 1730.733
894.0504, 1726.331
894.5325, 1745.510
895.0146, 1753.513
895.4967, 1744.293
895.9788, 1735.053
896.4609, 1742.773
896.9431, 1764.224
897.4252, 1779.566
897.9073, 1787.719
898.3894, 1792.424
898.8715, 1794.505
899.3536, 1796.015
899.8358, 1798.228
900.3179, 1801.135
900.8000, 1806.913
901.2821, 1817.688
901.7642, 1828.409
902.2463, 1838.225
902.7285, 1846.298
903.2106, 1844.506
903.6927, 1833.343
904.1748, 1825.587
904.6569, 1835.997
905.1390, 1848.382
905.6212, 1840.486
906.1033, 1818.489
906.5854, 1809.879
907.0675, 1839.680
907.5496, 1862.885
908.0317, 1866.573
908.5139, 1857.319
908.9960, 1855.108
909.4781, 1859.988
909.9602, 1864.921
910.4423, 1867.123
910.9244, 1868.665
911.4066, 1870.441
911.8887, 1873.638
912.3708, 1880.514
912.8529, 1896.769
913.3350, 1910.349
913.8171, 1916.877
914.2993, 1921.262
914.7814, 1929.012
915.2635, 1939.940
915.7456, 1958.333
916.2277, 1986.487
916.7098, 2014.925
917.1920, 2029.281
917.6741, 2037.839
918.1562, 2054.046
918.6383, 2083.877
919.1204, 2108.933
919.6025, 2113.391
920.0847, 2119.720
920.5668, 2145.029
921.0489, 2193.473
921.5310, 2231.056
922.0131, 2256.594
922.4952, 2280.070
922.9774, 2307.815
923.4595, 2339.364
923.9416, 2377.326
924.4237, 2420.731
924.9058, 2457.061
925.3879, 2473.439
925.8701, 2490.118
926.3522, 2517.207
926.8343, 2552.989
927.3164, 2584.447
927.7985, 2612.494
928.2806, 2629.046
928.7628, 2625.018
929.2449, 2612.249
929.7270, 2611.156
930.2091, 2616.747
930.6912, 2615.463
931.1733, 2602.934
931.6555, 2581.246
932.1376, 2549.771
932.6197, 2510.094
933.1018, 2460.310
933.5839, 2396.671
934.0660, 2349.516
934.5482, 2326.250
935.0303, 2313.689
935.5124, 2295.332
935.9945, 2275.051
936.4766, 2261.100
936.9587, 2259.733
937.4409, 2251.970
937.9230, 2221.102
938.4051, 2189.474
938.8872, 2174.232
939.3693, 2177.489
939.8514, 2186.077
940.3336, 2200.811
940.8157, 2213.832
941.2978, 2218.180
941.7799, 2216.965
942.2620, 2212.264
942.7441, 2204.854
943.2263, 2202.881
943.7084, 2214.766
944.1905, 2227.404
944.6726, 2235.398
945.1547, 2239.546
945.6368, 2246.536
946.1190, 2256.990
946.6011, 2260.178
947.0832, 2247.524
947.5653, 2229.189
948.0474, 2218.970
948.5295, 2213.657
949.0117, 2205.785
949.4938, 2195.681
949.9759, 2178.334
950.4580, 2146.954
950.9401, 2112.571
951.4222, 2093.333
951.9044, 2089.397
952.3865, 2085.348
952.8686, 2078.814
953.3507, 2071.350
953.8328, 2065.628
954.3149, 2059.480
954.7971, 2049.360
955.2792, 2033.066
955.7613, 2019.525
956.2434, 2011.192
956.7255, 2004.571
957.2076, 1997.839
957.6898, 1990.973
958.1719, 1983.063
958.6540, 1974.114
959.1361, 1968.637
959.6182, 1973.950
960.1003, 1980.768
960.5825, 1979.613
961.0646, 1971.668
961.5467, 1965.712
962.0288, 1964.943
962.5109, 1963.818
962.9930, 1960.748
963.4752, 1956.841
963.9573, 1955.906
964.4394, 1957.164
964.9215, 1955.340
965.4036, 1946.882
965.8857, 1938.454
966.3679, 1932.757
966.8500, 1931.402
967.3321, 1937.209
967.8142, 1962.992
968.2963, 1971.329
968.7784, 1955.979
969.2606, 1935.321
969.7427, 1929.189
970.2248, 1933.431
970.7069, 1932.630
971.1890, 1925.679
971.6711, 1918.836
972.1533, 1915.247
972.6354, 1914.006
973.1175, 1915.770
973.5996, 1920.312
974.0817, 1921.564
974.5638, 1918.492
975.0460, 1915.608
975.5281, 1913.766
976.0102, 1914.231
976.4923, 1920.852
976.9744, 1932.112
977.4565, 1943.557
977.9387, 1958.439
978.4208, 1967.094
978.9029, 1964.692
979.3850, 1954.616
979.8671, 1939.138
980.3492, 1916.054
980.8314, 1900.940
981.3135, 1895.622
981.7956, 1897.811
982.2777, 1911.095
982.7598, 1927.434
983.2419, 1934.178
983.7241, 1928.287
984.2062, 1922.996
984.6883, 1924.309
985.1704, 1924.798
985.6525, 1919.771
986.1346, 1910.295
986.6168, 1908.703
987.0989, 1914.782
987.5810, 1921.821
988.0631, 1927.688
988.5452, 1931.319
989.0273, 1929.336
989.5095, 1924.363
989.9916, 1923.154
990.4737, 1928.137
990.9558, 1935.820
991.4379, 1947.609
991.9200, 1959.256
992.4022, 1962.953
992.8843, 1960.402
993.3664, 1959.177
993.8485, 1960.860
994.3306, 1962.763
994.8127, 1964.538
995.2949, 1964.683
995.7770, 1960.408
996.2591, 1950.224
996.7412, 1946.571
997.2233, 1949.839
997.7054, 1958.324
998.1876, 1973.663
998.6697, 1992.408
999.1518, 2007.328
999.6339, 2019.040
1000.116, 2030.241
1000.598, 2044.891
1001.080, 2056.025
1001.562, 2055.883
1002.044, 2053.274
1002.527, 2067.802
1003.009, 2101.326
1003.491, 2121.667
1003.973, 2120.216
1004.455, 2114.742
1004.937, 2129.345
1005.419, 2149.290
1005.901, 2152.201
1006.384, 2125.932
1006.866, 2119.610
1007.348, 2151.062
1007.830, 2183.682
1008.312, 2192.906
1008.794, 2184.947
1009.276, 2200.888
1009.758, 2237.783
1010.240, 2271.462
1010.723, 2283.420
1011.205, 2292.054
1011.687, 2310.222
1012.169, 2333.823
1012.651, 2349.895
1013.133, 2351.588
1013.615, 2367.469
1014.097, 2405.704
1014.580, 2449.096
1015.062, 2469.479
1015.544, 2478.464
1016.026, 2498.347
1016.508, 2533.939
1016.990, 2575.785
1017.472, 2631.143
1017.954, 2680.837
1018.436, 2709.444
1018.919, 2718.576
1019.401, 2755.758
1019.883, 2821.091
1020.365, 2876.750
1020.847, 2889.374
1021.329, 2891.526
1021.811, 2912.396
1022.293, 2948.423
1022.776, 2991.464
1023.258, 3043.133
1023.740, 3097.362
1024.222, 3156.035
1024.704, 3213.139
1025.186, 3261.479
1025.668, 3301.073
1026.150, 3329.518
1026.632, 3346.362
1027.115, 3356.784
1027.597, 3366.857
1028.079, 3368.867
1028.561, 3356.608
1029.043, 3330.852
1029.525, 3300.959
1030.007, 3268.233
1030.489, 3224.495
1030.972, 3161.799
1031.454, 3090.862
1031.936, 3024.381
1032.418, 2960.411
1032.900, 2895.850
1033.382, 2823.800
1033.864, 2758.073
1034.346, 2697.631
1034.828, 2646.584
1035.311, 2616.773
1035.793, 2603.310
1036.275, 2570.779
1036.757, 2515.933
1037.239, 2468.988
1037.721, 2458.051
1038.203, 2456.753
1038.685, 2446.104
1039.167, 2427.076
1039.650, 2417.399
1040.132, 2418.708
1040.614, 2422.739
1041.096, 2427.045
1041.578, 2432.004
1042.060, 2436.404
1042.542, 2442.195
1043.024, 2453.225
1043.507, 2471.513
1043.989, 2493.539
1044.471, 2521.812
1044.953, 2550.152
1045.435, 2572.151
1045.917, 2588.734
1046.399, 2613.696
1046.881, 2647.096
1047.364, 2686.190
1047.846, 2737.037
1048.328, 2785.636
1048.810, 2815.868
1049.292, 2834.708
1049.774, 2873.528
1050.256, 2938.938
1050.738, 3001.029
1051.220, 3052.483
1051.703, 3101.909
1052.185, 3165.388
1052.667, 3232.594
1053.149, 3283.479
1053.631, 3309.961
1054.113, 3339.988
1054.595, 3381.969
1055.077, 3428.564
1055.559, 3480.594
1056.042, 3534.656
1056.524, 3572.026
1057.006, 3592.566
1057.488, 3595.181
1057.970, 3572.282
1058.452, 3538.441
1058.934, 3498.169
1059.416, 3454.083
1059.899, 3412.308
1060.381, 3375.035
1060.863, 3332.118
1061.345, 3282.263
1061.827, 3228.071
1062.309, 3157.724
1062.791, 3091.024
1063.273, 3068.348
1063.755, 3091.148
1064.238, 3095.704
1064.720, 3046.183
1065.202, 2999.483
1065.684, 2973.657
1066.166, 2961.014
1066.648, 2940.100
1067.130, 2913.204
1067.612, 2889.525
1068.094, 2873.184
1068.577, 2857.858
1069.059, 2848.519
1069.541, 2831.837
1070.023, 2792.346
1070.505, 2723.403
1070.987, 2670.795
1071.469, 2635.201
1071.951, 2602.857
1072.434, 2560.778
1072.916, 2518.711
1073.398, 2490.342
1073.880, 2471.717
1074.362, 2448.689
1074.844, 2411.144
1075.326, 2380.608
1075.808, 2361.124
1076.291, 2346.523
1076.773, 2326.701
1077.255, 2304.633
1077.737, 2291.249
1078.219, 2288.803
1078.701, 2283.146
1079.183, 2255.187
1079.665, 2235.362
1080.147, 2245.239
1080.630, 2276.314
1081.112, 2273.815
1081.594, 2238.936
1082.076, 2208.148
1082.558, 2195.243
1083.040, 2191.441
1083.522, 2197.247
1084.004, 2203.660
1084.486, 2196.253
1084.969, 2160.753
1085.451, 2151.221
1085.933, 2174.441
1086.415, 2198.349
1086.897, 2194.900
1087.379, 2177.540
1087.861, 2170.230
1088.343, 2170.686
1088.826, 2166.963
1089.308, 2149.872
1089.790, 2134.280
1090.272, 2120.425
1090.754, 2112.193
1091.236, 2120.604
1091.718, 2140.928
1092.200, 2151.395
1092.682, 2148.488
1093.165, 2139.135
1093.647, 2119.694
1094.129, 2102.547
1094.611, 2097.243
1095.093, 2101.616
1095.575, 2099.714
1096.057, 2091.192
1096.539, 2085.208
1097.022, 2086.430
1097.504, 2089.203
1097.986, 2085.336
1098.468, 2080.441
1098.950, 2083.510
1099.432, 2103.533
1099.914, 2109.446
1100.396, 2097.834
1100.879, 2082.938
1101.361, 2072.948
1101.843, 2067.698
1102.325, 2070.818
1102.807, 2078.930
1103.289, 2079.576
1103.771, 2054.398
1104.253, 2040.744
1104.735, 2048.928
1105.218, 2065.402
1105.700, 2071.733
1106.182, 2069.687
1106.664, 2066.176
1107.146, 2061.882
1107.628, 2060.429
1108.110, 2066.756
1108.592, 2073.889
1109.074, 2079.703
1109.557, 2083.030
1110.039, 2075.600
1110.521, 2057.120
1111.003, 2048.091
1111.485, 2057.321
1111.967, 2069.379
1112.449, 2069.806
1112.931, 2064.907
1113.414, 2060.610
1113.896, 2056.714
1114.378, 2060.002
1114.860, 2072.862
1115.342, 2082.293
1115.824, 2076.981
1116.306, 2067.194
1116.788, 2073.013
1117.271, 2086.752
1117.753, 2091.300
1118.235, 2069.842
1118.717, 2055.779
1119.199, 2051.788
1119.681, 2054.224
1120.163, 2065.134
1120.645, 2078.744
1121.127, 2071.636
1121.609, 2046.139
1122.092, 2032.826
1122.574, 2062.439
1123.056, 2088.309
1123.538, 2095.400
1124.020, 2089.570
1124.502, 2078.745
1124.984, 2064.192
1125.466, 2058.247
1125.949, 2064.278
1126.431, 2069.691
1126.913, 2061.724
1127.395, 2053.362
1127.877, 2058.258
1128.359, 2073.290
1128.841, 2067.721
1129.323, 2039.981
1129.806, 2019.419
1130.288, 2017.739
1130.770, 2025.210
1131.252, 2038.247
1131.734, 2051.578
1132.216, 2057.607
1132.698, 2053.606
1133.180, 2049.060
1133.662, 2043.244
1134.145, 2040.092
1134.627, 2043.797
1135.109, 2050.570
1135.591, 2057.290
1136.073, 2062.067
1136.555, 2059.940
1137.037, 2032.545
1137.519, 2026.685
1138.001, 2053.704
1138.484, 2084.305
1138.966, 2081.076
1139.448, 2059.533
1139.930, 2061.604
1140.412, 2086.284
1140.894, 2102.525
1141.376, 2089.508
1141.858, 2076.574
1142.341, 2071.751
1142.823, 2071.028
1143.305, 2064.068
1143.787, 2054.102
1144.269, 2058.279
1144.751, 2080.979
1145.233, 2100.511
1145.715, 2105.933
1146.198, 2102.757
1146.680, 2091.835
1147.162, 2075.855
1147.644, 2067.996
1148.126, 2067.798
1148.608, 2069.560
1149.090, 2072.246
1149.572, 2074.258
1150.054, 2076.089
1150.536, 2075.375
1151.019, 2067.884
1151.501, 2052.481
1151.983, 2048.780
1152.465, 2057.142
1152.947, 2067.609
1153.429, 2079.489
1153.911, 2085.800
1154.393, 2071.630
1154.876, 2049.723
1155.358, 2043.448
1155.840, 2058.797
1156.322, 2075.867
1156.804, 2095.503
1157.286, 2110.250
1157.768, 2112.068
1158.250, 2106.968
1158.733, 2100.801
1159.215, 2094.202
1159.697, 2088.259
1160.179, 2050.885
1160.661, 2074.222
1161.143, 2087.999
1161.625, 2092.732
1162.107, 2061.331
1162.589, 2076.589
1163.072, 2073.152
1163.554, 2068.944
1164.036, 2090.770
1164.518, 2064.624
1165.000, 2086.037
1165.482, 2088.466
1165.964, 2099.583
1166.446, 2091.885
1166.928, 2090.894
1167.411, 2083.787
1167.893, 2080.580
1168.375, 2082.491
1168.857, 2093.981
1169.339, 2105.887
1169.821, 2115.525
1170.303, 2122.515
1170.785, 2125.758
1171.268, 2125.460
1171.750, 2121.383
1172.232, 2109.829
1172.714, 2104.069
1173.196, 2117.208
1173.678, 2130.154
1174.160, 2128.344
1174.642, 2115.801
1175.125, 2124.467
1175.607, 2149.524
1176.089, 2163.894
1176.571, 2144.411
1177.053, 2125.395
1177.535, 2121.339
1178.017, 2125.413
1178.499, 2135.784
1178.981, 2152.245
1179.464, 2144.749
1179.946, 2114.845
1180.428, 2091.831
1180.910, 2096.952
1181.392, 2110.776
1181.874, 2129.709
1182.356, 2147.483
1182.838, 2153.852
1183.320, 2148.447
1183.803, 2141.954
1184.285, 2134.992
1184.767, 2135.209
1185.249, 2160.878
1185.731, 2183.733
1186.213, 2180.090
1186.695, 2158.281
1187.177, 2140.574
1187.660, 2126.644
1188.142, 2122.728
1188.624, 2130.478
1189.106, 2143.355
1189.588, 2163.324
1190.070, 2179.634
1190.552, 2180.623
1191.034, 2168.472
1191.516, 2160.790
1191.999, 2157.826
1192.481, 2157.338
1192.963, 2159.611
1193.445, 2160.761
1193.927, 2153.827
1194.409, 2145.899
1194.891, 2144.879
1195.373, 2151.393
1195.855, 2156.735
1196.338, 2160.688
1196.820, 2166.075
1197.302, 2175.912
1197.784, 2183.516
1198.266, 2177.372
1198.748, 2166.823
1199.230, 2164.232
1199.712, 2172.124
1200.195, 2180.080
1200.677, 2188.736
1201.159, 2192.702
1201.641, 2185.681
1202.123, 2176.757
1202.605, 2178.461
1203.087, 2184.667
1203.569, 2184.334
1204.052, 2170.745
1204.534, 2169.575
1205.016, 2183.189
1205.498, 2194.983
1205.980, 2190.780
1206.462, 2180.844
1206.944, 2173.445
1207.426, 2170.113
1207.908, 2175.452
1208.391, 2193.358
1208.873, 2209.757
1209.355, 2225.289
1209.837, 2233.467
1210.319, 2223.292
1210.801, 2207.012
1211.283, 2200.313
1211.765, 2199.771
1212.247, 2190.347
1212.730, 2163.030
1213.212, 2153.314
1213.694, 2166.961
1214.176, 2188.718
1214.658, 2212.395
1215.140, 2230.159
1215.622, 2227.209
1216.104, 2208.021
1216.587, 2202.260
1217.069, 2215.777
1217.551, 2228.832
1218.033, 2239.254
1218.515, 2244.076
1218.997, 2235.566
1219.479, 2222.627
1219.961, 2213.944
1220.443, 2210.674
1220.926, 2214.273
1221.408, 2227.688
1221.890, 2235.511
1222.372, 2233.612
1222.854, 2226.896
1223.336, 2213.448
1223.818, 2203.426
1224.300, 2211.616
1224.782, 2240.607
1225.265, 2263.014
1225.747, 2279.530
1226.229, 2284.078
1226.711, 2270.771
1227.193, 2255.870
1227.675, 2263.167
1228.157, 2277.726
1228.639, 2281.036
1229.122, 2269.899
1229.604, 2261.201
1230.086, 2255.227
1230.568, 2249.754
1231.050, 2244.700
1231.532, 2238.153
1232.014, 2220.133
1232.496, 2203.729
1232.979, 2208.738
1233.461, 2239.675
1233.943, 2257.620
1234.425, 2261.596
1234.907, 2260.697
1235.389, 2257.171
1235.871, 2253.818
1236.353, 2251.174
1236.835, 2251.548
1237.318, 2260.406
1237.800, 2280.469
1238.282, 2284.858
1238.764, 2272.725
1239.246, 2261.806
1239.728, 2264.896
1240.210, 2269.607
1240.692, 2261.575
1241.175, 2251.130
1241.657, 2252.833
1242.139, 2269.000
1242.621, 2285.766
1243.103, 2303.363
1243.585, 2310.889
1244.067, 2291.677
1244.549, 2271.231
1245.031, 2267.700
1245.514, 2273.119
1245.996, 2275.339
1246.478, 2273.812
1246.960, 2277.232
1247.442, 2285.464
1247.924, 2292.820
1248.406, 2295.260
1248.888, 2296.110
1249.370, 2295.390
1249.853, 2295.339
1250.335, 2299.394
1250.817, 2307.337
1251.299, 2316.064
1251.781, 2324.851
1252.263, 2326.239
1252.745, 2303.100
1253.227, 2286.484
1253.710, 2295.833
1254.192, 2314.623
1254.674, 2323.143
1255.156, 2322.587
1255.638, 2320.361
1256.120, 2317.199
1256.602, 2315.588
1257.084, 2316.142
1257.567, 2319.718
1258.049, 2326.920
1258.531, 2336.277
1259.013, 2348.081
1259.495, 2360.245
1259.977, 2363.886
1260.459, 2359.022
1260.941, 2353.622
1261.423, 2352.317
1261.906, 2348.640
1262.388, 2337.779
1262.870, 2329.509
1263.352, 2346.395
1263.834, 2374.239
1264.316, 2376.081
1264.798, 2350.994
1265.280, 2331.532
1265.762, 2329.172
1266.245, 2331.075
1266.727, 2336.019
1267.209, 2342.085
1267.691, 2348.717
1268.173, 2353.664
1268.655, 2350.448
1269.137, 2339.479
1269.619, 2337.284
1270.102, 2348.128
1270.584, 2360.960
1271.066, 2375.153
1271.548, 2384.773
1272.030, 2376.913
1272.512, 2363.573
1272.994, 2358.806
1273.476, 2363.674
1273.958, 2370.516
1274.441, 2380.912
1274.923, 2382.416
1275.405, 2370.163
1275.887, 2358.090
1276.369, 2358.098
1276.851, 2367.320
1277.333, 2391.514
1277.815, 2424.478
1278.297, 2425.929
1278.780, 2393.627
1279.262, 2380.489
1279.744, 2401.751
1280.226, 2424.462
1280.708, 2420.741
1281.190, 2409.562
1281.672, 2405.421
1282.154, 2405.312
1282.637, 2393.397
1283.119, 2372.058
1283.601, 2365.874
1284.083, 2381.693
1284.565, 2399.910
1285.047, 2415.409
1285.529, 2421.608
1286.011, 2411.587
1286.494, 2394.028
1286.976, 2398.568
1287.458, 2416.839
1287.940, 2417.098
1288.422, 2389.657
1288.904, 2371.693
1289.386, 2384.271
1289.868, 2400.007
1290.350, 2412.693
1290.833, 2419.888
1291.315, 2409.760
1291.797, 2392.558
1292.279, 2390.193
1292.761, 2408.663
1293.243, 2423.891
1293.725, 2433.995
1294.207, 2437.761
1294.689, 2433.126
1295.172, 2426.069
1295.654, 2421.678
1296.136, 2422.256
1296.618, 2436.792
1297.100, 2468.514
1297.582, 2465.156
1298.064, 2418.248
1298.546, 2392.393
1299.029, 2412.656
1299.511, 2444.856
1299.993, 2459.228
1300.475, 2463.277
1300.957, 2462.944
1301.439, 2458.926
1301.921, 2447.511
1302.403, 2429.194
1302.885, 2419.880
1303.368, 2425.065
1303.850, 2434.836
1304.332, 2448.169
1304.814, 2457.340
##END=



