##NAMES=Actinolite
##RRUFFID=R040063
##IDEAL CHEMISTRY=Ca_2_(Mg_4.5-2.5_Fe^2+^_0.5-2.5_)Si_8_O_22_(OH)_2_
##LOCALITY=Harford County, Maryland, USA
##OWNER=RRUFF
##SOURCE=University of Arizona Mineral Museum
##DESCRIPTION=Mass of green acicular to bladed crystals associated with chlorite
##STATUS=The identification of this mineral has been confirmed by X-ray diffraction and chemical analysis
##URL=rruff.info/R040063
##MEASURED CHEMISTRY=(Ca_1.90_Na_0.06_Mn_0.04_)_Σ=2_(Mg_4.35_Fe_0.65_)_Σ=5_(Si_7.92_Al_0.08_)_Σ=8_O_22_(OH)_2_
118.1473, 643.2337
118.6294, 696.1333
119.1115, 743.1394
119.5937, 787.0490
120.0758, 830.5268
120.5579, 874.3469
121.0400, 915.6421
121.5221, 958.7803
122.0042, 999.0645
122.4864, 1022.689
122.9685, 1015.137
123.4506, 988.4966
123.9327, 956.2672
124.4148, 917.1277
124.8969, 878.9847
125.3791, 852.2690
125.8612, 836.3913
126.3433, 821.5762
126.8254, 797.2689
127.3075, 767.7726
127.7896, 743.7374
128.2718, 732.2429
128.7539, 728.0718
129.2360, 721.3874
129.7181, 712.3387
130.2002, 699.9142
130.6823, 679.2267
131.1645, 651.6424
131.6466, 628.5693
132.1287, 616.6804
132.6108, 614.6559
133.0929, 614.5656
133.5750, 615.8494
134.0571, 619.0097
134.5393, 625.8595
135.0214, 636.7236
135.5035, 647.8506
135.9856, 655.5748
136.4677, 659.4999
136.9498, 667.4469
137.4320, 681.2198
137.9141, 699.8993
138.3962, 719.2888
138.8783, 741.0804
139.3604, 760.2724
139.8425, 770.8710
140.3247, 770.2062
140.8068, 770.5266
141.2889, 774.6227
141.7710, 782.7753
142.2531, 791.3441
142.7352, 801.7808
143.2174, 811.3862
143.6995, 816.2523
144.1816, 813.6744
144.6637, 810.7539
145.1458, 809.5895
145.6279, 810.5934
146.1101, 811.8843
146.5922, 811.0873
147.0743, 810.8833
147.5564, 818.0115
148.0385, 837.3279
148.5206, 859.2003
149.0028, 879.5640
149.4849, 898.6096
149.9670, 915.9834
150.4491, 929.7102
150.9312, 940.7150
151.4133, 955.0745
151.8955, 973.8096
152.3776, 995.2127
152.8597, 1018.539
153.3418, 1038.600
153.8239, 1065.755
154.3060, 1106.615
154.7881, 1161.475
155.2703, 1208.622
155.7524, 1236.063
156.2345, 1258.165
156.7166, 1287.994
157.1987, 1347.235
157.6808, 1397.830
158.1630, 1427.557
158.6451, 1433.282
159.1272, 1425.970
159.6093, 1400.989
160.0914, 1365.539
160.5735, 1330.611
161.0557, 1297.028
161.5378, 1266.742
162.0199, 1240.552
162.5020, 1218.683
162.9841, 1201.414
163.4662, 1190.890
163.9484, 1185.376
164.4305, 1180.525
164.9126, 1165.766
165.3947, 1155.442
165.8768, 1161.367
166.3589, 1193.016
166.8411, 1232.778
167.3232, 1268.821
167.8053, 1303.360
168.2874, 1346.997
168.7695, 1412.248
169.2516, 1487.935
169.7338, 1561.230
170.2159, 1621.225
170.6980, 1682.378
171.1801, 1758.448
171.6622, 1849.192
172.1443, 1942.246
172.6265, 2026.177
173.1086, 2106.800
173.5907, 2192.818
174.0728, 2288.548
174.5549, 2392.414
175.0370, 2507.885
175.5191, 2636.760
176.0013, 2756.583
176.4834, 2861.487
176.9655, 2943.516
177.4476, 2979.328
177.9297, 2954.981
178.4118, 2877.270
178.8940, 2752.390
179.3761, 2573.054
179.8582, 2370.323
180.3403, 2169.750
180.8224, 1973.219
181.3046, 1800.600
181.7867, 1665.461
182.2688, 1561.511
182.7509, 1475.979
183.2330, 1407.934
183.7151, 1354.232
184.1973, 1310.447
184.6794, 1276.547
185.1615, 1245.632
185.6436, 1211.349
186.1257, 1175.326
186.6078, 1145.680
187.0900, 1123.099
187.5721, 1108.345
188.0542, 1105.014
188.5363, 1113.598
189.0184, 1124.302
189.5005, 1130.733
189.9827, 1132.614
190.4648, 1127.341
190.9469, 1111.029
191.4290, 1087.563
191.9111, 1070.284
192.3932, 1059.606
192.8754, 1052.150
193.3575, 1044.090
193.8396, 1035.376
194.3217, 1028.685
194.8038, 1026.032
195.2859, 1026.719
195.7680, 1024.622
196.2502, 1019.202
196.7323, 1012.511
197.2144, 1007.138
197.6965, 1003.149
198.1786, 999.9724
198.6607, 995.2090
199.1429, 988.6026
199.6250, 992.9626
200.1071, 1010.761
200.5892, 1035.458
201.0713, 1055.721
201.5534, 1070.720
202.0356, 1085.219
202.5177, 1101.859
202.9998, 1121.078
203.4819, 1137.311
203.9640, 1148.048
204.4461, 1157.443
204.9283, 1175.514
205.4104, 1203.504
205.8925, 1236.027
206.3746, 1271.915
206.8567, 1312.866
207.3388, 1347.377
207.8210, 1370.635
208.3031, 1387.896
208.7852, 1415.708
209.2673, 1454.987
209.7494, 1502.726
210.2315, 1559.004
210.7137, 1626.933
211.1958, 1691.744
211.6779, 1747.854
212.1600, 1798.650
212.6421, 1860.974
213.1242, 1938.738
213.6064, 2021.425
214.0885, 2099.035
214.5706, 2168.724
215.0527, 2243.292
215.5348, 2326.543
216.0169, 2416.403
216.4990, 2504.926
216.9812, 2589.997
217.4633, 2676.587
217.9454, 2771.999
218.4275, 2882.463
218.9096, 2987.231
219.3917, 3085.003
219.8739, 3175.436
220.3560, 3251.981
220.8381, 3316.856
221.3202, 3366.337
221.8023, 3398.418
222.2844, 3416.807
222.7666, 3409.759
223.2487, 3369.641
223.7308, 3292.866
224.2129, 3216.898
224.6950, 3139.767
225.1771, 3065.132
225.6593, 2998.449
226.1414, 2937.135
226.6235, 2887.333
227.1056, 2850.398
227.5877, 2827.033
228.0698, 2815.139
228.5520, 2821.324
229.0341, 2833.984
229.5162, 2836.004
229.9983, 2826.171
230.4804, 2807.914
230.9625, 2785.721
231.4447, 2767.991
231.9268, 2714.208
232.4089, 2608.491
232.8910, 2474.511
233.3731, 2354.635
233.8552, 2257.256
234.3373, 2160.774
234.8195, 2055.985
235.3016, 1933.868
235.7837, 1829.482
236.2658, 1745.578
236.7479, 1678.349
237.2300, 1620.084
237.7122, 1572.157
238.1943, 1531.300
238.6764, 1496.614
239.1585, 1471.362
239.6406, 1444.555
240.1227, 1411.468
240.6049, 1378.223
241.0870, 1361.776
241.5691, 1370.478
242.0512, 1383.932
242.5333, 1393.012
243.0154, 1393.673
243.4976, 1398.714
243.9797, 1409.573
244.4618, 1424.615
244.9439, 1439.625
245.4260, 1455.287
245.9081, 1469.805
246.3903, 1482.366
246.8724, 1493.013
247.3545, 1501.334
247.8366, 1506.218
248.3187, 1508.831
248.8008, 1515.077
249.2830, 1534.315
249.7651, 1543.941
250.2472, 1529.818
250.7293, 1478.874
251.2114, 1434.599
251.6935, 1400.275
252.1757, 1374.323
252.6578, 1349.457
253.1399, 1326.042
253.6220, 1303.646
254.1041, 1281.945
254.5862, 1260.261
255.0683, 1240.879
255.5505, 1224.591
256.0326, 1210.508
256.5147, 1195.584
256.9968, 1179.714
257.4789, 1162.679
257.9611, 1143.660
258.4432, 1119.860
258.9253, 1101.220
259.4074, 1090.328
259.8895, 1085.329
260.3716, 1077.875
260.8538, 1066.869
261.3359, 1055.261
261.8180, 1045.154
262.3001, 1036.964
262.7822, 1028.701
263.2643, 1019.805
263.7465, 1010.679
264.2286, 1002.765
264.7107, 996.2816
265.1928, 990.8961
265.6749, 988.0776
266.1570, 990.8287
266.6391, 984.4869
267.1212, 962.5842
267.6034, 930.7324
268.0855, 915.6022
268.5676, 923.0348
269.0497, 933.9967
269.5318, 934.7388
270.0139, 922.2311
270.4961, 912.9451
270.9782, 909.3929
271.4603, 910.3332
271.9424, 910.4636
272.4245, 909.3892
272.9066, 908.5963
273.3888, 909.5374
273.8709, 912.6578
274.3530, 914.4406
274.8351, 913.9239
275.3172, 911.9054
275.7993, 910.9592
276.2815, 910.8021
276.7636, 912.6506
277.2457, 918.7769
277.7278, 929.8687
278.2099, 937.2762
278.6920, 938.9413
279.1742, 936.6877
279.6563, 934.9512
280.1384, 932.9577
280.6205, 935.0848
281.1026, 946.6348
281.5847, 967.8328
282.0669, 985.7950
282.5490, 998.1357
283.0311, 1006.801
283.5132, 1016.605
283.9953, 1027.618
284.4774, 1039.323
284.9596, 1051.552
285.4417, 1064.298
285.9238, 1076.550
286.4059, 1088.182
286.8880, 1099.263
287.3701, 1111.011
287.8523, 1123.482
288.3344, 1132.892
288.8165, 1135.256
289.2986, 1131.592
289.7807, 1128.268
290.2628, 1126.817
290.7450, 1124.918
291.2271, 1115.464
291.7092, 1098.906
292.1913, 1086.392
292.6734, 1088.687
293.1555, 1101.853
293.6377, 1110.688
294.1198, 1112.663
294.6019, 1111.270
295.0840, 1111.274
295.5661, 1112.615
296.0482, 1114.708
296.5304, 1115.736
297.0125, 1117.306
297.4946, 1124.160
297.9767, 1137.934
298.4588, 1153.967
298.9409, 1167.095
299.4231, 1177.406
299.9052, 1185.987
300.3873, 1192.660
300.8694, 1197.973
301.3515, 1204.043
301.8336, 1212.359
302.3158, 1216.395
302.7979, 1204.555
303.2800, 1181.479
303.7621, 1161.789
304.2442, 1154.589
304.7263, 1154.610
305.2085, 1156.650
305.6906, 1161.191
306.1727, 1162.738
306.6548, 1154.264
307.1369, 1139.283
307.6190, 1125.172
308.1011, 1117.762
308.5833, 1111.898
309.0654, 1102.010
309.5475, 1087.119
310.0296, 1072.700
310.5117, 1061.920
310.9938, 1054.069
311.4760, 1047.882
311.9581, 1044.156
312.4402, 1040.877
312.9223, 1036.135
313.4044, 1029.606
313.8865, 1024.422
314.3687, 1024.934
314.8508, 1027.122
315.3329, 1025.813
315.8150, 1012.329
316.2971, 1000.522
316.7792, 998.1243
317.2614, 1005.598
317.7435, 1015.400
318.2256, 1027.508
318.7077, 1039.414
319.1898, 1048.568
319.6719, 1049.036
320.1541, 1051.736
320.6362, 1063.509
321.1183, 1084.100
321.6004, 1097.953
322.0825, 1092.581
322.5646, 1083.444
323.0468, 1082.531
323.5289, 1100.846
324.0110, 1118.125
324.4931, 1130.426
324.9752, 1137.866
325.4573, 1144.247
325.9395, 1148.376
326.4216, 1152.562
326.9037, 1158.214
327.3858, 1165.314
327.8679, 1173.985
328.3500, 1184.423
328.8322, 1196.451
329.3143, 1209.974
329.7964, 1229.638
330.2785, 1246.468
330.7606, 1255.849
331.2427, 1252.273
331.7249, 1250.271
332.2070, 1251.688
332.6891, 1254.750
333.1712, 1254.220
333.6533, 1249.782
334.1354, 1242.254
334.6176, 1230.691
335.0997, 1210.576
335.5818, 1198.796
336.0639, 1198.002
336.5460, 1203.759
337.0281, 1206.390
337.5103, 1204.149
337.9924, 1203.462
338.4745, 1207.797
338.9566, 1218.168
339.4387, 1223.835
339.9208, 1221.618
340.4030, 1219.792
340.8851, 1234.031
341.3672, 1267.655
341.8493, 1295.258
342.3314, 1304.296
342.8135, 1297.143
343.2957, 1301.729
343.7778, 1319.796
344.2599, 1343.570
344.7420, 1365.526
345.2241, 1385.382
345.7062, 1404.538
346.1884, 1424.006
346.6705, 1442.783
347.1526, 1456.927
347.6347, 1466.250
348.1168, 1472.959
348.5989, 1475.734
349.0810, 1476.693
349.5631, 1484.516
350.0453, 1505.612
350.5274, 1530.170
351.0095, 1543.369
351.4916, 1545.630
351.9737, 1542.355
352.4558, 1531.510
352.9380, 1518.930
353.4201, 1515.411
353.9022, 1525.747
354.3843, 1541.012
354.8664, 1551.723
355.3485, 1559.695
355.8307, 1571.087
356.3128, 1586.375
356.7949, 1608.328
357.2770, 1641.366
357.7591, 1688.608
358.2412, 1738.740
358.7234, 1784.639
359.2055, 1828.305
359.6876, 1873.583
360.1697, 1921.909
360.6518, 1972.217
361.1339, 2024.518
361.6161, 2078.256
362.0982, 2135.662
362.5803, 2195.471
363.0624, 2259.562
363.5445, 2329.951
364.0266, 2409.973
364.5088, 2494.087
364.9909, 2584.142
365.4730, 2681.341
365.9551, 2766.184
366.4372, 2833.479
366.9193, 2888.255
367.4015, 2934.732
367.8836, 2985.953
368.3657, 3014.229
368.8478, 3015.513
369.3299, 2990.668
369.8120, 2943.161
370.2942, 2864.301
370.7763, 2771.258
371.2584, 2672.162
371.7405, 2558.612
372.2226, 2453.383
372.7047, 2356.592
373.1869, 2268.512
373.6690, 2187.072
374.1511, 2113.185
374.6332, 2045.731
375.1153, 1983.406
375.5974, 1925.483
376.0796, 1878.943
376.5617, 1845.182
377.0438, 1821.151
377.5259, 1798.851
378.0080, 1776.730
378.4901, 1767.560
378.9723, 1780.444
379.4544, 1813.030
379.9365, 1839.886
380.4186, 1859.474
380.9007, 1879.034
381.3828, 1904.069
381.8650, 1935.180
382.3471, 1975.385
382.8292, 2028.107
383.3113, 2089.186
383.7934, 2146.851
384.2755, 2201.686
384.7577, 2259.556
385.2398, 2326.247
385.7219, 2399.573
386.2040, 2474.961
386.6861, 2553.446
387.1682, 2631.375
387.6504, 2704.698
388.1325, 2774.703
388.6146, 2842.164
389.0967, 2907.426
389.5788, 2971.519
390.0609, 3037.926
390.5430, 3111.568
391.0251, 3171.406
391.5073, 3208.087
391.9894, 3221.837
392.4715, 3213.472
392.9536, 3183.097
393.4357, 3131.458
393.9178, 3057.583
394.4000, 2961.338
394.8821, 2846.815
395.3642, 2695.176
395.8463, 2534.632
396.3284, 2391.761
396.8105, 2279.645
397.2927, 2179.538
397.7748, 2090.712
398.2569, 2012.777
398.7390, 1936.499
399.2211, 1852.958
399.7032, 1777.542
400.1854, 1718.564
400.6675, 1679.588
401.1496, 1652.255
401.6317, 1641.210
402.1138, 1640.911
402.5959, 1635.534
403.0781, 1620.459
403.5602, 1608.265
404.0423, 1604.084
404.5244, 1608.768
405.0065, 1617.496
405.4886, 1630.619
405.9708, 1647.323
406.4529, 1666.903
406.9350, 1689.381
407.4171, 1713.221
407.8992, 1737.362
408.3813, 1762.458
408.8635, 1792.443
409.3456, 1827.693
409.8277, 1864.110
410.3098, 1899.559
410.7919, 1933.545
411.2740, 1962.256
411.7562, 1984.618
412.2383, 2002.193
412.7204, 2018.298
413.2025, 2032.355
413.6846, 2039.772
414.1667, 2036.394
414.6489, 2024.741
415.1310, 2009.482
415.6131, 1992.613
416.0952, 1966.825
416.5773, 1921.204
417.0594, 1862.633
417.5416, 1805.603
418.0237, 1754.672
418.5058, 1708.061
418.9879, 1666.833
419.4700, 1630.846
419.9521, 1593.730
420.4343, 1551.779
420.9164, 1507.524
421.3985, 1462.914
421.8806, 1415.610
422.3627, 1370.645
422.8448, 1326.086
423.3270, 1283.709
423.8091, 1250.658
424.2912, 1234.671
424.7733, 1223.393
425.2554, 1210.803
425.7375, 1195.276
426.2197, 1181.482
426.7018, 1169.188
427.1839, 1158.589
427.6660, 1149.945
428.1481, 1143.090
428.6302, 1138.281
429.1124, 1135.511
429.5945, 1134.764
430.0766, 1136.261
430.5587, 1140.275
431.0408, 1145.972
431.5229, 1153.261
432.0050, 1162.365
432.4872, 1169.863
432.9693, 1175.204
433.4514, 1178.396
433.9335, 1179.127
434.4156, 1177.401
434.8977, 1174.407
435.3799, 1171.117
435.8620, 1167.218
436.3441, 1162.008
436.8262, 1155.681
437.3083, 1147.182
437.7904, 1136.775
438.2726, 1123.417
438.7547, 1104.355
439.2368, 1069.955
439.7189, 1034.299
440.2010, 1011.118
440.6831, 1000.967
441.1653, 995.9928
441.6474, 998.8873
442.1295, 1001.532
442.6116, 995.4919
443.0937, 966.2344
443.5758, 941.4067
444.0580, 934.1443
444.5401, 940.2131
445.0222, 943.8134
445.5043, 936.8375
445.9864, 930.1824
446.4685, 929.8350
446.9507, 942.5202
447.4328, 947.1927
447.9149, 936.4681
448.3970, 920.5403
448.8791, 913.0735
449.3612, 919.9664
449.8434, 925.5026
450.3255, 925.5986
450.8076, 920.5407
451.2897, 918.0355
451.7718, 919.5920
452.2539, 920.5500
452.7361, 915.3829
453.2182, 902.9540
453.7003, 897.7993
454.1824, 903.7471
454.6645, 914.6218
455.1466, 917.1457
455.6288, 911.5169
456.1109, 906.6495
456.5930, 907.9409
457.0751, 913.5039
457.5572, 919.2327
458.0393, 925.1009
458.5215, 929.3813
459.0036, 931.2144
459.4857, 930.1447
459.9678, 924.7689
460.4499, 908.9616
460.9320, 894.5046
461.4142, 893.2498
461.8963, 902.7727
462.3784, 912.3720
462.8605, 914.8369
463.3426, 916.4193
463.8247, 922.7212
464.3069, 938.6057
464.7890, 949.0540
465.2711, 946.1576
465.7532, 936.0176
466.2353, 927.5453
466.7174, 922.1938
467.1996, 918.6796
467.6817, 916.4987
468.1638, 915.5561
468.6459, 917.5796
469.1280, 925.9382
469.6101, 933.6694
470.0923, 935.1298
470.5744, 926.3609
471.0565, 922.3559
471.5386, 925.3615
472.0207, 932.9377
472.5028, 939.3728
472.9849, 944.5052
473.4670, 949.8141
473.9492, 957.3022
474.4313, 966.2058
474.9134, 969.2992
475.3955, 966.0169
475.8776, 961.0536
476.3597, 959.5239
476.8419, 960.4163
477.3240, 960.0754
477.8061, 955.1932
478.2882, 951.7021
478.7703, 960.1666
479.2524, 977.6181
479.7346, 991.4948
480.2167, 990.8548
480.6988, 985.5101
481.1809, 982.6293
481.6630, 982.4317
482.1451, 988.0847
482.6273, 1008.403
483.1094, 1033.100
483.5915, 1049.143
484.0736, 1046.791
484.5557, 1042.012
485.0378, 1037.944
485.5200, 1034.648
486.0021, 1031.974
486.4842, 1032.472
486.9663, 1031.238
487.4484, 1025.431
487.9305, 1011.924
488.4127, 1001.351
488.8948, 994.2363
489.3769, 989.5681
489.8590, 985.4019
490.3411, 981.3792
490.8232, 979.5750
491.3054, 980.9163
491.7875, 985.0041
492.2696, 990.8758
492.7517, 998.9352
493.2338, 1004.798
493.7159, 1002.353
494.1981, 994.5251
494.6802, 991.0289
495.1623, 993.9868
495.6444, 1000.102
496.1265, 1007.909
496.6086, 1016.090
497.0908, 1021.052
497.5729, 1017.388
498.0550, 1012.513
498.5371, 1011.017
499.0192, 1013.209
499.5013, 1020.839
499.9835, 1040.586
500.4656, 1062.672
500.9477, 1079.618
501.4298, 1088.153
501.9119, 1093.610
502.3940, 1090.756
502.8762, 1085.593
503.3583, 1092.887
503.8404, 1125.342
504.3225, 1154.977
504.8046, 1173.206
505.2867, 1179.001
505.7689, 1186.617
506.2510, 1196.376
506.7331, 1207.336
507.2152, 1217.903
507.6973, 1227.564
508.1794, 1242.270
508.6616, 1264.285
509.1437, 1289.734
509.6258, 1311.261
510.1079, 1328.991
510.5900, 1344.536
511.0721, 1358.708
511.5543, 1371.310
512.0364, 1382.167
512.5185, 1391.289
513.0006, 1397.909
513.4827, 1399.246
513.9648, 1398.342
514.4470, 1399.795
514.9291, 1408.219
515.4112, 1413.999
515.8933, 1409.877
516.3754, 1399.061
516.8575, 1389.280
517.3397, 1382.847
517.8218, 1378.090
518.3039, 1374.091
518.7860, 1370.533
519.2681, 1369.461
519.7502, 1374.408
520.2324, 1379.206
520.7145, 1378.740
521.1966, 1369.238
521.6787, 1362.667
522.1608, 1359.962
522.6429, 1360.750
523.1251, 1365.381
523.6072, 1374.951
524.0893, 1382.183
524.5714, 1381.598
525.0535, 1375.375
525.5356, 1377.697
526.0178, 1389.149
526.4999, 1401.379
526.9820, 1406.762
527.4641, 1406.926
527.9462, 1406.451
528.4283, 1407.772
528.9105, 1405.738
529.3926, 1390.340
529.8747, 1367.658
530.3568, 1351.703
530.8389, 1361.261
531.3210, 1369.470
531.8032, 1356.813
532.2853, 1321.778
532.7673, 1293.643
533.2495, 1287.300
533.7316, 1286.481
534.2137, 1280.237
534.6958, 1257.227
535.1779, 1243.528
535.6600, 1245.308
536.1422, 1253.711
536.6243, 1251.045
537.1064, 1232.772
537.5885, 1214.835
538.0706, 1201.227
538.5527, 1191.915
539.0349, 1186.672
539.5170, 1185.882
539.9991, 1186.618
540.4812, 1186.393
540.9633, 1185.657
541.4454, 1187.021
541.9276, 1191.621
542.4097, 1195.373
542.8918, 1192.048
543.3739, 1184.252
543.8560, 1177.880
544.3381, 1178.281
544.8203, 1178.786
545.3024, 1172.041
545.7845, 1159.746
546.2666, 1152.821
546.7487, 1165.636
547.2308, 1177.886
547.7130, 1176.931
548.1951, 1154.746
548.6772, 1134.919
549.1593, 1118.821
549.6414, 1106.335
550.1235, 1097.295
550.6057, 1091.091
551.0878, 1090.127
551.5699, 1097.485
552.0520, 1109.809
552.5341, 1112.252
553.0162, 1102.879
553.4984, 1094.060
553.9805, 1095.200
554.4626, 1103.788
554.9447, 1103.378
555.4268, 1092.646
555.9089, 1081.896
556.3911, 1082.245
556.8732, 1090.120
557.3553, 1098.722
557.8374, 1109.151
558.3195, 1114.942
558.8016, 1107.039
559.2838, 1090.321
559.7659, 1076.261
560.2480, 1070.516
560.7301, 1067.893
561.2122, 1066.618
561.6943, 1066.635
562.1765, 1066.624
562.6586, 1064.459
563.1407, 1063.616
563.6228, 1066.795
564.1049, 1078.570
564.5870, 1084.004
565.0692, 1079.937
565.5513, 1071.901
566.0334, 1069.677
566.5155, 1074.233
566.9976, 1078.127
567.4797, 1078.894
567.9619, 1077.526
568.4440, 1075.498
568.9261, 1073.031
569.4082, 1074.426
569.8903, 1088.960
570.3724, 1107.236
570.8546, 1112.953
571.3367, 1102.935
571.8188, 1091.305
572.3009, 1090.636
572.7830, 1093.436
573.2651, 1090.565
573.7473, 1068.191
574.2294, 1051.591
574.7115, 1051.419
575.1936, 1063.332
575.6757, 1074.013
576.1578, 1082.890
576.6400, 1089.705
577.1221, 1094.813
577.6042, 1098.415
578.0863, 1096.630
578.5684, 1087.621
579.0505, 1077.094
579.5327, 1069.112
580.0148, 1063.731
580.4969, 1060.647
580.9790, 1060.730
581.4611, 1060.589
581.9432, 1053.780
582.4254, 1042.072
582.9075, 1031.991
583.3896, 1026.933
583.8717, 1024.114
584.3538, 1020.570
584.8359, 1016.622
585.3181, 1013.837
585.8002, 1015.937
586.2823, 1017.340
586.7644, 1013.958
587.2465, 1004.298
587.7286, 994.6378
588.2108, 983.1777
588.6929, 973.9977
589.1750, 971.1602
589.6571, 981.6153
590.1392, 985.3715
590.6213, 979.1331
591.1035, 966.5943
591.5856, 954.6079
592.0677, 942.5435
592.5498, 935.3491
593.0319, 937.9942
593.5140, 946.3707
593.9962, 943.4467
594.4783, 929.5391
594.9604, 917.2897
595.4425, 917.7527
595.9246, 925.5297
596.4067, 933.6949
596.8889, 942.0733
597.3710, 946.5581
597.8531, 940.4581
598.3352, 930.2959
598.8173, 923.7343
599.2994, 925.1214
599.7816, 927.9042
600.2637, 931.1703
600.7458, 934.7056
601.2279, 937.9634
601.7100, 941.6916
602.1921, 943.8134
602.6743, 942.3242
603.1564, 937.4092
603.6385, 940.1595
604.1206, 953.6602
604.6027, 964.5666
605.0848, 957.4796
605.5670, 936.2363
606.0491, 929.8629
606.5312, 943.1785
607.0133, 961.5353
607.4954, 970.2585
607.9775, 971.5298
608.4597, 969.8878
608.9418, 964.1566
609.4239, 959.2811
609.9060, 958.1102
610.3881, 960.3817
610.8702, 965.4283
611.3524, 977.3680
611.8345, 988.0363
612.3166, 993.4033
612.7987, 992.7407
613.2808, 993.5026
613.7629, 997.5341
614.2451, 1000.744
614.7272, 999.8365
615.2092, 993.5587
615.6913, 990.2172
616.1735, 990.8973
616.6556, 992.7963
617.1377, 990.0628
617.6198, 984.0947
618.1019, 985.1389
618.5840, 999.9174
619.0662, 1017.159
619.5483, 1020.589
620.0304, 1013.791
620.5125, 1008.327
620.9946, 1013.197
621.4767, 1018.982
621.9589, 1017.515
622.4410, 1008.832
622.9231, 1005.703
623.4052, 1016.996
623.8873, 1030.793
624.3694, 1039.818
624.8516, 1040.690
625.3337, 1045.329
625.8158, 1055.398
626.2979, 1067.303
626.7800, 1077.675
627.2621, 1086.773
627.7443, 1091.504
628.2264, 1090.092
628.7085, 1085.979
629.1906, 1085.318
629.6727, 1087.748
630.1548, 1091.512
630.6370, 1094.818
631.1191, 1099.635
631.6012, 1109.382
632.0833, 1123.332
632.5654, 1136.389
633.0475, 1147.002
633.5297, 1154.935
634.0118, 1158.750
634.4939, 1155.949
634.9760, 1157.939
635.4581, 1170.275
635.9402, 1184.672
636.4224, 1193.995
636.9045, 1194.574
637.3866, 1200.610
637.8687, 1215.368
638.3508, 1233.321
638.8329, 1244.201
639.3151, 1248.225
639.7972, 1252.739
640.2793, 1260.561
640.7614, 1270.225
641.2435, 1278.755
641.7256, 1286.713
642.2078, 1296.492
642.6899, 1308.614
643.1720, 1323.752
643.6541, 1343.134
644.1362, 1367.202
644.6183, 1391.165
645.1005, 1410.448
645.5826, 1431.592
646.0647, 1459.927
646.5468, 1499.617
647.0289, 1536.397
647.5110, 1566.218
647.9932, 1597.031
648.4753, 1639.083
648.9574, 1693.515
649.4395, 1748.382
649.9216, 1802.234
650.4037, 1853.066
650.8859, 1890.889
651.3680, 1919.238
651.8501, 1956.065
652.3322, 2011.456
652.8143, 2077.702
653.2964, 2149.127
653.7786, 2225.327
654.2607, 2305.714
654.7428, 2392.210
655.2249, 2481.181
655.7070, 2566.781
656.1891, 2642.730
656.6713, 2740.312
657.1534, 2870.545
657.6355, 3012.147
658.1176, 3148.250
658.5997, 3276.187
659.0818, 3406.443
659.5640, 3534.266
660.0461, 3676.494
660.5282, 3863.321
661.0103, 4087.792
661.4924, 4311.058
661.9745, 4516.197
662.4567, 4721.152
662.9388, 4940.551
663.4209, 5178.301
663.9030, 5440.152
664.3851, 5748.437
664.8672, 6066.898
665.3494, 6370.279
665.8315, 6661.088
666.3136, 6977.674
666.7957, 7335.532
667.2778, 7710.041
667.7599, 8091.160
668.2421, 8482.632
668.7242, 8864.722
669.2063, 9241.495
669.6884, 9596.945
670.1705, 9931.356
670.6526, 10236.57
671.1348, 10475.93
671.6169, 10651.89
672.0990, 10733.97
672.5811, 10691.29
673.0632, 10532.62
673.5453, 10271.32
674.0275, 9891.011
674.5096, 9438.974
674.9917, 8909.854
675.4738, 8328.934
675.9559, 7737.135
676.4380, 7105.152
676.9202, 6514.571
677.4023, 5983.721
677.8844, 5512.128
678.3665, 5065.507
678.8486, 4639.892
679.3307, 4259.937
679.8129, 3951.553
680.2950, 3707.419
680.7771, 3463.925
681.2592, 3222.156
681.7413, 3005.710
682.2234, 2846.532
682.7056, 2723.108
683.1877, 2610.319
683.6698, 2503.990
684.1519, 2401.076
684.6340, 2291.898
685.1161, 2187.882
685.5983, 2100.483
686.0804, 2044.100
686.5625, 1987.313
687.0446, 1924.870
687.5267, 1862.438
688.0089, 1809.869
688.4910, 1769.762
688.9731, 1727.962
689.4552, 1679.650
689.9373, 1629.622
690.4194, 1588.309
690.9016, 1555.389
691.3837, 1527.695
691.8658, 1503.822
692.3479, 1483.470
692.8300, 1470.107
693.3121, 1461.582
693.7943, 1445.719
694.2764, 1405.078
694.7585, 1364.310
695.2406, 1339.320
695.7227, 1334.630
696.2048, 1324.599
696.6870, 1302.780
697.1691, 1281.234
697.6511, 1269.084
698.1332, 1269.375
698.6154, 1261.584
699.0975, 1243.754
699.5796, 1222.989
700.0617, 1206.392
700.5438, 1193.686
701.0259, 1184.765
701.5081, 1181.191
701.9902, 1176.771
702.4723, 1161.894
702.9544, 1142.876
703.4365, 1130.424
703.9186, 1136.127
704.4008, 1139.966
704.8829, 1134.879
705.3650, 1123.251
705.8471, 1112.616
706.3292, 1103.488
706.8113, 1094.671
707.2935, 1085.503
707.7756, 1076.491
708.2577, 1071.553
708.7398, 1071.079
709.2219, 1068.381
709.7040, 1055.603
710.1862, 1039.168
710.6683, 1032.531
711.1504, 1035.438
711.6325, 1040.347
712.1146, 1048.122
712.5967, 1052.021
713.0789, 1043.448
713.5610, 1016.930
714.0431, 999.7291
714.5252, 1002.263
715.0073, 1012.335
715.4894, 1022.390
715.9716, 1032.579
716.4537, 1043.043
716.9358, 1054.907
717.4179, 1064.534
717.9000, 1065.010
718.3821, 1057.957
718.8643, 1053.957
719.3464, 1056.349
719.8285, 1059.731
720.3106, 1056.781
720.7927, 1050.693
721.2748, 1047.368
721.7570, 1051.388
722.2391, 1056.250
722.7212, 1059.616
723.2033, 1062.012
723.6854, 1065.122
724.1675, 1068.073
724.6497, 1073.479
725.1318, 1084.355
725.6139, 1097.987
726.0960, 1099.688
726.5781, 1088.291
727.0602, 1080.284
727.5424, 1086.073
728.0245, 1101.065
728.5066, 1118.790
728.9887, 1138.504
729.4708, 1153.310
729.9529, 1153.733
730.4351, 1151.569
730.9172, 1155.357
731.3993, 1166.402
731.8814, 1180.071
732.3635, 1197.992
732.8456, 1216.312
733.3278, 1232.099
733.8099, 1243.696
734.2920, 1260.568
734.7741, 1284.334
735.2562, 1309.343
735.7383, 1328.916
736.2205, 1344.410
736.7026, 1362.255
737.1847, 1383.884
737.6668, 1405.513
738.1489, 1427.846
738.6310, 1446.533
739.1132, 1454.831
739.5953, 1439.055
740.0774, 1429.446
740.5595, 1440.371
741.0416, 1460.802
741.5237, 1472.448
742.0059, 1471.553
742.4880, 1469.639
742.9701, 1467.394
743.4522, 1466.184
743.9343, 1469.232
744.4164, 1476.410
744.8986, 1486.789
745.3807, 1503.100
745.8628, 1519.241
746.3449, 1525.529
746.8270, 1524.194
747.3091, 1522.308
747.7913, 1527.302
748.2734, 1528.832
748.7555, 1523.362
749.2376, 1510.387
749.7197, 1488.123
750.2018, 1454.756
750.6840, 1414.725
751.1661, 1363.777
751.6482, 1304.039
752.1303, 1272.682
752.6124, 1271.266
753.0945, 1277.484
753.5767, 1280.000
754.0588, 1277.861
754.5409, 1268.518
755.0230, 1251.804
755.5051, 1231.945
755.9872, 1207.848
756.4694, 1183.895
756.9515, 1163.232
757.4336, 1146.622
757.9157, 1131.445
758.3978, 1116.482
758.8799, 1103.830
759.3621, 1096.034
759.8442, 1094.298
760.3263, 1087.192
760.8084, 1072.385
761.2905, 1059.711
761.7726, 1063.824
762.2548, 1078.263
762.7369, 1088.071
763.2190, 1090.479
763.7011, 1086.906
764.1832, 1072.015
764.6653, 1054.230
765.1475, 1043.609
765.6296, 1049.546
766.1117, 1053.096
766.5938, 1051.716
767.0759, 1047.974
767.5580, 1045.620
768.0402, 1044.921
768.5223, 1043.891
769.0044, 1042.321
769.4865, 1039.883
769.9686, 1035.483
770.4507, 1029.689
770.9329, 1024.292
771.4150, 1020.211
771.8971, 1016.627
772.3792, 1011.888
772.8613, 1007.332
773.3434, 1005.936
773.8256, 1011.756
774.3077, 1017.004
774.7898, 1020.884
775.2719, 1023.045
775.7540, 1021.674
776.2361, 1016.159
776.7183, 1010.642
777.2004, 1005.044
777.6825, 1001.654
778.1646, 1009.196
778.6467, 1025.037
779.1288, 1036.528
779.6109, 1036.245
780.0930, 1029.641
780.5751, 1017.038
781.0573, 999.9511
781.5394, 988.1724
782.0215, 983.9216
782.5036, 985.4608
782.9857, 995.4152
783.4678, 1012.248
783.9500, 1017.932
784.4321, 1010.672
784.9142, 1003.206
785.3963, 1003.922
785.8784, 1009.868
786.3605, 1014.398
786.8427, 1017.414
787.3248, 1018.740
787.8069, 1015.069
788.2890, 1012.048
788.7711, 1015.750
789.2532, 1027.658
789.7354, 1032.708
790.2175, 1023.248
790.6996, 1013.436
791.1817, 1010.275
791.6638, 1014.042
792.1459, 1019.863
792.6281, 1028.583
793.1102, 1033.733
793.5923, 1026.160
794.0744, 1012.270
794.5565, 1005.530
795.0386, 1007.082
795.5208, 1010.745
796.0029, 1014.929
796.4850, 1018.279
796.9671, 1018.817
797.4492, 1013.594
797.9313, 1015.571
798.4135, 1031.097
798.8956, 1045.582
799.3777, 1044.456
799.8598, 1027.160
800.3419, 1023.469
800.8240, 1036.169
801.3062, 1051.431
801.7883, 1056.891
802.2704, 1055.252
802.7525, 1049.840
803.2346, 1040.357
803.7167, 1031.778
804.1989, 1021.526
804.6810, 1016.190
805.1631, 1023.627
805.6452, 1056.505
806.1273, 1071.483
806.6094, 1061.678
807.0916, 1045.589
807.5737, 1042.531
808.0558, 1051.356
808.5379, 1062.863
809.0200, 1076.988
809.5021, 1087.629
809.9843, 1086.149
810.4664, 1078.749
810.9485, 1073.304
811.4306, 1071.501
811.9127, 1071.977
812.3948, 1075.075
812.8770, 1079.922
813.3591, 1086.061
813.8412, 1094.873
814.3233, 1099.944
814.8054, 1099.963
815.2875, 1098.511
815.7697, 1100.351
816.2518, 1104.601
816.7339, 1107.606
817.2160, 1108.050
817.6981, 1109.604
818.1802, 1116.460
818.6624, 1125.541
819.1445, 1133.191
819.6266, 1135.561
820.1087, 1141.918
820.5908, 1158.828
821.0729, 1174.803
821.5551, 1173.363
822.0372, 1151.843
822.5193, 1142.218
823.0014, 1150.417
823.4835, 1164.000
823.9656, 1168.457
824.4478, 1166.601
824.9299, 1163.411
825.4120, 1158.025
825.8941, 1156.871
826.3762, 1168.683
826.8583, 1183.977
827.3405, 1191.336
827.8226, 1186.993
828.3047, 1180.077
828.7868, 1168.791
829.2689, 1158.256
829.7510, 1155.453
830.2332, 1159.798
830.7153, 1167.887
831.1974, 1180.549
831.6795, 1190.798
832.1616, 1189.523
832.6437, 1181.975
833.1259, 1174.522
833.6080, 1164.747
834.0901, 1162.746
834.5722, 1180.541
835.0543, 1201.288
835.5364, 1206.825
836.0186, 1192.114
836.5007, 1184.561
836.9828, 1187.945
837.4649, 1194.264
837.9470, 1193.611
838.4291, 1187.858
838.9113, 1181.284
839.3934, 1174.273
839.8755, 1168.502
840.3576, 1163.631
840.8397, 1161.344
841.3218, 1163.647
841.8040, 1176.667
842.2861, 1184.335
842.7682, 1184.860
843.2503, 1182.377
843.7324, 1181.796
844.2145, 1182.840
844.6967, 1179.964
845.1788, 1171.535
845.6609, 1165.076
846.1430, 1172.326
846.6251, 1184.352
847.1072, 1188.812
847.5894, 1180.341
848.0715, 1172.672
848.5536, 1169.303
849.0357, 1168.534
849.5178, 1169.330
849.9999, 1172.141
850.4821, 1174.842
850.9642, 1177.544
851.4463, 1179.670
851.9284, 1178.421
852.4105, 1176.487
852.8926, 1181.721
853.3748, 1196.011
853.8569, 1208.664
854.3390, 1213.516
854.8211, 1213.509
855.3032, 1210.369
855.7853, 1202.279
856.2675, 1197.318
856.7496, 1196.051
857.2317, 1196.949
857.7138, 1198.836
858.1959, 1201.763
858.6780, 1207.548
859.1602, 1216.372
859.6423, 1223.624
860.1244, 1225.808
860.6065, 1224.377
861.0886, 1218.637
861.5707, 1207.594
862.0528, 1203.321
862.5349, 1218.367
863.0170, 1231.795
863.4991, 1232.407
863.9813, 1219.543
864.4634, 1212.727
864.9455, 1212.226
865.4276, 1215.066
865.9097, 1221.426
866.3918, 1228.723
866.8740, 1232.106
867.3561, 1231.754
867.8382, 1231.510
868.3203, 1233.996
868.8024, 1236.449
869.2845, 1236.866
869.7667, 1235.418
870.2488, 1235.363
870.7309, 1236.289
871.2130, 1240.105
871.6951, 1250.190
872.1772, 1263.012
872.6594, 1267.145
873.1415, 1263.622
873.6236, 1258.495
874.1057, 1255.108
874.5878, 1251.512
875.0699, 1242.483
875.5521, 1230.528
876.0342, 1231.865
876.5163, 1254.416
876.9984, 1278.391
877.4805, 1302.174
877.9626, 1321.645
878.4448, 1317.441
878.9269, 1292.492
879.4090, 1274.294
879.8911, 1279.123
880.3732, 1290.976
880.8553, 1293.719
881.3375, 1291.600
881.8196, 1294.100
882.3017, 1308.149
882.7838, 1322.048
883.2659, 1335.966
883.7480, 1347.259
884.2302, 1349.148
884.7123, 1341.096
885.1944, 1334.521
885.6765, 1332.167
886.1586, 1332.125
886.6407, 1332.269
887.1229, 1332.838
887.6050, 1334.010
888.0871, 1333.448
888.5692, 1337.524
889.0513, 1356.557
889.5334, 1376.313
890.0156, 1380.149
890.4977, 1363.206
890.9798, 1351.075
891.4619, 1345.647
891.9440, 1345.984
892.4261, 1357.128
892.9083, 1371.846
893.3904, 1373.164
893.8725, 1355.343
894.3546, 1340.871
894.8367, 1344.216
895.3188, 1353.697
895.8010, 1360.682
896.2831, 1365.499
896.7652, 1363.548
897.2473, 1351.130
897.7294, 1342.808
898.2115, 1357.579
898.6937, 1385.009
899.1758, 1388.243
899.6579, 1367.186
900.1400, 1349.786
900.6221, 1361.847
901.1042, 1378.086
901.5864, 1378.885
902.0685, 1362.394
902.5506, 1357.839
903.0327, 1369.245
903.5148, 1384.883
903.9969, 1401.871
904.4791, 1418.388
904.9612, 1427.278
905.4433, 1429.017
905.9254, 1426.870
906.4075, 1417.420
906.8896, 1409.432
907.3718, 1412.612
907.8539, 1423.015
908.3360, 1425.926
908.8181, 1410.058
909.3002, 1402.749
909.7823, 1410.981
910.2645, 1428.933
910.7466, 1445.294
911.2287, 1460.040
911.7108, 1473.206
912.1929, 1485.483
912.6750, 1494.973
913.1572, 1495.270
913.6393, 1493.224
914.1214, 1498.762
914.6035, 1529.851
915.0856, 1545.020
915.5677, 1532.120
916.0499, 1514.926
916.5320, 1523.869
917.0141, 1557.102
917.4962, 1583.009
917.9783, 1597.182
918.4604, 1609.421
918.9426, 1627.897
919.4247, 1649.695
919.9068, 1672.066
920.3889, 1694.581
920.8710, 1717.552
921.3531, 1739.984
921.8353, 1764.066
922.3174, 1792.299
922.7995, 1824.164
923.2816, 1850.275
923.7637, 1870.359
924.2458, 1891.419
924.7280, 1920.768
925.2101, 1951.746
925.6922, 1980.648
926.1743, 2006.192
926.6564, 2022.120
927.1385, 2006.395
927.6207, 2005.612
928.1028, 2040.099
928.5849, 2095.533
929.0670, 2122.425
929.5491, 2121.289
930.0313, 2111.884
930.5134, 2100.207
930.9955, 2085.864
931.4776, 2070.500
931.9597, 2051.506
932.4418, 2023.792
932.9240, 1974.409
933.4061, 1931.824
933.8882, 1903.741
934.3703, 1879.228
934.8524, 1839.479
935.3345, 1785.166
935.8167, 1748.539
936.2988, 1736.133
936.7809, 1730.544
937.2630, 1718.402
937.7451, 1701.074
938.2272, 1677.031
938.7094, 1641.100
939.1915, 1621.636
939.6736, 1638.672
940.1557, 1653.408
940.6378, 1637.625
941.1199, 1592.875
941.6021, 1582.775
942.0842, 1607.109
942.5663, 1631.108
943.0484, 1626.038
943.5305, 1612.570
944.0126, 1613.022
944.4947, 1624.927
944.9768, 1629.892
945.4589, 1614.555
945.9410, 1603.802
946.4232, 1606.405
946.9053, 1615.315
947.3874, 1606.967
947.8695, 1583.354
948.3516, 1568.135
948.8337, 1574.244
949.3159, 1582.707
949.7980, 1572.326
950.2801, 1553.387
950.7622, 1541.028
951.2443, 1545.740
951.7264, 1547.294
952.2086, 1545.264
952.6907, 1539.693
953.1728, 1529.260
953.6549, 1514.830
954.1370, 1501.460
954.6191, 1489.532
955.1013, 1480.564
955.5834, 1477.446
956.0655, 1476.675
956.5476, 1476.452
957.0297, 1477.033
957.5118, 1471.080
957.9940, 1452.509
958.4761, 1439.243
958.9582, 1441.692
959.4403, 1455.625
959.9224, 1467.312
960.4045, 1476.478
960.8867, 1481.109
961.3688, 1476.138
961.8509, 1470.511
962.3330, 1470.310
962.8151, 1473.513
963.2972, 1474.536
963.7794, 1472.377
964.2615, 1470.374
964.7436, 1469.977
965.2257, 1467.995
965.7078, 1455.198
966.1899, 1437.016
966.6721, 1429.794
967.1542, 1439.082
967.6363, 1450.408
968.1184, 1455.528
968.6005, 1459.490
969.0826, 1468.402
969.5648, 1485.696
970.0469, 1485.658
970.5290, 1462.993
971.0111, 1446.900
971.4932, 1472.257
971.9753, 1513.559
972.4575, 1514.509
972.9396, 1481.492
973.4217, 1457.179
973.9038, 1472.447
974.3859, 1487.952
974.8680, 1486.633
975.3502, 1474.541
975.8323, 1468.580
976.3144, 1469.002
976.7965, 1473.196
977.2786, 1482.045
977.7607, 1490.668
978.2429, 1491.475
978.7250, 1488.080
979.2071, 1486.171
979.6892, 1487.377
980.1713, 1490.400
980.6534, 1499.946
981.1356, 1505.912
981.6177, 1495.403
982.0998, 1468.611
982.5819, 1463.717
983.0640, 1482.218
983.5461, 1500.712
984.0283, 1498.258
984.5104, 1490.043
984.9925, 1490.927
985.4746, 1500.685
985.9567, 1504.797
986.4388, 1498.493
986.9210, 1492.441
987.4031, 1488.940
987.8852, 1488.357
988.3673, 1494.260
988.8494, 1504.603
989.3315, 1510.372
989.8137, 1506.770
990.2958, 1500.709
990.7779, 1489.785
991.2600, 1482.204
991.7421, 1490.465
992.2242, 1524.881
992.7064, 1546.069
993.1885, 1551.557
993.6706, 1549.835
994.1527, 1542.040
994.6348, 1535.178
995.1169, 1548.170
995.5991, 1580.747
996.0812, 1607.631
996.5633, 1615.015
997.0454, 1614.960
997.5275, 1611.763
998.0096, 1605.978
998.4918, 1597.729
998.9739, 1586.363
999.4560, 1583.542
999.9381, 1596.890
1000.420, 1614.530
1000.902, 1620.073
1001.384, 1619.729
1001.867, 1623.922
1002.349, 1641.416
1002.831, 1653.586
1003.313, 1654.597
1003.795, 1655.842
1004.277, 1671.701
1004.759, 1699.589
1005.241, 1713.504
1005.724, 1712.215
1006.206, 1710.408
1006.688, 1716.799
1007.170, 1728.335
1007.652, 1744.512
1008.134, 1764.890
1008.616, 1782.576
1009.098, 1796.913
1009.580, 1810.207
1010.063, 1823.181
1010.545, 1835.449
1011.027, 1844.120
1011.509, 1851.717
1011.991, 1864.621
1012.473, 1885.349
1012.955, 1911.239
1013.437, 1949.352
1013.919, 1986.107
1014.402, 2007.798
1014.884, 2012.167
1015.366, 2017.930
1015.848, 2024.685
1016.330, 2042.162
1016.812, 2088.801
1017.294, 2142.747
1017.776, 2178.531
1018.259, 2197.277
1018.741, 2221.437
1019.223, 2255.778
1019.705, 2295.979
1020.187, 2341.927
1020.669, 2392.375
1021.151, 2445.947
1021.633, 2502.472
1022.115, 2561.780
1022.598, 2625.183
1023.080, 2687.351
1023.562, 2745.742
1024.044, 2800.604
1024.526, 2850.817
1025.008, 2895.174
1025.490, 2943.233
1025.972, 2996.115
1026.454, 3047.996
1026.937, 3104.649
1027.419, 3152.655
1027.901, 3164.357
1028.383, 3144.721
1028.865, 3118.336
1029.347, 3100.161
1029.829, 3068.490
1030.311, 3018.819
1030.794, 2953.503
1031.276, 2870.331
1031.758, 2770.995
1032.240, 2681.249
1032.722, 2607.561
1033.204, 2538.185
1033.686, 2458.785
1034.168, 2382.016
1034.651, 2321.139
1035.133, 2281.875
1035.615, 2233.698
1036.097, 2169.648
1036.579, 2116.787
1037.061, 2095.133
1037.543, 2091.351
1038.025, 2075.923
1038.507, 2051.934
1038.990, 2029.360
1039.472, 2012.177
1039.954, 1997.491
1040.436, 1984.299
1040.918, 1973.546
1041.400, 1966.103
1041.882, 1961.945
1042.364, 1966.469
1042.846, 1980.961
1043.329, 1994.585
1043.811, 1991.668
1044.293, 1987.842
1044.775, 1998.618
1045.257, 2025.756
1045.739, 2050.080
1046.221, 2068.416
1046.703, 2090.540
1047.186, 2120.526
1047.668, 2155.815
1048.150, 2194.694
1048.632, 2233.750
1049.114, 2263.076
1049.596, 2270.130
1050.078, 2283.958
1050.560, 2318.938
1051.042, 2361.708
1051.525, 2401.676
1052.007, 2438.440
1052.489, 2479.093
1052.971, 2523.679
1053.453, 2572.981
1053.935, 2637.049
1054.417, 2698.075
1054.899, 2739.082
1055.381, 2762.578
1055.864, 2783.753
1056.346, 2806.135
1056.828, 2820.900
1057.310, 2825.012
1057.792, 2823.866
1058.274, 2830.579
1058.756, 2837.329
1059.238, 2822.999
1059.721, 2778.645
1060.203, 2744.596
1060.685, 2756.948
1061.167, 2762.934
1061.649, 2728.898
1062.131, 2661.538
1062.613, 2625.961
1063.095, 2620.282
1063.578, 2622.524
1064.060, 2625.787
1064.542, 2628.109
1065.024, 2620.763
1065.506, 2613.579
1065.988, 2627.207
1066.470, 2680.798
1066.952, 2701.849
1067.434, 2681.905
1067.917, 2648.307
1068.399, 2626.542
1068.881, 2610.302
1069.363, 2592.721
1069.845, 2571.958
1070.327, 2537.426
1070.809, 2474.963
1071.291, 2409.729
1071.773, 2345.863
1072.255, 2286.128
1072.738, 2242.319
1073.220, 2211.404
1073.702, 2179.683
1074.184, 2143.028
1074.666, 2107.017
1075.148, 2074.206
1075.630, 2044.260
1076.112, 2016.618
1076.595, 1991.161
1077.077, 1971.021
1077.559, 1957.461
1078.041, 1940.200
1078.523, 1908.091
1079.005, 1873.780
1079.487, 1855.272
1079.969, 1847.194
1080.452, 1837.796
1080.934, 1819.531
1081.416, 1806.583
1081.898, 1799.828
1082.380, 1797.864
1082.862, 1801.437
1083.344, 1808.262
1083.826, 1812.747
1084.308, 1814.214
1084.791, 1809.837
1085.273, 1791.701
1085.755, 1774.387
1086.237, 1764.058
1086.719, 1758.926
1087.201, 1754.898
1087.683, 1751.986
1088.165, 1749.112
1088.647, 1746.279
1089.130, 1742.526
1089.612, 1733.239
1090.094, 1725.068
1090.576, 1727.172
1091.058, 1742.755
1091.540, 1745.872
1092.022, 1733.779
1092.504, 1720.968
1092.987, 1715.208
1093.469, 1712.714
1093.951, 1705.799
1094.433, 1697.275
1094.915, 1693.658
1095.397, 1703.549
1095.879, 1708.177
1096.361, 1703.180
1096.844, 1697.309
1097.326, 1701.057
1097.808, 1711.238
1098.290, 1713.917
1098.772, 1709.257
1099.254, 1703.973
1099.736, 1699.812
1100.218, 1698.237
1100.700, 1701.816
1101.182, 1707.632
1101.665, 1708.947
1102.147, 1705.788
1102.629, 1704.111
1103.111, 1704.855
1103.593, 1708.000
1104.075, 1718.525
1104.557, 1727.787
1105.039, 1725.009
1105.522, 1708.733
1106.004, 1704.276
1106.486, 1714.560
1106.968, 1723.332
1107.450, 1724.069
1107.932, 1720.139
1108.414, 1712.944
1108.896, 1705.770
1109.379, 1705.140
1109.861, 1718.496
1110.343, 1725.171
1110.825, 1721.634
1111.307, 1715.664
1111.789, 1712.481
1112.271, 1711.399
1112.753, 1710.427
1113.235, 1709.480
1113.718, 1708.200
1114.200, 1705.896
1114.682, 1703.789
1115.164, 1701.260
1115.646, 1699.816
1116.128, 1704.992
1116.610, 1715.424
1117.092, 1706.827
1117.574, 1676.898
1118.057, 1652.303
1118.539, 1654.592
1119.021, 1666.633
1119.503, 1682.392
1119.985, 1698.668
1120.467, 1704.045
1120.949, 1697.776
1121.431, 1687.055
1121.914, 1671.383
1122.396, 1660.136
1122.878, 1668.049
1123.360, 1683.343
1123.842, 1693.437
1124.324, 1695.846
1124.806, 1694.386
1125.288, 1686.958
1125.771, 1683.011
1126.253, 1690.095
1126.735, 1698.842
1127.217, 1687.851
1127.699, 1666.704
1128.181, 1654.754
1128.663, 1663.785
1129.145, 1670.167
1129.627, 1670.761
1130.109, 1669.453
1130.592, 1668.711
1131.074, 1668.505
1131.556, 1669.179
1132.038, 1670.460
1132.520, 1670.999
1133.002, 1671.856
1133.484, 1669.679
1133.966, 1662.019
1134.449, 1652.336
1134.931, 1641.324
1135.413, 1630.504
1135.895, 1642.431
1136.377, 1678.229
1136.859, 1702.057
1137.341, 1670.713
1137.823, 1638.023
1138.306, 1644.064
1138.788, 1673.180
1139.270, 1681.322
1139.752, 1667.354
1140.234, 1655.415
1140.716, 1650.011
1141.198, 1648.543
1141.680, 1650.739
1142.162, 1654.062
1142.645, 1655.624
1143.127, 1655.270
1143.609, 1658.662
1144.091, 1667.333
1144.573, 1671.496
1145.055, 1666.191
1145.537, 1657.615
1146.019, 1653.030
1146.501, 1650.989
1146.984, 1649.114
1147.466, 1645.719
1147.948, 1647.482
1148.430, 1656.472
1148.912, 1664.668
1149.394, 1665.624
1149.876, 1663.679
1150.358, 1670.187
1150.840, 1680.656
1151.323, 1684.107
1151.805, 1666.936
1152.287, 1657.212
1152.769, 1658.420
1153.251, 1664.751
1153.733, 1672.914
1154.215, 1681.613
1154.697, 1686.591
1155.180, 1688.133
1155.662, 1688.385
1156.144, 1690.234
1156.626, 1687.616
1157.108, 1673.935
1157.590, 1661.457
1158.072, 1673.393
1158.554, 1702.879
1159.036, 1712.265
1159.519, 1698.407
1160.001, 1684.447
1160.483, 1686.113
1160.965, 1688.550
1161.447, 1684.367
1161.929, 1676.254
1162.411, 1668.939
1162.893, 1662.874
1163.375, 1663.957
1163.858, 1674.354
1164.340, 1684.964
1164.822, 1690.910
1165.304, 1693.340
1165.786, 1692.267
1166.268, 1688.494
1166.750, 1685.354
1167.232, 1682.861
1167.715, 1683.264
1168.197, 1689.255
1168.679, 1692.670
1169.161, 1678.853
1169.643, 1663.781
1170.125, 1665.930
1170.607, 1686.324
1171.089, 1704.433
1171.572, 1720.555
1172.054, 1731.194
1172.536, 1735.784
1173.018, 1732.980
1173.500, 1712.652
1173.982, 1687.578
1174.464, 1679.057
1174.946, 1695.879
1175.428, 1701.913
1175.911, 1695.403
1176.393, 1690.133
1176.875, 1695.954
1177.357, 1707.875
1177.839, 1725.867
1178.321, 1744.594
1178.803, 1750.429
1179.285, 1735.229
1179.767, 1723.874
1180.250, 1717.620
1180.732, 1714.532
1181.214, 1714.237
1181.696, 1715.097
1182.178, 1716.158
1182.660, 1716.526
1183.142, 1712.553
1183.624, 1700.574
1184.107, 1690.440
1184.589, 1682.631
1185.071, 1679.088
1185.553, 1683.932
1186.035, 1693.831
1186.517, 1704.500
1186.999, 1715.311
1187.481, 1723.579
1187.964, 1724.694
1188.446, 1732.710
1188.928, 1754.978
1189.410, 1775.764
1189.892, 1764.614
1190.374, 1737.433
1190.856, 1723.438
1191.338, 1727.170
1191.820, 1729.192
1192.302, 1724.191
1192.785, 1718.861
1193.267, 1714.917
1193.749, 1712.092
1194.231, 1709.050
1194.713, 1706.969
1195.195, 1709.326
1195.677, 1718.120
1196.159, 1723.547
1196.642, 1720.049
1197.124, 1718.630
1197.606, 1725.218
1198.088, 1735.516
1198.570, 1739.954
1199.052, 1739.595
1199.534, 1736.677
1200.016, 1730.744
1200.499, 1725.391
1200.981, 1721.273
1201.463, 1717.842
1201.945, 1712.881
1202.427, 1709.448
1202.909, 1721.709
1203.391, 1743.599
1203.873, 1756.403
1204.355, 1745.782
1204.838, 1740.441
1205.320, 1749.163
1205.802, 1759.172
1206.284, 1762.306
1206.766, 1759.221
1207.248, 1748.582
1207.730, 1733.474
1208.212, 1724.901
1208.694, 1727.623
1209.177, 1738.673
1209.659, 1764.522
1210.141, 1787.004
1210.623, 1786.234
1211.105, 1768.517
1211.587, 1753.885
1212.069, 1743.781
1212.551, 1742.653
1213.034, 1759.533
1213.516, 1776.659
1213.998, 1793.757
1214.480, 1805.043
1214.962, 1800.594
1215.444, 1785.269
1215.926, 1775.197
1216.408, 1770.453
1216.891, 1765.758
1217.373, 1751.921
1217.855, 1748.833
1218.337, 1766.036
1218.819, 1786.987
1219.301, 1784.971
1219.783, 1769.779
1220.265, 1773.003
1220.747, 1795.087
1221.229, 1812.711
1221.712, 1817.810
1222.194, 1812.952
1222.676, 1793.467
1223.158, 1772.618
1223.640, 1772.500
1224.122, 1786.392
1224.604, 1799.368
1225.086, 1809.464
1225.569, 1811.869
1226.051, 1790.303
1226.533, 1781.454
1227.015, 1798.509
1227.497, 1824.770
1227.979, 1830.660
1228.461, 1824.023
1228.943, 1824.081
1229.426, 1833.886
1229.908, 1837.676
1230.390, 1820.830
1230.872, 1814.687
1231.354, 1832.590
1231.836, 1857.916
1232.318, 1858.851
1232.800, 1844.648
1233.282, 1832.843
1233.765, 1826.097
1234.247, 1826.653
1234.729, 1840.271
1235.211, 1850.038
1235.693, 1849.481
1236.175, 1843.756
1236.657, 1841.159
1237.139, 1840.745
1237.621, 1840.018
1238.104, 1837.666
1238.586, 1842.524
1239.068, 1862.099
1239.550, 1870.872
1240.032, 1854.266
1240.514, 1830.379
1240.996, 1832.614
1241.478, 1848.811
1241.960, 1859.237
1242.443, 1858.352
1242.925, 1861.755
1243.407, 1872.520
1243.889, 1879.730
1244.371, 1876.985
1244.853, 1871.092
1245.335, 1872.214
1245.817, 1876.957
1246.300, 1881.555
1246.782, 1887.594
1247.264, 1879.639
1247.746, 1853.462
1248.228, 1831.962
1248.710, 1824.992
1249.192, 1829.760
1249.674, 1854.589
1250.156, 1883.603
1250.639, 1890.731
1251.121, 1867.077
1251.603, 1864.617
1252.085, 1886.185
1252.567, 1902.895
1253.049, 1899.596
1253.531, 1886.635
1254.013, 1867.032
1254.495, 1848.104
1254.978, 1840.185
1255.460, 1844.079
1255.942, 1852.092
1256.424, 1864.323
1256.906, 1872.201
1257.388, 1866.137
1257.870, 1861.368
1258.352, 1873.523
1258.835, 1891.084
1259.317, 1900.432
1259.799, 1901.218
1260.281, 1900.963
1260.763, 1899.744
1261.245, 1897.982
1261.727, 1898.352
1262.209, 1895.044
1262.692, 1876.253
1263.174, 1859.348
1263.656, 1863.684
1264.138, 1887.697
1264.620, 1894.925
1265.102, 1888.157
1265.584, 1885.243
1266.066, 1901.724
1266.548, 1914.585
1267.031, 1911.304
1267.513, 1905.363
1267.995, 1907.420
1268.477, 1916.081
1268.959, 1925.048
1269.441, 1933.303
1269.923, 1936.599
1270.405, 1927.606
1270.887, 1921.274
1271.370, 1920.569
1271.852, 1921.705
1272.334, 1921.513
1272.816, 1920.833
1273.298, 1924.628
1273.780, 1930.154
1274.262, 1929.182
1274.744, 1909.476
1275.227, 1899.071
1275.709, 1901.753
1276.191, 1907.048
1276.673, 1902.658
1277.155, 1897.957
1277.637, 1916.413
1278.119, 1946.416
1278.601, 1959.188
1279.083, 1939.716
1279.566, 1924.274
1280.048, 1913.175
1280.530, 1908.164
1281.012, 1914.736
1281.494, 1924.345
1281.976, 1929.520
1282.458, 1930.297
1282.940, 1925.962
1283.422, 1913.708
1283.905, 1910.706
1284.387, 1917.617
1284.869, 1927.807
1285.351, 1941.472
1285.833, 1951.938
1286.315, 1950.536
1286.797, 1944.864
1287.279, 1946.771
1287.762, 1956.836
1288.244, 1958.467
1288.726, 1952.285
1289.208, 1948.912
1289.690, 1959.479
1290.172, 1968.341
1290.654, 1968.737
1291.136, 1963.376
1291.619, 1949.526
1292.101, 1931.514
1292.583, 1939.006
1293.065, 1966.905
1293.547, 1989.889
1294.029, 1995.189
1294.511, 1995.469
1294.993, 1992.231
1295.475, 1987.058
1295.958, 1984.238
1296.440, 1983.781
##END=



