##NAMES=Actinolite
##RRUFFID=R060045
##IDEAL CHEMISTRY=Ca_2_(Mg_4.5-2.5_Fe^2+^_0.5-2.5_)Si_8_O_22_(OH)_2_
##LOCALITY=Colorado, USA
##OWNER=RRUFF
##SOURCE=University of Arizona Mineral Museum
##DESCRIPTION=Green prismatic crystals in a radial arrangement
##STATUS=The identification of this mineral has been confirmed by X-ray diffraction and chemical analysis
##URL=rruff.info/R060045
##MEASURED CHEMISTRY=(Ca_1.99_Na_0.01_)_Σ=2_(Mg_4.20_Fe^2+^_0.59_Al_0.09_Fe^3+^_0.08_Mn_0.02_Ti_0.01_)_Σ=5_(Si_7.82_Al_0.18_)_Σ=8_O_22_(OH)_2_
143.1459, 267.0518
143.6280, 267.4473
144.1102, 267.3849
144.5923, 267.0968
145.0744, 266.9737
145.5565, 267.2710
146.0386, 267.8486
146.5207, 268.3031
147.0029, 268.6319
147.4850, 268.8110
147.9671, 268.6934
148.4492, 268.4273
148.9313, 268.3280
149.4134, 268.6519
149.8955, 269.4088
150.3777, 270.2174
150.8598, 271.2356
151.3419, 272.1712
151.8240, 272.8796
152.3061, 273.3973
152.7882, 273.8647
153.2704, 274.4195
153.7525, 275.0554
154.2346, 275.8251
154.7167, 276.7779
155.1988, 277.8024
155.6809, 278.9873
156.1631, 280.2808
156.6452, 281.3859
157.1273, 281.8966
157.6094, 281.5822
158.0915, 281.0157
158.5736, 279.9591
159.0558, 278.7729
159.5379, 277.8189
160.0200, 277.2085
160.5021, 276.7646
160.9842, 276.1967
161.4663, 275.4939
161.9485, 274.7402
162.4306, 273.8575
162.9127, 272.9426
163.3948, 272.1367
163.8769, 271.4374
164.3590, 270.9712
164.8412, 270.9476
165.3233, 271.4071
165.8054, 271.9713
166.2875, 272.4743
166.7696, 272.9171
167.2517, 273.2861
167.7339, 273.5540
168.2160, 273.7556
168.6981, 273.9080
169.1802, 274.0005
169.6623, 274.1110
170.1444, 274.2323
170.6266, 274.3077
171.1087, 274.7451
171.5908, 276.1248
172.0729, 277.6573
172.5550, 278.7538
173.0371, 279.2278
173.5193, 279.4741
174.0014, 280.2177
174.4835, 281.8389
174.9656, 283.1250
175.4477, 284.1005
175.9298, 284.6234
176.4120, 284.5419
176.8941, 283.7926
177.3762, 282.4624
177.8583, 280.7850
178.3404, 278.4843
178.8225, 276.1573
179.3047, 273.7484
179.7868, 271.3752
180.2689, 269.0894
180.7510, 266.9229
181.2331, 264.9315
181.7152, 263.4353
182.1974, 262.7415
182.6795, 262.1799
183.1616, 261.6776
183.6437, 261.2303
184.1258, 260.8454
184.6079, 260.5298
185.0900, 260.2764
185.5722, 260.0562
186.0543, 259.9339
186.5364, 259.7679
187.0185, 259.4778
187.5006, 259.0945
187.9827, 258.6906
188.4649, 258.2668
188.9470, 257.8841
189.4291, 257.7451
189.9112, 258.1317
190.3933, 258.5028
190.8754, 258.4891
191.3576, 258.1119
191.8397, 257.6261
192.3218, 257.0182
192.8039, 256.4659
193.2860, 256.3417
193.7681, 256.9632
194.2503, 257.7872
194.7324, 258.2036
195.2145, 258.1510
195.6966, 258.1194
196.1787, 258.5317
196.6608, 259.0962
197.1430, 259.4484
197.6251, 259.3725
198.1072, 259.1392
198.5893, 259.2564
199.0714, 259.9054
199.5535, 260.4283
200.0357, 260.3259
200.5178, 260.0187
200.9999, 260.0164
201.4820, 260.6019
201.9641, 261.5625
202.4462, 262.3040
202.9284, 262.7257
203.4105, 263.0782
203.8926, 263.4225
204.3747, 263.7580
204.8568, 264.0713
205.3389, 264.3419
205.8211, 264.6009
206.3032, 264.9809
206.7853, 265.5245
207.2674, 266.1618
207.7495, 266.9809
208.2316, 267.8619
208.7138, 268.6429
209.1959, 269.2211
209.6780, 269.6257
210.1601, 270.0474
210.6422, 270.6078
211.1243, 271.0555
211.6065, 271.1915
212.0886, 271.2002
212.5707, 271.4016
213.0528, 272.0158
213.5349, 272.9862
214.0170, 273.7506
214.4992, 274.2238
214.9813, 274.6041
215.4634, 274.8171
215.9455, 274.9685
216.4276, 275.2885
216.9097, 275.9481
217.3919, 276.8942
217.8740, 277.6120
218.3561, 277.9397
218.8382, 278.2606
219.3203, 278.8210
219.8024, 279.5101
220.2845, 280.0207
220.7667, 280.1922
221.2488, 280.0025
221.7309, 279.4809
222.2130, 278.4196
222.6951, 277.2756
223.1772, 276.2023
223.6594, 275.2111
224.1415, 274.3700
224.6236, 273.7933
225.1057, 273.3598
225.5878, 272.6696
226.0699, 271.5332
226.5521, 270.3553
227.0342, 269.4443
227.5163, 268.7689
227.9984, 268.0241
228.4805, 267.0241
228.9626, 265.8581
229.4448, 264.6794
229.9269, 263.3474
230.4090, 262.2407
230.8911, 261.8373
231.3732, 262.1438
231.8553, 262.3412
232.3375, 262.1523
232.8196, 261.5920
233.3017, 260.6067
233.7838, 259.0402
234.2659, 257.4267
234.7480, 256.3355
235.2302, 255.8040
235.7123, 255.4404
236.1944, 255.2341
236.6765, 255.0757
237.1586, 254.9071
237.6407, 254.7320
238.1229, 254.4610
238.6050, 253.9179
239.0871, 253.0301
239.5692, 252.2739
240.0513, 251.8168
240.5334, 251.5174
241.0156, 251.3128
241.4977, 251.1894
241.9798, 251.1159
242.4619, 251.0709
242.9440, 251.0751
243.4261, 251.0223
243.9083, 250.7635
244.3904, 250.5287
244.8725, 250.4966
245.3546, 250.6916
245.8367, 250.9621
246.3188, 251.1372
246.8010, 251.2537
247.2831, 251.1431
247.7652, 250.5251
248.2473, 249.8860
248.7294, 249.5545
249.2115, 249.5625
249.6937, 249.6814
250.1758, 249.6356
250.6579, 249.4174
251.1400, 249.0341
251.6221, 248.3122
252.1042, 247.5796
252.5864, 247.0066
253.0685, 246.6161
253.5506, 246.3600
254.0327, 246.2202
254.5148, 246.3331
254.9969, 246.1052
255.4790, 245.2388
255.9612, 244.3379
256.4433, 243.6445
256.9254, 243.2211
257.4075, 243.0704
257.8896, 243.2202
258.3718, 243.7354
258.8539, 244.2781
259.3360, 245.1101
259.8181, 245.7427
260.3002, 245.9236
260.7823, 245.6604
261.2645, 245.0654
261.7466, 244.1692
262.2287, 242.8498
262.7108, 242.2050
263.1929, 242.8022
263.6750, 243.3911
264.1572, 243.3521
264.6393, 242.7594
265.1214, 242.0448
265.6035, 241.5255
266.0856, 241.2057
266.5677, 241.0916
267.0499, 241.4509
267.5320, 241.7068
268.0141, 241.5212
268.4962, 241.0076
268.9783, 240.5185
269.4604, 240.2873
269.9426, 240.2999
270.4247, 240.3777
270.9068, 240.5172
271.3889, 240.7079
271.8710, 241.0722
272.3531, 241.4949
272.8352, 241.6574
273.3174, 241.3200
273.7995, 240.6381
274.2816, 240.3887
274.7637, 240.9888
275.2458, 241.4470
275.7279, 241.2934
276.2101, 240.7866
276.6922, 240.4696
277.1743, 240.5979
277.6564, 241.0501
278.1385, 241.5485
278.6206, 242.3355
279.1028, 242.7512
279.5849, 242.3270
280.0670, 241.4482
280.5491, 240.7781
281.0312, 240.5540
281.5133, 240.6391
281.9955, 240.8246
282.4776, 241.1419
282.9597, 241.4213
283.4418, 241.6875
283.9239, 241.8752
284.4060, 241.8549
284.8882, 241.5745
285.3703, 241.1712
285.8524, 240.7887
286.3345, 240.4024
286.8166, 240.1806
287.2987, 240.2707
287.7809, 240.5010
288.2630, 240.6440
288.7451, 240.6536
289.2272, 240.6465
289.7093, 240.7931
290.1914, 241.0797
290.6736, 241.1983
291.1557, 240.9316
291.6378, 240.5695
292.1199, 240.4613
292.6020, 240.6489
293.0841, 240.8518
293.5663, 240.8481
294.0484, 240.6620
294.5305, 240.4500
295.0126, 240.0718
295.4947, 239.7793
295.9768, 239.8809
296.4590, 240.3639
296.9411, 240.8088
297.4232, 240.9251
297.9053, 240.8041
298.3874, 240.7789
298.8695, 240.9824
299.3517, 241.1430
299.8338, 240.9681
300.3159, 240.5185
300.7980, 240.2434
301.2801, 240.4599
301.7622, 240.8905
302.2444, 240.9773
302.7265, 240.6565
303.2086, 240.1651
303.6907, 239.4391
304.1728, 238.6056
304.6549, 238.1887
305.1371, 238.4977
305.6192, 239.0993
306.1013, 239.3593
306.5834, 239.2654
307.0655, 239.0794
307.5476, 238.8389
308.0298, 238.5914
308.5119, 238.4786
308.9940, 238.5806
309.4761, 238.6924
309.9582, 238.5330
310.4403, 238.1428
310.9225, 237.8023
311.4046, 237.5473
311.8867, 237.4106
312.3688, 237.5399
312.8509, 238.0177
313.3330, 238.3887
313.8152, 238.1074
314.2973, 237.3703
314.7794, 236.8148
315.2615, 236.6229
315.7436, 236.6349
316.2257, 236.7379
316.7079, 236.9350
317.1900, 237.0716
317.6721, 236.9956
318.1542, 236.8057
318.6363, 236.7455
319.1184, 236.8990
319.6006, 237.1058
320.0827, 237.2784
320.5648, 237.4119
321.0469, 237.4688
321.5290, 237.4229
322.0111, 237.2914
322.4933, 237.0897
322.9754, 236.7525
323.4575, 236.5359
323.9396, 236.6739
324.4217, 237.0527
324.9038, 237.3250
325.3860, 237.3884
325.8681, 237.3228
326.3502, 237.2148
326.8323, 237.0635
327.3144, 236.9169
327.7965, 236.8038
328.2787, 236.7027
328.7608, 235.7275
329.2429, 236.7299
329.7250, 237.2931
330.2071, 237.4407
330.6892, 235.9280
331.1714, 236.5592
331.6535, 236.3313
332.1356, 236.0681
332.6177, 237.0011
333.0998, 235.7299
333.5819, 236.6439
334.0641, 236.6856
334.5462, 237.1266
335.0283, 236.7030
335.5104, 236.5465
335.9925, 237.2547
336.4746, 237.4841
336.9568, 236.9610
337.4389, 237.4274
337.9210, 236.1259
338.4031, 236.3757
338.8852, 237.2948
339.3673, 236.8152
339.8495, 237.2974
340.3316, 237.4132
340.8137, 235.8645
341.2958, 237.2106
341.7779, 237.3048
342.2600, 236.1135
342.7421, 237.3605
343.2242, 236.3465
343.7064, 236.1395
344.1885, 236.5398
344.6706, 236.3070
345.1527, 237.0724
345.6348, 236.8762
346.1169, 236.5940
346.5991, 236.6868
347.0812, 237.5560
347.5633, 238.0860
348.0454, 237.5759
348.5275, 236.9811
349.0096, 237.0589
349.4918, 237.6851
349.9739, 238.1055
350.4560, 237.7504
350.9381, 236.8808
351.4202, 236.8045
351.9023, 238.2652
352.3845, 239.5177
352.8666, 239.9790
353.3487, 239.8799
353.8308, 239.5723
354.3129, 239.1696
354.7950, 238.7551
355.2772, 238.4974
355.7593, 238.4580
356.2414, 238.4439
356.7235, 238.3909
357.2056, 238.3841
357.6877, 238.5340
358.1699, 238.8519
358.6520, 239.2321
359.1341, 239.5737
359.6162, 239.8829
360.0983, 240.0896
360.5804, 240.0136
361.0626, 240.0090
361.5447, 240.3375
362.0268, 240.9263
362.5089, 241.5003
362.9910, 241.8681
363.4731, 242.0519
363.9553, 242.2422
364.4374, 242.4328
364.9195, 242.6368
365.4016, 242.7708
365.8837, 242.9442
366.3658, 243.3858
366.8480, 244.1892
367.3301, 245.0999
367.8122, 245.5679
368.2943, 245.3997
368.7764, 245.0307
369.2585, 244.1562
369.7407, 243.3042
370.2228, 242.9359
370.7049, 243.0761
371.1870, 243.3806
371.6691, 243.4984
372.1512, 243.4379
372.6334, 243.1279
373.1155, 242.4037
373.5976, 241.6128
374.0797, 240.7664
374.5618, 239.9556
375.0439, 239.3028
375.5261, 238.8781
376.0082, 238.6926
376.4903, 238.8382
376.9724, 239.8635
377.4545, 240.4213
377.9366, 240.0124
378.4188, 239.2062
378.9009, 238.5463
379.3830, 238.2229
379.8651, 238.1300
380.3472, 238.1265
380.8293, 238.2390
381.3115, 238.3529
381.7936, 238.3119
382.2757, 238.3890
382.7578, 238.8340
383.2399, 239.5861
383.7220, 240.3072
384.2042, 240.6693
384.6863, 240.7052
385.1684, 240.8940
385.6505, 241.2746
386.1326, 241.7738
386.6147, 242.6172
387.0969, 243.4940
387.5790, 243.8252
388.0611, 243.1762
388.5432, 242.1973
389.0253, 242.2231
389.5074, 243.5574
389.9896, 244.5547
390.4717, 244.6526
390.9538, 244.1604
391.4359, 243.0739
391.9180, 241.3618
392.4001, 239.8250
392.8823, 239.3496
393.3644, 239.7292
393.8465, 239.6561
394.3286, 238.8062
394.8107, 237.6645
395.2928, 236.5753
395.7750, 235.5331
396.2571, 234.5225
396.7392, 233.4816
397.2213, 232.4964
397.7034, 231.6940
398.1855, 231.0867
398.6677, 230.5703
399.1498, 230.0841
399.6319, 229.6589
400.1140, 229.3618
400.5961, 229.2843
401.0782, 229.1818
401.5604, 228.8186
402.0425, 228.3077
402.5246, 228.0393
403.0067, 228.2151
403.4888, 228.4584
403.9709, 228.0654
404.4531, 226.9157
404.9352, 226.2114
405.4173, 226.6568
405.8994, 227.3469
406.3815, 227.2366
406.8636, 226.3053
407.3458, 225.4324
407.8279, 225.3390
408.3100, 225.9837
408.7921, 226.5054
409.2742, 226.9311
409.7563, 227.2242
410.2385, 227.3656
410.7206, 227.3633
411.2027, 227.2302
411.6848, 226.9723
412.1669, 226.5852
412.6490, 226.0466
413.1311, 225.1535
413.6133, 224.4654
414.0954, 224.0125
414.5775, 223.7327
415.0596, 223.6831
415.5417, 223.8035
416.0238, 223.8679
416.5060, 223.6584
416.9881, 223.1694
417.4702, 222.6666
417.9523, 222.1838
418.4344, 221.6450
418.9165, 220.8694
419.3987, 220.0723
419.8808, 219.6088
420.3629, 219.6535
420.8450, 219.9225
421.3271, 219.7815
421.8092, 219.0075
422.2914, 218.3864
422.7735, 218.0198
423.2556, 217.8082
423.7377, 217.7966
424.2198, 217.9290
424.7019, 217.9737
425.1841, 217.6636
425.6662, 217.0426
426.1483, 216.5791
426.6304, 216.2771
427.1125, 216.1462
427.5946, 216.3646
428.0768, 216.6922
428.5589, 216.7260
429.0410, 216.0774
429.5231, 216.5009
430.0052, 216.7049
430.4873, 216.7010
430.9695, 215.8670
431.4516, 216.1049
431.9337, 215.9133
432.4158, 215.7040
432.8979, 216.0928
433.3800, 215.3796
433.8622, 215.7589
434.3443, 215.7021
434.8264, 215.8449
435.3085, 215.5555
435.7906, 215.3995
436.2727, 215.6760
436.7549, 215.7130
437.2370, 215.3738
437.7191, 215.5293
438.2012, 214.8009
438.6833, 214.3710
439.1654, 214.0352
439.6476, 213.8061
440.1297, 213.7260
440.6118, 213.6976
441.0939, 213.5439
441.5760, 213.1837
442.0581, 212.9247
442.5403, 212.9602
443.0224, 212.9706
443.5045, 212.5951
443.9866, 211.9070
444.4687, 211.3754
444.9508, 211.4175
445.4330, 211.9448
445.9151, 211.9514
446.3972, 210.7307
446.8793, 209.8257
447.3614, 209.6299
447.8435, 209.7978
448.3257, 209.9350
448.8078, 209.9153
449.2899, 209.8660
449.7720, 210.0224
450.2541, 210.5294
450.7362, 210.7344
451.2184, 210.2981
451.7005, 209.8705
452.1826, 209.7388
452.6647, 209.8280
453.1468, 209.9009
453.6289, 209.7917
454.1111, 209.6002
454.5932, 209.6402
455.0753, 210.0303
455.5574, 210.2934
456.0395, 210.2410
456.5216, 210.0061
457.0038, 209.6160
457.4859, 209.0711
457.9680, 208.5838
458.4501, 208.2549
458.9322, 208.5249
459.4143, 208.6484
459.8965, 208.6334
460.3786, 208.0649
460.8607, 208.2111
461.3428, 208.0709
461.8249, 207.9190
462.3070, 208.1658
462.7892, 207.6778
463.2713, 207.9183
463.7534, 207.8680
464.2355, 207.9508
464.7176, 207.7454
465.1997, 207.6290
465.6819, 207.8009
466.1640, 207.8131
466.6461, 207.5746
467.1282, 207.6658
467.6103, 207.1678
468.0924, 207.1353
468.5746, 207.1257
469.0567, 207.2061
469.5388, 207.5034
470.0209, 207.9424
470.5030, 207.9973
470.9851, 207.0941
471.4673, 206.5041
471.9494, 206.6187
472.4315, 206.9808
472.9136, 207.1628
473.3957, 207.0464
473.8778, 206.7388
474.3600, 206.3175
474.8421, 205.7366
475.3242, 205.3851
475.8063, 205.4476
476.2884, 205.5569
476.7705, 205.5665
477.2527, 205.5446
477.7348, 205.6624
478.2169, 206.0504
478.6990, 206.4284
479.1811, 206.1929
479.6632, 205.2293
480.1454, 204.6283
480.6275, 204.7880
481.1096, 205.2724
481.5917, 205.8247
482.0738, 206.4062
482.5559, 206.7747
483.0380, 206.8254
483.5201, 206.5909
484.0023, 205.9629
484.4844, 204.9203
484.9665, 204.1367
485.4486, 204.0354
485.9307, 204.4398
486.4128, 204.8791
486.8950, 205.5577
487.3771, 205.8485
487.8592, 205.1042
488.3413, 204.0237
488.8234, 203.6598
489.3055, 204.1819
489.7877, 204.8303
490.2698, 204.8239
490.7519, 204.1124
491.2340, 203.7388
491.7161, 204.0922
492.1982, 204.2758
492.6804, 203.7796
493.1625, 203.0141
493.6446, 202.5410
494.1267, 202.5739
494.6088, 203.0056
495.0909, 203.8132
495.5731, 205.3776
496.0552, 206.0956
496.5373, 205.0043
497.0194, 203.9551
497.5015, 203.7867
497.9836, 204.2430
498.4658, 204.6365
498.9479, 204.5623
499.4300, 204.2907
499.9121, 204.4467
500.3942, 205.1461
500.8763, 205.5359
501.3585, 205.1452
501.8406, 204.5404
502.3227, 204.2054
502.8048, 204.1510
503.2869, 204.2428
503.7690, 204.4397
504.2512, 204.7328
504.7333, 205.1944
505.2154, 205.8290
505.6975, 206.2710
506.1796, 206.2556
506.6617, 205.9182
507.1439, 205.6823
507.6260, 205.4733
508.1081, 205.4752
508.5902, 206.0215
509.0723, 206.6583
509.5544, 206.7778
510.0366, 206.3239
510.5187, 205.7845
511.0008, 205.6030
511.4829, 205.7791
511.9650, 206.0450
512.4471, 206.8491
512.9293, 207.2104
513.4114, 206.5654
513.8935, 205.5539
514.3756, 204.8518
514.8577, 204.6707
515.3398, 204.8559
515.8220, 205.3334
516.3041, 206.1588
516.7862, 206.6606
517.2683, 206.7057
517.7504, 206.5678
518.2325, 206.3277
518.7147, 206.0193
519.1968, 205.6657
519.6789, 205.2151
520.1610, 204.8749
520.6431, 205.0520
521.1252, 205.6493
521.6074, 205.8043
522.0895, 205.1369
522.5716, 204.3257
523.0537, 204.1511
523.5358, 204.5276
524.0179, 204.9141
524.5001, 205.4562
524.9822, 205.7753
525.4643, 205.3304
525.9464, 204.4124
526.4285, 203.9615
526.9106, 204.4277
527.3928, 205.2620
527.8749, 205.4255
528.3570, 204.5120
528.8391, 203.8409
529.3212, 203.4412
529.8033, 203.2362
530.2855, 203.3419
530.7676, 203.6032
531.2497, 203.6778
531.7318, 203.3510
532.2139, 202.7650
532.6960, 202.2866
533.1782, 201.9433
533.6603, 201.6295
534.1424, 201.4308
534.6245, 201.1749
535.1066, 200.6583
535.5887, 199.9571
536.0709, 199.4111
536.5530, 199.2533
537.0351, 199.3630
537.5172, 199.6391
537.9993, 200.1039
538.4814, 200.2070
538.9636, 199.4958
539.4457, 198.5073
539.9278, 198.1635
540.4099, 198.5593
540.8920, 198.9228
541.3741, 199.0789
541.8563, 199.0819
542.3384, 198.9599
542.8205, 198.7293
543.3026, 198.4151
543.7847, 198.0114
544.2668, 197.5810
544.7490, 197.3649
545.2311, 197.6361
545.7132, 197.7486
546.1953, 197.6031
546.6774, 197.3642
547.1595, 197.1572
547.6417, 196.9799
548.1238, 196.7351
548.6059, 196.3060
549.0880, 195.7847
549.5701, 195.5768
550.0522, 195.8412
550.5344, 196.0101
551.0165, 195.7903
551.4986, 195.4845
551.9807, 195.3380
552.4628, 194.9332
552.9449, 195.3023
553.4271, 195.4517
553.9092, 195.3934
554.3913, 194.5049
554.8734, 194.6884
555.3555, 194.4423
555.8376, 194.1785
556.3198, 194.5128
556.8019, 193.7451
557.2840, 194.0700
557.7661, 193.9587
558.2482, 194.0470
558.7303, 193.7031
559.2125, 193.4927
559.6946, 193.7147
560.1767, 193.6972
560.6588, 193.3035
561.1409, 193.4046
561.6230, 192.6217
562.1052, 192.6144
562.5873, 192.9418
563.0694, 192.5699
563.5515, 192.6788
564.0336, 192.6046
564.5157, 191.6981
564.9979, 192.2390
565.4800, 192.1540
565.9621, 191.4262
566.4442, 191.9175
566.9263, 191.2784
567.4084, 191.0427
567.8906, 191.1107
568.3727, 190.8622
568.8548, 191.1127
569.3369, 190.8825
569.8190, 190.6093
570.3011, 190.5235
570.7833, 189.9065
571.2654, 190.2751
571.7475, 189.9704
572.2296, 190.0004
572.7117, 190.2071
573.1938, 190.6917
573.6760, 190.9077
574.1581, 190.8199
574.6402, 190.4911
575.1223, 189.4595
575.6044, 188.6157
576.0865, 188.6701
576.5687, 189.3550
577.0508, 189.9161
577.5329, 189.9173
578.0150, 189.5744
578.4971, 189.3361
578.9792, 189.2204
579.4614, 189.1134
579.9435, 189.0479
580.4256, 188.9249
580.9077, 188.6297
581.3898, 188.2122
581.8719, 187.8585
582.3541, 187.5755
582.8362, 187.4409
583.3183, 187.7460
583.8004, 188.3095
584.2825, 188.3481
584.7646, 187.5343
585.2468, 186.5015
585.7289, 186.0771
586.2110, 186.4028
586.6931, 186.5658
587.1752, 186.5531
587.6573, 186.4056
588.1394, 185.9746
588.6215, 185.4732
589.1036, 185.2534
589.5858, 185.4252
590.0679, 185.7298
590.5500, 185.8291
591.0321, 185.7091
591.5142, 185.5032
591.9963, 185.0537
592.4785, 184.7553
592.9606, 184.9263
593.4427, 185.2788
593.9248, 185.3783
594.4069, 185.0770
594.8890, 184.7574
595.3712, 184.7567
595.8533, 184.9368
596.3354, 184.9908
596.8175, 184.8777
597.2996, 184.6082
597.7817, 184.0814
598.2639, 183.4201
598.7460, 183.3244
599.2281, 184.5929
599.7102, 185.2648
600.1923, 184.4670
600.6744, 183.3557
601.1566, 183.0178
601.6387, 183.4665
602.1208, 184.0214
602.6029, 184.1712
603.0850, 184.0156
603.5671, 183.9676
604.0493, 184.1278
604.5314, 184.1250
605.0135, 183.6937
605.4956, 183.2119
605.9777, 182.9099
606.4598, 182.7909
606.9420, 182.7716
607.4241, 182.8952
607.9062, 183.0419
608.3883, 183.0529
608.8704, 182.9492
609.3525, 182.8382
609.8347, 182.7471
610.3168, 182.7025
610.7989, 182.7567
611.2810, 182.9470
611.7631, 183.0486
612.2452, 183.0471
612.7274, 182.9792
613.2095, 182.8500
613.6916, 182.6689
614.1737, 182.4256
614.6558, 182.1246
615.1379, 181.8321
615.6201, 181.6037
616.1022, 181.4363
616.5843, 181.5031
617.0664, 182.0468
617.5485, 182.3848
618.0306, 181.8527
618.5128, 181.0915
618.9949, 180.9698
619.4770, 181.7300
619.9591, 182.4517
620.4412, 182.5360
620.9233, 182.2937
621.4055, 182.1785
621.8876, 182.2252
622.3697, 182.3035
622.8518, 182.3505
623.3339, 182.3468
623.8160, 182.2232
624.2982, 181.6803
624.7803, 181.5251
625.2624, 182.1451
625.7445, 182.7916
626.2266, 182.9313
626.7087, 182.7207
627.1909, 182.6515
627.6730, 183.0144
628.1551, 183.4820
628.6372, 183.3952
629.1193, 182.7304
629.6014, 182.3710
630.0836, 182.5601
630.5657, 182.8881
631.0478, 183.0999
631.5299, 183.2036
632.0120, 183.1898
632.4941, 182.9656
632.9763, 182.7569
633.4584, 182.6605
633.9405, 182.6564
634.4226, 182.7237
634.9047, 182.8554
635.3868, 183.0357
635.8690, 183.2447
636.3511, 183.4942
636.8332, 183.8844
637.3153, 184.6280
637.7974, 185.1543
638.2795, 185.2910
638.7617, 185.2963
639.2438, 185.3099
639.7259, 185.3566
640.2080, 185.4261
640.6901, 185.4377
641.1722, 185.5532
641.6544, 186.1123
642.1365, 187.0670
642.6186, 187.9664
643.1007, 188.7425
643.5828, 189.2457
644.0649, 189.1987
644.5471, 188.5640
645.0292, 188.2988
645.5113, 188.4451
645.9934, 188.9087
646.4755, 189.9504
646.9576, 191.1505
647.4398, 191.9279
647.9219, 192.2046
648.4040, 192.3848
648.8861, 192.8549
649.3682, 193.5651
649.8503, 194.1621
650.3325, 194.4987
650.8146, 195.1227
651.2967, 196.4211
651.7788, 197.9065
652.2609, 199.1132
652.7430, 200.0477
653.2252, 201.1250
653.7073, 202.4800
654.1894, 204.0561
654.6715, 205.9715
655.1536, 208.0690
655.6357, 209.8616
656.1179, 211.1770
656.6000, 212.3912
657.0821, 214.0650
657.5642, 216.3343
658.0463, 217.7687
658.5284, 216.9989
659.0106, 217.0210
659.4927, 219.0461
659.9748, 221.7730
660.4569, 223.8286
660.9390, 225.0076
661.4211, 226.1348
661.9033, 227.8453
662.3854, 229.9358
662.8675, 232.0056
663.3496, 234.0570
663.8317, 236.0022
664.3138, 237.7568
664.7960, 239.4809
665.2781, 241.4339
665.7602, 243.6497
666.2423, 245.8940
666.7244, 248.5236
667.2065, 250.7847
667.6887, 252.1031
668.1708, 252.9418
668.6529, 254.0496
669.1350, 255.5979
669.6171, 257.0997
670.0992, 258.1678
670.5814, 258.7581
671.0635, 258.4189
671.5456, 257.0298
672.0277, 255.0974
672.5098, 252.8790
672.9919, 250.1046
673.4741, 246.3400
673.9562, 241.5564
674.4383, 236.8867
674.9204, 232.6670
675.4025, 228.6111
675.8846, 224.4347
676.3668, 220.2517
676.8489, 216.2709
677.3310, 212.5887
677.8131, 209.2132
678.2952, 206.1987
678.7773, 203.5533
679.2595, 201.0454
679.7416, 198.6758
680.2237, 196.4740
680.7058, 194.4118
681.1879, 192.5334
681.6700, 190.8833
682.1522, 189.4661
682.6343, 188.2822
683.1164, 187.5834
683.5985, 186.9592
684.0806, 185.7739
684.5627, 184.1878
685.0449, 182.8863
685.5270, 182.0964
686.0091, 181.7309
686.4912, 181.7682
686.9733, 182.2836
687.4554, 182.3298
687.9376, 181.4824
688.4197, 180.6765
688.9018, 180.0264
689.3839, 179.5353
689.8660, 179.3238
690.3481, 179.3295
690.8303, 179.1414
691.3124, 178.2492
691.7945, 177.1286
692.2766, 176.6572
692.7587, 176.7971
693.2408, 177.1888
693.7230, 177.8253
694.2051, 178.3280
694.6872, 178.2426
695.1693, 177.5406
695.6514, 176.7452
696.1335, 175.5108
696.6157, 174.6205
697.0978, 174.5664
697.5799, 174.7613
698.0620, 174.5565
698.5441, 173.9378
699.0262, 173.4178
699.5084, 173.4325
699.9905, 173.7180
700.4726, 173.6848
700.9547, 173.3276
701.4368, 172.8354
701.9189, 172.1293
702.4011, 171.5717
702.8832, 171.6418
703.3653, 172.2619
703.8474, 172.4938
704.3295, 171.9374
704.8116, 171.4827
705.2938, 171.4577
705.7759, 171.6053
706.2580, 171.7274
706.7401, 171.7654
707.2222, 171.6717
707.7043, 171.3958
708.1865, 171.0203
708.6686, 170.7067
709.1507, 170.4519
709.6328, 170.3165
710.1149, 170.3266
710.5970, 170.4294
711.0792, 170.6990
711.5613, 171.0272
712.0434, 171.0761
712.5255, 170.6459
713.0076, 170.2552
713.4897, 170.1611
713.9719, 170.1159
714.4540, 169.8541
714.9361, 169.4057
715.4182, 168.9053
715.9003, 168.4121
716.3824, 168.0908
716.8646, 168.4516
717.3467, 169.6221
717.8288, 170.0158
718.3109, 169.1134
718.7930, 168.2029
719.2751, 168.0019
719.7573, 168.2679
720.2394, 168.6922
720.7215, 169.3752
721.2036, 169.7569
721.6857, 169.4668
722.1678, 168.9467
722.6500, 168.4417
723.1321, 168.0456
723.6142, 167.9424
724.0963, 168.2038
724.5784, 168.6147
725.0605, 168.8772
725.5427, 168.9872
726.0248, 169.0965
726.5069, 169.1715
726.9890, 169.3272
727.4711, 169.7977
727.9532, 170.2429
728.4354, 170.1877
728.9175, 169.6032
729.3995, 169.1748
729.8817, 169.2951
730.3638, 169.4503
730.8459, 169.1789
731.3280, 168.7126
731.8101, 168.4693
732.2922, 168.5688
732.7744, 168.9459
733.2565, 169.6057
733.7386, 170.4641
734.2207, 170.9608
734.7028, 171.0334
735.1849, 170.9405
735.6671, 170.6220
736.1492, 170.2837
736.6313, 170.0851
737.1134, 170.0157
737.5955, 170.0367
738.0776, 170.2322
738.5598, 170.4002
739.0419, 170.4668
739.5240, 170.4355
740.0061, 170.2682
740.4882, 169.9936
740.9703, 169.7360
741.4525, 169.5821
741.9346, 169.4796
742.4167, 169.2816
742.8988, 168.9598
743.3809, 168.7413
743.8630, 168.6681
744.3452, 168.6635
744.8273, 168.7410
745.3094, 168.8381
745.7915, 168.8476
746.2736, 168.7798
746.7557, 168.5705
747.2379, 167.9794
747.7200, 167.4247
748.2021, 167.2994
748.6842, 167.4976
749.1663, 167.7937
749.6484, 168.0823
750.1306, 168.1950
750.6127, 167.8073
751.0948, 166.9710
751.5769, 166.4237
752.0590, 166.2119
752.5411, 166.1581
753.0233, 166.3538
753.5054, 166.5277
753.9875, 166.2585
754.4696, 165.5565
754.9517, 164.9403
755.4338, 164.5248
755.9160, 164.1522
756.3981, 163.6024
756.8802, 163.1366
757.3623, 163.2210
757.8444, 163.8039
758.3265, 164.2678
758.8087, 164.1064
759.2908, 163.5961
759.7729, 163.3759
760.2550, 163.4472
760.7371, 163.5107
761.2192, 163.5882
761.7014, 163.3976
762.1835, 162.4870
762.6656, 161.1441
763.1477, 160.6579
763.6298, 161.5908
764.1119, 162.2962
764.5941, 162.4169
765.0762, 162.4009
765.5583, 162.6606
766.0404, 162.9887
766.5225, 162.8768
767.0046, 162.1299
767.4868, 161.2145
767.9689, 160.5071
768.4510, 160.0429
768.9331, 160.0215
769.4152, 160.4529
769.8973, 160.9053
770.3795, 161.2484
770.8616, 161.3948
771.3437, 161.1648
771.8258, 160.4724
772.3079, 160.0415
772.7900, 159.9797
773.2722, 160.0307
773.7543, 160.1987
774.2364, 160.4148
774.7185, 160.6949
775.2006, 160.9829
775.6827, 161.0646
776.1649, 160.7282
776.6470, 160.2871
777.1291, 160.0916
777.6112, 160.0687
778.0933, 160.0354
778.5754, 159.9595
779.0576, 159.8673
779.5397, 159.7745
780.0218, 159.6857
780.5039, 159.6181
780.9860, 159.5872
781.4681, 159.5329
781.9503, 159.3571
782.4324, 159.2740
782.9145, 159.4834
783.3966, 159.7865
783.8787, 159.8874
784.3608, 159.7231
784.8430, 159.5323
785.3251, 159.4226
785.8072, 159.3364
786.2893, 159.2419
786.7714, 159.1241
787.2535, 158.9073
787.7357, 158.5886
788.2178, 158.3761
788.6999, 158.5414
789.1820, 158.9705
789.6641, 158.9678
790.1462, 158.3945
790.6284, 158.0453
791.1105, 158.2233
791.5926, 158.4770
792.0747, 158.3513
792.5568, 157.9683
793.0389, 157.8266
793.5211, 158.1150
794.0032, 158.3734
794.4853, 158.4483
794.9674, 158.4843
795.4495, 158.6398
795.9316, 158.8463
796.4138, 158.9160
796.8959, 158.7702
797.3780, 158.5499
797.8601, 158.3952
798.3422, 158.2983
798.8243, 158.2759
799.3065, 158.3292
799.7886, 158.2120
800.2707, 157.7768
800.7528, 157.2915
801.2349, 157.1220
801.7170, 157.2968
802.1992, 157.3271
802.6813, 156.9821
803.1634, 156.7962
803.6455, 157.0554
804.1276, 157.3200
804.6097, 157.2169
805.0919, 156.8092
805.5740, 156.3637
806.0561, 155.8425
806.5382, 155.6316
807.0203, 156.3997
807.5024, 157.5113
807.9846, 157.8723
808.4667, 157.4954
808.9488, 157.0261
809.4309, 156.7905
809.9130, 156.7414
810.3951, 156.8262
810.8773, 157.0562
811.3594, 157.2686
811.8415, 157.5028
812.3236, 157.6161
812.8057, 157.4604
813.2878, 157.2412
813.7700, 157.2643
814.2521, 157.5063
814.7342, 157.5011
815.2163, 156.9268
815.6984, 156.4147
816.1805, 156.1760
816.6627, 156.1299
817.1448, 156.2645
817.6269, 156.5132
818.1090, 156.7263
818.5911, 156.8305
819.0732, 156.8383
819.5554, 156.7343
820.0375, 156.5468
820.5196, 156.3886
821.0017, 156.2693
821.4838, 156.1230
821.9659, 155.8964
822.4481, 155.6874
822.9302, 155.6607
823.4123, 155.8392
823.8944, 156.0398
824.3765, 156.2803
824.8586, 156.5163
825.3408, 156.9765
825.8229, 157.2443
826.3050, 156.7546
826.7871, 155.6862
827.2692, 154.9905
827.7513, 155.2134
828.2335, 155.5293
828.7156, 155.3557
829.1977, 155.0219
829.6798, 154.9976
830.1619, 155.2511
830.6440, 155.4515
831.1262, 155.4301
831.6083, 155.3044
832.0904, 155.2592
832.5725, 155.2836
833.0546, 155.2421
833.5367, 155.1446
834.0189, 154.8724
834.5010, 154.2491
834.9831, 153.6590
835.4652, 153.6124
835.9473, 154.1289
836.4294, 154.5415
836.9116, 154.8824
837.3937, 155.0834
837.8758, 154.9816
838.3579, 154.8672
838.8400, 155.1050
839.3221, 155.4987
839.8043, 155.4346
840.2864, 154.5676
840.7685, 153.8149
841.2506, 154.1129
841.7327, 154.8177
842.2148, 154.9966
842.6970, 154.7069
843.1791, 154.3781
843.6612, 154.1752
844.1433, 154.0990
844.6254, 154.1720
845.1075, 154.3705
845.5897, 154.5474
846.0718, 154.7399
846.5539, 154.7007
847.0360, 154.2318
847.5181, 153.7720
848.0002, 153.7656
848.4824, 154.0776
848.9645, 154.0732
849.4466, 153.5379
849.9287, 153.0982
850.4108, 152.7451
850.8929, 152.5829
851.3751, 152.8407
851.8572, 153.2619
852.3393, 153.4570
852.8214, 153.3374
853.3035, 153.1021
853.7856, 152.8932
854.2678, 152.6403
854.7499, 152.1367
855.2320, 151.5296
855.7141, 151.2231
856.1962, 151.2910
856.6783, 151.5662
857.1605, 151.9473
857.6426, 152.3628
858.1247, 152.6603
858.6068, 152.8600
859.0889, 152.7168
859.5710, 152.0263
860.0532, 151.4831
860.5353, 151.5509
861.0174, 151.8775
861.4995, 151.8346
861.9816, 151.3504
862.4637, 151.0421
862.9459, 151.1862
863.4280, 151.1925
863.9101, 150.6018
864.3922, 150.0013
864.8743, 150.0740
865.3564, 150.6729
865.8386, 151.0522
866.3207, 150.8153
866.8028, 150.4903
867.2849, 150.5584
867.7670, 150.8128
868.2491, 150.9863
868.7313, 151.0376
869.2134, 150.9376
869.6955, 150.6739
870.1776, 150.2651
870.6597, 149.6425
871.1418, 148.8960
871.6239, 148.7437
872.1060, 149.2754
872.5881, 149.7967
873.0703, 150.2009
873.5524, 150.4226
874.0345, 150.3466
874.5166, 150.0498
874.9987, 149.8699
875.4808, 149.9771
875.9630, 149.9012
876.4451, 149.3845
876.9272, 148.9701
877.4093, 148.9889
877.8914, 149.2052
878.3735, 149.2918
878.8557, 149.2074
879.3378, 149.1698
879.8199, 149.4730
880.3020, 149.6651
880.7841, 149.2408
881.2662, 148.5508
881.7484, 148.1426
882.2305, 148.0410
882.7126, 147.9254
883.1947, 147.6049
883.6768, 147.2741
884.1589, 147.2741
884.6411, 147.5406
885.1232, 147.7473
885.6053, 147.8847
886.0874, 147.7497
886.5695, 147.1687
887.0516, 146.6920
887.5338, 147.0587
888.0159, 148.1885
888.4980, 148.6326
888.9801, 147.9981
889.4622, 147.4612
889.9443, 147.0495
890.4265, 146.8856
890.9086, 147.1634
891.3907, 147.6902
891.8728, 148.1874
892.3549, 148.7064
892.8370, 148.7690
893.3192, 147.8269
893.8013, 146.8450
894.2834, 146.2962
894.7655, 146.0862
895.2476, 146.1043
895.7297, 146.3020
896.2119, 146.6546
896.6940, 147.2728
897.1761, 147.7163
897.6582, 147.2986
898.1403, 145.8941
898.6224, 146.3723
899.1046, 146.6310
899.5867, 146.6818
900.0688, 145.9025
900.5509, 146.1952
901.0330, 146.0582
901.5151, 145.9037
901.9973, 146.3472
902.4794, 145.6887
902.9615, 146.1227
903.4436, 146.1206
903.9257, 146.3181
904.4078, 146.0834
904.8900, 145.9822
905.3721, 146.3134
905.8542, 146.4051
906.3363, 146.1206
906.8184, 146.3308
907.3005, 145.6571
907.7827, 145.7591
908.2648, 146.1957
908.7469, 145.9329
909.2290, 146.1510
909.7111, 146.1860
910.1932, 145.3886
910.6754, 146.0388
911.1575, 146.0629
911.6396, 145.4443
912.1217, 145.6806
912.6038, 145.4449
913.0859, 145.3603
913.5681, 145.5488
914.0502, 145.7313
914.5323, 145.5193
915.0144, 145.1678
915.4965, 145.2670
915.9786, 145.6958
916.4608, 145.9131
916.9429, 145.8035
917.4250, 145.6108
917.9071, 145.5067
918.3892, 145.4797
918.8713, 145.4964
919.3535, 145.5525
919.8356, 145.7310
920.3177, 146.1006
920.7998, 146.3552
921.2819, 146.3404
921.7640, 146.2014
922.2462, 146.0398
922.7283, 145.8639
923.2104, 146.0461
923.6925, 147.0218
924.1746, 147.7167
924.6567, 147.9835
925.1389, 148.0419
925.6210, 147.9588
926.1031, 147.7695
926.5852, 147.4639
927.0673, 147.0191
927.5494, 146.7654
928.0316, 147.0793
928.5137, 147.3223
928.9958, 146.9894
929.4779, 146.4529
929.9600, 146.1665
930.4421, 146.1398
930.9243, 146.1792
931.4064, 146.2182
931.8885, 146.1236
932.3706, 145.6229
932.8527, 144.9697
933.3348, 144.6349
933.8170, 144.5600
934.2991, 144.4522
934.7812, 144.2271
935.2633, 144.0109
935.7454, 143.9342
936.2275, 143.9089
936.7097, 143.6281
937.1918, 143.1023
937.6739, 142.8749
938.1560, 143.0383
938.6381, 143.2297
939.1202, 143.2943
939.6024, 143.2498
940.0845, 143.1230
940.5666, 142.9148
941.0487, 142.5536
941.5308, 141.7578
942.0129, 141.4382
942.4951, 142.2156
942.9772, 142.9518
943.4593, 142.7515
943.9414, 142.0139
944.4235, 141.5582
944.9056, 141.4911
945.3878, 141.3753
945.8699, 140.9970
946.3520, 140.7589
946.8341, 140.9397
947.3162, 141.2383
947.7983, 141.4045
948.2805, 141.4108
948.7626, 141.2606
949.2447, 140.8664
949.7268, 140.5927
950.2089, 140.8191
950.6910, 141.1221
951.1732, 141.1410
951.6553, 140.9072
952.1374, 140.3933
952.6195, 139.6900
953.1016, 139.2949
953.5837, 139.6837
954.0659, 140.2894
954.5480, 140.2569
955.0301, 139.8338
955.5122, 139.6799
955.9943, 139.7900
956.4764, 139.7008
956.9586, 139.2179
957.4407, 138.6570
957.9228, 138.3669
958.4049, 138.3261
958.8870, 138.5249
959.3691, 138.9711
959.8513, 139.1262
960.3334, 138.8580
960.8155, 138.5941
961.2976, 138.5982
961.7797, 138.7411
962.2618, 138.7768
962.7440, 138.6923
963.2261, 138.6106
963.7082, 138.4694
964.1903, 138.4930
964.6724, 138.9270
965.1545, 139.2786
965.6367, 139.1003
966.1188, 138.5456
966.6009, 138.1159
967.0830, 137.8373
967.5651, 137.6062
968.0472, 137.3891
968.5294, 137.2591
969.0115, 137.2567
969.4936, 137.3432
969.9757, 137.6159
970.4578, 137.9629
970.9399, 137.9067
971.4221, 137.0346
971.9042, 136.4545
972.3863, 136.9102
972.8684, 137.4663
973.3505, 137.3532
973.8326, 136.9479
974.3148, 136.9383
974.7969, 137.3642
975.2790, 137.6347
975.7611, 137.4103
976.2432, 136.9687
976.7253, 136.3287
977.2075, 135.7598
977.6896, 135.7791
978.1717, 136.1807
978.6538, 136.2822
979.1359, 135.8997
979.6180, 135.5495
980.1002, 135.7597
980.5823, 136.1664
981.0644, 136.0134
981.5465, 135.5412
982.0286, 135.6124
982.5107, 136.2372
982.9929, 136.6629
983.4750, 136.5405
983.9571, 136.2391
984.4392, 136.2819
984.9213, 136.5220
985.4034, 136.1170
985.8856, 135.0730
986.3677, 134.7734
986.8498, 135.5401
987.3319, 136.2048
987.8140, 136.0193
988.2961, 135.4874
988.7783, 135.5488
989.2604, 136.2335
989.7425, 136.4971
990.2246, 136.1875
990.7067, 135.9949
991.1888, 136.0796
991.6710, 136.2916
992.1531, 136.6040
992.6352, 136.9130
993.1173, 136.9692
993.5994, 136.7707
994.0815, 136.3038
994.5637, 135.0423
995.0458, 134.3223
995.5279, 134.8634
996.0100, 135.6823
996.4921, 136.0338
996.9742, 136.0860
997.4564, 136.3816
997.9385, 137.1909
998.4206, 137.5286
998.9027, 136.9648
999.3848, 136.3096
999.8669, 135.7100
1000.349, 135.2801
1000.831, 135.2257
1001.313, 135.4328
1001.795, 135.4699
1002.278, 135.1214
1002.760, 134.9489
1003.242, 135.3063
1003.724, 135.7389
1004.206, 135.9067
1004.688, 136.0081
1005.170, 136.4228
1005.652, 137.0652
1006.134, 137.3793
1006.617, 137.0538
1007.099, 136.6155
1007.581, 136.2272
1008.063, 136.0612
1008.545, 136.4544
1009.027, 137.1284
1009.509, 137.6312
1009.991, 137.8657
1010.474, 137.9114
1010.956, 137.7602
1011.438, 137.6189
1011.920, 137.7824
1012.402, 138.0438
1012.884, 138.1213
1013.366, 138.0055
1013.848, 137.6094
1014.330, 136.9912
1014.813, 136.6445
1015.295, 136.9884
1015.777, 137.6304
1016.259, 137.9823
1016.741, 138.1525
1017.223, 138.5003
1017.705, 138.9695
1018.187, 139.1607
1018.669, 138.9557
1019.152, 138.5219
1019.634, 137.9155
1020.116, 137.4319
1020.598, 137.9873
1021.080, 139.3269
1021.562, 139.8033
1022.044, 139.3519
1022.526, 139.0300
1023.008, 139.2220
1023.491, 139.4564
1023.973, 139.2426
1024.455, 138.7731
1024.937, 138.7271
1025.419, 139.1102
1025.901, 139.1174
1026.383, 138.6475
1026.865, 138.3418
1027.348, 138.4837
1027.830, 138.6926
1028.312, 138.5419
1028.794, 138.1447
1029.276, 138.0698
1029.758, 138.4279
1030.240, 138.3777
1030.722, 137.7723
1031.204, 137.0970
1031.687, 136.4775
1032.169, 135.9942
1032.651, 135.7403
1033.133, 135.6997
1033.615, 135.8409
1034.097, 136.4025
1034.579, 136.3247
1035.061, 135.1978
1035.544, 134.2579
1036.026, 134.1029
1036.508, 134.1609
1036.990, 133.7283
1037.472, 132.9283
1037.954, 132.6646
1038.436, 133.2771
1038.918, 133.6952
1039.401, 133.8150
1039.883, 133.8719
1040.365, 133.9554
1040.847, 133.8458
1041.329, 134.1435
1041.811, 134.3534
1042.293, 134.4801
1042.775, 134.2749
1043.257, 134.4983
1043.740, 134.5502
1044.222, 134.5948
1044.704, 134.8786
1045.186, 134.7216
1045.668, 135.0016
1046.150, 135.1072
1046.632, 135.2926
1047.114, 135.3051
1047.596, 135.3710
1048.079, 135.6101
1048.561, 135.6137
1049.043, 136.1920
1049.525, 136.7991
1050.007, 136.9518
1050.489, 136.7602
1050.971, 136.7763
1051.453, 137.2142
1051.936, 137.5031
1052.418, 137.4112
1052.900, 137.3227
1053.382, 137.3511
1053.864, 137.4959
1054.346, 137.8602
1054.828, 138.3347
1055.310, 138.5418
1055.792, 138.3024
1056.275, 138.1527
1056.757, 138.3506
1057.239, 138.5090
1057.721, 138.4319
1058.203, 138.2523
1058.685, 138.1563
1059.167, 138.0726
1059.649, 137.7101
1060.131, 136.9032
1060.614, 136.3191
1061.096, 136.3202
1061.578, 136.4017
1062.060, 136.4715
1062.542, 136.3891
1063.024, 135.8810
1063.506, 135.1463
1063.988, 134.7015
1064.471, 134.6969
1064.953, 134.7038
1065.435, 134.6296
1065.917, 134.4519
1066.399, 134.0189
1066.881, 133.5996
1067.363, 133.5965
1067.845, 133.7631
1068.328, 133.4876
1068.810, 132.6204
1069.292, 131.7479
1069.774, 130.9651
1070.256, 130.3983
1070.738, 130.1757
1071.220, 130.1346
1071.702, 130.2634
1072.184, 130.4107
1072.667, 130.3359
1073.149, 129.9916
1073.631, 129.4849
1074.113, 128.6421
1074.595, 127.9318
1075.077, 127.6034
1075.559, 127.4803
1076.041, 127.4933
1076.523, 127.5691
1077.006, 127.6353
1077.488, 127.6715
1077.970, 127.6405
1078.452, 127.4695
1078.934, 127.3300
1079.416, 127.3693
1079.898, 127.4076
1080.380, 127.3458
1080.863, 127.1688
1081.345, 126.7768
1081.827, 126.2345
1082.309, 125.9043
1082.791, 125.9937
1083.273, 126.1249
1083.755, 126.1353
1084.237, 126.1119
1084.719, 126.2229
1085.202, 126.2632
1085.684, 125.7791
1086.166, 124.9600
1086.648, 124.6667
1087.130, 125.3235
1087.612, 125.8877
1088.094, 125.9079
1088.576, 125.6931
1089.058, 125.1663
1089.541, 124.7062
1090.023, 124.8541
1090.505, 125.3944
1090.987, 125.6290
1091.469, 125.3497
1091.951, 125.0661
1092.433, 125.0485
1092.915, 124.9926
1093.397, 124.6490
1093.880, 124.2889
1094.362, 124.1347
1094.844, 124.1642
1095.326, 124.3399
1095.808, 124.6537
1096.290, 124.8269
1096.772, 124.7067
1097.254, 124.5086
1097.737, 124.2447
1098.219, 124.0005
1098.701, 123.8277
1099.183, 123.7231
1099.665, 123.7256
1100.147, 123.8139
1100.629, 123.7584
1101.111, 123.3141
1101.594, 123.0252
1102.076, 123.1130
1102.558, 123.3186
1103.040, 123.5552
1103.522, 123.7886
1104.004, 124.0914
1104.486, 124.3818
1104.968, 124.2542
1105.450, 123.3687
1105.932, 122.7469
1106.415, 122.8588
1106.897, 122.9364
1107.379, 122.5889
1107.861, 122.1440
1108.343, 121.8609
1108.825, 121.7351
1109.307, 121.7089
1109.789, 121.7806
1110.272, 121.9323
1110.754, 122.3409
1111.236, 122.5800
1111.718, 122.3700
1112.200, 122.1367
1112.682, 122.3410
1113.164, 122.6387
1113.646, 122.3177
1114.129, 121.2950
1114.611, 120.5750
1115.093, 120.2448
1115.575, 120.1381
1116.057, 120.2946
1116.539, 120.6090
1117.021, 121.3001
1117.503, 121.9132
1117.985, 121.7461
1118.468, 120.9318
1118.950, 120.6658
1119.432, 121.3833
1119.914, 121.7254
1120.396, 121.5751
1120.878, 121.2263
1121.360, 120.6060
1121.842, 120.0536
1122.324, 119.8591
1122.807, 119.9672
1123.289, 120.2633
1123.771, 120.8611
1124.253, 120.9980
1124.735, 120.4845
1125.217, 120.0685
1125.699, 119.9189
1126.181, 119.8450
1126.664, 119.6873
1127.146, 119.6164
1127.628, 119.9680
1128.110, 120.7093
1128.592, 121.2026
1129.074, 121.4558
1129.556, 121.3283
1130.038, 120.6926
1130.521, 120.3443
1131.003, 120.7021
1131.485, 121.1183
1131.967, 120.8193
1132.449, 120.1080
1132.931, 120.1623
1133.413, 120.9680
1133.895, 121.1058
1134.377, 120.5022
1134.859, 120.0154
1135.342, 119.8890
1135.824, 119.9108
1136.306, 119.9389
1136.788, 119.9571
1137.270, 119.9940
1137.752, 119.9964
1138.234, 119.5297
1138.716, 118.7370
1139.199, 118.6160
1139.681, 119.2392
1140.163, 119.6819
1140.645, 119.5118
1141.127, 119.2535
1141.609, 119.5031
1142.091, 119.9984
1142.573, 120.3530
1143.056, 120.4959
1143.538, 120.0809
1144.020, 119.2861
1144.502, 118.7998
1144.984, 118.7850
1145.466, 118.8582
1145.948, 118.7383
1146.430, 118.6931
1146.912, 119.2654
1147.395, 119.8975
1147.877, 119.6811
1148.359, 119.0174
1148.841, 118.7459
1149.323, 118.8545
1149.805, 118.7292
1150.287, 118.1159
1150.769, 117.6801
1151.251, 118.0774
1151.734, 118.5952
1152.216, 118.7829
1152.698, 118.7358
1153.180, 118.4143
1153.662, 118.0081
1154.144, 117.8741
1154.626, 118.0418
1155.108, 118.1533
1155.591, 118.0230
1156.073, 117.9168
1156.555, 118.0013
1157.037, 118.0671
1157.519, 117.9671
1158.001, 117.7993
1158.483, 117.6296
1158.965, 117.4949
1159.448, 117.5117
1159.930, 117.7789
1160.412, 117.8335
1160.894, 117.2252
1161.376, 116.9504
1161.858, 117.6240
1162.340, 118.2760
1162.822, 118.2120
1163.304, 117.8367
1163.786, 117.7885
1164.269, 118.0472
1164.751, 117.9639
1165.233, 117.2876
1165.715, 116.8913
1166.197, 116.8892
1166.679, 117.0083
1167.161, 117.2365
1167.643, 117.3662
1168.126, 117.0517
1168.608, 117.5292
1169.090, 117.7871
1169.572, 117.8372
1170.054, 117.0571
1170.536, 117.3490
1171.018, 117.2113
1171.500, 117.0560
1171.983, 117.4987
1172.465, 116.8394
1172.947, 117.2727
1173.429, 117.2699
1173.911, 117.4666
1174.393, 117.2312
1174.875, 117.1292
1175.357, 117.4596
1175.839, 117.5506
1176.322, 117.2653
1176.804, 117.4747
1177.286, 116.8003
1177.768, 116.9015
1178.250, 117.3373
1178.732, 117.0738
1179.214, 117.2912
1179.696, 117.3254
1180.178, 116.5273
1180.661, 117.1766
1181.143, 117.2000
1181.625, 116.5807
1182.107, 117.1805
1182.589, 116.4136
1183.071, 115.9469
1183.553, 115.6920
1184.035, 116.5385
1184.518, 117.3577
1185.000, 116.9648
1185.482, 116.0434
1185.964, 115.4923
1186.446, 115.3891
1186.928, 115.5365
1187.410, 115.9594
1187.892, 116.2543
1188.375, 116.2284
1188.857, 116.1733
1189.339, 116.2498
1189.821, 116.2606
1190.303, 115.8908
1190.785, 115.4735
1191.267, 115.6601
1191.749, 116.3805
1192.231, 116.6261
1192.714, 116.1714
1193.196, 115.7246
1193.678, 115.1731
1194.160, 114.9375
1194.642, 115.2771
1195.124, 115.6407
1195.606, 115.5948
1196.088, 115.3457
1196.570, 115.3309
1197.053, 115.5162
1197.535, 115.3039
1198.017, 114.6788
1198.499, 114.3917
1198.981, 114.5310
1199.463, 114.8538
1199.945, 115.2690
1200.427, 115.6051
1200.910, 115.7263
1201.392, 115.6218
1201.874, 115.0502
1202.356, 114.3302
1202.838, 114.4320
1203.320, 115.0617
1203.802, 115.3213
1204.284, 115.1608
1204.766, 115.0952
1205.249, 115.3201
1205.731, 115.4686
1206.213, 115.1800
1206.695, 114.8292
1207.177, 114.6841
1207.659, 114.6951
1208.141, 114.9973
1208.623, 115.3120
1209.105, 115.1556
1209.588, 114.5969
1210.070, 114.1369
1210.552, 113.8847
1211.034, 113.8370
1211.516, 114.1323
1211.998, 114.4424
1212.480, 114.7457
1212.962, 114.9376
1213.445, 114.8831
1213.927, 114.7209
1214.409, 114.6905
1214.891, 114.7567
1215.373, 114.5893
1215.855, 114.0057
1216.337, 113.7261
1216.819, 113.8685
1217.302, 113.9353
1217.784, 113.7618
1218.266, 113.6539
1218.748, 113.8562
1219.230, 114.0627
1219.712, 113.7208
1220.194, 113.0343
1220.676, 113.0423
1221.158, 113.6183
1221.641, 113.7279
1222.123, 113.3828
1222.605, 113.3389
1223.087, 113.7661
1223.569, 114.0845
1224.051, 113.9136
1224.533, 113.5832
1225.015, 113.4437
1225.497, 113.3931
1225.979, 113.3245
1226.462, 113.2332
1226.944, 113.0362
1227.426, 112.8377
1227.908, 112.9191
1228.390, 113.2942
1228.872, 113.5998
1229.354, 113.6996
1229.836, 113.6836
1230.319, 113.5449
1230.801, 113.3507
1231.283, 112.9842
1231.765, 112.7152
1232.247, 112.8787
1232.729, 113.2753
1233.211, 113.4972
1233.693, 113.5400
1234.176, 113.4035
1234.658, 113.0102
1235.140, 112.6237
1235.622, 112.2035
1236.104, 111.9583
1236.586, 111.9687
1237.068, 112.1484
1237.550, 112.4726
1238.032, 112.7898
1238.515, 112.7699
1238.997, 112.5096
1239.479, 112.5838
1239.961, 112.9199
1240.443, 113.1249
1240.925, 113.1496
1241.407, 112.9091
1241.889, 112.4337
1242.371, 112.1976
1242.854, 112.5704
1243.336, 112.9245
1243.818, 112.3425
1244.300, 111.6679
1244.782, 112.0479
1245.264, 112.7309
1245.746, 112.6012
1246.228, 112.0002
1246.711, 111.9466
1247.193, 112.5393
1247.675, 112.8445
1248.157, 112.4251
1248.639, 112.0592
1249.121, 111.8394
1249.603, 111.8153
1250.085, 112.2155
1250.568, 112.5924
1251.050, 112.6469
1251.532, 112.4877
1252.014, 112.2569
1252.496, 111.9709
1252.978, 111.8235
1253.460, 111.8300
1253.942, 111.9027
1254.424, 112.0544
1254.906, 112.0017
1255.389, 111.6612
1255.871, 111.3979
1256.353, 111.4408
1256.835, 111.6161
1257.317, 111.7219
1257.799, 111.7560
1258.281, 112.0705
1258.763, 112.2385
1259.246, 112.2680
1259.728, 111.7441
1260.210, 111.9349
1260.692, 111.8392
1261.174, 111.7318
1261.656, 112.0232
1262.138, 111.5798
1262.620, 111.8648
1263.103, 111.8590
1263.585, 111.9863
1264.067, 111.8255
1264.549, 111.7536
1265.031, 111.9701
1265.513, 112.0269
1265.995, 111.8328
1266.477, 111.9686
1266.959, 111.3646
1267.442, 111.3393
1267.924, 111.3382
1268.406, 111.3646
1268.888, 111.4440
1269.370, 111.3834
1269.852, 111.0696
1270.334, 110.8307
1270.816, 111.0239
1271.298, 111.3430
1271.781, 111.0850
1272.263, 110.4931
1272.745, 110.1944
1273.227, 110.1673
1273.709, 110.4351
1274.191, 110.8698
1274.673, 111.0970
1275.155, 111.0251
##END=



