##NAMES=Actinolite
##RRUFFID=R060041
##IDEAL CHEMISTRY=Ca_2_(Mg_4.5-2.5_Fe^2+^_0.5-2.5_)Si_8_O_22_(OH)_2_
##LOCALITY=Prince of Wales Island, Alaska, USA
##OWNER=RRUFF
##SOURCE=University of Arizona Mineral Museum
##DESCRIPTION=Green acicular crystals forming parallel groups in cylindrical or bladed forms
##STATUS=The identification of this mineral has been confirmed by X-ray diffraction and chemical analysis
##URL=rruff.info/R060041
##MEASURED CHEMISTRY=(Ca_0.97_Na_0.03_)_2_(Mg_0.65_Fe^2+^_0.29_Fe^3+^_0.04_Al_0.01_Mn_0.01_)_5_(Si_0.98_Al_0.02_)_8_O_22_(OH)_2_
141.4444, 128.7174
141.9265, 128.8564
142.4086, 129.4774
142.8907, 130.2533
143.3728, 131.1523
143.8550, 132.1931
144.3371, 133.1075
144.8192, 133.7898
145.3013, 134.4276
145.7834, 135.2634
146.2655, 136.3153
146.7477, 137.5541
147.2298, 139.0227
147.7119, 140.8275
148.1940, 142.5329
148.6761, 144.0527
149.1582, 145.4998
149.6404, 147.0438
150.1225, 148.6426
150.6046, 150.3936
151.0867, 152.3555
151.5688, 155.2358
152.0509, 157.3025
152.5331, 158.4468
153.0152, 158.7823
153.4973, 158.5955
153.9794, 157.9284
154.4615, 156.7252
154.9436, 154.9400
155.4258, 151.6595
155.9079, 148.8790
156.3900, 146.8661
156.8721, 145.5353
157.3542, 144.4231
157.8363, 143.6192
158.3185, 142.9165
158.8006, 142.1843
159.2827, 141.1239
159.7648, 140.3184
160.2469, 139.9431
160.7290, 139.9754
161.2112, 140.1971
161.6933, 140.6846
162.1754, 141.2672
162.6575, 141.8022
163.1396, 142.1882
163.6217, 142.5745
164.1039, 143.0230
164.5860, 143.5339
165.0681, 144.0637
165.5502, 144.4915
166.0323, 144.9556
166.5145, 145.6188
166.9966, 146.6683
167.4787, 147.8363
167.9608, 148.8704
168.4429, 149.7388
168.9250, 150.8952
169.4071, 152.7724
169.8893, 155.0974
170.3714, 157.4439
170.8535, 159.4750
171.3356, 161.5632
171.8177, 164.0012
172.2998, 166.8151
172.7820, 169.9351
173.2641, 173.8585
173.7462, 178.0733
174.2283, 181.5071
174.7104, 183.8875
175.1925, 185.1421
175.6747, 185.2260
176.1568, 184.1901
176.6389, 181.8143
177.1210, 177.1756
177.6031, 170.8401
178.0852, 164.5611
178.5674, 158.9907
179.0495, 154.1489
179.5316, 150.0125
180.0137, 146.6231
180.4958, 143.7939
180.9779, 141.3079
181.4601, 139.1528
181.9422, 137.3215
182.4243, 135.8372
182.9064, 134.6707
183.3885, 133.7624
183.8706, 133.1372
184.3528, 132.6972
184.8349, 132.2915
185.3170, 131.9262
185.7991, 131.6444
186.2812, 131.5336
186.7633, 131.5418
187.2455, 131.4777
187.7276, 131.2702
188.2097, 131.0243
188.6918, 130.9670
189.1739, 131.0975
189.6560, 131.2269
190.1382, 131.1743
190.6203, 130.9765
191.1024, 130.8654
191.5845, 130.8931
192.0666, 131.0291
192.5487, 131.2211
193.0309, 131.4749
193.5130, 131.7431
193.9951, 131.9993
194.4772, 132.2449
194.9593, 132.4522
195.4414, 132.5593
195.9236, 132.6532
196.4057, 133.0263
196.8878, 133.6949
197.3699, 134.5350
197.8520, 135.5044
198.3341, 136.6207
198.8163, 137.6023
199.2984, 138.3270
199.7805, 138.8830
200.2626, 139.7112
200.7447, 140.8579
201.2268, 142.0831
201.7090, 143.1153
202.1911, 143.9248
202.6732, 144.8354
203.1553, 145.9305
203.6374, 147.1879
204.1195, 148.4507
204.6017, 149.7424
205.0838, 150.9824
205.5659, 152.0602
206.0480, 152.9407
206.5301, 153.8478
207.0122, 154.7425
207.4944, 155.6639
207.9765, 157.1408
208.4586, 159.4160
208.9407, 161.7492
209.4228, 163.2802
209.9049, 163.7828
210.3871, 164.3714
210.8692, 165.2750
211.3513, 166.4835
211.8334, 167.9150
212.3155, 169.5812
212.7976, 171.4518
213.2798, 173.5635
213.7619, 176.0584
214.2440, 178.3667
214.7261, 180.2808
215.2082, 181.7787
215.6903, 183.7090
216.1725, 186.3227
216.6546, 188.9885
217.1367, 190.9601
217.6188, 192.0345
218.1009, 192.9558
218.5830, 193.9870
219.0651, 195.1681
219.5473, 195.7473
220.0294, 195.7132
220.5115, 195.1048
220.9936, 193.9123
221.4757, 191.9272
221.9578, 189.8025
222.4400, 187.6250
222.9221, 185.3592
223.4042, 183.2625
223.8863, 181.2870
224.3684, 179.4918
224.8505, 177.9731
225.3327, 176.9744
225.8148, 175.7663
226.2969, 174.1629
226.7790, 172.1108
227.2611, 170.0466
227.7432, 167.8918
228.2254, 165.7659
228.7075, 163.7976
229.1896, 161.9816
229.6717, 160.3089
230.1538, 158.8026
230.6359, 157.4942
231.1181, 156.0747
231.6002, 154.4545
232.0823, 152.8062
232.5644, 151.3157
233.0465, 149.9475
233.5286, 148.7742
234.0108, 147.8587
234.4929, 147.2187
234.9750, 146.4947
235.4571, 145.5826
235.9392, 144.6948
236.4213, 144.0811
236.9035, 143.9268
237.3856, 143.7082
237.8677, 143.2701
238.3498, 142.5794
238.8319, 142.1066
239.3140, 141.9925
239.7962, 141.9674
240.2783, 141.7184
240.7604, 141.0198
241.2425, 140.5282
241.7246, 140.4244
242.2067, 140.7314
242.6889, 141.0052
243.1710, 141.3788
243.6531, 141.5888
244.1352, 141.3157
244.6173, 140.1932
245.0994, 139.2910
245.5816, 138.8949
246.0637, 139.0171
246.5458, 138.9124
247.0279, 138.4565
247.5100, 137.9000
247.9921, 137.4794
248.4743, 137.2330
248.9564, 137.0493
249.4385, 136.9626
249.9206, 136.9678
250.4027, 136.7527
250.8848, 136.1711
251.3670, 135.5361
251.8491, 135.1166
252.3312, 134.9346
252.8133, 134.9291
253.2954, 135.1944
253.7775, 135.6967
254.2597, 135.8503
254.7418, 135.4863
255.2239, 134.9832
255.7060, 134.6255
256.1881, 134.4215
256.6702, 134.3399
257.1523, 134.4238
257.6345, 134.6447
258.1166, 134.7694
258.5987, 134.8186
259.0808, 134.7401
259.5629, 134.4434
260.0450, 133.7893
260.5272, 133.3114
261.0093, 133.0758
261.4914, 133.0688
261.9735, 133.2929
262.4556, 133.9452
262.9377, 134.4828
263.4199, 134.4301
263.9020, 133.4761
264.3841, 132.9803
264.8662, 133.2596
265.3483, 134.0497
265.8304, 134.3003
266.3126, 133.8086
266.7947, 133.2116
267.2768, 132.8945
267.7589, 132.9178
268.2410, 132.9866
268.7231, 133.0876
269.2053, 133.2211
269.6874, 133.3981
270.1695, 133.6416
270.6516, 133.8728
271.1337, 134.0174
271.6158, 134.0328
272.0980, 134.2152
272.5801, 134.6623
273.0622, 135.2033
273.5443, 135.3705
274.0264, 135.0428
274.5085, 134.7701
274.9907, 134.9041
275.4728, 135.5200
275.9549, 135.8309
276.4370, 135.7057
276.9191, 135.4277
277.4012, 135.5891
277.8834, 136.2877
278.3655, 136.8948
278.8476, 137.0667
279.3297, 136.7876
279.8118, 136.6831
280.2939, 136.7591
280.7761, 137.0089
281.2582, 137.5190
281.7403, 138.3273
282.2224, 138.9860
282.7045, 139.2650
283.1866, 139.2001
283.6688, 139.2061
284.1509, 139.2789
284.6330, 139.4290
285.1151, 139.7713
285.5972, 140.3027
286.0793, 140.5869
286.5615, 140.3190
287.0436, 139.6667
287.5257, 139.4478
288.0078, 139.6993
288.4899, 140.1774
288.9720, 140.7763
289.4542, 141.4619
289.9363, 141.8503
290.4184, 141.7038
290.9005, 141.2375
291.3826, 141.0720
291.8647, 141.2226
292.3469, 141.4400
292.8290, 141.4566
293.3111, 141.3325
293.7932, 141.3687
294.2753, 141.7180
294.7574, 142.1836
295.2396, 142.4082
295.7217, 142.3964
296.2038, 142.1870
296.6859, 141.6023
297.1680, 140.8326
297.6501, 140.4219
298.1323, 140.5509
298.6144, 140.9379
299.0965, 141.2380
299.5786, 141.4576
300.0607, 141.6164
300.5428, 141.7599
301.0250, 141.8499
301.5071, 141.7979
301.9892, 141.5621
302.4713, 141.2657
302.9534, 140.9935
303.4355, 140.7610
303.9177, 140.6123
304.3998, 140.7186
304.8819, 140.8678
305.3640, 140.7008
305.8461, 140.1222
306.3282, 139.6082
306.8104, 139.7162
307.2925, 140.2014
307.7746, 140.5527
308.2567, 140.3809
308.7388, 140.0587
309.2209, 139.9682
309.7031, 140.1419
310.1852, 140.2698
310.6673, 140.0327
311.1494, 139.6400
311.6315, 139.3890
312.1136, 139.4638
312.5958, 139.6618
313.0779, 139.8479
313.5600, 140.0227
314.0421, 140.2502
314.5242, 140.6374
315.0063, 141.0577
315.4885, 141.3851
315.9706, 141.5884
316.4527, 141.6828
316.9348, 141.5852
317.4169, 141.3511
317.8990, 141.2335
318.3812, 141.4018
318.8633, 141.6840
319.3454, 141.9564
319.8275, 142.1406
320.3096, 142.4028
320.7917, 142.9416
321.2739, 143.6133
321.7560, 144.0516
322.2381, 143.9046
322.7202, 143.7046
323.2023, 143.7268
323.6844, 144.1367
324.1666, 144.4477
324.6487, 144.3474
325.1308, 144.1362
325.6129, 144.2839
326.0950, 145.2337
326.5771, 146.1917
327.0593, 146.9612
327.5414, 147.5422
328.0235, 147.8851
328.5056, 147.5882
328.9877, 147.2123
329.4698, 147.3468
329.9520, 148.6552
330.4341, 149.6914
330.9162, 150.0960
331.3983, 149.8409
331.8804, 149.8756
332.3625, 150.4404
332.8447, 151.0900
333.3268, 151.4859
333.8089, 151.4281
334.2910, 151.4865
334.7731, 151.7557
335.2552, 152.1987
335.7374, 152.5993
336.2195, 152.9262
336.7016, 153.2655
337.1837, 153.6990
337.6658, 154.2997
338.1479, 154.7087
338.6301, 154.8091
339.1122, 154.7730
339.5943, 155.0332
340.0764, 155.6783
340.5585, 156.3136
341.0406, 156.7270
341.5227, 156.9048
342.0049, 157.1329
342.4870, 157.4072
342.9691, 157.7426
343.4512, 158.1812
343.9333, 158.7355
344.4154, 159.2684
344.8976, 159.6772
345.3797, 160.0217
345.8618, 160.6620
346.3439, 161.6640
346.8260, 162.5659
347.3081, 162.7591
347.7903, 162.3626
348.2724, 162.2060
348.7545, 162.5539
349.2366, 163.2046
349.7187, 163.8444
350.2008, 164.4706
350.6830, 164.9485
351.1651, 165.0052
351.6472, 164.8505
352.1293, 165.0072
352.6114, 165.6306
353.0935, 166.3955
353.5757, 166.8961
354.0578, 167.2124
354.5399, 167.6300
355.0220, 168.3721
355.5041, 169.2771
355.9862, 170.1606
356.4684, 171.0007
356.9505, 171.7924
357.4326, 172.4134
357.9147, 172.9965
358.3968, 173.7542
358.8789, 174.9963
359.3611, 176.2831
359.8432, 177.2768
360.3253, 177.9868
360.8074, 178.7020
361.2895, 179.6550
361.7716, 180.6503
362.2538, 181.5089
362.7359, 182.1519
363.2180, 182.6860
363.7001, 183.2352
364.1822, 183.7348
364.6643, 183.9322
365.1465, 183.6142
365.6286, 183.0880
366.1107, 182.4952
366.5928, 181.7798
367.0749, 181.1509
367.5570, 180.8258
368.0392, 180.5758
368.5213, 180.0028
369.0034, 178.6745
369.4855, 177.3983
369.9676, 176.3961
370.4497, 175.7222
370.9319, 175.0733
371.4140, 174.5455
371.8961, 173.9683
372.3782, 173.1175
372.8603, 171.4590
373.3424, 170.4737
373.8246, 170.6784
374.3067, 171.8752
374.7888, 172.3570
375.2709, 171.7136
375.7530, 171.0409
376.2351, 171.1626
376.7173, 172.3904
377.1994, 173.0789
377.6815, 172.9346
378.1636, 172.3827
378.6457, 172.3845
379.1278, 173.0051
379.6100, 173.8349
380.0921, 174.7188
380.5742, 175.6557
381.0563, 176.7175
381.5384, 177.9306
382.0205, 179.1538
382.5027, 180.1865
382.9848, 181.0484
383.4669, 181.8625
383.9490, 182.7738
384.4311, 183.6140
384.9132, 183.8809
385.3954, 183.5923
385.8775, 183.2899
386.3596, 183.4442
386.8417, 183.9027
387.3238, 184.4391
387.8059, 185.1909
388.2881, 185.6078
388.7702, 184.8314
389.2523, 183.1629
389.7344, 181.5314
390.2165, 180.6255
390.6986, 179.8828
391.1808, 178.6584
391.6629, 176.8057
392.1450, 175.0557
392.6271, 173.9954
393.1092, 173.2982
393.5913, 172.5448
394.0735, 171.5379
394.5556, 170.4769
395.0377, 169.4547
395.5198, 168.4687
396.0019, 167.4537
396.4840, 166.1803
396.9662, 165.0038
397.4483, 164.1635
397.9304, 163.8760
398.4125, 163.6814
398.8946, 163.6624
399.3767, 163.6926
399.8589, 163.4617
400.3410, 162.3619
400.8231, 161.5479
401.3052, 161.4828
401.7873, 162.4821
402.2694, 162.9861
402.7516, 162.7370
403.2337, 162.1819
403.7158, 161.8087
404.1979, 161.6721
404.6800, 161.6121
405.1621, 161.6534
405.6443, 161.7628
406.1264, 161.6600
406.6085, 161.2747
407.0906, 160.8692
407.5727, 160.6291
408.0548, 160.5670
408.5370, 160.5484
409.0191, 160.6045
409.5012, 160.6264
409.9833, 160.4313
410.4654, 160.0186
410.9475, 159.4173
411.4297, 158.6120
411.9118, 157.6286
412.3939, 156.4738
412.8760, 155.1451
413.3581, 153.9316
413.8402, 153.0698
414.3224, 152.5517
414.8045, 152.3837
415.2866, 152.8202
415.7687, 153.3012
416.2508, 153.1685
416.7329, 152.5023
417.2151, 151.6614
417.6972, 150.6021
418.1793, 149.6062
418.6614, 148.9760
419.1435, 148.8342
419.6256, 148.7650
420.1078, 148.6501
420.5899, 148.4363
421.0720, 148.0403
421.5541, 147.1049
422.0362, 146.2885
422.5183, 145.8703
423.0005, 145.8591
423.4826, 145.9595
423.9647, 146.2682
424.4468, 146.5642
424.9289, 146.6979
425.4110, 146.3704
425.8932, 146.2337
426.3753, 146.4166
426.8574, 146.7935
427.3395, 147.0843
427.8216, 147.3344
428.3037, 147.4197
428.7859, 147.1996
429.2680, 146.5647
429.7501, 146.4350
430.2322, 147.0616
430.7143, 147.8301
431.1964, 147.9754
431.6786, 147.3286
432.1607, 146.9778
432.6428, 147.2514
433.1249, 147.8997
433.6070, 148.0816
434.0891, 147.7651
434.5713, 147.3748
435.0534, 147.2676
435.5355, 147.3496
436.0176, 147.1171
436.4997, 146.4886
436.9818, 145.7393
437.4640, 145.1436
437.9461, 144.6888
438.4282, 144.3369
438.9103, 144.1905
439.3924, 144.0627
439.8745, 143.6483
440.3566, 142.9887
440.8387, 142.4013
441.3209, 142.2076
441.8030, 142.1389
442.2851, 141.8772
442.7672, 141.2089
443.2493, 140.6691
443.7314, 140.5201
444.2136, 140.6958
444.6957, 141.0814
445.1778, 142.1923
445.6599, 143.0061
446.1420, 142.9172
446.6241, 141.7931
447.1063, 141.0345
447.5884, 141.1656
448.0705, 141.5381
448.5526, 141.6660
449.0347, 141.2694
449.5168, 141.0123
449.9990, 140.9109
450.4811, 140.9720
450.9632, 141.2636
451.4453, 142.0054
451.9274, 142.5620
452.4095, 142.6387
452.8917, 142.1937
453.3738, 141.7906
453.8559, 141.4346
454.3380, 141.1206
454.8201, 140.8177
455.3022, 140.5275
455.7844, 140.3839
456.2665, 140.4498
456.7486, 140.6464
457.2307, 140.8187
457.7128, 140.9671
458.1949, 141.1105
458.6771, 141.2290
459.1592, 141.3557
459.6413, 141.5993
460.1234, 141.9875
460.6055, 142.3058
461.0876, 142.3187
461.5698, 142.1405
462.0519, 141.9651
462.5340, 141.8435
463.0161, 141.7657
463.4982, 141.8168
463.9803, 141.9383
464.4625, 141.8724
464.9446, 141.1619
465.4267, 140.4832
465.9088, 140.2728
466.3909, 140.7309
466.8730, 141.2466
467.3552, 141.8347
467.8373, 142.3701
468.3194, 142.6897
468.8015, 142.5599
469.2836, 142.4829
469.7657, 142.5593
470.2479, 142.7674
470.7300, 142.8840
471.2121, 142.7993
471.6942, 142.7900
472.1763, 143.1306
472.6584, 144.0031
473.1406, 144.1839
473.6227, 143.4030
474.1048, 142.3379
474.5869, 142.0676
475.0690, 142.6067
475.5511, 143.1687
476.0333, 143.5200
476.5154, 143.7164
476.9975, 143.8799
477.4796, 144.0141
477.9617, 144.1715
478.4438, 144.4993
478.9260, 144.8540
479.4081, 144.8721
479.8902, 144.3941
480.3723, 144.0549
480.8544, 144.7157
481.3365, 145.8479
481.8187, 146.5401
482.3008, 145.7670
482.7829, 145.0131
483.2650, 145.3572
483.7471, 146.6310
484.2292, 147.4622
484.7114, 147.0971
485.1935, 146.3673
485.6756, 145.7190
486.1577, 145.0486
486.6398, 144.7700
487.1219, 145.2912
487.6041, 146.0932
488.0862, 146.4773
488.5683, 146.1131
489.0504, 145.9004
489.5325, 146.1089
490.0146, 146.6553
490.4968, 146.8192
490.9789, 146.4449
491.4610, 146.0891
491.9431, 146.1732
492.4252, 146.7063
492.9073, 147.0190
493.3895, 147.0379
493.8716, 146.9540
494.3537, 146.9601
494.8358, 147.0705
495.3179, 147.3854
495.8000, 148.0811
496.2822, 148.8775
496.7643, 149.2999
497.2464, 149.4039
497.7285, 149.4824
498.2106, 149.7396
498.6927, 150.0603
499.1749, 150.2938
499.6570, 150.3799
500.1391, 150.5788
500.6212, 151.1478
501.1033, 151.8613
501.5854, 152.4618
502.0676, 152.8536
502.5497, 153.1354
503.0318, 153.3140
503.5139, 153.3977
503.9960, 153.4330
504.4781, 153.3495
504.9603, 153.2962
505.4424, 153.3415
505.9245, 153.5232
506.4066, 153.6422
506.8887, 153.6297
507.3708, 153.6449
507.8530, 153.9264
508.3351, 154.5557
508.8172, 154.9488
509.2993, 154.9368
509.7814, 154.6967
510.2635, 154.6433
510.7457, 154.7738
511.2278, 154.9710
511.7099, 155.1935
512.1920, 155.4287
512.6741, 155.6759
513.1563, 155.9358
513.6384, 156.1297
514.1205, 156.1869
514.6026, 156.1371
515.0847, 156.0273
515.5668, 155.8906
516.0490, 155.6620
516.5311, 155.0770
517.0132, 154.3851
517.4953, 154.0896
517.9774, 154.7481
518.4595, 155.4859
518.9417, 156.0285
519.4238, 156.3646
519.9059, 156.3962
520.3880, 155.5941
520.8701, 154.8852
521.3522, 154.8191
521.8344, 155.9478
522.3165, 156.5628
522.7986, 156.4663
523.2807, 156.0061
523.7628, 155.7870
524.2449, 155.8768
524.7271, 155.8171
525.2092, 155.3865
525.6913, 154.7396
526.1734, 154.4533
526.6555, 154.5336
527.1376, 154.6974
527.6198, 154.8338
528.1019, 154.8937
528.5840, 154.6942
529.0661, 154.1851
529.5482, 153.7036
530.0303, 153.6478
530.5125, 153.8023
530.9946, 153.8203
531.4767, 153.3603
531.9588, 152.9921
532.4409, 153.1959
532.9230, 153.7544
533.4052, 154.0432
533.8873, 153.7552
534.3694, 153.2500
534.8515, 152.5880
535.3336, 151.6876
535.8157, 151.1017
536.2979, 150.9665
536.7800, 151.0271
537.2621, 151.1391
537.7442, 151.4137
538.2263, 151.4238
538.7084, 151.0366
539.1906, 150.4793
539.6727, 150.2207
540.1548, 150.2813
540.6369, 150.3484
541.1190, 150.2630
541.6011, 150.1211
542.0833, 150.2814
542.5654, 150.7280
543.0475, 151.1261
543.5296, 151.2288
544.0117, 151.1230
544.4938, 150.9018
544.9760, 150.5480
545.4581, 150.2386
545.9402, 150.0874
546.4223, 150.0593
546.9044, 150.1097
547.3865, 150.3514
547.8687, 150.5302
548.3508, 150.4436
548.8329, 150.2094
549.3150, 150.2073
549.7971, 150.9319
550.2792, 151.4598
550.7614, 151.4157
551.2435, 150.7302
551.7256, 150.3621
552.2077, 150.4948
552.6898, 150.6796
553.1719, 150.4934
553.6541, 149.8524
554.1362, 149.5791
554.6183, 149.8384
555.1004, 150.2853
555.5825, 150.2904
556.0646, 149.9321
556.5468, 149.7372
557.0289, 150.0146
557.5110, 150.4585
557.9931, 150.5948
558.4752, 150.4665
558.9573, 150.3046
559.4395, 150.2494
559.9216, 150.2200
560.4037, 150.1333
560.8858, 149.9705
561.3679, 149.8412
561.8500, 149.8145
562.3322, 149.8298
562.8143, 149.8341
563.2964, 149.7759
563.7785, 149.7648
564.2606, 149.8232
564.7427, 149.9288
565.2249, 150.0570
565.7070, 150.2811
566.1891, 150.3603
566.6712, 150.1736
567.1533, 149.7765
567.6354, 149.4981
568.1176, 149.3362
568.5997, 149.3051
569.0818, 149.5156
569.5639, 149.8810
570.0460, 150.0061
570.5281, 149.8358
571.0103, 149.6646
571.4924, 149.8935
571.9745, 150.3033
572.4566, 150.4969
572.9387, 150.2318
573.4208, 149.9201
573.9030, 149.8095
574.3851, 149.8488
574.8672, 149.9234
575.3493, 150.1010
575.8314, 150.2031
576.3135, 150.1230
576.7957, 149.8573
577.2778, 149.6482
577.7599, 149.4873
578.2420, 149.3993
578.7241, 149.4269
579.2062, 149.6315
579.6884, 149.7015
580.1705, 149.6274
580.6526, 149.4397
581.1347, 149.1100
581.6168, 148.6460
582.0989, 148.3409
582.5811, 148.2955
583.0632, 148.3682
583.5453, 148.3114
584.0274, 148.1701
584.5095, 148.1104
584.9916, 148.2858
585.4738, 148.5334
585.9559, 148.7531
586.4380, 148.9270
586.9201, 148.9609
587.4022, 148.5995
587.8843, 148.2343
588.3664, 148.1732
588.8485, 148.6273
589.3306, 148.8268
589.8127, 148.3238
590.2949, 147.7431
590.7770, 147.6773
591.2591, 148.4774
591.7412, 148.9554
592.2233, 148.8860
592.7054, 148.5298
593.1876, 148.5097
593.6697, 148.8660
594.1518, 149.0564
594.6339, 148.7632
595.1160, 148.2239
595.5981, 148.0562
596.0803, 148.2289
596.5624, 148.4389
597.0445, 148.4144
597.5266, 148.3429
598.0087, 148.4954
598.4908, 148.9123
598.9730, 149.2923
599.4551, 149.5049
599.9372, 149.5829
600.4193, 149.5429
600.9014, 149.1817
601.3835, 149.0047
601.8657, 149.3569
602.3478, 149.8495
602.8299, 149.8714
603.3120, 149.0953
603.7941, 148.4740
604.2762, 148.1607
604.7584, 148.1554
605.2405, 148.5784
605.7226, 149.5157
606.2047, 150.2832
606.6868, 150.4919
607.1689, 150.2520
607.6511, 149.8131
608.1332, 149.1759
608.6153, 148.7361
609.0974, 148.9563
609.5795, 149.5076
610.0616, 149.9526
610.5438, 150.1925
611.0259, 150.3958
611.5080, 150.6877
611.9901, 150.9772
612.4722, 151.1592
612.9543, 151.1274
613.4365, 151.0788
613.9186, 151.0052
614.4007, 150.9401
614.8828, 150.9704
615.3649, 151.1338
615.8470, 151.3083
616.3292, 151.4413
616.8113, 151.5497
617.2934, 151.7907
617.7755, 152.1862
618.2576, 152.5513
618.7397, 152.7780
619.2219, 152.8790
619.7040, 152.8081
620.1861, 152.5466
620.6682, 152.4344
621.1503, 153.0085
621.6324, 153.7997
622.1146, 154.1969
622.5967, 153.8616
623.0788, 153.5555
623.5609, 153.6033
624.0430, 153.8860
624.5251, 154.2328
625.0073, 154.8238
625.4894, 155.2189
625.9715, 155.2137
626.4536, 154.9829
626.9357, 155.1265
627.4178, 155.7503
627.9000, 156.4631
628.3821, 157.1709
628.8642, 157.8493
629.3463, 158.2910
629.8284, 158.4873
630.3105, 158.6290
630.7927, 158.8433
631.2748, 159.1012
631.7569, 159.3398
632.2390, 159.5487
632.7211, 159.7952
633.2032, 160.0745
633.6854, 160.4443
634.1675, 160.9799
634.6496, 161.8499
635.1317, 162.6324
635.6138, 163.2220
636.0959, 163.6624
636.5781, 164.0043
637.0602, 164.1049
637.5423, 164.3618
638.0244, 164.8707
638.5065, 165.5660
638.9886, 166.2642
639.4708, 166.9612
639.9529, 167.6805
640.4350, 168.4057
640.9171, 169.1603
641.3992, 170.0273
641.8813, 170.9931
642.3635, 171.9617
642.8456, 172.8225
643.3277, 173.6540
643.8098, 174.5655
644.2919, 175.5685
644.7740, 176.5466
645.2562, 177.2483
645.7383, 177.9930
646.2204, 179.0538
646.7025, 180.8209
647.1846, 182.3278
647.6667, 183.3251
648.1489, 184.1787
648.6310, 185.3708
649.1131, 186.9412
649.5952, 188.6779
650.0773, 190.6180
650.5594, 192.6363
651.0416, 194.3250
651.5237, 195.7345
652.0058, 197.6452
652.4879, 200.5534
652.9700, 204.0753
653.4521, 207.8657
653.9343, 211.8865
654.4164, 215.7926
654.8985, 219.0754
655.3806, 222.4294
655.8627, 226.3601
656.3448, 230.9587
656.8270, 235.5360
657.3091, 239.7917
657.7912, 244.1524
658.2733, 248.8065
658.7554, 253.7839
659.2375, 258.9489
659.7197, 264.2652
660.2018, 269.8241
660.6839, 275.6552
661.1660, 281.7617
661.6481, 288.4724
662.1302, 295.9253
662.6124, 303.7276
663.0945, 311.1999
663.5766, 318.5932
664.0587, 326.6161
664.5408, 336.0920
665.0229, 345.4884
665.5051, 353.6315
665.9872, 360.8663
666.4693, 368.0444
666.9514, 376.4292
667.4335, 383.7858
667.9156, 389.3919
668.3978, 393.3161
668.8799, 396.0395
669.3620, 397.9119
669.8441, 397.9229
670.3262, 395.6347
670.8083, 391.0652
671.2905, 384.3746
671.7726, 375.4970
672.2547, 365.0385
672.7368, 353.3503
673.2189, 340.6708
673.7010, 327.3853
674.1832, 313.3716
674.6653, 299.8793
675.1474, 287.5541
675.6295, 276.1452
676.1116, 265.4810
676.5938, 255.4825
677.0759, 246.3339
677.5580, 238.0350
678.0401, 230.6802
678.5222, 224.2700
679.0043, 218.9712
679.4865, 214.2839
679.9686, 210.2156
680.4507, 206.6135
680.9328, 202.8710
681.4149, 199.0229
681.8970, 195.6108
682.3792, 192.9107
682.8613, 190.7167
683.3434, 188.7548
683.8255, 186.9964
684.3076, 185.1636
684.7897, 182.8889
685.2719, 180.6871
685.7540, 178.9571
686.2361, 177.7010
686.7182, 176.5968
687.2003, 175.4672
687.6824, 174.5858
688.1646, 174.2032
688.6467, 174.4802
689.1288, 174.0354
689.6109, 172.5859
690.0930, 171.0229
690.5751, 170.0649
691.0573, 169.6726
691.5394, 169.2803
692.0215, 168.8673
692.5036, 168.3481
692.9857, 167.5036
693.4678, 166.5283
693.9500, 165.7870
694.4321, 165.4409
694.9142, 165.1099
695.3963, 164.4584
695.8784, 163.7350
696.3605, 163.2633
696.8427, 163.3260
697.3248, 163.3816
697.8069, 163.4565
698.2890, 163.4610
698.7711, 163.1828
699.2532, 162.5553
699.7354, 161.9104
700.2175, 161.3077
700.6996, 160.7659
701.1817, 160.3319
701.6638, 160.0030
702.1459, 159.7508
702.6281, 159.6257
703.1102, 159.5273
703.5923, 159.2746
704.0744, 158.9214
704.5565, 158.7328
705.0386, 158.9392
705.5208, 159.2379
706.0029, 159.5354
706.4850, 159.8291
706.9671, 159.8788
707.4492, 159.4874
707.9313, 159.1313
708.4135, 159.1630
708.8956, 159.6259
709.3777, 159.5043
709.8598, 158.7029
710.3419, 157.9180
710.8240, 157.8975
711.3062, 158.3617
711.7883, 158.6618
712.2704, 158.7153
712.7525, 158.6562
713.2346, 158.4856
713.7167, 158.3075
714.1989, 158.2318
714.6810, 158.3142
715.1631, 158.4497
715.6452, 158.7136
716.1273, 158.9748
716.6094, 159.0892
717.0916, 159.0081
717.5737, 158.9141
718.0558, 158.8102
718.5379, 158.7287
719.0200, 158.7482
719.5021, 158.8523
719.9843, 158.9329
720.4664, 158.9547
720.9485, 158.9359
721.4306, 158.7837
721.9127, 158.6077
722.3948, 158.6707
722.8770, 159.3940
723.3591, 160.0550
723.8412, 160.2225
724.3233, 160.0451
724.8054, 160.1758
725.2875, 160.8319
725.7697, 161.4925
726.2518, 162.0524
726.7339, 162.4877
727.2160, 162.6320
727.6981, 162.4568
728.1802, 162.3439
728.6624, 162.4848
729.1445, 162.8428
729.6266, 163.4682
730.1087, 164.3073
730.5908, 164.9639
731.0729, 165.1031
731.5551, 165.0471
732.0372, 164.9162
732.5193, 164.6985
733.0014, 164.8620
733.4835, 165.9683
733.9656, 167.0574
734.4478, 167.6193
734.9299, 167.5503
735.4120, 167.7173
735.8941, 168.1807
736.3762, 168.6728
736.8583, 168.9324
737.3405, 169.0208
737.8226, 169.1804
738.3047, 169.4405
738.7868, 169.6829
739.2689, 169.8552
739.7510, 169.9286
740.2332, 169.8740
740.7153, 169.6891
741.1974, 169.3575
741.6795, 168.6861
742.1616, 167.9746
742.6437, 167.4965
743.1259, 167.2485
743.6080, 167.2896
744.0901, 167.7300
744.5722, 168.2773
745.0543, 168.5453
745.5364, 168.5481
746.0186, 168.3963
746.5007, 168.1051
746.9828, 167.7020
747.4649, 167.1293
747.9470, 166.4879
748.4291, 165.9414
748.9113, 165.5845
749.3934, 165.2889
749.8755, 165.0356
750.3576, 164.8092
750.8397, 164.5884
751.3218, 164.4434
751.8040, 164.1667
752.2861, 163.6975
752.7682, 163.0933
753.2503, 162.4360
753.7324, 161.7387
754.2145, 161.1025
754.6967, 160.4600
755.1788, 160.0350
755.6609, 160.5439
756.1430, 161.5807
756.6251, 161.9951
757.1072, 160.4341
757.5894, 158.9590
758.0715, 158.7165
758.5536, 159.4333
759.0357, 159.6938
759.5178, 159.0289
759.9999, 158.5661
760.4821, 158.7164
760.9642, 159.3161
761.4463, 159.6303
761.9284, 159.6551
762.4105, 159.4681
762.8926, 158.9062
763.3748, 158.2539
763.8569, 158.0431
764.3390, 158.2046
764.8211, 158.3962
765.3032, 158.6301
765.7853, 158.6682
766.2675, 158.1522
766.7496, 157.0982
767.2317, 156.7393
767.7138, 157.6861
768.1959, 158.5180
768.6780, 158.5644
769.1602, 157.9001
769.6423, 157.4660
770.1244, 157.2594
770.6065, 157.3303
771.0886, 158.0343
771.5707, 158.9149
772.0529, 159.0381
772.5350, 158.4248
773.0171, 157.8570
773.4992, 157.8226
773.9813, 157.9536
774.4634, 158.0145
774.9456, 157.9668
775.4277, 157.9605
775.9098, 157.9831
776.3919, 158.0734
776.8740, 158.3424
777.3561, 158.7980
777.8383, 158.7522
778.3204, 158.1592
778.8025, 157.5907
779.2846, 157.6575
779.7667, 158.0209
780.2488, 157.9809
780.7310, 157.4750
781.2131, 157.2509
781.6952, 158.3019
782.1773, 159.3633
782.6594, 159.4028
783.1415, 157.8314
783.6237, 156.9639
784.1058, 157.0042
784.5879, 157.4527
785.0699, 158.1151
785.5521, 158.9903
786.0342, 159.3200
786.5163, 159.0473
786.9984, 158.5744
787.4805, 158.0407
787.9626, 157.6369
788.4448, 157.7516
788.9269, 158.5080
789.4090, 159.0976
789.8911, 159.1656
790.3732, 158.9011
790.8553, 158.3462
791.3375, 157.1966
791.8196, 156.7809
792.3017, 157.3655
792.7838, 158.1928
793.2659, 158.7241
793.7480, 158.9518
794.2302, 158.7001
794.7123, 157.8955
795.1944, 157.2348
795.6765, 157.5685
796.1586, 158.3042
796.6407, 158.6806
797.1229, 158.5082
797.6050, 158.3059
798.0871, 158.2443
798.5692, 158.2377
799.0513, 158.2132
799.5334, 158.1435
800.0156, 158.1609
800.4977, 158.2964
800.9798, 158.4486
801.4619, 158.4792
801.9440, 158.4320
802.4261, 158.5375
802.9083, 158.8277
803.3904, 159.1311
803.8725, 159.3856
804.3546, 159.5296
804.8367, 159.4424
805.3188, 158.9903
805.8010, 158.7260
806.2831, 158.9839
806.7652, 159.3092
807.2473, 159.3831
807.7294, 159.1304
808.2115, 158.9974
808.6937, 159.0134
809.1758, 159.0488
809.6579, 158.9164
810.1400, 158.7154
810.6221, 158.7364
811.1042, 159.0286
811.5864, 159.3030
812.0685, 159.3157
812.5506, 159.2568
813.0327, 159.2944
813.5148, 159.5002
813.9969, 159.6435
814.4791, 159.6754
814.9612, 159.6892
815.4433, 159.7715
815.9254, 159.9256
816.4075, 159.9488
816.8896, 159.8183
817.3718, 159.7191
817.8539, 159.9270
818.3360, 160.2315
818.8181, 160.2522
819.3002, 159.9241
819.7823, 159.7161
820.2645, 159.8696
820.7466, 160.2037
821.2287, 160.7109
821.7108, 161.5484
822.1929, 161.6140
822.6750, 160.5785
823.1572, 159.5723
823.6393, 159.5440
824.1214, 160.3017
824.6035, 160.8755
825.0856, 161.2280
825.5677, 161.4489
826.0499, 161.7061
826.5320, 161.7897
827.0141, 161.3241
827.4962, 160.2255
827.9783, 159.5699
828.4604, 160.0926
828.9426, 160.6643
829.4247, 160.7410
829.9068, 160.3072
830.3889, 160.1299
830.8710, 160.2211
831.3531, 160.4816
831.8353, 160.9910
832.3174, 161.5737
832.7995, 161.8291
833.2816, 161.7775
833.7637, 161.7061
834.2458, 161.8384
834.7280, 161.9444
835.2101, 161.8340
835.6922, 161.4927
836.1743, 161.3560
836.6564, 161.4922
837.1385, 161.7013
837.6207, 161.9247
838.1028, 162.1453
838.5849, 162.3267
839.0670, 162.4565
839.5491, 162.4041
840.0313, 161.8531
840.5134, 161.2620
840.9955, 161.0529
841.4776, 161.1960
841.9597, 161.4788
842.4418, 162.1006
842.9240, 162.5506
843.4061, 162.6373
843.8882, 162.4403
844.3703, 162.2856
844.8524, 162.1696
845.3345, 162.1290
845.8167, 162.2345
846.2988, 162.3634
846.7809, 162.1930
847.2630, 161.8493
847.7451, 161.7059
848.2272, 162.1405
848.7094, 162.6019
849.1915, 163.0024
849.6736, 163.2329
850.1557, 162.9873
850.6378, 161.8995
851.1199, 161.1544
851.6021, 160.9866
852.0842, 161.2696
852.5663, 161.9536
853.0484, 162.9160
853.5305, 163.5242
854.0126, 163.4764
854.4948, 163.2065
854.9769, 162.9974
855.4590, 162.8457
855.9411, 162.7486
856.4232, 162.5468
856.9053, 162.6501
857.3875, 163.3665
857.8696, 164.1396
858.3517, 164.1176
858.8338, 163.2552
859.3159, 162.7127
859.7980, 162.6837
860.2802, 162.8899
860.7623, 163.0638
861.2444, 163.2476
861.7265, 163.5387
862.2086, 164.0228
862.6907, 164.4022
863.1729, 164.5230
863.6550, 164.5182
864.1371, 164.5020
864.6192, 164.4836
865.1013, 164.4031
865.5834, 164.2326
866.0656, 164.0870
866.5477, 164.0888
867.0298, 164.1900
867.5119, 164.2398
867.9940, 164.2231
868.4761, 164.3071
868.9583, 164.8125
869.4404, 165.2883
869.9225, 165.4052
870.4046, 165.0816
870.8867, 164.6418
871.3688, 163.8761
871.8510, 163.4194
872.3331, 163.7402
872.8152, 164.6673
873.2973, 165.4135
873.7794, 165.9578
874.2615, 166.0847
874.7437, 165.1380
875.2258, 164.1390
875.7079, 164.0766
876.1900, 164.7942
876.6721, 165.2963
877.1542, 165.2392
877.6364, 165.0746
878.1185, 164.8515
878.6006, 164.6108
879.0827, 164.4957
879.5648, 164.5065
880.0469, 164.6271
880.5291, 164.9147
881.0112, 165.2196
881.4933, 165.2540
881.9754, 165.1742
882.4575, 165.3026
882.9396, 166.0389
883.4218, 166.6488
883.9039, 167.0856
884.3860, 167.2429
884.8681, 166.7864
885.3502, 165.5193
885.8323, 164.9619
886.3145, 165.4614
886.7966, 166.2648
887.2787, 166.3922
887.7608, 166.1255
888.2429, 165.9677
888.7250, 166.0349
889.2072, 166.2010
889.6893, 166.5132
890.1714, 166.8319
890.6535, 167.0581
891.1356, 167.2330
891.6177, 167.0837
892.0999, 166.4870
892.5820, 165.9907
893.0641, 166.2489
893.5462, 166.9343
894.0283, 167.1362
894.5104, 166.8289
894.9926, 166.5830
895.4747, 166.8968
895.9568, 167.2471
896.4389, 167.2570
896.9210, 166.9095
897.4031, 166.7154
897.8853, 166.6817
898.3674, 166.7960
898.8495, 167.1110
899.3316, 167.5394
899.8137, 167.7884
900.2958, 167.8999
900.7780, 168.0888
901.2601, 168.6417
901.7422, 169.1394
902.2243, 169.3460
902.7064, 169.2962
903.1885, 169.0410
903.6707, 168.3472
904.1528, 167.9207
904.6349, 167.8857
905.1170, 168.1374
905.5991, 168.6337
906.0812, 169.2923
906.5634, 169.6675
907.0455, 169.5833
907.5276, 169.4488
908.0097, 169.7773
908.4918, 170.1620
908.9739, 170.0884
909.4561, 168.9766
909.9382, 168.4795
910.4203, 168.8207
910.9024, 169.4943
911.3845, 170.2303
911.8666, 170.9870
912.3488, 171.1292
912.8309, 170.6298
913.3130, 170.3385
913.7951, 171.2515
914.2772, 172.4172
914.7593, 172.8683
915.2415, 172.5582
915.7236, 172.5424
916.2057, 173.1608
916.6878, 173.8213
917.1699, 174.3205
917.6520, 174.6928
918.1342, 175.0292
918.6163, 175.3414
919.0984, 175.8075
919.5805, 176.6203
920.0626, 177.5020
920.5447, 178.1578
921.0269, 178.6828
921.5090, 179.2952
921.9911, 180.4286
922.4732, 181.0851
922.9553, 180.9150
923.4374, 180.4897
923.9196, 180.7487
924.4017, 181.6513
924.8838, 182.3725
925.3659, 182.7778
925.8480, 183.0548
926.3301, 183.4000
926.8123, 183.7072
927.2944, 183.8088
927.7765, 183.5580
928.2586, 183.6014
928.7407, 184.3898
929.2228, 184.9554
929.7050, 184.5798
930.1871, 183.3351
930.6692, 182.3940
931.1513, 181.7537
931.6334, 181.3831
932.1155, 181.5960
932.5977, 181.8045
933.0798, 181.3932
933.5619, 180.4636
934.0440, 179.5735
934.5261, 178.7472
935.0082, 178.1037
935.4904, 177.6931
935.9725, 177.4566
936.4546, 177.2489
936.9367, 177.0713
937.4188, 176.9552
937.9009, 176.9760
938.3831, 176.8953
938.8652, 176.3481
939.3473, 175.6151
939.8294, 175.0810
940.3115, 174.9055
940.7936, 174.7807
941.2758, 174.6760
941.7579, 174.6468
942.2400, 174.7870
942.7221, 175.0699
943.2042, 175.2556
943.6863, 175.3299
944.1685, 175.3940
944.6506, 175.7013
945.1327, 175.8906
945.6148, 175.5393
946.0969, 174.6440
946.5790, 174.0107
947.0612, 173.7857
947.5433, 173.6495
948.0254, 173.5157
948.5075, 173.3804
948.9896, 173.2069
949.4717, 173.0140
949.9539, 172.9072
950.4360, 173.0291
950.9181, 173.1092
951.4002, 172.8587
951.8823, 172.4850
952.3644, 172.3412
952.8466, 172.7493
953.3287, 172.7230
953.8108, 172.0621
954.2929, 171.3032
954.7750, 171.1607
955.2571, 171.4205
955.7393, 171.3239
956.2214, 170.7849
956.7035, 170.4113
957.1856, 170.8690
957.6677, 171.4031
958.1498, 171.3449
958.6320, 170.6794
959.1141, 170.6817
959.5962, 171.5888
960.0783, 172.3368
960.5604, 172.4057
961.0425, 172.0507
961.5247, 171.7640
962.0068, 171.5316
962.4889, 171.3033
962.9710, 170.9815
963.4531, 170.7514
963.9352, 170.6975
964.4174, 170.7750
964.8995, 170.9594
965.3816, 171.3270
965.8637, 171.4047
966.3458, 171.0988
966.8279, 170.7433
967.3101, 170.7374
967.7922, 170.9163
968.2743, 171.0481
968.7564, 171.1082
969.2385, 171.0563
969.7206, 170.6419
970.2028, 170.3550
970.6849, 170.4144
971.1670, 170.7942
971.6491, 171.4262
972.1312, 172.3132
972.6133, 172.8344
973.0955, 172.4794
973.5776, 171.8147
974.0597, 171.3700
974.5418, 171.1332
975.0239, 171.0782
975.5060, 171.3322
975.9882, 171.6027
976.4703, 171.9238
976.9524, 172.1745
977.4345, 172.1499
977.9166, 171.8900
978.3987, 171.7497
978.8809, 171.7791
979.3630, 171.7905
979.8451, 171.4854
980.3272, 171.2047
980.8093, 171.2737
981.2914, 171.7456
981.7736, 172.2416
982.2557, 172.8586
982.7377, 173.2334
983.2198, 173.1299
983.7020, 172.7442
984.1841, 172.5912
984.6662, 172.6266
985.1483, 172.6928
985.6304, 172.7103
986.1125, 172.7541
986.5947, 172.9569
987.0768, 173.1566
987.5589, 173.0929
988.0410, 172.6096
988.5231, 172.4951
989.0052, 172.8842
989.4874, 173.2170
989.9695, 172.6083
990.4516, 171.7065
990.9337, 171.6907
991.4158, 172.6264
991.8979, 173.5103
992.3801, 173.9853
992.8622, 174.2786
993.3443, 174.4838
993.8264, 174.5909
994.3085, 174.5107
994.7906, 174.2491
995.2728, 173.9799
995.7549, 173.7046
996.2370, 173.5753
996.7191, 173.8817
997.2012, 174.3931
997.6833, 174.7713
998.1655, 174.7123
998.6476, 174.9269
999.1297, 175.5553
999.6118, 176.2448
1000.094, 176.7453
1000.576, 177.0404
1001.058, 176.8645
1001.540, 176.2613
1002.022, 175.8811
1002.505, 176.4466
1002.987, 177.0826
1003.469, 177.0285
1003.951, 176.5445
1004.433, 176.8871
1004.915, 178.3722
1005.397, 179.4161
1005.879, 179.5592
1006.361, 179.3371
1006.844, 179.5569
1007.326, 179.9997
1007.808, 180.1967
1008.290, 179.8507
1008.772, 179.8930
1009.254, 181.1190
1009.736, 182.3688
1010.218, 182.8784
1010.701, 182.6577
1011.183, 183.0079
1011.665, 183.9155
1012.147, 184.6735
1012.629, 184.5280
1013.111, 184.3000
1013.593, 184.7660
1014.075, 185.7500
1014.557, 186.7259
1015.040, 187.6414
1015.522, 188.5286
1016.004, 189.3957
1016.486, 190.2258
1016.968, 190.9251
1017.450, 191.5745
1017.932, 192.4779
1018.414, 193.6972
1018.896, 194.7531
1019.379, 195.1874
1019.861, 195.5375
1020.343, 196.1558
1020.825, 197.0121
1021.307, 197.7103
1021.789, 198.2178
1022.271, 198.9330
1022.753, 200.1488
1023.236, 201.4775
1023.718, 202.5129
1024.200, 203.2677
1024.682, 203.7594
1025.164, 203.8445
1025.646, 203.8889
1026.128, 203.8946
1026.610, 203.9170
1027.093, 204.1582
1027.575, 204.5090
1028.057, 204.1909
1028.539, 203.2049
1029.021, 201.9729
1029.503, 200.4567
1029.985, 199.0928
1030.467, 198.3797
1030.949, 198.0691
1031.432, 197.1082
1031.914, 195.2807
1032.396, 193.7214
1032.878, 192.7371
1033.360, 191.9491
1033.842, 190.7290
1034.324, 189.4167
1034.806, 188.5977
1035.288, 188.4960
1035.771, 188.3334
1036.253, 187.8364
1036.735, 187.3330
1037.217, 186.9472
1037.699, 186.6898
1038.181, 186.7389
1038.663, 187.0446
1039.145, 187.1856
1039.628, 186.4847
1040.110, 186.0728
1040.592, 187.1055
1041.074, 188.7728
1041.556, 189.6773
1042.038, 189.3812
1042.520, 189.5469
1043.002, 190.3195
1043.484, 191.2863
1043.967, 192.0059
1044.449, 192.6822
1044.931, 193.7574
1045.413, 195.2061
1045.895, 196.5314
1046.377, 197.4017
1046.859, 198.3399
1047.341, 199.5520
1047.823, 200.8780
1048.306, 201.8746
1048.788, 202.5993
1049.270, 203.4443
1049.752, 204.5061
1050.234, 205.6869
1050.716, 207.0844
1051.198, 208.4389
1051.680, 209.4611
1052.163, 210.1045
1052.645, 210.9147
1053.127, 211.9968
1053.609, 212.7580
1054.091, 212.7454
1054.573, 212.3381
1055.055, 212.0279
1055.537, 211.8285
1056.020, 211.7626
1056.502, 212.1752
1056.984, 212.2241
1057.466, 211.7410
1057.948, 210.9969
1058.430, 210.1982
1058.912, 209.3691
1059.394, 208.6195
1059.876, 207.9682
1060.359, 207.5566
1060.841, 207.6111
1061.323, 207.8065
1061.805, 207.9534
1062.287, 208.0830
1062.769, 208.3765
1063.251, 208.8995
1063.733, 209.0632
1064.215, 208.6476
1064.698, 208.1823
1065.180, 208.6204
1065.662, 209.2089
1066.144, 208.9303
1066.626, 207.5002
1067.108, 205.9416
1067.590, 204.3669
1068.072, 202.6611
1068.555, 200.6927
1069.037, 198.6246
1069.519, 196.9959
1070.001, 195.7102
1070.483, 194.4133
1070.965, 192.8934
1071.447, 191.4569
1071.929, 190.1843
1072.411, 189.0891
1072.894, 188.2368
1073.376, 187.6729
1073.858, 186.7078
1074.340, 185.3437
1074.822, 184.2523
1075.304, 184.3597
1075.786, 184.5797
1076.268, 183.7845
1076.750, 182.3194
1077.233, 181.4651
1077.715, 181.5419
1078.197, 181.5159
1078.679, 181.2331
1079.161, 180.8572
1079.643, 180.6377
1080.125, 180.4492
1080.607, 180.0129
1081.090, 179.2897
1081.572, 178.7082
1082.054, 178.3175
1082.536, 178.2216
1083.018, 178.5961
1083.500, 179.1902
1083.982, 179.2035
1084.464, 178.7694
1084.946, 178.5853
1085.429, 178.9842
1085.911, 179.2690
1086.393, 178.8284
1086.875, 178.2498
1087.357, 178.0853
1087.839, 178.3742
1088.321, 178.3398
1088.803, 177.9641
1089.286, 177.5757
1089.768, 177.3147
1090.250, 177.1637
1090.732, 177.1354
1091.214, 177.1963
1091.696, 177.2873
1092.178, 177.4094
1092.660, 177.5511
1093.142, 177.7388
1093.625, 177.8669
1094.107, 177.8442
1094.589, 177.6906
1095.071, 177.3231
1095.553, 176.8145
1096.035, 176.5775
1096.517, 177.2046
1096.999, 177.5483
1097.481, 177.2249
1097.964, 176.6336
1098.446, 176.4387
1098.928, 176.5705
1099.410, 176.6985
1099.892, 176.7780
1100.374, 176.7595
1100.856, 176.4391
1101.338, 176.1735
1101.821, 176.2228
1102.303, 176.5198
1102.785, 176.8662
1103.267, 177.2753
1103.749, 177.1286
1104.231, 175.9983
1104.713, 174.9382
1105.195, 175.2061
1105.677, 175.9961
1106.160, 176.3284
1106.642, 175.8885
1107.124, 176.1325
1107.606, 177.3176
1108.088, 178.1655
1108.570, 177.8171
1109.052, 176.9273
1109.534, 176.5028
1110.016, 176.4166
1110.499, 176.3943
1110.981, 176.3877
1111.463, 176.3872
1111.945, 176.3932
1112.427, 176.4035
1112.909, 176.4557
1113.391, 176.5099
1113.873, 176.3581
1114.356, 176.0434
1114.838, 175.8320
1115.320, 175.9901
1115.802, 176.0987
1116.284, 175.9276
1116.766, 175.7075
1117.248, 175.7905
1117.730, 176.1532
1118.213, 176.5135
1118.695, 176.8424
1119.177, 176.8853
1119.659, 176.0574
1120.141, 175.2421
1120.623, 175.0676
1121.105, 175.4077
1121.587, 175.8546
1122.069, 176.4447
1122.552, 176.7464
1123.034, 176.6351
1123.516, 176.3792
1123.998, 176.0291
1124.480, 175.8330
1124.962, 176.2402
1125.444, 177.3768
1125.926, 177.6543
1126.408, 176.7851
1126.891, 176.0616
1127.373, 176.0302
1127.855, 176.2328
1128.337, 175.8222
1128.819, 175.1737
1129.301, 174.9545
1129.783, 175.5170
1130.265, 175.9028
1130.748, 176.0359
1131.230, 175.9673
1131.712, 175.6399
1132.194, 175.1780
1132.676, 174.9149
1133.158, 174.8237
1133.640, 174.8138
1134.122, 174.9305
1134.604, 174.9945
1135.087, 174.8192
1135.569, 174.7464
1136.051, 175.1776
1136.533, 176.0102
1137.015, 176.4410
1137.497, 176.4990
1137.979, 176.4753
1138.461, 176.4852
1138.943, 176.4999
1139.426, 176.5031
1139.908, 176.5047
1140.390, 176.5544
1140.872, 176.6525
1141.354, 176.4703
1141.836, 175.9860
1142.318, 175.6647
1142.800, 176.1569
1143.283, 176.6554
1143.765, 176.4607
1144.247, 175.8261
1144.729, 175.5658
1145.211, 175.7273
1145.693, 175.8714
1146.175, 175.9180
1146.657, 176.0337
1147.140, 176.5626
1147.622, 177.1054
1148.104, 177.2283
1148.586, 176.9182
1149.068, 176.6014
1149.550, 176.2264
1150.032, 176.0785
1150.514, 176.2572
1150.996, 176.5974
1151.479, 177.0272
1151.961, 177.4031
1152.443, 177.5100
1152.925, 177.2860
1153.407, 177.0583
1153.889, 176.8640
1154.371, 176.6332
1154.853, 176.3128
1155.335, 175.9889
1155.818, 175.7937
1156.300, 175.7288
1156.782, 175.8180
1157.264, 176.1264
1157.746, 176.4075
1158.228, 176.6844
1158.710, 176.8227
1159.192, 176.6316
1159.675, 176.3353
1160.157, 176.7132
1160.639, 177.4714
1161.121, 177.7968
1161.603, 177.0568
1162.085, 176.5346
1162.567, 176.6237
1163.049, 176.8044
1163.531, 176.6644
1164.014, 176.3106
1164.496, 176.2837
1164.978, 176.5224
1165.460, 176.7565
1165.942, 176.8686
1166.424, 176.9426
1166.906, 176.9811
1167.388, 177.0158
1167.870, 177.0647
1168.353, 177.1316
1168.835, 177.3455
1169.317, 177.6661
1169.799, 177.7375
1170.281, 176.9638
1170.763, 176.3552
1171.245, 176.5519
1171.727, 177.0338
1172.210, 177.1335
1172.692, 176.8767
1173.174, 176.9031
1173.656, 177.2408
1174.138, 177.4186
1174.620, 176.8101
1175.102, 176.2749
1175.584, 176.4732
1176.067, 177.0207
1176.549, 177.2023
1177.031, 177.0152
1177.513, 176.9307
1177.995, 177.0091
1178.477, 177.1198
1178.959, 177.2456
1179.441, 177.2894
1179.923, 177.0681
1180.406, 176.7214
1180.888, 176.7304
1181.370, 177.1189
1181.852, 177.2882
1182.334, 177.1016
1182.816, 176.8966
1183.298, 176.9936
1183.780, 177.1767
1184.262, 177.2182
1184.745, 177.1650
1185.227, 177.4052
1185.709, 177.9796
1186.191, 178.3104
1186.673, 178.2151
1187.155, 178.0128
1187.637, 178.0478
1188.119, 178.1022
1188.602, 177.8963
1189.084, 177.4470
1189.566, 177.2712
1190.048, 177.3970
1190.530, 177.5634
1191.012, 177.7080
1191.494, 177.8104
1191.976, 177.8255
1192.458, 177.8005
1192.941, 177.7490
1193.423, 177.6619
1193.905, 177.8262
1194.387, 178.2871
1194.869, 178.6445
1195.351, 178.7021
1195.833, 178.6517
1196.315, 178.7076
1196.797, 178.7824
1197.280, 178.7277
1197.762, 178.4807
1198.244, 178.5443
1198.726, 178.9844
1199.208, 179.2813
1199.690, 179.0800
1200.172, 178.7851
1200.654, 178.9124
1201.137, 179.2188
1201.619, 179.3555
1202.101, 179.2422
1202.583, 179.1563
1203.065, 179.1050
1203.547, 179.0314
1204.029, 178.8591
1204.511, 178.7027
1204.994, 178.7058
1205.476, 178.8100
1205.958, 178.9332
1206.440, 179.1004
1206.922, 179.1469
1207.404, 179.0574
1207.886, 178.9505
1208.368, 178.8070
1208.850, 178.7764
1209.333, 179.1122
1209.815, 179.6620
1210.297, 180.1682
1210.779, 180.7791
1211.261, 180.7621
1211.743, 180.0167
1212.225, 179.3426
1212.707, 179.3899
1213.189, 179.7134
1213.672, 179.9272
1214.154, 180.0357
1214.636, 180.0363
1215.118, 179.8429
1215.600, 179.9216
1216.082, 180.3336
1216.564, 180.6123
1217.046, 180.1290
1217.529, 179.5717
1218.011, 179.6124
1218.493, 180.1053
1218.975, 180.7153
1219.457, 181.5068
1219.939, 182.0678
1220.421, 182.3857
1220.903, 182.3575
1221.385, 181.5237
1221.868, 180.6479
1222.350, 180.4266
1222.832, 180.7057
1223.314, 181.0866
1223.796, 181.6457
1224.278, 181.7428
1224.760, 181.2925
1225.242, 180.9243
1225.724, 181.4009
1226.207, 181.9310
1226.689, 181.6380
1227.171, 180.9322
1227.653, 180.9447
1228.135, 181.8477
1228.617, 182.3078
1229.099, 182.2129
1229.581, 181.9992
1230.064, 182.0059
1230.546, 182.0314
1231.028, 181.9469
1231.510, 181.7511
1231.992, 181.3781
1232.474, 180.7760
1232.956, 180.7437
1233.438, 181.3582
1233.921, 182.0463
1234.403, 182.4749
1234.885, 182.7225
1235.367, 182.7995
1235.849, 182.7400
1236.331, 182.5474
1236.813, 182.2225
1237.295, 182.0993
1237.777, 182.2107
1238.260, 182.3842
1238.742, 182.6009
1239.224, 182.7373
1239.706, 182.6196
1240.188, 182.4299
1240.670, 182.5389
1241.152, 182.9020
1241.634, 182.9078
1242.116, 182.5022
1242.599, 182.2742
1243.081, 182.9018
1243.563, 183.4220
1244.045, 183.3267
1244.527, 182.9487
1245.009, 182.7633
1245.491, 182.7772
1245.973, 183.1616
1246.456, 183.9026
1246.938, 184.3855
1247.420, 184.0471
1247.902, 183.6909
1248.384, 183.5237
1248.866, 183.5428
1249.348, 183.8900
1249.830, 184.4128
1250.313, 184.4988
1250.795, 184.1303
1251.277, 183.8372
1251.759, 183.9031
1252.241, 184.0130
1252.723, 184.1140
1253.205, 184.1958
1253.687, 184.2272
1254.169, 184.2313
1254.651, 184.2384
1255.134, 184.2587
1255.616, 184.3666
1256.098, 184.6544
1256.580, 184.9200
1257.062, 185.1389
1257.544, 185.2982
1258.026, 185.3878
1258.508, 185.3999
1258.991, 185.2976
1259.473, 185.0910
1259.955, 184.8646
1260.437, 184.4861
1260.919, 184.5170
1261.401, 185.1405
1261.883, 185.8040
1262.365, 185.7830
1262.848, 185.5421
1263.330, 185.7123
1263.812, 186.2162
1264.294, 186.3599
1264.776, 186.0161
1265.258, 185.7543
1265.740, 185.6489
1266.222, 185.6761
1266.704, 185.9350
1267.187, 186.2102
1267.669, 186.3817
1268.151, 186.3867
1268.633, 186.0024
1269.115, 185.1650
1269.597, 184.7739
1270.079, 184.9434
1270.561, 185.4084
1271.043, 186.3296
1271.526, 187.1073
1272.008, 187.2038
1272.490, 186.9204
1272.972, 186.7397
1273.454, 186.6569
1273.936, 186.6450
1274.418, 186.6947
1274.900, 186.5857
1275.383, 185.7924
1275.865, 185.3216
1276.347, 185.7439
1276.829, 186.4763
1277.311, 186.6385
1277.793, 186.3803
1278.275, 186.3337
1278.757, 186.5153
1279.239, 186.5735
1279.722, 186.0919
1280.204, 185.8555
1280.686, 186.0736
1281.168, 186.4719
1281.650, 186.8195
1282.132, 187.0620
1282.614, 186.9610
1283.096, 186.6054
1283.578, 186.5364
1284.061, 187.1828
1284.543, 187.5400
1285.025, 187.4693
1285.507, 187.2291
1285.989, 186.9635
1286.471, 186.7554
1286.953, 186.7194
1287.435, 186.8331
1287.917, 187.0409
1288.400, 187.4356
1288.882, 187.4757
##END=



