##NAMES=Actinolite
##RRUFFID=R050025
##IDEAL CHEMISTRY=Ca_2_(Mg_4.5-2.5_Fe^2+^_0.5-2.5_)Si_8_O_22_(OH)_2_
##LOCALITY=Tyrol, Austria
##OWNER=RRUFF
##SOURCE=Eugene Schlepp
##DESCRIPTION=Green colored bladed single crystals
##STATUS=The identification of this mineral has been confirmed by X-ray diffraction and chemical analysis
##URL=rruff.info/R050025
##MEASURED CHEMISTRY=(Ca_.930_Na_.056_Mn_.010_K_.004_)_2_(Mg_.883_Fe_.117_)_5_(Si_.978_Al_.022_)_8_O_22_(OH)_2_
171.6417, 17737.23
172.1238, 17883.15
172.6059, 18011.39
173.0880, 18111.50
173.5701, 18215.09
174.0522, 18340.30
174.5344, 18477.62
175.0165, 18611.42
175.4986, 18732.58
175.9807, 18847.05
176.4628, 18976.96
176.9449, 19141.02
177.4271, 19284.70
177.9092, 19400.62
178.3913, 19484.16
178.8734, 19527.18
179.3555, 19524.15
179.8376, 19479.96
180.3197, 19403.81
180.8019, 19270.79
181.2840, 19149.73
181.7661, 19064.33
182.2482, 19000.39
182.7303, 18939.21
183.2124, 18868.77
183.6946, 18799.91
184.1767, 18767.04
184.6588, 18793.59
185.1409, 18816.96
185.6230, 18822.60
186.1051, 18815.68
186.5873, 18795.84
187.0694, 18758.13
187.5515, 18720.95
188.0336, 18739.13
188.5157, 18857.93
188.9978, 18954.66
189.4800, 18988.11
189.9621, 18995.33
190.4442, 19015.96
190.9263, 19067.96
191.4084, 19137.44
191.8905, 19191.03
192.3727, 19223.63
192.8548, 19247.96
193.3369, 19264.20
193.8190, 19275.94
194.3011, 19283.11
194.7832, 19285.44
195.2654, 19291.12
195.7475, 19320.29
196.2296, 19392.00
196.7117, 19452.19
197.1938, 19485.00
197.6759, 19510.16
198.1581, 19546.08
198.6402, 19598.85
199.1223, 19658.03
199.6044, 19703.00
200.0865, 19722.95
200.5686, 19750.34
201.0508, 19791.92
201.5329, 19838.26
202.0150, 19884.00
202.4971, 19927.21
202.9792, 19965.42
203.4613, 19993.19
203.9435, 20002.79
204.4256, 20019.29
204.9077, 20040.57
205.3898, 20070.03
205.8719, 20113.40
206.3540, 20170.35
206.8362, 20231.83
207.3183, 20287.98
207.8004, 20342.38
208.2825, 20379.68
208.7646, 20371.88
209.2467, 20370.42
209.7289, 20410.90
210.2110, 20493.78
210.6931, 20590.53
211.1752, 20667.85
211.6573, 20718.82
212.1395, 20773.93
212.6216, 20828.97
213.1037, 20890.92
213.5858, 20964.78
214.0679, 21049.35
214.5500, 21138.97
215.0322, 21226.46
215.5143, 21308.80
215.9964, 21408.54
216.4785, 21546.23
216.9606, 21682.50
217.4427, 21798.58
217.9249, 21899.65
218.4070, 22005.08
218.8891, 22133.23
219.3712, 22285.13
219.8533, 22422.67
220.3354, 22541.82
220.8176, 22649.45
221.2997, 22758.17
221.7818, 22856.35
222.2639, 22921.59
222.7460, 22936.63
223.2281, 22904.41
223.7103, 22855.76
224.1924, 22781.60
224.6745, 22698.62
225.1566, 22598.77
225.6387, 22494.36
226.1208, 22402.71
226.6030, 22334.56
227.0851, 22285.71
227.5672, 22236.92
228.0493, 22163.21
228.5314, 22126.65
229.0135, 22166.67
229.4957, 22236.16
229.9778, 22284.11
230.4599, 22287.68
230.9420, 22256.32
231.4241, 22210.92
231.9062, 22142.32
232.3884, 22074.94
232.8705, 22019.65
233.3526, 21962.98
233.8347, 21888.09
234.3168, 21790.52
234.7989, 21686.30
235.2811, 21604.25
235.7632, 21552.45
236.2453, 21504.11
236.7274, 21458.44
237.2095, 21413.51
237.6916, 21363.75
238.1738, 21309.93
238.6559, 21262.71
239.1380, 21234.55
239.6201, 21226.67
240.1022, 21234.20
240.5843, 21276.13
241.0665, 21317.78
241.5486, 21344.74
242.0307, 21355.48
242.5128, 21354.15
242.9949, 21336.53
243.4770, 21298.69
243.9592, 21292.31
244.4413, 21340.16
244.9234, 21400.82
245.4055, 21476.42
245.8876, 21554.23
246.3697, 21605.54
246.8519, 21599.73
247.3340, 21545.71
247.8161, 21525.63
248.2982, 21563.81
248.7803, 21605.47
249.2624, 21640.17
249.7446, 21664.02
250.2267, 21669.45
250.7088, 21647.75
251.1909, 21610.18
251.6730, 21594.09
252.1551, 21622.29
252.6373, 21624.14
253.1194, 21546.28
253.6015, 21445.99
254.0836, 21390.65
254.5657, 21410.83
255.0478, 21460.21
255.5300, 21456.73
256.0121, 21379.41
256.4942, 21329.28
256.9763, 21362.07
257.4584, 21418.13
257.9406, 21456.35
258.4227, 21467.92
258.9048, 21469.79
259.3869, 21477.69
259.8690, 21491.74
260.3511, 21510.10
260.8333, 21541.86
261.3154, 21569.21
261.7975, 21577.55
262.2796, 21567.29
262.7617, 21553.67
263.2438, 21547.60
263.7260, 21547.61
264.2081, 21545.46
264.6902, 21540.89
265.1723, 21532.85
265.6544, 21520.13
266.1365, 21503.58
266.6187, 21486.00
267.1008, 21461.28
267.5829, 21437.75
268.0650, 21436.97
268.5471, 21465.87
269.0292, 21496.41
269.5114, 21504.22
269.9935, 21500.74
270.4756, 21506.45
270.9577, 21540.42
271.4398, 21574.38
271.9219, 21571.27
272.4041, 21530.00
272.8862, 21486.70
273.3683, 21447.04
273.8504, 21424.03
274.3325, 21443.21
274.8146, 21535.13
275.2968, 21615.99
275.7789, 21612.20
276.2610, 21544.74
276.7431, 21500.97
277.2252, 21515.50
277.7073, 21562.82
278.1895, 21603.32
278.6716, 21638.42
279.1537, 21663.74
279.6358, 21667.35
280.1179, 21662.35
280.6000, 21671.68
281.0822, 21701.08
281.5643, 21741.05
282.0464, 21784.43
282.5285, 21832.07
283.0106, 21869.43
283.4927, 21893.59
283.9749, 21907.50
284.4570, 21905.05
284.9391, 21888.69
285.4212, 21884.97
285.9033, 21919.27
286.3854, 21991.04
286.8676, 22046.37
287.3497, 22078.52
287.8318, 22102.56
288.3139, 22126.28
288.7960, 22147.97
289.2781, 22160.64
289.7603, 22159.24
290.2424, 22147.86
290.7245, 22143.80
291.2066, 22148.29
291.6887, 22157.93
292.1708, 22180.89
292.6530, 22205.73
293.1351, 22215.25
293.6172, 22203.74
294.0993, 22184.27
294.5814, 22180.66
295.0635, 22207.97
295.5457, 22222.74
296.0278, 22214.67
296.5099, 22202.40
296.9920, 22195.50
297.4741, 22196.97
297.9562, 22209.60
298.4384, 22239.60
298.9205, 22292.58
299.4026, 22323.46
299.8847, 22304.90
300.3668, 22292.23
300.8489, 22304.26
301.3311, 22337.27
301.8131, 22382.48
302.2953, 22437.40
302.7774, 22496.35
303.2595, 22529.35
303.7416, 22523.09
304.2237, 22508.25
304.7058, 22483.64
305.1880, 22458.04
305.6701, 22440.66
306.1522, 22434.92
306.6343, 22437.27
307.1164, 22442.81
307.5985, 22452.30
308.0807, 22462.04
308.5628, 22466.92
309.0449, 22475.11
309.5270, 22495.80
310.0091, 22528.26
310.4912, 22557.22
310.9734, 22568.71
311.4555, 22563.98
311.9376, 22554.66
312.4197, 22532.64
312.9018, 22519.65
313.3839, 22540.06
313.8661, 22580.06
314.3482, 22602.94
314.8303, 22585.32
315.3124, 22543.51
315.7945, 22501.46
316.2766, 22457.29
316.7588, 22424.39
317.2409, 22414.54
317.7230, 22420.07
318.2051, 22427.55
318.6872, 22432.01
319.1693, 22444.25
319.6515, 22482.98
320.1336, 22539.86
320.6157, 22576.93
321.0978, 22577.95
321.5799, 22558.57
322.0620, 22537.40
322.5442, 22509.93
323.0263, 22503.04
323.5084, 22531.65
323.9905, 22581.96
324.4726, 22643.28
324.9547, 22713.82
325.4369, 22775.77
325.9190, 22811.69
326.4011, 22818.54
326.8832, 22818.48
327.3653, 22793.29
327.8474, 22777.98
328.3296, 22802.33
328.8117, 22854.71
329.2938, 22897.13
329.7759, 22905.55
330.2580, 22890.33
330.7401, 22898.12
331.2223, 22957.33
331.7044, 23004.52
332.1865, 23031.11
332.6686, 23043.54
333.1507, 23049.42
333.6328, 23050.86
334.1150, 23043.69
334.5971, 23016.33
335.0792, 22945.46
335.5613, 22919.98
336.0434, 22980.14
336.5255, 23044.48
337.0077, 23066.36
337.4898, 23053.02
337.9719, 23042.33
338.4540, 23067.33
338.9361, 23122.23
339.4182, 23154.50
339.9004, 23153.49
340.3825, 23143.63
340.8646, 23121.31
341.3467, 23099.29
341.8288, 23092.88
342.3109, 23107.81
342.7931, 23140.08
343.2752, 23191.44
343.7573, 23267.13
344.2394, 23323.99
344.7215, 23331.87
345.2036, 23333.05
345.6858, 23365.38
346.1679, 23429.89
346.6500, 23492.09
347.1321, 23532.62
347.6142, 23554.24
348.0963, 23559.54
348.5785, 23541.59
349.0606, 23529.61
349.5427, 23553.93
350.0248, 23603.71
350.5069, 23647.69
350.9890, 23677.81
351.4712, 23702.44
351.9533, 23733.94
352.4354, 23768.54
352.9175, 23784.16
353.3996, 23765.62
353.8817, 23727.19
354.3639, 23704.41
354.8460, 23690.30
355.3281, 23700.56
355.8102, 23765.17
356.2923, 23844.18
356.7744, 23888.59
357.2566, 23888.66
357.7387, 23866.57
358.2208, 23845.72
358.7029, 23826.18
359.1850, 23807.45
359.6671, 23763.02
360.1493, 23744.97
360.6314, 23790.15
361.1135, 23879.57
361.5956, 23972.34
362.0777, 24045.36
362.5598, 24102.16
363.0420, 24155.09
363.5241, 24195.43
364.0062, 24246.51
364.4883, 24312.88
364.9704, 24388.48
365.4525, 24470.74
365.9347, 24557.85
366.4168, 24645.72
366.8989, 24731.56
367.3810, 24816.63
367.8631, 24888.40
368.3452, 24936.81
368.8274, 24983.18
369.3095, 25058.93
369.7916, 25142.06
370.2737, 25177.91
370.7558, 25122.36
371.2379, 25020.33
371.7201, 24948.60
372.2022, 24910.79
372.6843, 24868.35
373.1664, 24796.51
373.6485, 24716.75
374.1306, 24665.28
374.6128, 24653.34
375.0949, 24633.05
375.5770, 24562.82
376.0591, 24469.77
376.5412, 24412.04
377.0233, 24403.92
377.5055, 24412.15
377.9876, 24404.29
378.4697, 24378.27
378.9518, 24354.67
379.4339, 24336.78
379.9160, 24318.68
380.3982, 24292.07
380.8803, 24261.98
381.3624, 24242.43
381.8445, 24241.16
382.3266, 24254.87
382.8087, 24274.06
383.2909, 24312.71
383.7730, 24337.74
384.2551, 24326.15
384.7372, 24315.27
385.2193, 24341.35
385.7014, 24406.41
386.1836, 24480.23
386.6657, 24528.83
387.1478, 24549.76
387.6299, 24588.39
388.1120, 24641.05
388.5941, 24718.98
389.0763, 24837.84
389.5584, 24980.26
390.0405, 25123.88
390.5226, 25266.53
391.0047, 25388.61
391.4868, 25446.85
391.9690, 25432.12
392.4511, 25441.81
392.9332, 25536.79
393.4153, 25632.60
393.8974, 25647.01
394.3795, 25579.67
394.8617, 25493.88
395.3438, 25423.15
395.8259, 25352.99
396.3080, 25253.82
396.7901, 25121.90
397.2722, 24985.87
397.7544, 24862.93
398.2365, 24753.22
398.7186, 24650.09
399.2007, 24537.25
399.6828, 24449.72
400.1649, 24417.65
400.6471, 24416.19
401.1292, 24405.21
401.6113, 24371.40
402.0934, 24322.56
402.5755, 24264.53
403.0576, 24175.67
403.5398, 24149.82
404.0219, 24254.12
404.5040, 24349.92
404.9861, 24353.58
405.4682, 24288.19
405.9503, 24221.84
406.4325, 24196.09
406.9146, 24204.66
407.3967, 24228.64
407.8788, 24278.63
408.3609, 24322.17
408.8430, 24344.46
409.3252, 24364.19
409.8073, 24397.43
410.2894, 24446.14
410.7715, 24498.09
411.2536, 24541.20
411.7357, 24578.03
412.2179, 24620.99
412.7000, 24672.28
413.1821, 24726.04
413.6642, 24789.34
414.1463, 24851.48
414.6284, 24886.17
415.1106, 24877.97
415.5927, 24854.30
416.0748, 24830.95
416.5569, 24808.02
417.0390, 24788.13
417.5211, 24774.11
418.0033, 24756.38
418.4854, 24719.74
418.9675, 24658.69
419.4496, 24595.81
419.9317, 24519.12
420.4138, 24451.70
420.8960, 24414.24
421.3781, 24400.70
421.8602, 24388.32
422.3423, 24361.56
422.8244, 24326.05
423.3065, 24307.81
423.7887, 24333.07
424.2708, 24333.79
424.7529, 24286.99
425.2350, 24226.01
425.7171, 24177.25
426.1992, 24144.54
426.6814, 24116.03
427.1635, 24076.46
427.6456, 24027.78
428.1277, 23996.28
428.6098, 23980.73
429.0919, 23985.40
429.5741, 24034.39
430.0562, 24098.68
430.5383, 24131.14
431.0204, 24108.36
431.5025, 24078.44
431.9846, 24082.20
432.4668, 24112.08
432.9489, 24142.75
433.4310, 24169.26
433.9131, 24190.03
434.3952, 24204.87
434.8773, 24214.21
435.3595, 24206.51
435.8416, 24162.28
436.3237, 24117.75
436.8058, 24096.46
437.2879, 24093.21
437.7701, 24092.35
438.2522, 24086.10
438.7343, 24075.63
439.2164, 24063.15
439.6985, 24041.34
440.1806, 24031.21
440.6628, 24046.65
441.1449, 24061.23
441.6270, 24058.07
442.1091, 24037.68
442.5912, 24008.33
443.0733, 23969.09
443.5555, 23928.66
444.0376, 23926.52
444.5197, 23978.78
445.0018, 24024.28
445.4839, 24035.42
445.9660, 24030.43
446.4482, 24025.08
446.9303, 24021.24
447.4124, 24017.23
447.8945, 24007.63
448.3766, 23997.95
448.8587, 24009.51
449.3409, 24048.09
449.8230, 24064.31
450.3051, 24005.94
450.7872, 23884.66
451.2693, 23820.50
451.7514, 23842.79
452.2336, 23883.05
452.7157, 23932.88
453.1978, 23982.30
453.6799, 24022.70
454.1620, 24050.25
454.6441, 24055.26
455.1263, 24019.07
455.6084, 23929.13
456.0905, 23869.37
456.5726, 23849.36
457.0547, 23852.44
457.5368, 23889.23
458.0190, 23942.63
458.5011, 23987.32
458.9832, 24012.52
459.4653, 24026.22
459.9474, 24041.55
460.4295, 24058.65
460.9117, 24061.22
461.3938, 24034.43
461.8759, 24008.28
462.3580, 24013.28
462.8401, 24043.76
463.3222, 24071.01
463.8044, 24093.55
464.2865, 24104.80
464.7686, 24090.24
465.2507, 24057.06
465.7328, 24032.81
466.2149, 24029.36
466.6971, 24041.53
467.1792, 24061.07
467.6613, 24101.87
468.1434, 24119.04
468.6255, 24080.76
469.1076, 24046.82
469.5898, 24061.89
470.0719, 24114.99
470.5540, 24168.69
471.0361, 24201.24
471.5182, 24214.03
472.0003, 24209.24
472.4825, 24181.20
472.9646, 24151.11
473.4467, 24110.86
473.9288, 24079.44
474.4109, 24071.06
474.8930, 24085.49
475.3752, 24110.96
475.8573, 24150.92
476.3394, 24193.57
476.8215, 24218.46
477.3036, 24224.96
477.7857, 24221.77
478.2679, 24210.29
478.7500, 24194.24
479.2321, 24182.17
479.7142, 24173.70
480.1963, 24169.31
480.6784, 24162.25
481.1606, 24163.90
481.6427, 24192.07
482.1248, 24242.46
482.6069, 24289.21
483.0890, 24312.44
483.5711, 24316.77
484.0533, 24328.63
484.5354, 24353.40
485.0175, 24377.09
485.4996, 24408.81
485.9817, 24431.17
486.4638, 24424.64
486.9460, 24390.21
487.4281, 24352.79
487.9102, 24324.46
488.3923, 24308.36
488.8744, 24322.62
489.3565, 24374.94
489.8387, 24412.29
490.3208, 24398.37
490.8029, 24357.05
491.2850, 24338.92
491.7671, 24348.91
492.2492, 24366.97
492.7314, 24392.37
493.2135, 24418.94
493.6956, 24439.06
494.1777, 24452.40
494.6598, 24464.69
495.1419, 24480.89
495.6241, 24499.33
496.1062, 24509.66
496.5883, 24515.36
497.0704, 24506.66
497.5525, 24465.05
498.0346, 24421.40
498.5168, 24399.91
498.9989, 24403.70
499.4810, 24422.91
499.9631, 24459.47
500.4452, 24504.67
500.9273, 24521.66
501.4095, 24504.35
501.8916, 24483.43
502.3737, 24460.36
502.8558, 24449.19
503.3379, 24476.29
503.8200, 24554.68
504.3022, 24617.45
504.7843, 24637.90
505.2664, 24630.41
505.7485, 24593.86
506.2306, 24537.57
506.7127, 24509.85
507.1949, 24547.00
507.6770, 24632.53
508.1591, 24693.16
508.6412, 24689.68
509.1233, 24719.81
509.6054, 24838.41
510.0876, 24952.76
510.5697, 24982.83
511.0518, 24936.52
511.5339, 24885.07
512.0161, 24877.95
512.4982, 24903.43
512.9803, 24935.29
513.4624, 24976.82
513.9445, 25002.29
514.4266, 24992.93
514.9088, 24971.22
515.3909, 24966.96
515.8730, 24981.30
516.3551, 24996.88
516.8372, 25017.10
517.3193, 25029.98
517.8015, 25014.70
518.2836, 24979.48
518.7657, 24957.95
519.2478, 24968.55
519.7299, 25000.92
520.2120, 25031.54
520.6942, 25066.37
521.1763, 25087.51
521.6584, 25090.99
522.1405, 25086.33
522.6226, 25073.98
523.1047, 25057.77
523.5869, 25044.97
524.0690, 25038.99
524.5511, 25039.02
525.0332, 25041.01
525.5153, 25045.07
525.9974, 25067.88
526.4796, 25123.64
526.9617, 25182.79
527.4438, 25211.19
527.9259, 25212.58
528.4080, 25213.41
528.8901, 25215.89
529.3723, 25220.21
529.8544, 25236.03
530.3365, 25251.96
530.8186, 25238.91
531.3007, 25188.03
531.7828, 25133.24
532.2650, 25128.65
532.7471, 25190.94
533.2292, 25198.01
533.7113, 25079.54
534.1934, 24985.86
534.6755, 24968.67
535.1577, 25000.47
535.6398, 25054.63
536.1219, 25128.75
536.6040, 25175.95
537.0861, 25120.39
537.5682, 25001.67
538.0504, 24961.75
538.5325, 25027.28
539.0146, 25094.47
539.4967, 25089.68
539.9788, 25025.69
540.4609, 24968.66
540.9431, 24900.35
541.4252, 24861.95
541.9073, 24877.88
542.3894, 24916.92
542.8715, 24963.14
543.3536, 25005.69
543.8358, 25018.90
544.3179, 24975.87
544.8000, 24893.44
545.2821, 24848.15
545.7642, 24854.22
546.2463, 24858.51
546.7285, 24840.94
547.2106, 24821.95
547.6927, 24819.45
548.1748, 24832.57
548.6569, 24843.54
549.1390, 24849.09
549.6211, 24845.47
550.1032, 24815.77
550.5853, 24769.72
551.0674, 24755.24
551.5496, 24795.88
552.0317, 24852.58
552.5138, 24859.01
552.9959, 24790.32
553.4780, 24755.61
553.9601, 24785.64
554.4423, 24811.49
554.9244, 24794.96
555.4065, 24759.24
555.8886, 24742.70
556.3707, 24759.54
556.8528, 24792.80
557.3350, 24827.47
557.8171, 24862.36
558.2992, 24888.21
558.7813, 24904.29
559.2634, 24910.10
559.7455, 24896.17
560.2277, 24872.89
560.7098, 24874.60
561.1919, 24929.18
561.6740, 24960.35
562.1561, 24915.87
562.6382, 24853.50
563.1204, 24841.60
563.6025, 24879.72
564.0846, 24915.63
564.5667, 24908.89
565.0488, 24874.74
565.5309, 24877.68
566.0131, 24940.99
566.4952, 24982.54
566.9773, 24983.04
567.4594, 24960.66
567.9415, 24906.46
568.4236, 24833.38
568.9058, 24794.30
569.3879, 24842.43
569.8700, 24906.33
570.3521, 24898.36
570.8342, 24843.17
571.3163, 24834.83
571.7985, 24906.41
572.2806, 24986.82
572.7627, 24984.30
573.2448, 24885.12
573.7269, 24833.14
574.2090, 24866.94
574.6912, 24898.75
575.1733, 24898.55
575.6554, 24889.32
576.1375, 24902.08
576.6196, 24941.79
577.1017, 24980.51
577.5839, 24993.37
578.0660, 24985.02
578.5481, 24966.81
579.0302, 24936.99
579.5123, 24914.96
579.9944, 24911.33
580.4766, 24919.17
580.9587, 24927.63
581.4408, 24939.75
581.9229, 24941.13
582.4050, 24917.25
582.8871, 24893.37
583.3693, 24892.79
583.8514, 24904.83
584.3335, 24903.23
584.8156, 24875.93
585.2977, 24836.10
585.7798, 24800.05
586.2620, 24766.57
586.7441, 24754.85
587.2262, 24779.02
587.7083, 24803.12
588.1904, 24807.67
588.6725, 24798.48
589.1547, 24782.04
589.6368, 24753.88
590.1189, 24732.56
590.6010, 24728.26
591.0831, 24735.12
591.5652, 24748.54
592.0474, 24766.43
592.5295, 24785.78
593.0116, 24806.31
593.4937, 24821.70
593.9758, 24807.84
594.4579, 24740.00
594.9401, 24701.97
595.4222, 24714.49
595.9043, 24746.72
596.3864, 24804.01
596.8685, 24868.65
597.3506, 24896.55
597.8328, 24855.05
598.3149, 24803.74
598.7970, 24803.64
599.2791, 24835.07
599.7612, 24843.74
600.2433, 24819.14
600.7255, 24792.75
601.2076, 24792.57
601.6897, 24814.31
602.1718, 24822.72
602.6539, 24797.86
603.1360, 24786.96
603.6182, 24811.57
604.1003, 24837.00
604.5824, 24833.85
605.0645, 24805.73
605.5466, 24777.57
606.0287, 24761.85
606.5109, 24756.14
606.9930, 24757.08
607.4751, 24764.72
607.9572, 24783.59
608.4393, 24819.85
608.9214, 24847.21
609.4036, 24832.66
609.8857, 24775.99
610.3678, 24752.02
610.8499, 24788.25
611.3320, 24819.05
611.8141, 24823.99
612.2963, 24819.65
612.7784, 24828.68
613.2605, 24849.31
613.7426, 24853.75
614.2247, 24810.36
614.7068, 24744.75
615.1890, 24720.53
615.6711, 24738.80
616.1532, 24779.76
616.6353, 24855.53
617.1174, 24919.57
617.5995, 24905.81
618.0817, 24812.27
618.5638, 24756.68
619.0459, 24772.48
619.5280, 24793.46
620.0101, 24788.14
620.4922, 24776.63
620.9744, 24790.68
621.4565, 24832.56
621.9386, 24870.90
622.4207, 24871.67
622.9028, 24848.85
623.3849, 24865.30
623.8671, 24931.72
624.3492, 24972.35
624.8313, 24948.57
625.3134, 24907.34
625.7955, 24908.98
626.2776, 24950.61
626.7598, 24981.12
627.2419, 24983.32
627.7240, 24983.79
628.2061, 25004.84
628.6882, 25028.88
629.1703, 25024.21
629.6525, 24986.84
630.1346, 24945.10
630.6167, 24921.19
631.0988, 24917.73
631.5809, 24960.09
632.0630, 25068.80
632.5452, 25143.16
633.0273, 25144.81
633.5094, 25106.33
633.9915, 25048.27
634.4736, 24972.98
634.9557, 24938.28
635.4379, 24988.06
635.9200, 25047.54
636.4021, 25079.68
636.8842, 25092.17
637.3663, 25094.33
637.8484, 25090.72
638.3306, 25090.74
638.8127, 25103.77
639.2948, 25128.57
639.7769, 25158.83
640.2590, 25197.14
640.7411, 25232.53
641.2233, 25267.28
641.7054, 25292.11
642.1875, 25292.87
642.6696, 25271.87
643.1517, 25257.95
643.6339, 25244.53
644.1160, 25253.00
644.5981, 25317.77
645.0802, 25403.09
645.5623, 25451.37
646.0444, 25452.79
646.5266, 25441.48
647.0087, 25445.76
647.4908, 25465.60
647.9729, 25503.64
648.4550, 25563.68
648.9371, 25626.87
649.4193, 25696.65
649.9014, 25758.78
650.3835, 25788.64
650.8656, 25793.37
651.3477, 25826.76
651.8298, 25948.15
652.3120, 26043.03
652.7941, 26022.71
653.2762, 25961.28
653.7583, 25955.36
654.2404, 26020.22
654.7225, 26119.66
655.2047, 26232.16
655.6868, 26346.47
656.1689, 26415.80
656.6510, 26429.82
657.1331, 26462.10
657.6152, 26525.87
658.0974, 26614.41
658.5795, 26729.77
659.0616, 26866.92
659.5437, 27002.77
660.0258, 27124.15
660.5079, 27258.27
660.9901, 27415.48
661.4722, 27589.17
661.9543, 27773.24
662.4364, 27966.96
662.9185, 28173.71
663.4006, 28394.61
663.8828, 28633.66
664.3649, 28907.50
664.8470, 29217.51
665.3291, 29511.52
665.8112, 29768.47
666.2933, 30043.14
666.7755, 30382.88
667.2576, 30774.60
667.7397, 31160.78
668.2218, 31539.22
668.7039, 31913.72
669.1860, 32294.05
669.6682, 32662.53
670.1503, 33023.80
670.6324, 33363.70
671.1145, 33660.12
671.5966, 33908.20
672.0787, 34075.31
672.5609, 34113.66
673.0430, 34028.75
673.5251, 33860.52
674.0072, 33611.36
674.4893, 33278.00
674.9714, 32842.84
675.4536, 32333.50
675.9357, 31823.97
676.4178, 31299.90
676.8999, 30801.95
677.3820, 30345.99
677.8641, 29900.45
678.3463, 29437.32
678.8284, 28980.75
679.3105, 28569.78
679.7926, 28217.57
680.2747, 27912.43
680.7568, 27655.48
681.2390, 27437.91
681.7211, 27242.07
682.2032, 27067.65
682.6853, 26913.19
683.1674, 26780.47
683.6495, 26659.27
684.1317, 26530.08
684.6138, 26386.06
685.0959, 26272.48
685.5780, 26217.13
686.0601, 26157.70
686.5422, 26057.07
687.0244, 25958.61
687.5065, 25920.58
687.9886, 25943.62
688.4707, 25953.76
688.9528, 25896.83
689.4349, 25815.00
689.9171, 25748.56
690.3992, 25697.35
690.8813, 25662.81
691.3634, 25644.93
691.8455, 25630.92
692.3276, 25607.66
692.8098, 25576.71
693.2919, 25551.32
693.7740, 25529.19
694.2561, 25518.03
694.7382, 25536.03
695.2203, 25550.24
695.7025, 25536.98
696.1846, 25500.60
696.6667, 25458.33
697.1488, 25402.41
697.6309, 25359.53
698.1130, 25362.49
698.5952, 25376.15
699.0773, 25346.02
699.5594, 25277.94
700.0415, 25226.65
700.5236, 25227.37
701.0057, 25255.46
701.4879, 25258.07
701.9700, 25233.37
702.4521, 25223.82
702.9342, 25240.79
703.4163, 25253.25
703.8984, 25241.04
704.3806, 25212.49
704.8627, 25187.04
705.3448, 25164.10
705.8269, 25145.52
706.3090, 25126.04
706.7911, 25116.37
707.2733, 25132.30
707.7554, 25159.32
708.2375, 25175.17
708.7196, 25172.80
709.2017, 25156.63
709.6838, 25124.60
710.1660, 25083.47
710.6481, 25053.08
711.1302, 25032.68
711.6123, 24999.49
712.0944, 24939.65
712.5765, 24890.06
713.0587, 24903.55
713.5408, 24984.95
714.0229, 25025.93
714.5050, 24976.85
714.9871, 24954.95
715.4692, 25006.13
715.9514, 25069.17
716.4335, 25092.92
716.9156, 25080.88
717.3977, 25069.83
717.8798, 25083.18
718.3619, 25089.90
718.8441, 25046.60
719.3262, 24987.12
719.8083, 24978.88
720.2904, 25022.96
720.7725, 25060.50
721.2546, 25050.33
721.7368, 25014.90
722.2189, 25011.86
722.7010, 25048.25
723.1831, 25068.06
723.6652, 25063.43
724.1473, 25049.10
724.6295, 25028.26
725.1116, 25005.06
725.5937, 24986.72
726.0758, 24971.89
726.5579, 24967.26
727.0400, 24987.32
727.5222, 25004.38
728.0043, 24991.69
728.4864, 24968.65
728.9685, 24974.92
729.4506, 25017.49
729.9327, 25052.04
730.4149, 25020.49
730.8970, 24959.65
731.3791, 24968.99
731.8612, 25038.30
732.3433, 25062.24
732.8254, 25004.04
733.3076, 24933.44
733.7897, 24923.28
734.2718, 24968.44
734.7539, 25000.58
735.2360, 25006.24
735.7181, 25021.70
736.2003, 25066.58
736.6824, 25107.83
737.1645, 25118.68
737.6466, 25109.74
738.1287, 25112.35
738.6108, 25139.71
739.0930, 25167.95
739.5751, 25182.54
740.0572, 25191.60
740.5393, 25207.10
741.0214, 25226.08
741.5035, 25238.04
741.9857, 25237.99
742.4678, 25223.88
742.9499, 25179.35
743.4320, 25109.52
743.9141, 25092.88
744.3962, 25140.93
744.8784, 25183.24
745.3605, 25189.42
745.8426, 25182.54
746.3247, 25196.58
746.8068, 25236.03
747.2889, 25253.10
747.7711, 25231.04
748.2532, 25209.79
748.7353, 25195.05
749.2174, 25187.72
749.6995, 25191.84
750.1816, 25204.37
750.6638, 25215.62
751.1459, 25226.67
751.6280, 25223.91
752.1101, 25189.71
752.5922, 25134.52
753.0743, 25065.11
753.5565, 24990.16
754.0386, 24956.24
754.5207, 24995.58
755.0028, 25057.16
755.4849, 25028.60
755.9670, 24894.85
756.4492, 24814.13
756.9313, 24800.97
757.4134, 24813.09
757.8955, 24851.74
758.3776, 24891.17
758.8597, 24886.34
759.3419, 24833.06
759.8240, 24789.50
760.3061, 24739.89
760.7882, 24725.15
761.2703, 24813.05
761.7524, 24909.28
762.2346, 24897.12
762.7167, 24783.70
763.1988, 24678.78
763.6809, 24642.46
764.1630, 24645.29
764.6451, 24671.74
765.1273, 24707.47
765.6094, 24707.88
766.0915, 24671.61
766.5736, 24650.62
767.0557, 24680.00
767.5378, 24730.41
768.0200, 24730.27
768.5021, 24664.41
768.9842, 24644.54
769.4663, 24698.24
769.9484, 24741.96
770.4305, 24730.93
770.9127, 24696.06
771.3948, 24684.21
771.8769, 24697.89
772.3590, 24700.33
772.8411, 24676.07
773.3232, 24653.47
773.8054, 24646.91
774.2875, 24645.22
774.7696, 24633.83
775.2517, 24614.11
775.7338, 24600.67
776.2159, 24603.58
776.6981, 24611.62
777.1802, 24610.41
777.6623, 24605.17
778.1444, 24612.20
778.6265, 24630.74
779.1086, 24638.68
779.5908, 24622.69
780.0729, 24595.68
780.5550, 24583.98
781.0371, 24590.77
781.5192, 24578.47
782.0013, 24536.70
782.4835, 24503.99
782.9656, 24501.59
783.4477, 24509.00
783.9298, 24493.00
784.4119, 24452.29
784.8940, 24444.60
785.3762, 24505.81
785.8583, 24557.03
786.3404, 24566.29
786.8225, 24565.43
787.3046, 24589.13
787.7867, 24628.92
788.2689, 24648.05
788.7510, 24627.79
789.2331, 24594.32
789.7152, 24558.77
790.1973, 24529.85
790.6794, 24531.80
791.1616, 24555.73
791.6437, 24556.03
792.1258, 24512.98
792.6079, 24461.42
793.0900, 24448.97
793.5721, 24472.01
794.0543, 24499.06
794.5364, 24534.03
795.0185, 24546.37
795.5006, 24519.72
795.9827, 24483.41
796.4648, 24463.30
796.9470, 24458.90
797.4291, 24465.49
797.9112, 24519.09
798.3933, 24531.24
798.8754, 24438.76
799.3575, 24362.65
799.8397, 24393.03
800.3218, 24483.86
800.8039, 24546.53
801.2860, 24560.48
801.7681, 24547.90
802.2502, 24504.93
802.7324, 24453.35
803.2145, 24404.78
803.6966, 24365.08
804.1787, 24344.70
804.6608, 24344.89
805.1429, 24355.19
805.6251, 24371.63
806.1072, 24385.79
806.5893, 24373.87
807.0714, 24340.17
807.5535, 24318.57
808.0356, 24315.34
808.5178, 24314.03
808.9999, 24301.45
809.4820, 24288.11
809.9641, 24304.58
810.4462, 24367.05
810.9283, 24398.76
811.4105, 24379.46
811.8926, 24362.51
812.3747, 24372.53
812.8568, 24392.48
813.3389, 24405.64
813.8210, 24411.67
814.3032, 24407.48
814.7853, 24386.62
815.2674, 24363.10
815.7495, 24314.80
816.2316, 24286.87
816.7137, 24350.92
817.1959, 24472.08
817.6780, 24535.13
818.1601, 24481.40
818.6422, 24409.51
819.1243, 24412.80
819.6064, 24446.16
820.0886, 24434.76
820.5707, 24387.70
821.0528, 24356.76
821.5349, 24359.54
822.0170, 24367.14
822.4991, 24344.45
822.9813, 24301.57
823.4634, 24282.72
823.9455, 24288.75
824.4276, 24298.46
824.9097, 24306.94
825.3918, 24320.96
825.8740, 24346.48
826.3561, 24380.91
826.8382, 24418.91
827.3203, 24490.29
827.8024, 24495.32
828.2845, 24368.92
828.7667, 24255.76
829.2488, 24213.13
829.7309, 24208.05
830.2130, 24198.41
830.6951, 24181.81
831.1772, 24195.10
831.6594, 24286.85
832.1415, 24361.58
832.6236, 24373.00
833.1057, 24351.27
833.5878, 24317.60
834.0699, 24280.53
834.5521, 24249.18
835.0342, 24226.62
835.5163, 24216.21
835.9984, 24230.90
836.4805, 24254.40
836.9626, 24254.95
837.4448, 24238.88
837.9269, 24239.72
838.4090, 24267.39
838.8911, 24290.68
839.3732, 24274.20
839.8553, 24229.06
840.3375, 24194.83
840.8196, 24171.65
841.3017, 24148.23
841.7838, 24118.24
842.2659, 24111.92
842.7480, 24156.97
843.2302, 24230.56
843.7123, 24275.74
844.1944, 24287.52
844.6765, 24287.38
845.1586, 24274.16
845.6407, 24250.72
846.1229, 24191.62
846.6050, 24141.04
847.0871, 24161.20
847.5692, 24243.74
848.0513, 24279.73
848.5334, 24211.49
849.0156, 24153.25
849.4977, 24142.84
849.9798, 24147.66
850.4619, 24142.27
850.9440, 24131.55
851.4261, 24131.65
851.9083, 24147.94
852.3904, 24168.50
852.8725, 24201.59
853.3546, 24221.67
853.8367, 24185.01
854.3188, 24119.55
854.8010, 24079.42
855.2831, 24076.36
855.7652, 24099.86
856.2473, 24149.12
856.7294, 24200.36
857.2115, 24206.71
857.6937, 24177.53
858.1758, 24150.82
858.6579, 24130.76
859.1400, 24121.46
859.6221, 24124.88
860.1042, 24139.92
860.5864, 24169.41
861.0685, 24211.81
861.5506, 24226.10
862.0327, 24205.18
862.5148, 24182.88
862.9969, 24163.27
863.4791, 24150.28
863.9612, 24150.63
864.4433, 24159.04
864.9254, 24155.80
865.4075, 24130.63
865.8896, 24115.28
866.3718, 24103.69
866.8539, 24108.58
867.3360, 24149.14
867.8181, 24199.14
868.3002, 24229.49
868.7823, 24238.95
869.2645, 24243.34
869.7466, 24255.95
870.2287, 24252.12
870.7108, 24210.95
871.1929, 24158.78
871.6750, 24114.91
872.1572, 24080.68
872.6393, 24049.98
873.1214, 24020.18
873.6035, 24008.68
874.0856, 24042.88
874.5677, 24089.55
875.0499, 24112.80
875.5320, 24119.02
876.0141, 24121.77
876.4962, 24124.65
876.9783, 24128.36
877.4604, 24134.45
877.9426, 24137.20
878.4247, 24122.75
878.9068, 24097.12
879.3889, 24080.58
879.8710, 24075.05
880.3531, 24089.51
880.8353, 24129.35
881.3174, 24161.06
881.7995, 24139.31
882.2816, 24076.08
882.7637, 24051.33
883.2458, 24071.58
883.7280, 24082.31
884.2101, 24073.88
884.6922, 24057.02
885.1743, 24035.50
885.6564, 24013.66
886.1385, 24000.25
886.6207, 23994.36
887.1028, 24001.43
887.5849, 24024.86
888.0670, 24056.18
888.5491, 24111.63
889.0313, 24157.76
889.5134, 24156.83
889.9955, 24120.20
890.4776, 24101.20
890.9597, 24125.96
891.4418, 24127.53
891.9240, 24065.27
892.4061, 24011.98
892.8882, 24010.69
893.3703, 24039.13
893.8524, 24070.41
894.3345, 24099.20
894.8167, 24118.63
895.2988, 24120.02
895.7809, 24118.46
896.2630, 24117.50
896.7451, 24121.08
897.2272, 24142.67
897.7094, 24171.02
898.1915, 24175.56
898.6736, 24145.25
899.1557, 24110.22
899.6378, 24098.67
900.1199, 24092.49
900.6021, 24056.08
901.0842, 24011.64
901.5663, 24018.33
902.0484, 24075.49
902.5305, 24118.79
903.0126, 24106.52
903.4948, 24071.11
903.9769, 24057.32
904.4590, 24059.47
904.9411, 24056.76
905.4232, 24051.07
905.9053, 24072.90
906.3875, 24131.60
906.8696, 24169.69
907.3517, 24122.14
907.8338, 24027.77
908.3159, 24024.34
908.7980, 24112.70
909.2802, 24163.25
909.7623, 24159.34
910.2444, 24142.64
910.7265, 24133.12
911.2086, 24120.38
911.6907, 24084.39
912.1729, 24025.98
912.6550, 24008.74
913.1371, 24049.07
913.6192, 24078.34
914.1013, 24082.57
914.5834, 24078.11
915.0656, 24075.44
915.5477, 24071.49
916.0298, 24055.58
916.5119, 24014.91
916.9940, 24011.18
917.4761, 24084.48
917.9583, 24137.92
918.4404, 24121.07
918.9225, 24100.43
919.4046, 24146.70
919.8867, 24234.64
920.3688, 24265.02
920.8510, 24188.70
921.3331, 24148.08
921.8152, 24195.01
922.2973, 24245.38
922.7794, 24257.55
923.2615, 24254.09
923.7437, 24261.91
924.2258, 24282.43
924.7079, 24302.74
925.1900, 24320.02
925.6721, 24334.87
926.1542, 24344.69
926.6364, 24354.76
927.1185, 24375.28
927.6006, 24396.61
928.0827, 24398.15
928.5648, 24377.47
929.0469, 24361.82
929.5291, 24366.46
930.0112, 24381.53
930.4933, 24420.09
930.9754, 24451.00
931.4575, 24423.85
931.9396, 24354.36
932.4218, 24293.31
932.9039, 24259.10
933.3860, 24243.48
933.8681, 24251.06
934.3502, 24263.83
934.8323, 24259.51
935.3145, 24242.19
935.7966, 24219.52
936.2787, 24193.17
936.7608, 24162.47
937.2429, 24127.02
937.7250, 24088.93
938.2072, 24045.47
938.6893, 24003.17
939.1714, 23982.62
939.6535, 23977.28
940.1356, 23952.41
940.6177, 23904.31
941.0999, 23880.61
941.5820, 23918.00
942.0641, 23981.94
942.5462, 24018.01
943.0283, 24026.07
943.5104, 23987.97
943.9926, 23909.44
944.4747, 23878.75
944.9568, 23924.00
945.4389, 23989.38
945.9210, 24029.66
946.4031, 24041.15
946.8853, 23997.24
947.3674, 23898.41
947.8495, 23858.71
948.3316, 23889.78
948.8137, 23933.95
949.2958, 23974.53
949.7780, 23990.41
950.2601, 23950.80
950.7422, 23870.80
951.2243, 23834.62
951.7064, 23850.36
952.1885, 23856.11
952.6707, 23842.15
953.1528, 23834.39
953.6349, 23848.64
954.1170, 23866.89
954.5991, 23863.90
955.0812, 23840.76
955.5634, 23822.82
956.0455, 23815.88
956.5276, 23794.04
957.0097, 23741.45
957.4918, 23699.63
957.9739, 23691.95
958.4561, 23707.56
958.9382, 23734.43
959.4203, 23775.65
959.9024, 23782.85
960.3845, 23735.45
960.8666, 23694.92
961.3488, 23670.17
961.8309, 23654.17
962.3130, 23642.11
962.7951, 23636.39
963.2772, 23642.72
963.7593, 23663.24
964.2415, 23684.39
964.7236, 23715.50
965.2057, 23733.65
965.6878, 23731.76
966.1699, 23718.95
966.6520, 23696.16
967.1342, 23667.76
967.6163, 23642.29
968.0984, 23617.69
968.5805, 23605.32
969.0626, 23619.71
969.5447, 23627.55
970.0269, 23610.57
970.5090, 23593.08
970.9911, 23591.39
971.4732, 23604.26
971.9553, 23631.69
972.4374, 23686.86
972.9196, 23709.08
973.4017, 23658.97
973.8838, 23614.59
974.3659, 23598.16
974.8480, 23603.39
975.3301, 23646.81
975.8123, 23705.47
976.2944, 23708.98
976.7765, 23629.07
977.2586, 23551.83
977.7407, 23473.35
978.2228, 23429.65
978.7050, 23459.89
979.1871, 23514.67
979.6692, 23547.65
980.1513, 23560.89
980.6334, 23580.38
981.1155, 23622.49
981.5977, 23636.49
982.0798, 23577.43
982.5619, 23521.58
983.0440, 23502.18
983.5261, 23510.29
984.0082, 23547.77
984.4904, 23602.40
984.9725, 23636.34
985.4546, 23636.74
985.9367, 23624.62
986.4188, 23589.40
986.9009, 23564.29
987.3831, 23588.59
987.8652, 23620.12
988.3473, 23596.70
988.8294, 23530.30
989.3115, 23494.15
989.7936, 23517.63
990.2758, 23550.94
990.7579, 23598.10
991.2400, 23621.83
991.7221, 23559.06
992.2042, 23484.85
992.6863, 23520.64
993.1685, 23640.63
993.6506, 23677.32
994.1327, 23535.60
994.6148, 23422.64
995.0969, 23457.72
995.5790, 23523.40
996.0612, 23556.77
996.5433, 23562.36
997.0254, 23540.63
997.5075, 23501.44
997.9896, 23478.85
998.4717, 23491.33
998.9539, 23500.63
999.4360, 23478.86
999.9181, 23458.70
1000.400, 23460.28
1000.882, 23478.84
1001.364, 23521.57
1001.847, 23575.67
1002.329, 23590.12
1002.811, 23528.84
1003.293, 23484.93
1003.775, 23524.32
1004.257, 23571.82
1004.739, 23579.47
1005.221, 23562.12
1005.703, 23525.70
1006.186, 23484.68
1006.668, 23485.38
1007.150, 23562.76
1007.632, 23616.75
1008.114, 23577.44
1008.596, 23526.66
1009.078, 23508.99
1009.560, 23516.25
1010.043, 23547.38
1010.525, 23591.01
1011.007, 23612.31
1011.489, 23592.81
1011.971, 23579.99
1012.453, 23612.60
1012.935, 23637.10
1013.417, 23598.15
1013.899, 23549.87
1014.382, 23559.63
1014.864, 23617.67
1015.346, 23674.11
1015.828, 23723.28
1016.310, 23734.94
1016.792, 23663.65
1017.274, 23591.68
1017.756, 23544.20
1018.239, 23533.79
1018.721, 23598.69
1019.203, 23707.77
1019.685, 23767.84
1020.167, 23746.05
1020.649, 23733.53
1021.131, 23760.07
1021.613, 23802.29
1022.095, 23865.16
1022.578, 23925.47
1023.060, 23966.04
1023.542, 23986.09
1024.024, 23982.67
1024.506, 23948.69
1024.988, 23934.28
1025.470, 23966.55
1025.952, 24002.05
1026.435, 24020.88
1026.917, 24040.03
1027.399, 24083.82
1027.881, 24135.44
1028.363, 24160.39
1028.845, 24153.96
1029.327, 24122.29
1029.809, 24032.79
1030.292, 23964.96
1030.774, 23960.83
1031.256, 23963.97
1031.738, 23940.85
1032.220, 23896.16
1032.702, 23837.37
1033.184, 23763.66
1033.666, 23696.41
1034.148, 23645.96
1034.630, 23590.56
1035.113, 23468.40
1035.595, 23479.54
1036.077, 23478.58
1036.559, 23466.16
1037.041, 23407.98
1037.523, 23408.90
1038.005, 23386.12
1038.487, 23362.38
1038.970, 23371.58
1039.452, 23320.06
1039.934, 23328.76
1040.416, 23313.42
1040.898, 23316.21
1041.380, 23313.41
1041.862, 23307.81
1042.344, 23309.57
1042.826, 23328.00
1043.309, 23332.69
1043.791, 23315.33
1044.273, 23296.90
1044.755, 23278.54
1045.237, 23271.38
1045.719, 23288.41
1046.201, 23325.83
1046.683, 23368.98
1047.166, 23429.47
1047.648, 23451.09
1048.130, 23410.42
1048.612, 23402.85
1049.094, 23468.94
1049.576, 23546.13
1050.058, 23582.36
1050.540, 23589.46
1051.022, 23595.84
1051.505, 23599.21
1051.987, 23628.82
1052.469, 23690.78
1052.951, 23737.93
1053.433, 23757.03
1053.915, 23772.71
1054.397, 23802.77
1054.879, 23836.17
1055.361, 23853.82
1055.844, 23856.03
1056.326, 23839.69
1056.808, 23804.89
1057.290, 23805.60
1057.772, 23851.49
1058.254, 23884.31
1058.736, 23872.63
1059.218, 23844.79
1059.701, 23842.10
1060.183, 23850.08
1060.665, 23816.68
1061.147, 23747.97
1061.629, 23667.30
1062.111, 23582.73
1062.593, 23533.31
1063.075, 23533.04
1063.557, 23548.35
1064.040, 23548.65
1064.522, 23541.22
1065.004, 23547.66
1065.486, 23553.93
1065.968, 23509.45
1066.450, 23432.21
1066.932, 23398.17
1067.414, 23422.37
1067.896, 23454.77
1068.379, 23467.28
1068.861, 23451.38
1069.343, 23376.94
1069.825, 23283.76
1070.307, 23223.51
1070.789, 23189.51
1071.271, 23167.81
1071.753, 23152.08
1072.236, 23132.49
1072.718, 23103.91
1073.200, 23075.26
1073.682, 23047.92
1074.164, 23028.47
1074.646, 23034.23
1075.128, 23042.30
1075.610, 23026.44
1076.093, 22987.64
1076.575, 22931.16
1077.057, 22857.17
1077.539, 22802.54
1078.021, 22789.04
1078.503, 22791.09
1078.985, 22811.76
1079.467, 22829.13
1079.949, 22814.32
1080.432, 22790.54
1080.914, 22804.14
1081.396, 22857.28
1081.878, 22888.62
1082.360, 22875.73
1082.842, 22858.09
1083.324, 22848.99
1083.806, 22827.45
1084.288, 22768.92
1084.771, 22704.55
1085.253, 22668.53
1085.735, 22656.96
1086.217, 22652.43
1086.699, 22669.29
1087.181, 22651.09
1087.663, 22557.10
1088.145, 22515.22
1088.628, 22588.20
1089.110, 22666.12
1089.592, 22666.56
1090.074, 22619.34
1090.556, 22585.13
1091.038, 22563.50
1091.520, 22576.36
1092.002, 22635.23
1092.484, 22647.70
1092.967, 22591.54
1093.449, 22536.44
1093.931, 22516.33
1094.413, 22520.37
1094.895, 22537.72
1095.377, 22563.91
1095.859, 22586.87
1096.341, 22604.54
1096.823, 22595.06
1097.306, 22559.99
1097.788, 22528.26
1098.270, 22509.71
1098.752, 22504.43
1099.234, 22515.89
1099.716, 22526.65
1100.198, 22501.73
1100.680, 22461.08
1101.163, 22441.09
1101.645, 22441.55
1102.127, 22469.42
1102.609, 22514.18
1103.091, 22532.24
1103.573, 22502.13
1104.055, 22459.10
1104.537, 22410.76
1105.020, 22385.69
1105.502, 22437.04
1105.984, 22506.61
1106.466, 22521.87
1106.948, 22496.19
1107.430, 22471.82
1107.912, 22458.54
1108.394, 22448.04
1108.876, 22435.03
1109.359, 22427.06
1109.841, 22424.80
1110.323, 22430.87
1110.805, 22466.57
1111.287, 22497.93
1111.769, 22476.98
1112.251, 22411.91
1112.733, 22354.87
1113.215, 22301.03
1113.698, 22279.87
1114.180, 22319.08
1114.662, 22347.11
1115.144, 22333.62
1115.626, 22327.33
1116.108, 22375.98
1116.590, 22437.72
1117.072, 22430.79
1117.555, 22354.74
1118.037, 22280.88
1118.519, 22197.41
1119.001, 22198.79
1119.483, 22314.48
1119.965, 22389.16
1120.447, 22353.07
1120.929, 22282.14
1121.411, 22252.48
1121.894, 22251.04
1122.376, 22247.73
1122.858, 22242.72
1123.340, 22230.57
1123.822, 22216.17
1124.304, 22235.81
1124.786, 22290.60
1125.268, 22324.52
1125.750, 22305.07
1126.233, 22264.86
1126.715, 22230.96
1127.197, 22206.37
1127.679, 22200.90
1128.161, 22204.14
1128.643, 22200.39
1129.125, 22189.98
1129.607, 22172.49
1130.090, 22151.14
1130.572, 22156.97
1131.054, 22236.45
1131.536, 22291.47
1132.018, 22239.16
1132.500, 22180.50
1132.982, 22201.23
1133.464, 22243.06
1133.947, 22234.82
1134.429, 22179.88
1134.911, 22111.11
1135.393, 22013.96
1135.875, 21966.90
1136.357, 22007.85
1136.839, 22054.66
1137.321, 22109.75
1137.803, 22142.76
1138.286, 22124.29
1138.768, 22089.08
1139.250, 22092.42
1139.732, 22127.59
1140.214, 22123.37
1140.696, 22069.20
1141.178, 22064.37
1141.660, 22120.60
1142.142, 22167.84
1142.625, 22184.16
1143.107, 22174.55
1143.589, 22139.20
1144.071, 22098.86
1144.553, 22099.68
1145.035, 22121.49
1145.517, 22092.66
1145.999, 22033.06
1146.482, 22008.49
1146.964, 22019.89
1147.446, 22026.51
1147.928, 22013.89
1148.410, 22006.96
1148.892, 22028.58
1149.374, 22055.80
1149.856, 22086.93
1150.339, 22096.07
1150.821, 22032.31
1151.303, 21944.15
1151.785, 21906.50
1152.267, 21917.28
1152.749, 21919.61
1153.231, 21892.31
1153.713, 21886.41
1154.195, 21936.96
1154.677, 21977.83
1155.160, 21994.46
1155.642, 21988.98
1156.124, 21947.14
1156.606, 21897.91
1157.088, 21887.77
1157.570, 21912.06
1158.052, 21915.09
1158.534, 21893.35
1159.017, 21863.09
1159.499, 21820.97
1159.981, 21798.53
1160.463, 21807.70
1160.945, 21815.37
1161.427, 21795.49
1161.909, 21770.64
1162.391, 21789.54
1162.874, 21830.66
1163.356, 21810.59
1163.838, 21751.88
1164.320, 21727.09
1164.802, 21738.28
1165.284, 21754.97
1165.766, 21766.85
1166.248, 21780.72
1166.730, 21804.14
1167.213, 21823.31
1167.695, 21833.87
1168.177, 21827.87
1168.659, 21773.95
1169.141, 21716.92
1169.623, 21723.94
1170.105, 21775.31
1170.587, 21796.79
1171.069, 21770.36
1171.552, 21756.92
1172.034, 21793.16
1172.516, 21801.68
1172.998, 21748.27
1173.480, 21697.29
1173.962, 21672.45
1174.444, 21667.01
1174.926, 21676.12
1175.409, 21697.25
1175.891, 21727.09
1176.373, 21768.85
1176.855, 21766.95
1177.337, 21720.15
1177.819, 21686.83
1178.301, 21677.36
1178.783, 21658.67
1179.266, 21614.51
1179.748, 21578.71
1180.230, 21594.97
1180.712, 21626.64
1181.194, 21594.64
1181.676, 21549.44
1182.158, 21602.03
1182.640, 21701.82
1183.122, 21726.91
1183.604, 21675.96
1184.087, 21638.63
1184.569, 21650.62
1185.051, 21653.91
1185.533, 21616.39
1186.015, 21572.29
1186.497, 21515.39
1186.979, 21478.71
1187.461, 21494.30
1187.944, 21538.13
1188.426, 21584.13
1188.908, 21628.01
1189.390, 21642.24
1189.872, 21615.07
1190.354, 21599.20
1190.836, 21594.57
1191.318, 21606.62
1191.801, 21641.75
1192.283, 21652.77
1192.765, 21609.18
1193.247, 21558.96
1193.729, 21566.93
1194.211, 21605.12
1194.693, 21606.83
1195.175, 21582.46
1195.657, 21552.00
1196.140, 21522.47
1196.622, 21506.79
1197.104, 21506.51
1197.586, 21516.13
1198.068, 21534.06
1198.550, 21552.29
1199.032, 21569.15
1199.514, 21580.46
1199.996, 21598.06
1200.479, 21594.64
1200.961, 21526.74
1201.443, 21437.53
1201.925, 21385.96
1202.407, 21374.11
1202.889, 21383.93
1203.371, 21420.64
1203.853, 21465.84
1204.336, 21532.86
1204.818, 21561.25
1205.300, 21531.58
1205.782, 21493.60
1206.264, 21471.57
1206.746, 21469.01
1207.228, 21494.93
1207.710, 21533.97
1208.193, 21547.31
1208.675, 21542.27
1209.157, 21539.91
1209.639, 21538.08
1210.121, 21530.21
1210.603, 21512.68
1211.085, 21471.37
1211.567, 21399.63
1212.049, 21350.67
1212.531, 21381.26
1213.014, 21410.31
1213.496, 21378.64
1213.978, 21348.43
1214.460, 21376.04
1214.942, 21420.63
1215.424, 21429.11
1215.906, 21408.68
1216.388, 21394.14
1216.871, 21388.55
1217.353, 21367.82
1217.835, 21326.02
1218.317, 21293.52
1218.799, 21274.36
1219.281, 21267.23
1219.763, 21272.37
1220.245, 21277.66
1220.728, 21270.49
1221.210, 21263.11
1221.692, 21290.26
1222.174, 21324.83
1222.656, 21302.44
1223.138, 21247.42
1223.620, 21202.38
1224.102, 21176.27
1224.584, 21175.40
1225.067, 21199.14
1225.549, 21223.44
1226.031, 21236.57
1226.513, 21251.46
1226.995, 21282.09
1227.477, 21302.79
1227.959, 21298.48
1228.441, 21283.89
1228.923, 21270.43
1229.406, 21253.25
1229.888, 21219.66
1230.370, 21173.50
1230.852, 21167.19
1231.334, 21203.63
1231.816, 21198.80
1232.298, 21150.22
1232.780, 21119.18
1233.263, 21121.18
1233.745, 21145.13
1234.227, 21186.01
1234.709, 21213.23
1235.191, 21178.08
1235.673, 21132.64
1236.155, 21137.38
1236.637, 21160.71
1237.120, 21182.86
1237.602, 21188.86
1238.084, 21140.18
1238.566, 21056.53
1239.048, 21032.76
1239.530, 21107.01
1240.012, 21141.18
##END=



