##NAMES=Actinolite
##RRUFFID=R060045
##IDEAL CHEMISTRY=Ca_2_(Mg_4.5-2.5_Fe^2+^_0.5-2.5_)Si_8_O_22_(OH)_2_
##LOCALITY=Colorado, USA
##OWNER=RRUFF
##SOURCE=University of Arizona Mineral Museum
##DESCRIPTION=Green prismatic crystals in a radial arrangement
##STATUS=The identification of this mineral has been confirmed by X-ray diffraction and chemical analysis
##URL=rruff.info/R060045
##MEASURED CHEMISTRY=(Ca_1.99_Na_0.01_)_Σ=2_(Mg_4.20_Fe^2+^_0.59_Al_0.09_Fe^3+^_0.08_Mn_0.02_Ti_0.01_)_Σ=5_(Si_7.82_Al_0.18_)_Σ=8_O_22_(OH)_2_
149.6404, 1230.789
150.1225, 1231.607
150.6046, 1232.263
151.0867, 1233.313
151.5688, 1234.262
152.0509, 1236.328
152.5331, 1239.988
153.0152, 1244.798
153.4973, 1249.404
153.9794, 1252.528
154.4615, 1256.207
154.9436, 1261.341
155.4258, 1270.102
155.9079, 1277.719
156.3900, 1284.090
156.8721, 1289.070
157.3542, 1292.173
157.8363, 1292.645
158.3185, 1291.615
158.8006, 1289.757
159.2827, 1286.628
159.7648, 1283.314
160.2469, 1279.803
160.7290, 1276.197
161.2112, 1273.265
161.6933, 1271.197
162.1754, 1269.948
162.6575, 1269.474
163.1396, 1270.614
163.6217, 1271.786
164.1039, 1271.976
164.5860, 1271.208
165.0681, 1271.239
165.5502, 1273.705
166.0323, 1277.125
166.5145, 1279.844
166.9966, 1280.388
167.4787, 1280.687
167.9608, 1281.664
168.4429, 1283.347
168.9250, 1285.994
169.4071, 1290.796
169.8893, 1296.535
170.3714, 1301.315
170.8535, 1303.402
171.3356, 1304.803
171.8177, 1307.015
172.2998, 1310.133
172.7820, 1314.146
173.2641, 1319.552
173.7462, 1325.864
174.2283, 1332.056
174.7104, 1336.857
175.1925, 1341.646
175.6747, 1348.768
176.1568, 1359.262
176.6389, 1368.676
177.1210, 1372.945
177.6031, 1372.609
178.0852, 1369.497
178.5674, 1363.645
179.0495, 1355.932
179.5316, 1347.246
180.0137, 1337.212
180.4958, 1327.585
180.9779, 1320.365
181.4601, 1315.305
181.9422, 1311.295
182.4243, 1308.032
182.9064, 1305.300
183.3885, 1302.408
183.8706, 1298.954
184.3528, 1295.884
184.8349, 1294.945
185.3170, 1295.948
185.7991, 1297.063
186.2812, 1296.833
186.7633, 1295.600
187.2455, 1294.580
187.7276, 1293.893
188.2097, 1293.559
188.6918, 1293.628
189.1739, 1294.096
189.6560, 1294.898
190.1382, 1296.239
190.6203, 1298.006
191.1024, 1299.552
191.5845, 1301.018
192.0666, 1302.017
192.5487, 1301.083
193.0309, 1298.070
193.5130, 1295.251
193.9951, 1294.752
194.4772, 1296.475
194.9593, 1298.058
195.4414, 1299.058
195.9236, 1299.614
196.4057, 1299.982
196.8878, 1300.071
197.3699, 1300.413
197.8520, 1301.497
198.3341, 1303.336
198.8163, 1305.405
199.2984, 1307.518
199.7805, 1309.762
200.2626, 1312.900
200.7447, 1317.216
201.2268, 1321.260
201.7090, 1323.366
202.1911, 1323.330
202.6732, 1323.318
203.1553, 1323.729
203.6374, 1324.565
204.1195, 1325.909
204.6017, 1327.885
205.0838, 1330.072
205.5659, 1331.830
206.0480, 1332.924
206.5301, 1335.086
207.0122, 1339.323
207.4944, 1345.285
207.9765, 1348.576
208.4586, 1348.322
208.9407, 1347.175
209.4228, 1348.016
209.9049, 1351.367
210.3871, 1354.570
210.8692, 1356.632
211.3513, 1357.654
211.8334, 1360.769
212.3155, 1367.052
212.7976, 1373.673
213.2798, 1377.161
213.7619, 1376.275
214.2440, 1376.085
214.7261, 1377.693
215.2082, 1381.091
215.6903, 1385.931
216.1725, 1392.609
216.6546, 1400.095
217.1367, 1407.552
217.6188, 1415.667
218.1009, 1421.894
218.5830, 1424.967
219.0651, 1424.624
219.5473, 1426.545
220.0294, 1431.894
220.5115, 1438.089
220.9936, 1442.036
221.4757, 1442.986
221.9578, 1443.495
222.4400, 1444.516
222.9221, 1446.266
223.4042, 1445.358
223.8863, 1440.618
224.3684, 1434.495
224.8505, 1429.779
225.3327, 1427.246
225.8148, 1424.553
226.2969, 1420.819
226.7790, 1415.751
227.2611, 1412.962
227.7432, 1413.521
228.2254, 1415.276
228.7075, 1415.559
229.1896, 1413.042
229.6717, 1411.823
230.1538, 1413.611
230.6359, 1418.959
231.1181, 1421.096
231.6002, 1418.760
232.0823, 1414.401
232.5644, 1410.695
233.0465, 1407.803
233.5286, 1405.119
234.0108, 1402.394
234.4929, 1399.520
234.9750, 1397.444
235.4571, 1396.493
235.9392, 1396.027
236.4213, 1395.362
236.9035, 1394.335
237.3856, 1393.425
237.8677, 1392.721
238.3498, 1392.227
238.8319, 1391.955
239.3140, 1391.798
239.7962, 1391.985
240.2783, 1392.930
240.7604, 1395.566
241.2425, 1397.144
241.7246, 1396.541
242.2067, 1393.526
242.6889, 1392.684
243.1710, 1395.309
243.6531, 1398.848
244.1352, 1400.729
244.6173, 1399.967
245.0994, 1399.356
245.5816, 1399.245
246.0637, 1399.619
246.5458, 1401.021
247.0279, 1403.943
247.5100, 1407.404
247.9921, 1410.625
248.4743, 1414.197
248.9564, 1416.362
249.4385, 1416.316
249.9206, 1414.135
250.4027, 1413.251
250.8848, 1414.297
251.3670, 1415.934
251.8491, 1417.054
252.3312, 1417.694
252.8133, 1417.740
253.2954, 1416.999
253.7775, 1415.525
254.2597, 1414.180
254.7418, 1412.617
255.2239, 1411.595
255.7060, 1411.849
256.1881, 1414.026
256.6702, 1415.937
257.1523, 1417.448
257.6345, 1418.498
258.1166, 1418.358
258.5987, 1416.095
259.0808, 1414.036
259.5629, 1414.118
260.0450, 1417.338
260.5272, 1419.996
261.0093, 1421.647
261.4914, 1422.389
261.9735, 1422.556
262.4556, 1421.841
262.9377, 1421.105
263.4199, 1420.972
263.9020, 1421.648
264.3841, 1422.293
264.8662, 1422.853
265.3483, 1423.339
265.8304, 1423.869
266.3126, 1424.627
266.7947, 1425.075
267.2768, 1424.576
267.7589, 1422.518
268.2410, 1422.072
268.7231, 1424.069
269.2053, 1427.513
269.6874, 1429.290
270.1695, 1428.766
270.6516, 1428.308
271.1337, 1429.355
271.6158, 1432.287
272.0980, 1434.712
272.5801, 1436.395
273.0622, 1437.590
273.5443, 1438.995
274.0264, 1440.774
274.5085, 1441.990
274.9907, 1441.614
275.4728, 1439.223
275.9549, 1438.972
276.4370, 1441.679
276.9191, 1445.534
277.4012, 1447.008
277.8834, 1445.699
278.3655, 1444.352
278.8476, 1443.967
279.3297, 1444.563
279.8118, 1446.741
280.2939, 1451.144
280.7761, 1455.880
281.2582, 1457.497
281.7403, 1455.671
282.2224, 1454.714
282.7045, 1456.944
283.1866, 1461.972
283.6688, 1465.054
284.1509, 1465.900
284.6330, 1465.645
285.1151, 1465.465
285.5972, 1465.340
286.0793, 1465.353
286.5615, 1465.318
287.0436, 1465.395
287.5257, 1466.571
288.0078, 1468.969
288.4899, 1471.768
288.9720, 1474.659
289.4542, 1477.521
289.9363, 1478.950
290.4184, 1477.956
290.9005, 1475.509
291.3826, 1474.177
291.8647, 1473.983
292.3469, 1474.623
292.8290, 1476.172
293.3111, 1478.428
293.7932, 1480.534
294.2753, 1482.292
294.7574, 1483.786
295.2396, 1485.378
295.7217, 1487.036
296.2038, 1488.012
296.6859, 1487.062
297.1680, 1484.942
297.6501, 1483.714
298.1323, 1483.863
298.6144, 1484.903
299.0965, 1486.492
299.5786, 1488.547
300.0607, 1490.358
300.5428, 1491.391
301.0250, 1491.915
301.5071, 1492.381
301.9892, 1492.778
302.4713, 1493.311
302.9534, 1494.250
303.4355, 1495.509
303.9177, 1496.890
304.3998, 1498.597
304.8819, 1500.191
305.3640, 1501.028
305.8461, 1501.012
306.3282, 1500.506
306.8104, 1499.350
307.2925, 1497.953
307.7746, 1497.183
308.2567, 1497.986
308.7388, 1499.319
309.2209, 1500.311
309.7031, 1500.928
310.1852, 1501.331
310.6673, 1501.236
311.1494, 1501.098
311.6315, 1501.551
312.1136, 1503.589
312.5958, 1505.715
313.0779, 1506.665
313.5600, 1506.518
314.0421, 1506.694
314.5242, 1508.499
315.0063, 1510.733
315.4885, 1512.188
315.9706, 1511.796
316.4527, 1511.239
316.9348, 1510.803
317.4169, 1510.674
317.8990, 1511.725
318.3812, 1515.878
318.8633, 1520.418
319.3454, 1523.422
319.8275, 1524.048
320.3096, 1523.878
320.7917, 1522.790
321.2739, 1521.277
321.7560, 1520.531
322.2381, 1521.636
322.7202, 1523.047
323.2023, 1523.992
323.6844, 1524.059
324.1666, 1524.481
324.6487, 1525.293
325.1308, 1526.604
325.6129, 1528.582
326.0950, 1532.980
326.5771, 1536.388
327.0593, 1537.097
327.5414, 1533.826
328.0235, 1532.852
328.5056, 1536.519
328.9877, 1541.771
329.4698, 1545.391
329.9520, 1546.395
330.4341, 1546.935
330.9162, 1547.198
331.3983, 1547.176
331.8804, 1547.365
332.3625, 1547.978
332.8447, 1548.658
333.3268, 1549.093
333.8089, 1548.843
334.2910, 1549.245
334.7731, 1550.719
335.2552, 1553.038
335.7374, 1554.969
336.2195, 1556.741
336.7016, 1557.782
337.1837, 1557.280
337.6658, 1554.024
338.1479, 1553.489
338.6301, 1556.933
339.1122, 1562.487
339.5943, 1565.807
340.0764, 1566.367
340.5585, 1566.270
341.0406, 1566.085
341.5227, 1565.713
342.0049, 1566.840
342.4870, 1569.966
342.9691, 1573.569
343.4512, 1575.275
343.9333, 1574.988
344.4154, 1574.604
344.8976, 1574.978
345.3797, 1575.832
345.8618, 1575.609
346.3439, 1574.201
346.8260, 1572.500
347.3081, 1571.114
347.7903, 1570.109
348.2724, 1569.889
348.7545, 1570.756
349.2366, 1572.285
349.7187, 1573.799
350.2008, 1575.302
350.6830, 1576.545
351.1651, 1577.193
351.6472, 1577.462
352.1293, 1577.780
352.6114, 1578.133
353.0935, 1578.761
353.5757, 1580.323
354.0578, 1582.505
354.5399, 1584.244
355.0220, 1584.350
355.5041, 1583.943
355.9862, 1584.271
356.4684, 1585.427
356.9505, 1587.402
357.4326, 1590.727
357.9147, 1594.774
358.3968, 1598.519
358.8789, 1602.336
359.3611, 1605.125
359.8432, 1605.144
360.3253, 1602.557
360.8074, 1601.305
361.2895, 1604.984
361.7716, 1610.182
362.2538, 1613.728
362.7359, 1612.453
363.2180, 1611.955
363.7001, 1615.266
364.1822, 1621.323
364.6643, 1626.072
365.1465, 1626.527
365.6286, 1626.764
366.1107, 1629.272
366.5928, 1636.600
367.0749, 1641.862
367.5570, 1642.661
368.0392, 1640.991
368.5213, 1640.281
369.0034, 1642.303
369.4855, 1643.891
369.9676, 1644.030
370.4497, 1642.384
370.9319, 1640.775
371.4140, 1638.889
371.8961, 1637.144
372.3782, 1635.989
372.8603, 1635.758
373.3424, 1635.498
373.8246, 1635.281
374.3067, 1635.003
374.7888, 1633.563
375.2709, 1630.114
375.7530, 1626.963
376.2351, 1625.891
376.7173, 1627.683
377.1994, 1628.425
377.6815, 1627.521
378.1636, 1625.843
378.6457, 1625.226
379.1278, 1625.725
379.6100, 1627.127
380.0921, 1630.296
380.5742, 1635.053
381.0563, 1636.070
381.5384, 1632.433
382.0205, 1628.436
382.5027, 1629.984
382.9848, 1636.536
383.4669, 1643.131
383.9490, 1648.409
384.4311, 1652.555
384.9132, 1655.900
385.3954, 1658.436
385.8775, 1660.638
386.3596, 1662.477
386.8417, 1664.254
387.3238, 1666.752
387.8059, 1670.371
388.2881, 1674.223
388.7702, 1677.281
389.2523, 1679.744
389.7344, 1682.219
390.2165, 1685.490
390.6986, 1688.707
391.1808, 1691.200
391.6629, 1692.980
392.1450, 1693.648
392.6271, 1692.195
393.1092, 1689.697
393.5913, 1687.583
394.0735, 1687.892
394.5556, 1687.330
395.0377, 1684.149
395.5198, 1678.511
396.0019, 1672.296
396.4840, 1663.883
396.9662, 1656.536
397.4483, 1652.538
397.9304, 1655.509
398.4125, 1657.370
398.8946, 1656.177
399.3767, 1653.012
399.8589, 1650.560
400.3410, 1648.778
400.8231, 1647.912
401.3052, 1648.328
401.7873, 1650.644
402.2694, 1651.732
402.7516, 1651.038
403.2337, 1649.505
403.7158, 1648.053
404.1979, 1646.301
404.6800, 1645.496
405.1621, 1646.077
405.6443, 1647.880
406.1264, 1649.592
406.6085, 1651.214
407.0906, 1652.842
407.5727, 1654.404
408.0548, 1655.848
408.5370, 1658.217
409.0191, 1661.999
409.5012, 1665.948
409.9833, 1667.434
410.4654, 1666.471
410.9475, 1665.415
411.4297, 1665.881
411.9118, 1667.163
412.3939, 1666.207
412.8760, 1662.828
413.3581, 1659.812
413.8402, 1661.189
414.3224, 1665.092
414.8045, 1666.672
415.2866, 1663.220
415.7687, 1658.450
416.2508, 1656.785
416.7329, 1657.675
417.2151, 1658.594
417.6972, 1658.265
418.1793, 1657.134
418.6614, 1655.494
419.1435, 1653.286
419.6256, 1651.100
420.1078, 1648.819
420.5899, 1646.887
421.0720, 1645.878
421.5541, 1647.568
422.0362, 1648.781
422.5183, 1647.263
423.0005, 1643.074
423.4826, 1641.208
423.9647, 1645.303
424.4468, 1650.573
424.9289, 1653.827
425.4110, 1653.567
425.8932, 1652.738
426.3753, 1650.732
426.8574, 1648.252
427.3395, 1647.002
427.8216, 1647.700
428.3037, 1648.600
428.7859, 1648.799
429.2680, 1647.877
429.7501, 1649.350
430.2322, 1654.447
430.7143, 1660.137
431.1964, 1663.047
431.6786, 1662.816
432.1607, 1661.598
432.6428, 1659.457
433.1249, 1656.840
433.6070, 1655.079
434.0891, 1654.202
434.5713, 1654.141
435.0534, 1655.544
435.5355, 1657.951
436.0176, 1658.910
436.4997, 1658.043
436.9818, 1656.648
437.4640, 1656.143
437.9461, 1656.395
438.4282, 1656.989
438.9103, 1658.536
439.3924, 1659.832
439.8745, 1658.637
440.3566, 1655.304
440.8387, 1652.719
441.3209, 1653.018
441.8030, 1654.901
442.2851, 1657.305
442.7672, 1660.695
443.2493, 1662.938
443.7314, 1661.126
444.2136, 1657.537
444.6957, 1656.351
445.1778, 1663.032
445.6599, 1668.604
446.1420, 1668.201
446.6241, 1660.851
447.1063, 1656.474
447.5884, 1659.047
448.0705, 1663.566
448.5526, 1666.285
449.0347, 1665.650
449.5168, 1665.380
449.9990, 1666.019
450.4811, 1667.103
450.9632, 1667.213
451.4453, 1665.849
451.9274, 1664.463
452.4095, 1663.396
452.8917, 1662.591
453.3738, 1663.402
453.8559, 1666.361
454.3380, 1669.685
454.8201, 1671.332
455.3022, 1671.281
455.7844, 1671.186
456.2665, 1671.583
456.7486, 1671.978
457.2307, 1670.556
457.7128, 1667.542
458.1949, 1665.728
458.6771, 1668.252
459.1592, 1672.960
459.6413, 1675.315
460.1234, 1674.797
460.6055, 1673.497
461.0876, 1672.949
461.5698, 1672.935
462.0519, 1673.087
462.5340, 1673.309
463.0161, 1673.625
463.4982, 1674.354
463.9803, 1675.309
464.4625, 1675.633
464.9446, 1673.661
465.4267, 1671.913
465.9088, 1672.046
466.3909, 1674.910
466.8730, 1677.875
467.3552, 1681.281
467.8373, 1684.216
468.3194, 1685.489
468.8015, 1683.035
469.2836, 1681.280
469.7657, 1680.906
470.2479, 1681.805
470.7300, 1683.141
471.2121, 1685.167
471.6942, 1687.183
472.1763, 1688.891
472.6584, 1690.341
473.1406, 1691.071
473.6227, 1690.948
474.1048, 1690.321
474.5869, 1689.445
475.0690, 1688.320
475.5511, 1687.942
476.0333, 1688.869
476.5154, 1690.670
476.9975, 1692.664
477.4796, 1694.813
477.9617, 1696.000
478.4438, 1694.313
478.9260, 1691.333
479.4081, 1689.977
479.8902, 1690.777
480.3723, 1692.667
480.8544, 1695.953
481.3365, 1699.509
481.8187, 1701.404
482.3008, 1698.936
482.7829, 1696.225
483.2650, 1695.621
483.7471, 1696.944
484.2292, 1698.514
484.7114, 1699.579
485.1935, 1700.877
485.6756, 1703.082
486.1577, 1707.776
486.6398, 1710.358
487.1219, 1708.565
487.6041, 1705.143
488.0862, 1703.741
488.5683, 1705.988
489.0504, 1707.477
489.5325, 1706.983
490.0146, 1704.838
490.4968, 1703.797
490.9789, 1704.138
491.4610, 1704.823
491.9431, 1705.113
492.4252, 1704.981
492.9073, 1705.623
493.3895, 1707.374
493.8716, 1709.111
494.3537, 1708.796
494.8358, 1706.881
495.3179, 1705.998
495.8000, 1707.783
496.2822, 1710.518
496.7643, 1711.168
497.2464, 1710.127
497.7285, 1709.587
498.2106, 1711.743
498.6927, 1714.693
499.1749, 1716.251
499.6570, 1715.779
500.1391, 1715.586
500.6212, 1716.848
501.1033, 1719.069
501.5854, 1721.698
502.0676, 1725.141
502.5497, 1728.289
503.0318, 1731.211
503.5139, 1733.731
503.9960, 1734.952
504.4781, 1733.857
504.9603, 1732.465
505.4424, 1731.287
505.9245, 1729.995
506.4066, 1730.611
506.8887, 1734.323
507.3708, 1738.485
507.8530, 1740.072
508.3351, 1738.573
508.8172, 1737.292
509.2993, 1736.692
509.7814, 1736.768
510.2635, 1737.760
510.7457, 1739.650
511.2278, 1741.439
511.7099, 1742.409
512.1920, 1742.863
512.6741, 1743.668
513.1563, 1744.845
513.6384, 1745.840
514.1205, 1745.850
514.6026, 1745.478
515.0847, 1745.630
515.5668, 1746.750
516.0490, 1748.080
516.5311, 1749.298
517.0132, 1750.400
517.4953, 1751.368
517.9774, 1752.929
518.4595, 1753.702
518.9417, 1752.400
519.4238, 1748.820
519.9059, 1747.104
520.3880, 1749.895
520.8701, 1752.957
521.3522, 1753.864
521.8344, 1750.753
522.3165, 1749.439
522.7986, 1751.025
523.2807, 1753.504
523.7628, 1752.914
524.2449, 1748.321
524.7271, 1745.807
525.2092, 1747.983
525.6913, 1753.273
526.1734, 1755.810
526.6555, 1755.552
527.1376, 1754.967
527.6198, 1755.942
528.1019, 1757.876
528.5840, 1759.351
529.0661, 1760.175
529.5482, 1760.942
530.0303, 1762.849
530.5125, 1764.885
530.9946, 1765.434
531.4767, 1762.326
531.9588, 1759.426
532.4409, 1759.497
532.9230, 1761.487
533.4052, 1762.364
533.8873, 1759.345
534.3694, 1756.601
534.8515, 1756.270
535.3336, 1759.108
535.8157, 1760.737
536.2979, 1760.454
536.7800, 1759.506
537.2621, 1758.688
537.7442, 1757.772
538.2263, 1757.763
538.7084, 1759.198
539.1906, 1761.147
539.6727, 1761.676
540.1548, 1760.715
540.6369, 1759.524
541.1190, 1758.327
541.6011, 1757.321
542.0833, 1757.398
542.5654, 1758.502
543.0475, 1759.462
543.5296, 1758.561
544.0117, 1757.213
544.4938, 1757.921
544.9760, 1761.240
545.4581, 1764.812
545.9402, 1767.130
546.4223, 1768.544
546.9044, 1769.510
547.3865, 1770.042
547.8687, 1770.241
548.3508, 1769.892
548.8329, 1769.186
549.3150, 1768.751
549.7971, 1767.857
550.2792, 1768.159
550.7614, 1771.150
551.2435, 1777.394
551.7256, 1779.392
552.2077, 1774.909
552.6898, 1769.652
553.1719, 1768.506
553.6541, 1772.200
554.1362, 1774.203
554.6183, 1773.543
555.1004, 1771.958
555.5825, 1772.469
556.0646, 1774.731
556.5468, 1776.509
557.0289, 1776.485
557.5110, 1775.908
557.9931, 1777.058
558.4752, 1779.550
558.9573, 1781.419
559.4395, 1780.950
559.9216, 1779.665
560.4037, 1778.745
560.8858, 1778.314
561.3679, 1778.306
561.8500, 1779.146
562.3322, 1780.177
562.8143, 1780.843
563.2964, 1781.383
563.7785, 1781.129
564.2606, 1779.317
564.7427, 1776.928
565.2249, 1775.914
565.7070, 1776.701
566.1891, 1778.011
566.6712, 1779.824
567.1533, 1781.901
567.6354, 1782.681
568.1176, 1781.968
568.5997, 1781.149
569.0818, 1781.257
569.5639, 1782.071
570.0460, 1782.699
570.5281, 1783.059
571.0103, 1783.365
571.4924, 1784.130
571.9745, 1784.931
572.4566, 1784.873
572.9387, 1782.719
573.4208, 1781.222
573.9030, 1782.918
574.3851, 1786.561
574.8672, 1789.416
575.3493, 1790.038
575.8314, 1790.221
576.3135, 1790.436
576.7957, 1790.696
577.2778, 1791.231
577.7599, 1792.495
578.2420, 1793.507
578.7241, 1793.507
579.2062, 1791.883
579.6884, 1792.053
580.1705, 1794.784
580.6526, 1797.821
581.1347, 1798.109
581.6168, 1795.772
582.0989, 1794.000
582.5811, 1793.557
583.0632, 1793.865
583.5453, 1794.108
584.0274, 1794.328
584.5095, 1794.653
584.9916, 1794.727
585.4738, 1795.221
585.9559, 1797.615
586.4380, 1801.501
586.9201, 1803.708
587.4022, 1800.856
587.8843, 1797.210
588.3664, 1795.499
588.8485, 1796.454
589.3306, 1798.047
589.8127, 1801.507
590.2949, 1804.605
590.7770, 1805.158
591.2591, 1801.666
591.7412, 1799.134
592.2233, 1798.211
592.7054, 1798.389
593.1876, 1798.674
593.6697, 1799.091
594.1518, 1799.576
594.6339, 1800.509
595.1160, 1801.302
595.5981, 1799.767
596.0803, 1796.194
596.5624, 1793.352
597.0445, 1793.379
597.5266, 1795.071
598.0087, 1797.276
598.4908, 1799.953
598.9730, 1802.066
599.4551, 1802.594
599.9372, 1802.496
600.4193, 1802.584
600.9014, 1802.134
601.3835, 1803.146
601.8657, 1808.030
602.3478, 1813.848
602.8299, 1816.060
603.3120, 1812.594
603.7941, 1809.525
604.2762, 1807.978
604.7584, 1807.796
605.2405, 1808.686
605.7226, 1810.903
606.2047, 1812.478
606.6868, 1812.108
607.1689, 1810.300
607.6511, 1808.641
608.1332, 1807.143
608.6153, 1805.750
609.0974, 1803.687
609.5795, 1801.971
610.0616, 1802.194
610.5438, 1805.074
611.0259, 1808.219
611.5080, 1810.623
611.9901, 1812.416
612.4722, 1813.779
612.9543, 1814.773
613.4365, 1815.278
613.9186, 1814.864
614.4007, 1813.984
614.8828, 1813.624
615.3649, 1813.696
615.8470, 1814.490
616.3292, 1816.397
616.8113, 1819.147
617.2934, 1820.947
617.7755, 1821.757
618.2576, 1821.986
618.7397, 1821.689
619.2219, 1821.042
619.7040, 1820.392
620.1861, 1819.733
620.6682, 1819.548
621.1503, 1820.508
621.6324, 1822.083
622.1146, 1823.765
622.5967, 1825.788
623.0788, 1827.134
623.5609, 1826.621
624.0430, 1825.423
624.5251, 1825.209
625.0073, 1828.034
625.4894, 1829.743
625.9715, 1829.237
626.4536, 1827.266
626.9357, 1826.234
627.4178, 1826.280
627.9000, 1826.886
628.3821, 1827.926
628.8642, 1829.346
629.3463, 1830.812
629.8284, 1832.285
630.3105, 1833.928
630.7927, 1835.932
631.2748, 1838.132
631.7569, 1840.568
632.2390, 1843.336
632.7211, 1845.046
633.2032, 1843.577
633.6854, 1841.016
634.1675, 1839.642
634.6496, 1840.471
635.1317, 1841.718
635.6138, 1843.277
636.0959, 1844.934
636.5781, 1846.293
637.0602, 1846.913
637.5423, 1848.095
638.0244, 1850.456
638.5065, 1853.384
638.9886, 1854.665
639.4708, 1853.934
639.9529, 1853.845
640.4350, 1856.040
640.9171, 1859.611
641.3992, 1861.399
641.8813, 1861.503
642.3635, 1861.641
642.8456, 1862.795
643.3277, 1864.760
643.8098, 1867.611
644.2919, 1871.425
644.7740, 1874.856
645.2562, 1877.372
645.7383, 1879.063
646.2204, 1879.825
646.7025, 1878.011
647.1846, 1878.162
647.6667, 1881.559
648.1489, 1886.345
648.6310, 1890.364
649.1131, 1893.529
649.5952, 1895.980
650.0773, 1897.539
650.5594, 1898.652
651.0416, 1900.470
651.5237, 1902.919
652.0058, 1905.019
652.4879, 1905.347
652.9700, 1905.809
653.4521, 1909.573
653.9343, 1916.217
654.4164, 1923.580
654.8985, 1931.605
655.3806, 1939.047
655.8627, 1944.344
656.3448, 1947.214
656.8270, 1951.563
657.3091, 1960.506
657.7912, 1969.391
658.2733, 1975.164
658.7554, 1975.973
659.2375, 1979.424
659.7197, 1985.977
660.2018, 1994.332
660.6839, 2003.353
661.1660, 2013.007
661.6481, 2022.771
662.1302, 2032.441
662.6124, 2042.488
663.0945, 2053.869
663.5766, 2066.146
664.0587, 2078.273
664.5408, 2089.498
665.0229, 2100.694
665.5051, 2112.064
665.9872, 2123.852
666.4693, 2136.645
666.9514, 2151.302
667.4335, 2166.354
667.9156, 2182.106
668.3978, 2198.171
668.8799, 2212.000
669.3620, 2222.915
669.8441, 2233.091
670.3262, 2244.683
670.8083, 2257.365
671.2905, 2263.259
671.7726, 2261.921
672.2547, 2258.113
672.7368, 2257.922
673.2189, 2257.797
673.7010, 2249.609
674.1832, 2231.872
674.6653, 2211.223
675.1474, 2191.410
675.6295, 2171.473
676.1116, 2150.382
676.5938, 2126.618
677.0759, 2104.066
677.5580, 2083.083
678.0401, 2064.021
678.5222, 2047.145
679.0043, 2033.383
679.4865, 2019.636
679.9686, 2004.824
680.4507, 1990.282
680.9328, 1978.278
681.4149, 1968.923
681.8970, 1961.160
682.3792, 1954.924
682.8613, 1949.846
683.3434, 1945.826
683.8255, 1942.547
684.3076, 1938.304
684.7897, 1930.921
685.2719, 1923.328
685.7540, 1917.505
686.2361, 1913.521
686.7182, 1910.514
687.2003, 1909.166
687.6824, 1907.987
688.1646, 1906.312
688.6467, 1904.083
689.1288, 1901.578
689.6109, 1898.495
690.0930, 1895.763
690.5751, 1893.810
691.0573, 1892.689
691.5394, 1893.768
692.0215, 1897.442
692.5036, 1900.853
692.9857, 1900.486
693.4678, 1897.860
693.9500, 1895.509
694.4321, 1893.881
694.9142, 1892.889
695.3963, 1893.218
695.8784, 1893.897
696.3605, 1893.677
696.8427, 1891.586
697.3248, 1889.498
697.8069, 1887.465
698.2890, 1885.662
698.7711, 1884.481
699.2532, 1884.069
699.7354, 1883.852
700.2175, 1883.750
700.6996, 1883.745
701.1817, 1883.490
701.6638, 1883.135
702.1459, 1883.591
702.6281, 1886.716
703.1102, 1889.973
703.5923, 1889.831
704.0744, 1887.050
704.5565, 1885.432
705.0386, 1888.151
705.5208, 1891.120
706.0029, 1892.148
706.4850, 1890.877
706.9671, 1889.803
707.4492, 1888.872
707.9313, 1888.159
708.4135, 1887.533
708.8956, 1886.920
709.3777, 1887.666
709.8598, 1889.953
710.3419, 1892.365
710.8240, 1893.685
711.3062, 1894.152
711.7883, 1894.132
712.2704, 1893.582
712.7525, 1893.484
713.2346, 1895.557
713.7167, 1898.024
714.1989, 1898.892
714.6810, 1896.403
715.1631, 1894.817
715.6452, 1896.008
716.1273, 1897.888
716.6094, 1898.068
717.0916, 1895.515
717.5737, 1894.521
718.0558, 1896.194
718.5379, 1898.725
719.0200, 1898.507
719.5021, 1895.955
719.9843, 1894.140
720.4664, 1894.073
720.9485, 1895.081
721.4306, 1897.060
721.9127, 1899.493
722.3948, 1901.109
722.8770, 1900.747
723.3591, 1900.135
723.8412, 1899.964
724.3233, 1900.126
724.8054, 1900.061
725.2875, 1898.993
725.7697, 1898.937
726.2518, 1900.985
726.7339, 1904.507
727.2160, 1906.252
727.6981, 1906.113
728.1802, 1905.399
728.6624, 1904.109
729.1445, 1902.971
729.6266, 1904.205
730.1087, 1907.467
730.5908, 1909.931
731.0729, 1909.463
731.5551, 1907.905
732.0372, 1906.391
732.5193, 1905.025
733.0014, 1904.080
733.4835, 1903.286
733.9656, 1903.271
734.4478, 1904.455
734.9299, 1907.004
735.4120, 1909.934
735.8941, 1913.560
736.3762, 1916.490
736.8583, 1916.672
737.3405, 1915.029
737.8226, 1915.557
738.3047, 1918.810
738.7868, 1921.727
739.2689, 1920.144
739.7510, 1917.502
740.2332, 1918.171
740.7153, 1924.850
741.1974, 1929.955
741.6795, 1930.042
742.1616, 1928.220
742.6437, 1927.557
743.1259, 1928.766
743.6080, 1929.173
744.0901, 1928.233
744.5722, 1927.129
745.0543, 1928.031
745.5364, 1930.635
746.0186, 1931.903
746.5007, 1930.875
746.9828, 1929.357
747.4649, 1929.886
747.9470, 1931.279
748.4291, 1931.455
748.9113, 1928.709
749.3934, 1925.844
749.8755, 1923.152
750.3576, 1921.136
750.8397, 1920.814
751.3218, 1922.906
751.8040, 1925.463
752.2861, 1929.016
752.7682, 1932.107
753.2503, 1929.917
753.7324, 1922.707
754.2145, 1918.050
754.6967, 1920.317
755.1788, 1924.612
755.6609, 1923.297
756.1430, 1918.175
756.6251, 1914.306
757.1072, 1915.795
757.5894, 1917.352
758.0715, 1915.823
758.5536, 1912.104
759.0357, 1910.527
759.5178, 1912.526
759.9999, 1914.712
760.4821, 1916.267
760.9642, 1917.211
761.4463, 1917.260
761.9284, 1916.350
762.4105, 1916.176
762.8926, 1918.614
763.3748, 1921.830
763.8569, 1922.529
764.3390, 1921.053
764.8211, 1919.224
765.3032, 1916.962
765.7853, 1915.563
766.2675, 1916.062
766.7496, 1918.497
767.2317, 1920.925
767.7138, 1924.148
768.1959, 1926.062
768.6780, 1925.235
769.1602, 1921.987
769.6423, 1920.606
770.1244, 1921.191
770.6065, 1922.365
771.0886, 1923.413
771.5707, 1924.312
772.0529, 1924.980
772.5350, 1925.402
773.0171, 1925.734
773.4992, 1925.342
773.9813, 1925.386
774.4634, 1926.975
774.9456, 1930.514
775.4277, 1932.846
775.9098, 1933.446
776.3919, 1933.374
776.8740, 1933.119
777.3561, 1932.699
777.8383, 1932.588
778.3204, 1932.898
778.8025, 1932.803
779.2846, 1931.308
779.7667, 1929.121
780.2488, 1927.226
780.7310, 1925.717
781.2131, 1925.132
781.6952, 1926.034
782.1773, 1927.761
782.6594, 1929.967
783.1415, 1932.827
783.6237, 1935.374
784.1058, 1937.892
784.5879, 1939.551
785.0699, 1939.115
785.5521, 1936.563
786.0342, 1936.259
786.5163, 1938.527
786.9984, 1940.823
787.4805, 1940.257
787.9626, 1938.490
788.4448, 1938.314
788.9269, 1940.346
789.4090, 1941.692
789.8911, 1940.306
790.3732, 1938.199
790.8553, 1936.904
791.3375, 1936.713
791.8196, 1936.791
792.3017, 1937.312
792.7838, 1937.773
793.2659, 1937.106
793.7480, 1935.567
794.2302, 1937.034
794.7123, 1942.049
795.1944, 1946.938
795.6765, 1948.142
796.1586, 1947.415
796.6407, 1946.959
797.1229, 1947.221
797.6050, 1947.341
798.0871, 1947.500
798.5692, 1947.069
799.0513, 1945.332
799.5334, 1941.231
800.0156, 1939.545
800.4977, 1940.932
800.9798, 1943.188
801.4619, 1944.197
801.9440, 1944.227
802.4261, 1944.531
802.9083, 1945.246
803.3904, 1945.923
803.8725, 1946.126
804.3546, 1946.095
804.8367, 1946.031
805.3188, 1945.882
805.8010, 1945.939
806.2831, 1946.245
806.7652, 1946.782
807.2473, 1947.694
807.7294, 1949.265
808.2115, 1949.830
808.6937, 1949.254
809.1758, 1948.232
809.6579, 1946.741
810.1400, 1945.430
810.6221, 1946.459
811.1042, 1950.268
811.5864, 1953.629
812.0685, 1954.687
812.5506, 1954.137
813.0327, 1952.077
813.5148, 1947.283
813.9969, 1945.197
814.4791, 1947.725
814.9612, 1950.812
815.4433, 1950.888
815.9254, 1947.759
816.4075, 1948.340
816.8896, 1953.184
817.3718, 1957.951
817.8539, 1957.760
818.3360, 1955.300
818.8181, 1955.116
819.3002, 1957.928
819.7823, 1959.536
820.2645, 1955.825
820.7466, 1951.869
821.2287, 1951.552
821.7108, 1955.787
822.1929, 1959.223
822.6750, 1961.934
823.1572, 1963.793
823.6393, 1964.328
824.1214, 1963.821
824.6035, 1963.745
825.0856, 1964.137
825.5677, 1964.756
826.0499, 1965.653
826.5320, 1966.489
827.0141, 1966.996
827.4962, 1967.136
827.9783, 1966.841
828.4604, 1965.198
828.9426, 1963.988
829.4247, 1964.121
829.9068, 1965.634
830.3889, 1967.386
830.8710, 1969.543
831.3531, 1970.759
831.8353, 1969.018
832.3174, 1966.051
832.7995, 1965.669
833.2816, 1967.713
833.7637, 1969.581
834.2458, 1969.706
834.7280, 1969.335
835.2101, 1969.085
835.6922, 1969.008
836.1743, 1968.985
836.6564, 1968.711
837.1385, 1969.154
837.6207, 1971.278
838.1028, 1974.395
838.5849, 1975.207
839.0670, 1973.812
839.5491, 1971.645
840.0313, 1968.356
840.5134, 1965.626
840.9955, 1965.372
841.4776, 1967.226
841.9597, 1969.208
842.4418, 1970.341
842.9240, 1971.998
843.4061, 1975.019
843.8882, 1978.852
844.3703, 1981.158
844.8524, 1981.882
845.3345, 1981.348
845.8167, 1979.007
846.2988, 1976.206
846.7809, 1975.677
847.2630, 1976.783
847.7451, 1977.614
848.2272, 1976.809
848.7094, 1976.067
849.1915, 1976.303
849.6736, 1977.192
850.1557, 1977.785
850.6378, 1977.911
851.1199, 1978.115
851.6021, 1978.479
852.0842, 1979.012
852.5663, 1979.831
853.0484, 1980.846
853.5305, 1981.510
854.0126, 1981.131
854.4948, 1981.326
854.9769, 1984.364
855.4590, 1988.607
855.9411, 1991.639
856.4232, 1991.686
856.9053, 1991.906
857.3875, 1992.837
857.8696, 1993.781
858.3517, 1993.819
858.8338, 1992.933
859.3159, 1991.507
859.7980, 1989.414
860.2802, 1987.726
860.7623, 1988.444
861.2444, 1990.148
861.7265, 1990.322
862.2086, 1987.693
862.6907, 1986.109
863.1729, 1988.289
863.6550, 1991.309
864.1371, 1992.510
864.6192, 1990.907
865.1013, 1991.353
865.5834, 1994.394
866.0656, 1997.524
866.5477, 1998.240
867.0298, 1997.269
867.5119, 1996.327
867.9940, 1995.541
868.4761, 1995.257
868.9583, 1996.353
869.4404, 1997.483
869.9225, 1997.507
870.4046, 1996.082
870.8867, 1995.420
871.3688, 1995.794
871.8510, 1996.480
872.3331, 1997.278
872.8152, 1998.111
873.2973, 1998.158
873.7794, 1997.546
874.2615, 1997.625
874.7437, 1999.843
875.2258, 2002.652
875.7079, 2005.235
876.1900, 2007.398
876.6721, 2008.424
877.1542, 2007.468
877.6364, 2006.079
878.1185, 2004.255
878.6006, 2002.349
879.0827, 2002.011
879.5648, 2003.226
880.0469, 2003.707
880.5291, 2002.084
881.0112, 2000.048
881.4933, 1999.902
881.9754, 2000.948
882.4575, 2001.754
882.9396, 2000.897
883.4218, 2000.866
883.9039, 2002.807
884.3860, 2005.566
884.8681, 2007.604
885.3502, 2008.884
885.8323, 2009.686
886.3145, 2010.020
886.7966, 2010.032
887.2787, 2010.205
887.7608, 2010.118
888.2429, 2008.544
888.7250, 2004.370
889.2072, 2001.804
889.6893, 2004.230
890.1714, 2008.019
890.6535, 2009.936
891.1356, 2009.270
891.6177, 2009.497
892.0999, 2010.906
892.5820, 2012.179
893.0641, 2011.753
893.5462, 2010.388
894.0283, 2010.269
894.5104, 2011.436
894.9926, 2012.328
895.4747, 2011.577
895.9568, 2010.614
896.4389, 2010.325
896.9210, 2010.769
897.4031, 2011.323
897.8853, 2012.111
898.3674, 2012.724
898.8495, 2012.931
899.3316, 2012.898
899.8137, 2013.220
900.2958, 2013.801
900.7780, 2014.136
901.2601, 2013.100
901.7422, 2012.587
902.2243, 2014.414
902.7064, 2017.661
903.1885, 2019.937
903.6707, 2021.107
904.1528, 2021.051
904.6349, 2019.131
905.1170, 2016.768
905.5991, 2016.917
906.0812, 2019.024
906.5634, 2019.858
907.0455, 2018.108
907.5276, 2016.810
908.0097, 2019.742
908.4918, 2023.915
908.9739, 2025.832
909.4561, 2023.281
909.9382, 2021.713
910.4203, 2021.474
910.9024, 2021.970
911.3845, 2022.969
911.8666, 2024.416
912.3488, 2025.454
912.8309, 2026.078
913.3130, 2026.485
913.7951, 2026.462
914.2772, 2026.588
914.7593, 2027.526
915.2415, 2029.290
915.7236, 2030.864
916.2057, 2032.034
916.6878, 2032.965
917.1699, 2033.277
917.6520, 2033.427
918.1342, 2036.145
918.6163, 2041.138
919.0984, 2045.083
919.5805, 2046.040
920.0626, 2045.598
920.5447, 2044.433
921.0269, 2043.125
921.5090, 2042.881
921.9911, 2045.195
922.4732, 2047.070
922.9553, 2048.065
923.4374, 2048.685
923.9196, 2049.639
924.4017, 2050.939
924.8838, 2052.443
925.3659, 2054.220
925.8480, 2055.797
926.3301, 2056.358
926.8123, 2056.656
927.2944, 2057.704
927.7765, 2060.084
928.2586, 2061.512
928.7407, 2061.069
929.2228, 2060.561
929.7050, 2061.316
930.1871, 2063.194
930.6692, 2063.538
931.1513, 2062.395
931.6334, 2061.805
932.1155, 2064.722
932.5977, 2067.618
933.0798, 2066.797
933.5619, 2062.874
934.0440, 2059.284
934.5261, 2056.136
935.0082, 2054.289
935.4904, 2054.286
935.9725, 2055.397
936.4546, 2056.374
936.9367, 2057.069
937.4188, 2055.713
937.9009, 2050.602
938.3831, 2046.181
938.8652, 2048.376
939.3473, 2053.093
939.8294, 2054.651
940.3115, 2048.363
940.7936, 2045.481
941.2758, 2047.733
941.7579, 2051.442
942.2400, 2053.523
942.7221, 2054.090
943.2042, 2053.673
943.6863, 2052.310
944.1685, 2051.377
944.6506, 2052.339
945.1327, 2053.805
945.6148, 2055.089
946.0969, 2056.041
946.5790, 2054.796
947.0612, 2048.799
947.5433, 2045.417
948.0254, 2048.149
948.5075, 2054.481
948.9896, 2056.647
949.4717, 2055.396
949.9539, 2054.650
950.4360, 2057.451
950.9181, 2059.229
951.4002, 2055.181
951.8823, 2048.707
952.3644, 2045.348
952.8466, 2047.863
953.3287, 2048.392
953.8108, 2045.777
954.2929, 2042.946
954.7750, 2043.796
955.2571, 2047.146
955.7393, 2049.448
956.2214, 2050.331
956.7035, 2050.137
957.1856, 2047.246
957.6677, 2044.842
958.1498, 2045.962
958.6320, 2050.622
959.1141, 2052.407
959.5962, 2050.345
960.0783, 2048.719
960.5604, 2049.782
961.0425, 2052.168
961.5247, 2052.765
962.0068, 2052.110
962.4889, 2051.854
962.9710, 2053.297
963.4531, 2054.623
963.9352, 2055.434
964.4174, 2055.594
964.8995, 2054.734
965.3816, 2052.451
965.8637, 2051.122
966.3458, 2051.023
966.8279, 2051.801
967.3101, 2053.654
967.7922, 2055.921
968.2743, 2057.594
968.7564, 2058.578
969.2385, 2058.859
969.7206, 2056.376
970.2028, 2055.415
970.6849, 2058.870
971.1670, 2065.850
971.6491, 2068.431
972.1312, 2066.488
972.6133, 2064.064
973.0955, 2062.625
973.5776, 2062.155
974.0597, 2063.326
974.5418, 2065.315
975.0239, 2066.505
975.5060, 2065.556
975.9882, 2064.937
976.4703, 2065.018
976.9524, 2065.438
977.4345, 2066.036
977.9166, 2066.738
978.3987, 2066.235
978.8809, 2064.339
979.3630, 2062.839
979.8451, 2063.401
980.3272, 2064.938
980.8093, 2066.857
981.2914, 2069.163
981.7736, 2070.360
982.2557, 2070.038
982.7377, 2069.413
983.2198, 2068.740
983.7020, 2068.250
984.1841, 2068.782
984.6662, 2070.081
985.1483, 2071.312
985.6304, 2072.085
986.1125, 2072.695
986.5947, 2073.745
987.0768, 2074.427
987.5589, 2073.241
988.0410, 2068.680
988.5231, 2068.241
989.0052, 2073.089
989.4874, 2078.544
989.9695, 2079.267
990.4516, 2077.730
990.9337, 2078.699
991.4158, 2082.411
991.8979, 2084.083
992.3801, 2079.455
992.8622, 2075.060
993.3443, 2073.588
993.8264, 2074.387
994.3085, 2074.691
994.7906, 2074.528
995.2728, 2073.672
995.7549, 2071.350
996.2370, 2069.697
996.7191, 2072.166
997.2012, 2076.341
997.6833, 2078.719
998.1655, 2077.109
998.6476, 2075.759
999.1297, 2074.208
999.6118, 2073.796
1000.094, 2076.508
1000.576, 2081.469
1001.058, 2084.274
1001.540, 2084.908
1002.022, 2085.346
1002.505, 2086.674
1002.987, 2088.340
1003.469, 2090.680
1003.951, 2093.135
1004.433, 2093.013
1004.915, 2089.230
1005.397, 2087.455
1005.879, 2089.555
1006.361, 2093.000
1006.844, 2093.872
1007.326, 2093.406
1007.808, 2094.098
1008.290, 2097.148
1008.772, 2099.340
1009.254, 2098.300
1009.736, 2097.332
1010.218, 2098.781
1010.701, 2102.603
1011.183, 2103.931
1011.665, 2102.840
1012.147, 2102.116
1012.629, 2103.619
1013.111, 2106.151
1013.593, 2108.904
1014.075, 2111.799
1014.557, 2114.672
1015.040, 2118.255
1015.522, 2120.363
1016.004, 2120.392
1016.486, 2119.514
1016.968, 2119.208
1017.450, 2119.329
1017.932, 2119.442
1018.414, 2119.483
1018.896, 2119.592
1019.379, 2119.196
1019.861, 2119.518
1020.343, 2121.956
1020.825, 2126.123
1021.307, 2127.670
1021.789, 2126.321
1022.271, 2125.021
1022.753, 2124.849
1023.236, 2125.535
1023.718, 2127.201
1024.200, 2129.364
1024.682, 2131.187
1025.164, 2132.836
1025.646, 2133.341
1026.128, 2131.730
1026.610, 2130.411
1027.093, 2132.177
1027.575, 2136.390
1028.057, 2138.821
1028.539, 2139.365
1029.021, 2139.247
1029.503, 2138.499
1029.985, 2138.022
1030.467, 2138.597
1030.949, 2139.903
1031.432, 2140.923
1031.914, 2141.945
1032.396, 2141.031
1032.878, 2137.317
1033.360, 2132.768
1033.842, 2129.517
1034.324, 2127.553
1034.806, 2127.358
1035.288, 2129.748
1035.771, 2130.310
1036.253, 2125.938
1036.735, 2122.065
1037.217, 2121.886
1037.699, 2124.542
1038.181, 2124.587
1038.663, 2122.272
1039.145, 2119.377
1039.628, 2115.454
1040.110, 2112.766
1040.592, 2113.802
1041.074, 2116.704
1041.556, 2118.291
1042.038, 2117.762
1042.520, 2117.876
1043.002, 2118.717
1043.484, 2120.330
1043.967, 2123.671
1044.449, 2127.364
1044.931, 2128.545
1045.413, 2127.407
1045.895, 2127.903
1046.377, 2133.684
1046.859, 2138.467
1047.341, 2140.196
1047.823, 2140.044
1048.306, 2140.815
1048.788, 2142.354
1049.270, 2143.647
1049.752, 2144.436
1050.234, 2144.974
1050.716, 2144.480
1051.198, 2144.488
1051.680, 2147.062
1052.163, 2152.658
1052.645, 2156.192
1053.127, 2157.667
1053.609, 2157.213
1054.091, 2153.002
1054.573, 2148.616
1055.055, 2151.558
1055.537, 2158.829
1056.020, 2163.559
1056.502, 2160.027
1056.984, 2158.785
1057.466, 2162.088
1057.948, 2166.439
1058.430, 2168.109
1058.912, 2167.495
1059.394, 2167.050
1059.876, 2166.897
1060.359, 2166.715
1060.841, 2167.056
1061.323, 2166.566
1061.805, 2163.527
1062.287, 2159.014
1062.769, 2156.637
1063.251, 2156.745
1063.733, 2156.692
1064.215, 2155.749
1064.698, 2155.150
1065.180, 2156.585
1065.662, 2159.104
1066.144, 2161.923
1066.626, 2165.232
1067.108, 2166.246
1067.590, 2164.230
1068.072, 2160.985
1068.555, 2156.555
1069.037, 2151.994
1069.519, 2151.581
1070.001, 2153.910
1070.483, 2154.044
1070.965, 2147.337
1071.447, 2142.352
1071.929, 2144.558
1072.411, 2148.489
1072.894, 2148.997
1073.376, 2145.777
1073.858, 2143.477
1074.340, 2142.213
1074.822, 2141.256
1075.304, 2140.429
1075.786, 2139.448
1076.268, 2137.935
1076.750, 2136.083
1077.233, 2134.477
1077.715, 2132.773
1078.197, 2132.511
1078.679, 2134.269
1079.161, 2136.266
1079.643, 2136.249
1080.125, 2134.922
1080.607, 2132.974
1081.090, 2130.466
1081.572, 2129.479
1082.054, 2131.731
1082.536, 2134.457
1083.018, 2137.308
1083.500, 2139.699
1083.982, 2139.352
1084.464, 2136.889
1084.946, 2135.343
1085.429, 2135.740
1085.911, 2136.858
1086.393, 2139.247
1086.875, 2141.073
1087.357, 2140.390
1087.839, 2136.982
1088.321, 2135.929
1088.803, 2137.354
1089.286, 2138.737
1089.768, 2138.245
1090.250, 2137.499
1090.732, 2138.763
1091.214, 2140.839
1091.696, 2141.373
1092.178, 2138.511
1092.660, 2137.199
1093.142, 2137.767
1093.625, 2139.236
1094.107, 2141.298
1094.589, 2143.386
1095.071, 2144.199
1095.553, 2143.870
1096.035, 2143.494
1096.517, 2143.432
1096.999, 2143.448
1097.481, 2143.347
1097.964, 2143.435
1098.446, 2144.726
1098.928, 2146.779
1099.410, 2146.986
1099.892, 2144.861
1100.374, 2142.814
1100.856, 2142.269
1101.338, 2142.394
1101.821, 2142.458
1102.303, 2142.704
1102.785, 2145.070
1103.267, 2149.645
1103.749, 2152.892
1104.231, 2153.525
1104.713, 2152.999
1105.195, 2152.540
1105.677, 2151.864
1106.160, 2150.227
1106.642, 2146.842
1107.124, 2146.746
1107.606, 2150.956
1108.088, 2154.420
1108.570, 2154.066
1109.052, 2151.828
1109.534, 2150.581
1110.016, 2150.073
1110.499, 2149.762
1110.981, 2149.478
1111.463, 2149.407
1111.945, 2149.565
1112.427, 2149.916
1112.909, 2150.247
1113.391, 2150.775
1113.873, 2153.151
1114.356, 2156.840
1114.838, 2158.573
1115.320, 2154.218
1115.802, 2150.858
1116.284, 2151.369
1116.766, 2153.651
1117.248, 2155.131
1117.730, 2155.810
1118.213, 2155.696
1118.695, 2154.776
1119.177, 2154.023
1119.659, 2154.043
1120.141, 2154.544
1120.623, 2155.251
1121.105, 2156.268
1121.587, 2158.383
1122.069, 2161.833
1122.552, 2164.006
1123.034, 2164.376
1123.516, 2163.285
1123.998, 2159.681
1124.480, 2155.743
1124.962, 2154.099
1125.444, 2155.311
1125.926, 2155.094
1126.408, 2152.868
1126.891, 2151.152
1127.373, 2150.916
1127.855, 2151.540
1128.337, 2151.805
1128.819, 2152.317
1129.301, 2154.509
1129.783, 2160.073
1130.265, 2162.427
1130.748, 2159.349
1131.230, 2156.610
1131.712, 2158.200
1132.194, 2162.046
1132.676, 2161.711
1133.158, 2158.532
1133.640, 2156.466
1134.122, 2158.036
1134.604, 2159.354
1135.087, 2159.590
1135.569, 2159.212
1136.051, 2157.990
1136.533, 2156.266
1137.015, 2157.460
1137.497, 2161.126
1137.979, 2163.853
1138.461, 2163.046
1138.943, 2161.736
1139.426, 2160.725
1139.908, 2160.308
1140.390, 2161.047
1140.872, 2162.934
1141.354, 2165.276
1141.836, 2168.015
1142.318, 2169.673
1142.800, 2167.288
1143.283, 2165.172
1143.765, 2167.533
1144.247, 2172.517
1144.729, 2174.284
1145.211, 2172.477
1145.693, 2170.050
1146.175, 2167.232
1146.657, 2165.505
1147.140, 2167.173
1147.622, 2170.037
1148.104, 2172.037
1148.586, 2173.023
1149.068, 2173.919
1149.550, 2174.649
1150.032, 2175.468
1150.514, 2176.417
1150.996, 2177.456
1151.479, 2178.997
1151.961, 2180.322
1152.443, 2180.271
1152.925, 2178.462
1153.407, 2177.246
1153.889, 2176.726
1154.371, 2177.115
1154.853, 2179.098
1155.335, 2181.163
1155.818, 2179.790
1156.300, 2176.654
1156.782, 2175.025
1157.264, 2176.660
1157.746, 2176.265
1158.228, 2171.238
1158.710, 2168.199
1159.192, 2172.100
1159.675, 2179.414
1160.157, 2180.708
1160.639, 2177.671
1161.121, 2174.788
1161.603, 2173.286
1162.085, 2172.724
1162.567, 2173.258
1163.049, 2174.287
1163.531, 2175.740
1164.014, 2177.356
1164.496, 2177.496
1164.978, 2176.549
1165.460, 2176.179
1165.942, 2177.598
1166.424, 2179.207
1166.906, 2180.930
1167.388, 2182.276
1167.870, 2182.685
1168.353, 2182.239
1168.835, 2181.279
1169.317, 2179.996
1169.799, 2179.968
1170.281, 2183.564
1170.763, 2186.863
1171.245, 2188.347
1171.727, 2188.366
1172.210, 2186.582
1172.692, 2183.168
1173.174, 2181.699
1173.656, 2182.403
1174.138, 2183.884
1174.620, 2186.873
1175.102, 2188.680
1175.584, 2186.163
1176.067, 2182.063
1176.549, 2181.947
1177.031, 2185.873
1177.513, 2186.874
1177.995, 2183.976
1178.477, 2181.728
1178.959, 2185.424
1179.441, 2189.457
1179.923, 2189.140
1180.406, 2186.063
1180.888, 2185.458
1181.370, 2187.448
1181.852, 2189.300
1182.334, 2190.548
1182.816, 2191.348
1183.298, 2191.908
1183.780, 2191.982
1184.262, 2190.627
1184.745, 2188.396
1185.227, 2188.694
1185.709, 2191.766
1186.191, 2194.407
1186.673, 2195.900
1187.155, 2196.453
1187.637, 2195.856
1188.119, 2194.758
1188.602, 2193.475
1189.084, 2192.152
1189.566, 2192.789
1190.048, 2195.829
1190.530, 2196.604
1191.012, 2192.787
1191.494, 2188.595
1191.976, 2189.193
1192.458, 2191.551
1192.941, 2192.019
1193.423, 2190.075
1193.905, 2190.873
1194.387, 2194.973
1194.869, 2197.231
1195.351, 2194.562
1195.833, 2191.227
1196.315, 2192.722
1196.797, 2196.007
1197.280, 2196.928
1197.762, 2194.447
1198.244, 2194.993
1198.726, 2199.158
1199.208, 2202.370
1199.690, 2201.862
1200.172, 2200.278
1200.654, 2200.842
1201.137, 2202.194
1201.619, 2202.130
1202.101, 2199.601
1202.583, 2199.823
1203.065, 2203.262
1203.547, 2206.225
1204.029, 2206.398
1204.511, 2205.305
1204.994, 2204.007
1205.476, 2202.866
1205.958, 2202.517
1206.440, 2203.000
1206.922, 2204.240
1207.404, 2206.284
1207.886, 2208.744
1208.368, 2212.480
1208.850, 2215.415
1209.333, 2214.145
1209.815, 2210.644
1210.297, 2208.616
1210.779, 2208.849
1211.261, 2209.001
1211.743, 2209.045
1212.225, 2209.269
1212.707, 2210.253
1213.189, 2211.224
1213.672, 2211.074
1214.154, 2210.382
1214.636, 2210.423
1215.118, 2211.660
1215.600, 2212.050
1216.082, 2211.338
1216.564, 2211.500
1217.046, 2215.644
1217.529, 2220.000
1218.011, 2220.363
1218.493, 2218.188
1218.975, 2216.999
1219.457, 2217.184
1219.939, 2217.508
1220.421, 2217.903
1220.903, 2218.342
1221.385, 2218.696
1221.868, 2219.129
1222.350, 2219.753
1222.832, 2220.569
1223.314, 2221.782
1223.796, 2223.831
1224.278, 2223.769
1224.760, 2221.244
1225.242, 2218.588
1225.724, 2216.880
1226.207, 2216.574
1226.689, 2219.042
1227.171, 2223.092
1227.653, 2225.838
1228.135, 2227.341
1228.617, 2226.874
1229.099, 2224.305
1229.581, 2222.023
1230.064, 2222.931
1230.546, 2223.867
1231.028, 2221.372
1231.510, 2217.355
1231.992, 2216.294
1232.474, 2218.323
1232.956, 2221.983
1233.438, 2227.191
1233.921, 2230.855
1234.403, 2228.911
1234.885, 2226.266
1235.367, 2226.989
1235.849, 2229.127
1236.331, 2228.522
1236.813, 2225.179
1237.295, 2222.927
1237.777, 2222.147
1238.260, 2222.267
1238.742, 2224.166
1239.224, 2225.553
1239.706, 2224.097
1240.188, 2221.824
1240.670, 2222.267
1241.152, 2225.199
1241.634, 2228.595
1242.116, 2232.192
1242.599, 2233.925
1243.081, 2229.885
1243.563, 2226.699
1244.045, 2227.754
1244.527, 2230.821
1245.009, 2232.279
1245.491, 2232.423
1245.973, 2233.124
1246.456, 2234.536
1246.938, 2235.832
1247.420, 2237.235
1247.902, 2237.477
1248.384, 2235.415
1248.866, 2233.112
1249.348, 2234.449
1249.830, 2238.280
1250.313, 2240.806
1250.795, 2241.694
1251.277, 2241.445
1251.759, 2239.110
1252.241, 2237.123
1252.723, 2235.689
1253.205, 2235.410
1253.687, 2238.815
1254.169, 2243.514
1254.651, 2243.035
1255.134, 2237.555
1255.616, 2234.599
1256.098, 2237.787
1256.580, 2241.765
1257.062, 2246.278
1257.544, 2249.711
1258.026, 2249.215
1258.508, 2246.601
1258.991, 2243.763
1259.473, 2241.210
1259.955, 2242.050
1260.437, 2248.924
1260.919, 2252.622
1261.401, 2251.269
1261.883, 2248.114
1262.365, 2245.659
1262.848, 2244.199
1263.330, 2245.004
1263.812, 2247.427
1264.294, 2247.260
1264.776, 2243.308
1265.258, 2241.804
1265.740, 2243.906
1266.222, 2246.552
1266.704, 2246.615
1267.187, 2246.048
1267.669, 2246.350
1268.151, 2247.526
1268.633, 2249.226
1269.115, 2251.462
1269.597, 2253.475
1270.079, 2255.137
1270.561, 2256.727
1271.043, 2259.187
1271.526, 2260.892
1272.008, 2259.828
1272.490, 2257.593
1272.972, 2257.075
1273.454, 2258.142
1273.936, 2259.235
1274.418, 2260.188
1274.900, 2260.275
1275.383, 2257.469
1275.865, 2255.844
1276.347, 2258.047
1276.829, 2261.132
1277.311, 2260.321
1277.793, 2256.693
1278.275, 2254.358
1278.757, 2253.573
1279.239, 2253.168
1279.722, 2251.573
1280.204, 2252.121
1280.686, 2256.175
1281.168, 2261.044
1281.650, 2263.952
1282.132, 2265.085
1282.614, 2264.201
1283.096, 2261.748
1283.578, 2260.143
1284.061, 2260.632
1284.543, 2260.441
1285.025, 2258.906
1285.507, 2257.940
1285.989, 2260.135
1286.471, 2263.506
1286.953, 2265.861
1287.435, 2267.146
1287.917, 2267.469
1288.400, 2266.564
1288.882, 2266.121
##END=



