##NAMES=Adamite
##RRUFFID=R050020
##IDEAL CHEMISTRY=Zn^2+^_2_As^5+^O_4_(OH)
##LOCALITY=Mina Ojuela, Mapimi, Durango, Mexico
##OWNER=RRUFF
##SOURCE=Eugene Schlepp
##DESCRIPTION=Light green prismatic crystal
##STATUS=The identification of this mineral has been confirmed by X-ray diffraction and chemical analysis
##URL=rruff.info/R050020
##MEASURED CHEMISTRY=(Zn_1.97_Cu_0.03_)_Σ=2_((As_0.98_P_0.02_)_Σ=1_O_4_)(OH)
127.4844, 588.7494
127.9666, 626.5703
128.4487, 667.8958
128.9308, 709.0532
129.4129, 745.0684
129.8950, 777.3468
130.3772, 811.0049
130.8593, 846.3937
131.3414, 884.6074
131.8235, 930.7643
132.3056, 985.3386
132.7877, 1043.848
133.2699, 1103.785
133.7520, 1165.776
134.2341, 1219.697
134.7162, 1259.716
135.1983, 1286.027
135.6804, 1310.508
136.1626, 1332.901
136.6447, 1353.433
137.1268, 1373.772
137.6089, 1395.458
138.0910, 1410.924
138.5731, 1415.738
139.0553, 1409.092
139.5374, 1395.879
140.0195, 1375.344
140.5016, 1348.567
140.9837, 1320.167
141.4658, 1288.924
141.9480, 1257.543
142.4301, 1228.900
142.9122, 1206.871
143.3943, 1179.212
143.8764, 1141.807
144.3585, 1095.267
144.8407, 1053.182
145.3228, 1013.091
145.8049, 979.6506
146.2870, 958.2664
146.7691, 959.3288
147.2512, 959.1055
147.7334, 951.9169
148.2155, 934.6955
148.6976, 924.0552
149.1797, 922.7855
149.6618, 927.3181
150.1439, 932.8987
150.6261, 940.4957
151.1082, 948.2078
151.5903, 955.2773
152.0724, 960.6508
152.5545, 967.6813
153.0366, 979.2076
153.5188, 992.4276
154.0009, 1001.794
154.4830, 1001.357
154.9651, 1000.837
155.4472, 1004.880
155.9293, 1018.816
156.4115, 1030.298
156.8936, 1035.806
157.3757, 1036.703
157.8578, 1037.841
158.3399, 1038.747
158.8221, 1041.410
159.3042, 1047.163
159.7863, 1062.568
160.2684, 1074.998
160.7505, 1078.358
161.2326, 1073.821
161.7148, 1070.190
162.1969, 1068.025
162.6790, 1069.771
163.1611, 1077.757
163.6432, 1101.727
164.1253, 1125.033
164.6075, 1136.376
165.0896, 1135.265
165.5717, 1136.507
166.0538, 1151.494
166.5359, 1173.516
167.0180, 1192.972
167.5002, 1201.120
167.9823, 1208.342
168.4644, 1222.203
168.9465, 1243.474
169.4286, 1269.857
169.9107, 1306.802
170.3929, 1347.802
170.8750, 1380.105
171.3571, 1394.146
171.8392, 1397.118
172.3213, 1395.959
172.8034, 1391.221
173.2856, 1383.413
173.7677, 1373.106
174.2498, 1360.094
174.7319, 1343.908
175.2140, 1322.723
175.6961, 1298.555
176.1783, 1274.191
176.6604, 1249.814
177.1425, 1226.479
177.6246, 1204.796
178.1067, 1185.146
178.5888, 1168.568
179.0710, 1156.621
179.5531, 1148.547
180.0352, 1143.273
180.5173, 1141.629
180.9994, 1141.615
181.4815, 1139.483
181.9637, 1135.307
182.4458, 1132.059
182.9279, 1132.679
183.4100, 1136.447
183.8921, 1140.580
184.3742, 1143.879
184.8564, 1147.218
185.3385, 1153.442
185.8206, 1162.889
186.3027, 1171.747
186.7848, 1173.838
187.2669, 1170.471
187.7491, 1171.640
188.2312, 1181.709
188.7133, 1198.990
189.1954, 1219.840
189.6775, 1245.490
190.1596, 1268.546
190.6418, 1277.242
191.1239, 1271.924
191.6060, 1268.613
192.0881, 1275.869
192.5702, 1292.119
193.0524, 1301.501
193.5345, 1301.269
194.0166, 1301.210
194.4987, 1319.858
194.9808, 1358.631
195.4629, 1394.835
195.9451, 1412.910
196.4272, 1413.653
196.9093, 1428.995
197.3914, 1463.663
197.8735, 1507.076
198.3556, 1539.777
198.8378, 1560.770
199.3199, 1576.893
199.8020, 1589.548
200.2841, 1598.098
200.7662, 1610.727
201.2483, 1627.456
201.7305, 1648.918
202.2126, 1678.727
202.6947, 1719.321
203.1768, 1759.151
203.6589, 1790.296
204.1410, 1810.991
204.6232, 1833.505
205.1053, 1858.974
205.5874, 1886.912
206.0695, 1916.404
206.5516, 1948.504
207.0337, 1979.396
207.5159, 2007.542
207.9980, 2033.182
208.4801, 2052.829
208.9622, 2066.882
209.4443, 2074.579
209.9264, 2071.422
210.4086, 2055.469
210.8907, 2032.447
211.3728, 2005.849
211.8549, 1973.952
212.3370, 1943.814
212.8191, 1917.314
213.3013, 1893.837
213.7834, 1864.402
214.2655, 1823.688
214.7476, 1785.467
215.2297, 1763.984
215.7118, 1766.292
216.1940, 1764.807
216.6761, 1752.235
217.1582, 1729.399
217.6403, 1716.243
218.1224, 1714.577
218.6045, 1720.332
219.0867, 1730.909
219.5688, 1749.126
220.0509, 1764.957
220.5330, 1773.447
221.0151, 1774.305
221.4972, 1787.460
221.9794, 1817.550
222.4615, 1854.859
222.9436, 1889.328
223.4257, 1918.799
223.9078, 1950.108
224.3899, 1982.839
224.8721, 2016.762
225.3542, 2061.268
225.8363, 2120.705
226.3184, 2186.938
226.8005, 2252.294
227.2827, 2318.286
227.7648, 2379.662
228.2469, 2435.116
228.7290, 2484.284
229.2111, 2529.400
229.6932, 2572.217
230.1754, 2609.041
230.6575, 2636.241
231.1396, 2656.352
231.6217, 2661.845
232.1038, 2650.496
232.5859, 2621.710
233.0681, 2578.173
233.5502, 2514.086
234.0323, 2439.696
234.5144, 2367.407
234.9965, 2293.264
235.4786, 2228.851
235.9608, 2177.888
236.4429, 2142.288
236.9250, 2113.959
237.4071, 2093.733
237.8892, 2080.509
238.3713, 2072.044
238.8535, 2065.512
239.3356, 2068.703
239.8177, 2087.314
240.2998, 2128.661
240.7819, 2155.717
241.2640, 2156.892
241.7462, 2150.947
242.2283, 2171.696
242.7104, 2232.824
243.1925, 2298.160
243.6746, 2355.450
244.1567, 2401.119
244.6389, 2452.098
245.1210, 2510.824
245.6031, 2573.256
246.0852, 2631.716
246.5673, 2684.327
247.0494, 2736.235
247.5316, 2790.578
248.0137, 2851.081
248.4958, 2901.327
248.9779, 2938.760
249.4600, 2967.082
249.9421, 2993.780
250.4243, 3025.903
250.9064, 3044.131
251.3885, 3038.766
251.8706, 3001.397
252.3527, 2968.808
252.8348, 2945.817
253.3170, 2924.729
253.7991, 2890.317
254.2812, 2838.464
254.7633, 2781.850
255.2454, 2723.461
255.7275, 2661.542
256.2097, 2606.553
256.6918, 2560.710
257.1739, 2520.889
257.6560, 2481.127
258.1381, 2441.447
258.6202, 2401.532
259.1024, 2359.266
259.5845, 2312.205
260.0666, 2275.418
260.5487, 2252.721
261.0308, 2237.487
261.5129, 2216.642
261.9951, 2189.012
262.4772, 2158.911
262.9593, 2126.223
263.4414, 2087.809
263.9235, 2061.684
264.4056, 2052.053
264.8878, 2050.521
265.3699, 2040.851
265.8520, 2018.893
266.3341, 2000.452
266.8162, 1993.407
267.2983, 2000.560
267.7805, 2000.645
268.2626, 1990.601
268.7447, 1976.881
269.2268, 1970.639
269.7089, 1973.079
270.1910, 1978.748
270.6732, 1987.877
271.1553, 2001.627
271.6374, 2005.233
272.1195, 1995.095
272.6016, 1980.081
273.0837, 1976.245
273.5659, 1986.081
274.0480, 1994.205
274.5301, 1994.330
275.0122, 1986.177
275.4943, 1978.388
275.9764, 1972.708
276.4586, 1964.106
276.9407, 1943.076
277.4228, 1908.556
277.9049, 1873.292
278.3870, 1841.691
278.8691, 1813.723
279.3513, 1789.692
279.8334, 1770.781
280.3155, 1752.764
280.7976, 1728.510
281.2798, 1697.862
281.7619, 1669.532
282.2440, 1647.025
282.7261, 1629.840
283.2082, 1614.466
283.6903, 1601.067
284.1725, 1588.876
284.6546, 1575.821
285.1367, 1562.182
285.6188, 1552.637
286.1009, 1551.074
286.5830, 1555.175
287.0652, 1553.968
287.5473, 1546.635
288.0294, 1538.944
288.5115, 1539.280
288.9936, 1546.379
289.4757, 1549.707
289.9579, 1543.811
290.4400, 1532.119
290.9221, 1524.310
291.4042, 1520.657
291.8863, 1517.476
292.3684, 1508.939
292.8506, 1496.990
293.3327, 1490.323
293.8148, 1495.666
294.2969, 1505.631
294.7790, 1504.307
295.2611, 1491.647
295.7433, 1477.690
296.2254, 1469.365
296.7075, 1466.368
297.1896, 1468.434
297.6717, 1478.572
298.1538, 1491.036
298.6360, 1495.871
299.1181, 1493.734
299.6002, 1491.877
300.0823, 1497.392
300.5644, 1506.970
301.0465, 1514.105
301.5287, 1515.399
302.0108, 1515.685
302.4929, 1520.737
302.9750, 1529.943
303.4571, 1539.495
303.9392, 1544.426
304.4214, 1548.921
304.9035, 1559.572
305.3856, 1581.002
305.8677, 1603.663
306.3498, 1619.682
306.8319, 1629.811
307.3141, 1636.982
307.7962, 1638.455
308.2783, 1639.744
308.7604, 1647.081
309.2425, 1664.006
309.7246, 1681.775
310.2068, 1692.347
310.6889, 1699.142
311.1710, 1711.116
311.6531, 1739.552
312.1352, 1770.598
312.6173, 1793.412
313.0995, 1804.066
313.5816, 1812.172
314.0637, 1820.387
314.5458, 1829.327
315.0279, 1840.204
315.5100, 1856.918
315.9922, 1873.100
316.4743, 1884.152
316.9564, 1887.587
317.4385, 1894.038
317.9206, 1913.204
318.4027, 1936.084
318.8849, 1950.100
319.3670, 1942.741
319.8491, 1933.979
320.3312, 1931.179
320.8133, 1935.688
321.2954, 1941.348
321.7776, 1951.651
322.2597, 1960.773
322.7418, 1962.508
323.2239, 1945.903
323.7060, 1931.870
324.1881, 1930.078
324.6703, 1942.880
325.1524, 1940.435
325.6345, 1908.649
326.1166, 1867.228
326.5987, 1831.727
327.0808, 1807.329
327.5630, 1782.896
328.0451, 1756.588
328.5272, 1728.584
329.0093, 1702.576
329.4914, 1679.041
329.9735, 1657.653
330.4557, 1638.581
330.9378, 1623.663
331.4199, 1607.647
331.9020, 1588.607
332.3841, 1567.834
332.8662, 1551.606
333.3484, 1540.772
333.8305, 1533.435
334.3126, 1528.878
334.7947, 1527.927
335.2768, 1527.776
335.7589, 1529.890
336.2411, 1531.843
336.7232, 1525.554
337.2053, 1507.062
337.6874, 1492.055
338.1695, 1490.180
338.6516, 1503.645
339.1338, 1510.117
339.6159, 1506.849
340.0980, 1500.192
340.5801, 1502.149
341.0622, 1513.858
341.5443, 1523.909
342.0265, 1527.594
342.5086, 1525.379
342.9907, 1520.979
343.4728, 1513.775
343.9549, 1506.971
344.4370, 1504.891
344.9192, 1507.191
345.4013, 1510.803
345.8834, 1516.234
346.3655, 1521.750
346.8476, 1519.970
347.3297, 1510.548
347.8119, 1503.805
348.2940, 1514.411
348.7761, 1536.237
349.2582, 1550.244
349.7403, 1547.781
350.2225, 1538.736
350.7046, 1536.360
351.1867, 1540.172
351.6688, 1546.639
352.1509, 1553.705
352.6331, 1561.672
353.1152, 1571.204
353.5973, 1583.095
354.0794, 1595.366
354.5615, 1608.228
355.0436, 1620.442
355.5258, 1628.241
356.0079, 1620.051
356.4900, 1611.807
356.9721, 1619.613
357.4542, 1650.514
357.9363, 1681.940
358.4185, 1700.185
358.9006, 1710.503
359.3827, 1721.982
359.8648, 1736.289
360.3469, 1754.156
360.8290, 1777.651
361.3112, 1808.144
361.7933, 1835.858
362.2754, 1851.667
362.7575, 1865.557
363.2396, 1888.480
363.7217, 1928.218
364.2039, 1971.609
364.6860, 2017.229
365.1681, 2065.175
365.6502, 2109.381
366.1323, 2146.174
366.6144, 2181.168
367.0966, 2218.299
367.5787, 2250.919
368.0608, 2293.697
368.5429, 2353.430
369.0250, 2426.171
369.5071, 2490.293
369.9893, 2543.264
370.4714, 2590.357
370.9535, 2632.840
371.4356, 2664.656
371.9177, 2705.715
372.3998, 2762.452
372.8820, 2825.614
373.3641, 2876.343
373.8462, 2917.618
374.3283, 2938.538
374.8104, 2931.790
375.2925, 2895.448
375.7747, 2853.210
376.2568, 2805.702
376.7389, 2750.373
377.2210, 2683.232
377.7031, 2603.824
378.1852, 2518.668
378.6674, 2423.356
379.1495, 2324.083
379.6316, 2245.793
380.1137, 2190.592
380.5958, 2143.259
381.0779, 2090.545
381.5601, 2033.563
382.0422, 1981.454
382.5243, 1934.364
383.0064, 1893.937
383.4885, 1864.318
383.9706, 1844.438
384.4528, 1828.454
384.9349, 1813.619
385.4170, 1799.606
385.8991, 1784.916
386.3812, 1768.317
386.8633, 1753.884
387.3455, 1748.109
387.8276, 1747.531
388.3097, 1744.116
388.7918, 1726.914
389.2739, 1709.719
389.7560, 1704.074
390.2382, 1711.403
390.7203, 1723.719
391.2024, 1740.843
391.6845, 1759.129
392.1666, 1774.585
392.6487, 1787.731
393.1309, 1795.910
393.6130, 1792.255
394.0951, 1778.670
394.5772, 1776.452
395.0593, 1803.479
395.5414, 1835.696
396.0236, 1857.784
396.5057, 1847.224
396.9878, 1850.781
397.4699, 1882.852
397.9520, 1933.508
398.4341, 1971.189
398.9163, 1987.607
399.3984, 1999.514
399.8805, 2011.513
400.3626, 2020.914
400.8447, 2038.956
401.3268, 2069.950
401.8090, 2106.385
402.2911, 2137.311
402.7732, 2158.451
403.2553, 2184.723
403.7374, 2222.099
404.2195, 2269.691
404.7017, 2311.040
405.1838, 2345.252
405.6659, 2376.004
406.1480, 2405.562
406.6301, 2434.001
407.1122, 2464.889
407.5944, 2500.249
408.0765, 2537.127
408.5586, 2567.087
409.0407, 2590.375
409.5228, 2612.853
410.0049, 2639.441
410.4871, 2667.990
410.9692, 2693.385
411.4513, 2715.518
411.9334, 2733.018
412.4155, 2742.724
412.8976, 2746.536
413.3798, 2749.653
413.8619, 2752.876
414.3440, 2757.607
414.8261, 2766.497
415.3082, 2779.590
415.7903, 2791.911
416.2725, 2799.155
416.7546, 2804.314
417.2367, 2811.235
417.7188, 2829.271
418.2009, 2840.101
418.6830, 2833.632
419.1652, 2812.485
419.6473, 2786.502
420.1294, 2755.981
420.6115, 2723.556
421.0937, 2691.228
421.5758, 2664.714
422.0579, 2627.747
422.5400, 2569.581
423.0221, 2501.457
423.5042, 2440.553
423.9864, 2391.767
424.4685, 2346.050
424.9506, 2301.247
425.4327, 2257.967
425.9148, 2215.675
426.3969, 2176.264
426.8791, 2135.718
427.3612, 2088.905
427.8433, 2030.393
428.3254, 1983.506
428.8075, 1953.944
429.2896, 1937.484
429.7718, 1921.481
430.2539, 1906.269
430.7360, 1889.668
431.2181, 1868.453
431.7002, 1843.311
432.1823, 1824.492
432.6645, 1812.869
433.1466, 1806.326
433.6287, 1805.672
434.1108, 1809.085
434.5929, 1807.096
435.0750, 1790.048
435.5572, 1767.660
436.0393, 1757.310
436.5214, 1758.656
437.0035, 1764.465
437.4856, 1775.126
437.9677, 1784.933
438.4499, 1784.353
438.9320, 1763.911
439.4141, 1744.565
439.8962, 1744.369
440.3783, 1757.226
440.8604, 1767.412
441.3426, 1766.863
441.8247, 1762.420
442.3068, 1756.592
442.7889, 1748.553
443.2710, 1744.531
443.7531, 1748.407
444.2353, 1756.288
444.7174, 1763.933
445.1995, 1775.692
445.6816, 1781.630
446.1637, 1774.396
446.6458, 1756.276
447.1280, 1752.241
447.6101, 1772.916
448.0922, 1796.016
448.5743, 1808.300
449.0564, 1803.519
449.5385, 1805.440
450.0207, 1817.368
450.5028, 1833.781
450.9849, 1843.259
451.4670, 1843.992
451.9491, 1846.780
452.4312, 1858.730
452.9134, 1877.459
453.3955, 1882.232
453.8776, 1871.328
454.3597, 1858.751
454.8418, 1860.400
455.3239, 1872.742
455.8061, 1880.501
456.2882, 1878.323
456.7703, 1873.162
457.2524, 1876.546
457.7345, 1886.246
458.2166, 1893.220
458.6988, 1889.879
459.1809, 1882.039
459.6630, 1874.934
460.1451, 1868.668
460.6272, 1865.953
461.1093, 1872.546
461.5915, 1882.452
462.0736, 1888.080
462.5557, 1880.357
463.0378, 1874.372
463.5199, 1875.671
464.0020, 1883.778
464.4842, 1894.598
464.9663, 1910.817
465.4484, 1926.860
465.9305, 1939.821
466.4126, 1948.403
466.8947, 1956.235
467.3769, 1963.038
467.8590, 1969.185
468.3411, 1975.245
468.8232, 1980.730
469.3053, 1987.124
469.7874, 1995.291
470.2696, 2005.070
470.7517, 2012.730
471.2338, 2017.132
471.7159, 2022.836
472.1980, 2036.205
472.6801, 2056.958
473.1623, 2069.865
473.6444, 2070.881
474.1265, 2067.101
474.6086, 2070.132
475.0907, 2079.334
475.5728, 2090.569
476.0550, 2105.820
476.5371, 2120.297
477.0192, 2124.385
477.5013, 2117.691
477.9834, 2109.541
478.4655, 2104.806
478.9477, 2103.655
479.4298, 2106.750
479.9119, 2119.619
480.3940, 2130.062
480.8761, 2131.831
481.3582, 2126.160
481.8404, 2116.463
482.3225, 2094.946
482.8046, 2077.003
483.2867, 2070.531
483.7688, 2079.484
484.2509, 2088.497
484.7331, 2098.896
485.2152, 2107.395
485.6973, 2110.219
486.1794, 2099.133
486.6615, 2096.824
487.1436, 2109.138
487.6258, 2132.760
488.1079, 2152.188
488.5900, 2166.513
489.0721, 2178.807
489.5542, 2189.623
490.0363, 2198.965
490.5185, 2212.094
491.0006, 2229.908
491.4827, 2248.594
491.9648, 2263.922
492.4470, 2275.902
492.9291, 2283.830
493.4112, 2284.848
493.8933, 2283.765
494.3754, 2292.188
494.8575, 2307.662
495.3397, 2314.257
495.8218, 2298.583
496.3039, 2269.921
496.7860, 2237.604
497.2681, 2201.727
497.7502, 2165.745
498.2324, 2132.882
498.7145, 2100.427
499.1966, 2064.042
499.6787, 2011.854
500.1608, 1966.625
500.6429, 1939.301
501.1251, 1928.608
501.6072, 1912.435
502.0893, 1879.722
502.5714, 1849.404
503.0535, 1831.162
503.5356, 1832.309
504.0178, 1827.605
504.4999, 1813.482
504.9820, 1796.803
505.4641, 1789.197
505.9462, 1793.017
506.4283, 1793.341
506.9105, 1783.516
507.3926, 1767.483
507.8747, 1761.681
508.3568, 1766.495
508.8389, 1774.478
509.3210, 1782.175
509.8032, 1788.819
510.2853, 1792.683
510.7674, 1793.758
511.2495, 1791.161
511.7316, 1777.706
512.2137, 1760.192
512.6959, 1752.575
513.1780, 1772.564
513.6601, 1794.364
514.1422, 1797.285
514.6243, 1784.518
515.1064, 1778.883
515.5886, 1796.973
516.0707, 1819.631
516.5528, 1834.786
517.0349, 1836.932
517.5170, 1840.178
517.9991, 1843.929
518.4813, 1850.207
518.9634, 1861.923
519.4455, 1881.654
519.9276, 1902.525
520.4097, 1924.010
520.8918, 1945.477
521.3740, 1963.899
521.8561, 1977.219
522.3382, 1994.306
522.8203, 2024.229
523.3024, 2065.650
523.7845, 2098.859
524.2667, 2121.774
524.7488, 2140.937
525.2309, 2163.313
525.7130, 2189.090
526.1951, 2218.193
526.6772, 2249.568
527.1594, 2285.694
527.6415, 2332.759
528.1236, 2387.982
528.6057, 2440.370
529.0878, 2479.877
529.5699, 2516.095
530.0521, 2556.180
530.5342, 2602.766
531.0163, 2647.109
531.4984, 2686.170
531.9805, 2722.122
532.4626, 2757.467
532.9448, 2791.027
533.4269, 2825.734
533.9090, 2861.218
534.3911, 2898.002
534.8732, 2939.060
535.3553, 2994.975
535.8375, 3035.912
536.3196, 3043.847
536.8017, 3016.885
537.2838, 3002.467
537.7659, 3004.702
538.2480, 3005.450
538.7302, 2981.688
539.2123, 2936.757
539.6944, 2895.890
540.1765, 2866.521
540.6586, 2839.925
541.1407, 2803.277
541.6229, 2758.178
542.1050, 2709.951
542.5871, 2660.631
543.0692, 2609.937
543.5513, 2555.209
544.0334, 2496.913
544.5156, 2445.979
544.9977, 2417.604
545.4798, 2392.921
545.9619, 2356.607
546.4440, 2290.298
546.9261, 2235.302
547.4083, 2205.782
547.8904, 2189.299
548.3725, 2163.365
548.8546, 2118.479
549.3367, 2079.795
549.8188, 2056.281
550.3010, 2046.021
550.7831, 2024.195
551.2652, 1986.527
551.7473, 1951.464
552.2294, 1937.053
552.7115, 1940.377
553.1937, 1931.422
553.6758, 1906.065
554.1579, 1875.693
554.6400, 1851.900
555.1221, 1834.209
555.6042, 1821.712
556.0864, 1815.173
556.5685, 1812.329
557.0506, 1813.234
557.5327, 1816.621
558.0148, 1817.744
558.4969, 1816.477
558.9791, 1810.550
559.4612, 1796.244
559.9433, 1770.531
560.4254, 1750.784
560.9075, 1747.151
561.3896, 1746.945
561.8718, 1738.199
562.3539, 1708.661
562.8360, 1692.400
563.3181, 1698.938
563.8002, 1717.037
564.2823, 1716.559
564.7645, 1691.942
565.2466, 1674.124
565.7287, 1679.569
566.2108, 1702.197
566.6929, 1711.359
567.1750, 1706.580
567.6572, 1697.478
568.1393, 1691.326
568.6214, 1686.822
569.1035, 1680.687
569.5856, 1671.257
570.0677, 1664.682
570.5499, 1667.730
571.0320, 1676.594
571.5141, 1685.235
571.9962, 1696.886
572.4783, 1702.492
572.9604, 1693.789
573.4426, 1674.125
573.9247, 1660.558
574.4068, 1661.626
574.8889, 1664.136
575.3710, 1662.706
575.8531, 1655.996
576.3353, 1652.769
576.8174, 1654.616
577.2995, 1657.634
577.7816, 1657.986
578.2637, 1655.402
578.7458, 1652.986
579.2280, 1651.209
579.7101, 1649.754
580.1922, 1647.432
580.6743, 1644.633
581.1564, 1643.573
581.6385, 1649.045
582.1207, 1654.822
582.6028, 1649.692
583.0849, 1635.375
583.5670, 1624.964
584.0491, 1628.581
584.5313, 1637.679
585.0134, 1646.917
585.4955, 1657.323
585.9776, 1661.708
586.4597, 1650.959
586.9418, 1636.244
587.4240, 1630.671
587.9061, 1643.662
588.3882, 1651.296
588.8703, 1648.334
589.3524, 1639.113
589.8345, 1637.052
590.3167, 1643.998
590.7988, 1651.106
591.2809, 1655.159
591.7630, 1656.254
592.2451, 1653.752
592.7272, 1647.530
593.2094, 1640.724
593.6915, 1634.614
594.1736, 1630.044
594.6557, 1629.328
595.1378, 1633.692
595.6199, 1638.300
596.1021, 1639.302
596.5842, 1638.317
597.0663, 1637.653
597.5485, 1636.569
598.0306, 1637.534
598.5127, 1644.182
598.9948, 1654.306
599.4769, 1658.232
599.9590, 1647.834
600.4412, 1640.577
600.9233, 1644.765
601.4054, 1661.908
601.8875, 1664.890
602.3696, 1648.481
602.8517, 1630.688
603.3339, 1629.104
603.8160, 1642.225
604.2981, 1650.811
604.7802, 1652.334
605.2623, 1650.079
605.7444, 1646.336
606.2266, 1642.030
606.7087, 1639.735
607.1908, 1639.648
607.6729, 1642.617
608.1550, 1654.673
608.6371, 1671.297
609.1193, 1678.216
609.6014, 1656.228
610.0835, 1634.663
610.5656, 1630.411
611.0477, 1647.731
611.5298, 1656.208
612.0120, 1647.515
612.4941, 1636.993
612.9762, 1635.411
613.4583, 1646.042
613.9404, 1653.571
614.4225, 1656.632
614.9047, 1657.750
615.3868, 1660.886
615.8689, 1665.834
616.3510, 1669.512
616.8331, 1670.933
617.3152, 1670.746
617.7974, 1668.521
618.2795, 1665.167
618.7616, 1664.064
619.2437, 1670.635
619.7258, 1677.514
620.2079, 1678.012
620.6901, 1671.861
621.1722, 1667.557
621.6543, 1667.410
622.1364, 1670.524
622.6185, 1677.170
623.1006, 1692.107
623.5828, 1699.713
624.0649, 1697.050
624.5470, 1689.748
625.0291, 1683.613
625.5112, 1678.169
625.9933, 1677.147
626.4755, 1682.959
626.9576, 1691.201
627.4397, 1691.609
627.9218, 1685.193
628.4039, 1679.659
628.8860, 1679.439
629.3682, 1681.954
629.8503, 1684.003
630.3324, 1685.642
630.8145, 1687.412
631.2966, 1690.317
631.7787, 1692.964
632.2609, 1694.053
632.7430, 1692.808
633.2251, 1692.448
633.7072, 1696.281
634.1893, 1699.562
634.6714, 1697.784
635.1536, 1686.330
635.6357, 1680.361
636.1178, 1682.683
636.5999, 1689.220
637.0820, 1692.230
637.5641, 1691.508
638.0463, 1692.101
638.5284, 1696.351
639.0105, 1702.314
639.4926, 1706.489
639.9747, 1708.997
640.4568, 1710.445
640.9390, 1713.008
641.4211, 1713.530
641.9032, 1706.858
642.3853, 1692.696
642.8674, 1682.400
643.3495, 1684.900
643.8317, 1689.938
644.3138, 1689.982
644.7959, 1678.527
645.2780, 1673.230
645.7601, 1676.258
646.2422, 1683.523
646.7244, 1691.362
647.2065, 1700.588
647.6886, 1705.343
648.1707, 1703.265
648.6528, 1698.024
649.1349, 1697.513
649.6171, 1701.004
650.0992, 1703.322
650.5813, 1697.727
651.0634, 1692.325
651.5455, 1700.656
652.0276, 1719.876
652.5098, 1734.286
652.9919, 1733.037
653.4740, 1726.324
653.9561, 1720.158
654.4382, 1715.427
654.9203, 1709.346
655.4025, 1696.171
655.8846, 1685.916
656.3667, 1687.133
656.8488, 1707.073
657.3309, 1714.677
657.8130, 1703.730
658.2952, 1689.680
658.7773, 1698.992
659.2594, 1729.151
659.7415, 1748.486
660.2236, 1746.161
660.7057, 1733.535
661.1879, 1723.533
661.6700, 1716.234
662.1521, 1712.017
662.6342, 1713.011
663.1163, 1715.470
663.5984, 1717.384
664.0806, 1718.742
664.5627, 1720.037
665.0448, 1720.834
665.5269, 1722.109
666.0090, 1724.541
666.4911, 1728.419
666.9733, 1731.101
667.4554, 1732.373
667.9375, 1732.872
668.4196, 1734.104
668.9017, 1735.893
669.3839, 1731.460
669.8660, 1718.834
670.3481, 1706.528
670.8302, 1704.634
671.3123, 1710.554
671.7944, 1719.627
672.2766, 1735.357
672.7587, 1745.656
673.2408, 1734.410
673.7229, 1713.062
674.2050, 1703.794
674.6871, 1725.069
675.1693, 1745.908
675.6514, 1759.779
676.1335, 1766.857
676.6156, 1766.716
677.0977, 1756.389
677.5798, 1745.546
678.0620, 1737.885
678.5441, 1733.309
679.0262, 1732.426
679.5083, 1735.458
679.9904, 1738.445
680.4725, 1735.808
680.9547, 1731.675
681.4368, 1734.951
681.9189, 1747.544
682.4010, 1758.718
682.8831, 1758.406
683.3652, 1754.327
683.8474, 1754.497
684.3295, 1765.794
684.8116, 1773.296
685.2937, 1772.339
685.7758, 1767.557
686.2579, 1765.019
686.7401, 1766.251
687.2222, 1764.905
687.7043, 1757.639
688.1864, 1749.265
688.6685, 1755.150
689.1506, 1774.093
689.6328, 1786.603
690.1149, 1778.563
690.5970, 1762.607
691.0791, 1757.849
691.5612, 1762.552
692.0433, 1767.910
692.5255, 1773.214
693.0076, 1774.494
693.4897, 1767.358
693.9718, 1750.625
694.4539, 1736.916
694.9360, 1724.891
695.4182, 1719.191
695.9003, 1724.394
696.3824, 1744.968
696.8645, 1756.381
697.3466, 1756.603
697.8287, 1752.987
698.3109, 1753.232
698.7930, 1756.606
699.2751, 1759.339
699.7572, 1760.823
700.2393, 1761.308
700.7214, 1761.224
701.2036, 1760.273
701.6857, 1757.895
702.1678, 1750.495
702.6499, 1745.594
703.1320, 1745.689
703.6141, 1750.370
704.0963, 1759.247
704.5784, 1781.653
705.0605, 1793.352
705.5426, 1784.609
706.0247, 1761.516
706.5068, 1752.487
706.9890, 1758.917
707.4711, 1767.220
707.9532, 1771.180
708.4353, 1771.683
708.9174, 1769.484
709.3995, 1764.992
709.8817, 1762.363
710.3638, 1765.466
710.8459, 1771.062
711.3280, 1778.021
711.8101, 1787.070
712.2922, 1789.683
712.7744, 1777.478
713.2565, 1762.396
713.7386, 1751.997
714.2207, 1746.074
714.7028, 1746.037
715.1849, 1753.748
715.6671, 1764.119
716.1492, 1771.182
716.6313, 1775.308
717.1134, 1782.729
717.5955, 1795.871
718.0776, 1807.911
718.5598, 1811.093
719.0419, 1806.871
719.5240, 1797.737
720.0061, 1776.154
720.4882, 1760.068
720.9703, 1761.301
721.4525, 1773.707
721.9346, 1783.321
722.4167, 1788.024
722.8988, 1789.896
723.3809, 1786.546
723.8630, 1780.915
724.3452, 1786.592
724.8273, 1805.212
725.3094, 1823.290
725.7915, 1835.534
726.2736, 1842.210
726.7557, 1841.649
727.2379, 1834.803
727.7200, 1829.188
728.2021, 1827.867
728.6842, 1831.105
729.1663, 1842.091
729.6484, 1861.359
730.1306, 1874.479
730.6127, 1869.645
731.0948, 1863.931
731.5769, 1868.062
732.0590, 1886.743
732.5411, 1895.153
733.0233, 1891.151
733.5054, 1881.682
733.9875, 1868.518
734.4696, 1853.649
734.9517, 1855.401
735.4338, 1878.312
735.9160, 1902.541
736.3981, 1906.331
736.8802, 1898.923
737.3623, 1893.868
737.8444, 1895.619
738.3266, 1898.534
738.8087, 1900.528
739.2908, 1902.395
739.7729, 1905.462
740.2551, 1912.216
740.7372, 1916.004
741.2193, 1916.751
741.7014, 1913.567
742.1835, 1901.794
742.6656, 1881.345
743.1478, 1866.144
743.6299, 1861.249
744.1120, 1863.098
744.5941, 1868.490
745.0762, 1876.227
745.5583, 1882.767
746.0405, 1885.847
746.5226, 1887.646
747.0047, 1888.088
747.4868, 1887.807
747.9689, 1890.537
748.4510, 1905.950
748.9332, 1912.009
749.4153, 1896.167
749.8974, 1861.828
750.3795, 1851.881
750.8616, 1869.386
751.3438, 1887.575
751.8259, 1887.282
752.3080, 1875.716
752.7901, 1868.826
753.2722, 1867.017
753.7543, 1869.202
754.2365, 1879.817
754.7186, 1890.567
755.2007, 1894.594
755.6828, 1890.467
756.1649, 1883.678
756.6470, 1868.323
757.1292, 1856.528
757.6113, 1857.089
758.0934, 1874.076
758.5755, 1884.993
759.0576, 1889.219
759.5397, 1889.718
760.0219, 1886.914
760.5040, 1882.831
760.9861, 1885.625
761.4682, 1898.089
761.9503, 1908.810
762.4324, 1904.188
762.9146, 1894.710
763.3967, 1893.245
763.8788, 1911.733
764.3609, 1923.891
764.8430, 1919.196
765.3251, 1909.538
765.8073, 1908.581
766.2894, 1918.603
766.7715, 1928.747
767.2536, 1938.264
767.7357, 1945.808
768.2178, 1948.107
768.7000, 1946.197
769.1821, 1944.406
769.6642, 1944.498
770.1463, 1944.618
770.6284, 1941.946
771.1105, 1938.310
771.5927, 1937.238
772.0748, 1939.016
772.5569, 1944.610
773.0390, 1957.341
773.5211, 1973.359
774.0032, 1981.789
774.4854, 1979.854
774.9675, 1980.875
775.4496, 1989.545
775.9317, 2003.090
776.4138, 2016.032
776.8959, 2027.963
777.3781, 2037.289
777.8602, 2039.255
778.3423, 2041.377
778.8244, 2050.128
779.3065, 2064.638
779.7886, 2080.867
780.2708, 2102.844
780.7529, 2120.560
781.2350, 2128.216
781.7171, 2127.692
782.1992, 2137.502
782.6813, 2159.481
783.1635, 2184.162
783.6456, 2207.731
784.1277, 2230.047
784.6098, 2250.031
785.0919, 2268.097
785.5740, 2288.940
786.0562, 2319.290
786.5383, 2351.323
787.0204, 2375.097
787.5025, 2390.457
787.9846, 2415.626
788.4667, 2464.266
788.9489, 2514.650
789.4310, 2556.916
789.9131, 2589.836
790.3952, 2632.024
790.8773, 2684.287
791.3594, 2740.472
791.8416, 2794.546
792.3237, 2848.705
792.8058, 2910.669
793.2879, 2981.140
793.7700, 3049.436
794.2521, 3104.492
794.7343, 3156.971
795.2164, 3214.410
795.6985, 3278.908
796.1806, 3347.003
796.6627, 3422.554
797.1448, 3497.411
797.6270, 3566.541
798.1091, 3630.142
798.5912, 3685.236
799.0733, 3731.464
799.5554, 3773.787
800.0375, 3823.542
800.5197, 3870.825
801.0018, 3890.291
801.4839, 3874.368
801.9660, 3865.416
802.4481, 3907.194
802.9302, 3955.991
803.4124, 3973.175
803.8945, 3933.935
804.3766, 3905.046
804.8587, 3885.390
805.3408, 3877.614
805.8229, 3887.507
806.3051, 3914.944
806.7872, 3938.919
807.2693, 3956.760
807.7514, 3977.133
808.2335, 4000.922
808.7156, 4036.159
809.1978, 4098.427
809.6799, 4198.507
810.1620, 4300.090
810.6441, 4380.099
811.1262, 4459.504
811.6083, 4558.662
812.0905, 4688.493
812.5726, 4815.393
813.0547, 4938.041
813.5368, 5056.562
814.0189, 5167.741
814.5010, 5273.398
814.9832, 5387.080
815.4653, 5512.917
815.9474, 5633.793
816.4295, 5740.053
816.9116, 5830.574
817.3937, 5905.376
817.8759, 5970.909
818.3580, 6006.241
818.8401, 6004.321
819.3222, 5971.154
819.8043, 5906.160
820.2864, 5802.117
820.7686, 5699.536
821.2507, 5604.019
821.7328, 5506.927
822.2149, 5394.374
822.6970, 5273.314
823.1791, 5156.238
823.6613, 5042.242
824.1434, 4949.104
824.6255, 4897.386
825.1076, 4870.052
825.5897, 4849.017
826.0718, 4821.812
826.5540, 4814.102
827.0361, 4823.431
827.5182, 4854.763
828.0003, 4919.309
828.4824, 5016.211
828.9645, 5116.290
829.4467, 5212.716
829.9288, 5320.179
830.4109, 5451.213
830.8930, 5605.063
831.3751, 5781.857
831.8572, 5977.176
832.3394, 6202.309
832.8215, 6470.250
833.3036, 6768.666
833.7857, 7084.260
834.2678, 7413.219
834.7499, 7760.327
835.2321, 8127.789
835.7142, 8503.988
836.1963, 8865.728
836.6784, 9224.374
837.1605, 9614.306
837.6426, 10043.24
838.1248, 10482.68
838.6069, 10913.20
839.0890, 11340.45
839.5711, 11764.40
840.0532, 12177.92
840.5353, 12604.12
841.0175, 13065.84
841.4996, 13519.56
841.9817, 13925.81
842.4638, 14287.65
842.9459, 14581.48
843.4280, 14810.58
843.9102, 14942.66
844.3923, 14943.32
844.8744, 14822.21
845.3565, 14594.94
845.8386, 14262.46
846.3207, 13830.45
846.8029, 13253.59
847.2850, 12606.51
847.7671, 11949.59
848.2492, 11263.74
848.7313, 10624.35
849.2134, 10040.50
849.6956, 9491.737
850.1777, 8945.899
850.6598, 8413.456
851.1419, 7931.903
851.6240, 7504.897
852.1061, 7121.324
852.5883, 6771.802
853.0704, 6457.262
853.5525, 6175.182
854.0346, 5933.501
854.5167, 5711.003
854.9988, 5509.777
855.4810, 5321.571
855.9631, 5132.557
856.4452, 4941.529
856.9273, 4799.498
857.4094, 4711.015
857.8915, 4631.229
858.3737, 4518.750
858.8558, 4394.337
859.3379, 4284.182
859.8200, 4192.841
860.3021, 4106.786
860.7842, 4021.604
861.2664, 3942.198
861.7485, 3870.747
862.2306, 3806.002
862.7127, 3758.547
863.1948, 3730.721
863.6769, 3708.219
864.1591, 3676.499
864.6412, 3643.299
865.1233, 3630.442
865.6054, 3636.760
866.0875, 3639.929
866.5696, 3611.068
867.0518, 3587.739
867.5339, 3598.251
868.0160, 3646.567
868.4981, 3684.980
868.9802, 3707.904
869.4623, 3732.040
869.9445, 3760.468
870.4266, 3796.584
870.9087, 3857.874
871.3908, 3944.020
871.8729, 4042.140
872.3550, 4147.079
872.8372, 4259.698
873.3193, 4381.074
873.8014, 4511.575
874.2835, 4647.333
874.7656, 4769.305
875.2477, 4919.870
875.7299, 5113.210
876.2120, 5342.132
876.6941, 5587.642
877.1762, 5848.672
877.6583, 6123.257
878.1404, 6400.612
878.6226, 6698.023
879.1047, 7042.622
879.5869, 7424.529
880.0690, 7826.518
880.5511, 8242.313
881.0332, 8676.662
881.5153, 9138.826
881.9974, 9616.900
882.4796, 10097.33
882.9617, 10578.72
883.4438, 11076.06
883.9259, 11596.82
884.4080, 12115.99
884.8901, 12598.66
885.3723, 13045.53
885.8544, 13462.47
886.3365, 13870.31
886.8186, 14210.76
887.3007, 14471.15
887.7828, 14636.02
888.2650, 14692.11
888.7471, 14647.03
889.2292, 14472.68
889.7113, 14152.68
890.1934, 13732.59
890.6755, 13248.28
891.1577, 12710.37
891.6398, 12129.64
892.1219, 11507.61
892.6040, 10873.56
893.0861, 10236.82
893.5682, 9612.979
894.0504, 9015.726
894.5325, 8444.500
895.0146, 7917.329
895.4967, 7438.280
895.9788, 6997.172
896.4609, 6592.297
896.9431, 6222.278
897.4252, 5891.284
897.9073, 5600.101
898.3894, 5339.127
898.8715, 5096.640
899.3536, 4877.639
899.8358, 4687.707
900.3179, 4530.963
900.8000, 4375.950
901.2821, 4214.288
901.7642, 4062.370
902.2463, 3924.921
902.7285, 3803.794
903.2106, 3696.657
903.6927, 3603.829
904.1748, 3521.248
904.6569, 3451.396
905.1390, 3385.799
905.6212, 3313.336
906.1033, 3237.263
906.5854, 3167.858
907.0675, 3111.070
907.5496, 3058.949
908.0317, 3009.840
908.5139, 2964.155
908.9960, 2921.578
909.4781, 2882.291
909.9602, 2849.982
910.4423, 2829.475
910.9244, 2811.457
911.4066, 2783.417
911.8887, 2750.145
912.3708, 2720.038
912.8529, 2699.968
913.3350, 2678.443
913.8171, 2653.422
914.2993, 2626.210
914.7814, 2598.146
915.2635, 2569.096
915.7456, 2539.523
916.2277, 2508.015
916.7098, 2482.370
917.1920, 2478.111
917.6741, 2483.310
918.1562, 2480.087
918.6383, 2462.823
919.1204, 2444.388
919.6025, 2422.609
920.0847, 2406.108
920.5668, 2403.761
921.0489, 2419.678
921.5310, 2417.097
922.0131, 2393.858
922.4952, 2370.350
922.9774, 2366.069
923.4595, 2370.582
923.9416, 2370.464
924.4237, 2364.617
924.9058, 2351.753
925.3879, 2320.427
925.8701, 2293.278
926.3522, 2281.271
926.8343, 2282.130
927.3164, 2277.099
927.7985, 2265.365
928.2806, 2255.149
928.7628, 2252.009
929.2449, 2250.981
929.7270, 2245.780
930.2091, 2236.277
930.6912, 2221.965
931.1733, 2193.828
931.6555, 2171.336
932.1376, 2164.100
932.6197, 2164.609
933.1018, 2161.488
933.5839, 2154.679
934.0660, 2143.198
934.5482, 2124.901
935.0303, 2107.732
935.5124, 2105.484
935.9945, 2110.370
936.4766, 2108.178
936.9587, 2092.594
937.4409, 2078.078
937.9230, 2068.805
938.4051, 2062.694
938.8872, 2058.589
939.3693, 2056.966
939.8514, 2053.813
940.3336, 2048.772
940.8157, 2045.011
941.2978, 2044.220
941.7799, 2046.841
942.2620, 2057.004
942.7441, 2073.910
943.2263, 2082.877
943.7084, 2067.768
944.1905, 2054.407
944.6726, 2055.011
945.1547, 2066.552
945.6368, 2068.500
946.1190, 2060.129
946.6011, 2055.010
947.0832, 2062.550
947.5653, 2072.920
948.0474, 2072.768
948.5295, 2065.146
949.0117, 2057.152
949.4938, 2050.484
949.9759, 2044.700
950.4580, 2040.116
950.9401, 2035.972
951.4222, 2031.540
951.9044, 2026.831
952.3865, 2020.037
952.8686, 2010.468
953.3507, 2000.715
953.8328, 1994.254
954.3149, 1988.917
954.7971, 1981.501
955.2792, 1970.478
955.7613, 1961.465
956.2434, 1954.212
956.7255, 1950.467
957.2076, 1953.235
957.6898, 1962.168
958.1719, 1963.567
958.6540, 1957.532
959.1361, 1950.224
959.6182, 1946.206
960.1003, 1942.553
960.5825, 1935.590
961.0646, 1926.079
961.5467, 1919.178
962.0288, 1919.989
962.5109, 1916.374
962.9930, 1901.912
963.4752, 1884.437
963.9573, 1888.724
964.4394, 1910.418
964.9215, 1921.714
965.4036, 1907.972
965.8857, 1892.061
966.3679, 1895.903
966.8500, 1907.179
967.3321, 1909.552
967.8142, 1895.451
968.2963, 1880.692
968.7784, 1862.201
969.2606, 1849.628
969.7427, 1857.278
970.2248, 1879.313
970.7069, 1897.289
971.1890, 1909.662
971.6711, 1911.241
972.1533, 1885.817
972.6354, 1858.987
973.1175, 1850.858
973.5996, 1861.482
974.0817, 1863.347
974.5638, 1853.720
975.0460, 1845.184
975.5281, 1844.230
976.0102, 1846.416
976.4923, 1840.374
976.9744, 1829.289
977.4565, 1822.519
977.9387, 1825.189
978.4208, 1831.645
978.9029, 1845.002
979.3850, 1858.535
979.8671, 1862.386
980.3492, 1854.682
980.8314, 1848.101
981.3135, 1844.186
981.7956, 1840.694
982.2777, 1834.521
982.7598, 1827.408
983.2419, 1821.842
983.7241, 1818.280
984.2062, 1815.492
984.6883, 1813.290
985.1704, 1811.717
985.6525, 1811.498
986.1346, 1812.224
986.6168, 1808.152
987.0989, 1799.505
987.5810, 1793.230
988.0631, 1796.301
988.5452, 1801.070
989.0273, 1798.697
989.5095, 1792.329
989.9916, 1790.298
990.4737, 1801.583
990.9558, 1804.829
991.4379, 1794.078
991.9200, 1779.241
992.4022, 1776.130
992.8843, 1782.613
993.3664, 1790.767
993.8485, 1800.066
994.3306, 1804.545
994.8127, 1795.046
995.2949, 1782.297
995.7770, 1775.995
996.2591, 1777.499
996.7412, 1778.950
997.2233, 1780.552
997.7054, 1781.316
998.1876, 1780.042
998.6697, 1777.747
999.1518, 1777.768
999.6339, 1779.045
1000.116, 1777.378
1000.598, 1763.158
1001.080, 1754.765
1001.562, 1764.803
1002.044, 1781.667
1002.527, 1782.338
1003.009, 1765.175
1003.491, 1756.712
1003.973, 1763.573
1004.455, 1772.925
1004.937, 1767.017
1005.419, 1756.900
1005.901, 1758.136
1006.384, 1777.538
1006.866, 1790.541
1007.348, 1792.983
1007.830, 1790.692
1008.312, 1785.092
1008.794, 1777.342
1009.276, 1775.627
1009.758, 1779.111
1010.240, 1780.781
1010.723, 1773.370
1011.205, 1765.982
1011.687, 1765.279
1012.169, 1768.980
1012.651, 1771.223
1013.133, 1773.779
1013.615, 1766.876
1014.097, 1744.549
1014.580, 1724.330
1015.062, 1737.573
1015.544, 1768.629
1016.026, 1786.227
1016.508, 1781.890
1016.990, 1779.780
1017.472, 1795.549
1017.954, 1810.712
1018.436, 1814.648
1018.919, 1807.775
1019.401, 1799.298
1019.883, 1789.215
1020.365, 1777.991
1020.847, 1760.305
1021.329, 1746.250
1021.811, 1749.029
1022.293, 1763.160
1022.776, 1775.323
1023.258, 1785.385
1023.740, 1788.576
1024.222, 1781.949
1024.704, 1772.420
1025.186, 1769.619
1025.668, 1771.949
1026.150, 1774.370
1026.632, 1776.225
1027.115, 1777.516
1027.597, 1780.386
1028.079, 1780.779
1028.561, 1773.551
1029.043, 1759.382
1029.525, 1754.687
1030.007, 1760.439
1030.489, 1768.606
1030.972, 1779.180
1031.454, 1785.976
1031.936, 1774.317
1032.418, 1753.066
1032.900, 1741.360
1033.382, 1755.988
1033.864, 1765.126
1034.346, 1763.612
1034.828, 1758.200
1035.311, 1756.982
1035.793, 1758.941
1036.275, 1756.404
1036.757, 1748.708
1037.239, 1742.237
1037.721, 1740.615
1038.203, 1742.584
1038.685, 1750.735
1039.167, 1763.352
1039.650, 1764.382
1040.132, 1750.687
1040.614, 1738.729
1041.096, 1733.489
1041.578, 1734.119
1042.060, 1745.723
1042.542, 1760.867
1043.024, 1764.417
1043.507, 1740.114
1043.989, 1728.143
1044.471, 1746.114
1044.953, 1766.297
1045.435, 1762.946
1045.917, 1738.936
1046.399, 1737.014
1046.881, 1756.716
1047.364, 1771.886
1047.846, 1757.641
1048.328, 1739.464
1048.810, 1736.808
1049.292, 1745.699
1049.774, 1744.964
1050.256, 1730.128
1050.738, 1721.857
1051.220, 1726.096
1051.703, 1733.491
1052.185, 1729.272
1052.667, 1719.271
1053.149, 1713.516
1053.631, 1714.799
1054.113, 1716.495
1054.595, 1720.222
1055.077, 1719.687
1055.559, 1707.358
1056.042, 1687.187
1056.524, 1690.284
1057.006, 1713.728
1057.488, 1733.599
1057.970, 1736.875
1058.452, 1732.461
1058.934, 1717.067
1059.416, 1700.636
1059.899, 1703.940
1060.381, 1737.543
1060.863, 1751.931
1061.345, 1739.935
1061.827, 1722.022
1062.309, 1719.619
1062.791, 1724.690
1063.273, 1725.540
1063.755, 1721.187
1064.238, 1716.552
1064.720, 1709.052
1065.202, 1707.234
1065.684, 1716.830
1066.166, 1731.539
1066.648, 1731.289
1067.130, 1719.364
1067.612, 1710.813
1068.094, 1710.444
1068.577, 1714.507
1069.059, 1727.058
1069.541, 1738.606
1070.023, 1739.561
1070.505, 1727.750
1070.987, 1717.336
1071.469, 1708.177
1071.951, 1700.508
1072.434, 1696.085
1072.916, 1691.973
1073.398, 1679.211
1073.880, 1663.100
1074.362, 1662.326
1074.844, 1693.897
1075.326, 1719.375
1075.808, 1734.445
1076.291, 1741.542
1076.773, 1742.019
1077.255, 1737.628
1077.737, 1733.253
1078.219, 1729.669
1078.701, 1725.376
1079.183, 1717.491
1079.665, 1711.041
1080.147, 1708.947
1080.630, 1710.348
1081.112, 1709.900
1081.594, 1707.677
1082.076, 1705.669
1082.558, 1703.211
1083.040, 1703.972
1083.522, 1715.862
1084.004, 1730.904
1084.486, 1737.813
1084.969, 1732.311
1085.451, 1728.672
1085.933, 1728.004
1086.415, 1725.163
1086.897, 1711.809
1087.379, 1695.873
1087.861, 1693.419
1088.343, 1701.630
1088.826, 1707.406
1089.308, 1696.911
1089.790, 1697.318
1090.272, 1720.177
1090.754, 1747.582
1091.236, 1748.768
1091.718, 1729.162
1092.200, 1712.630
1092.682, 1702.698
1093.165, 1697.402
1093.647, 1698.297
1094.129, 1701.113
1094.611, 1705.383
1095.093, 1709.790
1095.575, 1699.954
1096.057, 1674.744
1096.539, 1665.443
1097.022, 1691.706
1097.504, 1722.621
1097.986, 1724.625
1098.468, 1712.132
1098.950, 1705.406
1099.432, 1712.926
1099.914, 1709.755
1100.396, 1691.990
1100.879, 1676.372
1101.361, 1677.674
1101.843, 1688.268
1102.325, 1694.791
1102.807, 1697.541
1103.289, 1698.151
1103.771, 1693.604
1104.253, 1692.185
1104.735, 1696.652
1105.218, 1702.919
1105.700, 1705.389
1106.182, 1704.617
1106.664, 1703.215
1107.146, 1701.460
1107.628, 1698.342
1108.110, 1688.181
1108.592, 1681.702
1109.074, 1689.440
1109.557, 1705.632
1110.039, 1703.975
1110.521, 1684.147
1111.003, 1671.717
1111.485, 1676.384
1111.967, 1684.200
1112.449, 1681.967
1112.931, 1675.667
1113.414, 1671.624
1113.896, 1670.788
1114.378, 1670.794
1114.860, 1671.446
1115.342, 1673.876
1115.824, 1680.085
1116.306, 1687.306
1116.788, 1694.017
1117.271, 1697.934
1117.753, 1693.971
1118.235, 1668.947
1118.717, 1653.620
1119.199, 1652.449
1119.681, 1656.147
1120.163, 1655.416
1120.645, 1652.180
1121.127, 1652.215
1121.609, 1655.567
1122.092, 1659.855
1122.574, 1664.550
1123.056, 1669.178
1123.538, 1673.732
1124.020, 1678.026
1124.502, 1682.354
1124.984, 1686.393
1125.466, 1687.248
1125.949, 1684.284
1126.431, 1679.037
1126.913, 1670.740
1127.395, 1662.099
1127.877, 1654.391
1128.359, 1647.860
1128.841, 1645.039
1129.323, 1646.042
1129.806, 1649.156
1130.288, 1655.010
1130.770, 1660.004
1131.252, 1661.773
1131.734, 1659.830
1132.216, 1651.532
1132.698, 1630.810
1133.180, 1628.740
1133.662, 1650.756
1134.145, 1668.489
1134.627, 1657.198
1135.109, 1635.001
1135.591, 1628.213
1136.073, 1633.942
1136.555, 1645.031
1137.037, 1671.809
1137.519, 1683.925
1138.001, 1675.370
1138.484, 1660.927
1138.966, 1657.266
1139.448, 1659.283
1139.930, 1651.422
1140.412, 1634.749
1140.894, 1626.882
1141.376, 1649.490
1141.858, 1662.200
1142.341, 1648.521
1142.823, 1626.018
1143.305, 1631.127
1143.787, 1656.729
1144.269, 1669.567
1144.751, 1663.061
1145.233, 1655.365
1145.715, 1658.724
1146.198, 1661.594
1146.680, 1655.615
1147.162, 1644.068
1147.644, 1645.515
1148.126, 1658.613
1148.608, 1664.659
1149.090, 1655.705
1149.572, 1643.734
1150.054, 1632.062
1150.536, 1625.911
1151.019, 1633.810
1151.501, 1657.860
1151.983, 1659.675
1152.465, 1638.183
1152.947, 1621.483
1153.429, 1627.808
1153.911, 1642.232
1154.393, 1655.430
1154.876, 1665.330
1155.358, 1667.561
1155.840, 1660.646
1156.322, 1649.804
1156.804, 1633.558
1157.286, 1622.002
1157.768, 1627.049
1158.250, 1638.814
1158.733, 1646.425
1159.215, 1649.930
1159.697, 1651.304
1160.179, 1652.987
1160.661, 1646.606
1161.143, 1627.747
1161.625, 1610.399
1162.107, 1613.691
1162.589, 1627.976
1163.072, 1638.669
1163.554, 1644.452
1164.036, 1645.585
1164.518, 1637.683
1165.000, 1632.869
1165.482, 1635.057
1165.964, 1640.050
1166.446, 1638.909
1166.928, 1634.938
1167.411, 1636.924
1167.893, 1647.873
1168.375, 1654.373
1168.857, 1652.377
1169.339, 1643.848
1169.821, 1625.715
1170.303, 1604.211
1170.785, 1599.015
1171.268, 1606.125
1171.750, 1612.004
1172.232, 1610.907
1172.714, 1611.965
1173.196, 1621.767
1173.678, 1632.087
1174.160, 1638.990
1174.642, 1642.182
1175.125, 1635.583
1175.607, 1621.551
1176.089, 1613.458
1176.571, 1622.135
1177.053, 1632.024
1177.535, 1637.877
1178.017, 1640.501
1178.499, 1640.614
1178.981, 1638.204
1179.464, 1628.971
1179.946, 1613.850
1180.428, 1607.672
1180.910, 1633.867
1181.392, 1656.058
1181.874, 1649.857
1182.356, 1629.752
1182.838, 1616.161
1183.320, 1608.947
1183.803, 1611.824
1184.285, 1625.389
1184.767, 1638.414
1185.249, 1644.441
1185.731, 1645.269
1186.213, 1638.382
1186.695, 1627.679
1187.177, 1624.785
1187.660, 1630.516
1188.142, 1630.830
1188.624, 1622.929
1189.106, 1613.724
1189.588, 1608.205
1190.070, 1604.846
1190.552, 1602.664
1191.034, 1601.554
1191.516, 1600.224
1191.999, 1598.021
1192.481, 1603.908
1192.963, 1622.822
1193.445, 1640.451
1193.927, 1639.579
1194.409, 1632.169
1194.891, 1632.009
1195.373, 1640.255
1195.855, 1635.369
1196.338, 1615.118
1196.820, 1601.202
1197.302, 1603.860
1197.784, 1612.753
1198.266, 1619.521
1198.748, 1624.294
1199.230, 1626.918
1199.712, 1627.100
1200.195, 1627.985
1200.677, 1630.321
1201.159, 1627.591
1201.641, 1610.698
1202.123, 1594.068
1202.605, 1598.073
1203.087, 1612.413
1203.569, 1620.070
1204.052, 1617.405
1204.534, 1613.780
1205.016, 1609.213
1205.498, 1603.410
1205.980, 1590.333
1206.462, 1580.553
1206.944, 1590.764
1207.426, 1612.969
1207.908, 1628.630
1208.391, 1635.803
1208.873, 1637.667
1209.355, 1634.071
1209.837, 1626.689
1210.319, 1609.380
1210.801, 1594.926
1211.283, 1606.462
1211.765, 1634.241
1212.247, 1640.421
1212.730, 1611.305
1213.212, 1597.696
1213.694, 1606.585
1214.176, 1623.147
1214.658, 1640.536
1215.140, 1652.429
1215.622, 1646.573
1216.104, 1626.768
1216.587, 1618.683
1217.069, 1628.753
1217.551, 1632.330
1218.033, 1624.212
1218.515, 1614.010
1218.997, 1613.713
1219.479, 1616.368
1219.961, 1613.580
1220.443, 1605.133
1220.926, 1598.448
1221.408, 1593.707
1221.890, 1591.903
1222.372, 1594.125
1222.854, 1596.355
1223.336, 1588.290
1223.818, 1581.031
1224.300, 1591.977
1224.782, 1623.698
1225.265, 1635.726
1225.747, 1623.513
1226.229, 1612.814
1226.711, 1611.192
1227.193, 1615.142
1227.675, 1627.805
1228.157, 1639.272
1228.639, 1634.354
1229.122, 1609.276
1229.604, 1597.135
1230.086, 1599.106
1230.568, 1606.574
1231.050, 1619.388
1231.532, 1629.597
1232.014, 1626.713
1232.496, 1616.591
1232.979, 1605.341
1233.461, 1593.112
1233.943, 1584.452
1234.425, 1579.471
1234.907, 1577.579
1235.389, 1578.525
1235.871, 1582.460
1236.353, 1593.934
1236.835, 1606.173
1237.318, 1608.682
1237.800, 1599.392
1238.282, 1596.763
1238.764, 1601.135
1239.246, 1605.631
1239.728, 1607.402
1240.210, 1606.480
1240.692, 1598.365
1241.175, 1590.042
1241.657, 1591.753
1242.139, 1605.741
1242.621, 1616.305
1243.103, 1623.549
1243.585, 1625.642
1244.067, 1617.565
1244.549, 1608.341
1245.031, 1601.275
1245.514, 1598.585
1245.996, 1604.202
1246.478, 1619.517
1246.960, 1626.125
1247.442, 1624.006
1247.924, 1618.558
1248.406, 1609.433
1248.888, 1602.212
1249.370, 1600.949
1249.853, 1602.935
1250.335, 1606.193
1250.817, 1610.467
1251.299, 1605.095
1251.781, 1590.588
1252.263, 1580.841
1252.745, 1589.861
1253.227, 1599.074
1253.710, 1596.450
1254.192, 1592.600
1254.674, 1605.834
1255.156, 1631.870
1255.638, 1636.662
1256.120, 1619.978
1256.602, 1604.192
1257.084, 1602.583
1257.567, 1602.610
1258.049, 1598.640
1258.531, 1595.819
1259.013, 1604.776
1259.495, 1620.941
1259.977, 1627.592
1260.459, 1623.849
1260.941, 1615.706
1261.423, 1600.970
1261.906, 1588.281
1262.388, 1577.383
1262.870, 1572.746
1263.352, 1588.641
1263.834, 1613.454
1264.316, 1617.226
1264.798, 1599.095
1265.280, 1584.402
1265.762, 1582.209
1266.245, 1582.347
1266.727, 1584.412
1267.209, 1584.949
1267.691, 1574.755
1268.173, 1561.967
1268.655, 1563.264
1269.137, 1578.765
1269.619, 1584.032
1270.102, 1571.279
1270.584, 1562.881
1271.066, 1563.690
1271.548, 1569.609
1272.030, 1578.062
1272.512, 1586.906
1272.994, 1593.955
1273.476, 1598.754
1273.958, 1601.380
1274.441, 1602.213
1274.923, 1598.758
1275.405, 1589.784
1275.887, 1579.564
1276.369, 1566.516
1276.851, 1559.049
1277.333, 1571.218
1277.815, 1598.339
1278.297, 1609.106
1278.780, 1602.604
1279.262, 1597.715
1279.744, 1598.928
1280.226, 1601.062
1280.708, 1599.469
1281.190, 1597.686
1281.672, 1598.989
1282.154, 1602.089
1282.637, 1601.521
1283.119, 1597.831
1283.601, 1597.076
1284.083, 1601.275
1284.565, 1602.873
1285.047, 1591.972
1285.529, 1583.621
1286.011, 1586.992
1286.494, 1596.505
1286.976, 1595.043
1287.458, 1586.133
1287.940, 1582.204
1288.422, 1586.483
1288.904, 1589.850
1289.386, 1586.890
1289.868, 1585.530
1290.350, 1589.559
1290.833, 1594.901
1291.315, 1591.732
1291.797, 1584.275
1292.279, 1581.437
1292.761, 1585.573
1293.243, 1587.422
1293.725, 1585.259
1294.207, 1582.370
1294.689, 1579.112
1295.172, 1577.282
1295.654, 1581.496
1296.136, 1587.647
1296.618, 1590.419
1297.100, 1588.713
1297.582, 1584.659
1298.064, 1577.284
1298.546, 1573.965
1299.029, 1577.716
1299.511, 1583.997
1299.993, 1590.510
1300.475, 1595.346
1300.957, 1597.037
1301.439, 1595.462
1301.921, 1585.086
1302.403, 1566.464
1302.885, 1558.758
1303.368, 1570.645
1303.850, 1579.176
1304.332, 1555.043
1304.814, 1536.891
1305.296, 1553.467
##END=



