##NAMES=Adamite
##RRUFFID=R060593
##IDEAL CHEMISTRY=Zn^2+^_2_As^5+^O_4_(OH)
##LOCALITY=Tsumeb mine, Tsumeb, Otavi District, Oshikoto, Namibia
##OWNER=Michael Scott
##SOURCE=Michael Scott
##DESCRIPTION=Bluish-green prismatic crystals
##STATUS=The identification of this mineral has been confirmed by X-ray diffraction and chemical analysis
##URL=rruff.info/R060593
##MEASURED CHEMISTRY=(Zn_1.65_Cu_0.35_)_Î£=2_(As_1.00_O_4_)(OH) ; H not measured but estimated by difference and stoichiometry
164.8853, 211.9319
165.3674, 212.5186
165.8495, 214.0774
166.3316, 216.9397
166.8137, 220.2591
167.2958, 223.3387
167.7780, 226.2233
168.2601, 229.0042
168.7422, 231.6705
169.2243, 234.2556
169.7064, 236.8345
170.1885, 239.3642
170.6707, 241.9586
171.1528, 245.1453
171.6349, 248.6392
172.1170, 251.3281
172.5991, 252.2791
173.0812, 251.4461
173.5634, 249.8919
174.0455, 247.5355
174.5276, 244.4398
175.0097, 240.5668
175.4918, 235.9341
175.9739, 230.6160
176.4561, 224.4834
176.9382, 216.9463
177.4203, 210.4852
177.9024, 205.2511
178.3845, 200.8291
178.8666, 197.1994
179.3488, 194.2882
179.8309, 191.8458
180.3130, 189.5204
180.7951, 186.8796
181.2772, 185.5337
181.7593, 186.0421
182.2415, 187.2903
182.7236, 188.4663
183.2057, 189.3792
183.6878, 190.3804
184.1699, 191.9993
184.6520, 194.4476
185.1342, 197.2458
185.6163, 200.2382
186.0984, 203.6369
186.5805, 207.9952
187.0626, 213.5495
187.5447, 219.2515
188.0269, 222.9395
188.5090, 223.8905
188.9911, 226.0864
189.4732, 231.4054
189.9553, 238.3885
190.4374, 244.3581
190.9196, 248.3972
191.4017, 251.6459
191.8838, 255.8412
192.3659, 260.9874
192.8480, 266.1820
193.3301, 270.7870
193.8123, 275.0437
194.2944, 279.9542
194.7765, 286.1005
195.2586, 292.5842
195.7407, 298.3242
196.2228, 303.2908
196.7050, 308.3971
197.1871, 314.3740
197.6692, 321.1862
198.1513, 328.0381
198.6334, 334.7149
199.1155, 341.4572
199.5977, 348.3256
200.0798, 355.3621
200.5619, 362.7055
201.0440, 370.3993
201.5261, 378.4209
202.0082, 387.2903
202.4904, 397.9425
202.9725, 408.9184
203.4546, 419.6726
203.9367, 430.0893
204.4188, 440.2722
204.9009, 450.3378
205.3831, 460.3699
205.8652, 469.9492
206.3473, 479.4727
206.8294, 488.2906
207.3115, 496.2545
207.7936, 503.1872
208.2758, 508.7017
208.7579, 512.2479
209.2400, 513.8248
209.7221, 513.0068
210.2042, 509.5140
210.6863, 504.3303
211.1685, 497.4821
211.6506, 489.2504
212.1327, 480.7282
212.6148, 473.4623
213.0969, 468.2943
213.5790, 462.8591
214.0612, 455.9455
214.5433, 449.5234
215.0254, 445.0484
215.5075, 442.9035
215.9896, 442.4996
216.4717, 443.1044
216.9539, 445.0450
217.4360, 447.4738
217.9181, 449.7301
218.4002, 452.7897
218.8823, 457.5060
219.3644, 464.0738
219.8466, 472.4860
220.3287, 483.0717
220.8108, 496.1686
221.2929, 509.7496
221.7750, 523.3020
222.2571, 537.3033
222.7393, 552.0384
223.2214, 567.3929
223.7035, 584.3457
224.1856, 604.7863
224.6677, 628.3240
225.1498, 652.3069
225.6320, 676.3171
226.1141, 700.2941
226.5962, 724.4770
227.0783, 749.3643
227.5604, 773.1516
228.0425, 795.2289
228.5247, 815.3690
229.0068, 831.2725
229.4889, 842.3671
229.9710, 848.4385
230.4531, 849.0775
230.9352, 844.3178
231.4174, 833.4316
231.8995, 814.5364
232.3816, 789.5276
232.8637, 763.0071
233.3458, 735.7697
233.8279, 708.5809
234.3101, 683.4392
234.7922, 660.7188
235.2743, 640.1202
235.7564, 620.5010
236.2385, 602.5133
236.7206, 587.4985
237.2028, 576.6159
237.6849, 569.4265
238.1670, 563.7708
238.6491, 559.0070
239.1312, 557.1526
239.6133, 559.1969
240.0955, 564.1525
240.5776, 570.3908
241.0597, 576.9114
241.5418, 583.9567
242.0239, 592.5428
242.5060, 602.9686
242.9882, 614.8381
243.4703, 628.1888
243.9524, 642.7208
244.4345, 658.1223
244.9166, 674.2499
245.3987, 691.0609
245.8809, 708.0858
246.3630, 725.9854
246.8451, 743.1823
247.3272, 759.1317
247.8093, 774.3173
248.2914, 789.3766
248.7736, 804.7239
249.2557, 820.0267
249.7378, 833.8170
250.2199, 846.5942
250.7020, 856.9396
251.1841, 864.6414
251.6663, 869.8732
252.1484, 872.7596
252.6305, 873.3810
253.1126, 871.7822
253.5947, 868.0530
254.0768, 861.6732
254.5590, 853.4371
255.0411, 842.9865
255.5232, 830.9083
256.0053, 817.3210
256.4874, 802.3360
256.9695, 786.7492
257.4517, 772.5130
257.9338, 761.5939
258.4159, 749.6571
258.8980, 736.5560
259.3801, 722.4491
259.8622, 706.9855
260.3444, 690.0991
260.8265, 672.7819
261.3086, 656.9216
261.7907, 642.8704
262.2728, 629.8218
262.7549, 618.5767
263.2371, 607.8689
263.7192, 596.1741
264.2013, 583.1020
264.6834, 570.0442
265.1655, 559.0674
265.6476, 550.9762
266.1298, 543.4779
266.6119, 536.5450
267.0940, 530.1436
267.5761, 524.2537
268.0582, 518.8493
268.5403, 514.0267
269.0225, 509.8983
269.5046, 506.5801
269.9867, 503.8206
270.4688, 501.3699
270.9509, 499.6457
271.4330, 499.2248
271.9152, 500.1221
272.3973, 501.5750
272.8794, 503.1189
273.3615, 504.7301
273.8436, 505.2485
274.3257, 504.3557
274.8079, 502.5776
275.2900, 500.6679
275.7721, 498.5544
276.2542, 495.0627
276.7363, 489.4391
277.2184, 481.3911
277.7006, 471.2234
278.1827, 457.9780
278.6648, 443.4327
279.1469, 428.6311
279.6290, 413.6352
280.1111, 398.4000
280.5933, 382.7694
281.0754, 366.9293
281.5575, 351.3093
282.0396, 335.2355
282.5217, 320.2155
283.0038, 307.0685
283.4860, 295.7334
283.9681, 285.8405
284.4502, 277.5672
284.9323, 270.4543
285.4144, 263.2737
285.8965, 255.7526
286.3787, 248.7980
286.8608, 242.9201
287.3429, 238.0347
287.8250, 233.8947
288.3071, 230.8093
288.7892, 227.9153
289.2714, 223.8433
289.7535, 218.4774
290.2356, 213.1907
290.7177, 208.4977
291.1998, 204.3595
291.6819, 200.6543
292.1641, 197.4221
292.6462, 194.4981
293.1283, 191.6689
293.6104, 188.9378
294.0925, 186.4451
294.5746, 184.4764
295.0568, 182.7551
295.5389, 180.6321
296.0210, 177.8729
296.5031, 175.1969
296.9852, 173.2073
297.4673, 171.7707
297.9495, 170.6551
298.4316, 170.2152
298.9137, 169.8945
299.3958, 168.6721
299.8779, 166.3152
300.3600, 164.0818
300.8422, 162.7488
301.3243, 162.1318
301.8064, 162.0532
302.2885, 162.6557
302.7706, 163.6060
303.2527, 164.6399
303.7349, 165.7821
304.2170, 166.6956
304.6991, 166.9781
305.1812, 167.0538
305.6633, 167.5720
306.1454, 168.8105
306.6276, 169.9952
307.1097, 170.1062
307.5918, 169.2418
308.0739, 169.2363
308.5560, 171.3374
309.0381, 173.9964
309.5203, 175.3261
310.0024, 175.1645
310.4845, 174.9458
310.9666, 175.7199
311.4487, 177.2962
311.9308, 178.7157
312.4130, 179.6828
312.8951, 180.6019
313.3772, 181.9859
313.8593, 183.7396
314.3414, 185.1613
314.8235, 185.5508
315.3057, 185.3660
315.7878, 185.9104
316.2699, 187.5753
316.7520, 189.2753
317.2341, 190.5215
317.7162, 191.2297
318.1984, 191.0292
318.6805, 189.1537
319.1626, 186.5824
319.6447, 184.8967
320.1268, 184.2366
320.6089, 183.7696
321.0911, 183.2729
321.5732, 182.6025
322.0553, 181.4895
322.5374, 179.7215
323.0195, 177.7495
323.5016, 176.2338
323.9838, 175.1745
324.4659, 173.4917
324.9480, 170.3665
325.4301, 166.6734
325.9122, 163.5482
326.3943, 161.1032
326.8765, 158.7986
327.3586, 156.2699
327.8407, 153.5403
328.3228, 150.7553
328.8049, 147.8079
329.2870, 145.0267
329.7692, 142.6771
330.2513, 140.7455
330.7334, 139.2031
331.2155, 138.2044
331.6976, 137.5774
332.1797, 136.9792
332.6619, 136.4401
333.1440, 135.7434
333.6261, 134.7191
334.1082, 133.4126
334.5903, 131.8292
335.0724, 129.2523
335.5546, 126.7677
336.0367, 126.1549
336.5188, 127.6123
337.0009, 128.9063
337.4830, 128.6854
337.9651, 127.4509
338.4473, 126.1016
338.9294, 124.4288
339.4115, 123.1365
339.8936, 123.1001
340.3757, 124.1363
340.8578, 124.8637
341.3400, 124.7285
341.8221, 124.0618
342.3042, 123.3031
342.7863, 122.3581
343.2684, 121.7831
343.7505, 122.1606
344.2327, 123.0982
344.7148, 123.6421
345.1969, 123.5512
345.6790, 123.1411
346.1611, 122.5006
346.6432, 121.6906
347.1254, 121.4525
347.6075, 122.4777
348.0896, 123.9362
348.5717, 124.6228
349.0538, 124.4049
349.5359, 124.4183
350.0181, 125.6819
350.5002, 127.9209
350.9823, 129.7413
351.4644, 130.9300
351.9465, 131.7902
352.4286, 132.4766
352.9108, 132.9949
353.3929, 133.2467
353.8750, 132.8693
354.3571, 132.5308
354.8392, 134.0105
355.3214, 138.1430
355.8035, 141.9162
356.2856, 143.9845
356.7677, 145.0117
357.2498, 146.0602
357.7319, 147.3828
358.2141, 149.0683
358.6962, 151.4116
359.1783, 154.5656
359.6604, 157.3957
360.1425, 159.3383
360.6246, 161.1864
361.1068, 163.8146
361.5889, 167.2700
362.0710, 170.7035
362.5531, 173.3705
363.0352, 175.2870
363.5173, 177.4961
363.9995, 179.8203
364.4816, 182.5842
364.9637, 186.0941
365.4458, 190.1718
365.9279, 194.3564
366.4100, 198.3892
366.8922, 202.4008
367.3743, 206.7731
367.8564, 211.6813
368.3385, 216.6764
368.8206, 221.2285
369.3027, 226.0448
369.7849, 232.3596
370.2670, 240.3974
370.7491, 248.6383
371.2312, 254.9576
371.7133, 258.6974
372.1954, 262.1397
372.6776, 265.2444
373.1597, 268.1015
373.6418, 271.3456
374.1239, 274.5689
374.6060, 276.4161
375.0881, 275.7723
375.5703, 272.6795
376.0524, 268.7093
376.5345, 264.2188
377.0166, 258.4688
377.4987, 250.8082
377.9808, 241.8737
378.4630, 232.3557
378.9451, 222.5653
379.4272, 212.7763
379.9093, 203.6580
380.3914, 195.3957
380.8735, 187.5009
381.3557, 179.6345
381.8378, 172.2993
382.3199, 165.8708
382.8020, 160.3557
383.2841, 155.5067
383.7662, 151.0869
384.2484, 147.0809
384.7305, 143.4984
385.2126, 140.6649
385.6947, 137.9458
386.1768, 135.0788
386.6589, 132.1809
387.1411, 129.4993
387.6232, 127.1750
388.1053, 125.1624
388.5874, 123.2343
389.0695, 120.9519
389.5516, 119.6606
390.0338, 120.6406
390.5159, 122.0661
390.9980, 122.0754
391.4801, 120.1688
391.9622, 117.7331
392.4443, 116.4914
392.9265, 116.5683
393.4086, 116.6415
393.8907, 116.4116
394.3728, 116.2935
394.8549, 116.6765
395.3370, 117.4223
395.8192, 117.9843
396.3013, 117.7937
396.7834, 117.1579
397.2655, 117.1243
397.7476, 117.8446
398.2297, 118.7759
398.7119, 119.5095
399.1940, 120.3191
399.6761, 121.6823
400.1582, 123.9557
400.6403, 126.2812
401.1224, 127.5662
401.6046, 127.9009
402.0867, 128.6751
402.5688, 130.4179
403.0509, 132.6713
403.5330, 134.8653
404.0151, 136.9940
404.4973, 139.2112
404.9794, 141.8539
405.4615, 144.5530
405.9436, 146.6267
406.4257, 147.9505
406.9078, 148.9001
407.3900, 149.3328
407.8721, 149.5662
408.3542, 151.1006
408.8363, 155.5100
409.3184, 159.9257
409.8005, 161.9674
410.2827, 162.3330
410.7648, 163.5576
411.2469, 166.9371
411.7290, 171.4383
412.2111, 174.6208
412.6932, 175.8504
413.1754, 177.5548
413.6575, 180.4269
414.1396, 183.8167
414.6217, 187.1299
415.1038, 190.2371
415.5859, 193.2312
416.0681, 196.1978
416.5502, 199.1353
417.0323, 202.0317
417.5144, 205.4005
417.9965, 208.2112
418.4786, 209.8946
418.9608, 210.7267
419.4429, 211.3202
419.9250, 211.9991
420.4071, 212.5491
420.8892, 212.3741
421.3713, 211.2681
421.8535, 209.6582
422.3356, 208.0050
422.8177, 205.5972
423.2998, 201.5580
423.7819, 195.9767
424.2640, 190.0060
424.7462, 184.8626
425.2283, 180.6024
425.7104, 176.0378
426.1925, 171.2602
426.6746, 166.0278
427.1567, 159.5418
427.6389, 152.7205
428.1210, 146.9974
428.6031, 143.0822
429.0852, 140.4630
429.5673, 138.3310
430.0494, 136.9155
430.5316, 135.1497
431.0137, 132.2870
431.4958, 129.3421
431.9779, 126.9163
432.4600, 125.0620
432.9421, 123.5893
433.4243, 122.4886
433.9064, 121.6801
434.3885, 120.7805
434.8706, 119.6866
435.3527, 118.6947
435.8348, 117.8804
436.3170, 117.3067
436.7991, 117.1833
437.2812, 117.8730
437.7633, 118.5908
438.2454, 118.2986
438.7275, 117.2065
439.2097, 116.8577
439.6918, 117.9778
440.1739, 119.7800
440.6560, 121.2267
441.1381, 122.3789
441.6202, 123.0304
442.1024, 122.6095
442.5845, 121.9366
443.0666, 121.7419
443.5487, 122.1433
444.0308, 123.5040
444.5129, 126.4544
444.9951, 130.6775
445.4772, 133.2823
445.9593, 133.6108
446.4414, 133.3471
446.9235, 132.4720
447.4056, 131.4734
447.8878, 130.9874
448.3699, 131.2369
448.8520, 132.1856
449.3341, 133.8947
449.8162, 136.9211
450.2983, 139.0819
450.7805, 139.6232
451.2626, 140.1264
451.7447, 141.5452
452.2268, 143.6451
452.7089, 145.5757
453.1910, 146.7038
453.6732, 147.3319
454.1553, 148.8198
454.6374, 152.1244
455.1195, 154.6387
455.6016, 155.2148
456.0837, 155.4040
456.5659, 156.6032
457.0480, 159.0296
457.5301, 161.7075
458.0122, 163.6470
458.4943, 164.8680
458.9764, 166.0055
459.4586, 166.9631
459.9407, 168.0135
460.4228, 169.2881
460.9049, 170.7373
461.3870, 172.2477
461.8691, 173.6766
462.3513, 175.3192
462.8334, 177.8029
463.3155, 181.0765
463.7976, 183.6885
464.2797, 184.7390
464.7618, 185.4796
465.2440, 187.4396
465.7261, 190.5982
466.2082, 194.2914
466.6903, 199.0374
467.1724, 203.8170
467.6545, 206.9290
468.1367, 208.3703
468.6188, 210.3889
469.1009, 214.6554
469.5830, 220.6510
470.0651, 225.8462
470.5472, 229.4770
471.0294, 233.3468
471.5115, 238.2249
471.9936, 243.4537
472.4757, 248.2678
472.9578, 252.4495
473.4399, 256.1864
473.9221, 259.6105
474.4042, 262.5493
474.8863, 266.1942
475.3684, 271.1149
475.8505, 276.0786
476.3326, 280.9956
476.8148, 285.5581
477.2969, 289.2301
477.7790, 291.7097
478.2611, 293.4917
478.7432, 295.5575
479.2253, 297.9605
479.7075, 300.4780
480.1896, 303.9301
480.6717, 306.7791
481.1538, 307.8689
481.6359, 307.4464
482.1180, 306.7623
482.6002, 306.3849
483.0823, 306.4413
483.5644, 307.5367
484.0465, 310.0388
484.5286, 312.2057
485.0107, 312.9948
485.4929, 313.1612
485.9750, 313.4474
486.4571, 313.8297
486.9392, 314.8195
487.4213, 316.9514
487.9034, 319.8868
488.3856, 322.8647
488.8677, 325.7769
489.3498, 328.8341
489.8319, 332.4092
490.3140, 336.3865
490.7961, 339.4690
491.2783, 341.5448
491.7604, 342.8855
492.2425, 343.9540
492.7246, 344.3242
493.2067, 343.3043
493.6888, 340.6668
494.1710, 336.3559
494.6531, 330.2201
495.1352, 321.7354
495.6173, 312.9542
496.0994, 304.3194
496.5815, 295.0195
497.0637, 284.5392
497.5458, 273.1227
498.0279, 261.1694
498.5100, 248.8066
498.9921, 236.4847
499.4742, 225.0352
499.9564, 214.3560
500.4385, 204.9087
500.9206, 197.2882
501.4027, 190.4208
501.8848, 183.6734
502.3669, 177.0799
502.8491, 171.2581
503.3312, 166.9421
503.8133, 163.6265
504.2954, 159.9710
504.7775, 155.9273
505.2596, 151.8059
505.7418, 147.3026
506.2239, 143.1098
506.7060, 140.3045
507.1881, 139.2610
507.6702, 138.2883
508.1523, 136.3087
508.6345, 133.9275
509.1166, 132.1823
509.5987, 131.2218
510.0808, 130.5750
510.5629, 129.8829
511.0450, 129.1646
511.5272, 128.5954
512.0093, 128.2200
512.4914, 127.9141
512.9735, 127.2701
513.4556, 126.8220
513.9377, 127.5057
514.4199, 129.4748
514.9020, 131.7213
515.3841, 132.8693
515.8662, 132.6425
516.3483, 133.2114
516.8304, 135.3466
517.3126, 137.4822
517.7947, 139.3384
518.2768, 140.8713
518.7589, 141.8667
519.2410, 142.1946
519.7231, 142.6500
520.2053, 144.5858
520.6874, 148.1195
521.1695, 151.3333
521.6516, 153.7064
522.1337, 156.0594
522.6158, 158.9622
523.0980, 162.2871
523.5801, 165.6794
524.0622, 168.9333
524.5443, 172.2671
525.0264, 175.8873
525.5085, 179.7958
525.9907, 183.8069
526.4728, 187.8524
526.9549, 192.0473
527.4370, 196.6249
527.9191, 201.7036
528.4012, 206.6477
528.8834, 211.0402
529.3655, 215.5873
529.8476, 221.3242
530.3297, 227.6882
530.8118, 232.8726
531.2939, 235.8422
531.7761, 237.4937
532.2582, 240.1483
532.7403, 244.6871
533.2224, 248.6015
533.7045, 252.1518
534.1866, 254.8817
534.6688, 256.4548
535.1509, 256.9673
535.6330, 256.7749
536.1151, 256.1219
536.5972, 254.9027
537.0793, 252.7253
537.5615, 249.4419
538.0436, 245.8750
538.5257, 242.4693
539.0078, 238.7054
539.4899, 234.2143
539.9720, 228.9755
540.4542, 223.0518
540.9363, 215.9880
541.4184, 208.5191
541.9005, 201.6997
542.3826, 195.5488
542.8647, 189.5749
543.3469, 183.4260
543.8290, 177.3449
544.3111, 172.0393
544.7932, 168.0222
545.2753, 163.5089
545.7574, 157.6226
546.2396, 151.5554
546.7217, 146.3000
547.2038, 141.8726
547.6859, 137.8432
548.1680, 133.8733
548.6501, 130.0709
549.1323, 126.9590
549.6144, 125.0494
550.0965, 122.9808
550.5786, 120.7091
551.0607, 118.1595
551.5428, 114.9255
552.0250, 111.2300
552.5071, 108.1455
552.9892, 106.9276
553.4713, 106.7319
553.9534, 104.7706
554.4355, 100.5875
554.9177, 96.97090
555.3998, 95.30363
555.8819, 94.59120
556.3640, 93.41425
556.8461, 91.68871
557.3282, 90.06128
557.8104, 88.80520
558.2925, 87.75678
558.7746, 86.82153
559.2567, 85.94582
559.7388, 84.89709
560.2209, 83.47538
560.7031, 81.85947
561.1852, 80.61589
561.6673, 79.93563
562.1494, 79.36781
562.6315, 79.11638
563.1136, 78.81221
563.5958, 78.09232
564.0779, 77.04102
564.5600, 76.09232
565.0421, 75.60271
565.5242, 75.34854
566.0063, 74.37717
566.4885, 72.10094
566.9706, 70.84164
567.4527, 72.37708
567.9348, 74.21194
568.4169, 74.51411
568.8990, 73.37061
569.3812, 72.20301
569.8633, 72.06496
570.3454, 72.17480
570.8275, 71.11666
571.3096, 68.99561
571.7917, 67.41508
572.2739, 67.07805
572.7560, 67.57619
573.2381, 68.32633
573.7202, 69.53535
574.2023, 70.19215
574.6844, 70.00080
575.1666, 69.40771
575.6487, 68.43733
576.1308, 67.32632
576.6129, 66.61930
577.0950, 66.61562
577.5771, 66.95775
578.0593, 66.79232
578.5414, 65.77811
579.0235, 65.19024
579.5056, 65.43093
579.9877, 65.79762
580.4698, 66.14028
580.9520, 66.35419
581.4341, 66.24841
581.9162, 65.66923
582.3983, 64.87589
582.8804, 64.11030
583.3625, 63.39264
583.8447, 62.98666
584.3268, 62.98997
584.8089, 63.24133
585.2910, 63.73137
585.7731, 64.40860
586.2552, 64.70936
586.7374, 64.26234
587.2195, 63.76571
587.7016, 63.53461
588.1837, 63.51287
588.6658, 63.58131
589.1479, 63.70554
589.6301, 63.96251
590.1122, 64.51594
590.5943, 65.44798
591.0764, 65.87779
591.5585, 65.90105
592.0406, 65.25201
592.5228, 63.06758
593.0049, 60.55803
593.4870, 59.17094
593.9691, 59.26218
594.4512, 60.00790
594.9333, 60.88702
595.4155, 61.80615
595.8976, 62.32643
596.3797, 62.38218
596.8618, 62.19053
597.3439, 61.55801
597.8260, 60.90012
598.3082, 61.30801
598.7903, 63.53070
599.2724, 64.92551
599.7545, 63.78901
600.2366, 61.93447
600.7188, 61.37658
601.2009, 62.15120
601.6830, 63.07637
602.1651, 63.34987
602.6472, 63.17918
603.1293, 63.38491
603.6115, 64.56847
604.0936, 64.99560
604.5757, 64.04099
605.0578, 62.83148
605.5399, 61.78913
606.0220, 61.08386
606.5042, 61.03251
606.9863, 62.13482
607.4684, 63.49724
607.9505, 63.51062
608.4326, 62.21061
608.9147, 61.01051
609.3969, 60.15374
609.8790, 59.74369
610.3611, 60.14842
610.8432, 61.28019
611.3253, 61.99011
611.8074, 61.82168
612.2896, 61.55569
612.7717, 61.54673
613.2538, 61.73418
613.7359, 62.06331
614.2180, 62.49713
614.7001, 62.84194
615.1823, 62.81821
615.6644, 62.39147
616.1465, 62.33134
616.6286, 63.07727
617.1107, 63.58144
617.5928, 63.39225
618.0750, 62.95351
618.5571, 62.64087
619.0392, 62.54243
619.5213, 62.74121
620.0034, 63.70469
620.4855, 64.91246
620.9677, 64.99548
621.4498, 63.85957
621.9319, 62.85854
622.4140, 62.70361
622.8961, 63.03851
623.3782, 63.09999
623.8604, 62.76886
624.3425, 62.57865
624.8246, 62.65742
625.3067, 62.83471
625.7888, 63.10200
626.2709, 63.36521
626.7531, 63.43703
627.2352, 63.22297
627.7173, 62.82796
628.1994, 62.36454
628.6815, 61.74653
629.1636, 61.56527
629.6458, 62.31104
630.1279, 62.90149
630.6100, 62.50615
631.0921, 61.67683
631.5742, 61.50431
632.0563, 62.53919
632.5385, 63.40934
633.0206, 62.73802
633.5027, 61.30073
633.9848, 60.66317
634.4669, 61.04836
634.9490, 61.81638
635.4312, 62.57607
635.9133, 63.29434
636.3954, 63.81915
636.8775, 64.23934
637.3596, 64.31791
637.8417, 63.68215
638.3239, 62.99903
638.8060, 62.66356
639.2881, 62.71297
639.7702, 63.13703
640.2523, 64.04942
640.7344, 65.01943
641.2166, 65.05504
641.6987, 64.10251
642.1808, 63.46122
642.6629, 63.46560
643.1450, 63.70589
643.6271, 63.92042
644.1093, 64.08747
644.5914, 64.09279
645.0735, 63.77700
645.5556, 63.46137
646.0377, 63.22394
646.5198, 63.10773
647.0020, 63.30534
647.4841, 63.78428
647.9662, 64.08057
648.4483, 63.72018
648.9304, 62.84172
649.4125, 62.45316
649.8947, 62.90772
650.3768, 63.19468
650.8589, 62.68196
651.3410, 62.31321
651.8231, 63.11691
652.3052, 64.81660
652.7874, 65.87476
653.2695, 65.04893
653.7516, 63.65507
654.2337, 63.33689
654.7158, 63.89655
655.1979, 64.44151
655.6801, 64.72478
656.1622, 64.89444
656.6443, 65.13052
657.1264, 65.44662
657.6085, 65.54384
658.0906, 65.27702
658.5728, 65.00662
659.0549, 64.68596
659.5370, 64.48149
660.0191, 64.64228
660.5012, 65.14583
660.9833, 65.65051
661.4655, 65.87652
661.9476, 65.89261
662.4297, 65.96239
662.9118, 66.13383
663.3939, 65.92612
663.8760, 64.88602
664.3582, 63.77321
664.8403, 63.43842
665.3224, 63.82976
665.8045, 64.74479
666.2866, 66.98235
666.7687, 68.86824
667.2509, 69.22579
667.7330, 68.68178
668.2151, 68.13351
668.6972, 67.87885
669.1793, 68.04228
669.6614, 68.90627
670.1436, 70.36613
670.6257, 70.84103
671.1078, 69.73808
671.5899, 68.87925
672.0720, 68.74432
672.5541, 69.06821
673.0363, 69.96246
673.5184, 71.30392
674.0005, 72.09352
674.4826, 71.61392
674.9647, 70.62871
675.4468, 69.60715
675.9290, 68.70580
676.4111, 68.48298
676.8932, 69.12327
677.3753, 69.99318
677.8574, 70.35213
678.3395, 70.18010
678.8217, 70.01590
679.3038, 69.68686
679.7859, 69.59885
680.2680, 69.81601
680.7501, 70.30330
681.2322, 71.38322
681.7144, 72.86044
682.1965, 73.60475
682.6786, 72.10763
683.1607, 69.95861
683.6428, 70.35098
684.1249, 72.89071
684.6071, 73.97124
685.0892, 72.23850
685.5713, 69.66955
686.0534, 68.39598
686.5355, 68.48181
687.0176, 69.01849
687.4998, 70.46191
687.9819, 71.73542
688.4640, 72.98001
688.9461, 73.66833
689.4282, 72.80807
689.9103, 70.63191
690.3925, 68.85842
690.8746, 68.96926
691.3567, 70.21459
691.8388, 70.82665
692.3209, 70.78371
692.8030, 70.66235
693.2852, 70.56106
693.7673, 70.53078
694.2494, 70.71472
694.7315, 71.07982
695.2136, 71.13462
695.6957, 70.53451
696.1779, 70.01827
696.6600, 69.77074
697.1421, 69.77780
697.6242, 70.35781
698.1063, 71.29716
698.5884, 71.51242
699.0706, 69.96196
699.5527, 67.47615
700.0348, 66.53263
700.5169, 67.36924
700.9990, 68.28050
701.4811, 69.09782
701.9633, 69.67985
702.4454, 69.62593
702.9275, 69.19864
703.4096, 69.33163
703.8917, 70.70949
704.3738, 71.89063
704.8560, 72.16360
705.3381, 71.98402
705.8202, 71.82310
706.3023, 71.77184
706.7844, 71.76934
707.2665, 71.75966
707.7487, 71.81922
708.2308, 72.28338
708.7129, 73.36941
709.1950, 73.80594
709.6771, 73.06691
710.1592, 72.14505
710.6414, 71.48812
711.1235, 71.14073
711.6056, 71.26788
712.0877, 72.09163
712.5698, 72.92945
713.0519, 73.40810
713.5341, 73.74251
714.0162, 74.28455
714.4983, 74.96165
714.9804, 75.33519
715.4625, 75.14136
715.9446, 74.60231
716.4268, 74.10352
716.9089, 73.53193
717.3910, 73.55289
717.8731, 74.80007
718.3552, 75.79201
718.8373, 75.32925
719.3195, 74.40421
719.8016, 74.65372
720.2837, 76.58135
720.7658, 78.06983
721.2479, 77.92663
721.7300, 76.96750
722.2122, 75.73282
722.6943, 74.45696
723.1764, 73.68177
723.6585, 73.64706
724.1406, 74.01578
724.6227, 74.20333
725.1049, 74.11013
725.5870, 74.87789
726.0691, 77.30859
726.5512, 79.29016
727.0333, 79.81763
727.5154, 79.74206
727.9976, 79.92162
728.4797, 80.42087
728.9618, 80.62106
729.4439, 79.54284
729.9260, 78.67212
730.4081, 79.90452
730.8903, 82.35032
731.3724, 83.65923
731.8545, 83.20691
732.3366, 82.52830
732.8187, 83.36846
733.3008, 85.52415
733.7830, 86.44179
734.2651, 85.33470
734.7472, 84.69138
735.2293, 85.35269
735.7114, 86.43151
736.1935, 87.61996
736.6757, 88.74699
737.1578, 89.18632
737.6399, 88.03664
738.1220, 87.07329
738.6041, 87.83233
739.0862, 89.40927
739.5684, 90.33389
740.0505, 90.43648
740.5326, 90.45984
741.0147, 90.96972
741.4968, 91.70413
741.9789, 91.85445
742.4611, 91.31062
742.9432, 90.55063
743.4253, 89.18130
743.9074, 88.16700
744.3895, 88.17139
744.8716, 88.84984
745.3538, 89.64437
745.8359, 90.58425
746.3180, 91.25908
746.8001, 91.31516
747.2822, 91.13601
747.7643, 91.11718
748.2465, 91.22710
748.7286, 91.20136
749.2107, 90.91960
749.6928, 90.65002
750.1749, 90.96211
750.6570, 91.92367
751.1392, 91.88717
751.6213, 90.27287
752.1034, 88.98716
752.5855, 88.78749
753.0676, 89.31217
753.5497, 90.36996
754.0319, 91.98474
754.5140, 92.89429
754.9961, 92.04846
755.4782, 91.19429
755.9603, 91.50990
756.4424, 92.45525
756.9246, 93.17319
757.4067, 93.48393
757.8888, 93.72971
758.3709, 94.22717
758.8530, 94.53498
759.3351, 94.86132
759.8173, 95.34634
760.2994, 95.54676
760.7815, 96.01591
761.2636, 96.47523
761.7457, 96.56819
762.2278, 96.43021
762.7100, 96.71972
763.1921, 97.91361
763.6742, 98.81495
764.1563, 98.66343
764.6384, 98.50773
765.1205, 99.26379
765.6027, 100.7746
766.0848, 102.5157
766.5669, 104.2795
767.0490, 105.7080
767.5311, 106.0420
768.0132, 105.5435
768.4954, 105.8030
768.9775, 107.0212
769.4596, 108.0129
769.9417, 108.0228
770.4238, 107.7667
770.9059, 108.6001
771.3881, 110.9734
771.8702, 112.6076
772.3523, 113.0417
772.8344, 113.3213
773.3165, 113.4796
773.7986, 113.8584
774.2808, 115.0424
774.7629, 116.9553
775.2450, 118.6038
775.7271, 118.8980
776.2092, 118.9607
776.6913, 120.7057
777.1735, 123.7273
777.6556, 126.3917
778.1377, 128.3382
778.6198, 129.7840
779.1019, 130.8280
779.5840, 131.5832
780.0662, 132.6002
780.5483, 133.7775
781.0304, 135.4215
781.5125, 137.7773
781.9946, 140.3571
782.4767, 143.2897
782.9589, 146.1986
783.4410, 148.1702
783.9231, 148.6999
784.4052, 149.8072
784.8873, 153.2697
785.3694, 157.6008
785.8516, 160.8168
786.3337, 163.1944
786.8158, 166.1049
787.2979, 170.0960
787.7800, 174.6787
788.2621, 179.3023
788.7443, 183.9415
789.2264, 188.4894
789.7085, 192.7173
790.1906, 197.5439
790.6727, 203.8393
791.1548, 210.3232
791.6370, 215.3443
792.1191, 219.2194
792.6012, 224.0974
793.0833, 230.4980
793.5654, 237.7257
794.0475, 245.9155
794.5297, 254.4936
795.0118, 262.9626
795.4939, 271.2924
795.9760, 279.5206
796.4581, 287.6115
796.9402, 296.0366
797.4224, 305.6765
797.9045, 316.3820
798.3866, 326.8587
798.8687, 336.9015
799.3508, 347.2894
799.8329, 358.4995
800.3151, 370.1510
800.7972, 381.4021
801.2793, 392.2581
801.7614, 402.8157
802.2435, 413.2860
802.7256, 423.2642
803.2078, 431.8927
803.6899, 440.4464
804.1720, 450.9116
804.6541, 462.9999
805.1362, 473.8428
805.6183, 480.8915
806.1005, 487.1375
806.5826, 495.1911
807.0647, 504.8795
807.5468, 516.1622
808.0289, 528.9113
808.5110, 541.7794
808.9932, 553.7440
809.4753, 565.5170
809.9574, 579.1523
810.4395, 594.9757
810.9216, 611.4222
811.4037, 627.9153
811.8859, 645.7335
812.3680, 665.9380
812.8501, 687.6779
813.3322, 709.6732
813.8143, 731.7009
814.2964, 754.9146
814.7786, 780.6357
815.2607, 806.6280
815.7428, 832.0045
816.2249, 856.5681
816.7070, 880.4492
817.1891, 903.3192
817.6713, 923.9178
818.1534, 941.2344
818.6355, 955.5242
819.1176, 967.6849
819.5997, 977.4651
820.0818, 982.9218
820.5640, 983.6920
821.0461, 979.9365
821.5282, 970.9730
822.0103, 958.4160
822.4924, 947.3126
822.9745, 938.6307
823.4567, 929.0512
823.9388, 916.6561
824.4209, 905.5235
824.9030, 897.0155
825.3851, 890.5895
825.8672, 884.8942
826.3494, 879.8129
826.8315, 878.7516
827.3136, 884.3105
827.7957, 893.5743
828.2778, 904.2126
828.7599, 916.7252
829.2421, 931.9389
829.7242, 950.1140
830.2063, 971.4318
830.6884, 996.2097
831.1705, 1024.089
831.6526, 1054.261
832.1348, 1087.199
832.6169, 1121.930
833.0990, 1160.830
833.5811, 1201.954
834.0632, 1245.047
834.5453, 1289.617
835.0275, 1335.290
835.5096, 1381.424
835.9917, 1430.141
836.4738, 1484.030
836.9559, 1537.627
837.4380, 1587.525
837.9202, 1637.113
838.4023, 1691.682
838.8844, 1750.931
839.3665, 1808.720
839.8486, 1861.322
840.3307, 1912.119
840.8129, 1964.841
841.2950, 2018.060
841.7771, 2069.585
842.2592, 2118.562
842.7413, 2164.130
843.2234, 2205.712
843.7056, 2241.010
844.1877, 2265.332
844.6698, 2278.473
845.1519, 2282.288
845.6340, 2277.398
846.1161, 2261.313
846.5983, 2232.685
847.0804, 2192.491
847.5625, 2140.526
848.0446, 2076.313
848.5267, 2006.774
849.0089, 1930.077
849.4910, 1850.907
849.9731, 1767.824
850.4552, 1684.551
850.9373, 1603.949
851.4194, 1526.077
851.9016, 1449.668
852.3837, 1373.248
852.8658, 1299.867
853.3479, 1231.556
853.8300, 1167.792
854.3121, 1108.922
854.7943, 1054.299
855.2764, 1000.750
855.7585, 947.2142
856.2406, 896.1917
856.7227, 850.8120
857.2048, 811.0524
857.6870, 773.4105
858.1691, 737.9875
858.6512, 704.9733
859.1333, 674.3623
859.6154, 646.2982
860.0975, 620.7478
860.5797, 597.8387
861.0618, 577.5985
861.5439, 560.6757
862.0260, 545.3012
862.5081, 531.4573
862.9902, 518.8600
863.4724, 506.9927
863.9545, 496.3919
864.4366, 487.8492
864.9187, 481.5149
865.4008, 476.9686
865.8829, 474.1676
866.3651, 472.7693
866.8472, 472.1801
867.3293, 472.6895
867.8114, 474.8994
868.2935, 478.9752
868.7756, 485.0268
869.2578, 493.1977
869.7399, 503.1476
870.2220, 513.7902
870.7041, 525.0234
871.1862, 538.8571
871.6683, 555.5650
872.1505, 574.4661
872.6326, 595.5192
873.1147, 618.1041
873.5968, 641.2044
874.0789, 664.4303
874.5610, 690.1497
875.0432, 718.3734
875.5253, 748.6237
876.0074, 781.2943
876.4895, 815.4661
876.9716, 850.6186
877.4537, 886.8085
877.9359, 924.6255
878.4180, 963.9621
878.9001, 1006.098
879.3822, 1052.161
879.8643, 1101.397
880.3464, 1154.221
880.8286, 1209.619
881.3107, 1265.316
881.7928, 1320.443
882.2749, 1376.736
882.7570, 1436.859
883.2391, 1498.945
883.7213, 1557.417
884.2034, 1612.196
884.6855, 1662.407
885.1676, 1708.340
885.6497, 1745.585
886.1318, 1771.286
886.6140, 1785.363
887.0961, 1787.693
887.5782, 1779.027
888.0603, 1756.391
888.5424, 1717.710
889.0245, 1667.861
889.5067, 1606.241
889.9888, 1536.092
890.4709, 1459.048
890.9530, 1375.076
891.4351, 1292.435
891.9172, 1211.801
892.3994, 1133.505
892.8815, 1056.033
893.3636, 982.1416
893.8457, 914.6185
894.3278, 853.1495
894.8099, 795.9086
895.2921, 742.1202
895.7742, 692.3397
896.2563, 647.5948
896.7384, 607.1027
897.2205, 570.7346
897.7026, 538.0195
898.1848, 508.1541
898.6669, 480.7032
899.1490, 455.3559
899.6311, 431.6294
900.1132, 409.6500
900.5953, 390.3310
901.0775, 373.8645
901.5596, 358.0714
902.0417, 342.5134
902.5238, 328.2936
903.0059, 316.3602
903.4880, 305.9032
903.9702, 295.1682
904.4523, 283.9247
904.9344, 273.4287
905.4165, 263.4682
905.8986, 254.5296
906.3807, 247.0969
906.8629, 240.3350
907.3450, 233.5198
907.8271, 226.7141
908.3092, 220.5221
908.7913, 215.2406
909.2734, 210.1758
909.7556, 204.7413
910.2377, 199.5888
910.7198, 195.6233
911.2019, 192.2970
911.6840, 188.3455
912.1661, 183.4816
912.6483, 178.8071
913.1304, 175.4026
913.6125, 172.5990
914.0946, 169.3013
914.5767, 165.6971
915.0588, 162.3166
915.5410, 159.2775
916.0231, 156.9104
916.5052, 155.5044
916.9873, 154.3306
917.4694, 151.7600
917.9515, 147.7126
918.4337, 144.3260
918.9158, 141.5990
919.3979, 139.6413
919.8800, 138.8076
920.3621, 138.1321
920.8442, 136.4879
921.3264, 135.3809
921.8085, 134.1436
922.2906, 132.0517
922.7727, 131.0873
923.2548, 128.6204
923.7369, 126.0593
924.2191, 123.9090
924.7012, 122.1550
925.1833, 120.8460
925.6654, 120.0038
926.1475, 119.0926
926.6296, 117.8675
927.1118, 116.6420
927.5939, 115.7314
928.0760, 114.7878
928.5581, 113.3081
929.0402, 111.4221
929.5223, 109.7728
930.0045, 108.6990
930.4866, 107.4791
930.9687, 104.8712
931.4508, 102.0368
931.9329, 101.2808
932.4150, 101.9188
932.8972, 101.3961
933.3793, 99.11396
933.8614, 96.78447
934.3435, 95.97200
934.8256, 95.98797
935.3077, 95.06852
935.7899, 93.29268
936.2720, 91.77776
936.7541, 90.66114
937.2362, 89.64408
937.7183, 88.52456
938.2004, 87.62732
938.6826, 87.54270
939.1647, 88.30077
939.6468, 88.38992
940.1289, 87.37205
940.6110, 86.80415
941.0931, 87.63686
941.5753, 88.12302
942.0574, 86.48199
942.5395, 83.66562
943.0216, 82.33664
943.5037, 83.12849
943.9858, 83.48588
944.4680, 83.15746
944.9501, 82.42596
945.4322, 80.91770
945.9143, 79.39840
946.3964, 78.69840
946.8785, 78.74656
947.3607, 78.84651
947.8428, 78.70085
948.3249, 78.70988
948.8070, 79.48877
949.2891, 80.17712
949.7712, 79.62941
950.2534, 78.45058
950.7355, 78.06350
951.2176, 78.74306
951.6997, 79.31760
952.1818, 78.87414
952.6639, 77.88682
953.1461, 76.56438
953.6282, 75.31845
954.1103, 75.58389
954.5924, 77.14697
955.0745, 77.76843
955.5566, 76.32090
956.0388, 74.37534
956.5209, 74.18027
957.0030, 75.33782
957.4851, 75.97674
957.9672, 76.09653
958.4493, 75.06434
958.9315, 72.50211
959.4136, 70.79629
959.8957, 72.01466
960.3778, 74.68721
960.8599, 74.81266
961.3420, 71.65070
961.8242, 69.79739
962.3063, 69.78291
962.7884, 69.77090
963.2705, 68.99411
963.7526, 68.23015
964.2347, 68.40417
964.7169, 69.34219
965.1990, 69.76423
965.6811, 69.63136
966.1632, 69.02349
966.6453, 67.07071
967.1274, 65.64302
967.6096, 66.24185
968.0917, 67.38177
968.5738, 66.85631
969.0559, 64.65112
969.5380, 63.42314
970.0201, 64.77477
970.5023, 65.90855
970.9844, 65.58492
971.4665, 64.88345
971.9486, 64.78335
972.4307, 64.96281
972.9128, 64.51591
973.3950, 63.22474
973.8771, 62.11294
974.3592, 61.82248
974.8413, 61.92670
975.3234, 62.37917
975.8055, 62.80055
976.2877, 62.52525
976.7698, 61.65235
977.2519, 60.77880
977.7340, 60.17789
978.2161, 59.79020
978.6982, 59.63186
979.1804, 59.60260
979.6625, 59.55448
980.1446, 59.46758
980.6267, 59.35730
981.1088, 59.19266
981.5909, 58.59872
982.0731, 57.22578
982.5552, 55.82695
983.0373, 55.92739
983.5194, 57.31404
984.0015, 58.69621
984.4836, 60.02531
984.9658, 59.97958
985.4479, 57.98362
985.9300, 56.01603
986.4121, 56.00202
986.8942, 57.30648
987.3763, 57.64100
987.8585, 56.87785
988.3406, 55.83250
988.8227, 54.24639
989.3048, 53.50616
989.7869, 54.59586
990.2690, 56.01478
990.7512, 55.86525
991.2333, 54.31411
991.7154, 53.49041
992.1975, 53.90920
992.6796, 53.93968
993.1617, 52.97151
993.6439, 52.30055
994.1260, 52.79686
994.6081, 53.79177
995.0902, 54.44119
995.5723, 54.75229
996.0544, 54.56139
996.5366, 53.37688
997.0187, 52.38622
997.5008, 52.04553
997.9829, 51.67988
998.4650, 50.55214
998.9471, 49.24385
999.4293, 48.91446
999.9114, 49.76775
1000.393, 50.32312
1000.876, 49.71966
1001.358, 49.31714
1001.840, 49.78794
1002.322, 50.61407
1002.804, 51.83584
1003.286, 52.90489
1003.768, 52.41816
1004.250, 49.87213
1004.733, 48.09499
1005.215, 49.49896
1005.697, 51.27277
1006.179, 51.19392
1006.661, 50.30302
1007.143, 49.93082
1007.625, 50.12719
1008.107, 50.42432
1008.589, 50.65636
1009.072, 50.56209
1009.554, 49.68386
1010.036, 48.55828
1010.518, 47.66167
1011.000, 47.07328
1011.482, 46.93632
1011.964, 47.22959
1012.446, 47.83092
1012.929, 48.71820
1013.411, 49.49652
1013.893, 49.70656
1014.375, 49.46471
1014.857, 48.73998
1015.339, 47.77999
1015.821, 47.53185
1016.303, 48.10695
1016.785, 48.52100
1017.268, 48.07078
1017.750, 47.30889
1018.232, 47.01770
1018.714, 47.19542
1019.196, 48.30162
1019.678, 50.09621
1020.160, 50.13097
1020.642, 47.74952
1021.125, 45.45531
1021.607, 45.24541
1022.089, 46.46600
1022.571, 48.00013
1023.053, 49.77999
1023.535, 50.06379
1024.017, 48.72826
1024.499, 47.45275
1024.981, 46.74161
1025.464, 46.38969
1025.946, 46.25165
1026.428, 46.26235
1026.910, 46.18673
1027.392, 45.99226
1027.874, 46.07952
1028.356, 46.55188
1028.838, 46.85088
1029.321, 46.74194
1029.803, 46.51982
1030.285, 46.48421
1030.767, 46.56919
1031.249, 46.46563
1031.731, 46.10585
1032.213, 45.82789
1032.695, 45.70690
1033.177, 45.47186
1033.660, 44.90365
1034.142, 44.37277
1034.624, 44.22334
1035.106, 44.45182
1035.588, 45.08783
1036.070, 46.53227
1036.552, 47.41103
1037.034, 47.51216
1037.516, 47.36399
1037.999, 47.09452
1038.481, 46.72778
1038.963, 46.18630
1039.445, 45.53537
1039.927, 45.28888
1040.409, 45.78069
1040.891, 46.08986
1041.373, 46.26664
1041.855, 46.19001
1042.338, 45.72126
1042.820, 45.04636
1043.302, 44.15546
1043.784, 43.14857
1044.266, 42.76140
1044.748, 43.37595
1045.230, 44.00529
1045.712, 44.78838
1046.195, 45.34996
1046.677, 45.44120
1047.159, 45.31065
1047.641, 45.23171
1048.123, 45.19022
1048.605, 45.00697
1049.087, 44.61009
1049.569, 44.16449
1050.052, 43.49252
1050.534, 43.01440
1051.016, 43.01329
1051.498, 43.24214
1051.980, 43.51960
1052.462, 43.78468
1052.944, 43.84229
1053.426, 43.67213
1053.908, 43.26491
1054.391, 41.99671
1054.873, 41.20985
1055.355, 42.02733
1055.837, 43.38026
1056.319, 44.04700
1056.801, 44.04771
1057.283, 44.15239
1057.765, 44.82067
1058.248, 44.93245
1058.730, 43.61060
1059.212, 42.27339
1059.694, 41.94979
1060.176, 41.87397
1060.658, 40.68989
1061.140, 38.80421
1061.622, 38.43818
1062.104, 40.93815
1062.587, 42.84000
1063.069, 42.25105
1063.551, 41.44483
1064.033, 41.88263
1064.515, 42.72816
1064.997, 43.07456
1065.479, 42.84861
1065.961, 42.19096
1066.443, 40.93502
1066.926, 40.00430
1067.408, 39.86786
1067.890, 40.05907
1068.372, 40.35915
1068.854, 40.79169
1069.336, 41.66435
1069.818, 42.70121
1070.300, 42.96460
1070.782, 41.99139
1071.265, 41.21022
1071.747, 41.67445
1072.229, 42.02428
1072.711, 41.26897
1073.193, 40.09692
1073.675, 39.01207
1074.157, 38.25039
1074.639, 38.27576
1075.122, 39.34085
1075.604, 40.21568
1076.086, 40.19397
1076.568, 39.99189
1077.050, 39.94918
1077.532, 40.00124
1078.014, 40.11157
1078.496, 40.23753
1078.979, 40.27906
1079.461, 40.20207
1079.943, 40.21328
1080.425, 40.46484
1080.907, 40.75871
1081.389, 41.02171
1081.871, 41.24368
1082.353, 41.50985
1082.835, 41.70055
1083.318, 41.41968
1083.800, 40.59406
1084.282, 40.22751
1084.764, 41.43115
1085.246, 42.32966
1085.728, 41.82011
1086.210, 40.75980
1086.692, 39.57450
1087.175, 38.53071
1087.657, 37.94494
1088.139, 37.87331
1088.621, 38.18994
1089.103, 39.07968
1089.585, 40.01832
1090.067, 40.99971
1090.549, 41.72676
1091.031, 41.96638
1091.514, 41.79792
1091.996, 41.03279
1092.478, 39.85235
1092.960, 39.60388
1093.442, 41.52556
1093.924, 42.96234
1094.406, 42.79379
1094.888, 41.97285
1095.370, 40.71949
1095.853, 39.44804
1096.335, 38.58088
1096.817, 38.14327
1097.299, 38.00847
1097.781, 38.25283
1098.263, 38.51415
1098.745, 39.02633
1099.227, 39.11671
1099.709, 37.93344
1100.192, 36.52887
1100.674, 35.88754
1101.156, 36.03316
1101.638, 36.82290
1102.120, 38.54053
1102.602, 39.70557
1103.084, 39.73619
1103.566, 39.43912
1104.049, 38.87969
1104.531, 38.35085
1105.013, 38.09741
1105.495, 38.05776
1105.977, 38.14171
1106.459, 38.42377
1106.941, 38.23177
1107.423, 36.62280
1107.906, 35.68529
1108.388, 36.77076
1108.870, 37.88427
1109.352, 37.59557
1109.834, 36.49632
1110.316, 35.46775
1110.798, 34.52364
1111.280, 34.46974
1111.762, 36.31071
1112.245, 37.62044
1112.727, 38.04718
1113.209, 37.95213
1113.691, 37.23410
1114.173, 36.26445
1114.655, 35.20231
1115.137, 34.14071
1115.619, 34.35328
1116.102, 37.59785
1116.584, 38.95631
1117.066, 36.76494
1117.548, 35.07204
1118.030, 35.64365
1118.512, 36.88359
1118.994, 37.38635
1119.476, 37.27575
1119.958, 37.03886
1120.441, 36.64803
1120.923, 36.18361
1121.405, 35.40818
1121.887, 35.15368
1122.369, 36.05069
1122.851, 36.72481
1123.333, 35.97933
1123.815, 34.49432
1124.297, 33.78624
1124.780, 33.91946
1125.262, 33.98854
1125.744, 33.90258
1126.226, 34.18577
1126.708, 35.15923
1127.190, 35.67308
1127.672, 34.93524
1128.154, 33.79563
1128.636, 33.50640
1129.119, 33.96391
1129.601, 34.35340
1130.083, 34.69656
1130.565, 34.65372
1131.047, 34.11803
1131.529, 33.87354
1132.011, 34.24006
1132.493, 35.05239
1132.976, 36.31995
1133.458, 37.53272
1133.940, 36.85339
1134.422, 34.50323
1134.904, 33.43839
1135.386, 33.72613
1135.868, 33.93582
1136.350, 33.67632
1136.833, 33.14898
1137.315, 32.43966
1137.797, 31.90956
1138.279, 32.34307
1138.761, 33.42279
1139.243, 34.15173
1139.725, 34.52145
1140.207, 34.38381
1140.689, 33.82482
1141.172, 33.53645
1141.654, 33.84122
1142.136, 34.15112
1142.618, 33.77602
1143.100, 33.07995
1143.582, 32.59163
1144.064, 32.28931
1144.546, 32.16730
1145.029, 32.18191
1145.511, 32.26388
1145.993, 32.36954
1146.475, 32.33918
1146.957, 31.94240
1147.439, 31.68192
1147.921, 32.26774
1148.403, 33.09130
1148.885, 33.55164
1149.368, 33.62876
1149.850, 33.08069
1150.332, 32.17362
1150.814, 32.06425
1151.296, 33.44185
1151.778, 34.34686
1152.260, 32.79895
1152.742, 31.31091
1153.224, 32.08062
1153.707, 33.39519
1154.189, 33.21269
1154.671, 32.06359
1155.153, 31.57104
1155.635, 32.06668
1156.117, 32.54855
1156.599, 32.62106
1157.081, 32.74809
1157.563, 33.15779
1158.046, 33.57311
1158.528, 33.87836
1159.010, 34.04905
1159.492, 34.25806
1159.974, 34.40044
1160.456, 33.57950
1160.938, 30.36965
1161.420, 28.83226
1161.903, 30.29517
1162.385, 31.78184
1162.867, 32.65326
1163.349, 33.07269
1163.831, 33.03218
1164.313, 32.70633
1164.795, 32.50299
1165.277, 32.41822
1165.760, 32.50457
1166.242, 32.83971
1166.724, 33.11561
1167.206, 33.32519
1167.688, 33.27607
1168.170, 32.72043
1168.652, 32.34002
1169.134, 33.23040
1169.616, 32.16894
1170.099, 34.30992
1170.581, 31.53822
1171.063, 30.50109
1171.545, 31.45078
1172.027, 31.92355
1172.509, 31.15791
1172.991, 30.74413
1173.473, 31.98537
1173.956, 33.74098
1174.438, 33.93980
1174.920, 33.06904
1175.402, 32.49398
1175.884, 32.28290
1176.366, 32.94164
1176.848, 34.24555
1177.330, 34.68531
1177.813, 33.65467
1178.295, 32.46804
1178.777, 32.28943
1179.259, 32.56367
1179.741, 32.71277
1180.223, 32.79043
1180.705, 32.75996
1181.187, 32.76274
1181.669, 33.30966
1182.151, 34.26598
1182.634, 34.47066
1183.116, 33.16269
1183.598, 31.92315
1184.080, 31.65189
1184.562, 31.79229
1185.044, 32.23384
1185.526, 32.67892
1186.008, 32.91439
1186.490, 32.89733
1186.973, 32.37983
1187.455, 31.24720
1187.937, 31.06491
1188.419, 33.33839
1188.901, 34.79549
1189.383, 34.33367
1189.865, 33.47111
1190.347, 32.52133
1190.830, 31.91992
1191.312, 32.44530
1191.794, 33.74191
1192.276, 33.99868
1192.758, 32.79640
1193.240, 31.96725
1193.722, 31.54261
1194.204, 31.44247
1194.687, 31.74141
1195.169, 32.02767
1195.651, 31.96585
1196.133, 31.98214
1196.615, 32.89177
1197.097, 34.44021
1197.579, 35.04974
1198.061, 34.75872
1198.543, 34.19952
1199.026, 33.45319
1199.508, 32.66858
1199.990, 31.91529
1200.472, 31.49278
1200.954, 31.70614
1201.436, 32.07339
1201.918, 31.53068
1202.400, 30.81022
1202.883, 31.87345
1203.365, 33.79607
1203.847, 34.22612
1204.329, 33.24817
1204.811, 32.41722
1205.293, 32.32455
1205.775, 32.72721
1206.257, 33.98743
1206.740, 34.94816
1207.222, 34.44142
1207.704, 33.57742
1208.186, 33.15187
1208.668, 33.17649
1209.150, 33.93435
1209.632, 35.09699
1210.114, 35.12180
1210.596, 33.12990
1211.078, 31.78748
1211.561, 32.00829
1212.043, 32.39862
1212.525, 32.41326
1213.007, 32.61717
1213.489, 33.70357
1213.971, 34.95072
1214.453, 35.09340
1214.935, 35.63858
1215.417, 35.79028
1215.900, 35.29689
1216.382, 35.43225
1216.864, 34.09910
1217.346, 33.33075
1217.828, 33.90337
1218.310, 34.40189
1218.792, 33.69172
1219.274, 32.45589
1219.757, 31.76632
1220.239, 31.69457
1220.721, 33.27418
1221.203, 32.45263
1221.685, 35.63106
1222.167, 32.78987
1222.649, 31.33742
1223.131, 32.53981
1223.614, 33.80010
1224.096, 33.12549
1224.578, 31.74805
1225.060, 30.36961
1225.542, 29.63343
1226.024, 31.02653
1226.506, 33.17111
1226.988, 33.81282
1227.470, 33.18042
1227.953, 32.85318
1228.435, 33.27804
1228.917, 33.61793
1229.399, 33.15361
1229.881, 33.12685
1230.363, 34.74620
1230.845, 36.00468
1231.327, 35.41351
1231.810, 34.05437
1232.292, 32.98728
1232.774, 32.29372
1233.256, 32.34710
1233.738, 33.52177
1234.220, 33.74110
1234.702, 32.56333
1235.184, 31.94652
1235.667, 32.45092
1236.149, 32.63977
1236.631, 31.62854
1237.113, 30.68421
1237.595, 31.48899
1238.077, 31.06744
1238.559, 31.35134
1239.041, 32.09649
1239.523, 32.28465
1240.005, 33.64655
1240.488, 34.71032
1240.970, 35.10245
1241.452, 34.65675
1241.934, 33.27706
1242.416, 32.16270
1242.898, 32.78606
1243.380, 33.77909
1243.862, 33.60917
1244.344, 33.19627
1244.827, 34.06357
1245.309, 35.20501
1245.791, 34.35544
1246.273, 31.81457
1246.755, 30.59159
1247.237, 31.90858
1247.719, 32.95899
1248.201, 32.78107
1248.684, 32.72181
1249.166, 33.42780
1249.648, 34.05865
1250.130, 34.03312
1250.612, 33.77192
1251.094, 33.82394
1251.576, 34.15188
1252.058, 34.59805
1252.541, 35.27064
1253.023, 35.11028
1253.505, 33.97955
1253.987, 33.47308
1254.469, 33.97771
1254.951, 34.22038
1255.433, 33.44592
1255.915, 32.49421
1256.397, 32.43706
1256.880, 32.07667
1257.362, 32.66494
1257.844, 32.33630
1258.326, 32.69728
1258.808, 33.47280
1259.290, 34.00256
1259.772, 34.10594
1260.254, 33.64769
1260.737, 32.46242
1261.219, 31.61826
1261.701, 31.77840
1262.183, 32.28301
1262.665, 33.24165
1263.147, 33.97589
1263.629, 33.89771
1264.111, 33.36154
1264.594, 32.67782
1265.076, 31.98159
1265.558, 31.99347
1266.040, 31.76897
1266.522, 31.50474
1267.004, 32.11158
1267.486, 31.48845
1267.968, 31.93423
1268.450, 32.58653
1268.932, 33.04063
1269.415, 33.28781
1269.897, 33.31108
1270.379, 33.14198
1270.861, 32.70280
1271.343, 32.18381
1271.825, 32.23858
1272.307, 32.71747
1272.789, 33.10394
1273.271, 33.35202
1273.754, 33.81208
1274.236, 34.59728
1274.718, 34.96850
1275.200, 33.99646
1275.682, 33.14738
1276.164, 33.49595
1276.646, 34.04927
1277.128, 34.18285
1277.611, 34.05534
1278.093, 33.80916
1278.575, 33.50708
1279.057, 33.32012
1279.539, 33.28432
1280.021, 33.08861
1280.503, 32.53742
1280.985, 32.44020
1281.468, 33.09609
1281.950, 33.32819
1282.432, 32.59003
1282.914, 31.97726
1283.396, 32.44620
1283.878, 33.41139
1284.360, 33.82402
1284.842, 33.83194
1285.324, 33.85619
##END=



