##NAMES=Adamite
##RRUFFID=R060593
##IDEAL CHEMISTRY=Zn^2+^_2_As^5+^O_4_(OH)
##LOCALITY=Tsumeb mine, Tsumeb, Otavi District, Oshikoto, Namibia
##OWNER=Michael Scott
##SOURCE=Michael Scott
##DESCRIPTION=Bluish-green prismatic crystals
##STATUS=The identification of this mineral has been confirmed by X-ray diffraction and chemical analysis
##URL=rruff.info/R060593
##MEASURED CHEMISTRY=(Zn_1.65_Cu_0.35_)_Î£=2_(As_1.00_O_4_)(OH) ; H not measured but estimated by difference and stoichiometry
177.7553, 936.2067
178.2374, 935.4492
178.7195, 934.4993
179.2017, 936.0396
179.6838, 939.1089
180.1659, 942.3464
180.6480, 945.7860
181.1301, 949.3973
181.6122, 953.5250
182.0944, 957.9657
182.5765, 961.8925
183.0586, 963.6545
183.5407, 964.8571
184.0228, 969.4545
184.5049, 977.7680
184.9871, 987.5380
185.4692, 996.8221
185.9513, 1005.525
186.4334, 1012.562
186.9155, 1015.851
187.3976, 1016.931
187.8798, 1021.548
188.3619, 1030.411
188.8440, 1040.620
189.3261, 1048.435
189.8082, 1053.993
190.2903, 1058.001
190.7725, 1059.911
191.2546, 1060.260
191.7367, 1062.234
192.2188, 1066.294
192.7009, 1071.173
193.1830, 1074.533
193.6652, 1076.355
194.1473, 1078.378
194.6294, 1081.151
195.1115, 1084.714
195.5936, 1090.309
196.0757, 1098.761
196.5579, 1107.946
197.0400, 1113.044
197.5221, 1113.631
198.0042, 1114.695
198.4863, 1119.367
198.9684, 1127.668
199.4506, 1135.919
199.9327, 1143.874
200.4148, 1151.556
200.8969, 1158.425
201.3790, 1164.181
201.8611, 1171.102
202.3433, 1181.613
202.8254, 1196.277
203.3075, 1207.649
203.7896, 1214.276
204.2717, 1217.996
204.7538, 1223.112
205.2360, 1229.637
205.7181, 1237.396
206.2002, 1247.114
206.6823, 1259.491
207.1644, 1269.023
207.6465, 1274.826
208.1287, 1277.729
208.6108, 1280.222
209.0929, 1282.239
209.5750, 1284.009
210.0571, 1286.005
210.5392, 1288.725
211.0214, 1289.342
211.5035, 1287.168
211.9856, 1282.917
212.4677, 1278.811
212.9498, 1274.747
213.4319, 1271.112
213.9140, 1267.888
214.3962, 1264.708
214.8783, 1263.441
215.3604, 1264.787
215.8425, 1268.103
216.3246, 1270.505
216.8067, 1271.119
217.2889, 1272.512
217.7710, 1276.140
218.2531, 1282.036
218.7352, 1290.184
219.2173, 1301.250
219.6994, 1314.673
220.1816, 1327.192
220.6637, 1338.540
221.1458, 1349.718
221.6279, 1360.747
222.1100, 1370.399
222.5921, 1383.493
223.0743, 1401.493
223.5564, 1423.260
224.0385, 1444.342
224.5206, 1463.591
225.0027, 1483.272
225.4848, 1504.758
225.9670, 1528.260
226.4491, 1552.880
226.9312, 1579.595
227.4133, 1607.496
227.8954, 1633.853
228.3775, 1659.283
228.8597, 1681.589
229.3418, 1699.223
229.8239, 1712.068
230.3060, 1720.618
230.7881, 1725.510
231.2702, 1726.151
231.7524, 1719.316
232.2345, 1703.552
232.7166, 1682.521
233.1987, 1658.034
233.6808, 1628.566
234.1629, 1598.956
234.6451, 1568.700
235.1272, 1538.335
235.6093, 1509.351
236.0914, 1480.309
236.5735, 1454.617
237.0556, 1434.199
237.5378, 1419.772
238.0199, 1409.248
238.5020, 1403.635
238.9841, 1401.875
239.4662, 1399.736
239.9483, 1396.162
240.4305, 1393.732
240.9126, 1393.750
241.3947, 1396.454
241.8768, 1401.140
242.3589, 1407.846
242.8410, 1416.475
243.3232, 1427.078
243.8053, 1440.580
244.2874, 1454.721
244.7695, 1468.130
245.2516, 1480.127
245.7337, 1493.008
246.2159, 1506.861
246.6980, 1521.654
247.1801, 1537.100
247.6622, 1553.687
248.1443, 1570.354
248.6264, 1586.449
249.1086, 1601.984
249.5907, 1617.240
250.0728, 1632.854
250.5549, 1648.033
251.0370, 1660.691
251.5191, 1670.782
252.0013, 1678.518
252.4834, 1684.033
252.9655, 1687.109
253.4476, 1688.420
253.9297, 1687.453
254.4118, 1684.985
254.8940, 1682.867
255.3761, 1681.922
255.8582, 1679.844
256.3403, 1675.495
256.8224, 1668.187
257.3046, 1660.868
257.7867, 1653.782
258.2688, 1646.549
258.7509, 1638.205
259.2330, 1627.844
259.7151, 1618.332
260.1973, 1610.798
260.6794, 1605.703
261.1615, 1601.247
261.6436, 1598.043
262.1257, 1595.023
262.6078, 1590.046
263.0900, 1582.043
263.5721, 1574.850
264.0542, 1570.114
264.5363, 1568.242
265.0184, 1565.838
265.5005, 1562.387
265.9827, 1559.018
266.4648, 1557.187
266.9469, 1556.911
267.4290, 1558.220
267.9111, 1561.385
268.3932, 1566.482
268.8754, 1571.738
269.3575, 1576.951
269.8396, 1582.554
270.3217, 1588.882
270.8038, 1595.740
271.2859, 1603.890
271.7681, 1613.831
272.2502, 1625.421
272.7323, 1636.590
273.2144, 1647.351
273.6965, 1657.248
274.1786, 1665.754
274.6608, 1672.929
275.1429, 1679.035
275.6250, 1685.154
276.1071, 1690.570
276.5892, 1689.670
277.0714, 1682.123
277.5535, 1669.239
278.0356, 1651.626
278.5177, 1629.067
278.9998, 1603.837
279.4819, 1575.817
279.9641, 1545.500
280.4462, 1515.953
280.9283, 1487.000
281.4104, 1459.174
281.8925, 1432.311
282.3746, 1406.401
282.8568, 1382.518
283.3389, 1360.681
283.8210, 1341.143
284.3031, 1325.131
284.7852, 1312.879
285.2673, 1301.996
285.7495, 1290.380
286.2316, 1278.225
286.7137, 1268.083
287.1958, 1260.601
287.6779, 1254.816
288.1600, 1248.999
288.6422, 1243.145
289.1243, 1237.111
289.6064, 1230.578
290.0885, 1223.708
290.5706, 1217.672
291.0527, 1212.531
291.5349, 1208.284
292.0170, 1205.293
292.4991, 1203.460
292.9812, 1201.580
293.4633, 1199.270
293.9454, 1196.431
294.4276, 1192.290
294.9097, 1186.481
295.3918, 1181.016
295.8739, 1178.814
296.3560, 1179.394
296.8381, 1180.354
297.3203, 1180.960
297.8024, 1181.105
298.2845, 1180.336
298.7666, 1178.563
299.2487, 1176.715
299.7308, 1175.193
300.2130, 1174.255
300.6951, 1174.659
301.1772, 1177.186
301.6593, 1180.971
302.1414, 1185.206
302.6235, 1189.832
303.1057, 1194.028
303.5878, 1196.144
304.0699, 1197.407
304.5520, 1200.109
305.0341, 1205.840
305.5162, 1212.535
305.9984, 1217.816
306.4805, 1221.905
306.9626, 1226.655
307.4447, 1233.771
307.9268, 1242.131
308.4089, 1250.199
308.8911, 1257.552
309.3732, 1264.570
309.8553, 1271.001
310.3374, 1277.172
310.8195, 1284.360
311.3016, 1293.667
311.7838, 1304.002
312.2659, 1314.721
312.7480, 1326.102
313.2301, 1336.724
313.7122, 1345.115
314.1943, 1352.244
314.6765, 1359.971
315.1586, 1369.554
315.6407, 1379.683
316.1228, 1389.916
316.6049, 1400.391
317.0870, 1409.905
317.5692, 1417.884
318.0513, 1424.532
318.5334, 1430.071
319.0155, 1432.953
319.4976, 1436.145
319.9797, 1441.694
320.4619, 1450.073
320.9440, 1456.416
321.4261, 1458.592
321.9082, 1458.291
322.3903, 1457.084
322.8724, 1458.256
323.3546, 1455.559
323.8367, 1446.294
324.3188, 1430.640
324.8009, 1414.272
325.2830, 1399.154
325.7651, 1383.138
326.2473, 1364.878
326.7294, 1342.227
327.2115, 1319.732
327.6936, 1296.816
328.1757, 1274.186
328.6578, 1254.229
329.1400, 1238.507
329.6221, 1224.178
330.1042, 1209.901
330.5863, 1194.905
331.0684, 1181.135
331.5505, 1168.189
332.0327, 1156.585
332.5148, 1147.805
332.9969, 1143.667
333.4790, 1139.811
333.9611, 1134.373
334.4432, 1126.401
334.9254, 1120.655
335.4075, 1118.287
335.8896, 1117.176
336.3717, 1114.304
336.8538, 1108.914
337.3359, 1103.589
337.8180, 1098.935
338.3001, 1094.972
338.7823, 1091.861
339.2644, 1089.977
339.7465, 1088.328
340.2286, 1086.012
340.7107, 1083.034
341.1928, 1079.533
341.6750, 1075.345
342.1571, 1070.779
342.6392, 1067.309
343.1213, 1065.028
343.6034, 1063.245
344.0855, 1061.590
344.5677, 1060.067
345.0498, 1058.194
345.5319, 1055.686
346.0140, 1053.212
346.4961, 1052.413
346.9782, 1053.217
347.4604, 1053.797
347.9425, 1052.339
348.4246, 1049.693
348.9067, 1049.397
349.3888, 1051.991
349.8709, 1055.174
350.3531, 1056.098
350.8352, 1055.213
351.3173, 1054.202
351.7994, 1053.781
352.2815, 1053.669
352.7636, 1053.004
353.2458, 1051.779
353.7279, 1051.474
354.2100, 1054.323
354.6921, 1058.788
355.1742, 1062.214
355.6563, 1063.633
356.1385, 1063.865
356.6206, 1063.050
357.1027, 1061.465
357.5848, 1060.523
358.0669, 1061.710
358.5490, 1063.613
359.0312, 1064.703
359.5133, 1064.072
359.9954, 1064.049
360.4775, 1066.956
360.9596, 1071.479
361.4417, 1074.776
361.9239, 1074.506
362.4060, 1073.673
362.8881, 1073.869
363.3702, 1075.362
363.8523, 1077.373
364.3344, 1080.297
364.8166, 1083.383
365.2987, 1085.787
365.7808, 1086.232
366.2629, 1087.000
366.7450, 1088.792
367.2271, 1091.614
367.7093, 1094.505
368.1914, 1096.928
368.6735, 1099.636
369.1556, 1103.159
369.6377, 1108.859
370.1198, 1113.550
370.6020, 1116.719
371.0841, 1118.721
371.5662, 1120.872
372.0483, 1123.343
372.5304, 1125.701
373.0125, 1127.887
373.4947, 1130.239
373.9768, 1131.294
374.4589, 1130.576
374.9410, 1128.952
375.4231, 1127.978
375.9052, 1128.196
376.3874, 1127.606
376.8695, 1125.757
377.3516, 1122.633
377.8337, 1117.936
378.3158, 1111.301
378.7979, 1104.036
379.2801, 1097.380
379.7622, 1091.294
380.2443, 1085.727
380.7264, 1080.779
381.2085, 1076.176
381.6906, 1070.668
382.1728, 1064.225
382.6549, 1058.772
383.1370, 1056.339
383.6191, 1056.135
384.1012, 1055.206
384.5833, 1053.167
385.0655, 1050.506
385.5476, 1047.476
386.0297, 1044.249
386.5118, 1041.645
386.9939, 1040.815
387.4760, 1040.514
387.9582, 1038.464
388.4403, 1034.593
388.9224, 1031.289
389.4045, 1031.188
389.8866, 1032.729
390.3687, 1033.698
390.8509, 1033.054
391.3330, 1031.983
391.8151, 1031.336
392.2972, 1030.995
392.7793, 1030.444
393.2614, 1028.562
393.7436, 1026.929
394.2257, 1026.800
394.7078, 1029.002
395.1899, 1031.207
395.6720, 1032.816
396.1541, 1033.852
396.6363, 1034.361
397.1184, 1033.240
397.6005, 1032.613
398.0826, 1033.266
398.5647, 1035.348
399.0468, 1037.761
399.5290, 1041.365
400.0111, 1044.717
400.4932, 1046.647
400.9753, 1045.717
401.4574, 1045.290
401.9395, 1045.597
402.4217, 1046.624
402.9038, 1048.367
403.3859, 1051.214
403.8680, 1054.218
404.3501, 1057.062
404.8322, 1059.930
405.3144, 1061.813
405.7965, 1062.369
406.2786, 1062.321
406.7607, 1062.640
407.2428, 1063.244
407.7249, 1064.710
408.2071, 1067.635
408.6892, 1071.666
409.1713, 1074.369
409.6534, 1075.615
410.1355, 1076.292
410.6176, 1077.096
411.0998, 1078.007
411.5819, 1078.883
412.0640, 1079.614
412.5461, 1080.427
413.0282, 1081.897
413.5103, 1083.893
413.9925, 1085.696
414.4746, 1086.685
414.9567, 1087.291
415.4388, 1088.326
415.9209, 1089.942
416.4030, 1091.252
416.8852, 1091.452
417.3673, 1090.877
417.8494, 1090.084
418.3315, 1088.872
418.8136, 1087.870
419.2957, 1087.881
419.7779, 1088.688
420.2600, 1088.814
420.7421, 1086.914
421.2242, 1084.502
421.7063, 1082.777
422.1884, 1082.459
422.6706, 1081.850
423.1527, 1080.591
423.6348, 1078.759
424.1169, 1076.500
424.5990, 1073.931
425.0811, 1070.799
425.5633, 1066.853
426.0454, 1061.944
426.5275, 1057.158
427.0096, 1051.896
427.4917, 1047.145
427.9738, 1043.657
428.4560, 1041.436
428.9381, 1040.578
429.4202, 1041.915
429.9023, 1044.449
430.3844, 1044.601
430.8665, 1041.695
431.3487, 1038.314
431.8308, 1035.706
432.3129, 1033.920
432.7950, 1032.207
433.2771, 1030.584
433.7592, 1029.021
434.2414, 1027.336
434.7235, 1025.575
435.2056, 1024.190
435.6877, 1023.152
436.1698, 1022.712
436.6519, 1024.086
437.1341, 1027.139
437.6162, 1029.390
438.0983, 1027.896
438.5804, 1024.650
439.0625, 1023.178
439.5446, 1024.307
440.0268, 1026.437
440.5089, 1028.742
440.9910, 1030.985
441.4731, 1032.654
441.9552, 1033.147
442.4373, 1033.291
442.9195, 1033.054
443.4016, 1032.503
443.8837, 1033.467
444.3658, 1038.765
444.8479, 1044.715
445.3300, 1048.336
445.8122, 1047.115
446.2943, 1046.088
446.7764, 1045.936
447.2585, 1046.569
447.7406, 1047.761
448.2227, 1049.993
448.7049, 1052.307
449.1870, 1054.632
449.6691, 1057.112
450.1512, 1058.469
450.6333, 1057.391
451.1154, 1056.620
451.5976, 1059.408
452.0797, 1067.513
452.5618, 1073.070
453.0439, 1073.997
453.5260, 1072.070
454.0081, 1073.120
454.4903, 1077.608
454.9724, 1082.173
455.4545, 1084.381
455.9366, 1084.735
456.4187, 1087.251
456.9008, 1092.243
457.3830, 1098.185
457.8651, 1102.925
458.3472, 1107.011
458.8293, 1112.189
459.3114, 1120.311
459.7935, 1128.502
460.2757, 1132.199
460.7578, 1132.297
461.2399, 1133.480
461.7220, 1139.868
462.2041, 1148.038
462.6862, 1154.580
463.1684, 1158.669
463.6505, 1162.638
464.1326, 1167.448
464.6147, 1172.869
465.0968, 1178.697
465.5789, 1184.756
466.0611, 1191.204
466.5432, 1198.379
467.0253, 1206.187
467.5074, 1213.762
467.9895, 1219.971
468.4716, 1226.802
468.9538, 1235.349
469.4359, 1247.006
469.9180, 1257.066
470.4001, 1265.121
470.8822, 1271.934
471.3643, 1278.438
471.8465, 1284.133
472.3286, 1291.062
472.8107, 1300.544
473.2928, 1311.676
473.7749, 1319.597
474.2570, 1323.787
474.7392, 1327.201
475.2213, 1332.248
475.7034, 1338.596
476.1855, 1344.134
476.6676, 1348.781
477.1497, 1352.164
477.6319, 1353.335
478.1140, 1352.728
478.5961, 1351.689
479.0782, 1350.466
479.5603, 1349.336
480.0424, 1349.319
480.5246, 1350.118
481.0067, 1349.389
481.4888, 1345.162
481.9709, 1339.033
482.4530, 1332.179
482.9352, 1324.305
483.4173, 1317.003
483.8994, 1311.442
484.3815, 1306.687
484.8636, 1301.377
485.3457, 1295.025
485.8279, 1288.280
486.3100, 1281.016
486.7921, 1273.229
487.2742, 1266.219
487.7563, 1259.954
488.2384, 1254.459
488.7206, 1249.844
489.2027, 1246.345
489.6848, 1243.309
490.1669, 1241.148
490.6490, 1239.019
491.1311, 1235.183
491.6133, 1229.346
492.0954, 1224.152
492.5775, 1220.782
493.0596, 1218.564
493.5417, 1215.013
494.0238, 1210.126
494.5060, 1204.391
494.9881, 1198.111
495.4702, 1191.269
495.9523, 1183.826
496.4344, 1175.933
496.9165, 1166.806
497.3987, 1154.506
497.8808, 1140.478
498.3629, 1127.691
498.8450, 1117.847
499.3271, 1109.229
499.8092, 1101.122
500.2914, 1093.399
500.7735, 1086.049
501.2556, 1078.955
501.7377, 1072.159
502.2198, 1065.613
502.7019, 1058.998
503.1841, 1053.328
503.6662, 1049.731
504.1483, 1046.729
504.6304, 1042.607
505.1125, 1036.472
505.5946, 1030.709
506.0768, 1025.361
506.5589, 1020.610
507.0410, 1017.432
507.5231, 1016.196
508.0052, 1015.465
508.4873, 1014.533
508.9695, 1013.401
509.4516, 1012.306
509.9337, 1011.232
510.4158, 1010.222
510.8979, 1009.264
511.3800, 1008.384
511.8622, 1007.840
512.3443, 1007.987
512.8264, 1008.068
513.3085, 1006.476
513.7906, 1003.787
514.2728, 1002.058
514.7549, 1004.064
515.2370, 1006.492
515.7191, 1005.753
516.2012, 1001.378
516.6833, 998.3771
517.1655, 1000.394
517.6476, 1004.096
518.1297, 1006.638
518.6118, 1006.695
519.0939, 1006.489
519.5760, 1005.875
520.0582, 1005.255
520.5403, 1005.539
521.0224, 1007.084
521.5045, 1009.035
521.9866, 1011.302
522.4688, 1013.887
522.9509, 1015.944
523.4330, 1017.100
523.9151, 1018.592
524.3972, 1021.756
524.8793, 1026.624
525.3615, 1030.375
525.8436, 1032.536
526.3257, 1034.181
526.8078, 1037.068
527.2899, 1040.910
527.7720, 1044.292
528.2542, 1046.134
528.7363, 1047.574
529.2184, 1050.146
529.7005, 1053.717
530.1826, 1057.689
530.6647, 1063.066
531.1469, 1067.849
531.6290, 1069.778
532.1111, 1067.761
532.5932, 1066.785
533.0753, 1070.370
533.5574, 1075.336
534.0396, 1078.320
534.5217, 1077.148
535.0038, 1075.892
535.4859, 1075.188
535.9680, 1074.828
536.4501, 1074.270
536.9323, 1074.327
537.4144, 1072.757
537.8965, 1067.984
538.3786, 1059.886
538.8607, 1054.867
539.3428, 1053.766
539.8250, 1053.237
540.3071, 1049.896
540.7892, 1044.108
541.2713, 1039.069
541.7534, 1035.499
542.2355, 1032.222
542.7177, 1027.437
543.1998, 1021.515
543.6819, 1015.771
544.1640, 1011.315
544.6461, 1007.037
545.1282, 1001.223
545.6104, 994.3043
546.0925, 988.7670
546.5746, 987.6589
547.0567, 987.1599
547.5388, 984.2908
548.0209, 977.5255
548.5031, 972.2424
548.9852, 970.7740
549.4673, 970.7097
549.9494, 969.4573
550.4315, 965.6541
550.9136, 962.7450
551.3958, 961.5166
551.8779, 961.2823
552.3600, 959.8028
552.8421, 956.5160
553.3242, 953.9606
553.8063, 954.0274
554.2885, 956.0734
554.7706, 954.2815
555.2527, 948.3187
555.7348, 942.0791
556.2169, 938.9206
556.6990, 938.1377
557.1812, 938.0905
557.6633, 938.7855
558.1454, 939.1783
558.6275, 937.8662
559.1096, 935.6145
559.5917, 933.7365
560.0739, 933.4451
560.5560, 933.0411
561.0381, 931.1500
561.5202, 928.2631
562.0023, 926.4845
562.4844, 927.8109
562.9666, 929.0858
563.4487, 928.5737
563.9308, 925.6104
564.4129, 924.1221
564.8950, 924.8894
565.3771, 926.2625
565.8593, 926.9866
566.3414, 927.0502
566.8235, 926.3494
567.3056, 924.5791
567.7877, 922.4760
568.2698, 921.3649
568.7520, 921.2065
569.2341, 921.4943
569.7162, 922.5493
570.1983, 923.6044
570.6804, 923.1097
571.1625, 921.2233
571.6447, 918.9815
572.1268, 916.0663
572.6089, 913.7100
573.0910, 913.4334
573.5731, 915.6326
574.0552, 918.0735
574.5374, 920.6844
575.0195, 922.5991
575.5016, 923.0203
575.9837, 919.5636
576.4658, 917.3464
576.9479, 917.5350
577.4301, 919.0396
577.9122, 919.6999
578.3943, 918.9391
578.8764, 918.4229
579.3585, 918.5902
579.8406, 919.3666
580.3228, 920.5563
580.8049, 922.3199
581.2870, 923.4407
581.7691, 922.8430
582.2512, 920.8942
582.7333, 918.8920
583.2155, 916.8721
583.6975, 915.2943
584.1796, 914.8508
584.6617, 915.0693
585.1439, 915.1198
585.6260, 914.5956
586.1081, 914.2164
586.5902, 914.7523
587.0723, 915.7166
587.5544, 916.1571
588.0366, 915.0873
588.5187, 914.1668
589.0008, 913.9358
589.4829, 914.3721
589.9650, 914.8500
590.4471, 915.0306
590.9293, 915.6656
591.4114, 917.5733
591.8935, 921.2926
592.3756, 922.0076
592.8577, 918.9114
593.3398, 914.9672
593.8220, 913.3869
594.3041, 913.8720
594.7862, 914.0247
595.2683, 913.3221
595.7504, 912.4191
596.2325, 912.1120
596.7147, 912.2893
597.1968, 912.6446
597.6789, 913.4287
598.1610, 914.0409
598.6431, 913.7703
599.1252, 912.8555
599.6074, 912.3845
600.0895, 913.4489
600.5716, 914.4447
601.0537, 914.4563
601.5358, 913.1080
602.0179, 912.3124
602.5001, 912.8557
602.9822, 913.1915
603.4643, 911.8548
603.9464, 907.9832
604.4285, 905.9584
604.9106, 906.4550
605.3928, 908.0853
605.8749, 908.5577
606.3570, 908.0076
606.8391, 908.2709
607.3212, 910.3113
607.8033, 912.9233
608.2855, 914.5075
608.7676, 915.1189
609.2497, 915.0330
609.7318, 913.9569
610.2139, 912.5436
610.6960, 910.9650
611.1782, 909.2795
611.6603, 908.5706
612.1424, 910.0294
612.6245, 911.9875
613.1066, 913.5179
613.5887, 914.8458
614.0709, 915.0207
614.5530, 913.3036
615.0351, 911.1251
615.5172, 909.9374
615.9993, 909.8659
616.4814, 910.3232
616.9636, 911.4714
617.4457, 912.7398
617.9278, 913.0031
618.4099, 912.3117
618.8920, 911.2496
619.3741, 909.4748
619.8563, 907.8609
620.3384, 908.2361
620.8205, 910.1748
621.3026, 911.5815
621.7847, 910.4677
622.2668, 908.9129
622.7490, 908.5098
623.2311, 909.4851
623.7132, 910.6205
624.1953, 912.7194
624.6774, 914.1162
625.1595, 913.5101
625.6417, 908.9644
626.1238, 906.3887
626.6059, 906.7068
627.0880, 908.0452
627.5701, 907.5858
628.0522, 905.0170
628.5344, 903.8841
629.0165, 905.3438
629.4986, 908.0125
629.9807, 909.3943
630.4628, 909.6003
630.9449, 909.2424
631.4271, 907.6962
631.9092, 906.3209
632.3913, 907.1832
632.8734, 909.8664
633.3555, 911.7651
633.8376, 911.0362
634.3198, 909.5410
634.8019, 908.1959
635.2840, 906.9771
635.7661, 906.5172
636.2482, 907.2382
636.7303, 908.4235
637.2125, 909.7077
637.6946, 911.3871
638.1767, 912.2525
638.6588, 912.0354
639.1409, 911.4103
639.6230, 911.5098
640.1052, 912.2607
640.5873, 912.2955
641.0694, 910.8961
641.5515, 909.2817
642.0336, 909.6600
642.5157, 911.4083
642.9979, 912.7145
643.4800, 912.3404
643.9621, 911.4735
644.4442, 910.7039
644.9263, 910.0887
645.4084, 909.8762
645.8906, 910.4474
646.3727, 911.1858
646.8548, 911.9001
647.3369, 912.6408
647.8190, 912.8850
648.3011, 912.2153
648.7833, 911.6764
649.2654, 912.1791
649.7475, 913.8388
650.2296, 915.2244
650.7117, 916.2701
651.1938, 917.0025
651.6760, 917.5198
652.1581, 917.7451
652.6402, 917.2240
653.1223, 915.2368
653.6044, 913.7307
654.0865, 915.4360
654.5687, 918.7488
655.0508, 920.5972
655.5329, 918.1331
656.0150, 915.7694
656.4971, 915.4525
656.9792, 916.7553
657.4614, 917.2469
657.9435, 915.9431
658.4256, 915.0716
658.9077, 915.5765
659.3898, 917.3710
659.8719, 918.2975
660.3541, 918.2390
660.8362, 917.8535
661.3183, 917.4020
661.8004, 916.9841
662.2825, 917.0591
662.7646, 917.6778
663.2468, 918.3624
663.7289, 918.8527
664.2110, 919.1000
664.6931, 919.0109
665.1752, 918.4831
665.6573, 917.8626
666.1395, 917.1360
666.6216, 916.4735
667.1037, 916.0816
667.5858, 915.6621
668.0679, 916.0175
668.5500, 917.6445
669.0322, 919.8871
669.5143, 921.3564
669.9964, 922.0506
670.4785, 921.8698
670.9606, 920.1719
671.4427, 917.9935
671.9249, 918.7772
672.4070, 922.1571
672.8891, 925.2168
673.3712, 926.0201
673.8533, 925.6790
674.3354, 925.1448
674.8176, 924.5127
675.2997, 924.3112
675.7818, 925.5005
676.2639, 926.6843
676.7460, 926.8922
677.2281, 925.6868
677.7103, 924.7952
678.1924, 924.0334
678.6745, 923.8521
679.1566, 924.7738
679.6387, 927.1618
680.1208, 928.8928
680.6030, 929.7855
681.0851, 930.2311
681.5672, 930.6248
682.0493, 930.9866
682.5314, 931.4074
683.0135, 931.8320
683.4957, 932.4785
683.9778, 933.9865
684.4599, 935.8312
684.9420, 936.9775
685.4241, 936.0272
685.9063, 935.4133
686.3884, 936.7081
686.8705, 939.1672
687.3526, 940.1392
687.8347, 938.4821
688.3168, 936.8482
688.7990, 935.9163
689.2811, 935.6103
689.7632, 935.5319
690.2453, 935.7103
690.7274, 935.9540
691.2095, 936.3132
691.6917, 936.6373
692.1738, 936.0009
692.6559, 934.4811
693.1380, 933.9149
693.6201, 936.9631
694.1022, 940.8123
694.5844, 942.5113
695.0665, 941.3156
695.5486, 940.2985
696.0307, 940.2906
696.5128, 941.0088
696.9949, 942.3490
697.4771, 945.2800
697.9592, 946.6367
698.4413, 945.7280
698.9234, 944.1434
699.4055, 943.8670
699.8876, 944.9361
700.3698, 946.1899
700.8519, 947.7307
701.3340, 948.6075
701.8161, 946.4656
702.2982, 942.5867
702.7803, 940.2108
703.2625, 941.4551
703.7446, 943.4881
704.2267, 944.3268
704.7088, 944.5561
705.1909, 945.4602
705.6730, 948.2437
706.1552, 950.7266
706.6373, 952.4004
707.1194, 953.3400
707.6015, 953.6634
708.0836, 952.7789
708.5657, 953.0468
709.0479, 955.7867
709.5300, 960.3976
710.0121, 964.7483
710.4942, 968.8099
710.9763, 971.7737
711.4584, 972.4502
711.9406, 972.1046
712.4227, 972.4642
712.9048, 973.5955
713.3869, 974.2145
713.8690, 973.4391
714.3511, 972.1518
714.8333, 970.8251
715.3154, 969.3649
715.7975, 968.5462
716.2796, 968.9279
716.7617, 969.3073
717.2438, 968.6542
717.7260, 966.8809
718.2081, 965.1400
718.6902, 963.4335
719.1723, 962.1288
719.6544, 961.7189
720.1365, 962.0622
720.6187, 962.9456
721.1008, 964.5912
721.5829, 965.9254
722.0650, 965.4973
722.5471, 964.4770
723.0292, 964.4311
723.5114, 966.5576
723.9935, 968.7431
724.4756, 971.0234
724.9577, 973.0305
725.4398, 973.9039
725.9219, 972.8507
726.4041, 973.1583
726.8862, 975.8918
727.3683, 980.0204
727.8504, 982.8300
728.3325, 984.5446
728.8146, 986.7521
729.2968, 990.8860
729.7789, 995.2257
730.2610, 997.7579
730.7431, 998.8302
731.2252, 999.5969
731.7073, 999.8637
732.1895, 1000.600
732.6716, 1002.476
733.1537, 1005.420
733.6358, 1008.050
734.1179, 1010.762
734.6000, 1012.471
735.0822, 1011.953
735.5643, 1009.700
736.0464, 1011.487
736.5285, 1017.554
737.0106, 1023.051
737.4927, 1024.154
737.9749, 1022.546
738.4570, 1020.507
738.9391, 1018.237
739.4212, 1016.906
739.9033, 1018.462
740.3854, 1020.316
740.8676, 1020.429
741.3497, 1017.984
741.8318, 1016.104
742.3139, 1014.949
742.7960, 1014.405
743.2781, 1014.640
743.7603, 1015.906
744.2424, 1015.959
744.7245, 1014.487
745.2066, 1012.896
745.6887, 1013.151
746.1708, 1014.415
746.6530, 1014.212
747.1351, 1011.813
747.6172, 1009.633
748.0993, 1009.667
748.5814, 1010.816
749.0635, 1011.810
749.5457, 1011.609
750.0278, 1012.489
750.5099, 1015.116
750.9920, 1018.646
751.4741, 1022.492
751.9562, 1027.147
752.4384, 1029.486
752.9205, 1028.426
753.4026, 1026.195
753.8847, 1026.590
754.3668, 1028.952
754.8489, 1030.635
755.3311, 1030.515
755.8132, 1030.030
756.2953, 1030.089
756.7774, 1030.732
757.2595, 1032.024
757.7416, 1035.081
758.2238, 1037.542
758.7059, 1038.830
759.1880, 1039.242
759.6701, 1039.104
760.1522, 1037.877
760.6343, 1037.987
761.1165, 1040.398
761.5986, 1044.198
762.0807, 1047.418
762.5628, 1050.077
763.0449, 1052.239
763.5270, 1053.419
764.0092, 1054.565
764.4913, 1056.981
764.9734, 1060.160
765.4555, 1062.575
765.9376, 1062.233
766.4197, 1062.506
766.9019, 1065.035
767.3840, 1069.239
767.8661, 1072.424
768.3482, 1074.194
768.8303, 1076.086
769.3124, 1078.948
769.7946, 1082.283
770.2767, 1084.116
770.7588, 1084.623
771.2409, 1085.444
771.7230, 1087.471
772.2051, 1090.371
772.6873, 1094.167
773.1694, 1098.721
773.6515, 1102.993
774.1336, 1106.335
774.6157, 1109.647
775.0978, 1113.298
775.5800, 1117.288
776.0621, 1121.253
776.5442, 1124.774
777.0263, 1129.537
777.5084, 1137.703
777.9905, 1147.993
778.4727, 1153.387
778.9548, 1154.139
779.4369, 1154.867
779.9190, 1158.351
780.4011, 1163.732
780.8832, 1170.805
781.3654, 1179.428
781.8475, 1187.534
782.3296, 1194.066
782.8117, 1200.226
783.2938, 1206.418
783.7759, 1212.520
784.2581, 1220.236
784.7402, 1229.793
785.2223, 1240.160
785.7044, 1250.910
786.1865, 1261.938
786.6686, 1273.249
787.1508, 1284.896
787.6329, 1296.527
788.1150, 1306.548
788.5971, 1317.524
789.0792, 1332.057
789.5613, 1350.958
790.0435, 1369.957
790.5256, 1387.226
791.0077, 1405.187
791.4898, 1425.170
791.9719, 1446.983
792.4540, 1471.465
792.9362, 1498.804
793.4183, 1526.202
793.9004, 1549.145
794.3825, 1570.209
794.8646, 1596.499
795.3467, 1628.787
795.8289, 1662.595
796.3110, 1693.516
796.7931, 1725.049
797.2752, 1759.627
797.7573, 1798.299
798.2394, 1838.383
798.7216, 1879.442
799.2037, 1921.985
799.6858, 1965.727
800.1679, 2010.642
800.6500, 2058.591
801.1321, 2110.435
801.6143, 2163.989
802.0964, 2217.550
802.5785, 2271.292
803.0606, 2325.721
803.5427, 2380.704
804.0248, 2438.805
804.5070, 2501.099
804.9891, 2568.039
805.4712, 2640.034
805.9533, 2718.923
806.4354, 2799.362
806.9175, 2879.073
807.3997, 2963.460
807.8818, 3057.423
808.3639, 3160.068
808.8460, 3265.562
809.3281, 3373.513
809.8102, 3486.498
810.2924, 3607.357
810.7745, 3734.452
811.2566, 3866.114
811.7387, 4000.974
812.2208, 4140.491
812.7029, 4283.630
813.1851, 4432.797
813.6672, 4591.531
814.1493, 4763.335
814.6314, 4929.240
815.1135, 5087.466
815.5956, 5240.981
816.0778, 5394.155
816.5599, 5543.987
817.0420, 5675.687
817.5241, 5788.904
818.0062, 5877.911
818.4883, 5943.153
818.9705, 5980.456
819.4526, 5985.386
819.9347, 5957.293
820.4168, 5898.397
820.8989, 5800.735
821.3810, 5678.716
821.8632, 5534.997
822.3453, 5367.673
822.8274, 5195.458
823.3095, 5020.554
823.7916, 4845.423
824.2737, 4669.999
824.7559, 4499.141
825.2380, 4343.244
825.7201, 4204.208
826.2022, 4077.794
826.6843, 3964.871
827.1664, 3862.831
827.6486, 3769.388
828.1307, 3683.310
828.6128, 3612.855
829.0949, 3559.535
829.5770, 3518.149
830.0591, 3485.417
830.5413, 3461.642
831.0234, 3449.035
831.5055, 3447.541
831.9876, 3454.776
832.4697, 3469.274
832.9518, 3491.434
833.4340, 3521.659
833.9161, 3559.985
834.3982, 3607.402
834.8803, 3668.573
835.3624, 3735.008
835.8445, 3802.715
836.3267, 3871.505
836.8088, 3945.427
837.2909, 4024.820
837.7730, 4106.293
838.2551, 4187.863
838.7372, 4270.224
839.2194, 4355.683
839.7015, 4443.824
840.1836, 4532.151
840.6657, 4620.087
841.1478, 4707.024
841.6299, 4795.383
842.1121, 4883.669
842.5942, 4957.481
843.0763, 5016.486
843.5584, 5062.683
844.0405, 5098.454
844.5226, 5121.269
845.0048, 5122.937
845.4869, 5103.204
845.9690, 5058.384
846.4511, 4983.893
846.9332, 4886.377
847.4153, 4767.893
847.8975, 4632.136
848.3796, 4489.485
848.8617, 4340.979
849.3438, 4188.277
849.8259, 4030.225
850.3080, 3869.835
850.7902, 3715.548
851.2723, 3568.988
851.7544, 3426.531
852.2365, 3286.793
852.7186, 3151.512
853.2007, 3022.997
853.6829, 2901.499
854.1650, 2786.673
854.6471, 2677.258
855.1292, 2574.452
855.6113, 2479.365
856.0934, 2391.544
856.5756, 2308.333
857.0577, 2229.545
857.5398, 2154.012
858.0219, 2079.811
858.5040, 2009.439
858.9861, 1948.453
859.4683, 1895.775
859.9504, 1847.090
860.4325, 1802.123
860.9146, 1759.946
861.3967, 1720.317
861.8788, 1683.473
862.3610, 1649.244
862.8431, 1618.067
863.3252, 1589.491
863.8073, 1563.530
864.2894, 1540.037
864.7715, 1519.498
865.2537, 1502.033
865.7358, 1485.057
866.2179, 1467.941
866.7000, 1453.464
867.1821, 1446.666
867.6642, 1443.293
868.1464, 1436.597
868.6285, 1424.683
869.1106, 1415.252
869.5927, 1410.773
870.0748, 1410.229
870.5569, 1413.105
871.0391, 1419.775
871.5212, 1426.611
872.0033, 1433.144
872.4854, 1441.456
872.9675, 1452.859
873.4496, 1467.157
873.9318, 1483.422
874.4139, 1501.677
874.8960, 1522.784
875.3781, 1548.030
875.8602, 1575.593
876.3423, 1603.861
876.8245, 1632.753
877.3066, 1665.230
877.7887, 1701.354
878.2708, 1741.069
878.7529, 1784.535
879.2350, 1831.403
879.7172, 1882.161
880.1993, 1936.024
880.6814, 1991.628
881.1635, 2047.972
881.6456, 2105.951
882.1277, 2165.706
882.6099, 2227.605
883.0920, 2292.781
883.5741, 2366.698
884.0562, 2436.854
884.5383, 2502.143
885.0204, 2562.942
885.5026, 2621.326
885.9847, 2676.858
886.4668, 2724.522
886.9489, 2764.199
887.4310, 2792.326
887.9131, 2806.589
888.3953, 2805.902
888.8774, 2788.659
889.3595, 2752.832
889.8416, 2702.141
890.3237, 2633.551
890.8058, 2554.203
891.2880, 2468.751
891.7701, 2377.179
892.2522, 2283.738
892.7343, 2187.689
893.2164, 2093.799
893.6985, 2005.594
894.1807, 1923.536
894.6628, 1846.486
895.1449, 1774.601
895.6270, 1709.138
896.1091, 1651.359
896.5912, 1599.143
897.0734, 1550.365
897.5555, 1505.389
898.0376, 1464.528
898.5197, 1428.401
899.0018, 1394.713
899.4839, 1361.820
899.9661, 1330.733
900.4482, 1303.615
900.9303, 1280.074
901.4124, 1258.944
901.8945, 1240.196
902.3766, 1222.869
902.8588, 1206.196
903.3409, 1190.443
903.8230, 1176.381
904.3051, 1164.074
904.7872, 1152.690
905.2693, 1141.807
905.7515, 1131.615
906.2336, 1122.805
906.7157, 1114.955
907.1978, 1106.836
907.6799, 1097.174
908.1620, 1088.138
908.6442, 1080.500
909.1263, 1074.171
909.6084, 1069.027
910.0905, 1065.956
910.5726, 1061.460
911.0547, 1054.721
911.5369, 1047.559
912.0190, 1042.547
912.5011, 1039.036
912.9832, 1035.325
913.4653, 1031.198
913.9474, 1026.342
914.4296, 1018.810
914.9117, 1011.621
915.3938, 1007.848
915.8759, 1008.816
916.3580, 1007.830
916.8401, 1004.284
917.3223, 1000.234
917.8044, 997.0056
918.2865, 994.4418
918.7686, 991.8907
919.2507, 989.3600
919.7328, 986.9488
920.2150, 985.0762
920.6971, 983.0424
921.1792, 980.2440
921.6613, 976.7844
922.1434, 973.6362
922.6255, 970.8933
923.1077, 968.2524
923.5898, 965.4984
924.0719, 962.9310
924.5540, 961.2753
925.0361, 960.3809
925.5182, 959.7529
926.0004, 959.6005
926.4825, 958.9431
926.9646, 956.7234
927.4467, 953.7238
927.9288, 951.1336
928.4109, 948.8517
928.8931, 947.4509
929.3752, 947.4196
929.8573, 947.3492
930.3394, 945.5584
930.8215, 942.3912
931.3036, 938.8004
931.7858, 934.8504
932.2679, 931.2870
932.7500, 928.9096
933.2321, 926.9065
933.7142, 924.5287
934.1964, 921.6495
934.6785, 919.4006
935.1606, 918.2108
935.6427, 916.6269
936.1248, 913.2720
936.6069, 909.1181
937.0891, 908.3378
937.5712, 910.2092
938.0533, 911.1823
938.5354, 908.1611
939.0175, 904.8190
939.4996, 903.5109
939.9818, 903.4824
940.4639, 902.4127
940.9460, 899.5244
941.4281, 897.5193
941.9102, 897.1049
942.3923, 897.3211
942.8745, 896.0940
943.3566, 894.2156
943.8387, 894.3830
944.3208, 897.9472
944.8029, 900.9869
945.2850, 900.5726
945.7672, 899.0671
946.2493, 898.7719
946.7314, 900.2032
947.2135, 901.0193
947.6956, 901.0684
948.1777, 901.0515
948.6599, 901.7953
949.1420, 902.8041
949.6241, 902.5851
950.1062, 901.2820
950.5883, 900.3224
951.0704, 900.4991
951.5526, 901.1725
952.0347, 902.6969
952.5168, 904.5051
952.9989, 904.1195
953.4810, 900.9117
953.9631, 898.5463
954.4453, 898.3292
954.9274, 899.0134
955.4095, 898.5643
955.8916, 897.4347
956.3737, 896.6213
956.8558, 896.7775
957.3380, 896.6652
957.8201, 895.4797
958.3022, 894.1055
958.7843, 893.4533
959.2664, 893.7496
959.7485, 893.5532
960.2307, 892.8310
960.7128, 891.5938
961.1949, 889.1457
961.6770, 886.5426
962.1591, 885.3496
962.6412, 885.6158
963.1234, 886.4241
963.6055, 888.1211
964.0876, 889.5571
964.5697, 890.3845
965.0518, 890.6182
965.5339, 890.4405
966.0161, 889.8373
966.4982, 888.3069
966.9803, 884.7457
967.4624, 881.6536
967.9445, 882.9407
968.4266, 886.3903
968.9088, 888.3184
969.3909, 886.5320
969.8730, 884.8681
970.3551, 883.6830
970.8372, 882.6064
971.3193, 881.1086
971.8015, 879.2911
972.2836, 878.0392
972.7657, 877.4545
973.2478, 876.7950
973.7299, 875.3991
974.2120, 873.7408
974.6942, 871.8890
975.1763, 869.8907
975.6584, 869.3176
976.1405, 870.9135
976.6226, 872.4130
977.1047, 873.0624
977.5869, 872.9815
978.0690, 872.1370
978.5511, 870.7783
979.0332, 869.8765
979.5153, 870.3582
979.9974, 870.5771
980.4796, 869.5383
980.9617, 867.7363
981.4438, 865.7910
981.9259, 863.3129
982.4080, 862.0677
982.8901, 862.3773
983.3723, 863.0060
983.8544, 862.9180
984.3365, 862.2068
984.8186, 860.8284
985.3007, 858.8127
985.7828, 857.0529
986.2650, 855.2559
986.7471, 854.5889
987.2292, 855.9832
987.7113, 858.8870
988.1934, 860.3523
988.6755, 860.3223
989.1577, 859.9875
989.6398, 859.8192
990.1219, 859.5045
990.6040, 858.2953
991.0861, 856.7657
991.5682, 855.8943
992.0504, 856.2248
992.5325, 856.9342
993.0146, 858.6407
993.4967, 859.7913
993.9788, 858.5109
994.4609, 855.1442
994.9431, 852.6267
995.4252, 851.1110
995.9073, 850.1445
996.3894, 849.8793
996.8715, 849.6152
997.3536, 848.7411
997.8358, 847.2896
998.3179, 845.9639
998.8000, 844.6110
999.2821, 843.8741
999.7642, 844.0917
1000.246, 844.8021
1000.728, 845.0974
1001.211, 845.1208
1001.693, 845.2516
1002.175, 845.7474
1002.657, 846.0670
1003.139, 845.9987
1003.621, 845.6199
1004.103, 844.9580
1004.585, 843.9174
1005.068, 843.2022
1005.550, 842.8411
1006.032, 842.3922
1006.514, 841.2280
1006.996, 839.9451
1007.478, 839.3202
1007.960, 839.2753
1008.442, 839.2493
1008.924, 839.1303
1009.407, 838.9113
1009.889, 838.5074
1010.371, 838.0700
1010.853, 838.0752
1011.335, 838.4096
1011.817, 838.3527
1012.299, 837.7936
1012.781, 836.6647
1013.263, 834.0886
1013.746, 831.4636
1014.228, 830.2222
1014.710, 830.6721
1015.192, 831.5135
1015.674, 832.9365
1016.156, 834.1622
1016.638, 834.6667
1017.120, 834.6745
1017.603, 834.4571
1018.085, 834.1259
1018.567, 834.1069
1019.049, 835.4320
1019.531, 835.9781
1020.013, 834.1608
1020.495, 831.8127
1020.977, 832.0334
1021.459, 834.8982
1021.942, 836.2021
1022.424, 835.2592
1022.906, 833.9400
1023.388, 834.1884
1023.870, 834.8146
1024.352, 834.5289
1024.834, 833.1309
1025.316, 832.1266
1025.799, 831.9559
1026.281, 831.5010
1026.763, 830.0417
1027.245, 828.2617
1027.727, 827.9692
1028.209, 828.8563
1028.691, 829.9656
1029.173, 831.8480
1029.656, 832.3931
1030.138, 828.5834
1030.620, 824.2209
1031.102, 823.6282
1031.584, 827.8033
1032.066, 829.8909
1032.548, 829.5862
1033.030, 828.7526
1033.512, 828.5868
1033.995, 828.9750
1034.477, 830.4775
1034.959, 832.6858
1035.441, 833.1116
1035.923, 829.7506
1036.405, 826.6561
1036.887, 824.4662
1037.369, 823.1345
1037.851, 822.9144
1038.334, 823.4937
1038.816, 823.5739
1039.298, 822.7534
1039.780, 821.9548
1040.262, 821.8129
1040.744, 821.8822
1041.226, 821.8063
1041.708, 821.5696
1042.191, 821.5579
1042.673, 821.8671
1043.155, 821.5915
1043.637, 819.7181
1044.119, 817.4307
1044.601, 816.1441
1045.083, 815.7385
1045.565, 815.9825
1046.047, 817.6183
1046.530, 818.6937
1047.012, 818.8332
1047.494, 818.6737
1047.976, 818.9983
1048.458, 819.6631
1048.940, 820.0170
1049.422, 820.0057
1049.904, 819.5915
1050.386, 818.0744
1050.869, 816.7654
1051.351, 816.7196
1051.833, 817.5885
1052.315, 818.0812
1052.797, 818.2245
1053.279, 817.5268
1053.761, 815.4078
1054.243, 813.5710
1054.726, 815.0750
1055.208, 817.8409
1055.690, 818.7180
1056.172, 816.0634
1056.654, 814.8978
1057.136, 816.3691
1057.618, 817.9958
1058.100, 818.4630
1058.583, 817.8671
1059.065, 816.1205
1059.547, 813.5184
1060.029, 811.4058
1060.511, 810.8126
1060.993, 810.5256
1061.475, 810.0837
1061.957, 809.6523
1062.439, 809.5485
1062.922, 809.8597
1063.404, 809.8073
1063.886, 809.3549
1064.368, 808.3228
1064.850, 805.6895
1065.332, 803.0061
1065.814, 802.1423
1066.296, 803.0486
1066.778, 803.2463
1067.261, 802.0132
1067.743, 801.2252
1068.225, 801.5253
1068.707, 802.2203
1069.189, 801.4681
1069.671, 800.1759
1070.153, 801.0024
1070.635, 805.6359
1071.118, 808.3789
1071.600, 804.8057
1072.082, 800.6041
1072.564, 798.9832
1073.046, 799.7635
1073.528, 800.5814
1074.010, 801.4474
1074.492, 802.4827
1074.974, 804.4371
1075.457, 805.8108
1075.939, 804.9874
1076.421, 802.9997
1076.903, 801.5744
1077.385, 800.8752
1077.867, 800.5914
1078.349, 800.8083
1078.831, 800.9859
1079.313, 799.9423
1079.796, 798.8964
1080.278, 800.5027
1080.760, 804.2993
1081.242, 806.3590
1081.724, 803.5483
1082.206, 801.4272
1082.688, 801.5325
1083.170, 802.3661
1083.652, 800.7955
1084.135, 797.5311
1084.617, 795.3103
1085.099, 794.7112
1085.581, 794.7129
1086.063, 795.3401
1086.545, 795.8090
1087.027, 795.5102
1087.509, 794.5588
1087.992, 794.1302
1088.474, 794.2303
1088.956, 794.4966
1089.438, 795.0245
1089.920, 795.2300
1090.402, 793.8474
1090.884, 792.0879
1091.366, 791.7349
1091.849, 793.7766
1092.331, 795.2227
1092.813, 796.1156
1093.295, 796.2684
1093.777, 795.1917
1094.259, 793.4455
1094.741, 791.6670
1095.223, 790.0783
1095.705, 789.4061
1096.188, 790.9433
1096.670, 792.0280
1097.152, 792.1888
1097.634, 791.7698
1098.116, 791.0331
1098.598, 790.0758
1099.080, 789.4374
1099.562, 789.1586
1100.044, 788.8698
1100.527, 788.4267
1101.009, 787.8331
1101.491, 786.9587
1101.973, 785.9784
1102.455, 785.5027
1102.937, 785.5446
1103.419, 785.5215
1103.901, 785.2482
1104.384, 785.0832
1104.866, 785.6423
1105.348, 786.3165
1105.830, 786.5770
1106.312, 786.3800
1106.794, 785.3063
1107.276, 783.0547
1107.758, 781.0859
1108.240, 780.0918
1108.723, 779.6898
1109.205, 779.2394
1109.687, 778.8879
1110.169, 778.9874
1110.651, 780.7478
1111.133, 780.6439
1111.615, 777.4309
1112.097, 774.2111
1112.579, 773.7121
1113.062, 775.1089
1113.544, 775.5332
1114.026, 775.1409
1114.508, 774.8032
1114.990, 775.6935
1115.472, 775.7272
1115.954, 773.6063
1116.436, 770.8763
1116.919, 769.5047
1117.401, 769.4158
1117.883, 769.8018
1118.365, 770.6004
1118.847, 771.0602
1119.329, 770.2885
1119.811, 769.3386
1120.293, 769.0842
1120.776, 769.2254
1121.258, 768.6049
1121.740, 767.1238
1122.222, 765.6897
1122.704, 764.3817
1123.186, 763.5881
1123.668, 764.0510
1124.150, 764.9758
1124.632, 765.4737
1125.115, 765.3758
1125.597, 765.8623
1126.079, 767.5909
1126.561, 767.5052
1127.043, 763.4238
1127.525, 758.5833
1128.007, 759.4105
1128.489, 762.9404
1128.971, 763.8372
1129.454, 759.2550
1129.936, 756.4188
1130.418, 756.7651
1130.900, 757.4760
1131.382, 756.6826
1131.864, 755.0225
1132.346, 754.4426
1132.828, 754.6812
1133.311, 754.8793
1133.793, 753.8508
1134.275, 753.8862
1134.757, 756.5502
1135.239, 759.2526
1135.721, 759.2438
1136.203, 756.8750
1136.685, 755.0467
1137.167, 753.8481
1137.650, 753.4118
1138.132, 754.0544
1138.614, 755.2033
1139.096, 757.8300
1139.578, 760.2029
1140.060, 758.7715
1140.542, 753.4132
1141.024, 750.5270
1141.506, 750.8658
1141.989, 752.2628
1142.471, 754.2449
1142.953, 755.5384
1143.435, 754.5785
1143.917, 751.9606
1144.399, 750.7283
1144.881, 751.1133
1145.363, 751.4075
1145.846, 751.2479
1146.328, 750.8215
1146.810, 750.6364
1147.292, 750.0850
1147.774, 747.8862
1148.256, 743.7068
1148.738, 742.5682
1149.220, 745.5612
1149.703, 747.7410
1150.185, 746.9704
1150.667, 745.3563
1151.149, 746.6415
1151.631, 748.9896
1152.113, 749.2971
1152.595, 746.1121
1153.077, 743.6123
1153.559, 741.7311
1154.042, 741.4742
1154.524, 744.4749
1155.006, 748.5258
1155.488, 747.9023
1155.970, 744.3899
1156.452, 742.4395
1156.934, 745.6288
1157.416, 746.3405
1157.898, 742.4836
1158.381, 738.1141
1158.863, 736.1656
1159.345, 736.2362
1159.827, 737.2891
1160.309, 739.0077
1160.791, 740.0994
1161.273, 739.1392
1161.755, 738.5844
1162.238, 739.4449
1162.720, 740.4912
1163.202, 740.2277
1163.684, 738.9057
1164.166, 738.3870
1164.648, 738.6234
1165.130, 738.4041
1165.612, 736.2734
1166.094, 734.4217
1166.577, 733.9390
1167.059, 734.1971
1167.541, 734.3089
1168.023, 734.3013
1168.505, 734.5099
1168.987, 734.9800
1169.469, 735.1882
1169.951, 734.2437
1170.433, 733.4557
1170.916, 733.9288
1171.398, 735.0770
1171.880, 735.4759
1172.362, 735.1328
1172.844, 734.4592
1173.326, 733.4776
1173.808, 732.5831
1174.290, 731.9399
1174.773, 731.6526
1175.255, 732.1956
1175.737, 733.2471
1176.219, 732.9398
1176.701, 731.1867
1177.183, 729.8954
1177.665, 729.6488
1178.147, 729.7628
1178.630, 729.8746
1179.112, 729.8255
1179.594, 729.4129
1180.076, 728.6437
1180.558, 727.6389
1181.040, 726.2824
1181.522, 725.9094
1182.004, 727.4460
1182.486, 729.2695
1182.969, 729.8832
1183.451, 729.6241
1183.933, 728.6223
1184.415, 726.6086
1184.897, 726.1534
1185.379, 727.6090
1185.861, 728.1967
1186.343, 725.5598
1186.825, 722.5978
1187.308, 723.3886
1187.790, 725.9516
1188.272, 727.1107
1188.754, 725.8164
1189.236, 724.9297
1189.718, 724.4479
1190.200, 724.4583
1190.682, 725.6494
1191.165, 726.8587
1191.647, 726.5021
1192.129, 725.0515
1192.611, 723.3766
1193.093, 721.2444
1193.575, 719.8959
1194.057, 719.4583
1194.539, 719.3578
1195.021, 718.7916
1195.504, 718.5225
1195.986, 720.6328
1196.468, 719.5053
1196.950, 724.5150
1197.432, 719.6173
1197.914, 717.2985
1198.396, 718.5177
1198.878, 720.5998
1199.360, 721.2053
1199.843, 720.9612
1200.325, 720.8797
1200.807, 720.7933
1201.289, 719.7191
1201.771, 716.5234
1202.253, 714.6221
1202.735, 714.4932
1203.217, 715.4615
1203.700, 717.8222
1204.182, 720.1913
1204.664, 720.0019
1205.146, 717.5964
1205.628, 716.3572
1206.110, 717.3857
1206.592, 718.2347
1207.074, 718.5709
1207.557, 718.4158
1208.039, 717.1475
1208.521, 715.7568
1209.003, 716.2108
1209.485, 715.3505
1209.967, 714.7086
1210.449, 715.9036
1210.931, 714.5720
1211.413, 716.5790
1211.896, 719.2335
1212.378, 718.4603
1212.860, 716.2612
1213.342, 716.0391
1213.824, 718.1660
1214.306, 718.0313
1214.788, 714.3880
1215.270, 710.8202
1215.752, 708.1129
1216.235, 706.3123
1216.717, 705.6918
1217.199, 705.9006
1217.681, 706.7022
1218.163, 708.1542
1218.645, 708.4868
1219.127, 707.1258
1219.609, 706.0893
1220.092, 705.9327
1220.574, 706.5721
1221.056, 708.9918
1221.538, 711.5719
1222.020, 711.4633
1222.502, 707.6555
1222.984, 706.0905
1223.466, 707.6356
1223.948, 709.2852
1224.431, 710.1231
1224.913, 710.1458
1225.395, 708.8419
1225.877, 706.9677
1226.359, 705.6647
1226.841, 705.3632
1227.323, 703.9073
1227.805, 700.5904
1228.287, 699.1957
1228.770, 702.2659
1229.252, 706.2558
1229.734, 706.1921
1230.216, 704.0345
1230.698, 702.3107
1231.180, 701.4199
1231.662, 701.0094
1232.144, 701.2180
1232.627, 701.1061
1233.109, 700.1116
1233.591, 698.8351
1234.073, 697.9847
1234.555, 697.3060
1235.037, 696.3185
1235.519, 694.7938
1236.001, 694.3882
1236.484, 695.2499
1236.966, 696.0583
1237.448, 696.3900
1237.930, 696.0109
1238.412, 693.7264
1238.894, 691.0616
1239.376, 690.4482
1239.858, 692.3939
1240.340, 692.3024
1240.823, 690.0289
1241.305, 688.7376
1241.787, 690.9516
1242.269, 693.5974
1242.751, 693.7369
1243.233, 692.9500
1243.715, 693.3962
1244.197, 695.3551
1244.679, 695.8533
1245.162, 694.9211
1245.644, 693.7369
1246.126, 692.6127
1246.608, 691.8925
1247.090, 692.7834
1247.572, 693.5121
1248.054, 691.5927
1248.536, 686.8073
1249.019, 686.2966
1249.501, 689.6373
1249.983, 692.1213
1250.465, 690.2953
1250.947, 688.0170
1251.429, 687.2897
1251.911, 687.0048
1252.393, 685.9191
1252.875, 684.1270
1253.358, 683.8356
1253.840, 684.8640
1254.322, 686.0548
1254.804, 687.0778
1255.286, 687.7640
1255.768, 687.7369
1256.250, 687.6795
1256.732, 688.6133
1257.214, 690.1180
1257.697, 688.8599
1258.179, 685.5534
1258.661, 683.5031
1259.143, 686.3326
1259.625, 687.3772
1260.107, 684.4349
1260.589, 681.0750
1261.071, 680.6224
1261.554, 682.1002
1262.036, 682.4916
1262.518, 682.0264
1263.000, 681.6042
1263.482, 681.7422
1263.964, 681.5789
1264.446, 680.8898
1264.928, 680.2108
1265.411, 680.2997
1265.893, 680.5417
1266.375, 679.2536
1266.857, 677.1479
1267.339, 676.1899
1267.821, 677.7941
1268.303, 679.0418
1268.785, 679.9229
1269.267, 680.3177
1269.750, 679.8801
1270.232, 679.1035
1270.714, 678.4874
1271.196, 678.0563
1271.678, 677.9296
1272.160, 678.4219
1272.642, 677.9567
1273.124, 676.3350
1273.606, 675.0750
1274.089, 675.4348
1274.571, 676.4625
1275.053, 677.9569
1275.535, 679.2272
1276.017, 679.0403
1276.499, 677.0777
1276.981, 675.4811
1277.463, 674.3115
1277.946, 674.4649
1278.428, 678.2110
1278.910, 681.6154
1279.392, 682.0811
1279.874, 680.8935
1280.356, 679.3611
1280.838, 677.5287
1281.320, 676.1873
1281.802, 675.2975
1282.285, 674.3588
1282.767, 672.8750
1283.249, 671.5514
1283.731, 670.3922
1284.213, 669.7466
1284.695, 670.2213
1285.177, 671.5040
1285.659, 672.3007
1286.141, 672.5687
1286.624, 672.1949
1287.106, 670.1850
1287.588, 668.9989
1288.070, 669.2206
1288.552, 669.7009
1289.034, 669.4771
1289.516, 668.8415
1289.998, 667.9481
1290.481, 667.2406
1290.963, 667.8745
1291.445, 672.3244
1291.927, 673.9733
1292.409, 672.1614
1292.891, 670.0587
1293.373, 670.4308
1293.855, 671.4073
1294.338, 670.4335
1294.820, 668.3633
1295.302, 666.8210
1295.784, 665.9846
1296.266, 665.2607
1296.748, 664.6202
1297.230, 664.6146
1297.712, 666.0938
1298.194, 667.7288
1298.677, 668.8361
1299.159, 669.1729
1299.641, 668.3134
1300.123, 666.1969
1300.605, 665.0274
1301.087, 664.7244
1301.569, 664.6495
1302.051, 665.2051
1302.533, 664.6327
1303.016, 662.2403
##END=



