##NAMES=Adamite
##RRUFFID=R040130
##IDEAL CHEMISTRY=Zn^2+^_2_As^5+^O_4_(OH)
##LOCALITY=Mina Ojuela, Mapimi, Durango, Mexico
##OWNER=RRUFF
##SOURCE=Bob Downs
##DESCRIPTION=Pale yellow spherical aggregate of bladed crystals
##STATUS=The identification of this mineral has been confirmed by X-ray diffraction and chemical analysis
##URL=rruff.info/R040130
##MEASURED CHEMISTRY=Zn_1.97_(As_1.01_O_4_)(OH)
134.7162, 8595.391
135.1983, 8834.937
135.6804, 9079.439
136.1626, 9336.593
136.6447, 9584.360
137.1268, 9777.060
137.6089, 9906.229
138.0910, 10004.66
138.5731, 10085.34
139.0553, 10149.81
139.5374, 10192.99
140.0195, 10208.96
140.5016, 10204.10
140.9837, 10201.05
141.4658, 10197.07
141.9480, 10199.14
142.4301, 10214.34
142.9122, 10253.68
143.3943, 10282.04
143.8764, 10289.64
144.3585, 10277.12
144.8407, 10280.58
145.3228, 10304.89
145.8049, 10341.52
146.2870, 10382.01
146.7691, 10417.06
147.2512, 10467.34
147.7334, 10537.72
148.2155, 10632.08
148.6976, 10732.25
149.1797, 10834.20
149.6618, 10943.47
150.1439, 11066.24
150.6261, 11215.91
151.1082, 11365.63
151.5903, 11507.79
152.0724, 11640.05
152.5545, 11768.80
153.0366, 11898.99
153.5188, 12025.14
154.0009, 12135.97
154.4830, 12231.53
154.9651, 12311.35
155.4472, 12375.73
155.9293, 12419.57
156.4115, 12455.39
156.8936, 12480.23
157.3757, 12497.67
157.8578, 12520.38
158.3399, 12561.78
158.8221, 12603.96
159.3042, 12635.65
159.7863, 12645.58
160.2684, 12652.96
160.7505, 12660.55
161.2326, 12669.23
161.7148, 12685.32
162.1969, 12707.29
162.6790, 12739.74
163.1611, 12786.67
163.6432, 12867.55
164.1253, 12949.19
164.6075, 13008.57
165.0896, 13044.68
165.5717, 13088.94
166.0538, 13166.44
166.5359, 13261.91
167.0180, 13353.56
167.5002, 13432.68
167.9823, 13505.17
168.4644, 13575.45
168.9465, 13644.02
169.4286, 13709.03
169.9107, 13768.12
170.3929, 13822.32
170.8750, 13875.38
171.3571, 13934.92
171.8392, 13991.16
172.3213, 14033.96
172.8034, 14061.62
173.2856, 14075.74
173.7677, 14073.89
174.2498, 14058.35
174.7319, 14037.14
175.2140, 14006.22
175.6961, 13974.69
176.1783, 13958.76
176.6604, 13966.92
177.1425, 13981.81
177.6246, 13978.60
178.1067, 13960.42
178.5888, 13947.48
179.0710, 13959.74
179.5531, 13988.09
180.0352, 14011.74
180.5173, 14022.29
180.9994, 14029.18
181.4815, 14049.69
181.9637, 14083.59
182.4458, 14117.70
182.9279, 14138.65
183.4100, 14149.98
183.8921, 14165.17
184.3742, 14187.17
184.8564, 14215.94
185.3385, 14252.98
185.8206, 14299.20
186.3027, 14346.65
186.7848, 14386.06
187.2669, 14418.68
187.7491, 14455.52
188.2312, 14501.96
188.7133, 14555.45
189.1954, 14607.66
189.6775, 14658.07
190.1596, 14708.19
190.6418, 14766.04
191.1239, 14830.82
191.6060, 14881.44
192.0881, 14895.01
192.5702, 14878.87
193.0524, 14900.91
193.5345, 14966.78
194.0166, 15055.71
194.4987, 15138.99
194.9808, 15216.60
195.4629, 15289.00
195.9451, 15353.37
196.4272, 15410.71
196.9093, 15472.41
197.3914, 15542.74
197.8735, 15611.27
198.3556, 15653.46
198.8378, 15664.86
199.3199, 15677.35
199.8020, 15709.37
200.2841, 15761.97
200.7662, 15812.87
201.2483, 15858.10
201.7305, 15903.38
202.2126, 15966.72
202.6947, 16053.68
203.1768, 16138.01
203.6589, 16197.83
204.1410, 16226.27
204.6232, 16276.61
205.1053, 16358.88
205.5874, 16463.69
206.0695, 16563.85
206.5516, 16663.59
207.0337, 16747.60
207.5159, 16803.88
207.9980, 16827.84
208.4801, 16841.34
208.9622, 16847.23
209.4443, 16844.64
209.9264, 16829.96
210.4086, 16804.50
210.8907, 16764.08
211.3728, 16701.70
211.8549, 16608.15
212.3370, 16522.21
212.8191, 16448.96
213.3013, 16388.13
213.7834, 16330.18
214.2655, 16269.51
214.7476, 16220.61
215.2297, 16201.85
215.7118, 16228.93
216.1940, 16240.02
216.6761, 16212.68
217.1582, 16150.31
217.6403, 16137.63
218.1224, 16195.63
218.6045, 16275.35
219.0867, 16329.34
219.5688, 16345.89
220.0509, 16362.87
220.5330, 16384.98
221.0151, 16412.33
221.4972, 16454.38
221.9794, 16518.20
222.4615, 16589.20
222.9436, 16649.47
223.4257, 16684.25
223.9078, 16740.30
224.3899, 16831.95
224.8721, 16963.61
225.3542, 17088.25
225.8363, 17203.14
226.3184, 17314.61
226.8005, 17435.09
227.2827, 17577.31
227.7648, 17701.90
228.2469, 17792.45
228.7290, 17841.53
229.2111, 17915.72
229.6932, 18039.96
230.1754, 18168.25
230.6575, 18241.38
231.1396, 18245.64
231.6217, 18216.88
232.1038, 18157.75
232.5859, 18060.44
233.0681, 17976.80
233.5502, 17920.93
234.0323, 17868.96
234.5144, 17780.10
234.9965, 17622.33
235.4786, 17482.68
235.9608, 17387.05
236.4429, 17341.83
236.9250, 17316.47
237.4071, 17316.53
237.8892, 17333.29
238.3713, 17352.99
238.8535, 17373.35
239.3356, 17400.45
239.8177, 17435.53
240.2998, 17477.85
240.7819, 17532.27
241.2640, 17604.31
241.7462, 17686.09
242.2283, 17762.58
242.7104, 17821.83
243.1925, 17895.58
243.6746, 17996.71
244.1567, 18134.24
244.6389, 18272.21
245.1210, 18419.24
245.6031, 18561.36
246.0852, 18668.53
246.5673, 18717.35
247.0494, 18771.35
247.5316, 18858.29
248.0137, 18997.15
248.4958, 19104.63
248.9779, 19173.47
249.4600, 19214.33
249.9421, 19245.76
250.4243, 19271.84
250.9064, 19281.73
251.3885, 19270.17
251.8706, 19232.78
252.3527, 19188.01
252.8348, 19137.30
253.3170, 19078.57
253.7991, 19006.23
254.2812, 18914.33
254.7633, 18821.80
255.2454, 18737.97
255.7275, 18670.48
256.2097, 18583.20
256.6918, 18463.04
257.1739, 18333.08
257.6560, 18235.83
258.1381, 18180.36
258.6202, 18139.00
259.1024, 18106.41
259.5845, 18091.00
260.0666, 18046.74
260.5487, 17955.47
261.0308, 17849.25
261.5129, 17785.87
261.9951, 17779.07
262.4772, 17783.83
262.9593, 17787.46
263.4414, 17793.99
263.9235, 17777.27
264.4056, 17726.71
264.8878, 17662.53
265.3699, 17618.72
265.8520, 17598.06
266.3341, 17588.93
266.8162, 17590.65
267.2983, 17606.64
267.7805, 17610.74
268.2626, 17599.89
268.7447, 17580.46
269.2268, 17563.42
269.7089, 17549.81
270.1910, 17534.81
270.6732, 17514.61
271.1553, 17488.03
271.6374, 17469.74
272.1195, 17462.23
272.6016, 17459.35
273.0837, 17453.29
273.5659, 17445.00
274.0480, 17428.56
274.5301, 17394.66
275.0122, 17342.12
275.4943, 17316.82
275.9764, 17327.22
276.4586, 17348.98
276.9407, 17342.26
277.4228, 17303.49
277.9049, 17268.38
278.3870, 17255.16
278.8691, 17262.36
279.3513, 17254.21
279.8334, 17227.31
280.3155, 17193.76
280.7976, 17168.38
281.2798, 17151.53
281.7619, 17140.05
282.2440, 17132.86
282.7261, 17130.07
283.2082, 17134.02
283.6903, 17146.20
284.1725, 17159.71
284.6546, 17165.14
285.1367, 17162.78
285.6188, 17160.59
286.1009, 17158.93
286.5830, 17159.47
287.0652, 17175.76
287.5473, 17211.29
288.0294, 17240.80
288.5115, 17227.79
288.9936, 17177.58
289.4757, 17135.01
289.9579, 17117.88
290.4400, 17118.26
290.9221, 17108.74
291.4042, 17087.57
291.8863, 17078.43
292.3684, 17122.86
292.8506, 17205.73
293.3327, 17260.41
293.8148, 17247.33
294.2969, 17204.22
294.7790, 17213.58
295.2611, 17275.60
295.7433, 17335.99
296.2254, 17340.65
296.7075, 17305.69
297.1896, 17275.77
297.6717, 17260.71
298.1538, 17259.30
298.6360, 17275.99
299.1181, 17309.36
299.6002, 17340.90
300.0823, 17348.53
300.5644, 17345.41
301.0465, 17357.59
301.5287, 17398.09
302.0108, 17448.76
302.4929, 17490.07
302.9750, 17523.42
303.4571, 17554.43
303.9392, 17594.95
304.4214, 17633.35
304.9035, 17652.50
305.3856, 17638.66
305.8677, 17619.44
306.3498, 17616.86
306.8319, 17628.67
307.3141, 17647.10
307.7962, 17671.58
308.2783, 17698.38
308.7604, 17723.21
309.2425, 17741.88
309.7246, 17764.82
310.2068, 17806.00
310.6889, 17857.69
311.1710, 17900.29
311.6531, 17920.83
312.1352, 17930.88
312.6173, 17937.00
313.0995, 17937.82
313.5816, 17941.78
314.0637, 17951.22
314.5458, 17966.69
315.0279, 17989.16
315.5100, 18026.10
315.9922, 18064.83
316.4743, 18098.45
316.9564, 18125.21
317.4385, 18150.89
317.9206, 18174.12
318.4027, 18198.16
318.8849, 18227.58
319.3670, 18273.57
319.8491, 18316.39
320.3312, 18346.25
320.8133, 18359.67
321.2954, 18377.82
321.7776, 18413.86
322.2597, 18453.32
322.7418, 18480.73
323.2239, 18498.84
323.7060, 18499.78
324.1881, 18472.38
324.6703, 18412.87
325.1524, 18371.33
325.6345, 18368.23
326.1166, 18375.86
326.5987, 18372.11
327.0808, 18365.91
327.5630, 18337.32
328.0451, 18269.12
328.5272, 18164.42
329.0093, 18091.75
329.4914, 18069.06
329.9735, 18063.55
330.4557, 18054.25
330.9378, 18033.78
331.4199, 18022.98
331.9020, 18029.10
332.3841, 18047.05
332.8662, 18051.03
333.3484, 18034.17
333.8305, 18013.72
334.3126, 17997.04
334.7947, 17981.25
335.2768, 17980.63
335.7589, 18004.53
336.2411, 18039.23
336.7232, 18047.41
337.2053, 18020.18
337.6874, 17992.22
338.1695, 17978.30
338.6516, 17978.98
339.1338, 17991.12
339.6159, 18017.26
340.0980, 18050.59
340.5801, 18082.02
341.0622, 18112.69
341.5443, 18133.50
342.0265, 18135.07
342.5086, 18120.52
342.9907, 18123.32
343.4728, 18147.50
343.9549, 18173.17
344.4370, 18167.29
344.9192, 18134.29
345.4013, 18117.77
345.8834, 18146.02
346.3655, 18198.30
346.8476, 18210.99
347.3297, 18182.61
347.8119, 18156.46
348.2940, 18179.39
348.7761, 18238.26
349.2582, 18294.33
349.7403, 18342.63
350.2225, 18378.29
350.7046, 18386.50
351.1867, 18370.86
351.6688, 18358.38
352.1509, 18369.74
352.6331, 18396.36
353.1152, 18426.87
353.5973, 18462.45
354.0794, 18494.34
354.5615, 18508.66
355.0436, 18511.55
355.5258, 18521.68
356.0079, 18551.41
356.4900, 18591.70
356.9721, 18636.69
357.4542, 18687.90
357.9363, 18735.55
358.4185, 18768.15
358.9006, 18794.09
359.3827, 18827.89
359.8648, 18879.05
360.3469, 18936.50
360.8290, 18997.63
361.3112, 19064.00
361.7933, 19121.88
362.2754, 19164.61
362.7575, 19198.00
363.2396, 19228.49
363.7217, 19236.74
364.2039, 19262.60
364.6860, 19317.63
365.1681, 19402.55
365.6502, 19502.04
366.1323, 19637.15
366.6144, 19773.17
367.0966, 19886.44
367.5787, 19948.79
368.0608, 20020.52
368.5429, 20106.56
369.0250, 20205.70
369.5071, 20309.41
369.9893, 20417.63
370.4714, 20529.96
370.9535, 20649.97
371.4356, 20793.63
371.9177, 20904.64
372.3998, 20973.34
372.8820, 21013.79
373.3641, 21057.15
373.8462, 21108.38
374.3283, 21150.09
374.8104, 21185.84
375.2925, 21221.17
375.7747, 21180.01
376.2568, 21046.46
376.7389, 20867.36
377.2210, 20702.81
377.7031, 20553.69
378.1852, 20405.67
378.6674, 20242.95
379.1495, 20078.09
379.6316, 19968.03
380.1137, 19918.59
380.5958, 19879.71
381.0779, 19804.54
381.5601, 19698.83
382.0422, 19594.79
382.5243, 19490.85
383.0064, 19400.31
383.4885, 19349.99
383.9706, 19336.04
384.4528, 19333.54
384.9349, 19334.56
385.4170, 19333.54
385.8991, 19318.56
386.3812, 19283.48
386.8633, 19248.15
387.3455, 19223.77
387.8276, 19212.90
388.3097, 19221.31
388.7918, 19276.13
389.2739, 19335.97
389.7560, 19364.04
390.2382, 19355.10
390.7203, 19343.39
391.2024, 19339.36
391.6845, 19345.36
392.1666, 19364.16
392.6487, 19415.32
393.1309, 19462.05
393.6130, 19481.90
394.0951, 19478.13
394.5772, 19488.84
395.0593, 19539.05
395.5414, 19597.16
396.0236, 19642.86
396.5057, 19646.46
396.9878, 19669.74
397.4699, 19731.22
397.9520, 19818.16
398.4341, 19890.05
398.9163, 19943.58
399.3984, 19985.08
399.8805, 20009.72
400.3626, 19995.86
400.8447, 20033.07
401.3268, 20150.29
401.8090, 20297.18
402.2911, 20403.31
402.7732, 20453.84
403.2553, 20499.22
403.7374, 20549.99
404.2195, 20606.28
404.7017, 20671.02
405.1838, 20744.87
405.6659, 20826.29
406.1480, 20920.27
406.6301, 21027.67
407.1122, 21114.92
407.5944, 21167.39
408.0765, 21205.46
408.5586, 21280.89
409.0407, 21393.28
409.5228, 21508.84
410.0049, 21613.46
410.4871, 21703.16
410.9692, 21760.30
411.4513, 21775.75
411.9334, 21788.83
412.4155, 21848.21
412.8976, 21943.31
413.3798, 22040.60
413.8619, 22142.70
414.3440, 22230.64
414.8261, 22276.87
415.3082, 22281.33
415.7903, 22285.68
416.2725, 22322.40
416.7546, 22372.32
417.2367, 22414.79
417.7188, 22442.60
418.2009, 22461.30
418.6830, 22469.86
419.1652, 22470.25
419.6473, 22469.44
420.1294, 22504.00
420.6115, 22512.86
421.0937, 22457.01
421.5758, 22299.43
422.0579, 22148.00
422.5400, 22024.23
423.0221, 21913.12
423.5042, 21787.34
423.9864, 21639.09
424.4685, 21485.13
424.9506, 21319.91
425.4327, 21142.52
425.9148, 20994.26
426.3969, 20881.95
426.8791, 20790.98
427.3612, 20713.65
427.8433, 20656.89
428.3254, 20591.42
428.8075, 20508.58
429.2896, 20416.28
429.7718, 20342.18
430.2539, 20286.73
430.7360, 20245.39
431.2181, 20224.28
431.7002, 20221.04
432.1823, 20198.56
432.6645, 20151.58
433.1466, 20096.54
433.6287, 20051.42
434.1108, 20016.72
434.5929, 19995.94
435.0750, 20001.52
435.5572, 20017.48
436.0393, 20011.03
436.5214, 19983.40
437.0035, 19960.60
437.4856, 19971.35
437.9677, 19997.29
438.4499, 20012.78
438.9320, 20009.19
439.4141, 19997.32
439.8962, 19974.01
440.3783, 19947.46
440.8604, 19938.12
441.3426, 19970.31
441.8247, 20010.89
442.3068, 20041.16
442.7889, 20057.09
443.2710, 20072.18
443.7531, 20100.04
444.2353, 20124.91
444.7174, 20129.79
445.1995, 20074.81
445.6816, 20040.58
446.1637, 20044.98
446.6458, 20084.92
447.1280, 20132.22
447.6101, 20204.12
448.0922, 20264.47
448.5743, 20290.39
449.0564, 20267.13
449.5385, 20246.38
450.0207, 20221.41
450.5028, 20206.80
450.9849, 20240.38
451.4670, 20333.69
451.9491, 20415.27
452.4312, 20457.12
452.9134, 20462.63
453.3955, 20458.00
453.8776, 20442.52
454.3597, 20422.24
454.8418, 20399.25
455.3239, 20375.47
455.8061, 20360.67
456.2882, 20359.68
456.7703, 20364.18
457.2524, 20363.00
457.7345, 20357.09
458.2166, 20350.20
458.6988, 20341.40
459.1809, 20334.44
459.6630, 20336.80
460.1451, 20351.39
460.6272, 20359.30
461.1093, 20343.16
461.5915, 20315.05
462.0736, 20290.25
462.5557, 20265.61
463.0378, 20253.15
463.5199, 20266.74
464.0020, 20301.66
464.4842, 20323.45
464.9663, 20308.11
465.4484, 20290.07
465.9305, 20289.57
466.4126, 20336.38
466.8947, 20348.52
467.3769, 20303.50
467.8590, 20233.74
468.3411, 20191.56
468.8232, 20185.83
469.3053, 20190.87
469.7874, 20200.11
470.2696, 20213.84
470.7517, 20241.00
471.2338, 20286.91
471.7159, 20329.63
472.1980, 20344.32
472.6801, 20331.90
473.1623, 20332.05
473.6444, 20353.58
474.1265, 20383.68
474.6086, 20401.88
475.0907, 20409.10
475.5728, 20411.35
476.0550, 20398.90
476.5371, 20388.01
477.0192, 20410.50
477.5013, 20467.81
477.9834, 20529.59
478.4655, 20587.76
478.9477, 20631.66
479.4298, 20644.42
479.9119, 20589.49
480.3940, 20542.53
480.8761, 20555.16
481.3582, 20608.67
481.8404, 20649.28
482.3225, 20646.43
482.8046, 20637.45
483.2867, 20633.37
483.7688, 20626.13
484.2509, 20655.29
484.7331, 20770.72
485.2152, 20899.83
485.6973, 20973.73
486.1794, 20945.61
486.6615, 20942.99
487.1436, 20990.07
487.6258, 21076.55
488.1079, 21157.61
488.5900, 21236.44
489.0721, 21299.39
489.5542, 21328.91
490.0363, 21324.65
490.5185, 21347.22
491.0006, 21400.83
491.4827, 21471.86
491.9648, 21554.20
492.4470, 21642.82
492.9291, 21708.32
493.4112, 21738.48
493.8933, 21740.57
494.3754, 21724.01
494.8575, 21688.35
495.3397, 21632.01
495.8218, 21523.65
496.3039, 21407.72
496.7860, 21339.45
497.2681, 21337.20
497.7502, 21337.11
498.2324, 21313.33
498.7145, 21268.85
499.1966, 21207.17
499.6787, 21097.22
500.1608, 21003.02
500.6429, 20944.10
501.1251, 20919.85
501.6072, 20913.58
502.0893, 20959.16
502.5714, 20991.29
503.0535, 20975.37
503.5356, 20881.29
504.0178, 20810.49
504.4999, 20763.87
504.9820, 20740.54
505.4641, 20744.69
505.9462, 20782.79
506.4283, 20814.28
506.9105, 20825.80
507.3926, 20822.03
507.8747, 20820.42
508.3568, 20820.98
508.8389, 20823.18
509.3210, 20820.06
509.8032, 20818.30
510.2853, 20841.81
510.7674, 20899.41
511.2495, 20957.19
511.7316, 20972.09
512.2137, 20961.93
512.6959, 20962.69
513.1780, 20995.29
513.6601, 21038.96
514.1422, 21085.53
514.6243, 21133.46
515.1064, 21173.86
515.5886, 21203.15
516.0707, 21223.97
516.5528, 21235.24
517.0349, 21224.48
517.5170, 21230.25
517.9991, 21264.12
518.4813, 21313.36
518.9634, 21362.30
519.4455, 21408.03
519.9276, 21458.55
520.4097, 21516.76
520.8918, 21580.83
521.3740, 21645.96
521.8561, 21712.33
522.3382, 21779.21
522.8203, 21842.07
523.3024, 21901.54
523.7845, 21979.06
524.2667, 22077.99
524.7488, 22188.91
525.2309, 22311.71
525.7130, 22441.45
526.1951, 22557.17
526.6772, 22639.06
527.1594, 22717.26
527.6415, 22826.29
528.1236, 22961.63
528.6057, 23106.58
529.0878, 23260.09
529.5699, 23412.68
530.0521, 23552.40
530.5342, 23675.03
531.0163, 23803.29
531.4984, 23948.80
531.9805, 24103.08
532.4626, 24257.69
532.9448, 24452.96
533.4269, 24596.84
533.9090, 24650.33
534.3911, 24641.84
534.8732, 24685.49
535.3553, 24818.49
535.8375, 24935.07
536.3196, 24985.00
536.8017, 24966.01
537.2838, 24942.87
537.7659, 24915.87
538.2480, 24883.04
538.7302, 24855.88
539.2123, 24827.29
539.6944, 24743.86
540.1765, 24577.67
540.6586, 24381.74
541.1407, 24220.29
541.6229, 24088.26
542.1050, 23964.76
542.5871, 23840.63
543.0692, 23718.48
543.5513, 23605.92
544.0334, 23504.05
544.5156, 23392.96
544.9977, 23255.14
545.4798, 23109.01
545.9619, 22970.59
546.4440, 22847.58
546.9261, 22725.22
547.4083, 22594.27
547.8904, 22463.76
548.3725, 22351.79
548.8546, 22260.54
549.3367, 22183.02
549.8188, 22118.74
550.3010, 22067.26
550.7831, 22023.93
551.2652, 21989.17
551.7473, 21961.03
552.2294, 21944.17
552.7115, 21936.22
553.1937, 21913.65
553.6758, 21873.97
554.1579, 21822.22
554.6400, 21752.66
555.1221, 21674.59
555.6042, 21616.16
556.0864, 21593.68
556.5685, 21587.81
557.0506, 21588.24
557.5327, 21591.81
558.0148, 21586.67
558.4969, 21554.85
558.9791, 21521.66
559.4612, 21503.83
559.9433, 21506.01
560.4254, 21508.56
560.9075, 21511.20
561.3896, 21510.81
561.8718, 21504.61
562.3539, 21488.06
562.8360, 21472.26
563.3181, 21451.95
563.8002, 21435.87
564.2823, 21454.38
564.7645, 21520.05
565.2466, 21562.23
565.7287, 21541.69
566.2108, 21473.81
566.6929, 21435.13
567.1750, 21426.88
567.6572, 21427.73
568.1393, 21413.99
568.6214, 21397.71
569.1035, 21410.10
569.5856, 21464.54
570.0677, 21513.09
570.5499, 21512.86
571.0320, 21481.45
571.5141, 21446.93
571.9962, 21408.50
572.4783, 21379.88
572.9604, 21368.66
573.4426, 21372.99
573.9247, 21382.91
574.4068, 21408.67
574.8889, 21428.66
575.3710, 21430.44
575.8531, 21406.61
576.3353, 21406.43
576.8174, 21444.71
577.2995, 21484.67
577.7816, 21483.35
578.2637, 21434.69
578.7458, 21413.09
579.2280, 21436.34
579.7101, 21478.31
580.1922, 21491.01
580.6743, 21479.21
581.1564, 21469.76
581.6385, 21476.46
582.1207, 21491.83
582.6028, 21513.57
583.0849, 21538.97
583.5670, 21548.41
584.0491, 21506.39
584.5313, 21458.99
585.0134, 21445.71
585.4955, 21484.39
585.9776, 21517.99
586.4597, 21522.85
586.9418, 21519.07
587.4240, 21530.65
587.9061, 21587.41
588.3882, 21613.79
588.8703, 21593.08
589.3524, 21539.20
589.8345, 21486.54
590.3167, 21428.51
590.7988, 21398.08
591.2809, 21422.67
591.7630, 21488.70
592.2451, 21521.70
592.7272, 21520.41
593.2094, 21516.73
593.6915, 21543.74
594.1736, 21585.94
594.6557, 21610.85
595.1378, 21608.43
595.6199, 21607.28
596.1021, 21637.76
596.5842, 21680.59
597.0663, 21708.33
597.5485, 21718.02
598.0306, 21704.24
598.5127, 21640.89
598.9948, 21545.94
599.4769, 21496.79
599.9590, 21529.08
600.4412, 21568.52
600.9233, 21589.18
601.4054, 21588.92
601.8875, 21607.99
602.3696, 21653.48
602.8517, 21700.63
603.3339, 21730.13
603.8160, 21742.58
604.2981, 21736.49
604.7802, 21707.42
605.2623, 21675.12
605.7444, 21662.80
606.2266, 21667.77
606.7087, 21683.84
607.1908, 21722.32
607.6729, 21756.98
608.1550, 21757.05
608.6371, 21734.36
609.1193, 21727.35
609.6014, 21770.82
610.0835, 21817.04
610.5656, 21840.15
611.0477, 21834.51
611.5298, 21838.53
612.0120, 21866.43
612.4941, 21891.40
612.9762, 21892.49
613.4583, 21859.19
613.9404, 21841.50
614.4225, 21845.82
614.9047, 21858.49
615.3868, 21859.54
615.8689, 21849.83
616.3510, 21840.33
616.8331, 21832.16
617.3152, 21828.50
617.7974, 21835.12
618.2795, 21850.80
618.7616, 21870.88
619.2437, 21902.08
619.7258, 21929.70
620.2079, 21939.60
620.6901, 21931.21
621.1722, 21925.51
621.6543, 21929.64
622.1364, 21938.97
622.6185, 21950.64
623.1006, 21964.39
623.5828, 21980.70
624.0649, 22000.34
624.5470, 22021.84
625.0291, 22048.67
625.5112, 22086.81
625.9933, 22094.05
626.4755, 22052.01
626.9576, 21989.64
627.4397, 21966.34
627.9218, 21978.97
628.4039, 22003.78
628.8860, 22038.18
629.3682, 22073.33
629.8503, 22097.02
630.3324, 22109.96
630.8145, 22116.82
631.2966, 22125.58
631.7787, 22125.50
632.2609, 22101.78
632.7430, 22040.06
633.2251, 22004.57
633.7072, 22033.62
634.1893, 22078.50
634.6714, 22097.68
635.1536, 22073.05
635.6357, 22064.34
636.1178, 22083.12
636.5999, 22112.14
637.0820, 22114.42
637.5641, 22088.35
638.0463, 22075.23
638.5284, 22091.55
639.0105, 22126.16
639.4926, 22160.17
639.9747, 22193.62
640.4568, 22225.66
640.9390, 22269.02
641.4211, 22302.60
641.9032, 22296.50
642.3853, 22248.83
642.8674, 22216.29
643.3495, 22229.91
643.8317, 22261.03
644.3138, 22291.55
644.7959, 22327.89
645.2780, 22346.20
645.7601, 22340.33
646.2422, 22321.86
646.7244, 22300.19
647.2065, 22271.67
647.6886, 22262.21
648.1707, 22283.01
648.6528, 22315.83
649.1349, 22320.18
649.6171, 22300.29
650.0992, 22286.33
650.5813, 22281.59
651.0634, 22297.17
651.5455, 22370.88
652.0276, 22488.28
652.5098, 22568.18
652.9919, 22539.31
653.4740, 22481.32
653.9561, 22441.84
654.4382, 22428.59
654.9203, 22415.62
655.4025, 22397.69
655.8846, 22380.71
656.3667, 22367.29
656.8488, 22353.31
657.3309, 22358.80
657.8130, 22392.69
658.2952, 22431.16
658.7773, 22430.69
659.2594, 22396.15
659.7415, 22391.28
660.2236, 22449.78
660.7057, 22517.02
661.1879, 22496.28
661.6700, 22417.78
662.1521, 22366.07
662.6342, 22410.95
663.1163, 22470.81
663.5984, 22496.52
664.0806, 22490.26
664.5627, 22481.55
665.0448, 22470.10
665.5269, 22464.92
666.0090, 22473.66
666.4911, 22500.49
666.9733, 22504.58
667.4554, 22470.29
667.9375, 22444.21
668.4196, 22480.34
668.9017, 22575.49
669.3839, 22620.12
669.8660, 22597.71
670.3481, 22555.92
670.8302, 22538.06
671.3123, 22543.54
671.7944, 22576.00
672.2766, 22663.82
672.7587, 22733.95
673.2408, 22721.42
673.7229, 22659.22
674.2050, 22611.83
674.6871, 22605.39
675.1693, 22606.89
675.6514, 22607.13
676.1335, 22607.55
676.6156, 22619.51
677.0977, 22653.49
677.5798, 22674.69
678.0620, 22661.22
678.5441, 22617.99
679.0262, 22592.85
679.5083, 22585.92
679.9904, 22592.29
680.4725, 22614.87
680.9547, 22645.91
681.4368, 22673.91
681.9189, 22697.82
682.4010, 22713.78
682.8831, 22704.35
683.3652, 22692.66
683.8474, 22703.96
684.3295, 22773.73
684.8116, 22819.29
685.2937, 22820.99
685.7758, 22795.52
686.2579, 22757.99
686.7401, 22693.88
687.2222, 22659.70
687.7043, 22673.37
688.1864, 22715.65
688.6685, 22740.57
689.1506, 22749.23
689.6328, 22759.27
690.1149, 22785.15
690.5970, 22812.91
691.0791, 22817.03
691.5612, 22802.11
692.0433, 22791.46
692.5255, 22796.70
693.0076, 22810.80
693.4897, 22837.58
693.9718, 22880.15
694.4539, 22894.87
694.9360, 22854.90
695.4182, 22805.18
695.9003, 22764.72
696.3824, 22729.80
696.8645, 22727.37
697.3466, 22766.06
697.8287, 22814.59
698.3109, 22839.54
698.7930, 22844.45
699.2751, 22847.65
699.7572, 22852.09
700.2393, 22856.10
700.7214, 22856.41
701.2036, 22855.43
701.6857, 22857.15
702.1678, 22862.69
702.6499, 22871.55
703.1320, 22888.38
703.6141, 22908.31
704.0963, 22918.76
704.5784, 22913.34
705.0605, 22908.08
705.5426, 22908.53
706.0247, 22911.55
706.5068, 22898.62
706.9890, 22866.55
707.4711, 22844.64
707.9532, 22854.99
708.4353, 22885.20
708.9174, 22905.55
709.3995, 22916.31
709.8817, 22918.93
710.3638, 22899.17
710.8459, 22881.52
711.3280, 22895.94
711.8101, 22951.24
712.2922, 22985.64
712.7744, 22966.96
713.2565, 22932.29
713.7386, 22904.57
714.2207, 22876.96
714.7028, 22879.07
715.1849, 22926.05
715.6671, 22976.48
716.1492, 22975.13
716.6313, 22927.64
717.1134, 22905.34
717.5955, 22926.71
718.0776, 22956.48
718.5598, 22942.09
719.0419, 22905.86
719.5240, 22891.58
720.0061, 22933.36
720.4882, 22977.79
720.9703, 22997.47
721.4525, 23002.33
721.9346, 23015.32
722.4167, 23060.66
722.8988, 23085.45
723.3809, 23067.26
723.8630, 23022.43
724.3452, 23024.11
724.8273, 23079.91
725.3094, 23126.93
725.7915, 23126.25
726.2736, 23098.72
726.7557, 23104.86
727.2379, 23139.54
727.7200, 23162.36
728.2021, 23130.42
728.6842, 23087.45
729.1663, 23072.54
729.6484, 23089.95
730.1306, 23100.87
730.6127, 23094.76
731.0948, 23078.22
731.5769, 23050.96
732.0590, 23003.47
732.5411, 22986.21
733.0233, 23005.45
733.5054, 23040.79
733.9875, 23077.52
734.4696, 23115.03
734.9517, 23148.81
735.4338, 23179.39
735.9160, 23201.33
736.3981, 23213.83
736.8802, 23212.65
737.3623, 23185.22
737.8444, 23094.16
738.3266, 23042.91
738.8087, 23109.42
739.2908, 23226.14
739.7729, 23293.80
740.2551, 23291.30
740.7372, 23270.66
741.2193, 23228.47
741.7014, 23179.04
742.1835, 23153.78
742.6656, 23153.05
743.1478, 23157.62
743.6299, 23160.55
744.1120, 23166.34
744.5941, 23190.10
745.0762, 23223.81
745.5583, 23243.29
746.0405, 23211.65
746.5226, 23185.46
747.0047, 23202.30
747.4868, 23255.12
747.9689, 23300.45
748.4510, 23345.02
748.9332, 23365.30
749.4153, 23347.46
749.8974, 23295.19
750.3795, 23246.89
750.8616, 23200.57
751.3438, 23173.98
751.8259, 23187.21
752.3080, 23226.75
752.7901, 23267.30
753.2722, 23307.21
753.7543, 23333.24
754.2365, 23323.03
754.7186, 23304.64
755.2007, 23303.83
755.6828, 23328.64
756.1649, 23339.47
756.6470, 23311.85
757.1292, 23284.32
757.6113, 23281.15
758.0934, 23308.58
758.5755, 23334.79
759.0576, 23362.31
759.5397, 23380.85
760.0219, 23367.40
760.5040, 23335.67
760.9861, 23336.95
761.4682, 23386.58
761.9503, 23428.37
762.4324, 23391.23
762.9146, 23332.66
763.3967, 23323.56
763.8788, 23434.74
764.3609, 23508.35
764.8430, 23497.01
765.3251, 23447.14
765.8073, 23403.72
766.2894, 23360.74
766.7715, 23352.75
767.2536, 23395.33
767.7357, 23454.81
768.2178, 23467.91
768.7000, 23446.62
769.1821, 23442.97
769.6642, 23488.04
770.1463, 23533.58
770.6284, 23524.13
771.1105, 23487.01
771.5927, 23475.02
772.0748, 23535.10
772.5569, 23586.58
773.0390, 23608.39
773.5211, 23608.96
774.0032, 23608.13
774.4854, 23606.59
774.9675, 23599.34
775.4496, 23577.76
775.9317, 23555.78
776.4138, 23576.89
776.8959, 23633.41
777.3781, 23684.57
777.8602, 23706.41
778.3423, 23715.80
778.8244, 23726.48
779.3065, 23737.20
779.7886, 23741.92
780.2708, 23732.58
780.7529, 23722.97
781.2350, 23710.59
781.7171, 23698.70
782.1992, 23727.78
782.6813, 23812.81
783.1635, 23877.47
783.6456, 23856.66
784.1277, 23789.27
784.6098, 23829.37
785.0919, 23963.54
785.5740, 24060.50
786.0562, 23969.69
786.5383, 23854.17
787.0204, 23872.73
787.5025, 24033.57
787.9846, 24148.88
788.4667, 24122.91
788.9489, 24090.58
789.4310, 24112.70
789.9131, 24193.52
790.3952, 24244.49
790.8773, 24261.88
791.3594, 24264.93
791.8416, 24248.87
792.3237, 24231.70
792.8058, 24270.51
793.2879, 24367.51
793.7700, 24469.50
794.2521, 24536.44
794.7343, 24595.09
795.2164, 24670.65
795.6985, 24775.74
796.1806, 24856.17
796.6627, 24894.66
797.1448, 24921.89
797.6270, 24959.76
798.1091, 25012.59
798.5912, 25031.59
799.0733, 25008.26
799.5554, 24996.60
800.0375, 25062.76
800.5197, 25173.87
801.0018, 25277.36
801.4839, 25369.21
801.9660, 25420.20
802.4481, 25373.38
802.9302, 25302.22
803.4124, 25266.19
803.8945, 25272.73
804.3766, 25324.40
804.8587, 25445.89
805.3408, 25579.84
805.8229, 25669.99
806.3051, 25716.68
806.7872, 25771.19
807.2693, 25836.46
807.7514, 25919.94
808.2335, 26037.81
808.7156, 26176.86
809.1978, 26316.66
809.6799, 26450.85
810.1620, 26592.81
810.6441, 26755.70
811.1262, 26925.33
811.6083, 27084.38
812.0905, 27217.53
812.5726, 27377.99
813.0547, 27570.53
813.5368, 27780.01
814.0189, 27997.37
814.5010, 28218.33
814.9832, 28417.98
815.4653, 28590.27
815.9474, 28744.67
816.4295, 28896.82
816.9116, 29034.98
817.3937, 29147.01
817.8759, 29240.17
818.3580, 29284.14
818.8401, 29249.38
819.3222, 29176.86
819.8043, 29103.04
820.2864, 29032.07
820.7686, 28934.50
821.2507, 28800.42
821.7328, 28663.84
822.2149, 28582.13
822.6970, 28533.82
823.1791, 28458.60
823.6613, 28333.73
824.1434, 28213.87
824.6255, 28114.85
825.1076, 28050.92
825.5897, 28039.51
826.0718, 28121.27
826.5540, 28199.76
827.0361, 28249.37
827.5182, 28325.49
828.0003, 28515.11
828.4824, 28815.12
828.9645, 29080.21
829.4467, 29274.80
829.9288, 29484.75
830.4109, 29822.18
830.8930, 30233.74
831.3751, 30637.48
831.8572, 30984.15
832.3394, 31378.04
832.8215, 31871.79
833.3036, 32428.38
833.7857, 33007.05
834.2678, 33597.24
834.7499, 34220.73
835.2321, 34880.47
835.7142, 35560.99
836.1963, 36257.20
836.6784, 36962.62
837.1605, 37622.02
837.6426, 38206.59
838.1248, 38801.99
838.6069, 39496.84
839.0890, 40227.72
839.5711, 40913.58
840.0532, 41498.85
840.5353, 42114.59
841.0175, 42809.90
841.4996, 43497.77
841.9817, 44098.28
842.4638, 44615.86
842.9459, 45023.89
843.4280, 45330.72
843.9102, 45470.97
844.3923, 45388.45
844.8744, 45084.60
845.3565, 44547.23
845.8386, 43740.11
846.3207, 42822.21
846.8029, 41808.98
847.2850, 40742.17
847.7671, 39647.82
848.2492, 38477.66
848.7313, 37414.31
849.2134, 36475.15
849.6956, 35618.18
850.1777, 34798.99
850.6598, 34020.66
851.1419, 33286.01
851.6240, 32589.51
852.1061, 31974.17
852.5883, 31495.94
853.0704, 31091.89
853.5525, 30696.37
854.0346, 30293.74
854.5167, 29934.43
854.9988, 29622.26
855.4810, 29349.93
855.9631, 29123.83
856.4452, 28944.27
856.9273, 28713.88
857.4094, 28426.10
857.8915, 28157.38
858.3737, 27982.74
858.8558, 27866.61
859.3379, 27772.72
859.8200, 27699.07
860.3021, 27624.00
860.7842, 27545.65
861.2664, 27459.39
861.7485, 27357.87
862.2306, 27235.23
862.7127, 27152.02
863.1948, 27112.53
863.6769, 27090.68
864.1591, 27059.64
864.6412, 27034.03
865.1233, 27057.08
865.6054, 27126.57
866.0875, 27194.44
866.5696, 27226.29
867.0518, 27252.85
867.5339, 27286.85
868.0160, 27330.29
868.4981, 27406.02
868.9802, 27524.45
869.4623, 27652.94
869.9445, 27771.25
870.4266, 27886.60
870.9087, 28027.38
871.3908, 28196.03
871.8729, 28396.57
872.3550, 28639.14
872.8372, 28910.91
873.3193, 29189.48
873.8014, 29484.42
874.2835, 29836.72
874.7656, 30290.60
875.2477, 30763.26
875.7299, 31227.96
876.2120, 31696.24
876.6941, 32223.88
877.1762, 32808.41
877.6583, 33463.60
878.1404, 34203.95
878.6226, 35001.33
879.1047, 35821.32
879.5869, 36665.12
880.0690, 37555.39
880.5511, 38524.25
881.0332, 39511.91
881.5153, 40490.22
881.9974, 41477.27
882.4796, 42540.63
882.9617, 43692.58
883.4438, 44866.38
883.9259, 46058.53
884.4080, 47214.95
884.8901, 48251.91
885.3723, 49179.15
885.8544, 50028.52
886.3365, 50854.87
886.8186, 51519.00
887.3007, 51993.48
887.7828, 52239.08
888.2650, 52217.51
888.7471, 51931.96
889.2292, 51375.17
889.7113, 50515.59
890.1934, 49449.22
890.6755, 48239.73
891.1577, 46919.57
891.6398, 45537.63
892.1219, 44104.91
892.6040, 42668.49
893.0861, 41245.04
893.5682, 39863.09
894.0504, 38544.91
894.5325, 37274.32
895.0146, 36148.46
895.4967, 35194.77
895.9788, 34337.93
896.4609, 33541.13
896.9431, 32798.05
897.4252, 32075.34
897.9073, 31371.44
898.3894, 30751.80
898.8715, 30279.86
899.3536, 29888.25
899.8358, 29524.34
900.3179, 29188.02
900.8000, 28849.03
901.2821, 28497.15
901.7642, 28155.43
902.2463, 27820.06
902.7285, 27502.20
903.2106, 27251.34
903.6927, 27067.11
904.1748, 26909.14
904.6569, 26753.65
905.1390, 26609.56
905.6212, 26494.72
906.1033, 26402.27
906.5854, 26294.95
907.0675, 26138.00
907.5496, 25996.80
908.0317, 25893.51
908.5139, 25814.26
908.9960, 25704.29
909.4781, 25563.86
909.9602, 25463.09
910.4423, 25447.53
910.9244, 25450.97
911.4066, 25389.30
911.8887, 25289.79
912.3708, 25201.69
912.8529, 25145.11
913.3350, 25098.55
913.8171, 25068.98
914.2993, 25039.84
914.7814, 24982.70
915.2635, 24893.70
915.7456, 24830.38
916.2277, 24804.22
916.7098, 24790.35
917.1920, 24761.23
917.6741, 24725.54
918.1562, 24697.41
918.6383, 24683.50
919.1204, 24664.34
919.6025, 24619.31
920.0847, 24579.39
920.5668, 24568.76
921.0489, 24593.60
921.5310, 24604.75
922.0131, 24602.12
922.4952, 24586.92
922.9774, 24549.11
923.4595, 24504.69
923.9416, 24479.86
924.4237, 24474.97
924.9058, 24469.16
925.3879, 24445.94
925.8701, 24429.21
926.3522, 24439.46
926.8343, 24468.54
927.3164, 24437.83
927.7985, 24337.90
928.2806, 24264.68
928.7628, 24279.48
929.2449, 24330.62
929.7270, 24348.63
930.2091, 24336.28
930.6912, 24301.42
931.1733, 24229.94
931.6555, 24156.57
932.1376, 24087.41
932.6197, 24025.01
933.1018, 23975.79
933.5839, 23940.99
934.0660, 23906.90
934.5482, 23870.19
935.0303, 23835.05
935.5124, 23800.48
935.9945, 23772.49
936.4766, 23764.63
936.9587, 23789.80
937.4409, 23807.10
937.9230, 23795.40
938.4051, 23776.79
938.8872, 23768.47
939.3693, 23772.72
939.8514, 23777.14
940.3336, 23783.62
940.8157, 23775.76
941.2978, 23721.89
941.7799, 23653.89
942.2620, 23620.04
942.7441, 23621.94
943.2263, 23628.72
943.7084, 23633.05
944.1905, 23635.32
944.6726, 23635.82
945.1547, 23634.51
945.6368, 23634.12
946.1190, 23635.47
946.6011, 23622.14
947.0832, 23576.36
947.5653, 23523.39
948.0474, 23492.27
948.5295, 23480.35
949.0117, 23481.45
949.4938, 23516.27
949.9759, 23533.87
950.4580, 23515.40
950.9401, 23482.69
951.4222, 23469.36
951.9044, 23475.68
952.3865, 23481.50
952.8686, 23483.95
953.3507, 23483.78
953.8328, 23479.37
954.3149, 23474.02
954.7971, 23474.23
955.2792, 23486.35
955.7613, 23483.86
956.2434, 23458.02
956.7255, 23422.66
957.2076, 23379.31
957.6898, 23328.85
958.1719, 23310.19
958.6540, 23322.82
959.1361, 23343.54
959.6182, 23361.14
960.1003, 23375.80
960.5825, 23392.36
961.0646, 23408.02
961.5467, 23406.02
962.0288, 23375.65
962.5109, 23337.73
962.9930, 23291.46
963.4752, 23246.08
963.9573, 23226.65
964.4394, 23230.96
964.9215, 23247.24
965.4036, 23282.81
965.8857, 23306.27
966.3679, 23275.38
966.8500, 23224.42
967.3321, 23198.58
967.8142, 23218.86
968.2963, 23240.57
968.7784, 23269.16
969.2606, 23287.46
969.7427, 23267.00
970.2248, 23221.13
970.7069, 23198.11
971.1890, 23201.53
971.6711, 23216.68
972.1533, 23259.38
972.6354, 23289.35
973.1175, 23267.94
973.5996, 23196.19
974.0817, 23149.79
974.5638, 23130.48
975.0460, 23131.93
975.5281, 23161.14
976.0102, 23200.52
976.4923, 23214.43
976.9744, 23207.00
977.4565, 23190.39
977.9387, 23157.67
978.4208, 23130.98
978.9029, 23119.40
979.3850, 23117.91
979.8671, 23122.73
980.3492, 23136.96
980.8314, 23137.25
981.3135, 23118.91
981.7956, 23096.06
982.2777, 23085.26
982.7598, 23079.23
983.2419, 23063.69
983.7241, 23033.66
984.2062, 23019.40
984.6883, 23053.29
985.1704, 23080.77
985.6525, 23072.20
986.1346, 23032.73
986.6168, 23018.98
987.0989, 23030.26
987.5810, 23045.13
988.0631, 23057.00
988.5452, 23062.04
989.0273, 23057.17
989.5095, 23042.58
989.9916, 23017.64
990.4737, 22950.70
990.9558, 22928.14
991.4379, 22979.63
991.9200, 23051.84
992.4022, 23050.66
992.8843, 22995.10
993.3664, 22974.40
993.8485, 23012.30
994.3306, 23040.05
994.8127, 22986.86
995.2949, 22918.42
995.7770, 22897.89
996.2591, 22937.12
996.7412, 22953.94
997.2233, 22942.73
997.7054, 22929.07
998.1876, 22930.17
998.6697, 22939.00
999.1518, 22943.29
999.6339, 22941.98
1000.116, 22931.23
1000.598, 22896.46
1001.080, 22866.66
1001.562, 22850.80
1002.044, 22846.38
1002.527, 22852.59
1003.009, 22870.60
1003.491, 22882.26
1003.973, 22884.46
1004.455, 22878.19
1004.937, 22852.33
1005.419, 22824.50
1005.901, 22821.24
1006.384, 22856.48
1006.866, 22875.74
1007.348, 22866.34
1007.830, 22850.33
1008.312, 22841.79
1008.794, 22837.60
1009.276, 22808.74
1009.758, 22760.30
1010.240, 22733.14
1010.723, 22771.88
1011.205, 22818.95
1011.687, 22840.66
1012.169, 22842.27
1012.651, 22840.69
1013.133, 22835.75
1013.615, 22829.96
1014.097, 22823.63
1014.580, 22816.68
1015.062, 22807.97
1015.544, 22798.95
1016.026, 22794.69
1016.508, 22798.56
1016.990, 22792.34
1017.472, 22734.74
1017.954, 22698.93
1018.436, 22744.29
1018.919, 22863.47
1019.401, 22885.29
1019.883, 22809.48
1020.365, 22733.79
1020.847, 22726.09
1021.329, 22735.82
1021.811, 22707.17
1022.293, 22656.82
1022.776, 22625.65
1023.258, 22632.06
1023.740, 22639.79
1024.222, 22642.04
1024.704, 22650.16
1025.186, 22699.35
1025.668, 22768.11
1026.150, 22766.47
1026.632, 22675.78
1027.115, 22602.97
1027.597, 22635.13
1028.079, 22688.55
1028.561, 22704.46
1029.043, 22684.07
1029.525, 22679.70
1030.007, 22693.98
1030.489, 22702.69
1030.972, 22690.13
1031.454, 22671.01
1031.936, 22667.84
1032.418, 22673.56
1032.900, 22673.11
1033.382, 22652.81
1033.864, 22638.29
1034.346, 22630.40
1034.828, 22630.99
1035.311, 22650.16
1035.793, 22682.58
1036.275, 22688.78
1036.757, 22665.53
1037.239, 22637.36
1037.721, 22608.56
1038.203, 22592.24
1038.685, 22605.69
1039.167, 22644.88
1039.650, 22669.22
1040.132, 22676.27
1040.614, 22677.68
1041.096, 22675.27
1041.578, 22672.63
1042.060, 22689.28
1042.542, 22706.76
1043.024, 22684.62
1043.507, 22560.88
1043.989, 22500.75
1044.471, 22580.53
1044.953, 22676.84
1045.435, 22690.35
1045.917, 22627.86
1046.399, 22570.22
1046.881, 22520.06
1047.364, 22492.54
1047.846, 22518.90
1048.328, 22552.03
1048.810, 22556.58
1049.292, 22539.25
1049.774, 22537.19
1050.256, 22559.07
1050.738, 22563.50
1051.220, 22536.46
1051.703, 22504.51
1052.185, 22515.65
1052.667, 22545.56
1053.149, 22550.99
1053.631, 22517.98
1054.113, 22486.40
1054.595, 22456.04
1055.077, 22442.75
1055.559, 22462.78
1056.042, 22508.63
1056.524, 22528.60
1057.006, 22524.81
1057.488, 22514.58
1057.970, 22504.96
1058.452, 22494.29
1058.934, 22479.38
1059.416, 22463.22
1059.899, 22448.98
1060.381, 22429.50
1060.863, 22443.75
1061.345, 22503.61
1061.827, 22560.26
1062.309, 22556.01
1062.791, 22520.22
1063.273, 22499.71
1063.755, 22497.64
1064.238, 22477.13
1064.720, 22392.18
1065.202, 22334.74
1065.684, 22337.66
1066.166, 22382.50
1066.648, 22430.37
1067.130, 22476.12
1067.612, 22498.01
1068.094, 22482.21
1068.577, 22457.31
1069.059, 22425.53
1069.541, 22403.41
1070.023, 22411.60
1070.505, 22461.16
1070.987, 22466.77
1071.469, 22422.78
1071.951, 22390.70
1072.434, 22448.17
1072.916, 22515.25
1073.398, 22477.40
1073.880, 22365.21
1074.362, 22290.34
1074.844, 22288.35
1075.326, 22305.87
1075.808, 22344.46
1076.291, 22386.57
1076.773, 22413.79
1077.255, 22424.17
1077.737, 22403.38
1078.219, 22347.70
1078.701, 22302.37
1079.183, 22294.13
1079.665, 22299.92
1080.147, 22308.68
1080.630, 22320.28
1081.112, 22336.29
1081.594, 22356.38
1082.076, 22370.00
1082.558, 22371.54
1083.040, 22368.25
1083.522, 22370.18
1084.004, 22369.64
1084.486, 22354.23
1084.969, 22312.17
1085.451, 22285.43
1085.933, 22275.65
1086.415, 22275.82
1086.897, 22290.88
1087.379, 22307.20
1087.861, 22297.20
1088.343, 22265.68
1088.826, 22234.84
1089.308, 22194.42
1089.790, 22184.16
1090.272, 22225.41
1090.754, 22281.28
1091.236, 22286.18
1091.718, 22253.10
1092.200, 22246.42
1092.682, 22277.91
1093.165, 22303.46
1093.647, 22286.25
1094.129, 22262.66
1094.611, 22259.73
1095.093, 22272.68
1095.575, 22261.60
1096.057, 22225.43
1096.539, 22189.83
1097.022, 22158.81
1097.504, 22144.47
1097.986, 22183.12
1098.468, 22236.40
1098.950, 22247.34
1099.432, 22180.82
1099.914, 22145.00
1100.396, 22145.46
1100.879, 22160.29
1101.361, 22187.66
1101.843, 22212.35
1102.325, 22194.08
1102.807, 22144.97
1103.289, 22111.40
1103.771, 22124.82
1104.253, 22135.29
1104.735, 22127.25
1105.218, 22120.85
1105.700, 22159.27
1106.182, 22227.01
1106.664, 22240.24
1107.146, 22189.10
1107.628, 22137.47
1108.110, 22120.03
1108.592, 22117.66
1109.074, 22127.20
1109.557, 22142.36
1110.039, 22134.25
1110.521, 22102.38
1111.003, 22084.38
1111.485, 22098.06
1111.967, 22108.65
1112.449, 22064.68
1112.931, 22010.42
1113.414, 22000.11
1113.896, 22052.02
1114.378, 22073.63
1114.860, 22056.06
1115.342, 22047.91
1115.824, 22097.26
1116.306, 22154.96
1116.788, 22121.14
1117.271, 22036.85
1117.753, 21993.30
1118.235, 22090.53
1118.717, 22114.83
1119.199, 22018.96
1119.681, 21913.29
1120.163, 21925.46
1120.645, 22012.95
1121.127, 22048.79
1121.609, 22031.85
1122.092, 22011.63
1122.574, 22023.84
1123.056, 22021.61
1123.538, 21976.38
1124.020, 21918.58
1124.502, 21919.49
1124.984, 21970.04
1125.466, 21991.40
1125.949, 21967.21
1126.431, 21930.71
1126.913, 21884.01
1127.395, 21851.90
1127.877, 21866.78
1128.359, 21918.44
1128.841, 21915.59
1129.323, 21853.81
1129.806, 21819.20
1130.288, 21853.16
1130.770, 21904.80
1131.252, 21942.23
1131.734, 21956.79
1132.216, 21926.63
1132.698, 21820.59
1133.180, 21789.64
1133.662, 21852.64
1134.145, 21911.82
1134.627, 21883.49
1135.109, 21827.46
1135.591, 21850.77
1136.073, 21922.76
1136.555, 21965.19
1137.037, 21936.04
1137.519, 21902.82
1138.001, 21866.06
1138.484, 21833.55
1138.966, 21813.16
1139.448, 21803.71
1139.930, 21803.31
1140.412, 21811.68
1140.894, 21827.39
1141.376, 21868.72
1141.858, 21892.68
1142.341, 21886.87
1142.823, 21860.48
1143.305, 21819.07
1143.787, 21770.17
1144.269, 21752.76
1144.751, 21776.65
1145.233, 21794.62
1145.715, 21766.84
1146.198, 21738.77
1146.680, 21735.45
1147.162, 21752.36
1147.644, 21771.34
1148.126, 21791.93
1148.608, 21806.86
1149.090, 21813.85
1149.572, 21815.23
1150.054, 21804.73
1150.536, 21795.30
1151.019, 21805.28
1151.501, 21838.63
1151.983, 21826.26
1152.465, 21765.65
1152.947, 21720.89
1153.429, 21742.90
1153.911, 21777.77
1154.393, 21769.27
1154.876, 21739.48
1155.358, 21727.84
1155.840, 21743.62
1156.322, 21757.05
1156.804, 21767.59
1157.286, 21775.85
1157.768, 21785.00
1158.250, 21790.30
1158.733, 21782.28
1159.215, 21764.71
1159.697, 21752.79
1160.179, 21758.63
1160.661, 21745.79
1161.143, 21703.43
1161.625, 21660.40
1162.107, 21652.73
1162.589, 21665.48
1163.072, 21676.59
1163.554, 21683.91
1164.036, 21686.53
1164.518, 21681.33
1165.000, 21675.63
1165.482, 21669.08
1165.964, 21666.20
1166.446, 21690.26
1166.928, 21721.03
1167.411, 21705.24
1167.893, 21624.85
1168.375, 21558.84
1168.857, 21524.52
1169.339, 21523.31
1169.821, 21573.59
1170.303, 21645.55
1170.785, 21639.62
1171.268, 21579.78
1171.750, 21547.55
1172.232, 21582.72
1172.714, 21611.61
1173.196, 21591.99
1173.678, 21569.92
1174.160, 21579.27
1174.642, 21611.23
1175.125, 21597.37
1175.607, 21547.13
1176.089, 21513.60
1176.571, 21546.72
1177.053, 21568.54
1177.535, 21525.79
1178.017, 21470.07
1178.499, 21446.86
1178.981, 21455.81
1179.464, 21488.22
1179.946, 21541.32
1180.428, 21575.41
1180.910, 21536.79
1181.392, 21504.00
1181.874, 21541.46
1182.356, 21599.90
1182.838, 21597.82
1183.320, 21532.48
1183.803, 21488.52
1184.285, 21472.83
1184.767, 21465.76
1185.249, 21449.93
1185.731, 21439.64
1186.213, 21448.53
1186.695, 21470.65
1187.177, 21492.50
1187.660, 21515.15
1188.142, 21518.48
1188.624, 21497.61
1189.106, 21470.14
1189.588, 21438.84
1190.070, 21417.96
1190.552, 21426.43
1191.034, 21459.13
1191.516, 21479.50
1191.999, 21487.56
1192.481, 21479.89
1192.963, 21451.05
1193.445, 21423.89
1193.927, 21441.17
1194.409, 21458.13
1194.891, 21410.21
1195.373, 21292.01
1195.855, 21265.71
1196.338, 21343.31
1196.820, 21406.94
1197.302, 21406.39
1197.784, 21381.42
1198.266, 21358.17
1198.748, 21345.22
1199.230, 21362.02
1199.712, 21420.89
1200.195, 21426.35
1200.677, 21367.92
1201.159, 21330.93
1201.641, 21378.78
1202.123, 21448.78
1202.605, 21477.13
1203.087, 21475.21
1203.569, 21460.10
1204.052, 21426.91
1204.534, 21404.34
1205.016, 21393.61
1205.498, 21385.10
1205.980, 21372.11
1206.462, 21357.54
1206.944, 21345.99
1207.426, 21335.21
1207.908, 21319.55
1208.391, 21294.90
1208.873, 21272.80
1209.355, 21250.89
1209.837, 21245.80
1210.319, 21290.68
1210.801, 21345.26
1211.283, 21359.93
1211.765, 21343.74
1212.247, 21336.19
1212.730, 21359.13
1213.212, 21322.56
1213.694, 21202.11
1214.176, 21094.93
1214.658, 21106.74
1215.140, 21173.45
1215.622, 21243.23
1216.104, 21304.07
1216.587, 21307.14
1217.069, 21226.13
1217.551, 21175.80
1218.033, 21176.29
1218.515, 21204.79
1218.997, 21262.29
1219.479, 21315.84
1219.961, 21320.33
1220.443, 21275.97
1220.926, 21244.67
1221.408, 21230.78
1221.890, 21225.32
1222.372, 21229.17
1222.854, 21230.52
1223.336, 21208.97
1223.818, 21181.04
1224.300, 21165.59
1224.782, 21165.56
1225.265, 21170.96
1225.747, 21185.86
1226.229, 21182.58
1226.711, 21144.48
1227.193, 21107.40
1227.675, 21119.71
1228.157, 21154.94
1228.639, 21184.41
1229.122, 21204.96
1229.604, 21216.88
1230.086, 21221.28
1230.568, 21207.74
1231.050, 21162.84
1231.532, 21118.07
1232.014, 21118.28
1232.496, 21135.10
1232.979, 21130.94
1233.461, 21099.86
1233.943, 21078.33
1234.425, 21066.96
1234.907, 21060.79
1235.389, 21057.01
1235.871, 21058.35
1236.353, 21074.88
1236.835, 21094.15
1237.318, 21097.51
1237.800, 21081.70
1238.282, 21075.38
1238.764, 21079.18
1239.246, 21080.64
1239.728, 21079.11
1240.210, 21064.67
1240.692, 21006.52
1241.175, 20942.81
1241.657, 20930.15
1242.139, 20980.86
1242.621, 21000.73
1243.103, 20989.68
1243.585, 20977.17
1244.067, 20986.78
1244.549, 20995.24
1245.031, 20979.04
1245.514, 20956.51
1245.996, 20950.51
1246.478, 20960.88
1246.960, 21002.73
1247.442, 21073.70
1247.924, 21120.54
1248.406, 21089.54
1248.888, 21045.62
1249.370, 21020.41
1249.853, 21006.22
1250.335, 20995.13
1250.817, 20986.94
1251.299, 20961.03
1251.781, 20919.42
1252.263, 20901.99
1252.745, 20965.69
1253.227, 21020.85
1253.710, 21022.29
1254.192, 20997.90
1254.674, 20974.36
1255.156, 20953.70
1255.638, 20961.24
1256.120, 20994.14
1256.602, 21003.40
1257.084, 20924.99
1257.567, 20867.01
1258.049, 20872.87
1258.531, 20903.16
1259.013, 20897.25
1259.495, 20869.64
1259.977, 20886.92
1260.459, 20947.39
1260.941, 20975.53
1261.423, 20890.68
1261.906, 20834.06
1262.388, 20846.21
1262.870, 20884.07
1263.352, 20883.68
1263.834, 20861.63
1264.316, 20858.05
1264.798, 20874.86
1265.280, 20886.41
1265.762, 20884.98
1266.245, 20876.70
1266.727, 20860.80
1267.209, 20842.47
1267.691, 20828.40
1268.173, 20816.92
1268.655, 20797.48
1269.137, 20771.57
1269.619, 20785.86
1270.102, 20873.45
1270.584, 20917.56
1271.066, 20887.59
1271.548, 20828.01
1272.030, 20780.64
1272.512, 20745.84
1272.994, 20722.68
1273.476, 20713.17
1273.958, 20730.51
1274.441, 20784.07
1274.923, 20815.64
1275.405, 20809.25
1275.887, 20791.48
1276.369, 20780.08
1276.851, 20778.39
1277.333, 20802.17
1277.815, 20841.97
1278.297, 20834.60
1278.780, 20777.07
1279.262, 20737.65
1279.744, 20732.65
1280.226, 20745.35
1280.708, 20789.53
1281.190, 20820.55
1281.672, 20798.27
1282.154, 20738.45
1282.637, 20687.23
1283.119, 20646.47
1283.601, 20641.53
1284.083, 20683.22
1284.565, 20717.95
1285.047, 20712.85
1285.529, 20690.21
1286.011, 20651.29
1286.494, 20612.14
1286.976, 20632.04
1287.458, 20691.43
1287.940, 20721.98
1288.422, 20706.52
1288.904, 20689.60
1289.386, 20688.25
1289.868, 20687.58
1290.350, 20683.37
1290.833, 20676.47
1291.315, 20668.54
1291.797, 20659.25
1292.279, 20647.73
1292.761, 20633.61
1293.243, 20617.36
1293.725, 20590.43
1294.207, 20587.84
1294.689, 20632.99
1295.172, 20679.41
1295.654, 20641.06
1296.136, 20572.39
1296.618, 20548.84
1297.100, 20586.08
1297.582, 20607.71
1298.064, 20611.19
1298.546, 20616.64
1299.029, 20633.35
1299.511, 20644.42
1299.993, 20627.74
1300.475, 20599.99
1300.957, 20575.85
1301.439, 20555.91
1301.921, 20532.63
1302.403, 20506.82
1302.885, 20510.18
1303.368, 20563.01
1303.850, 20595.34
1304.332, 20529.68
1304.814, 20455.40
##END=



