##NAMES=Adamsite-(Y)
##RRUFFID=R070360
##IDEAL CHEMISTRY=NaY^3+^(CO_3_)_2_&#183;6H_2_O
##LOCALITY=Mont Saint-Hilaire, Rouville County, Quebec, Canada
##OWNER=Michael Scott
##SOURCE=Michael Scott
##DESCRIPTION=Aggregates of colorless acicular crystals associated with polylithionite and colorless prismatic leifite
##STATUS=The identification of this mineral has been confirmed by single-crystal X-ray diffraction.
##URL=rruff.info/R070360
171.8392, 17027.26
172.3213, 17093.57
172.8034, 17160.04
173.2856, 17234.20
173.7677, 17325.59
174.2498, 17431.66
174.7319, 17541.81
175.2140, 17647.27
175.6961, 17753.35
176.1783, 17868.54
176.6604, 17994.81
177.1425, 18127.36
177.6246, 18254.92
178.1067, 18379.11
178.5888, 18519.37
179.0710, 18696.33
179.5531, 18897.53
180.0352, 19094.40
180.5173, 19281.43
180.9994, 19457.54
181.4815, 19624.19
181.9637, 19782.12
182.4458, 19909.27
182.9279, 19983.15
183.4100, 20010.24
183.8921, 20016.59
184.3742, 20009.11
184.8564, 19985.89
185.3385, 19935.42
185.8206, 19855.20
186.3027, 19772.74
186.7848, 19716.29
187.2669, 19683.34
187.7491, 19652.43
188.2312, 19611.41
188.7133, 19566.53
189.1954, 19544.68
189.6775, 19549.86
190.1596, 19560.79
190.6418, 19541.88
191.1239, 19494.50
191.6060, 19468.44
192.0881, 19494.30
192.5702, 19565.39
193.0524, 19623.52
193.5345, 19667.47
194.0166, 19701.38
194.4987, 19724.65
194.9808, 19735.89
195.4629, 19757.69
195.9451, 19820.60
196.4272, 19923.56
196.9093, 19954.35
197.3914, 19893.96
197.8735, 19785.79
198.3556, 19711.65
198.8378, 19676.81
199.3199, 19644.06
199.8020, 19583.74
200.2841, 19491.98
200.7662, 19441.94
201.2483, 19447.92
201.7305, 19488.67
202.2126, 19517.34
202.6947, 19536.11
203.1768, 19534.63
203.6589, 19491.90
204.1410, 19396.50
204.6232, 19346.57
205.1053, 19361.71
205.5874, 19423.09
206.0695, 19467.54
206.5516, 19489.11
207.0337, 19509.33
207.5159, 19541.87
207.9980, 19586.50
208.4801, 19645.05
208.9622, 19730.61
209.4443, 19830.02
209.9264, 19871.05
210.4086, 19832.19
210.8907, 19778.04
211.3728, 19762.48
211.8549, 19800.64
212.3370, 19825.86
212.8191, 19830.47
213.3013, 19814.58
213.7834, 19776.44
214.2655, 19708.45
214.7476, 19630.12
215.2297, 19559.09
215.7118, 19497.84
216.1940, 19434.20
216.6761, 19361.37
217.1582, 19280.37
217.6403, 19222.98
218.1224, 19194.94
218.6045, 19183.64
219.0867, 19181.62
219.5688, 19200.04
220.0509, 19199.71
220.5330, 19162.26
221.0151, 19085.60
221.4972, 19050.73
221.9794, 19077.64
222.4615, 19123.60
222.9436, 19139.14
223.4257, 19099.68
223.9078, 19081.39
224.3899, 19108.73
224.8721, 19187.09
225.3542, 19243.65
225.8363, 19269.61
226.3184, 19282.61
226.8005, 19302.54
227.2827, 19326.97
227.7648, 19363.30
228.2469, 19417.48
228.7290, 19493.06
229.2111, 19557.63
229.6932, 19611.15
230.1754, 19652.93
230.6575, 19679.03
231.1396, 19672.85
231.6217, 19680.54
232.1038, 19719.05
232.5859, 19796.54
233.0681, 19862.91
233.5502, 19924.82
234.0323, 19970.74
234.5144, 19979.50
234.9965, 19923.91
235.4786, 19877.26
235.9608, 19866.66
236.4429, 19904.85
236.9250, 19919.42
237.4071, 19900.20
237.8892, 19863.49
238.3713, 19835.26
238.8535, 19821.32
239.3356, 19805.89
239.8177, 19780.83
240.2998, 19738.41
240.7819, 19717.41
241.2640, 19728.47
241.7462, 19754.39
242.2283, 19765.72
242.7104, 19757.40
243.1925, 19742.60
243.6746, 19723.04
244.1567, 19693.37
244.6389, 19679.40
245.1210, 19694.70
245.6031, 19717.67
246.0852, 19706.78
246.5673, 19640.29
247.0494, 19576.95
247.5316, 19538.19
248.0137, 19531.11
248.4958, 19524.53
248.9779, 19516.36
249.4600, 19509.92
249.9421, 19512.39
250.4243, 19528.39
250.9064, 19545.08
251.3885, 19559.13
251.8706, 19572.77
252.3527, 19574.95
252.8348, 19559.41
253.3170, 19536.32
253.7991, 19524.48
254.2812, 19525.04
254.7633, 19535.03
255.2454, 19558.64
255.7275, 19606.41
256.2097, 19624.11
256.6918, 19593.03
257.1739, 19544.53
257.6560, 19541.09
258.1381, 19605.35
258.6202, 19668.01
259.1024, 19699.39
259.5845, 19687.05
260.0666, 19696.20
260.5487, 19738.75
261.0308, 19793.74
261.5129, 19824.61
261.9951, 19827.33
262.4772, 19814.74
262.9593, 19786.84
263.4414, 19736.65
263.9235, 19703.37
264.4056, 19688.25
264.8878, 19688.64
265.3699, 19705.90
265.8520, 19752.26
266.3341, 19780.89
266.8162, 19767.78
267.2983, 19704.57
267.7805, 19654.22
268.2626, 19619.63
268.7447, 19595.20
269.2268, 19569.74
269.7089, 19540.04
270.1910, 19521.06
270.6732, 19525.41
271.1553, 19557.83
271.6374, 19563.17
272.1195, 19532.87
272.6016, 19488.04
273.0837, 19463.42
273.5659, 19461.34
274.0480, 19466.80
274.5301, 19479.35
275.0122, 19499.71
275.4943, 19499.43
275.9764, 19472.47
276.4586, 19436.16
276.9407, 19414.28
277.4228, 19407.42
277.9049, 19411.76
278.3870, 19430.69
278.8691, 19463.24
279.3513, 19483.97
279.8334, 19488.96
280.3155, 19492.24
280.7976, 19519.16
281.2798, 19571.06
281.7619, 19610.21
282.2440, 19617.96
282.7261, 19598.53
283.2082, 19583.57
283.6903, 19573.55
284.1725, 19566.25
284.6546, 19554.83
285.1367, 19540.01
285.6188, 19539.28
286.1009, 19568.12
286.5830, 19616.96
287.0652, 19640.17
287.5473, 19633.87
288.0294, 19623.96
288.5115, 19641.19
288.9936, 19682.74
289.4757, 19724.41
289.9579, 19759.87
290.4400, 19789.38
290.9221, 19813.07
291.4042, 19830.54
291.8863, 19847.09
292.3684, 19867.10
292.8506, 19890.44
293.3327, 19916.88
293.8148, 19947.68
294.2969, 19980.89
294.7790, 20012.41
295.2611, 20042.38
295.7433, 20074.79
296.2254, 20119.30
296.7075, 20170.35
297.1896, 20210.13
297.6717, 20228.73
298.1538, 20238.67
298.6360, 20260.09
299.1181, 20292.09
299.6002, 20321.81
300.0823, 20335.46
300.5644, 20340.55
301.0465, 20351.70
301.5287, 20374.72
302.0108, 20402.81
302.4929, 20433.34
302.9750, 20464.63
303.4571, 20485.21
303.9392, 20482.21
304.4214, 20465.64
304.9035, 20448.19
305.3856, 20431.70
305.8677, 20417.60
306.3498, 20407.13
306.8319, 20400.26
307.3141, 20396.84
307.7962, 20397.74
308.2783, 20401.65
308.7604, 20408.73
309.2425, 20422.44
309.7246, 20431.44
310.2068, 20428.27
310.6889, 20414.67
311.1710, 20395.28
311.6531, 20362.29
312.1352, 20330.46
312.6173, 20310.84
313.0995, 20306.35
313.5816, 20311.28
314.0637, 20335.83
314.5458, 20367.23
315.0279, 20381.73
315.5100, 20345.99
315.9922, 20309.22
316.4743, 20301.05
316.9564, 20332.35
317.4385, 20361.23
317.9206, 20374.14
318.4027, 20376.31
318.8849, 20375.04
319.3670, 20367.34
319.8491, 20360.89
320.3312, 20362.82
320.8133, 20377.49
321.2954, 20376.50
321.7776, 20342.64
322.2597, 20294.97
322.7418, 20253.85
323.2239, 20215.43
323.7060, 20190.53
324.1881, 20185.23
324.6703, 20201.17
325.1524, 20217.32
325.6345, 20238.24
326.1166, 20255.48
326.5987, 20262.09
327.0808, 20225.53
327.5630, 20216.80
328.0451, 20256.12
328.5272, 20340.63
329.0093, 20409.53
329.4914, 20468.37
329.9735, 20505.26
330.4557, 20507.65
330.9378, 20436.28
331.4199, 20400.35
331.9020, 20423.96
332.3841, 20491.99
332.8662, 20527.36
333.3484, 20507.41
333.8305, 20488.63
334.3126, 20510.48
334.7947, 20601.21
335.2768, 20639.66
335.7589, 20596.99
336.2411, 20511.32
336.7232, 20480.06
337.2053, 20516.05
337.6874, 20569.78
338.1695, 20625.45
338.6516, 20685.30
339.1338, 20719.43
339.6159, 20718.71
340.0980, 20705.37
340.5801, 20722.72
341.0622, 20775.54
341.5443, 20816.43
342.0265, 20819.90
342.5086, 20790.76
342.9907, 20774.18
343.4728, 20771.48
343.9549, 20776.80
344.4370, 20787.84
344.9192, 20803.27
345.4013, 20810.22
345.8834, 20797.95
346.3655, 20775.58
346.8476, 20766.88
347.3297, 20771.96
347.8119, 20786.56
348.2940, 20814.36
348.7761, 20849.60
349.2582, 20873.76
349.7403, 20876.81
350.2225, 20871.93
350.7046, 20878.39
351.1867, 20895.02
351.6688, 20912.20
352.1509, 20921.84
352.6331, 20927.96
353.1152, 20937.01
353.5973, 20952.02
354.0794, 20967.30
354.5615, 20975.40
355.0436, 20979.10
355.5258, 20986.83
356.0079, 21011.01
356.4900, 21036.95
356.9721, 21050.82
357.4542, 21047.90
357.9363, 21041.82
358.4185, 21036.44
358.9006, 21033.47
359.3827, 21035.86
359.8648, 21043.96
360.3469, 21058.35
360.8290, 21082.59
361.3112, 21119.13
361.7933, 21149.71
362.2754, 21161.26
362.7575, 21166.80
363.2396, 21180.51
363.7217, 21223.60
364.2039, 21256.97
364.6860, 21264.53
365.1681, 21245.81
365.6502, 21235.98
366.1323, 21243.48
366.6144, 21258.33
367.0966, 21273.74
367.5787, 21281.72
368.0608, 21299.92
368.5429, 21340.78
369.0250, 21396.46
369.5071, 21424.02
369.9893, 21396.46
370.4714, 21372.12
370.9535, 21380.07
371.4356, 21433.31
371.9177, 21491.88
372.3998, 21568.65
372.8820, 21643.88
373.3641, 21666.49
373.8462, 21616.14
374.3283, 21565.65
374.8104, 21539.27
375.2925, 21536.33
375.7747, 21570.93
376.2568, 21656.78
376.7389, 21753.63
377.2210, 21802.21
377.7031, 21799.22
378.1852, 21794.80
378.6674, 21799.74
379.1495, 21815.72
379.6316, 21856.63
380.1137, 21924.73
380.5958, 21994.23
381.0779, 22039.17
381.5601, 22063.85
382.0422, 22085.82
382.5243, 22107.97
383.0064, 22131.48
383.4885, 22162.41
383.9706, 22199.27
384.4528, 22228.76
384.9349, 22230.58
385.4170, 22222.23
385.8991, 22235.03
386.3812, 22278.17
386.8633, 22328.38
387.3455, 22361.00
387.8276, 22383.80
388.3097, 22415.20
388.7918, 22490.44
389.2739, 22560.99
389.7560, 22576.37
390.2382, 22527.38
390.7203, 22488.15
391.2024, 22518.34
391.6845, 22573.61
392.1666, 22603.18
392.6487, 22560.24
393.1309, 22516.34
393.6130, 22501.63
394.0951, 22514.15
394.5772, 22526.44
395.0593, 22518.07
395.5414, 22515.80
396.0236, 22536.61
396.5057, 22638.43
396.9878, 22697.52
397.4699, 22677.59
397.9520, 22603.00
398.4341, 22550.53
398.9163, 22528.99
399.3984, 22520.73
399.8805, 22524.25
400.3626, 22552.89
400.8447, 22550.14
401.3268, 22489.98
401.8090, 22417.68
402.2911, 22403.97
402.7732, 22478.56
403.2553, 22533.86
403.7374, 22535.62
404.2195, 22487.31
404.7017, 22451.08
405.1838, 22427.43
405.6659, 22414.39
406.1480, 22410.68
406.6301, 22416.26
407.1122, 22430.69
407.5944, 22457.63
408.0765, 22489.58
408.5586, 22507.85
409.0407, 22512.70
409.5228, 22512.67
410.0049, 22505.32
410.4871, 22497.21
410.9692, 22512.26
411.4513, 22558.37
411.9334, 22605.62
412.4155, 22617.07
412.8976, 22601.71
413.3798, 22585.38
413.8619, 22578.62
414.3440, 22577.43
414.8261, 22577.32
415.3082, 22578.20
415.7903, 22582.86
416.2725, 22598.56
416.7546, 22617.03
417.2367, 22629.11
417.7188, 22628.17
418.2009, 22624.12
418.6830, 22620.37
419.1652, 22616.90
419.6473, 22613.72
420.1294, 22607.59
420.6115, 22604.13
421.0937, 22606.54
421.5758, 22616.87
422.0579, 22629.65
422.5400, 22641.17
423.0221, 22655.33
423.5042, 22678.97
423.9864, 22723.25
424.4685, 22764.47
424.9506, 22798.69
425.4327, 22825.47
425.9148, 22843.61
426.3969, 22844.01
426.8791, 22846.10
427.3612, 22871.45
427.8433, 22934.29
428.3254, 22973.61
428.8075, 22972.85
429.2896, 22945.78
429.7718, 22938.26
430.2539, 22951.59
430.7360, 22976.68
431.2181, 23015.67
431.7002, 23066.56
432.1823, 23098.90
432.6645, 23109.36
433.1466, 23107.35
433.6287, 23104.38
434.1108, 23099.95
434.5929, 23090.98
435.0750, 23068.75
435.5572, 23044.49
436.0393, 23036.78
436.5214, 23045.45
437.0035, 23067.15
437.4856, 23115.40
437.9677, 23170.14
438.4499, 23201.01
438.9320, 23188.82
439.4141, 23170.57
439.8962, 23170.92
440.3783, 23185.58
440.8604, 23203.49
441.3426, 23218.87
441.8247, 23236.63
442.3068, 23260.47
442.7889, 23292.13
443.2710, 23323.34
443.7531, 23358.35
444.2353, 23389.20
444.7174, 23407.66
445.1995, 23399.03
445.6816, 23392.44
446.1637, 23393.55
446.6458, 23401.61
447.1280, 23408.09
447.6101, 23405.49
448.0922, 23409.64
448.5743, 23432.44
449.0564, 23488.69
449.5385, 23523.50
450.0207, 23529.63
450.5028, 23519.00
450.9849, 23511.06
451.4670, 23504.64
451.9491, 23507.40
452.4312, 23526.04
452.9134, 23557.85
453.3955, 23583.98
453.8776, 23604.75
454.3597, 23617.13
454.8418, 23611.35
455.3239, 23592.61
455.8061, 23582.42
456.2882, 23585.23
456.7703, 23599.21
457.2524, 23626.58
457.7345, 23664.35
458.2166, 23700.92
458.6988, 23737.68
459.1809, 23765.13
459.6630, 23763.00
460.1451, 23723.23
460.6272, 23699.03
461.1093, 23744.75
461.5915, 23819.29
462.0736, 23870.72
462.5557, 23869.08
463.0378, 23854.04
463.5199, 23826.37
464.0020, 23791.27
464.4842, 23783.60
464.9663, 23839.02
465.4484, 23902.99
465.9305, 23946.99
466.4126, 23961.03
466.8947, 23971.13
467.3769, 23971.52
467.8590, 23970.44
468.3411, 23984.29
468.8232, 24027.90
469.3053, 24055.77
469.7874, 24049.49
470.2696, 24011.84
470.7517, 23995.61
471.2338, 24004.58
471.7159, 24023.29
472.1980, 24039.72
472.6801, 24053.98
473.1623, 24069.74
473.6444, 24088.78
474.1265, 24107.29
474.6086, 24117.78
475.0907, 24121.18
475.5728, 24123.57
476.0550, 24133.65
476.5371, 24142.84
477.0192, 24130.02
477.5013, 24094.02
477.9834, 24067.33
478.4655, 24078.77
478.9477, 24113.47
479.4298, 24152.13
479.9119, 24192.79
480.3940, 24231.83
480.8761, 24271.74
481.3582, 24309.03
481.8404, 24332.96
482.3225, 24328.45
482.8046, 24319.34
483.2867, 24314.30
483.7688, 24311.62
484.2509, 24321.70
484.7331, 24347.78
485.2152, 24385.90
485.6973, 24434.62
486.1794, 24505.38
486.6615, 24567.10
487.1436, 24613.62
487.6258, 24648.01
488.1079, 24683.62
488.5900, 24718.67
489.0721, 24759.43
489.5542, 24814.32
490.0363, 24883.84
490.5185, 24935.53
491.0006, 24965.23
491.4827, 24986.74
491.9648, 25010.97
492.4470, 25039.87
492.9291, 25086.23
493.4112, 25167.82
493.8933, 25256.63
494.3754, 25294.11
494.8575, 25290.00
495.3397, 25303.32
495.8218, 25397.43
496.3039, 25518.07
496.7860, 25602.53
497.2681, 25635.27
497.7502, 25661.94
498.2324, 25717.77
498.7145, 25779.45
499.1966, 25816.34
499.6787, 25780.78
500.1608, 25757.51
500.6429, 25790.05
501.1251, 25872.92
501.6072, 25912.31
502.0893, 25884.75
502.5714, 25828.02
503.0535, 25755.40
503.5356, 25651.50
504.0178, 25570.28
504.4999, 25520.88
504.9820, 25486.62
505.4641, 25437.78
505.9462, 25368.70
506.4283, 25315.92
506.9105, 25295.13
507.3926, 25297.86
507.8747, 25292.71
508.3568, 25279.58
508.8389, 25259.06
509.3210, 25223.41
509.8032, 25180.47
510.2853, 25150.68
510.7674, 25136.53
511.2495, 25135.97
511.7316, 25162.55
512.2137, 25200.44
512.6959, 25217.19
513.1780, 25173.60
513.6601, 25125.97
514.1422, 25112.88
514.6243, 25130.54
515.1064, 25150.22
515.5886, 25163.28
516.0707, 25173.11
516.5528, 25180.12
517.0349, 25176.88
517.5170, 25186.66
517.9991, 25233.05
518.4813, 25285.24
518.9634, 25300.95
519.4455, 25247.67
519.9276, 25214.65
520.4097, 25227.90
520.8918, 25278.22
521.3740, 25302.25
521.8561, 25290.98
522.3382, 25283.24
522.8203, 25316.66
523.3024, 25386.64
523.7845, 25408.63
524.2667, 25367.68
524.7488, 25318.37
525.2309, 25338.42
525.7130, 25408.49
526.1951, 25459.89
526.6772, 25455.28
527.1594, 25433.90
527.6415, 25443.92
528.1236, 25478.65
528.6057, 25508.99
529.0878, 25498.63
529.5699, 25490.26
530.0521, 25528.65
530.5342, 25638.64
531.0163, 25709.13
531.4984, 25668.45
531.9805, 25586.40
532.4626, 25537.13
532.9448, 25558.03
533.4269, 25579.74
533.9090, 25601.07
534.3911, 25618.32
534.8732, 25611.22
535.3553, 25555.54
535.8375, 25521.38
536.3196, 25550.87
536.8017, 25649.20
537.2838, 25709.19
537.7659, 25729.54
538.2480, 25717.44
538.7302, 25654.84
539.2123, 25554.24
539.6944, 25512.21
540.1765, 25567.35
540.6586, 25657.46
541.1407, 25698.91
541.6229, 25701.59
542.1050, 25701.89
542.5871, 25716.02
543.0692, 25738.71
543.5513, 25768.40
544.0334, 25804.61
544.5156, 25837.16
544.9977, 25875.91
545.4798, 25900.60
545.9619, 25891.78
546.4440, 25796.47
546.9261, 25741.13
547.4083, 25770.62
547.8904, 25845.70
548.3725, 25895.18
548.8546, 25906.66
549.3367, 25912.92
549.8188, 25917.90
550.3010, 25922.83
550.7831, 25945.33
551.2652, 25990.86
551.7473, 26035.91
552.2294, 26058.14
552.7115, 26060.99
553.1937, 26083.71
553.6758, 26134.88
554.1579, 26183.19
554.6400, 26178.33
555.1221, 26137.90
555.6042, 26112.83
556.0864, 26130.63
556.5685, 26161.82
557.0506, 26173.65
557.5327, 26173.36
558.0148, 26187.87
558.4969, 26267.08
558.9791, 26337.49
559.4612, 26340.47
559.9433, 26250.67
560.4254, 26195.39
560.9075, 26230.71
561.3896, 26292.10
561.8718, 26320.90
562.3539, 26279.33
562.8360, 26272.12
563.3181, 26325.88
563.8002, 26409.55
564.2823, 26442.86
564.7645, 26413.12
565.2466, 26388.76
565.7287, 26398.17
566.2108, 26435.18
566.6929, 26475.53
567.1750, 26519.56
567.6572, 26551.76
568.1393, 26544.67
568.6214, 26518.22
569.1035, 26512.18
569.5856, 26533.89
570.0677, 26571.51
570.5499, 26637.25
571.0320, 26708.14
571.5141, 26748.44
571.9962, 26720.06
572.4783, 26683.52
572.9604, 26658.80
573.4426, 26645.51
573.9247, 26638.88
574.4068, 26633.48
574.8889, 26639.54
575.3710, 26664.09
575.8531, 26712.07
576.3353, 26750.60
576.8174, 26776.29
577.2995, 26796.97
577.7816, 26819.07
578.2637, 26842.25
578.7458, 26872.28
579.2280, 26915.06
579.7101, 26955.74
580.1922, 26955.40
580.6743, 26923.12
581.1564, 26910.26
581.6385, 26969.93
582.1207, 27046.81
582.6028, 27065.67
583.0849, 27031.24
583.5670, 26982.21
584.0491, 26913.79
584.5313, 26857.53
585.0134, 26842.84
585.4955, 26887.26
585.9776, 26929.95
586.4597, 26959.62
586.9418, 26977.78
587.4240, 26985.62
587.9061, 26980.99
588.3882, 26969.36
588.8703, 26944.46
589.3524, 26914.78
589.8345, 26908.46
590.3167, 26931.76
590.7988, 26954.15
591.2809, 26957.51
591.7630, 26948.14
592.2451, 26965.23
592.7272, 27010.05
593.2094, 27049.64
593.6915, 27050.01
594.1736, 27026.94
594.6557, 27008.72
595.1378, 26999.44
595.6199, 26998.78
596.1021, 27009.59
596.5842, 27028.16
597.0663, 27049.27
597.5485, 27068.89
598.0306, 27092.87
598.5127, 27132.47
598.9948, 27180.48
599.4769, 27206.50
599.9590, 27207.26
600.4412, 27187.88
600.9233, 27137.47
601.4054, 27050.35
601.8875, 27023.93
602.3696, 27075.03
602.8517, 27146.24
603.3339, 27191.15
603.8160, 27211.58
604.2981, 27223.97
604.7802, 27229.49
605.2623, 27229.18
605.7444, 27210.61
606.2266, 27186.23
606.7087, 27191.76
607.1908, 27277.47
607.6729, 27359.30
608.1550, 27346.39
608.6371, 27270.15
609.1193, 27232.16
609.6014, 27325.64
610.0835, 27422.14
610.5656, 27450.91
611.0477, 27395.71
611.5298, 27368.68
612.0120, 27398.87
612.4941, 27433.12
612.9762, 27432.14
613.4583, 27380.06
613.9404, 27350.99
614.4225, 27351.26
614.9047, 27369.58
615.3868, 27391.96
615.8689, 27418.51
616.3510, 27450.10
616.8331, 27493.74
617.3152, 27533.68
617.7974, 27533.98
618.2795, 27506.09
618.7616, 27494.32
619.2437, 27550.96
619.7258, 27612.24
620.2079, 27621.29
620.6901, 27575.76
621.1722, 27544.90
621.6543, 27563.78
622.1364, 27597.44
622.6185, 27623.54
623.1006, 27637.86
623.5828, 27650.91
624.0649, 27660.23
624.5470, 27670.52
625.0291, 27692.11
625.5112, 27731.03
625.9933, 27744.32
626.4755, 27712.41
626.9576, 27666.70
627.4397, 27681.26
627.9218, 27748.51
628.4039, 27810.54
628.8860, 27835.20
629.3682, 27840.18
629.8503, 27846.18
630.3324, 27853.33
630.8145, 27861.40
631.2966, 27868.49
631.7787, 27877.58
632.2609, 27890.65
632.7430, 27908.02
633.2251, 27929.18
633.7072, 27972.42
634.1893, 28007.62
634.6714, 28007.09
635.1536, 27945.84
635.6357, 27904.03
636.1178, 27890.38
636.5999, 27896.02
637.0820, 27906.26
637.5641, 27921.00
638.0463, 27942.61
638.5284, 27975.77
639.0105, 28013.02
639.4926, 28043.12
639.9747, 28065.56
640.4568, 28077.01
640.9390, 28057.36
641.4211, 28037.78
641.9032, 28054.43
642.3853, 28109.64
642.8674, 28156.02
643.3495, 28172.19
643.8317, 28174.45
644.3138, 28174.77
644.7959, 28181.05
645.2780, 28168.59
645.7601, 28108.96
646.2422, 28055.50
646.7244, 28086.76
647.2065, 28227.89
647.6886, 28319.23
648.1707, 28323.07
648.6528, 28276.20
649.1349, 28240.63
649.6171, 28217.25
650.0992, 28210.84
650.5813, 28231.08
651.0634, 28264.89
651.5455, 28302.29
652.0276, 28341.46
652.5098, 28370.90
652.9919, 28373.17
653.4740, 28372.65
653.9561, 28386.09
654.4382, 28418.08
654.9203, 28446.05
655.4025, 28481.99
655.8846, 28501.17
656.3667, 28479.69
656.8488, 28390.92
657.3309, 28343.81
657.8130, 28349.71
658.2952, 28383.46
658.7773, 28413.48
659.2594, 28440.29
659.7415, 28470.27
660.2236, 28513.53
660.7057, 28546.63
661.1879, 28509.60
661.6700, 28431.71
662.1521, 28395.36
662.6342, 28486.99
663.1163, 28592.72
663.5984, 28639.20
664.0806, 28631.66
664.5627, 28628.24
665.0448, 28647.29
665.5269, 28669.78
666.0090, 28688.85
666.4911, 28704.68
666.9733, 28712.64
667.4554, 28707.25
667.9375, 28704.86
668.4196, 28722.48
668.9017, 28759.35
669.3839, 28788.98
669.8660, 28808.68
670.3481, 28822.20
670.8302, 28834.53
671.3123, 28843.84
671.7944, 28844.37
672.2766, 28823.59
672.7587, 28811.12
673.2408, 28836.93
673.7229, 28883.63
674.2050, 28917.65
674.6871, 28912.41
675.1693, 28912.09
675.6514, 28927.98
676.1335, 28958.62
676.6156, 29002.01
677.0977, 29075.52
677.5798, 29121.30
678.0620, 29099.90
678.5441, 29021.16
679.0262, 28982.52
679.5083, 28984.80
679.9904, 29009.00
680.4725, 29050.80
680.9547, 29100.71
681.4368, 29146.34
681.9189, 29187.17
682.4010, 29210.87
682.8831, 29184.24
683.3652, 29148.02
683.8474, 29145.91
684.3295, 29228.62
684.8116, 29280.51
685.2937, 29256.18
685.7758, 29204.98
686.2579, 29194.96
686.7401, 29250.51
687.2222, 29277.56
687.7043, 29248.96
688.1864, 29191.95
688.6685, 29165.17
689.1506, 29168.60
689.6328, 29203.31
690.1149, 29301.71
690.5970, 29411.21
691.0791, 29451.75
691.5612, 29431.10
692.0433, 29388.91
692.5255, 29316.21
693.0076, 29252.57
693.4897, 29224.56
693.9718, 29236.25
694.4539, 29259.10
694.9360, 29316.90
695.4182, 29358.94
695.9003, 29352.46
696.3824, 29281.08
696.8645, 29230.05
697.3466, 29200.24
697.8287, 29188.46
698.3109, 29198.65
698.7930, 29226.25
699.2751, 29245.57
699.7572, 29249.76
700.2393, 29253.08
700.7214, 29272.91
701.2036, 29301.52
701.6857, 29325.94
702.1678, 29336.29
702.6499, 29347.83
703.1320, 29380.46
703.6141, 29418.13
704.0963, 29417.43
704.5784, 29325.49
705.0605, 29276.22
705.5426, 29320.54
706.0247, 29427.78
706.5068, 29448.25
706.9890, 29370.87
707.4711, 29300.98
707.9532, 29301.60
708.4353, 29347.95
708.9174, 29374.89
709.3995, 29384.97
709.8817, 29402.37
710.3638, 29460.96
710.8459, 29522.84
711.3280, 29544.13
711.8101, 29513.34
712.2922, 29508.95
712.7744, 29581.61
713.2565, 29667.20
713.7386, 29719.93
714.2207, 29714.48
714.7028, 29750.02
715.1849, 29853.85
715.6671, 29951.74
716.1492, 29931.61
716.6313, 29808.43
717.1134, 29774.17
717.5955, 29882.71
718.0776, 30020.84
718.5598, 30037.23
719.0419, 29983.22
719.5240, 29958.50
720.0061, 30016.63
720.4882, 30089.72
720.9703, 30163.92
721.4525, 30229.60
721.9346, 30264.98
722.4167, 30236.83
722.8988, 30219.06
723.3809, 30232.95
723.8630, 30266.66
724.3452, 30266.42
724.8273, 30226.00
725.3094, 30196.58
725.7915, 30211.10
726.2736, 30250.80
726.7557, 30268.31
727.2379, 30265.30
727.7200, 30255.10
728.2021, 30239.39
728.6842, 30225.10
729.1663, 30226.93
729.6484, 30247.08
730.1306, 30237.70
730.6127, 30134.31
731.0948, 30040.41
731.5769, 30016.98
732.0590, 30086.25
732.5411, 30131.87
733.0233, 30148.91
733.5054, 30153.37
733.9875, 30160.50
734.4696, 30168.83
734.9517, 30165.72
735.4338, 30148.31
735.9160, 30128.22
736.3981, 30124.38
736.8802, 30123.26
737.3623, 30100.58
737.8444, 30025.00
738.3266, 29975.58
738.8087, 30005.98
739.2908, 30072.36
739.7729, 30110.10
740.2551, 30101.25
740.7372, 30091.53
741.2193, 30083.30
741.7014, 30079.25
742.1835, 30094.40
742.6656, 30129.13
743.1478, 30132.54
743.6299, 30069.81
744.1120, 29990.31
744.5941, 29976.81
745.0762, 30013.27
745.5583, 30049.48
746.0405, 30053.79
746.5226, 30057.27
747.0047, 30084.85
747.4868, 30130.01
747.9689, 30151.82
748.4510, 30116.62
748.9332, 30095.13
749.4153, 30116.39
749.8974, 30175.04
750.3795, 30206.64
750.8616, 30208.43
751.3438, 30203.90
751.8259, 30200.08
752.3080, 30202.33
752.7901, 30232.22
753.2722, 30288.09
753.7543, 30333.33
754.2365, 30323.90
754.7186, 30307.30
755.2007, 30326.46
755.6828, 30394.50
756.1649, 30448.35
756.6470, 30450.05
757.1292, 30459.64
757.6113, 30519.76
758.0934, 30648.90
758.5755, 30738.47
759.0576, 30777.70
759.5397, 30816.03
760.0219, 30927.96
760.5040, 31083.01
760.9861, 31170.29
761.4682, 31159.98
761.9503, 31147.24
762.4324, 31207.58
762.9146, 31308.29
763.3967, 31412.39
763.8788, 31522.07
764.3609, 31616.18
764.8430, 31675.08
765.3251, 31725.07
765.8073, 31799.31
766.2894, 31906.42
766.7715, 32000.00
767.2536, 32066.48
767.7357, 32129.16
768.2178, 32251.51
768.7000, 32410.84
769.1821, 32511.00
769.6642, 32520.02
770.1463, 32462.30
770.6284, 32341.86
771.1105, 32172.04
771.5927, 31978.63
772.0748, 31734.40
772.5569, 31507.14
773.0390, 31309.56
773.5211, 31141.04
774.0032, 31005.41
774.4854, 30906.04
774.9675, 30827.45
775.4496, 30766.74
775.9317, 30722.38
776.4138, 30694.39
776.8959, 30680.96
777.3781, 30670.83
777.8602, 30650.10
778.3423, 30636.71
778.8244, 30653.33
779.3065, 30692.45
779.7886, 30721.91
780.2708, 30693.66
780.7529, 30697.24
781.2350, 30790.12
781.7171, 30953.76
782.1992, 31000.53
782.6813, 30903.67
783.1635, 30794.46
783.6456, 30732.68
784.1277, 30711.20
784.6098, 30717.60
785.0919, 30748.12
785.5740, 30766.03
786.0562, 30726.51
786.5383, 30679.70
787.0204, 30668.28
787.5025, 30694.77
787.9846, 30730.23
788.4667, 30749.70
788.9489, 30796.56
789.4310, 30914.85
789.9131, 31114.04
790.3952, 31171.74
790.8773, 31063.81
791.3594, 30924.86
791.8416, 30850.47
792.3237, 30823.51
792.8058, 30797.76
793.2879, 30770.94
793.7700, 30760.53
794.2521, 30801.58
794.7343, 30848.68
795.2164, 30861.60
795.6985, 30827.67
796.1806, 30794.71
796.6627, 30750.23
797.1448, 30727.02
797.6270, 30759.04
798.1091, 30859.44
798.5912, 30903.33
799.0733, 30883.71
799.5554, 30842.71
800.0375, 30810.57
800.5197, 30789.31
801.0018, 30786.30
801.4839, 30804.57
801.9660, 30824.09
802.4481, 30828.61
802.9302, 30831.62
803.4124, 30846.92
803.8945, 30893.70
804.3766, 30910.82
804.8587, 30882.38
805.3408, 30845.23
805.8229, 30833.36
806.3051, 30846.61
806.7872, 30861.66
807.2693, 30876.30
807.7514, 30894.63
808.2335, 30917.90
808.7156, 30948.88
809.1978, 31000.07
809.6799, 31090.81
810.1620, 31144.97
810.6441, 31095.90
811.1262, 31014.69
811.6083, 30970.45
812.0905, 30970.95
812.5726, 30999.45
813.0547, 31071.32
813.5368, 31140.34
814.0189, 31132.50
814.5010, 31065.64
814.9832, 31055.53
815.4653, 31132.94
815.9474, 31208.74
816.4295, 31179.74
816.9116, 31109.83
817.3937, 31080.38
817.8759, 31134.10
818.3580, 31184.26
818.8401, 31207.56
819.3222, 31223.19
819.8043, 31254.73
820.2864, 31313.79
820.7686, 31327.47
821.2507, 31277.51
821.7328, 31216.46
822.2149, 31224.87
822.6970, 31275.50
823.1791, 31297.08
823.6613, 31266.48
824.1434, 31228.11
824.6255, 31188.83
825.1076, 31168.23
825.5897, 31188.70
826.0718, 31308.91
826.5540, 31392.02
827.0361, 31430.24
827.5182, 31441.21
828.0003, 31438.14
828.4824, 31421.38
828.9645, 31429.30
829.4467, 31475.75
829.9288, 31512.96
830.4109, 31465.68
830.8930, 31379.91
831.3751, 31326.23
831.8572, 31329.93
832.3394, 31352.07
832.8215, 31395.70
833.3036, 31442.38
833.7857, 31471.99
834.2678, 31478.78
834.7499, 31482.97
835.2321, 31483.41
835.7142, 31486.78
836.1963, 31507.94
836.6784, 31540.06
837.1605, 31556.94
837.6426, 31552.38
838.1248, 31537.17
838.6069, 31496.78
839.0890, 31461.20
839.5711, 31467.59
840.0532, 31568.05
840.5353, 31627.09
841.0175, 31616.88
841.4996, 31583.97
841.9817, 31575.47
842.4638, 31592.32
842.9459, 31605.69
843.4280, 31611.33
843.9102, 31621.28
844.3923, 31664.20
844.8744, 31715.34
845.3565, 31726.01
845.8386, 31669.57
846.3207, 31637.54
846.8029, 31707.97
847.2850, 31792.40
847.7671, 31807.59
848.2492, 31704.79
848.7313, 31669.46
849.2134, 31720.88
849.6956, 31791.31
850.1777, 31812.56
850.6598, 31796.53
851.1419, 31781.94
851.6240, 31772.71
852.1061, 31771.79
852.5883, 31777.46
853.0704, 31794.82
853.5525, 31833.46
854.0346, 31908.80
854.5167, 31959.15
854.9988, 31975.22
855.4810, 31974.17
855.9631, 31962.38
856.4452, 31939.45
856.9273, 31937.24
857.4094, 31958.12
857.8915, 31977.31
858.3737, 31963.43
858.8558, 31939.71
859.3379, 31936.28
859.8200, 31957.56
860.3021, 31985.55
860.7842, 32021.41
861.2664, 32055.06
861.7485, 32086.20
862.2306, 32118.65
862.7127, 32097.27
863.1948, 32004.46
863.6769, 31934.57
864.1591, 31970.33
864.6412, 32074.97
865.1233, 32178.72
865.6054, 32276.60
866.0875, 32331.06
866.5696, 32286.70
867.0518, 32220.31
867.5339, 32175.97
868.0160, 32157.68
868.4981, 32153.28
868.9802, 32167.82
869.4623, 32185.25
869.9445, 32198.85
870.4266, 32209.06
870.9087, 32213.83
871.3908, 32214.62
871.8729, 32225.82
872.3550, 32266.26
872.8372, 32312.71
873.3193, 32348.48
873.8014, 32373.61
874.2835, 32390.04
874.7656, 32376.05
875.2477, 32382.95
875.7299, 32443.44
876.2120, 32530.32
876.6941, 32517.97
877.1762, 32406.77
877.6583, 32327.52
878.1404, 32352.26
878.6226, 32423.89
879.1047, 32480.37
879.5869, 32522.66
880.0690, 32554.62
880.5511, 32578.05
881.0332, 32590.29
881.5153, 32573.32
881.9974, 32550.12
882.4796, 32578.32
882.9617, 32673.51
883.4438, 32726.68
883.9259, 32698.71
884.4080, 32643.93
884.8901, 32650.92
885.3723, 32698.44
885.8544, 32737.78
886.3365, 32755.17
886.8186, 32755.70
887.3007, 32718.95
887.7828, 32676.00
888.2650, 32672.95
888.7471, 32732.44
889.2292, 32770.48
889.7113, 32775.75
890.1934, 32768.20
890.6755, 32774.41
891.1577, 32789.43
891.6398, 32793.09
892.1219, 32776.47
892.6040, 32775.38
893.0861, 32838.71
893.5682, 32915.18
894.0504, 32953.94
894.5325, 32927.21
895.0146, 32915.17
895.4967, 32922.01
895.9788, 32935.76
896.4609, 32945.51
896.9431, 32952.89
897.4252, 32971.73
897.9073, 33002.93
898.3894, 33027.37
898.8715, 33023.21
899.3536, 33011.74
899.8358, 33018.71
900.3179, 33050.09
900.8000, 33043.44
901.2821, 32953.20
901.7642, 32883.83
902.2463, 32889.81
902.7285, 32960.00
903.2106, 33014.63
903.6927, 33053.60
904.1748, 33081.63
904.6569, 33091.51
905.1390, 33099.78
905.6212, 33129.22
906.1033, 33173.35
906.5854, 33204.58
907.0675, 33200.37
907.5496, 33200.29
908.0317, 33218.88
908.5139, 33245.96
908.9960, 33238.43
909.4781, 33196.14
909.9602, 33194.36
910.4423, 33283.00
910.9244, 33386.32
911.4066, 33407.13
911.8887, 33376.94
912.3708, 33353.95
912.8529, 33376.17
913.3350, 33383.00
913.8171, 33357.21
914.2993, 33316.05
914.7814, 33272.63
915.2635, 33223.43
915.7456, 33228.61
916.2277, 33307.59
916.7098, 33394.95
917.1920, 33409.29
917.6741, 33384.50
918.1562, 33369.78
918.6383, 33378.37
919.1204, 33386.10
919.6025, 33373.17
920.0847, 33367.64
920.5668, 33391.33
921.0489, 33449.90
921.5310, 33502.79
922.0131, 33551.68
922.4952, 33580.09
922.9774, 33553.69
923.4595, 33508.32
923.9416, 33502.12
924.4237, 33535.82
924.9058, 33565.47
925.3879, 33550.75
925.8701, 33553.67
926.3522, 33619.41
926.8343, 33732.32
927.3164, 33752.57
927.7985, 33670.12
928.2806, 33588.33
928.7628, 33550.96
929.2449, 33545.87
929.7270, 33560.47
930.2091, 33591.55
930.6912, 33630.79
931.1733, 33685.18
931.6555, 33735.00
932.1376, 33788.52
932.6197, 33827.36
933.1018, 33806.82
933.5839, 33714.03
934.0660, 33661.63
934.5482, 33677.35
935.0303, 33715.07
935.5124, 33706.37
935.9945, 33680.19
936.4766, 33691.34
936.9587, 33770.02
937.4409, 33837.89
937.9230, 33865.97
938.4051, 33876.61
938.8872, 33886.85
939.3693, 33898.30
939.8514, 33894.64
940.3336, 33872.34
940.8157, 33861.42
941.2978, 33905.89
941.7799, 33968.04
942.2620, 33984.02
942.7441, 33953.51
943.2263, 33940.02
943.7084, 33997.09
944.1905, 34045.13
944.6726, 34046.34
945.1547, 34010.36
945.6368, 34001.72
946.1190, 34022.48
946.6011, 34032.26
947.0832, 33989.22
947.5653, 33951.68
948.0474, 34024.94
948.5295, 34163.20
949.0117, 34259.88
949.4938, 34246.64
949.9759, 34226.38
950.4580, 34209.02
950.9401, 34202.71
951.4222, 34226.11
951.9044, 34279.99
952.3865, 34326.51
952.8686, 34363.87
953.3507, 34372.36
953.8328, 34297.27
954.3149, 34196.82
954.7971, 34145.84
955.2792, 34169.13
955.7613, 34206.19
956.2434, 34256.31
956.7255, 34306.38
957.2076, 34350.42
957.6898, 34388.40
958.1719, 34415.02
958.6540, 34430.47
959.1361, 34434.20
959.6182, 34417.50
960.1003, 34395.60
960.5825, 34374.56
961.0646, 34358.25
961.5467, 34366.66
962.0288, 34421.45
962.5109, 34473.35
962.9930, 34508.72
963.4752, 34534.98
963.9573, 34581.16
964.4394, 34639.03
964.9215, 34653.39
965.4036, 34578.11
965.8857, 34510.41
966.3679, 34538.66
966.8500, 34617.08
967.3321, 34687.88
967.8142, 34762.60
968.2963, 34787.31
968.7784, 34746.72
969.2606, 34686.09
969.7427, 34639.90
970.2248, 34611.87
970.7069, 34625.75
971.1890, 34682.60
971.6711, 34733.02
972.1533, 34728.09
972.6354, 34719.07
973.1175, 34745.79
973.5996, 34808.34
974.0817, 34852.48
974.5638, 34874.30
975.0460, 34891.05
975.5281, 34907.65
976.0102, 34926.12
976.4923, 34958.96
976.9744, 34997.98
977.4565, 35019.11
977.9387, 34991.75
978.4208, 34968.21
978.9029, 34964.29
979.3850, 34976.14
979.8671, 35002.37
980.3492, 35046.86
980.8314, 35082.92
981.3135, 35108.00
981.7956, 35122.91
982.2777, 35118.48
982.7598, 35109.34
983.2419, 35121.48
983.7241, 35162.77
984.2062, 35190.10
984.6883, 35182.18
985.1704, 35164.59
985.6525, 35139.27
986.1346, 35110.54
986.6168, 35131.92
987.0989, 35202.04
987.5810, 35278.21
988.0631, 35350.14
988.5452, 35405.11
989.0273, 35434.64
989.5095, 35437.26
989.9916, 35406.68
990.4737, 35296.31
990.9558, 35224.71
991.4379, 35211.20
991.9200, 35234.91
992.4022, 35273.39
992.8843, 35322.47
993.3664, 35369.58
993.8485, 35414.92
994.3306, 35439.26
994.8127, 35390.08
995.2949, 35340.62
995.7770, 35372.08
996.2591, 35507.43
996.7412, 35559.68
997.2233, 35503.55
997.7054, 35454.97
998.1876, 35504.92
998.6697, 35603.33
999.1518, 35646.19
999.6339, 35639.30
1000.116, 35607.56
1000.598, 35542.25
1001.080, 35476.07
1001.562, 35399.86
1002.044, 35338.61
1002.527, 35350.37
1003.009, 35441.56
1003.491, 35508.63
1003.973, 35527.57
1004.455, 35536.40
1004.937, 35590.83
1005.419, 35652.76
1005.901, 35666.74
1006.384, 35606.70
1006.866, 35571.00
1007.348, 35590.18
1007.830, 35605.54
1008.312, 35567.43
1008.794, 35494.75
1009.276, 35521.13
1009.758, 35633.41
1010.240, 35722.55
1010.723, 35697.48
1011.205, 35656.28
1011.687, 35661.95
1012.169, 35699.04
1012.651, 35723.18
1013.133, 35733.83
1013.615, 35727.13
1014.097, 35696.26
1014.580, 35664.52
1015.062, 35655.79
1015.544, 35671.98
1016.026, 35730.95
1016.508, 35849.05
1016.990, 35928.80
1017.472, 35906.33
1017.954, 35854.73
1018.436, 35807.10
1018.919, 35765.04
1019.401, 35767.50
1019.883, 35814.61
1020.365, 35850.92
1020.847, 35821.36
1021.329, 35784.95
1021.811, 35812.89
1022.293, 35879.35
1022.776, 35920.12
1023.258, 35889.88
1023.740, 35893.11
1024.222, 35957.86
1024.704, 36029.31
1025.186, 36019.85
1025.668, 35953.02
1026.150, 35906.29
1026.632, 35890.14
1027.115, 35896.10
1027.597, 35942.19
1028.079, 35989.08
1028.561, 36009.29
1029.043, 36003.86
1029.525, 35988.49
1030.007, 35958.60
1030.489, 35961.77
1030.972, 36050.91
1031.454, 36150.20
1031.936, 36132.39
1032.418, 36046.56
1032.900, 35998.18
1033.382, 36053.41
1033.864, 36102.73
1034.346, 36135.71
1034.828, 36157.25
1035.311, 36167.01
1035.793, 36168.16
1036.275, 36187.24
1036.757, 36226.68
1037.239, 36253.59
1037.721, 36236.29
1038.203, 36205.45
1038.685, 36176.53
1039.167, 36152.05
1039.650, 36142.16
1040.132, 36146.66
1040.614, 36168.75
1041.096, 36215.06
1041.578, 36269.25
1042.060, 36310.99
1042.542, 36339.15
1043.024, 36349.53
1043.507, 36320.95
1043.989, 36314.88
1044.471, 36353.72
1044.953, 36404.58
1045.435, 36443.23
1045.917, 36470.55
1046.399, 36503.17
1046.881, 36540.51
1047.364, 36568.38
1047.846, 36557.16
1048.328, 36551.68
1048.810, 36594.24
1049.292, 36671.11
1049.774, 36717.65
1050.256, 36725.51
1050.738, 36732.89
1051.220, 36751.09
1051.703, 36761.64
1052.185, 36719.97
1052.667, 36658.20
1053.149, 36628.50
1053.631, 36641.04
1054.113, 36687.40
1054.595, 36792.73
1055.077, 36900.67
1055.559, 36985.23
1056.042, 37047.60
1056.524, 37096.98
1057.006, 37134.58
1057.488, 37170.20
1057.970, 37174.32
1058.452, 37214.24
1058.934, 37323.74
1059.416, 37504.12
1059.899, 37753.25
1060.381, 38087.94
1060.863, 38419.75
1061.345, 38733.10
1061.827, 39084.22
1062.309, 39554.79
1062.791, 40095.81
1063.273, 40639.31
1063.755, 41182.48
1064.238, 41703.96
1064.720, 42178.86
1065.202, 42666.46
1065.684, 43187.96
1066.166, 43725.58
1066.648, 44224.52
1067.130, 44684.36
1067.612, 45141.78
1068.094, 45606.98
1068.577, 46075.30
1069.059, 46643.07
1069.541, 47147.66
1070.023, 47477.05
1070.505, 47667.07
1070.987, 47451.36
1071.469, 46810.92
1071.951, 45936.64
1072.434, 44794.06
1072.916, 43603.99
1073.398, 42589.01
1073.880, 41734.56
1074.362, 40983.14
1074.844, 40312.83
1075.326, 39735.60
1075.808, 39245.84
1076.291, 38852.57
1076.773, 38579.44
1077.255, 38408.02
1077.737, 38309.73
1078.219, 38285.12
1078.701, 38258.19
1079.183, 38187.64
1079.665, 38107.82
1080.147, 38026.69
1080.630, 37950.63
1081.112, 37923.89
1081.594, 37944.73
1082.076, 37958.49
1082.558, 37937.23
1083.040, 37915.38
1083.522, 37918.35
1084.004, 37941.84
1084.486, 37986.31
1084.969, 38082.77
1085.451, 38104.55
1085.933, 38034.24
1086.415, 37954.33
1086.897, 37927.32
1087.379, 37933.12
1087.861, 37940.09
1088.343, 37948.46
1088.826, 37962.89
1089.308, 38018.39
1089.790, 38028.93
1090.272, 37953.58
1090.754, 37859.31
1091.236, 37858.72
1091.718, 37933.54
1092.200, 38006.39
1092.682, 38066.69
1093.165, 38105.64
1093.647, 38107.85
1094.129, 38095.10
1094.611, 38079.61
1095.093, 38061.83
1095.575, 38035.74
1096.057, 38000.18
1096.539, 37985.59
1097.022, 38006.05
1097.504, 38046.70
1097.986, 38112.73
1098.468, 38180.84
1098.950, 38218.29
1099.432, 38218.58
1099.914, 38181.12
1100.396, 38085.32
1100.879, 38020.46
1101.361, 38088.86
1101.843, 38215.65
1102.325, 38241.26
1102.807, 38192.83
1103.289, 38176.13
1103.771, 38278.53
1104.253, 38348.52
1104.735, 38342.50
1105.218, 38317.70
1105.700, 38362.66
1106.182, 38461.14
1106.664, 38533.83
1107.146, 38572.61
1107.628, 38600.01
1108.110, 38609.21
1108.592, 38631.95
1109.074, 38672.72
1109.557, 38741.38
1110.039, 38889.21
1110.521, 39118.24
1111.003, 39355.34
1111.485, 39556.19
1111.967, 39819.53
1112.449, 40263.00
1112.931, 40800.57
1113.414, 41345.72
1113.896, 41880.20
1114.378, 42464.70
1114.860, 43111.00
1115.342, 43756.32
1115.824, 44370.73
1116.306, 44958.16
1116.788, 45517.57
1117.271, 46053.66
1117.753, 46585.82
1118.235, 47103.19
1118.717, 47639.44
1119.199, 48212.79
1119.681, 48780.21
1120.163, 49384.77
1120.645, 49936.59
1121.127, 50223.43
1121.609, 50221.34
1122.092, 49815.03
1122.574, 48710.07
1123.056, 47458.94
1123.538, 46178.67
1124.020, 44931.76
1124.502, 43835.42
1124.984, 42885.45
1125.466, 42039.18
1125.949, 41302.46
1126.431, 40681.95
1126.913, 40189.81
1127.395, 39817.66
1127.877, 39579.59
1128.359, 39459.34
1128.841, 39403.39
1129.323, 39417.91
1129.806, 39369.45
1130.288, 39170.45
1130.770, 38973.77
1131.252, 38955.99
1131.734, 39024.41
1132.216, 39061.08
1132.698, 39047.61
1133.180, 39010.93
1133.662, 38941.24
1134.145, 38890.88
1134.627, 38906.41
1135.109, 38952.67
1135.591, 38983.52
1136.073, 38999.46
1136.555, 39000.97
1137.037, 38963.79
1137.519, 38949.88
1138.001, 38966.61
1138.484, 38999.11
1138.966, 39041.22
1139.448, 39084.68
1139.930, 39106.75
1140.412, 39107.91
1140.894, 39102.43
1141.376, 39099.39
1141.858, 39083.61
1142.341, 39037.74
1142.823, 38991.70
1143.305, 39014.65
1143.787, 39088.30
1144.269, 39127.51
1144.751, 39115.39
1145.233, 39098.69
1145.715, 39088.68
1146.198, 39098.86
1146.680, 39145.30
1147.162, 39215.48
1147.644, 39249.82
1148.126, 39249.57
1148.608, 39228.82
1149.090, 39184.27
1149.572, 39141.11
1150.054, 39099.92
1150.536, 39083.00
1151.019, 39124.70
1151.501, 39232.70
1151.983, 39268.31
1152.465, 39228.60
1152.947, 39194.27
1153.429, 39214.95
1153.911, 39253.66
1154.393, 39275.98
1154.876, 39291.61
1155.358, 39321.63
1155.840, 39388.32
1156.322, 39397.89
1156.804, 39338.79
1157.286, 39276.76
1157.768, 39259.59
1158.250, 39273.54
1158.733, 39313.18
1159.215, 39370.05
1159.697, 39415.82
1160.179, 39442.71
1160.661, 39464.81
1161.143, 39480.45
1161.625, 39501.20
1162.107, 39550.74
1162.589, 39610.29
1163.072, 39643.48
1163.554, 39649.71
1164.036, 39665.50
1164.518, 39725.34
1165.000, 39749.71
1165.482, 39709.90
1165.964, 39640.80
1166.446, 39587.05
1166.928, 39557.77
1167.411, 39591.09
1167.893, 39709.40
1168.375, 39773.51
1168.857, 39679.16
1169.339, 39596.92
1169.821, 39598.09
1170.303, 39651.82
1170.785, 39668.12
1171.268, 39659.12
1171.750, 39667.14
1172.232, 39713.74
1172.714, 39756.83
1173.196, 39784.89
1173.678, 39796.89
1174.160, 39774.91
1174.642, 39733.24
1175.125, 39794.00
1175.607, 39935.59
1176.089, 40035.47
1176.571, 39996.83
1177.053, 39956.94
1177.535, 39995.14
1178.017, 40045.33
1178.499, 40039.02
1178.981, 39977.20
1179.464, 39955.71
1179.946, 39973.53
1180.428, 39995.71
1180.910, 39995.47
1181.392, 39998.87
1181.874, 40022.84
1182.356, 40058.27
1182.838, 40096.39
1183.320, 40138.38
1183.803, 40146.53
1184.285, 40116.71
1184.767, 40096.91
1185.249, 40139.51
1185.731, 40188.85
1186.213, 40195.70
1186.695, 40180.31
1187.177, 40207.02
1187.660, 40279.83
1188.142, 40334.69
1188.624, 40361.07
1189.106, 40366.59
1189.588, 40328.04
1190.070, 40295.83
1190.552, 40327.69
1191.034, 40411.14
1191.516, 40442.37
1191.999, 40414.50
1192.481, 40402.32
1192.963, 40427.12
1193.445, 40464.22
1193.927, 40499.23
1194.409, 40527.15
1194.891, 40538.15
1195.373, 40531.55
1195.855, 40547.70
1196.338, 40593.69
1196.820, 40594.19
1197.302, 40489.61
1197.784, 40390.91
1198.266, 40438.71
1198.748, 40554.73
1199.230, 40647.59
1199.712, 40709.00
1200.195, 40726.12
1200.677, 40693.61
1201.159, 40652.05
1201.641, 40603.32
1202.123, 40581.38
1202.605, 40660.59
1203.087, 40780.82
1203.569, 40839.97
1204.052, 40797.79
1204.534, 40791.58
1205.016, 40827.63
1205.498, 40861.76
1205.980, 40863.32
1206.462, 40846.85
1206.944, 40798.34
1207.426, 40749.89
1207.908, 40788.07
1208.391, 40975.45
1208.873, 41081.05
1209.355, 41090.25
1209.837, 41049.31
1210.319, 40950.78
1210.801, 40859.93
1211.283, 40858.16
1211.765, 40930.68
1212.247, 41028.32
1212.730, 41180.36
1213.212, 41233.50
1213.694, 41154.43
1214.176, 41057.90
1214.658, 41068.56
1215.140, 41112.43
1215.622, 41088.98
1216.104, 41013.07
1216.587, 41003.98
1217.069, 41088.58
1217.551, 41168.98
1218.033, 41232.11
1218.515, 41275.68
1218.997, 41271.41
1219.479, 41263.68
1219.961, 41329.23
1220.443, 41460.33
1220.926, 41480.29
1221.408, 41341.57
1221.890, 41265.27
1222.372, 41313.99
1222.854, 41401.96
1223.336, 41441.52
1223.818, 41453.21
1224.300, 41453.08
1224.782, 41442.97
1225.265, 41458.27
1225.747, 41507.00
1226.229, 41542.80
1226.711, 41550.54
1227.193, 41542.26
1227.675, 41519.64
1228.157, 41496.91
1228.639, 41491.70
1229.122, 41507.11
1229.604, 41531.03
1230.086, 41565.09
1230.568, 41595.09
1231.050, 41606.63
1231.532, 41630.61
1232.014, 41757.75
1232.496, 41887.03
1232.979, 41864.27
1233.461, 41652.48
1233.943, 41576.95
1234.425, 41650.16
1234.907, 41742.63
1235.389, 41808.60
1235.871, 41843.47
1236.353, 41803.99
1236.835, 41753.36
1237.318, 41793.32
1237.800, 41949.77
1238.282, 41993.66
1238.764, 41919.31
1239.246, 41840.91
1239.728, 41801.52
1240.210, 41810.33
1240.692, 41926.71
1241.175, 42069.43
1241.657, 42121.17
1242.139, 42062.02
1242.621, 42034.00
1243.103, 42037.03
1243.585, 42059.97
1244.067, 42116.71
1244.549, 42168.66
1245.031, 42183.88
1245.514, 42181.61
1245.996, 42185.17
1246.478, 42192.74
1246.960, 42246.53
1247.442, 42343.69
1247.924, 42411.56
1248.406, 42369.59
1248.888, 42321.61
1249.370, 42340.00
1249.853, 42377.45
1250.335, 42361.07
1250.817, 42294.23
1251.299, 42280.98
1251.781, 42323.89
1252.263, 42388.94
1252.745, 42505.77
1253.227, 42578.91
1253.710, 42524.02
1254.192, 42436.45
1254.674, 42455.43
1255.156, 42557.75
1255.638, 42548.18
1256.120, 42428.83
1256.602, 42365.18
1257.084, 42533.46
1257.567, 42661.14
1258.049, 42638.89
1258.531, 42564.02
1259.013, 42571.53
1259.495, 42641.13
1259.977, 42710.08
1260.459, 42770.64
1260.941, 42801.89
1261.423, 42751.84
1261.906, 42732.13
1262.388, 42783.03
1262.870, 42848.39
1263.352, 42829.13
1263.834, 42767.03
1264.316, 42766.88
1264.798, 42832.40
1265.280, 42883.52
1265.762, 42887.35
1266.245, 42888.09
1266.727, 42891.62
1267.209, 42899.23
1267.691, 42911.48
1268.173, 42929.65
1268.655, 42963.36
1269.137, 43011.18
1269.619, 43028.84
1270.102, 42985.47
1270.584, 42995.04
1271.066, 43098.32
1271.548, 43202.79
1272.030, 43165.55
1272.512, 43078.91
1272.994, 43043.75
1273.476, 43070.79
1273.958, 43134.61
1274.441, 43247.65
1274.923, 43323.04
1275.405, 43335.75
1275.887, 43331.43
1276.369, 43364.13
1276.851, 43397.75
1277.333, 43386.57
1277.815, 43340.33
1278.297, 43328.68
1278.780, 43352.75
1279.262, 43393.86
1279.744, 43451.54
1280.226, 43499.82
1280.708, 43518.69
1281.190, 43518.49
1281.672, 43490.17
1282.154, 43452.56
1282.637, 43488.55
1283.119, 43587.93
1283.601, 43648.90
1284.083, 43646.46
1284.565, 43635.16
1285.047, 43638.57
1285.529, 43653.78
1286.011, 43686.28
1286.494, 43722.84
1286.976, 43722.62
1287.458, 43693.68
1287.940, 43661.31
1288.422, 43630.07
1288.904, 43600.17
1289.386, 43546.30
1289.868, 43534.54
1290.350, 43605.93
1290.833, 43704.86
1291.315, 43715.09
1291.797, 43670.68
1292.279, 43634.61
1292.761, 43617.59
1293.243, 43616.77
1293.725, 43636.30
1294.207, 43653.20
1294.689, 43653.48
1295.172, 43663.09
1295.654, 43749.54
1296.136, 43852.20
1296.618, 43876.96
1297.100, 43801.29
1297.582, 43796.77
1298.064, 43881.27
1298.546, 43916.75
1299.029, 43844.18
1299.511, 43759.88
1299.993, 43771.53
1300.475, 43816.52
1300.957, 43839.82
1301.439, 43840.17
1301.921, 43807.51
1302.403, 43744.44
1302.885, 43735.16
1303.368, 43815.46
1303.850, 43897.79
1304.332, 43915.53
1304.814, 43920.45
1305.296, 43955.39
1305.778, 44000.05
1306.260, 43956.11
1306.742, 43855.06
##END=



