##NAMES=Adelite
##RRUFFID=R060687
##IDEAL CHEMISTRY=CaMgAs^5+^O_4_(OH)
##LOCALITY=Jakobsberg mine,  Nordmark,  Filipstad,  Varmland,  Sweden
##OWNER=Michael Scott
##SOURCE=Michael Scott
##DESCRIPTION=Colorless irregular shaped crystals, associated with colorless tilasite and berzeliite (R061084).
##STATUS=The identification of this mineral is confirmed by single-crystal X-ray diffraction and chemical analysis.
##URL=rruff.info/R060687
##MEASURED CHEMISTRY=(Ca_0.55_Na_0.38_Mn_0.07_)_Σ=1_(Mg_0.74_Ca_0.26_)_Σ=1_(As_1.00_O_4_)(OH)
148.6279, 1569.763
149.1100, 1580.882
149.5921, 1575.331
150.0742, 1561.769
150.5564, 1555.105
151.0385, 1559.154
151.5206, 1565.653
152.0027, 1566.395
152.4848, 1561.900
152.9669, 1552.248
153.4491, 1528.648
153.9312, 1499.535
154.4133, 1488.397
154.8954, 1506.317
155.3775, 1529.730
155.8596, 1534.445
156.3418, 1521.599
156.8239, 1502.791
157.3060, 1478.694
157.7881, 1452.072
158.2702, 1433.128
158.7523, 1424.620
159.2345, 1423.520
159.7166, 1425.418
160.1987, 1430.253
160.6808, 1440.145
161.1629, 1458.847
161.6451, 1484.834
162.1272, 1508.778
162.6093, 1528.589
163.0914, 1546.968
163.5735, 1568.992
164.0556, 1594.504
164.5378, 1613.243
165.0199, 1613.230
165.5020, 1596.813
165.9841, 1588.359
166.4662, 1594.986
166.9483, 1608.315
167.4305, 1625.108
167.9126, 1644.653
168.3947, 1659.719
168.8768, 1664.108
169.3589, 1657.956
169.8410, 1647.179
170.3232, 1628.474
170.8053, 1608.764
171.2874, 1592.264
171.7695, 1579.250
172.2516, 1567.486
172.7337, 1555.182
173.2158, 1542.236
173.6980, 1529.254
174.1801, 1518.206
174.6622, 1505.221
175.1443, 1486.649
175.6264, 1462.585
176.1085, 1438.195
176.5907, 1418.021
177.0728, 1401.925
177.5549, 1389.384
178.0370, 1383.671
178.5191, 1379.152
179.0012, 1372.415
179.4834, 1363.340
179.9655, 1354.890
180.4476, 1351.311
180.9297, 1353.799
181.4118, 1352.353
181.8939, 1338.553
182.3761, 1325.877
182.8582, 1322.549
183.3403, 1328.603
183.8224, 1336.460
184.3045, 1336.942
184.7866, 1328.155
185.2688, 1324.579
185.7509, 1338.347
186.2330, 1349.536
186.7151, 1345.095
187.1972, 1325.798
187.6793, 1305.604
188.1615, 1299.972
188.6436, 1311.890
189.1257, 1321.122
189.6078, 1327.244
190.0899, 1329.734
190.5720, 1326.297
191.0542, 1317.801
191.5363, 1308.744
192.0184, 1302.573
192.5005, 1298.677
192.9826, 1301.249
193.4647, 1319.770
193.9469, 1337.550
194.4290, 1347.403
194.9111, 1349.228
195.3932, 1347.394
195.8753, 1345.893
196.3574, 1344.934
196.8396, 1343.001
197.3217, 1334.054
197.8038, 1329.220
198.2859, 1336.720
198.7680, 1354.226
199.2501, 1371.311
199.7323, 1377.058
200.2144, 1369.915
200.6965, 1365.134
201.1786, 1366.475
201.6607, 1367.086
202.1428, 1364.333
202.6250, 1358.454
203.1071, 1351.115
203.5892, 1342.734
204.0713, 1332.943
204.5534, 1327.315
205.0355, 1331.275
205.5177, 1334.671
205.9998, 1335.067
206.4819, 1332.014
206.9640, 1324.949
207.4461, 1310.539
207.9282, 1288.768
208.4103, 1279.682
208.8925, 1294.895
209.3746, 1312.108
209.8567, 1325.249
210.3388, 1334.442
210.8209, 1341.668
211.3030, 1348.635
211.7852, 1355.075
212.2673, 1357.655
212.7494, 1353.153
213.2315, 1348.121
213.7136, 1342.326
214.1957, 1337.658
214.6779, 1337.691
215.1600, 1346.114
215.6421, 1361.122
216.1242, 1370.955
216.6063, 1373.612
217.0884, 1373.205
217.5706, 1371.529
218.0527, 1367.912
218.5348, 1360.601
219.0169, 1347.421
219.4990, 1330.847
219.9811, 1320.700
220.4633, 1320.552
220.9454, 1321.702
221.4275, 1320.671
221.9096, 1319.542
222.3917, 1321.429
222.8738, 1328.379
223.3560, 1338.102
223.8381, 1345.029
224.3202, 1350.043
224.8023, 1349.922
225.2844, 1337.101
225.7665, 1322.173
226.2487, 1317.722
226.7308, 1329.844
227.2129, 1349.727
227.6950, 1359.729
228.1771, 1355.477
228.6592, 1352.612
229.1414, 1355.188
229.6235, 1360.644
230.1056, 1367.851
230.5877, 1376.689
231.0698, 1384.823
231.5519, 1387.085
232.0341, 1380.366
232.5162, 1380.077
232.9983, 1397.205
233.4804, 1417.495
233.9625, 1431.811
234.4446, 1438.178
234.9268, 1440.499
235.4089, 1440.841
235.8910, 1438.239
236.3731, 1442.647
236.8552, 1468.075
237.3373, 1492.037
237.8195, 1497.045
238.3016, 1482.349
238.7837, 1465.472
239.2658, 1462.319
239.7479, 1472.526
240.2300, 1482.692
240.7122, 1492.468
241.1943, 1500.209
241.6764, 1504.596
242.1585, 1505.923
242.6406, 1506.159
243.1227, 1505.827
243.6048, 1505.263
244.0870, 1506.819
244.5691, 1512.892
245.0512, 1517.687
245.5333, 1516.611
246.0154, 1510.980
246.4975, 1505.220
246.9797, 1501.466
247.4618, 1499.201
247.9439, 1497.440
248.4260, 1496.746
248.9081, 1495.077
249.3902, 1488.890
249.8724, 1480.687
250.3545, 1475.989
250.8366, 1478.976
251.3187, 1485.628
251.8008, 1489.633
252.2829, 1490.499
252.7651, 1491.364
253.2472, 1495.159
253.7293, 1500.039
254.2114, 1502.424
254.6935, 1499.018
255.1756, 1495.464
255.6578, 1497.976
256.1399, 1506.469
256.6220, 1515.700
257.1041, 1524.467
257.5862, 1531.545
258.0684, 1534.661
258.5505, 1530.378
259.0326, 1527.767
259.5147, 1535.930
259.9968, 1551.964
260.4789, 1562.764
260.9610, 1562.708
261.4431, 1555.607
261.9253, 1547.976
262.4074, 1538.348
262.8895, 1532.373
263.3716, 1533.488
263.8537, 1539.711
264.3358, 1547.909
264.8180, 1557.851
265.3001, 1567.263
265.7822, 1571.841
266.2643, 1570.662
266.7464, 1570.911
267.2285, 1573.459
267.7107, 1578.344
268.1928, 1585.723
268.6749, 1595.591
269.1570, 1607.766
269.6391, 1622.775
270.1212, 1641.753
270.6034, 1656.814
271.0855, 1667.590
271.5676, 1674.721
272.0497, 1674.878
272.5318, 1669.791
273.0139, 1669.611
273.4961, 1684.169
273.9782, 1713.830
274.4603, 1733.442
274.9424, 1735.507
275.4245, 1736.540
275.9066, 1742.964
276.3888, 1753.961
276.8709, 1766.483
277.3530, 1778.826
277.8351, 1791.131
278.3172, 1804.326
278.7993, 1817.239
279.2815, 1832.505
279.7636, 1854.852
280.2457, 1878.567
280.7278, 1895.601
281.2099, 1902.479
281.6920, 1903.403
282.1742, 1908.010
282.6563, 1917.354
283.1384, 1929.340
283.6205, 1948.334
284.1026, 1967.035
284.5847, 1979.412
285.0669, 1984.140
285.5490, 1984.369
286.0311, 1983.779
286.5132, 1981.597
286.9953, 1980.932
287.4774, 1984.023
287.9596, 1986.640
288.4417, 1983.921
288.9238, 1977.724
289.4059, 1975.815
289.8880, 1987.788
290.3701, 2013.844
290.8523, 2029.131
291.3344, 2024.938
291.8165, 2018.716
292.2986, 2012.943
292.7807, 2009.959
293.2628, 2014.163
293.7450, 2030.786
294.2271, 2054.475
294.7092, 2068.108
295.1913, 2068.233
295.6734, 2065.616
296.1555, 2061.860
296.6377, 2058.626
297.1198, 2058.162
297.6019, 2061.603
298.0840, 2066.718
298.5661, 2069.903
299.0482, 2070.705
299.5304, 2074.640
300.0125, 2085.562
300.4946, 2099.005
300.9767, 2109.966
301.4588, 2117.585
301.9409, 2126.953
302.4231, 2144.732
302.9052, 2167.970
303.3873, 2183.732
303.8694, 2186.740
304.3515, 2186.855
304.8336, 2195.582
305.3158, 2211.933
305.7979, 2226.638
306.2800, 2233.905
306.7621, 2239.035
307.2442, 2248.645
307.7263, 2263.336
308.2085, 2282.862
308.6906, 2308.661
309.1727, 2340.191
309.6548, 2369.240
310.1369, 2396.037
310.6190, 2419.729
311.1012, 2435.720
311.5833, 2446.997
312.0654, 2465.294
312.5475, 2497.963
313.0296, 2541.504
313.5117, 2581.155
313.9939, 2612.308
314.4760, 2645.871
314.9581, 2686.038
315.4402, 2729.140
315.9223, 2770.350
316.4044, 2807.986
316.8866, 2843.135
317.3687, 2876.882
317.8508, 2902.142
318.3329, 2941.225
318.8150, 3003.790
319.2971, 3071.663
319.7793, 3131.725
320.2614, 3183.401
320.7435, 3236.967
321.2256, 3303.409
321.7077, 3384.928
322.1898, 3457.880
322.6720, 3518.003
323.1541, 3574.486
323.6362, 3626.083
324.1183, 3676.374
324.6004, 3732.328
325.0826, 3798.979
325.5647, 3872.183
326.0468, 3936.839
326.5289, 3991.708
327.0110, 4039.923
327.4931, 4081.489
327.9753, 4118.373
328.4574, 4153.745
328.9395, 4189.018
329.4216, 4217.089
329.9037, 4228.973
330.3858, 4224.171
330.8679, 4210.877
331.3500, 4186.717
331.8322, 4157.415
332.3143, 4128.894
332.7964, 4100.764
333.2785, 4067.454
333.7606, 4022.624
334.2427, 3970.315
334.7249, 3920.721
335.2070, 3874.765
335.6891, 3830.364
336.1712, 3785.580
336.6533, 3740.823
337.1354, 3697.450
337.6176, 3660.015
338.0997, 3620.707
338.5818, 3571.860
339.0639, 3514.318
339.5460, 3454.574
340.0281, 3392.308
340.5103, 3332.859
340.9924, 3292.704
341.4745, 3280.693
341.9566, 3269.911
342.4387, 3255.730
342.9208, 3237.512
343.4030, 3212.019
343.8851, 3178.281
344.3672, 3144.311
344.8493, 3121.698
345.3314, 3114.933
345.8135, 3107.568
346.2957, 3101.796
346.7778, 3093.733
347.2599, 3077.037
347.7420, 3054.941
348.2241, 3039.231
348.7062, 3040.887
349.1884, 3057.904
349.6705, 3060.639
350.1526, 3028.407
350.6347, 3005.618
351.1168, 3008.140
351.5989, 3021.946
352.0811, 3028.965
352.5632, 3021.629
353.0453, 3007.372
353.5274, 3000.267
354.0095, 3003.693
354.4916, 3001.963
354.9738, 2982.916
355.4559, 2964.518
355.9380, 2959.149
356.4201, 2966.811
356.9022, 2976.102
357.3843, 2978.759
357.8665, 2975.840
358.3486, 2969.217
358.8307, 2952.554
359.3128, 2946.574
359.7949, 2987.286
360.2770, 3049.751
360.7592, 3076.259
361.2413, 3026.909
361.7234, 2955.891
362.2055, 2915.112
362.6876, 2901.166
363.1697, 2887.587
363.6519, 2862.729
364.1340, 2830.655
364.6161, 2801.582
365.0982, 2777.934
365.5803, 2751.011
366.0624, 2715.054
366.5446, 2675.908
367.0267, 2641.114
367.5088, 2612.454
367.9909, 2585.865
368.4730, 2557.256
368.9551, 2526.126
369.4373, 2494.877
369.9194, 2458.597
370.4015, 2426.899
370.8836, 2407.514
371.3657, 2396.597
371.8478, 2384.742
372.3300, 2365.847
372.8121, 2342.578
373.2942, 2325.461
373.7763, 2320.613
374.2584, 2312.271
374.7405, 2299.962
375.2227, 2282.780
375.7048, 2257.731
376.1869, 2224.823
376.6690, 2190.872
377.1511, 2161.903
377.6332, 2137.937
378.1154, 2122.566
378.5975, 2122.359
379.0796, 2123.233
379.5617, 2116.186
380.0438, 2103.280
380.5259, 2090.528
381.0081, 2079.827
381.4902, 2071.212
381.9723, 2063.887
382.4544, 2057.708
382.9365, 2056.598
383.4186, 2065.798
383.9008, 2079.414
384.3829, 2083.790
384.8650, 2073.315
385.3471, 2065.980
385.8292, 2071.795
386.3113, 2085.031
386.7935, 2096.594
387.2756, 2104.359
387.7577, 2109.325
388.2398, 2112.003
388.7219, 2111.341
389.2040, 2114.318
389.6862, 2127.007
390.1683, 2137.450
390.6504, 2135.141
391.1325, 2125.382
391.6146, 2122.535
392.0967, 2135.969
392.5789, 2159.864
393.0610, 2172.885
393.5431, 2166.992
394.0252, 2163.030
394.5073, 2160.774
394.9894, 2162.743
395.4716, 2172.771
395.9537, 2190.765
396.4358, 2210.371
396.9179, 2223.235
397.4000, 2229.545
397.8821, 2245.396
398.3643, 2281.864
398.8464, 2311.948
399.3285, 2319.909
399.8106, 2311.539
400.2927, 2298.051
400.7748, 2278.795
401.2569, 2260.981
401.7390, 2254.192
402.2212, 2257.702
402.7033, 2262.813
403.1854, 2268.413
403.6675, 2271.217
404.1496, 2265.351
404.6317, 2250.988
405.1139, 2230.276
405.5960, 2198.231
406.0781, 2163.174
406.5602, 2134.016
407.0423, 2111.894
407.5244, 2092.678
408.0066, 2072.948
408.4887, 2052.703
408.9708, 2034.984
409.4529, 2025.592
409.9350, 2011.858
410.4171, 1984.095
410.8993, 1952.225
411.3814, 1930.634
411.8635, 1924.646
412.3456, 1926.891
412.8277, 1925.037
413.3098, 1917.262
413.7920, 1911.958
414.2741, 1913.038
414.7562, 1913.988
415.2383, 1909.988
415.7204, 1902.752
416.2025, 1898.814
416.6847, 1905.321
417.1668, 1916.285
417.6489, 1916.801
418.1310, 1904.744
418.6131, 1895.138
419.0952, 1894.431
419.5774, 1900.928
420.0595, 1912.019
420.5416, 1930.693
421.0237, 1945.619
421.5058, 1949.964
421.9879, 1947.499
422.4701, 1942.408
422.9522, 1935.479
423.4343, 1932.409
423.9164, 1939.924
424.3985, 1959.423
424.8806, 1974.611
425.3628, 1981.764
425.8449, 1989.131
426.3270, 1999.826
426.8091, 2013.003
427.2912, 2026.567
427.7733, 2039.484
428.2555, 2053.405
428.7376, 2073.071
429.2197, 2103.225
429.7018, 2126.525
430.1839, 2139.810
430.6660, 2147.788
431.1482, 2150.299
431.6303, 2148.992
432.1124, 2148.597
432.5945, 2151.716
433.0766, 2158.136
433.5587, 2167.669
434.0409, 2180.588
434.5230, 2195.599
435.0051, 2216.097
435.4872, 2236.145
435.9693, 2245.804
436.4514, 2240.583
436.9336, 2236.968
437.4157, 2240.880
437.8978, 2252.229
438.3799, 2274.557
438.8620, 2308.522
439.3441, 2340.423
439.8263, 2356.236
440.3084, 2354.732
440.7905, 2360.908
441.2726, 2377.456
441.7547, 2397.414
442.2368, 2423.528
442.7190, 2450.022
443.2011, 2467.486
443.6832, 2472.354
444.1653, 2471.455
444.6474, 2476.674
445.1295, 2490.415
445.6117, 2501.584
446.0938, 2506.738
446.5759, 2511.842
447.0580, 2520.514
447.5401, 2531.436
448.0222, 2540.527
448.5044, 2544.869
448.9865, 2546.797
449.4686, 2551.430
449.9507, 2559.082
450.4328, 2561.219
450.9149, 2549.912
451.3971, 2535.831
451.8792, 2537.902
452.3613, 2559.974
452.8434, 2576.984
453.3255, 2576.109
453.8076, 2569.821
454.2898, 2574.609
454.7719, 2589.902
455.2540, 2599.886
455.7361, 2592.511
456.2182, 2569.756
456.7003, 2546.142
457.1825, 2510.635
457.6646, 2488.046
458.1467, 2487.551
458.6288, 2497.420
459.1109, 2509.927
459.5930, 2521.884
460.0752, 2528.139
460.5573, 2519.015
461.0394, 2494.931
461.5215, 2484.474
462.0036, 2497.530
462.4857, 2507.324
462.9679, 2495.200
463.4500, 2472.901
463.9321, 2459.275
464.4142, 2462.354
464.8963, 2467.299
465.3784, 2461.133
465.8606, 2447.113
466.3427, 2436.146
466.8248, 2431.646
467.3069, 2426.823
467.7890, 2414.178
468.2711, 2392.614
468.7533, 2369.001
469.2354, 2332.149
469.7175, 2304.611
470.1996, 2304.010
470.6817, 2319.209
471.1638, 2329.588
471.6459, 2326.082
472.1281, 2312.884
472.6102, 2296.498
473.0923, 2274.400
473.5744, 2256.617
474.0565, 2247.659
474.5386, 2239.578
475.0208, 2230.678
475.5029, 2219.736
475.9850, 2204.219
476.4671, 2181.333
476.9492, 2154.729
477.4313, 2129.323
477.9135, 2105.028
478.3956, 2082.516
478.8777, 2061.409
479.3598, 2042.912
479.8419, 2029.984
480.3240, 2022.978
480.8062, 2015.745
481.2883, 2006.163
481.7704, 1996.610
482.2525, 1988.168
482.7346, 1981.418
483.2167, 1978.486
483.6989, 1981.469
484.1810, 1986.893
484.6631, 1982.302
485.1452, 1955.582
485.6273, 1940.310
486.1094, 1948.198
486.5916, 1959.315
487.0737, 1960.486
487.5558, 1951.531
488.0379, 1939.581
488.5200, 1926.724
489.0021, 1915.699
489.4843, 1916.935
489.9664, 1933.255
490.4485, 1943.967
490.9306, 1934.727
491.4127, 1918.985
491.8948, 1919.714
492.3770, 1941.084
492.8591, 1960.353
493.3412, 1971.546
493.8233, 1975.756
494.3054, 1971.977
494.7875, 1961.356
495.2697, 1948.762
495.7518, 1936.375
496.2339, 1926.030
496.7160, 1927.553
497.1981, 1951.652
497.6802, 1973.020
498.1624, 1994.556
498.6445, 2009.260
499.1266, 2007.261
499.6087, 1990.376
500.0908, 1974.025
500.5729, 1973.017
501.0551, 1982.441
501.5372, 1981.762
502.0193, 1967.147
502.5014, 1958.931
502.9835, 1972.421
503.4656, 1994.142
503.9478, 2002.479
504.4299, 1994.964
504.9120, 1981.883
505.3941, 1965.552
505.8762, 1946.671
506.3583, 1924.009
506.8405, 1898.528
507.3226, 1876.366
507.8047, 1862.158
508.2868, 1854.646
508.7689, 1847.348
509.2510, 1841.013
509.7332, 1833.777
510.2153, 1829.908
510.6974, 1822.073
511.1795, 1799.298
511.6616, 1763.971
512.1437, 1734.383
512.6259, 1729.784
513.1080, 1741.141
513.5901, 1737.478
514.0722, 1715.778
514.5543, 1696.527
515.0364, 1691.208
515.5186, 1691.765
516.0007, 1683.433
516.4828, 1663.215
516.9649, 1646.546
517.4470, 1640.416
517.9291, 1638.583
518.4113, 1634.996
518.8934, 1629.423
519.3755, 1624.171
519.8576, 1620.701
520.3397, 1618.803
520.8218, 1618.029
521.3040, 1621.736
521.7861, 1620.346
522.2682, 1607.993
522.7503, 1595.026
523.2324, 1588.992
523.7145, 1589.273
524.1967, 1589.904
524.6788, 1586.779
525.1609, 1581.829
525.6430, 1579.137
526.1251, 1578.762
526.6072, 1577.915
527.0894, 1576.587
527.5715, 1573.011
528.0536, 1562.045
528.5357, 1541.315
529.0178, 1528.109
529.4999, 1531.210
529.9821, 1537.057
530.4642, 1535.263
530.9463, 1528.133
531.4284, 1523.561
531.9105, 1525.730
532.3926, 1531.553
532.8748, 1534.213
533.3569, 1532.388
533.8390, 1531.896
534.3211, 1535.620
534.8032, 1538.326
535.2853, 1535.834
535.7675, 1530.163
536.2496, 1526.995
536.7317, 1530.314
537.2138, 1534.585
537.6959, 1534.706
538.1780, 1530.938
538.6602, 1522.424
539.1423, 1507.724
539.6244, 1495.208
540.1065, 1495.791
540.5886, 1511.885
541.0707, 1521.364
541.5529, 1522.471
542.0350, 1519.671
542.5171, 1512.135
542.9992, 1502.517
543.4813, 1491.773
543.9634, 1480.815
544.4456, 1476.283
544.9277, 1491.715
545.4098, 1526.014
545.8919, 1544.120
546.3740, 1541.046
546.8561, 1530.732
547.3383, 1515.010
547.8204, 1498.676
548.3025, 1491.415
548.7846, 1499.355
549.2667, 1503.561
549.7488, 1489.461
550.2310, 1469.546
550.7131, 1461.329
551.1952, 1466.120
551.6773, 1474.224
552.1594, 1478.631
552.6415, 1479.901
553.1237, 1480.986
553.6058, 1482.610
554.0879, 1482.782
554.5700, 1480.239
555.0521, 1477.188
555.5342, 1474.336
556.0164, 1472.260
556.4985, 1472.619
556.9806, 1477.804
557.4627, 1485.164
557.9448, 1490.654
558.4269, 1494.328
558.9091, 1496.492
559.3912, 1496.912
559.8733, 1496.606
560.3554, 1497.294
560.8375, 1499.701
561.3196, 1499.976
561.8018, 1497.345
562.2839, 1493.298
562.7660, 1488.293
563.2481, 1482.436
563.7302, 1474.733
564.2123, 1464.805
564.6945, 1456.463
565.1766, 1456.462
565.6587, 1465.095
566.1408, 1470.901
566.6229, 1472.791
567.1050, 1472.643
567.5872, 1469.696
568.0693, 1465.832
568.5514, 1464.536
569.0335, 1466.291
569.5156, 1470.511
569.9977, 1479.460
570.4799, 1489.461
570.9620, 1496.294
571.4441, 1499.128
571.9262, 1497.476
572.4083, 1490.222
572.8904, 1479.075
573.3726, 1472.611
573.8547, 1473.917
574.3368, 1474.151
574.8189, 1468.766
575.3010, 1464.620
575.7831, 1469.438
576.2653, 1481.023
576.7473, 1487.148
577.2294, 1476.525
577.7115, 1461.203
578.1937, 1455.904
578.6758, 1459.370
579.1579, 1466.630
579.6400, 1476.916
580.1221, 1486.213
580.6042, 1489.151
581.0864, 1484.805
581.5685, 1479.335
582.0506, 1470.174
582.5327, 1462.958
583.0148, 1463.457
583.4969, 1465.227
583.9791, 1457.795
584.4612, 1438.850
584.9433, 1420.779
585.4254, 1418.939
585.9075, 1428.779
586.3896, 1429.069
586.8718, 1416.826
587.3539, 1408.664
587.8360, 1415.855
588.3181, 1430.872
588.8002, 1435.835
589.2823, 1426.926
589.7645, 1419.816
590.2466, 1420.693
590.7287, 1421.136
591.2108, 1412.953
591.6929, 1398.911
592.1750, 1386.578
592.6572, 1379.680
593.1393, 1378.583
593.6214, 1386.925
594.1035, 1406.524
594.5856, 1416.750
595.0677, 1412.243
595.5499, 1402.893
596.0320, 1394.284
596.5141, 1386.068
596.9962, 1377.350
597.4783, 1365.172
597.9604, 1356.934
598.4426, 1360.636
598.9247, 1368.075
599.4068, 1368.192
599.8889, 1359.898
600.3710, 1348.331
600.8531, 1336.745
601.3353, 1326.338
601.8174, 1323.343
602.2995, 1331.711
602.7816, 1337.722
603.2637, 1336.439
603.7458, 1334.075
604.2280, 1335.604
604.7101, 1340.106
605.1922, 1342.248
605.6743, 1340.902
606.1564, 1335.656
606.6385, 1321.332
607.1207, 1303.300
607.6028, 1296.363
608.0849, 1304.403
608.5670, 1314.796
609.0491, 1313.240
609.5313, 1299.614
610.0134, 1292.835
610.4955, 1300.309
610.9776, 1303.811
611.4597, 1296.093
611.9418, 1285.430
612.4240, 1278.519
612.9061, 1276.307
613.3882, 1277.489
613.8703, 1283.559
614.3524, 1291.244
614.8345, 1297.047
615.3167, 1300.669
615.7988, 1301.138
616.2809, 1298.025
616.7630, 1291.711
617.2451, 1281.469
617.7272, 1264.706
618.2094, 1258.305
618.6915, 1275.197
619.1736, 1287.495
619.6557, 1282.963
620.1378, 1272.027
620.6199, 1267.303
621.1021, 1271.651
621.5842, 1278.836
622.0663, 1284.961
622.5484, 1290.288
623.0305, 1295.725
623.5126, 1301.186
623.9948, 1305.337
624.4769, 1308.131
624.9590, 1307.821
625.4411, 1300.351
625.9232, 1281.039
626.4053, 1268.494
626.8875, 1263.770
627.3696, 1263.822
627.8517, 1271.458
628.3338, 1281.612
628.8159, 1286.685
629.2980, 1284.281
629.7802, 1279.501
630.2623, 1276.684
630.7444, 1275.214
631.2265, 1272.597
631.7086, 1268.643
632.1907, 1268.386
632.6729, 1275.772
633.1550, 1286.646
633.6371, 1291.211
634.1192, 1284.735
634.6013, 1282.169
635.0834, 1288.878
635.5656, 1293.914
636.0477, 1289.920
636.5298, 1280.998
637.0119, 1274.420
637.4940, 1272.890
637.9761, 1274.038
638.4583, 1275.959
638.9404, 1278.596
639.4225, 1282.259
639.9046, 1287.059
640.3867, 1290.425
640.8688, 1289.940
641.3510, 1288.110
641.8331, 1291.691
642.3152, 1306.126
642.7973, 1315.688
643.2794, 1322.387
643.7615, 1322.421
644.2437, 1305.187
644.7258, 1281.769
645.2079, 1274.279
645.6900, 1292.478
646.1721, 1316.096
646.6542, 1323.713
647.1364, 1319.814
647.6185, 1318.632
648.1006, 1321.651
648.5827, 1322.375
649.0648, 1315.985
649.5469, 1305.952
650.0291, 1301.987
650.5112, 1309.645
650.9933, 1312.826
651.4754, 1306.479
651.9575, 1301.020
652.4396, 1305.864
652.9218, 1314.408
653.4039, 1311.069
653.8860, 1288.256
654.3681, 1269.379
654.8502, 1284.863
655.3323, 1320.351
655.8145, 1339.750
656.2966, 1339.903
656.7787, 1331.146
657.2608, 1317.818
657.7429, 1302.088
658.2250, 1288.642
658.7072, 1274.674
659.1893, 1269.453
659.6714, 1281.301
660.1535, 1292.394
660.6356, 1293.865
661.1177, 1289.652
661.5999, 1287.004
662.0820, 1288.257
662.5641, 1289.660
663.0462, 1287.985
663.5283, 1284.515
664.0104, 1281.748
664.4926, 1279.721
664.9747, 1276.347
665.4568, 1270.131
665.9389, 1263.579
666.4210, 1262.500
666.9031, 1270.413
667.3853, 1272.676
667.8674, 1265.784
668.3495, 1256.897
668.8316, 1243.250
669.3137, 1231.231
669.7958, 1232.167
670.2780, 1249.966
670.7601, 1264.901
671.2422, 1264.556
671.7243, 1255.458
672.2064, 1241.599
672.6885, 1225.802
673.1707, 1216.673
673.6528, 1218.082
674.1349, 1225.975
674.6170, 1235.433
675.0991, 1247.819
675.5812, 1251.006
676.0634, 1238.011
676.5455, 1227.279
677.0276, 1228.771
677.5097, 1234.691
677.9918, 1236.965
678.4739, 1234.825
678.9561, 1230.433
679.4382, 1221.572
679.9203, 1213.387
680.4024, 1211.670
680.8845, 1213.651
681.3666, 1212.203
681.8488, 1205.259
682.3309, 1198.523
682.8130, 1199.140
683.2951, 1206.323
683.7772, 1212.904
684.2593, 1221.015
684.7415, 1219.820
685.2236, 1198.727
685.7057, 1173.164
686.1878, 1162.365
686.6699, 1165.902
687.1520, 1173.678
687.6342, 1189.954
688.1163, 1204.081
688.5984, 1212.325
689.0805, 1215.147
689.5626, 1211.916
690.0447, 1203.475
690.5269, 1193.980
691.0090, 1186.479
691.4911, 1180.614
691.9732, 1175.085
692.4553, 1169.953
692.9374, 1168.705
693.4196, 1173.535
693.9017, 1178.085
694.3838, 1174.900
694.8659, 1164.601
695.3480, 1161.870
695.8301, 1177.748
696.3123, 1185.840
696.7944, 1173.792
697.2765, 1159.862
697.7586, 1160.333
698.2407, 1172.461
698.7228, 1181.985
699.2050, 1181.357
699.6871, 1176.882
700.1692, 1175.532
700.6513, 1175.681
701.1334, 1173.163
701.6155, 1167.347
702.0977, 1158.701
702.5798, 1146.655
703.0619, 1133.617
703.5440, 1127.393
704.0261, 1129.161
704.5082, 1134.895
704.9904, 1151.468
705.4725, 1164.188
705.9546, 1163.529
706.4367, 1155.090
706.9188, 1149.131
707.4009, 1147.826
707.8831, 1147.668
708.3652, 1148.150
708.8473, 1148.095
709.3294, 1146.243
709.8115, 1142.760
710.2936, 1137.095
710.7758, 1129.034
711.2579, 1123.544
711.7400, 1131.303
712.2221, 1151.528
712.7042, 1158.058
713.1863, 1147.106
713.6685, 1136.213
714.1506, 1132.790
714.6327, 1133.016
715.1148, 1130.127
715.5969, 1122.748
716.0790, 1122.125
716.5612, 1137.850
717.0433, 1150.085
717.5253, 1148.086
718.0074, 1139.919
718.4896, 1135.007
718.9717, 1135.040
719.4538, 1136.431
719.9359, 1137.383
720.4180, 1137.504
720.9001, 1134.617
721.3823, 1129.924
721.8644, 1130.291
722.3465, 1137.652
722.8286, 1145.259
723.3107, 1146.608
723.7928, 1142.719
724.2750, 1140.925
724.7571, 1142.308
725.2392, 1143.666
725.7213, 1144.669
726.2034, 1145.506
726.6855, 1145.487
727.1677, 1145.425
727.6498, 1147.659
728.1319, 1154.103
728.6140, 1159.835
729.0961, 1162.429
729.5782, 1162.965
730.0604, 1161.801
730.5425, 1159.670
731.0246, 1157.670
731.5067, 1156.233
731.9888, 1157.405
732.4709, 1166.583
732.9531, 1182.892
733.4352, 1192.479
733.9173, 1194.074
734.3994, 1191.990
734.8815, 1185.592
735.3636, 1179.767
735.8458, 1183.874
736.3279, 1202.035
736.8100, 1213.019
737.2921, 1210.692
737.7742, 1208.909
738.2563, 1212.869
738.7385, 1219.359
739.2206, 1223.969
739.7027, 1226.611
740.1848, 1231.666
740.6669, 1244.694
741.1490, 1258.722
741.6312, 1267.159
742.1133, 1270.216
742.5954, 1265.516
743.0775, 1253.585
743.5596, 1244.962
744.0417, 1248.129
744.5239, 1261.614
745.0060, 1282.566
745.4881, 1314.682
745.9702, 1337.137
746.4523, 1343.824
746.9344, 1345.874
747.4166, 1347.394
747.8987, 1350.284
748.3808, 1360.250
748.8629, 1382.992
749.3450, 1399.973
749.8271, 1401.370
750.3093, 1402.070
750.7914, 1410.796
751.2735, 1426.577
751.7556, 1448.431
752.2377, 1475.912
752.7198, 1499.878
753.2020, 1508.355
753.6841, 1509.020
754.1662, 1517.960
754.6483, 1534.215
755.1304, 1548.739
755.6125, 1558.141
756.0947, 1568.706
756.5768, 1588.820
757.0589, 1617.568
757.5410, 1637.126
758.0231, 1643.617
758.5052, 1649.103
758.9874, 1654.249
759.4695, 1660.812
759.9516, 1670.837
760.4337, 1683.472
760.9158, 1695.354
761.3979, 1704.652
761.8801, 1715.273
762.3622, 1728.593
762.8443, 1743.813
763.3264, 1763.354
763.8085, 1783.938
764.2906, 1796.632
764.7728, 1797.064
765.2549, 1795.465
765.7370, 1803.473
766.2191, 1818.713
766.7012, 1836.141
767.1833, 1855.119
767.6655, 1870.718
768.1476, 1880.408
768.6297, 1888.693
769.1118, 1903.139
769.5939, 1924.520
770.0760, 1934.810
770.5582, 1922.799
771.0403, 1920.695
771.5224, 1947.755
772.0045, 1978.759
772.4866, 1991.211
772.9688, 1987.691
773.4509, 1986.988
773.9330, 1989.719
774.4151, 1999.386
774.8972, 2025.955
775.3793, 2053.587
775.8615, 2065.016
776.3436, 2063.249
776.8257, 2061.437
777.3078, 2065.421
777.7899, 2074.973
778.2720, 2094.416
778.7542, 2118.381
779.2363, 2130.227
779.7184, 2130.139
780.2005, 2134.220
780.6826, 2150.321
781.1647, 2168.923
781.6469, 2174.067
782.1290, 2164.452
782.6111, 2169.736
783.0932, 2200.422
783.5753, 2222.562
784.0574, 2218.994
784.5396, 2210.230
785.0217, 2219.607
785.5038, 2243.738
785.9859, 2256.724
786.4680, 2247.969
786.9501, 2237.883
787.4323, 2232.022
787.9144, 2227.237
788.3965, 2220.075
788.8786, 2211.665
789.3607, 2206.246
789.8428, 2206.339
790.3250, 2205.716
790.8071, 2195.906
791.2892, 2182.484
791.7713, 2175.303
792.2534, 2174.483
792.7355, 2179.495
793.2177, 2190.318
793.6998, 2196.530
794.1819, 2181.067
794.6640, 2146.687
795.1461, 2134.960
795.6282, 2152.476
796.1104, 2164.038
796.5925, 2158.892
797.0746, 2147.394
797.5567, 2136.413
798.0388, 2126.768
798.5209, 2126.184
799.0031, 2145.492
799.4852, 2157.463
799.9673, 2149.624
800.4494, 2143.518
800.9315, 2156.471
801.4136, 2179.997
801.8958, 2195.383
802.3779, 2196.155
802.8600, 2198.323
803.3421, 2212.108
803.8242, 2231.268
804.3063, 2249.968
804.7885, 2268.684
805.2706, 2289.896
805.7527, 2314.079
806.2348, 2338.734
806.7169, 2361.255
807.1990, 2382.762
807.6812, 2405.463
808.1633, 2429.507
808.6454, 2456.132
809.1275, 2485.207
809.6096, 2519.628
810.0917, 2560.805
810.5739, 2609.384
811.0560, 2668.183
811.5381, 2745.185
812.0202, 2811.793
812.5023, 2856.706
812.9844, 2905.806
813.4666, 2974.917
813.9487, 3052.123
814.4308, 3122.019
814.9129, 3182.954
815.3950, 3244.597
815.8771, 3305.473
816.3593, 3371.555
816.8414, 3451.080
817.3235, 3533.512
817.8056, 3604.161
818.2877, 3664.661
818.7698, 3732.036
819.2520, 3819.152
819.7341, 3906.452
820.2162, 3974.356
820.6983, 4027.411
821.1804, 4067.364
821.6625, 4099.663
822.1447, 4146.890
822.6268, 4220.186
823.1089, 4307.940
823.5910, 4394.085
824.0731, 4479.328
824.5552, 4571.228
825.0374, 4670.813
825.5195, 4771.572
826.0016, 4870.660
826.4837, 4972.538
826.9658, 5083.340
827.4479, 5201.517
827.9301, 5309.092
828.4122, 5406.125
828.8943, 5492.061
829.3764, 5571.777
829.8585, 5635.432
830.3406, 5679.599
830.8228, 5703.136
831.3049, 5702.312
831.7870, 5673.314
832.2691, 5634.000
832.7512, 5586.610
833.2333, 5534.166
833.7155, 5466.692
834.1976, 5401.410
834.6797, 5366.811
835.1618, 5363.862
835.6439, 5360.314
836.1260, 5328.646
836.6082, 5295.891
837.0903, 5297.964
837.5724, 5322.249
838.0545, 5345.486
838.5366, 5362.829
839.0187, 5369.604
839.5009, 5362.316
839.9830, 5350.470
840.4651, 5354.147
840.9472, 5371.069
841.4293, 5364.968
841.9114, 5332.049
842.3936, 5308.012
842.8757, 5311.035
843.3578, 5310.500
843.8399, 5267.290
844.3220, 5184.604
844.8041, 5122.016
845.2863, 5089.037
845.7684, 5057.295
846.2505, 5032.948
846.7326, 4998.291
847.2147, 4940.610
847.6968, 4865.942
848.1790, 4786.152
848.6611, 4700.422
849.1432, 4614.036
849.6253, 4538.904
850.1074, 4451.182
850.5895, 4343.502
851.0717, 4212.695
851.5538, 4048.504
852.0359, 3855.128
852.5180, 3664.420
853.0001, 3489.949
853.4822, 3329.683
853.9644, 3184.072
854.4465, 3052.873
854.9286, 2937.722
855.4107, 2836.578
855.8928, 2741.788
856.3749, 2650.104
856.8571, 2561.494
857.3392, 2474.173
857.8213, 2389.919
858.3034, 2309.569
858.7855, 2235.060
859.2676, 2183.899
859.7497, 2162.370
860.2318, 2143.193
860.7139, 2098.301
861.1960, 2036.048
861.6782, 1996.073
862.1603, 1984.009
862.6424, 1959.937
863.1245, 1913.918
863.6066, 1869.909
864.0887, 1843.058
864.5709, 1824.389
865.0530, 1795.067
865.5351, 1749.618
866.0172, 1717.403
866.4993, 1709.177
866.9814, 1700.366
867.4636, 1684.211
867.9457, 1666.890
868.4278, 1655.402
868.9099, 1647.870
869.3920, 1634.667
869.8741, 1606.629
870.3563, 1586.329
870.8384, 1591.737
871.3205, 1597.000
871.8026, 1575.692
872.2847, 1543.493
872.7668, 1530.712
873.2490, 1544.205
873.7311, 1560.162
874.2132, 1568.490
874.6953, 1567.452
875.1774, 1549.732
875.6595, 1523.849
876.1417, 1500.384
876.6238, 1483.377
877.1059, 1481.501
877.5880, 1501.327
878.0701, 1525.634
878.5522, 1529.004
879.0344, 1517.738
879.5165, 1511.391
879.9986, 1509.951
880.4807, 1502.778
880.9628, 1485.994
881.4449, 1474.260
881.9271, 1485.505
882.4092, 1512.211
882.8913, 1519.273
883.3734, 1504.548
883.8555, 1492.848
884.3376, 1486.856
884.8198, 1487.420
885.3019, 1496.795
885.7840, 1510.575
886.2661, 1520.058
886.7482, 1524.680
887.2303, 1527.973
887.7125, 1527.963
888.1946, 1530.308
888.6767, 1540.416
889.1588, 1549.684
889.6409, 1549.421
890.1230, 1541.490
890.6052, 1533.992
891.0873, 1525.548
891.5694, 1520.433
892.0515, 1521.926
892.5336, 1523.755
893.0157, 1521.227
893.4979, 1517.816
893.9800, 1521.298
894.4621, 1531.982
894.9442, 1533.649
895.4263, 1509.539
895.9084, 1488.110
896.3906, 1487.234
896.8727, 1493.911
897.3548, 1497.235
897.8369, 1495.551
898.3190, 1488.865
898.8011, 1476.814
899.2833, 1464.023
899.7654, 1452.873
900.2475, 1443.975
900.7296, 1437.099
901.2117, 1433.333
901.6938, 1437.904
902.1760, 1449.677
902.6581, 1456.003
903.1402, 1446.423
903.6223, 1431.969
904.1044, 1431.108
904.5865, 1438.774
905.0687, 1439.288
905.5508, 1432.513
906.0329, 1427.344
906.5150, 1427.324
906.9971, 1428.619
907.4792, 1427.571
907.9614, 1423.598
908.4435, 1411.869
908.9256, 1392.555
909.4077, 1380.252
909.8898, 1377.861
910.3719, 1380.521
910.8541, 1386.198
911.3362, 1392.502
911.8183, 1394.986
912.3004, 1393.688
912.7825, 1387.579
913.2646, 1376.234
913.7468, 1360.551
914.2289, 1337.340
914.7110, 1316.225
915.1931, 1306.922
915.6752, 1306.971
916.1573, 1304.643
916.6395, 1299.241
917.1216, 1292.935
917.6037, 1286.822
918.0858, 1278.390
918.5679, 1263.774
919.0500, 1248.167
919.5322, 1239.289
920.0143, 1237.006
920.4964, 1229.637
920.9785, 1210.192
921.4606, 1194.567
921.9427, 1185.361
922.4249, 1180.873
922.9070, 1181.733
923.3891, 1185.851
923.8712, 1190.964
924.3533, 1197.246
924.8354, 1198.364
925.3176, 1187.404
925.7997, 1176.911
926.2818, 1174.320
926.7639, 1173.887
927.2460, 1169.526
927.7281, 1161.761
928.2103, 1154.402
928.6924, 1148.790
929.1745, 1143.384
929.6566, 1133.087
930.1387, 1126.591
930.6208, 1135.327
931.1030, 1151.359
931.5851, 1162.555
932.0672, 1166.691
932.5493, 1166.931
933.0314, 1163.863
933.5135, 1160.761
933.9957, 1161.391
934.4778, 1163.670
934.9599, 1165.096
935.4420, 1165.375
935.9241, 1164.525
936.4063, 1162.536
936.8884, 1158.939
937.3705, 1150.883
937.8526, 1144.389
938.3347, 1153.946
938.8168, 1171.913
939.2990, 1176.935
939.7811, 1168.633
940.2632, 1159.466
940.7453, 1155.137
941.2274, 1155.071
941.7095, 1161.452
942.1917, 1170.272
942.6738, 1167.152
943.1559, 1154.041
943.6380, 1141.374
944.1201, 1131.523
944.6022, 1130.981
945.0844, 1144.908
945.5665, 1163.220
946.0486, 1166.291
946.5307, 1155.657
947.0128, 1149.786
947.4949, 1148.745
947.9771, 1151.720
948.4592, 1158.862
948.9413, 1167.285
949.4234, 1175.162
949.9055, 1181.503
950.3876, 1182.970
950.8698, 1179.036
951.3519, 1176.034
951.8340, 1174.279
952.3161, 1172.501
952.7982, 1169.841
953.2803, 1168.368
953.7625, 1170.745
954.2446, 1175.934
954.7267, 1178.087
955.2088, 1175.953
955.6909, 1175.803
956.1730, 1178.840
956.6552, 1181.850
957.1373, 1183.790
957.6194, 1184.275
958.1015, 1181.404
958.5836, 1175.589
959.0657, 1179.182
959.5479, 1198.017
960.0300, 1212.762
960.5121, 1221.961
960.9942, 1225.631
961.4763, 1220.037
961.9584, 1211.716
962.4406, 1211.136
962.9227, 1218.707
963.4048, 1230.446
963.8869, 1255.709
964.3690, 1269.789
964.8511, 1262.962
965.3333, 1250.961
965.8154, 1240.832
966.2975, 1233.109
966.7796, 1228.381
967.2617, 1225.904
967.7438, 1229.742
968.2260, 1249.564
968.7081, 1262.657
969.1902, 1258.850
969.6723, 1251.661
970.1544, 1250.789
970.6365, 1254.267
971.1187, 1256.389
971.6008, 1256.578
972.0829, 1256.057
972.5650, 1251.864
973.0471, 1250.938
973.5292, 1257.828
974.0114, 1267.044
974.4935, 1274.231
974.9756, 1279.553
975.4577, 1284.517
975.9398, 1289.402
976.4219, 1293.789
976.9041, 1294.782
977.3862, 1298.695
977.8683, 1318.686
978.3504, 1335.365
978.8325, 1320.825
979.3146, 1282.672
979.7968, 1261.620
980.2789, 1273.764
980.7610, 1286.475
981.2431, 1290.010
981.7252, 1292.913
982.2073, 1300.666
982.6895, 1309.924
983.1716, 1315.885
983.6537, 1318.897
984.1358, 1323.897
984.6179, 1335.148
985.1000, 1342.830
985.5822, 1338.718
986.0643, 1335.076
986.5464, 1343.484
987.0285, 1355.140
987.5106, 1355.823
987.9927, 1345.628
988.4749, 1339.186
988.9570, 1344.177
989.4391, 1348.884
989.9212, 1346.842
990.4033, 1344.611
990.8854, 1348.675
991.3676, 1354.826
991.8497, 1353.926
992.3318, 1346.234
992.8139, 1346.224
993.2960, 1365.872
993.7781, 1384.325
994.2603, 1391.118
994.7424, 1394.101
995.2245, 1398.469
995.7066, 1403.805
996.1887, 1407.357
996.6708, 1409.248
997.1530, 1415.588
997.6351, 1434.700
998.1172, 1450.723
998.5993, 1454.237
999.0814, 1453.150
999.5635, 1451.685
1000.046, 1451.465
1000.528, 1454.725
1001.010, 1461.610
1001.492, 1468.252
1001.974, 1470.532
1002.456, 1475.334
1002.938, 1490.464
1003.420, 1505.463
1003.903, 1510.584
1004.385, 1509.220
1004.867, 1506.809
1005.349, 1504.954
1005.831, 1508.726
1006.313, 1527.523
1006.795, 1543.151
1007.277, 1544.269
1007.759, 1540.808
1008.242, 1539.879
1008.724, 1541.440
1009.206, 1542.988
1009.688, 1544.307
1010.170, 1550.650
1010.652, 1572.542
1011.134, 1589.194
1011.616, 1583.246
1012.099, 1574.929
1012.581, 1582.736
1013.063, 1600.112
1013.545, 1613.318
1014.027, 1619.750
1014.509, 1625.514
1014.991, 1628.873
1015.473, 1637.448
1015.955, 1663.871
1016.438, 1687.919
1016.920, 1686.994
1017.402, 1674.623
1017.884, 1677.300
1018.366, 1698.976
1018.848, 1717.085
1019.330, 1722.261
1019.812, 1724.719
1020.294, 1725.393
1020.777, 1727.533
1021.259, 1735.524
1021.741, 1745.732
1022.223, 1750.973
1022.705, 1750.548
1023.187, 1753.512
1023.669, 1763.557
1024.151, 1775.821
1024.634, 1792.379
1025.116, 1806.970
1025.598, 1810.791
1026.080, 1812.315
1026.562, 1825.919
1027.044, 1852.641
1027.526, 1877.710
1028.008, 1902.890
1028.490, 1918.963
1028.973, 1913.251
1029.455, 1909.337
1029.937, 1924.829
1030.419, 1948.513
1030.901, 1963.414
1031.383, 1968.954
1031.865, 1977.880
1032.347, 1994.444
1032.830, 2010.898
1033.312, 2027.583
1033.794, 2042.168
1034.276, 2051.432
1034.758, 2059.173
1035.240, 2070.401
1035.722, 2084.980
1036.204, 2099.155
1036.687, 2111.234
1037.169, 2125.076
1037.651, 2140.716
1038.133, 2158.382
1038.615, 2181.580
1039.097, 2204.423
1039.579, 2219.724
1040.061, 2228.510
1040.543, 2238.860
1041.026, 2249.382
1041.508, 2264.154
1041.990, 2283.688
1042.472, 2306.850
1042.954, 2335.968
1043.436, 2365.496
1043.918, 2390.589
1044.400, 2411.457
1044.882, 2427.948
1045.365, 2434.185
1045.847, 2454.667
1046.329, 2501.521
1046.811, 2533.375
1047.293, 2531.145
1047.775, 2521.880
1048.257, 2527.411
1048.739, 2545.071
1049.222, 2567.143
1049.704, 2594.447
1050.186, 2622.553
1050.668, 2653.365
1051.150, 2675.998
1051.632, 2683.744
1052.114, 2697.405
1052.596, 2734.979
1053.078, 2783.274
1053.561, 2811.571
1054.043, 2819.400
1054.525, 2829.337
1055.007, 2841.010
1055.489, 2860.276
1055.971, 2888.862
1056.453, 2919.680
1056.935, 2948.378
1057.417, 2975.801
1057.900, 3003.040
1058.382, 3030.490
1058.864, 3061.242
1059.346, 3095.233
1059.828, 3134.124
1060.310, 3177.712
1060.792, 3212.398
1061.274, 3230.982
1061.757, 3246.491
1062.239, 3276.268
1062.721, 3314.201
1063.203, 3344.497
1063.685, 3368.652
1064.167, 3388.881
1064.649, 3407.878
1065.131, 3435.592
1065.614, 3476.037
1066.096, 3527.365
1066.578, 3592.911
1067.060, 3660.161
1067.542, 3706.754
1068.024, 3741.361
1068.506, 3779.028
1068.988, 3821.050
1069.470, 3866.768
1069.953, 3915.419
1070.435, 3962.121
1070.917, 3998.103
1071.399, 4045.491
1071.881, 4143.379
1072.363, 4250.274
1072.845, 4314.806
1073.327, 4350.832
1073.809, 4380.737
1074.292, 4413.938
1074.774, 4466.058
1075.256, 4550.128
1075.738, 4631.020
1076.220, 4671.820
1076.702, 4719.665
1077.184, 4826.563
1077.666, 4948.518
1078.148, 5030.731
1078.631, 5079.193
1079.113, 5129.169
1079.595, 5187.495
1080.077, 5259.114
1080.559, 5367.459
1081.041, 5460.974
1081.523, 5501.443
1082.005, 5533.930
1082.488, 5592.166
1082.970, 5670.313
1083.452, 5756.118
1083.934, 5850.767
1084.416, 5932.040
1084.898, 5980.220
1085.380, 6042.151
1085.862, 6131.526
1086.344, 6227.713
1086.827, 6320.024
1087.309, 6414.982
1087.791, 6525.484
1088.273, 6649.401
1088.755, 6745.139
1089.237, 6791.955
1089.719, 6871.203
1090.201, 6995.530
1090.683, 7129.905
1091.166, 7264.103
1091.648, 7395.667
1092.130, 7519.349
1092.612, 7640.631
1093.094, 7783.240
1093.576, 7949.109
1094.058, 8083.619
1094.540, 8183.106
1095.023, 8291.416
1095.505, 8419.511
1095.987, 8560.938
1096.469, 8712.312
1096.951, 8865.714
1097.433, 9002.804
1097.915, 9131.878
1098.397, 9290.812
1098.880, 9469.657
1099.362, 9619.021
1099.844, 9736.124
1100.326, 9855.804
1100.808, 9992.973
1101.290, 10137.64
1101.772, 10288.07
1102.254, 10431.25
1102.736, 10539.11
1103.219, 10631.08
1103.701, 10743.37
1104.183, 10868.23
1104.665, 10979.96
1105.147, 11071.23
1105.629, 11147.56
1106.111, 11209.73
1106.593, 11263.96
1107.075, 11310.47
1107.558, 11354.71
1108.040, 11408.20
1108.522, 11457.80
1109.004, 11489.05
1109.486, 11499.29
1109.968, 11486.86
1110.450, 11445.97
1110.932, 11402.87
1111.415, 11369.60
1111.897, 11328.93
1112.379, 11276.25
1112.861, 11212.12
1113.343, 11134.90
1113.825, 11047.58
1114.307, 10958.34
1114.789, 10868.04
1115.271, 10767.65
1115.754, 10662.33
1116.236, 10533.51
1116.718, 10365.45
1117.200, 10202.24
1117.682, 10065.35
1118.164, 9939.878
1118.646, 9809.710
1119.128, 9674.285
1119.610, 9529.118
1120.093, 9373.382
1120.575, 9219.677
1121.057, 9068.630
1121.539, 8903.488
1122.021, 8718.979
1122.503, 8547.363
1122.985, 8415.354
1123.467, 8297.668
1123.950, 8152.045
1124.432, 7987.402
1124.914, 7836.659
1125.396, 7693.968
1125.878, 7532.818
1126.360, 7356.987
1126.842, 7202.653
1127.324, 7084.291
1127.807, 6973.016
1128.289, 6844.596
1128.771, 6712.947
1129.253, 6591.248
1129.735, 6477.305
1130.217, 6374.722
1130.699, 6274.744
1131.181, 6157.669
1131.663, 6024.417
1132.146, 5899.241
1132.628, 5790.018
1133.110, 5691.410
1133.592, 5602.872
1134.074, 5521.515
1134.556, 5447.868
1135.038, 5378.781
1135.520, 5319.412
1136.002, 5261.656
1136.485, 5180.385
1136.967, 5065.388
1137.449, 4973.301
1137.931, 4916.532
1138.413, 4858.643
1138.895, 4789.985
1139.377, 4730.798
1139.859, 4695.731
1140.342, 4663.898
1140.824, 4606.265
1141.306, 4531.666
1141.788, 4487.625
1142.270, 4475.764
1142.752, 4441.986
1143.234, 4383.538
1143.716, 4325.246
1144.198, 4273.500
1144.681, 4225.036
1145.163, 4177.364
1145.645, 4132.727
1146.127, 4092.733
1146.609, 4058.803
1147.091, 4040.791
1147.573, 4029.122
1148.055, 3997.687
1148.537, 3950.750
1149.020, 3913.979
1149.502, 3895.222
1149.984, 3878.669
1150.466, 3852.198
1150.948, 3827.965
1151.430, 3817.430
1151.912, 3810.030
1152.394, 3801.030
1152.877, 3786.906
1153.359, 3763.077
1153.841, 3730.320
1154.323, 3692.002
1154.805, 3641.854
1155.287, 3608.895
1155.769, 3613.967
1156.251, 3611.618
1156.734, 3581.542
1157.216, 3556.041
1157.698, 3558.920
1158.180, 3572.068
1158.662, 3567.728
1159.144, 3547.282
1159.626, 3525.640
1160.108, 3502.255
1160.590, 3483.570
1161.073, 3470.680
1161.555, 3454.535
1162.037, 3432.046
1162.519, 3411.286
1163.001, 3398.638
1163.483, 3389.693
1163.965, 3380.228
1164.447, 3367.449
1164.929, 3336.966
1165.412, 3299.722
1165.894, 3288.489
1166.376, 3298.706
1166.858, 3297.510
1167.340, 3274.608
1167.822, 3253.990
1168.304, 3254.821
1168.786, 3256.770
1169.269, 3241.986
1169.751, 3227.344
1170.233, 3230.311
1170.715, 3239.010
1171.197, 3239.014
1171.679, 3229.463
1172.161, 3211.954
1172.643, 3180.302
1173.125, 3163.156
1173.608, 3172.159
1174.090, 3178.841
1174.572, 3180.225
1175.054, 3174.490
1175.536, 3155.968
1176.018, 3138.781
1176.500, 3143.746
1176.982, 3164.853
1177.464, 3169.805
1177.947, 3159.106
1178.429, 3164.221
1178.911, 3185.165
1179.393, 3193.104
1179.875, 3182.256
1180.357, 3179.239
1180.839, 3200.854
1181.321, 3226.493
1181.804, 3231.883
1182.286, 3226.566
1182.768, 3219.870
1183.250, 3214.397
1183.732, 3213.844
1184.214, 3217.827
1184.696, 3224.886
1185.178, 3234.561
1185.661, 3246.200
1186.143, 3257.619
1186.625, 3275.385
1187.107, 3313.475
1187.589, 3343.214
1188.071, 3345.802
1188.553, 3341.134
1189.035, 3344.690
1189.517, 3353.594
1190.000, 3361.906
1190.482, 3369.602
1190.964, 3381.787
1191.446, 3399.293
1191.928, 3417.153
1192.410, 3434.750
1192.892, 3453.037
1193.374, 3472.025
1193.856, 3495.408
1194.339, 3526.661
1194.821, 3561.566
1195.303, 3597.936
1195.785, 3630.252
1196.267, 3641.742
1196.749, 3640.679
1197.231, 3642.664
1197.713, 3651.077
1198.196, 3668.884
1198.678, 3696.015
1199.160, 3722.499
1199.642, 3741.714
1200.124, 3761.691
1200.606, 3785.976
1201.088, 3812.647
1201.570, 3845.651
1202.052, 3876.119
1202.535, 3891.519
1203.017, 3897.272
1203.499, 3908.836
1203.981, 3925.737
1204.463, 3954.266
1204.945, 4000.434
1205.427, 4034.170
1205.909, 4047.651
1206.391, 4076.181
1206.874, 4136.856
1207.356, 4185.702
1207.838, 4179.227
1208.320, 4154.127
1208.802, 4184.610
1209.284, 4248.492
1209.766, 4290.991
1210.248, 4315.198
1210.731, 4323.690
1211.213, 4325.042
1211.695, 4344.229
1212.177, 4387.079
1212.659, 4423.335
1213.141, 4424.920
1213.623, 4438.903
1214.105, 4511.861
1214.587, 4576.080
1215.070, 4575.228
1215.552, 4560.393
1216.034, 4588.180
1216.516, 4641.701
1216.998, 4675.259
1217.480, 4687.531
1217.962, 4700.750
1218.444, 4710.119
1218.927, 4746.379
1219.409, 4817.375
1219.891, 4877.616
1220.373, 4911.600
1220.855, 4931.756
1221.337, 4946.082
1221.819, 4963.413
1222.301, 5006.256
1222.783, 5056.122
1223.266, 5072.046
1223.748, 5068.829
1224.230, 5071.660
1224.712, 5082.757
1225.194, 5095.382
1225.676, 5109.580
1226.158, 5139.482
1226.640, 5200.143
1227.122, 5254.838
1227.605, 5292.071
1228.087, 5319.839
1228.569, 5334.702
1229.051, 5348.692
1229.533, 5371.794
1230.015, 5397.602
1230.497, 5415.008
1230.979, 5425.645
1231.462, 5444.784
1231.944, 5473.167
1232.426, 5492.092
1232.908, 5500.862
1233.390, 5506.973
1233.872, 5512.625
1234.354, 5519.273
1234.836, 5527.683
1235.318, 5538.747
1235.801, 5554.772
1236.283, 5572.281
1236.765, 5586.546
1237.247, 5600.798
1237.729, 5623.363
1238.211, 5645.853
1238.693, 5652.831
1239.175, 5646.028
1239.657, 5639.603
1240.140, 5630.109
1240.622, 5643.476
1241.104, 5705.642
1241.586, 5739.519
1242.068, 5723.834
1242.550, 5705.429
1243.032, 5704.935
1243.514, 5710.460
1243.997, 5710.174
1244.479, 5706.972
1244.961, 5710.378
1245.443, 5715.688
1245.925, 5702.204
1246.407, 5677.325
1246.889, 5660.338
1247.371, 5654.264
1247.854, 5662.504
1248.336, 5683.110
1248.818, 5688.946
1249.300, 5654.676
1249.782, 5629.084
1250.264, 5656.248
1250.746, 5669.222
1251.228, 5611.959
1251.710, 5549.467
1252.193, 5539.679
1252.675, 5554.759
1253.157, 5549.948
1253.639, 5527.942
1254.121, 5514.240
1254.603, 5509.458
1255.085, 5499.362
1255.567, 5483.813
1256.049, 5481.445
1256.532, 5493.610
1257.014, 5484.336
1257.496, 5434.981
1257.978, 5396.381
1258.460, 5434.034
1258.942, 5476.536
1259.424, 5439.050
1259.906, 5387.347
1260.389, 5384.231
1260.871, 5407.307
1261.353, 5437.547
1261.835, 5461.208
1262.317, 5438.094
1262.799, 5354.445
1263.281, 5304.885
1263.763, 5290.162
1264.245, 5315.470
1264.728, 5396.077
1265.210, 5435.138
##END=



