##NAMES=Aegirine
##RRUFFID=R070253
##IDEAL CHEMISTRY=NaFe^3+^Si_2_O_6_
##LOCALITY=Lovozero Massif, Kola Peninsula, Murmanskaya Oblast'; Northern Region, Russia
##OWNER=RRUFF
##SOURCE=Michael Scott
##DESCRIPTION=Dark green to black prismatic aegirine associated with a brown mica and microcline
##STATUS=The identification of this mineral has been confirmed by single-crystal X-ray diffraction.
##URL=rruff.info/R070253
90.49219, 183.8613
90.97430, 192.8946
91.45642, 196.1131
91.93854, 188.3516
92.42065, 176.2732
92.90277, 169.9287
93.38489, 170.4853
93.86700, 174.0165
94.34912, 177.0157
94.83124, 179.3546
95.31335, 180.1708
95.79547, 177.8842
96.27759, 173.3417
96.75970, 170.0307
97.24182, 168.7010
97.72394, 168.5229
98.20605, 166.9068
98.68817, 163.4588
99.17029, 161.8124
99.65240, 166.6843
100.1345, 178.7848
100.6166, 186.9931
101.0988, 188.8022
101.5809, 184.7261
102.0630, 178.1839
102.5451, 166.9875
103.0272, 157.1046
103.5093, 156.5794
103.9915, 170.1280
104.4736, 180.7288
104.9557, 182.5130
105.4378, 173.0717
105.9199, 168.4918
106.4020, 170.7786
106.8842, 176.9114
107.3663, 182.0064
107.8484, 187.9699
108.3305, 190.6051
108.8126, 187.8443
109.2947, 173.2621
109.7769, 163.9668
110.2590, 161.8245
110.7411, 165.2930
111.2232, 169.6301
111.7053, 178.8728
112.1874, 186.0882
112.6696, 188.0786
113.1517, 178.2578
113.6338, 169.9651
114.1159, 165.7175
114.5980, 165.0024
115.0801, 163.9363
115.5623, 158.9855
116.0444, 154.6286
116.5265, 154.3269
117.0086, 165.0732
117.4907, 174.6923
117.9728, 177.2605
118.4550, 172.3947
118.9371, 168.6400
119.4192, 171.8164
119.9013, 177.8538
120.3834, 181.5128
120.8655, 178.2857
121.3477, 173.4198
121.8298, 170.5569
122.3119, 170.1324
122.7940, 170.8497
123.2761, 172.1574
123.7582, 173.9510
124.2404, 175.9977
124.7225, 179.5598
125.2046, 182.8329
125.6867, 183.0406
126.1688, 178.8279
126.6509, 173.8645
127.1331, 172.3940
127.6152, 173.8694
128.0973, 175.5720
128.5794, 174.8100
129.0615, 172.8691
129.5436, 172.9016
130.0258, 175.9862
130.5079, 180.9260
130.9900, 185.8385
131.4721, 190.6817
131.9542, 195.7390
132.4363, 201.4766
132.9185, 207.7633
133.4006, 213.5802
133.8827, 218.0625
134.3648, 221.9277
134.8469, 228.2981
135.3290, 237.4451
135.8112, 247.9514
136.2933, 257.9467
136.7754, 267.3769
137.2575, 277.8589
137.7396, 290.6413
138.2217, 305.4083
138.7039, 317.8336
139.1860, 326.5207
139.6681, 335.1064
140.1502, 350.5814
140.6323, 375.2340
141.1144, 398.6391
141.5966, 416.4567
142.0787, 427.2732
142.5608, 438.0914
143.0429, 448.2122
143.5250, 458.6893
144.0071, 472.0503
144.4893, 489.1251
144.9714, 507.5560
145.4535, 526.1570
145.9356, 545.2797
146.4177, 564.2088
146.8998, 582.6328
147.3820, 600.8610
147.8641, 620.8259
148.3462, 640.3980
148.8283, 663.4455
149.3104, 692.5607
149.7925, 734.4222
150.2747, 773.4602
150.7568, 807.0826
151.2389, 835.7800
151.7210, 865.4062
152.2031, 897.5253
152.6852, 929.3193
153.1674, 959.3950
153.6495, 982.7277
154.1316, 1009.261
154.6137, 1042.665
155.0958, 1083.140
155.5779, 1119.436
156.0601, 1144.186
156.5422, 1166.996
157.0243, 1195.800
157.5064, 1236.689
157.9885, 1279.372
158.4706, 1321.423
158.9528, 1362.689
159.4349, 1403.293
159.9170, 1444.491
160.3991, 1484.682
160.8812, 1522.018
161.3633, 1561.231
161.8455, 1593.261
162.3276, 1614.135
162.8097, 1622.717
163.2918, 1622.673
163.7739, 1609.518
164.2560, 1587.550
164.7382, 1556.684
165.2203, 1529.943
165.7024, 1506.918
166.1845, 1484.178
166.6666, 1459.489
167.1487, 1440.449
167.6309, 1431.941
168.1130, 1431.695
168.5951, 1435.144
169.0772, 1442.504
169.5593, 1451.201
170.0414, 1458.506
170.5236, 1462.566
171.0057, 1468.405
171.4878, 1479.946
171.9699, 1496.344
172.4520, 1514.836
172.9341, 1534.592
173.4163, 1555.413
173.8984, 1576.574
174.3805, 1596.497
174.8626, 1619.116
175.3447, 1650.920
175.8268, 1690.183
176.3090, 1729.127
176.7911, 1758.901
177.2732, 1785.191
177.7553, 1817.934
178.2374, 1864.536
178.7195, 1913.256
179.2017, 1953.089
179.6838, 1984.009
180.1659, 2000.937
180.6480, 1992.796
181.1301, 1967.884
181.6122, 1945.093
182.0944, 1928.885
182.5765, 1918.351
183.0586, 1910.419
183.5407, 1905.210
184.0228, 1907.055
184.5049, 1920.275
184.9871, 1943.939
185.4692, 1974.601
185.9513, 2013.960
186.4334, 2058.600
186.9155, 2101.326
187.3976, 2141.716
187.8798, 2182.874
188.3619, 2229.688
188.8440, 2281.360
189.3261, 2329.645
189.8082, 2371.630
190.2903, 2408.449
190.7725, 2446.917
191.2546, 2489.055
191.7367, 2524.914
192.2188, 2543.923
192.7009, 2546.612
193.1830, 2538.516
193.6652, 2519.720
194.1473, 2491.201
194.6294, 2459.659
195.1115, 2424.954
195.5936, 2387.742
196.0757, 2348.375
196.5579, 2306.804
197.0400, 2264.625
197.5221, 2221.636
198.0042, 2178.216
198.4863, 2136.851
198.9684, 2097.204
199.4506, 2060.799
199.9327, 2030.753
200.4148, 2007.176
200.8969, 1987.230
201.3790, 1970.654
201.8611, 1957.670
202.3433, 1942.239
202.8254, 1922.339
203.3075, 1903.061
203.7896, 1894.945
204.2717, 1900.083
204.7538, 1905.172
205.2360, 1902.553
205.7181, 1890.451
206.2002, 1887.491
206.6823, 1895.908
207.1644, 1910.703
207.6465, 1922.308
208.1287, 1929.214
208.6108, 1937.840
209.0929, 1952.343
209.5750, 1974.788
210.0571, 1992.231
210.5392, 2003.913
211.0214, 2011.514
211.5035, 2019.299
211.9856, 2029.116
212.4677, 2034.046
212.9498, 2030.580
213.4319, 2017.640
213.9140, 2001.189
214.3962, 1981.219
214.8783, 1957.703
215.3604, 1930.867
215.8425, 1900.057
216.3246, 1866.817
216.8067, 1830.786
217.2889, 1790.986
217.7710, 1752.931
218.2531, 1717.104
218.7352, 1682.881
219.2173, 1647.548
219.6994, 1609.333
220.1816, 1573.094
220.6637, 1540.575
221.1458, 1512.589
221.6279, 1485.861
222.1100, 1460.380
222.5921, 1436.049
223.0743, 1411.793
223.5564, 1387.618
224.0385, 1363.847
224.5206, 1341.001
225.0027, 1318.389
225.4848, 1297.751
225.9670, 1279.263
226.4491, 1262.912
226.9312, 1248.647
227.4133, 1237.757
227.8954, 1226.989
228.3775, 1214.815
228.8597, 1199.541
229.3418, 1186.540
229.8239, 1176.628
230.3060, 1168.727
230.7881, 1160.287
231.2702, 1151.209
231.7524, 1141.473
232.2345, 1130.819
232.7166, 1117.443
233.1987, 1107.160
233.6808, 1101.797
234.1629, 1099.102
234.6451, 1092.496
235.1272, 1078.890
235.6093, 1066.103
236.0914, 1057.840
236.5735, 1056.445
237.0556, 1054.441
237.5378, 1052.402
238.0199, 1049.642
238.5020, 1043.640
238.9841, 1029.963
239.4662, 1019.536
239.9483, 1018.305
240.4305, 1033.630
240.9126, 1040.538
241.3947, 1035.693
241.8768, 1023.468
242.3589, 1014.656
242.8410, 1011.102
243.3232, 1008.071
243.8053, 1002.930
244.2874, 992.1617
244.7695, 988.1699
245.2516, 994.0073
245.7337, 1005.374
246.2159, 1012.895
246.6980, 1016.150
247.1801, 1016.214
247.6622, 1012.657
248.1443, 1002.697
248.6264, 997.1298
249.1086, 997.4595
249.5907, 1001.404
250.0728, 1004.351
250.5549, 1005.943
251.0370, 1007.129
251.5191, 1008.166
252.0013, 1008.879
252.4834, 1010.142
252.9655, 1012.880
253.4476, 1015.582
253.9297, 1014.938
254.4118, 1008.591
254.8940, 1003.273
255.3761, 1001.360
255.8582, 1003.344
256.3403, 1006.964
256.8224, 1012.812
257.3046, 1019.851
257.7867, 1026.208
258.2688, 1031.594
258.7509, 1037.116
259.2330, 1043.754
259.7151, 1052.431
260.1973, 1056.576
260.6794, 1053.644
261.1615, 1048.612
261.6436, 1049.095
262.1257, 1057.068
262.6078, 1065.787
263.0900, 1073.526
263.5721, 1080.414
264.0542, 1085.411
264.5363, 1087.794
265.0184, 1089.177
265.5005, 1091.564
265.9827, 1094.876
266.4648, 1099.454
266.9469, 1106.391
267.4290, 1115.804
267.9111, 1120.342
268.3932, 1118.224
268.8754, 1113.910
269.3575, 1112.518
269.8396, 1114.775
270.3217, 1117.237
270.8038, 1118.929
271.2859, 1119.957
271.7681, 1122.203
272.2502, 1126.165
272.7323, 1130.333
273.2144, 1132.023
273.6965, 1130.025
274.1786, 1132.285
274.6608, 1141.704
275.1429, 1157.129
275.6250, 1170.859
276.1071, 1183.051
276.5892, 1193.101
277.0714, 1199.286
277.5535, 1201.095
278.0356, 1204.276
278.5177, 1210.432
278.9998, 1218.640
279.4819, 1224.575
279.9641, 1227.667
280.4462, 1231.154
280.9283, 1238.634
281.4104, 1250.256
281.8925, 1259.133
282.3746, 1263.122
282.8568, 1264.534
283.3389, 1270.242
283.8210, 1280.642
284.3031, 1292.195
284.7852, 1302.604
285.2673, 1311.831
285.7495, 1320.887
286.2316, 1329.580
286.7137, 1338.541
287.1958, 1349.810
287.6779, 1363.470
288.1600, 1376.271
288.6422, 1386.460
289.1243, 1394.144
289.6064, 1399.055
290.0885, 1400.512
290.5706, 1401.074
291.0527, 1404.550
291.5349, 1410.884
292.0170, 1419.163
292.4991, 1430.136
292.9812, 1442.880
293.4633, 1453.886
293.9454, 1463.188
294.4276, 1470.276
294.9097, 1472.977
295.3918, 1472.148
295.8739, 1472.225
296.3560, 1475.478
296.8381, 1481.149
297.3203, 1488.201
297.8024, 1496.823
298.2845, 1504.474
298.7666, 1507.429
299.2487, 1506.957
299.7308, 1507.039
300.2130, 1507.969
300.6951, 1510.959
301.1772, 1519.198
301.6593, 1532.634
302.1414, 1546.585
302.6235, 1556.793
303.1057, 1564.514
303.5878, 1571.954
304.0699, 1579.572
304.5520, 1587.646
305.0341, 1596.134
305.5162, 1605.118
305.9984, 1615.696
306.4805, 1630.347
306.9626, 1646.573
307.4447, 1660.486
307.9268, 1670.251
308.4089, 1678.650
308.8911, 1689.022
309.3732, 1700.481
309.8553, 1709.432
310.3374, 1711.732
310.8195, 1711.409
311.3016, 1713.064
311.7838, 1719.793
312.2659, 1724.075
312.7480, 1719.948
313.2301, 1709.494
313.7122, 1697.818
314.1943, 1685.567
314.6765, 1673.983
315.1586, 1664.510
315.6407, 1658.376
316.1228, 1650.850
316.6049, 1638.176
317.0870, 1622.834
317.5692, 1609.105
318.0513, 1598.281
318.5334, 1589.423
319.0155, 1581.942
319.4976, 1575.565
319.9797, 1571.469
320.4619, 1571.980
320.9440, 1574.249
321.4261, 1575.090
321.9082, 1568.285
322.3903, 1565.158
322.8724, 1570.835
323.3546, 1585.607
323.8367, 1599.252
324.3188, 1606.797
324.8009, 1614.232
325.2830, 1626.038
325.7651, 1645.490
326.2473, 1666.445
326.7294, 1687.065
327.2115, 1707.902
327.6936, 1733.342
328.1757, 1766.949
328.6578, 1802.571
329.1400, 1837.221
329.6221, 1866.042
330.1042, 1899.886
330.5863, 1939.965
331.0684, 1985.314
331.5505, 2032.319
332.0327, 2082.176
332.5148, 2132.649
332.9969, 2183.461
333.4790, 2234.136
333.9611, 2283.789
334.4432, 2333.505
334.9254, 2381.719
335.4075, 2425.131
335.8896, 2463.645
336.3717, 2498.375
336.8538, 2530.008
337.3359, 2559.253
337.8180, 2580.723
338.3001, 2594.045
338.7823, 2600.246
339.2644, 2601.075
339.7465, 2597.675
340.2286, 2583.845
340.7107, 2556.800
341.1928, 2517.531
341.6750, 2475.307
342.1571, 2428.810
342.6392, 2382.031
343.1213, 2337.999
343.6034, 2297.123
344.0855, 2254.872
344.5677, 2210.277
345.0498, 2164.552
345.5319, 2121.452
346.0140, 2080.988
346.4961, 2042.960
346.9782, 2008.928
347.4604, 1977.582
347.9425, 1943.109
348.4246, 1903.384
348.9067, 1864.224
349.3888, 1834.682
349.8709, 1813.531
350.3531, 1793.895
350.8352, 1772.603
351.3173, 1750.515
351.7994, 1727.912
352.2815, 1704.650
352.7636, 1684.211
353.2458, 1670.840
353.7279, 1662.784
354.2100, 1656.256
354.6921, 1649.453
355.1742, 1643.721
355.6563, 1640.563
356.1385, 1639.891
356.6206, 1640.633
357.1027, 1641.956
357.5848, 1644.304
358.0669, 1648.063
358.5490, 1652.493
359.0312, 1659.549
359.5133, 1671.740
359.9954, 1687.848
360.4775, 1704.233
360.9596, 1721.339
361.4417, 1736.647
361.9239, 1747.870
362.4060, 1752.892
362.8881, 1758.991
363.3702, 1771.466
363.8523, 1786.242
364.3344, 1797.072
364.8166, 1799.603
365.2987, 1800.248
365.7808, 1801.113
366.2629, 1802.394
366.7450, 1803.618
367.2271, 1808.520
367.7093, 1811.511
368.1914, 1807.679
368.6735, 1788.037
369.1556, 1771.014
369.6377, 1762.180
370.1198, 1759.969
370.6020, 1750.873
371.0841, 1728.494
371.5662, 1705.102
372.0483, 1687.428
372.5304, 1677.624
373.0125, 1669.227
373.4947, 1662.248
373.9768, 1656.615
374.4589, 1651.939
374.9410, 1647.666
375.4231, 1645.491
375.9052, 1646.280
376.3874, 1650.339
376.8695, 1654.869
377.3516, 1659.380
377.8337, 1665.278
378.3158, 1675.006
378.7979, 1689.087
379.2801, 1703.405
379.7622, 1716.874
380.2443, 1729.730
380.7264, 1743.875
381.2085, 1759.403
381.6906, 1775.027
382.1728, 1789.176
382.6549, 1802.301
383.1370, 1816.751
383.6191, 1833.704
384.1012, 1850.998
384.5833, 1866.120
385.0655, 1878.942
385.5476, 1888.640
386.0297, 1894.455
386.5118, 1897.085
386.9939, 1897.958
387.4760, 1897.232
387.9582, 1894.341
388.4403, 1889.779
388.9224, 1882.565
389.4045, 1870.823
389.8866, 1853.951
390.3687, 1832.035
390.8509, 1804.080
391.3330, 1770.586
391.8151, 1735.232
392.2972, 1701.087
392.7793, 1666.051
393.2614, 1627.917
393.7436, 1586.062
394.2257, 1541.862
394.7078, 1495.053
395.1899, 1446.559
395.6720, 1398.788
396.1541, 1351.190
396.6363, 1305.557
397.1184, 1262.962
397.6005, 1224.154
398.0826, 1186.378
398.5647, 1148.082
399.0468, 1110.985
399.5290, 1077.168
400.0111, 1049.478
400.4932, 1022.159
400.9753, 993.4940
401.4574, 963.3876
401.9395, 936.9407
402.4217, 915.1771
402.9038, 895.7243
403.3859, 877.1041
403.8680, 859.3459
404.3501, 842.0654
404.8322, 824.5272
405.3144, 807.8609
405.7965, 795.8237
406.2786, 789.0720
406.7607, 784.5335
407.2428, 782.1170
407.7249, 781.9846
408.2071, 777.2158
408.6892, 766.9326
409.1713, 754.5489
409.6534, 744.2357
410.1355, 735.9310
410.6176, 727.2430
411.0998, 716.2526
411.5819, 705.1292
412.0640, 700.3810
412.5461, 701.8063
413.0282, 703.2001
413.5103, 699.4432
413.9925, 692.3002
414.4746, 684.9181
414.9567, 677.2658
415.4388, 671.0759
415.9209, 669.6680
416.4030, 671.2101
416.8852, 671.1074
417.3673, 666.0051
417.8494, 658.9958
418.3315, 652.2798
418.8136, 646.0417
419.2957, 640.1853
419.7779, 635.6962
420.2600, 631.1776
420.7421, 625.3021
421.2242, 614.0347
421.7063, 605.1186
422.1884, 601.7146
422.6706, 602.7928
423.1527, 604.3086
423.6348, 607.6258
424.1169, 609.3544
424.5990, 607.8463
425.0811, 602.0226
425.5633, 595.0779
426.0454, 584.6132
426.5275, 574.1739
427.0096, 568.3724
427.4917, 570.5776
427.9738, 572.3513
428.4560, 571.4948
428.9381, 568.1984
429.4202, 567.3699
429.9023, 570.3445
430.3844, 573.3262
430.8665, 573.4003
431.3487, 570.1342
431.8308, 566.3305
432.3129, 561.7495
432.7950, 557.3636
433.2771, 555.4998
433.7592, 556.2402
434.2414, 557.6778
434.7235, 559.5873
435.2056, 561.5588
435.6877, 561.5185
436.1698, 559.3205
436.6519, 556.9120
437.1341, 556.1605
437.6162, 556.7394
438.0983, 557.7492
438.5804, 558.8094
439.0625, 560.4024
439.5446, 564.4398
440.0268, 569.8904
440.5089, 572.9750
440.9910, 570.1180
441.4731, 564.7335
441.9552, 559.3550
442.4373, 554.1339
442.9195, 550.1467
443.4016, 548.5340
443.8837, 548.2841
444.3658, 548.1672
444.8479, 548.1583
445.3300, 547.8893
445.8122, 546.1099
446.2943, 543.3099
446.7764, 543.5551
447.2585, 552.5486
447.7406, 560.8019
448.2227, 563.2177
448.7049, 555.3782
449.1870, 550.1159
449.6691, 548.1329
450.1512, 548.4073
450.6333, 549.3947
451.1154, 551.0093
451.5976, 553.6208
452.0797, 557.8737
452.5618, 563.5481
453.0439, 566.9064
453.5260, 567.4151
454.0081, 567.0856
454.4903, 567.4192
454.9724, 568.4031
455.4545, 569.3417
455.9366, 570.1692
456.4187, 570.8691
456.9008, 571.2399
457.3830, 571.3544
457.8651, 571.7291
458.3472, 572.8582
458.8293, 574.3376
459.3114, 575.6806
459.7935, 576.8621
460.2757, 577.3449
460.7578, 574.9093
461.2399, 572.0348
461.7220, 572.7689
462.2041, 581.2530
462.6862, 588.2829
463.1684, 585.9156
463.6505, 577.4876
464.1326, 570.7687
464.6147, 570.4210
465.0968, 571.2639
465.5789, 570.4189
466.0611, 567.2842
466.5432, 565.4676
467.0253, 567.6400
467.5074, 570.3846
467.9895, 570.8290
468.4716, 566.6654
468.9538, 562.9000
469.4359, 559.6317
469.9180, 557.0013
470.4001, 555.5132
470.8822, 555.4229
471.3643, 556.0968
471.8465, 557.7598
472.3286, 560.7097
472.8107, 561.3141
473.2928, 559.0049
473.7749, 555.7763
474.2570, 553.1935
474.7392, 551.2706
475.2213, 552.0875
475.7034, 557.0093
476.1855, 563.8175
476.6676, 567.9420
477.1497, 569.5858
477.6319, 570.5541
478.1140, 570.6363
478.5961, 571.1595
479.0782, 574.5609
479.5603, 581.0933
480.0424, 589.1066
480.5246, 598.8057
481.0067, 608.7322
481.4888, 616.7504
481.9709, 619.9642
482.4530, 623.7404
482.9352, 631.6733
483.4173, 642.5528
483.8994, 652.5568
484.3815, 659.3624
484.8636, 665.8714
485.3457, 673.1224
485.8279, 680.8806
486.3100, 690.7572
486.7921, 704.4562
487.2742, 719.4645
487.7563, 733.7438
488.2384, 746.8422
488.7206, 760.0433
489.2027, 773.2001
489.6848, 786.6041
490.1669, 800.9482
490.6490, 815.7698
491.1311, 832.6059
491.6133, 852.7376
492.0954, 876.1779
492.5775, 897.9442
493.0596, 917.4906
493.5417, 937.2441
494.0238, 960.3574
494.5060, 986.1931
494.9881, 1011.576
495.4702, 1035.765
495.9523, 1058.687
496.4344, 1081.419
496.9165, 1102.909
497.3987, 1119.148
497.8808, 1127.377
498.3629, 1129.764
498.8450, 1128.037
499.3271, 1122.277
499.8092, 1113.362
500.2914, 1101.870
500.7735, 1087.365
501.2556, 1069.061
501.7377, 1044.062
502.2198, 1018.772
502.7019, 994.4803
503.1841, 970.7941
503.6662, 946.4644
504.1483, 918.9874
504.6304, 892.9453
505.1125, 869.6396
505.5946, 849.0516
506.0768, 831.1415
506.5589, 816.8675
507.0410, 804.0696
507.5231, 790.4799
508.0052, 775.5154
508.4873, 764.2126
508.9695, 758.1153
509.4516, 754.7084
509.9337, 749.3641
510.4158, 742.1931
510.8979, 735.2734
511.3800, 728.1483
511.8622, 722.2626
512.3443, 721.6751
512.8264, 726.1686
513.3085, 731.6972
513.7906, 734.9554
514.2728, 737.4962
514.7549, 741.8787
515.2370, 749.6769
515.7191, 756.0043
516.2012, 753.8358
516.6833, 749.0630
517.1655, 750.6935
517.6476, 766.1789
518.1297, 784.0294
518.6118, 801.5997
519.0939, 818.6111
519.5760, 833.4188
520.0582, 844.3430
520.5403, 854.1129
521.0224, 862.7276
521.5045, 866.9697
521.9866, 880.3171
522.4688, 907.2180
522.9509, 938.3179
523.4330, 961.0687
523.9151, 973.0179
524.3972, 990.6398
524.8793, 1018.924
525.3615, 1053.546
525.8436, 1083.245
526.3257, 1108.217
526.8078, 1133.621
527.2899, 1164.276
527.7720, 1197.598
528.2542, 1226.546
528.7363, 1250.584
529.2184, 1274.764
529.7005, 1303.749
530.1826, 1335.028
530.6647, 1364.891
531.1469, 1390.187
531.6290, 1416.960
532.1111, 1448.638
532.5932, 1483.978
533.0753, 1520.298
533.5574, 1556.213
534.0396, 1593.861
534.5217, 1633.657
535.0038, 1675.178
535.4859, 1722.128
535.9680, 1779.049
536.4501, 1836.488
536.9323, 1887.568
537.4144, 1926.742
537.8965, 1977.675
538.3786, 2044.804
538.8607, 2118.249
539.3428, 2182.741
539.8250, 2238.599
540.3071, 2288.959
540.7892, 2333.921
541.2713, 2374.208
541.7534, 2410.502
542.2355, 2442.640
542.7177, 2468.570
543.1998, 2486.310
543.6819, 2497.565
544.1640, 2505.729
544.6461, 2511.318
545.1282, 2509.956
545.6104, 2496.483
546.0925, 2475.135
546.5746, 2450.374
547.0567, 2420.419
547.5388, 2391.425
548.0209, 2367.231
548.5031, 2345.639
548.9852, 2321.281
549.4673, 2288.578
549.9494, 2258.139
550.4315, 2233.660
550.9136, 2215.108
551.3958, 2193.553
551.8779, 2166.922
552.3600, 2140.729
552.8421, 2118.046
553.3242, 2098.997
553.8063, 2082.797
554.2885, 2070.093
554.7706, 2058.359
555.2527, 2043.171
555.7348, 2025.385
556.2169, 2010.420
556.6990, 2000.671
557.1812, 1993.759
557.6633, 1987.609
558.1454, 1981.770
558.6275, 1974.516
559.1096, 1964.776
559.5917, 1953.331
560.0739, 1941.082
560.5560, 1928.061
561.0381, 1913.314
561.5202, 1897.120
562.0023, 1878.807
562.4844, 1857.763
562.9666, 1831.019
563.4487, 1805.794
563.9308, 1783.872
564.4129, 1763.066
564.8950, 1740.127
565.3771, 1714.926
565.8593, 1688.218
566.3414, 1659.308
566.8235, 1629.225
567.3056, 1602.418
567.7877, 1579.735
568.2698, 1555.066
568.7520, 1521.571
569.2341, 1482.719
569.7162, 1451.146
570.1983, 1427.777
570.6804, 1407.202
571.1625, 1385.913
571.6447, 1363.991
572.1268, 1341.340
572.6089, 1316.767
573.0910, 1293.596
573.5731, 1275.195
574.0552, 1259.334
574.5374, 1241.691
575.0195, 1219.418
575.5016, 1196.834
575.9837, 1174.764
576.4658, 1153.468
576.9479, 1134.005
577.4301, 1117.365
577.9122, 1101.656
578.3943, 1085.888
578.8764, 1069.982
579.3585, 1055.278
579.8406, 1042.561
580.3228, 1029.286
580.8049, 1011.058
581.2870, 988.4442
581.7691, 971.4249
582.2512, 963.4162
582.7333, 957.8571
583.2155, 944.5964
583.6975, 925.6010
584.1796, 906.3734
584.6617, 889.1243
585.1439, 873.2137
585.6260, 859.1058
586.1081, 846.2324
586.5902, 831.7660
587.0723, 811.0721
587.5544, 791.0837
588.0366, 776.0322
588.5187, 767.8391
589.0008, 758.5668
589.4829, 745.6782
589.9650, 732.4491
590.4471, 721.5947
590.9293, 715.1810
591.4114, 706.1782
591.8935, 693.4102
592.3756, 678.5867
592.8577, 664.7462
593.3398, 652.0858
593.8220, 639.0279
594.3041, 624.8806
594.7862, 610.1702
595.2683, 595.7757
595.7504, 581.8734
596.2325, 568.8429
596.7147, 557.6804
597.1968, 547.1781
597.6789, 535.3016
598.1610, 521.8734
598.6431, 509.6570
599.1252, 501.9079
599.6074, 495.1775
600.0895, 486.2074
600.5716, 470.7794
601.0537, 459.4508
601.5358, 459.0800
602.0179, 461.6502
602.5001, 456.0431
602.9822, 435.3890
603.4643, 420.7345
603.9464, 417.4814
604.4285, 421.8104
604.9106, 421.1581
605.3928, 415.1625
605.8749, 407.4559
606.3570, 398.3763
606.8391, 389.0664
607.3212, 383.6800
607.8033, 382.1087
608.2855, 381.4015
608.7676, 379.4453
609.2497, 376.9727
609.7318, 375.0311
610.2139, 373.8886
610.6960, 372.6247
611.1782, 370.8957
611.6603, 368.7190
612.1424, 366.0866
612.6245, 362.8759
613.1066, 359.3883
613.5887, 354.9183
614.0709, 350.3326
614.5530, 347.4936
615.0351, 347.5936
615.5172, 346.9882
615.9993, 344.5504
616.4814, 340.6089
616.9636, 336.3289
617.4457, 331.5424
617.9278, 328.4198
618.4099, 329.5362
618.8920, 333.3063
619.3741, 335.5725
619.8563, 336.2010
620.3384, 335.6735
620.8205, 333.0566
621.3026, 330.0849
621.7847, 329.3070
622.2668, 332.5345
622.7490, 334.4157
623.2311, 330.8094
623.7132, 325.1453
624.1953, 321.8086
624.6774, 322.4760
625.1595, 324.5015
625.6417, 328.8600
626.1238, 334.1455
626.6059, 335.9269
627.0880, 332.8658
627.5701, 330.4888
628.0522, 331.5094
628.5344, 334.7994
629.0165, 333.6188
629.4986, 327.8393
629.9807, 323.2115
630.4628, 325.6724
630.9449, 331.5966
631.4271, 333.9634
631.9092, 332.1472
632.3913, 329.5935
632.8734, 328.3806
633.3555, 327.9146
633.8376, 327.5958
634.3198, 327.3817
634.8019, 327.1278
635.2840, 326.4325
635.7661, 325.8032
636.2482, 325.9613
636.7303, 327.4533
637.2125, 328.7719
637.6946, 329.3621
638.1767, 329.8026
638.6588, 332.0389
639.1409, 336.4066
639.6230, 340.3593
640.1052, 342.6615
640.5873, 343.9310
641.0694, 346.1753
641.5515, 349.3031
642.0336, 352.0068
642.5157, 353.3958
642.9979, 353.8943
643.4800, 353.7797
643.9621, 353.0576
644.4442, 352.3827
644.9263, 351.5031
645.4084, 351.1478
645.8906, 351.9653
646.3727, 354.7432
646.8548, 357.4857
647.3369, 360.8712
647.8190, 363.6269
648.3011, 363.6150
648.7833, 359.1830
649.2654, 357.7982
649.7475, 361.6254
650.2296, 367.7939
650.7117, 370.0600
651.1938, 368.7642
651.6760, 367.7873
652.1581, 369.0635
652.6402, 371.3148
653.1223, 372.5188
653.6044, 372.9344
654.0865, 373.7244
654.5687, 373.8764
655.0508, 375.9206
655.5329, 383.6863
656.0150, 397.6607
656.4971, 406.2663
656.9792, 400.7479
657.4614, 394.1819
657.9435, 393.9176
658.4256, 402.2090
658.9077, 408.9534
659.3898, 413.7948
659.8719, 417.7064
660.3541, 421.5728
660.8362, 425.3756
661.3183, 428.9627
661.8004, 432.0492
662.2825, 435.5634
662.7646, 440.6671
663.2468, 447.1461
663.7289, 454.4625
664.2110, 462.2232
664.6931, 471.0174
665.1752, 481.8363
665.6573, 493.9668
666.1395, 505.9595
666.6216, 517.4881
667.1037, 528.7009
667.5858, 539.5201
668.0679, 550.0672
668.5500, 560.5300
669.0322, 570.5325
669.5143, 581.3375
669.9964, 593.3519
670.4785, 606.6227
670.9606, 622.7288
671.4427, 642.0653
671.9249, 660.8619
672.4070, 676.8337
672.8891, 690.1476
673.3712, 700.5323
673.8533, 707.9149
674.3354, 714.1326
674.8176, 720.7960
675.2997, 726.9795
675.7818, 731.8935
676.2639, 736.9089
676.7460, 737.8529
677.2281, 732.1573
677.7103, 722.5092
678.1924, 712.2025
678.6745, 701.8787
679.1566, 689.7792
679.6387, 675.7091
680.1208, 659.7182
680.6030, 640.4139
681.0851, 618.1303
681.5672, 597.3035
682.0493, 580.1807
682.5314, 565.1231
683.0135, 550.0270
683.4957, 534.8134
683.9778, 519.7884
684.4599, 504.1067
684.9420, 489.3300
685.4241, 476.3283
685.9063, 465.1647
686.3884, 454.5913
686.8705, 445.4069
687.3526, 435.8790
687.8347, 424.6415
688.3168, 411.0724
688.7990, 400.4492
689.2811, 392.9083
689.7632, 387.6270
690.2453, 384.3099
690.7274, 382.8352
691.2095, 382.5630
691.6917, 383.7562
692.1738, 383.8874
692.6559, 379.3334
693.1380, 372.1352
693.6201, 365.5959
694.1022, 360.2798
694.5844, 356.2809
695.0665, 354.0428
695.5486, 353.0677
696.0307, 352.7177
696.5128, 354.8009
696.9949, 354.9165
697.4771, 351.2919
697.9592, 346.0830
698.4413, 344.2886
698.9234, 347.4159
699.4055, 347.5307
699.8876, 341.0281
700.3698, 331.5977
700.8519, 329.4687
701.3340, 333.6633
701.8161, 337.7726
702.2982, 338.7675
702.7803, 337.7630
703.2625, 334.9564
703.7446, 330.8558
704.2267, 328.0094
704.7088, 328.1836
705.1909, 329.3055
705.6730, 330.6430
706.1552, 332.2010
706.6373, 332.9861
707.1194, 332.9090
707.6015, 332.1569
708.0836, 330.3332
708.5657, 327.2818
709.0479, 326.7745
709.5300, 329.1747
710.0121, 331.8379
710.4942, 331.4538
710.9763, 329.6187
711.4584, 330.7006
711.9406, 335.6831
712.4227, 340.0687
712.9048, 340.5635
713.3869, 338.7672
713.8690, 336.2290
714.3511, 332.7032
714.8333, 329.5763
715.3154, 326.4679
715.7975, 324.2838
716.2796, 324.2619
716.7617, 327.3310
717.2438, 329.8834
717.7260, 331.4828
718.2081, 332.3919
718.6902, 333.0511
719.1723, 333.4337
719.6544, 333.0262
720.1365, 330.6606
720.6187, 329.0124
721.1008, 333.3222
721.5829, 340.7857
722.0650, 344.9394
722.5471, 338.6096
723.0292, 332.7341
723.5114, 333.3058
723.9935, 338.6395
724.4756, 341.1126
724.9577, 339.7360
725.4398, 336.3760
725.9219, 330.1386
726.4041, 322.2557
726.8862, 320.7607
727.3683, 326.1496
727.8504, 332.1739
728.3325, 335.9078
728.8146, 337.6866
729.2968, 337.1944
729.7789, 334.7752
730.2610, 333.3755
730.7431, 335.5887
731.2252, 338.9756
731.7073, 341.9351
732.1895, 344.3089
732.6716, 346.3175
733.1537, 348.0884
733.6358, 349.3968
734.1179, 350.0713
734.6000, 350.0041
735.0822, 350.1086
735.5643, 350.7307
736.0464, 350.3490
736.5285, 346.2924
737.0106, 339.9210
737.4927, 336.9536
737.9749, 338.2629
738.4570, 339.9272
738.9391, 336.7306
739.4212, 332.8208
739.9033, 333.3689
740.3854, 341.5155
740.8676, 349.0399
741.3497, 353.6485
741.8318, 356.5154
742.3139, 359.0190
742.7960, 361.4702
743.2781, 362.4694
743.7603, 361.2286
744.2424, 359.6622
744.7245, 360.3994
745.2066, 363.3203
745.6887, 367.8608
746.1708, 374.5492
746.6530, 381.1341
747.1351, 384.5214
747.6172, 386.0786
748.0993, 388.1806
748.5814, 392.0532
749.0635, 396.1996
749.5457, 400.1120
750.0278, 404.0100
750.5099, 408.2300
750.9920, 412.9398
751.4741, 417.6590
751.9562, 421.7618
752.4384, 426.2086
752.9205, 435.0597
753.4026, 448.1281
753.8847, 456.4699
754.3668, 454.3445
754.8489, 448.1388
755.3311, 447.6175
755.8132, 450.8181
756.2953, 452.0182
756.7774, 447.3304
757.2595, 441.2098
757.7416, 436.2976
758.2238, 432.0579
758.7059, 424.6183
759.1880, 412.1523
759.6701, 399.3120
760.1522, 386.9872
760.6343, 375.3882
761.1165, 365.0679
761.5986, 356.0862
762.0807, 348.1299
762.5628, 340.7868
763.0449, 334.4607
763.5270, 329.9988
764.0092, 327.2773
764.4913, 325.5409
764.9734, 324.9849
765.4555, 324.8054
765.9376, 324.4609
766.4197, 323.9243
766.9019, 324.0431
767.3840, 326.2347
767.8661, 327.0933
768.3482, 324.7044
768.8303, 319.2183
769.3124, 314.5686
769.7946, 310.7324
770.2767, 308.4728
770.7588, 309.7722
771.2409, 312.5037
771.7230, 312.6932
772.2051, 310.2700
772.6873, 307.3979
773.1694, 303.2547
773.6515, 300.7141
774.1336, 302.6971
774.6157, 310.6838
775.0978, 315.3141
775.5800, 315.2953
776.0621, 313.2439
776.5442, 310.3013
777.0263, 306.3956
777.5084, 302.7644
777.9905, 299.3397
778.4727, 296.6526
778.9548, 294.7453
779.4369, 294.0246
779.9190, 295.7157
780.4011, 300.0239
780.8832, 304.2640
781.3654, 307.4799
781.8475, 309.5957
782.3296, 310.3673
782.8117, 309.2148
783.2938, 308.4570
783.7759, 308.5969
784.2581, 308.4358
784.7402, 306.4461
785.2223, 302.6287
785.7044, 301.3706
786.1865, 302.9801
786.6686, 305.9569
787.1508, 310.6477
787.6329, 315.1165
788.1150, 315.6611
788.5971, 311.0122
789.0792, 307.2920
789.5613, 308.3869
790.0435, 310.9767
790.5256, 312.4253
791.0077, 312.2872
791.4898, 311.7020
791.9719, 310.6059
792.4540, 309.1648
792.9362, 307.1428
793.4183, 304.6721
793.9004, 303.7242
794.3825, 304.5022
794.8646, 306.2944
795.3467, 309.4236
795.8289, 312.7473
796.3110, 314.5905
796.7931, 314.4488
797.2752, 313.9476
797.7573, 314.3314
798.2394, 314.1310
798.7216, 311.7020
799.2037, 304.2824
799.6858, 302.5585
800.1679, 308.3166
800.6500, 315.7231
801.1321, 319.0963
801.6143, 319.0636
802.0964, 318.3588
802.5785, 317.1122
803.0606, 316.9111
803.5427, 320.5250
804.0248, 325.2457
804.5070, 328.0240
804.9891, 327.7090
805.4712, 327.2629
805.9533, 326.8669
806.4354, 326.9107
806.9175, 327.6894
807.3997, 329.2553
807.8818, 331.4635
808.3639, 334.4203
808.8460, 337.5506
809.3281, 340.1191
809.8102, 342.4022
810.2924, 345.3297
810.7745, 349.1496
811.2566, 352.4528
811.7387, 353.5112
812.2208, 354.0129
812.7029, 355.3312
813.1851, 357.4870
813.6672, 361.2670
814.1493, 368.4886
814.6314, 375.1418
815.1135, 377.2018
815.5956, 374.3911
816.0778, 374.2310
816.5599, 377.1745
817.0420, 381.4893
817.5241, 385.7177
818.0062, 390.1382
818.4883, 395.3812
818.9705, 401.6379
819.4526, 407.9296
819.9347, 414.3949
820.4168, 420.2855
820.8989, 424.9995
821.3810, 428.4224
821.8632, 430.7631
822.3453, 431.0125
822.8274, 432.4314
823.3095, 438.4937
823.7916, 448.2788
824.2737, 456.4970
824.7559, 462.9438
825.2380, 468.1894
825.7201, 471.3220
826.2022, 474.2844
826.6843, 479.1120
827.1664, 486.2227
827.6486, 493.4311
828.1307, 500.4806
828.6128, 507.3318
829.0949, 513.8331
829.5770, 519.8348
830.0591, 527.2626
830.5413, 536.3286
831.0234, 545.3207
831.5055, 552.9977
831.9876, 559.6674
832.4697, 565.1896
832.9518, 569.7522
833.4340, 576.3624
833.9161, 588.6832
834.3982, 601.9503
834.8803, 612.8616
835.3624, 620.9727
835.8445, 630.8411
836.3267, 643.2155
836.8088, 655.7969
837.2909, 666.9753
837.7730, 677.2859
838.2551, 690.2254
838.7372, 705.6644
839.2194, 721.4478
839.7015, 736.6506
840.1836, 751.2109
840.6657, 764.9362
841.1478, 777.9948
841.6299, 790.6368
842.1121, 801.9214
842.5942, 813.9439
843.0763, 827.1708
843.5584, 841.6971
844.0405, 858.9492
844.5226, 879.5860
845.0048, 897.9925
845.4869, 910.5667
845.9690, 920.3460
846.4511, 932.7558
846.9332, 947.3209
847.4153, 962.3624
847.8975, 976.7501
848.3796, 991.7243
848.8617, 1008.666
849.3438, 1026.780
849.8259, 1042.934
850.3080, 1055.598
850.7902, 1070.130
851.2723, 1088.646
851.7544, 1108.440
852.2365, 1122.338
852.7186, 1131.404
853.2007, 1141.985
853.6829, 1157.120
854.1650, 1173.182
854.6471, 1187.686
855.1292, 1200.875
855.6113, 1213.206
856.0934, 1223.923
856.5756, 1234.664
857.0577, 1245.255
857.5398, 1256.192
858.0219, 1269.068
858.5040, 1284.121
858.9861, 1297.431
859.4683, 1308.317
859.9504, 1317.750
860.4325, 1326.567
860.9146, 1334.790
861.3967, 1342.250
861.8788, 1348.725
862.3610, 1354.897
862.8431, 1360.219
863.3252, 1365.818
863.8073, 1373.235
864.2894, 1385.117
864.7715, 1390.026
865.2537, 1386.293
865.7358, 1380.460
866.2179, 1380.212
866.7000, 1382.904
867.1821, 1381.275
867.6642, 1374.525
868.1464, 1365.122
868.6285, 1353.237
869.1106, 1340.326
869.5927, 1327.285
870.0748, 1314.052
870.5569, 1300.924
871.0391, 1287.937
871.5212, 1275.038
872.0033, 1263.142
872.4854, 1251.608
872.9675, 1235.359
873.4496, 1214.496
873.9318, 1193.863
874.4139, 1179.016
874.8960, 1164.053
875.3781, 1141.600
875.8602, 1112.760
876.3423, 1088.941
876.8245, 1077.404
877.3066, 1066.326
877.7887, 1053.071
878.2708, 1037.839
878.7529, 1020.891
879.2350, 1002.308
879.7172, 984.0772
880.1993, 967.1227
880.6814, 951.4352
881.1635, 937.7301
881.6456, 925.3353
882.1277, 912.6737
882.6099, 899.0014
883.0920, 885.1692
883.5741, 870.1385
884.0562, 855.6976
884.5383, 844.6790
885.0204, 837.6548
885.5026, 830.4816
885.9847, 822.4904
886.4668, 813.9084
886.9489, 805.0602
887.4310, 795.8091
887.9131, 785.3224
888.3953, 771.6537
888.8774, 761.8561
889.3595, 763.5182
889.8416, 767.7907
890.3237, 765.9980
890.8058, 755.6003
891.2880, 746.1243
891.7701, 737.5784
892.2522, 730.1211
892.7343, 723.9525
893.2164, 718.9180
893.6985, 715.2414
894.1807, 712.9335
894.6628, 709.2842
895.1449, 700.1621
895.6270, 691.1092
896.1091, 686.1970
896.5912, 686.0531
897.0734, 685.0459
897.5555, 682.8670
898.0376, 680.6074
898.5197, 679.2009
899.0018, 677.9969
899.4839, 674.1545
899.9661, 668.1443
900.4482, 662.7170
900.9303, 659.6517
901.4124, 657.3904
901.8945, 655.7411
902.3766, 654.1212
902.8588, 650.3055
903.3409, 641.2726
903.8230, 635.8014
904.3051, 636.9146
904.7872, 640.6353
905.2693, 637.8349
905.7515, 629.8515
906.2336, 625.2532
906.7157, 627.6495
907.1978, 630.5073
907.6799, 625.8890
908.1620, 619.5031
908.6442, 618.5977
909.1263, 631.5190
909.6084, 637.3568
910.0905, 632.5648
910.5726, 624.8365
911.0547, 620.9431
911.5369, 620.5953
912.0190, 620.1429
912.5011, 619.3713
912.9832, 618.6116
913.4653, 617.7979
913.9474, 617.3595
914.4296, 617.5264
914.9117, 618.3040
915.3938, 620.5547
915.8759, 626.7953
916.3580, 631.0163
916.8401, 629.5070
917.3223, 623.8895
917.8044, 624.6412
918.2865, 631.3426
918.7686, 637.2562
919.2507, 637.5409
919.7328, 636.4498
920.2150, 638.2010
920.6971, 641.8622
921.1792, 645.1507
921.6613, 647.7041
922.1434, 649.2939
922.6255, 648.5690
923.1077, 648.1125
923.5898, 654.1536
924.0719, 666.0691
924.5540, 672.9481
925.0361, 671.7669
925.5182, 668.6271
926.0004, 667.6799
926.4825, 669.2856
926.9646, 674.4969
927.4467, 685.6896
927.9288, 693.9217
928.4109, 695.6592
928.8931, 697.5919
929.3752, 705.3867
929.8573, 718.8268
930.3394, 727.0334
930.8215, 729.9491
931.3036, 732.3505
931.7858, 738.5098
932.2679, 745.2753
932.7500, 748.4081
933.2321, 748.5947
933.7142, 752.3627
934.1964, 764.3054
934.6785, 775.6666
935.1606, 783.3389
935.6427, 789.4351
936.1248, 801.1129
936.6069, 817.9398
937.0891, 832.2556
937.5712, 840.0461
938.0533, 847.6939
938.5354, 863.1287
939.0175, 881.9365
939.4996, 897.3380
939.9818, 901.8500
940.4639, 912.2980
940.9460, 931.5627
941.4281, 953.4406
941.9102, 971.3605
942.3923, 985.7536
942.8745, 999.7363
943.3566, 1013.551
943.8387, 1030.306
944.3208, 1054.665
944.8029, 1081.233
945.2850, 1105.513
945.7672, 1126.889
946.2493, 1149.349
946.7314, 1175.175
947.2135, 1198.343
947.6956, 1215.199
948.1777, 1228.354
948.6599, 1245.940
949.1420, 1267.686
949.6241, 1291.941
950.1062, 1322.135
950.5883, 1349.569
951.0704, 1365.976
951.5526, 1375.972
952.0347, 1388.207
952.5168, 1406.554
952.9989, 1420.926
953.4810, 1429.714
953.9631, 1436.059
954.4453, 1444.507
954.9274, 1453.838
955.4095, 1458.885
955.8916, 1458.578
956.3737, 1459.015
956.8558, 1466.006
957.3380, 1473.884
957.8201, 1478.151
958.3022, 1478.337
958.7843, 1479.441
959.2664, 1481.839
959.7485, 1483.918
960.2307, 1484.667
960.7128, 1484.694
961.1949, 1485.702
961.6770, 1487.304
962.1591, 1488.130
962.6412, 1487.795
963.1234, 1486.312
963.6055, 1483.008
964.0876, 1478.831
964.5697, 1476.098
965.0518, 1476.380
965.5339, 1469.902
966.0161, 1453.935
966.4982, 1436.641
966.9803, 1428.497
967.4624, 1425.346
967.9445, 1421.433
968.4266, 1416.221
968.9088, 1406.482
969.3909, 1387.287
969.8730, 1366.503
970.3551, 1347.318
970.8372, 1330.058
971.3193, 1317.302
971.8015, 1309.440
972.2836, 1297.119
972.7657, 1271.677
973.2478, 1242.329
973.7299, 1220.093
974.2120, 1202.500
974.6942, 1183.184
975.1763, 1155.871
975.6584, 1133.043
976.1405, 1117.905
976.6226, 1105.836
977.1047, 1090.401
977.5869, 1071.707
978.0690, 1051.887
978.5511, 1031.247
979.0332, 1011.009
979.5153, 989.9748
979.9974, 971.1625
980.4796, 958.7725
980.9617, 954.5286
981.4438, 944.9755
981.9259, 926.8269
982.4080, 909.2550
982.8901, 896.5429
983.3723, 887.2719
983.8544, 877.7347
984.3365, 867.7887
984.8186, 856.8506
985.3007, 840.6219
985.7828, 827.7532
986.2650, 826.2587
986.7471, 829.2839
987.2292, 824.8740
987.7113, 810.2419
988.1934, 797.9446
988.6755, 789.0590
989.1577, 782.4921
989.6398, 779.3811
990.1219, 776.9265
990.6040, 769.7380
991.0861, 757.1585
991.5682, 744.5524
992.0504, 731.4601
992.5325, 721.7856
993.0146, 718.1835
993.4967, 719.4167
993.9788, 718.6797
994.4609, 715.9854
994.9431, 710.8517
995.4252, 701.5602
995.9073, 692.0565
996.3894, 686.0692
996.8715, 682.9115
997.3536, 681.3322
997.8358, 683.9511
998.3179, 683.5543
998.8000, 678.4223
999.2821, 672.6866
999.7642, 670.5480
1000.246, 671.3658
1000.728, 671.6317
1001.211, 671.1936
1001.693, 671.3118
1002.175, 674.1663
1002.657, 676.6376
1003.139, 676.2159
1003.621, 673.2704
1004.103, 670.8505
1004.585, 668.4115
1005.068, 668.9491
1005.550, 674.3517
1006.032, 681.0421
1006.514, 684.4198
1006.996, 684.5690
1007.478, 680.7648
1007.960, 669.2946
1008.442, 662.9578
1008.924, 669.1729
1009.407, 679.0001
1009.889, 688.1202
1010.371, 696.6651
1010.853, 696.8455
1011.335, 688.5602
1011.817, 682.2784
1012.299, 686.7643
1012.781, 694.9268
1013.263, 701.5861
1013.746, 706.5381
1014.228, 709.6321
1014.710, 709.6749
1015.192, 710.1055
1015.674, 711.3506
1016.156, 713.2974
1016.638, 715.7912
1017.120, 718.8614
1017.603, 722.8475
1018.085, 727.9958
1018.567, 732.6644
1019.049, 735.0290
1019.531, 737.3046
1020.013, 741.0886
1020.495, 746.3244
1020.977, 752.2695
1021.459, 759.2773
1021.942, 763.6714
1022.424, 761.9778
1022.906, 758.7995
1023.388, 760.5085
1023.870, 765.4892
1024.352, 770.5778
1024.834, 773.4623
1025.316, 778.5247
1025.799, 786.8243
1026.281, 796.3434
1026.763, 805.5579
1027.245, 814.2032
1027.727, 820.5107
1028.209, 824.5511
1028.691, 830.6216
1029.173, 841.5589
1029.656, 855.6564
1030.138, 873.7183
1030.620, 894.2570
1031.102, 910.2383
1031.584, 920.4565
1032.066, 930.8547
1032.548, 942.6317
1033.030, 956.1327
1033.512, 971.4795
1033.995, 988.9192
1034.477, 1009.069
1034.959, 1032.921
1035.441, 1055.924
1035.923, 1077.061
1036.405, 1096.965
1036.887, 1116.017
1037.369, 1134.148
1037.851, 1152.420
1038.334, 1170.483
1038.816, 1187.770
1039.298, 1205.246
1039.780, 1220.467
1040.262, 1232.167
1040.744, 1240.458
1041.226, 1245.911
1041.708, 1249.086
1042.191, 1248.668
1042.673, 1244.693
1043.155, 1236.734
1043.637, 1224.890
1044.119, 1208.403
1044.601, 1184.455
1045.083, 1152.945
1045.565, 1121.693
1046.047, 1094.936
1046.530, 1066.557
1047.012, 1033.749
1047.494, 998.8796
1047.976, 968.6805
1048.458, 942.4551
1048.940, 917.9135
1049.422, 894.6542
1049.904, 871.4866
1050.386, 846.1368
1050.869, 820.9897
1051.351, 798.0150
1051.833, 776.7399
1052.315, 761.2360
1052.797, 752.7009
1053.279, 744.3006
1053.761, 730.8552
1054.243, 715.5084
1054.726, 703.8865
1055.208, 694.7787
1055.690, 684.9858
1056.172, 670.5338
1056.654, 659.5827
1057.136, 654.8948
1057.618, 651.6470
1058.100, 642.8717
1058.583, 629.9719
1059.065, 623.2547
1059.547, 623.3564
1060.029, 622.8622
1060.511, 615.8254
1060.993, 607.4283
1061.475, 599.9201
1061.957, 593.7426
1062.439, 591.0026
1062.922, 592.5959
1063.404, 591.8811
1063.886, 586.8510
1064.368, 579.9836
1064.850, 572.3133
1065.332, 565.6091
1065.814, 563.1461
1066.296, 567.2772
1066.778, 567.4494
1067.261, 560.3107
1067.743, 553.6786
1068.225, 552.2661
1068.707, 554.0062
1069.189, 551.4393
1069.671, 545.8790
1070.153, 542.1184
1070.635, 544.4861
1071.118, 546.0977
1071.600, 543.5455
1072.082, 539.2765
1072.564, 535.3464
1073.046, 531.6882
1073.528, 530.1952
1074.010, 531.0246
1074.492, 531.0145
1074.974, 525.6668
1075.457, 520.1412
1075.939, 519.9572
1076.421, 523.7621
1076.903, 525.2634
1077.385, 522.9318
1077.867, 521.8575
1078.349, 523.7007
1078.831, 524.7664
1079.313, 518.0618
1079.796, 507.8889
1080.278, 502.1521
1080.760, 502.0589
1081.242, 502.8675
1081.724, 504.9307
1082.206, 505.2292
1082.688, 502.0173
1083.170, 496.6317
1083.652, 493.6665
1084.135, 492.5757
1084.617, 490.5228
1085.099, 485.9370
1085.581, 481.9005
1086.063, 480.9972
1086.545, 481.0631
1087.027, 480.1059
1087.509, 478.0431
1087.992, 475.4617
1088.474, 472.2950
1088.956, 469.7218
1089.438, 469.7270
1089.920, 469.5861
1090.402, 464.2112
1090.884, 456.8816
1091.366, 454.9123
1091.849, 464.0889
1092.331, 469.0264
1092.813, 468.1819
1093.295, 465.1751
1093.777, 463.5373
1094.259, 462.3764
1094.741, 459.5577
1095.223, 455.2152
1095.705, 451.1124
1096.188, 446.8725
1096.670, 444.7072
1097.152, 446.3740
1097.634, 449.1090
1098.116, 447.1750
1098.598, 441.5222
1099.080, 437.5213
1099.562, 436.1330
1100.044, 435.2814
1100.527, 433.0319
1101.009, 431.4239
1101.491, 432.8106
1101.973, 436.2656
1102.455, 435.5532
1102.937, 430.5126
1103.419, 425.8910
1103.901, 423.0838
1104.384, 421.8549
1104.866, 423.1994
1105.348, 425.3560
1105.830, 425.8820
1106.312, 423.4770
1106.794, 424.2355
1107.276, 429.3753
1107.758, 433.3481
1108.240, 432.4243
1108.723, 428.8379
1109.205, 426.0476
1109.687, 423.7903
1110.169, 421.4412
1110.651, 417.2437
1111.133, 415.4663
1111.615, 417.2980
1112.097, 419.9843
1112.579, 421.2160
1113.062, 421.2036
1113.544, 419.6191
1114.026, 417.0435
1114.508, 417.1615
1114.990, 428.2461
1115.472, 434.4537
1115.954, 425.9027
1116.436, 412.4342
1116.919, 409.6499
1117.401, 416.7475
1117.883, 420.8995
1118.365, 420.5864
1118.847, 420.0103
1119.329, 423.6706
1119.811, 426.9507
1120.293, 425.4232
1120.776, 420.5939
1121.258, 419.3394
1121.740, 422.2557
1122.222, 422.8998
1122.704, 419.3603
1123.186, 414.8327
1123.668, 412.0643
1124.150, 410.4494
1124.632, 409.3705
1125.115, 408.7950
1125.597, 408.7460
1126.079, 409.3076
1126.561, 410.1368
1127.043, 411.1749
1127.525, 412.3017
1128.007, 413.7742
1128.489, 415.0558
1128.971, 415.1622
1129.454, 413.5727
1129.936, 411.3856
1130.418, 407.8934
1130.900, 405.5056
1131.382, 406.7420
1131.864, 409.6237
1132.346, 407.6230
1132.828, 402.1496
1133.311, 397.6811
1133.793, 397.5888
1134.275, 396.4920
1134.757, 391.9987
1135.239, 387.4025
1135.721, 386.1931
1136.203, 387.7569
1136.685, 386.4202
1137.167, 382.4711
1137.650, 379.3394
1138.132, 381.5744
1138.614, 382.2012
1139.096, 377.1449
1139.578, 368.9297
1140.060, 359.9361
1140.542, 350.0423
1141.024, 344.8054
1141.506, 344.7377
1141.989, 344.9589
1142.471, 343.1757
1142.953, 339.0690
1143.435, 330.4098
1143.917, 319.2960
1144.399, 312.6315
1144.881, 311.1462
1145.363, 308.7452
1145.846, 304.2045
1146.328, 300.1332
1146.810, 302.1273
1147.292, 303.7975
1147.774, 296.6553
1148.256, 280.6855
1148.738, 273.0152
1149.220, 276.3447
1149.703, 278.1468
1150.185, 274.7227
1150.667, 269.2180
1151.149, 265.2016
1151.631, 261.9499
1152.113, 258.5304
1152.595, 254.8080
1153.077, 250.4571
1153.559, 244.3945
1154.042, 240.6609
1154.524, 241.6708
1155.006, 244.7590
1155.488, 245.9081
1155.970, 245.2270
1156.452, 242.5061
1156.934, 236.3248
1157.416, 232.4253
1157.898, 231.8289
1158.381, 232.7096
1158.863, 235.0449
1159.345, 237.5449
1159.827, 235.6337
1160.309, 230.7868
1160.791, 227.1033
1161.273, 227.1799
1161.755, 226.5059
1162.238, 223.7762
1162.720, 220.6087
1163.202, 217.8198
1163.684, 215.5768
1164.166, 214.8672
1164.648, 215.4921
1165.130, 216.5974
1165.612, 219.9969
1166.094, 220.7810
1166.577, 213.9450
1167.059, 207.2144
1167.541, 210.2259
1168.023, 221.3246
1168.505, 224.2374
1168.987, 219.3692
1169.469, 214.5369
1169.951, 214.7853
1170.433, 215.5069
1170.916, 214.3181
1171.398, 212.6148
1171.880, 212.5256
1172.362, 213.9186
1172.844, 213.7572
1173.326, 211.8608
1173.808, 210.1334
1174.290, 209.2346
1174.773, 209.5902
1175.255, 213.5730
1175.737, 218.2007
1176.219, 216.2173
1176.701, 207.5509
1177.183, 205.6496
1177.665, 212.6618
1178.147, 218.3715
1178.630, 211.0119
1179.112, 202.8714
1179.594, 204.4372
1180.076, 212.3360
1180.558, 214.8421
1181.040, 211.6737
1181.522, 208.7525
1182.004, 207.0970
1182.486, 206.6045
1182.969, 209.5527
1183.451, 211.6778
1183.933, 207.4100
1184.415, 198.3055
1184.897, 196.3125
1185.379, 202.1801
1185.861, 206.7287
1186.343, 207.5621
1186.825, 206.4814
1187.308, 203.9350
1187.790, 201.2595
1188.272, 199.8574
1188.754, 199.7729
1189.236, 199.9098
1189.718, 200.3233
1190.200, 200.3751
1190.682, 199.6384
1191.165, 199.1199
1191.647, 200.8110
1192.129, 202.7114
1192.611, 202.5397
1193.093, 200.0031
1193.575, 196.5338
1194.057, 191.7511
1194.539, 188.7644
1195.021, 188.9302
1195.504, 191.0607
1195.986, 195.1212
1196.468, 199.6623
1196.950, 202.9251
1197.432, 204.8488
1197.914, 204.5111
1198.396, 201.5384
1198.878, 198.8147
1199.360, 197.8807
1199.843, 197.6361
1200.325, 196.7137
1200.807, 195.7133
1201.289, 195.7496
1201.771, 197.5317
1202.253, 197.1366
1202.735, 194.1100
1203.217, 191.9004
1203.700, 193.0540
1204.182, 195.2878
1204.664, 196.4128
1205.146, 196.6564
1205.628, 196.2656
1206.110, 194.9115
1206.592, 194.2082
1207.074, 194.1566
1207.557, 194.7261
1208.039, 196.9432
1208.521, 198.7595
1209.003, 197.3613
1209.485, 194.0880
1209.967, 191.2238
1210.449, 188.0952
1210.931, 188.3627
1211.413, 192.5592
1211.896, 196.7868
1212.378, 198.3149
1212.860, 198.5383
1213.342, 198.1221
1213.824, 197.6941
1214.306, 198.9018
1214.788, 203.3653
1215.270, 203.6174
1215.752, 198.9958
1216.235, 194.3030
1216.717, 192.8088
1217.199, 193.2053
1217.681, 195.5738
1218.163, 198.5005
1218.645, 198.6366
1219.127, 194.9857
1219.609, 192.0395
1220.092, 189.8782
1220.574, 189.2911
1221.056, 191.9232
1221.538, 195.4815
1222.020, 198.8823
1222.502, 201.2515
1222.984, 200.5863
1223.466, 195.7543
1223.948, 193.8288
1224.431, 195.4450
1224.913, 197.0845
1225.395, 195.4545
1225.877, 193.0974
1226.359, 192.1320
1226.841, 192.0600
1227.323, 191.2926
1227.805, 189.5358
1228.287, 189.2846
1228.770, 190.7774
1229.252, 192.5119
1229.734, 193.7782
1230.216, 194.3449
1230.698, 192.4255
1231.180, 190.2061
1231.662, 193.2889
1232.144, 202.3827
1232.627, 206.5117
1233.109, 204.6630
1233.591, 201.8261
1234.073, 202.0886
1234.555, 202.2827
1235.037, 199.2367
1235.519, 195.1110
1236.001, 194.0557
1236.484, 196.0769
1236.966, 199.3512
1237.448, 203.6759
1237.930, 205.8224
1238.412, 201.2065
1238.894, 196.3450
1239.376, 195.5419
1239.858, 196.5691
1240.340, 195.7560
1240.823, 193.3218
1241.305, 191.6676
1241.787, 191.0159
1242.269, 190.6077
1242.751, 189.6104
1243.233, 189.2417
1243.715, 190.3810
1244.197, 192.1035
1244.679, 193.1604
1245.162, 193.5626
1245.644, 193.2254
1246.126, 192.1669
1246.608, 190.8126
1247.090, 187.7656
1247.572, 186.7795
1248.054, 189.9322
1248.536, 194.2043
1249.019, 194.5604
1249.501, 192.2135
1249.983, 190.4902
1250.465, 189.8125
1250.947, 191.0346
1251.429, 196.7770
1251.911, 201.4987
1252.393, 204.4281
1252.875, 205.2454
1253.358, 202.3141
1253.840, 197.3383
1254.322, 194.2636
1254.804, 193.1774
1255.286, 191.8617
1255.768, 189.2396
1256.250, 186.9534
1256.732, 184.9452
1257.214, 184.1800
1257.697, 186.4297
1258.179, 190.4013
1258.661, 195.0103
1259.143, 199.6801
1259.625, 200.9629
1260.107, 196.6153
1260.589, 194.4119
1261.071, 195.8749
1261.554, 197.9037
1262.036, 196.9195
1262.518, 194.8349
1263.000, 193.4299
1263.482, 192.9396
1263.964, 193.9520
1264.446, 197.2807
1264.928, 197.9658
1265.411, 195.0351
1265.893, 192.2209
1266.375, 193.3211
1266.857, 195.5894
1267.339, 197.5099
1267.821, 198.4688
1268.303, 196.5259
1268.785, 191.1638
1269.267, 190.1038
1269.750, 194.2865
1270.232, 199.0300
1270.714, 202.6220
1271.196, 203.8390
1271.678, 200.5820
1272.160, 194.9937
1272.642, 189.5875
1273.124, 184.5324
1273.606, 181.6511
1274.089, 181.1278
1274.571, 183.3920
1275.053, 194.1103
1275.535, 200.6485
1276.017, 196.0944
1276.499, 187.9228
1276.981, 186.0335
1277.463, 189.0248
1277.946, 192.5324
1278.428, 195.9010
1278.910, 197.1798
1279.392, 192.3436
1279.874, 190.0670
1280.356, 192.8930
1280.838, 196.5800
1281.320, 195.9276
1281.802, 192.9770
1282.285, 191.3741
1282.767, 191.3578
1283.249, 193.3233
1283.731, 200.7802
1284.213, 202.8732
1284.695, 197.5854
1285.177, 191.3852
1285.659, 190.7782
1286.141, 192.2534
1286.624, 191.3675
1287.106, 188.8777
1287.588, 187.3023
1288.070, 187.0300
1288.552, 186.3200
1289.034, 184.8802
1289.516, 185.5637
1289.998, 193.5917
1290.481, 201.5946
1290.963, 203.8113
1291.445, 201.6920
1291.927, 197.4408
1292.409, 190.6649
1292.891, 189.9452
1293.373, 195.0237
1293.855, 199.1660
1294.338, 198.1321
1294.820, 195.4135
1295.302, 190.4871
1295.784, 186.5056
1296.266, 187.3788
1296.748, 192.0439
1297.230, 193.2199
1297.712, 191.3543
1298.194, 188.6062
1298.677, 183.9816
1299.159, 181.6468
1299.641, 182.9449
1300.123, 184.8779
1300.605, 185.2211
1301.087, 184.5334
1301.569, 183.5946
1302.051, 182.7677
1302.533, 182.8499
1303.016, 183.9474
##END=



