##NAMES=Aegirine
##RRUFFID=R070253
##IDEAL CHEMISTRY=NaFe^3+^Si_2_O_6_
##LOCALITY=Lovozero Massif, Kola Peninsula, Murmanskaya Oblast'; Northern Region, Russia
##OWNER=RRUFF
##SOURCE=Michael Scott
##DESCRIPTION=Dark green to black prismatic aegirine associated with a brown mica and microcline
##STATUS=The identification of this mineral has been confirmed by single-crystal X-ray diffraction.
##URL=rruff.info/R070253
91.53320, 2419.522
92.01532, 2408.499
92.49744, 2397.978
92.97955, 2422.892
93.46167, 2452.622
93.94379, 2462.947
94.42590, 2469.077
94.90802, 2472.224
95.39014, 2468.602
95.87225, 2458.802
96.35437, 2442.438
96.83649, 2418.499
97.31860, 2391.821
97.80072, 2366.606
98.28284, 2341.669
98.76495, 2315.512
99.24707, 2293.334
99.72919, 2277.977
100.2113, 2264.412
100.6934, 2252.145
101.1755, 2240.200
101.6577, 2227.187
102.1398, 2211.195
102.6219, 2190.635
103.1040, 2175.271
103.5861, 2163.163
104.0682, 2155.437
104.5504, 2154.833
105.0325, 2160.807
105.5146, 2168.030
105.9967, 2168.401
106.4788, 2157.689
106.9609, 2150.393
107.4431, 2149.083
107.9252, 2151.010
108.4073, 2153.205
108.8894, 2155.343
109.3715, 2155.629
109.8536, 2150.467
110.3358, 2138.993
110.8179, 2127.198
111.3000, 2118.061
111.7821, 2111.406
112.2642, 2105.740
112.7463, 2101.940
113.2285, 2097.986
113.7106, 2091.518
114.1927, 2081.599
114.6748, 2070.646
115.1569, 2062.306
115.6390, 2057.667
116.1212, 2052.672
116.6033, 2043.360
117.0854, 2034.025
117.5675, 2029.637
118.0496, 2033.220
118.5317, 2042.658
119.0139, 2047.812
119.4960, 2044.724
119.9781, 2040.983
120.4602, 2036.324
120.9423, 2032.013
121.4244, 2030.019
121.9066, 2032.043
122.3887, 2038.428
122.8708, 2044.209
123.3529, 2049.510
123.8350, 2054.305
124.3171, 2057.819
124.7993, 2060.382
125.2814, 2063.774
125.7635, 2070.236
126.2456, 2080.774
126.7277, 2088.798
127.2098, 2090.499
127.6920, 2091.276
128.1741, 2097.313
128.6562, 2110.259
129.1383, 2126.120
129.6204, 2139.142
130.1025, 2149.599
130.5847, 2163.328
131.0668, 2185.752
131.5489, 2213.994
132.0310, 2237.912
132.5131, 2254.603
132.9952, 2266.938
133.4774, 2279.352
133.9595, 2291.845
134.4416, 2299.980
134.9237, 2299.346
135.4058, 2289.230
135.8879, 2275.269
136.3701, 2254.665
136.8522, 2232.982
137.3343, 2212.770
137.8164, 2194.658
138.2985, 2178.907
138.7806, 2166.036
139.2628, 2157.886
139.7449, 2149.474
140.2270, 2136.627
140.7091, 2124.910
141.1912, 2120.598
141.6733, 2126.502
142.1555, 2138.965
142.6376, 2145.376
143.1197, 2138.108
143.6018, 2132.819
144.0839, 2131.627
144.5660, 2133.395
145.0482, 2136.296
145.5303, 2139.371
146.0124, 2142.583
146.4945, 2145.801
146.9766, 2149.983
147.4587, 2153.243
147.9409, 2155.078
148.4230, 2155.410
148.9051, 2153.529
149.3872, 2146.931
149.8693, 2137.723
150.3514, 2135.887
150.8336, 2148.626
151.3157, 2164.491
151.7978, 2172.482
152.2799, 2171.479
152.7620, 2169.443
153.2441, 2172.635
153.7263, 2178.962
154.2084, 2185.293
154.6905, 2189.340
155.1726, 2192.835
155.6547, 2200.109
156.1368, 2213.057
156.6190, 2226.456
157.1011, 2237.134
157.5832, 2246.127
158.0653, 2255.660
158.5474, 2268.215
159.0295, 2283.289
159.5117, 2294.316
159.9938, 2302.112
160.4759, 2304.153
160.9580, 2297.397
161.4401, 2283.832
161.9222, 2268.279
162.4044, 2255.161
162.8865, 2245.102
163.3686, 2233.286
163.8507, 2217.653
164.3328, 2202.074
164.8149, 2187.424
165.2971, 2174.161
165.7792, 2163.317
166.2613, 2156.201
166.7434, 2154.433
167.2255, 2152.186
167.7076, 2145.409
168.1898, 2140.850
168.6719, 2144.688
169.1540, 2157.720
169.6361, 2174.289
170.1182, 2186.491
170.6003, 2192.083
171.0825, 2198.670
171.5646, 2204.844
172.0467, 2212.821
172.5288, 2226.240
173.0109, 2246.647
173.4930, 2269.558
173.9752, 2287.822
174.4573, 2301.553
174.9394, 2313.466
175.4215, 2321.965
175.9036, 2329.276
176.3857, 2342.129
176.8679, 2366.920
177.3500, 2390.730
177.8321, 2395.994
178.3142, 2381.949
178.7963, 2363.971
179.2784, 2351.157
179.7606, 2342.632
180.2427, 2331.992
180.7248, 2315.686
181.2069, 2298.201
181.6890, 2281.570
182.1711, 2265.687
182.6533, 2255.650
183.1354, 2259.649
183.6175, 2280.083
184.0996, 2295.578
184.5817, 2294.678
185.0638, 2291.283
185.5460, 2293.210
186.0281, 2302.146
186.5102, 2314.725
186.9923, 2326.493
187.4744, 2337.112
187.9565, 2347.772
188.4387, 2360.561
188.9208, 2372.344
189.4029, 2380.102
189.8850, 2383.113
190.3671, 2383.802
190.8492, 2387.003
191.3314, 2395.363
191.8135, 2401.902
192.2956, 2405.486
192.7777, 2407.644
193.2598, 2410.006
193.7419, 2413.158
194.2241, 2416.094
194.7062, 2416.375
195.1883, 2409.583
195.6704, 2405.145
196.1525, 2404.819
196.6346, 2406.455
197.1168, 2407.556
197.5989, 2407.026
198.0810, 2405.494
198.5631, 2404.786
199.0452, 2405.754
199.5273, 2406.361
200.0095, 2405.828
200.4916, 2404.787
200.9737, 2403.727
201.4558, 2402.398
201.9379, 2402.164
202.4200, 2408.007
202.9022, 2425.491
203.3843, 2438.396
203.8664, 2435.416
204.3485, 2422.639
204.8306, 2417.403
205.3128, 2428.753
205.7949, 2450.634
206.2770, 2468.623
206.7591, 2481.395
207.2412, 2493.740
207.7233, 2508.758
208.2055, 2526.029
208.6876, 2542.829
209.1697, 2559.305
209.6518, 2573.479
210.1339, 2583.216
210.6160, 2588.044
211.0982, 2589.389
211.5803, 2588.278
212.0624, 2584.729
212.5445, 2578.493
213.0266, 2570.986
213.5087, 2559.342
213.9909, 2539.965
214.4730, 2511.646
214.9551, 2479.832
215.4372, 2451.032
215.9193, 2425.871
216.4014, 2399.168
216.8836, 2367.644
217.3657, 2334.877
217.8478, 2302.642
218.3299, 2271.502
218.8120, 2241.344
219.2941, 2212.234
219.7763, 2184.146
220.2584, 2157.301
220.7405, 2131.120
221.2226, 2106.292
221.7047, 2083.876
222.1868, 2064.054
222.6690, 2045.193
223.1511, 2024.074
223.6332, 1997.500
224.1153, 1976.057
224.5974, 1965.084
225.0795, 1956.060
225.5617, 1942.168
226.0438, 1921.740
226.5259, 1898.931
227.0080, 1880.807
227.4901, 1868.926
227.9722, 1859.727
228.4544, 1856.747
228.9365, 1853.809
229.4186, 1844.960
229.9007, 1828.999
230.3828, 1810.554
230.8649, 1797.879
231.3471, 1795.083
231.8292, 1791.928
232.3113, 1789.271
232.7934, 1785.820
233.2755, 1779.386
233.7576, 1769.720
234.2398, 1759.836
234.7219, 1755.082
235.2040, 1760.847
235.6861, 1762.094
236.1682, 1755.157
236.6503, 1745.787
237.1325, 1738.769
237.6146, 1735.452
238.0967, 1734.864
238.5788, 1736.036
239.0609, 1741.095
239.5430, 1742.576
240.0252, 1735.709
240.5073, 1727.362
240.9894, 1725.614
241.4715, 1732.347
241.9536, 1741.135
242.4357, 1743.160
242.9179, 1736.735
243.4000, 1730.756
243.8821, 1726.453
244.3642, 1722.801
244.8463, 1718.002
245.3284, 1711.550
245.8106, 1706.228
246.2927, 1705.832
246.7748, 1710.491
247.2569, 1715.675
247.7390, 1724.395
248.2211, 1731.745
248.7033, 1730.561
249.1854, 1719.061
249.6675, 1704.541
250.1496, 1693.067
250.6317, 1684.389
251.1138, 1678.764
251.5960, 1679.061
252.0781, 1681.256
252.5602, 1679.390
253.0423, 1672.264
253.5244, 1665.086
254.0065, 1665.351
254.4887, 1669.697
254.9708, 1667.963
255.4529, 1652.344
255.9350, 1631.348
256.4171, 1617.093
256.8992, 1610.860
257.3813, 1607.101
257.8635, 1602.212
258.3456, 1597.078
258.8277, 1593.423
259.3098, 1593.434
259.7919, 1594.203
260.2740, 1591.984
260.7562, 1586.845
261.2383, 1578.390
261.7204, 1560.793
262.2025, 1541.025
262.6846, 1528.393
263.1667, 1528.066
263.6489, 1532.938
264.1310, 1533.464
264.6131, 1529.227
265.0952, 1522.426
265.5773, 1510.824
266.0594, 1498.440
266.5416, 1489.344
267.0237, 1485.106
267.5058, 1483.205
267.9879, 1480.602
268.4700, 1477.373
268.9521, 1473.153
269.4343, 1466.134
269.9164, 1458.949
270.3985, 1453.836
270.8806, 1451.417
271.3627, 1450.201
271.8448, 1448.515
272.3270, 1446.320
272.8091, 1443.802
273.2912, 1440.518
273.7733, 1437.203
274.2554, 1433.777
274.7375, 1430.303
275.2197, 1428.136
275.7018, 1429.283
276.1839, 1434.296
276.6660, 1438.944
277.1481, 1444.309
277.6302, 1447.819
278.1124, 1446.671
278.5945, 1441.351
279.0766, 1436.000
279.5587, 1435.481
280.0408, 1440.589
280.5229, 1443.329
281.0051, 1439.771
281.4872, 1436.843
281.9693, 1438.591
282.4514, 1443.943
282.9335, 1448.612
283.4156, 1447.957
283.8978, 1441.784
284.3799, 1439.619
284.8620, 1445.527
285.3441, 1451.629
285.8262, 1455.376
286.3083, 1457.183
286.7905, 1458.193
287.2726, 1458.699
287.7547, 1459.009
288.2368, 1462.388
288.7189, 1472.613
289.2010, 1481.501
289.6832, 1488.635
290.1653, 1492.722
290.6474, 1490.978
291.1295, 1480.726
291.6116, 1465.264
292.0938, 1458.373
292.5759, 1465.974
293.0580, 1474.418
293.5401, 1482.165
294.0222, 1488.783
294.5043, 1493.816
294.9865, 1497.059
295.4686, 1498.771
295.9507, 1499.398
296.4328, 1497.950
296.9149, 1497.190
297.3970, 1496.617
297.8792, 1497.201
298.3613, 1501.223
298.8434, 1508.989
299.3255, 1516.492
299.8076, 1515.711
300.2897, 1499.361
300.7719, 1491.495
301.2540, 1498.326
301.7361, 1508.825
302.2182, 1516.988
302.7003, 1521.386
303.1824, 1523.355
303.6646, 1524.237
304.1467, 1523.674
304.6288, 1523.293
305.1109, 1524.244
305.5930, 1524.374
306.0751, 1521.126
306.5573, 1515.651
307.0394, 1512.135
307.5215, 1515.397
308.0036, 1526.334
308.4857, 1530.892
308.9678, 1520.257
309.4500, 1511.676
309.9321, 1512.723
310.4142, 1519.624
310.8963, 1523.866
311.3784, 1519.232
311.8605, 1507.154
312.3427, 1499.103
312.8248, 1499.842
313.3069, 1499.190
313.7890, 1495.584
314.2711, 1489.468
314.7532, 1480.096
315.2354, 1466.813
315.7175, 1453.046
316.1996, 1449.818
316.6817, 1469.037
317.1638, 1479.862
317.6459, 1474.465
318.1281, 1462.625
318.6102, 1451.664
319.0923, 1444.269
319.5744, 1440.725
320.0565, 1442.310
320.5386, 1452.465
321.0208, 1459.791
321.5029, 1463.847
321.9850, 1465.428
322.4671, 1462.769
322.9492, 1456.957
323.4313, 1453.112
323.9135, 1457.943
324.3956, 1474.025
324.8777, 1485.641
325.3598, 1487.141
325.8419, 1489.416
326.3240, 1497.682
326.8062, 1510.547
327.2883, 1523.080
327.7704, 1530.952
328.2525, 1534.641
328.7346, 1543.030
329.2168, 1561.562
329.6989, 1578.958
330.1810, 1591.247
330.6631, 1600.977
331.1452, 1611.960
331.6273, 1626.306
332.1095, 1643.089
332.5916, 1659.690
333.0737, 1677.375
333.5558, 1692.475
334.0379, 1702.720
334.5201, 1711.419
335.0022, 1722.744
335.4843, 1737.908
335.9664, 1752.293
336.4485, 1757.496
336.9306, 1749.935
337.4128, 1743.821
337.8949, 1740.670
338.3770, 1739.129
338.8591, 1739.500
339.3412, 1741.237
339.8233, 1742.223
340.3055, 1741.674
340.7876, 1740.209
341.2697, 1730.699
341.7518, 1702.125
342.2339, 1676.135
342.7160, 1663.338
343.1982, 1659.981
343.6803, 1655.900
344.1624, 1643.557
344.6445, 1625.073
345.1266, 1611.269
345.6087, 1604.601
346.0909, 1598.902
346.5730, 1591.970
347.0551, 1584.677
347.5372, 1578.495
348.0193, 1574.268
348.5014, 1570.330
348.9836, 1562.690
349.4657, 1549.412
349.9478, 1539.093
350.4299, 1535.200
350.9120, 1534.367
351.3941, 1535.051
351.8763, 1536.873
352.3584, 1538.722
352.8405, 1538.333
353.3226, 1535.534
353.8047, 1536.962
354.2868, 1547.026
354.7690, 1558.001
355.2511, 1564.105
355.7332, 1566.444
356.2153, 1570.119
356.6974, 1578.752
357.1795, 1591.436
357.6617, 1605.084
358.1438, 1620.562
358.6259, 1634.937
359.1080, 1644.046
359.5901, 1651.369
360.0722, 1663.033
360.5544, 1682.971
361.0365, 1706.113
361.5186, 1726.076
362.0007, 1742.650
362.4828, 1756.885
362.9649, 1769.198
363.4471, 1779.182
363.9292, 1785.889
364.4113, 1788.548
364.8934, 1790.986
365.3755, 1796.583
365.8576, 1804.722
366.3398, 1811.755
366.8219, 1816.019
367.3040, 1820.263
367.7861, 1829.085
368.2682, 1841.856
368.7503, 1850.598
369.2325, 1847.602
369.7146, 1839.919
370.1967, 1840.956
370.6788, 1853.142
371.1609, 1866.026
371.6430, 1870.129
372.1252, 1868.343
372.6073, 1870.315
373.0894, 1880.379
373.5715, 1892.138
374.0536, 1899.470
374.5357, 1903.337
375.0179, 1910.067
375.5000, 1923.535
375.9821, 1940.953
376.4642, 1955.748
376.9463, 1967.188
377.4284, 1978.030
377.9106, 1988.980
378.3927, 2000.015
378.8748, 2010.672
379.3569, 2020.667
379.8390, 2031.685
380.3211, 2047.266
380.8033, 2069.150
381.2854, 2084.489
381.7675, 2087.924
382.2496, 2087.594
382.7317, 2089.800
383.2138, 2094.769
383.6960, 2099.675
384.1781, 2102.983
384.6602, 2104.424
385.1423, 2100.559
385.6244, 2090.842
386.1065, 2077.568
386.5887, 2060.513
387.0708, 2040.619
387.5529, 2019.278
388.0350, 1997.064
388.5171, 1973.689
388.9992, 1948.518
389.4814, 1923.090
389.9635, 1892.985
390.4456, 1854.190
390.9277, 1813.452
391.4098, 1775.818
391.8919, 1742.241
392.3741, 1710.759
392.8562, 1679.734
393.3383, 1649.299
393.8204, 1617.343
394.3025, 1583.299
394.7846, 1548.424
395.2668, 1511.584
395.7489, 1474.268
396.2310, 1438.706
396.7131, 1406.026
397.1952, 1376.428
397.6773, 1350.716
398.1595, 1331.574
398.6416, 1311.911
399.1237, 1288.939
399.6058, 1266.204
400.0879, 1246.464
400.5700, 1230.430
401.0522, 1217.389
401.5343, 1207.510
402.0164, 1201.943
402.4985, 1192.818
402.9806, 1175.660
403.4627, 1158.770
403.9449, 1146.246
404.4270, 1136.953
404.9091, 1127.309
405.3912, 1114.239
405.8733, 1099.621
406.3554, 1089.477
406.8376, 1084.442
407.3197, 1082.220
407.8018, 1085.681
408.2839, 1089.707
408.7660, 1088.503
409.2481, 1080.165
409.7303, 1069.448
410.2124, 1061.187
410.6945, 1055.173
411.1766, 1047.286
411.6587, 1033.783
412.1408, 1022.016
412.6230, 1020.420
413.1051, 1027.561
413.5872, 1032.879
414.0693, 1031.264
414.5514, 1025.363
415.0335, 1018.393
415.5157, 1010.283
415.9978, 1003.920
416.4799, 1001.972
416.9620, 1003.182
417.4441, 1003.349
417.9262, 1002.561
418.4084, 1000.386
418.8905, 995.4307
419.3726, 988.8594
419.8547, 984.1014
420.3368, 982.7121
420.8189, 982.2310
421.3011, 977.8711
421.7832, 967.6184
422.2653, 962.2719
422.7474, 965.7096
423.2295, 972.6927
423.7116, 980.8922
424.1938, 989.0502
424.6759, 993.2087
425.1580, 989.6539
425.6401, 978.9080
426.1222, 970.5727
426.6043, 964.0696
427.0865, 960.2064
427.5686, 960.0861
428.0507, 962.4326
428.5328, 965.8965
429.0149, 969.9169
429.4970, 973.9214
429.9792, 976.9031
430.4613, 978.4236
430.9434, 979.8411
431.4255, 982.5068
431.9076, 983.9534
432.3897, 981.7394
432.8719, 976.8215
433.3540, 972.4424
433.8361, 971.2017
434.3182, 972.7158
434.8003, 974.2842
435.2824, 976.3346
435.7646, 977.7350
436.2467, 977.1425
436.7288, 976.3431
437.2109, 977.6182
437.6930, 981.7072
438.1751, 986.3643
438.6573, 988.1479
439.1394, 986.7000
439.6215, 987.7477
440.1036, 995.4906
440.5857, 1001.983
441.0678, 1001.214
441.5500, 994.6896
442.0321, 988.3647
442.5142, 985.1266
442.9963, 984.0143
443.4784, 983.2584
443.9605, 982.7910
444.4427, 983.3092
444.9248, 986.2003
445.4069, 989.7699
445.8890, 990.4313
446.3711, 986.1190
446.8532, 984.2899
447.3354, 992.5212
447.8175, 1005.813
448.2996, 1012.784
448.7817, 1010.483
449.2638, 1004.323
449.7459, 999.1426
450.2281, 995.0052
450.7102, 993.4017
451.1923, 995.1317
451.6744, 998.7471
452.1565, 1004.940
452.6386, 1012.453
453.1208, 1017.661
453.6029, 1018.512
454.0850, 1016.492
454.5671, 1015.710
455.0492, 1016.740
455.5313, 1018.353
456.0135, 1021.635
456.4956, 1024.761
456.9777, 1025.977
457.4598, 1025.274
457.9419, 1024.111
458.4240, 1023.732
458.9062, 1024.138
459.3883, 1025.817
459.8704, 1032.257
460.3525, 1035.949
460.8346, 1031.209
461.3167, 1024.302
461.7989, 1024.385
462.2810, 1035.078
462.7631, 1048.917
463.2452, 1053.777
463.7273, 1047.994
464.2094, 1043.064
464.6916, 1040.901
465.1737, 1039.487
465.6558, 1037.511
466.1379, 1035.210
466.6200, 1033.604
467.1021, 1033.509
467.5843, 1034.348
468.0664, 1035.118
468.5485, 1035.861
469.0306, 1036.215
469.5127, 1035.811
469.9948, 1035.032
470.4770, 1034.133
470.9591, 1032.638
471.4412, 1032.899
471.9233, 1038.357
472.4054, 1045.831
472.8875, 1049.250
473.3697, 1047.445
473.8518, 1043.049
474.3339, 1037.255
474.8160, 1030.338
475.2981, 1028.176
475.7802, 1035.298
476.2624, 1042.275
476.7445, 1045.083
477.2266, 1044.723
477.7087, 1042.537
478.1908, 1038.984
478.6729, 1035.970
479.1551, 1037.149
479.6372, 1045.130
480.1193, 1051.289
480.6014, 1056.225
481.0835, 1059.102
481.5656, 1056.768
482.0478, 1051.786
482.5299, 1050.932
483.0120, 1059.281
483.4941, 1073.888
483.9762, 1083.354
484.4583, 1085.932
484.9405, 1086.756
485.4226, 1084.651
485.9047, 1082.819
486.3868, 1083.257
486.8689, 1086.410
487.3510, 1092.533
487.8332, 1103.601
488.3153, 1118.245
488.7974, 1129.806
489.2795, 1137.101
489.7616, 1143.584
490.2437, 1150.402
490.7259, 1157.995
491.2080, 1167.609
491.6901, 1180.449
492.1722, 1193.242
492.6543, 1203.099
493.1364, 1210.958
493.6186, 1219.585
494.1007, 1229.870
494.5828, 1240.661
495.0649, 1250.914
495.5470, 1260.630
496.0291, 1269.144
496.5113, 1278.562
496.9934, 1284.844
497.4755, 1285.268
497.9576, 1280.675
498.4397, 1272.903
498.9218, 1262.785
499.4040, 1250.976
499.8861, 1238.920
500.3682, 1225.622
500.8503, 1214.153
501.3324, 1204.545
501.8145, 1196.448
502.2967, 1191.697
502.7788, 1188.492
503.2609, 1181.545
503.7430, 1166.197
504.2251, 1145.367
504.7072, 1130.747
505.1894, 1124.325
505.6715, 1119.514
506.1536, 1116.744
506.6357, 1113.485
507.1178, 1106.273
507.5999, 1095.099
508.0821, 1086.219
508.5642, 1086.951
509.0463, 1093.491
509.5284, 1093.911
510.0105, 1086.400
510.4926, 1077.706
510.9748, 1070.227
511.4569, 1065.108
511.9390, 1064.966
512.4211, 1072.818
512.9032, 1080.401
513.3853, 1082.837
513.8674, 1082.515
514.3495, 1084.034
514.8317, 1088.420
515.3138, 1092.012
515.7959, 1090.122
516.2780, 1081.941
516.7601, 1081.412
517.2422, 1092.575
517.7244, 1105.532
518.2065, 1118.895
518.6886, 1131.336
519.1707, 1141.739
519.6528, 1149.608
520.1349, 1154.281
520.6171, 1152.199
521.0992, 1138.217
521.5813, 1138.589
522.0634, 1170.305
522.5455, 1200.019
523.0276, 1212.645
523.5098, 1215.053
523.9919, 1221.310
524.4740, 1238.491
524.9561, 1259.699
525.4382, 1274.067
525.9203, 1281.328
526.4025, 1292.481
526.8846, 1311.256
527.3667, 1333.045
527.8488, 1353.167
528.3309, 1372.039
528.8130, 1393.312
529.2952, 1420.785
529.7773, 1448.969
530.2594, 1471.177
530.7415, 1489.056
531.2236, 1511.001
531.7057, 1541.213
532.1879, 1576.008
532.6700, 1608.266
533.1521, 1636.482
533.6342, 1665.988
534.1163, 1695.858
534.5984, 1727.753
535.0806, 1765.784
535.5627, 1806.979
536.0448, 1842.590
536.5269, 1866.385
537.0090, 1883.654
537.4911, 1910.567
537.9733, 1952.551
538.4554, 1992.872
538.9375, 2034.950
539.4196, 2070.495
539.9017, 2092.335
540.3839, 2102.145
540.8660, 2108.531
541.3481, 2117.474
541.8302, 2126.501
542.3123, 2129.579
542.7944, 2126.220
543.2766, 2121.556
543.7587, 2119.195
544.2408, 2114.976
544.7229, 2103.070
545.2050, 2082.976
545.6871, 2060.712
546.1693, 2034.417
546.6514, 2009.472
547.1335, 1993.875
547.6156, 1986.564
548.0977, 1977.287
548.5798, 1959.308
549.0620, 1935.655
549.5441, 1916.720
550.0262, 1908.273
550.5083, 1896.961
550.9904, 1880.824
551.4725, 1863.207
551.9547, 1845.245
552.4368, 1827.996
552.9189, 1813.600
553.4010, 1804.275
553.8831, 1798.479
554.3652, 1789.981
554.8474, 1777.640
555.3295, 1765.614
555.8116, 1754.891
556.2937, 1744.932
556.7758, 1735.374
557.2579, 1726.265
557.7401, 1717.969
558.2222, 1712.178
558.7043, 1706.798
559.1864, 1696.932
559.6685, 1682.489
560.1506, 1670.181
560.6328, 1664.887
561.1149, 1662.268
561.5970, 1651.519
562.0791, 1629.431
562.5612, 1611.281
563.0433, 1601.752
563.5255, 1595.855
564.0076, 1590.552
564.4897, 1585.033
564.9718, 1578.301
565.4539, 1569.639
565.9360, 1559.566
566.4182, 1550.207
566.9003, 1544.004
567.3824, 1533.631
567.8645, 1512.940
568.3466, 1493.186
568.8287, 1482.739
569.3109, 1480.031
569.7930, 1477.846
570.2751, 1472.221
570.7572, 1463.697
571.2393, 1452.363
571.7214, 1437.837
572.2036, 1425.822
572.6857, 1420.126
573.1678, 1415.650
573.6499, 1405.676
574.1320, 1390.421
574.6141, 1376.250
575.0963, 1365.562
575.5784, 1356.176
576.0605, 1346.375
576.5427, 1336.258
577.0248, 1326.212
577.5069, 1316.379
577.9890, 1307.276
578.4711, 1300.367
578.9532, 1299.013
579.4354, 1290.977
579.9175, 1267.430
580.3996, 1246.840
580.8817, 1242.495
581.3638, 1247.016
581.8459, 1245.171
582.3281, 1229.416
582.8102, 1207.171
583.2923, 1190.401
583.7744, 1179.599
584.2565, 1167.554
584.7386, 1152.775
585.2208, 1137.159
585.7029, 1120.099
586.1850, 1103.188
586.6671, 1091.024
587.1492, 1087.353
587.6313, 1085.065
588.1135, 1077.987
588.5956, 1068.441
589.0777, 1063.053
589.5598, 1063.652
590.0419, 1063.718
590.5240, 1056.029
591.0062, 1040.235
591.4883, 1025.567
591.9704, 1012.004
592.4525, 999.4236
592.9346, 987.8946
593.4167, 977.3018
593.8989, 967.6230
594.3810, 958.8046
594.8631, 950.3624
595.3452, 942.0758
595.8273, 933.8586
596.3094, 924.0986
596.7916, 911.3182
597.2737, 900.2960
597.7558, 895.2791
598.2379, 891.9539
598.7200, 885.0207
599.2021, 873.3678
599.6843, 863.5579
600.1664, 862.4528
600.6485, 863.4103
601.1306, 854.2461
601.6127, 835.6117
602.0948, 821.6586
602.5770, 821.4450
603.0591, 829.8601
603.5412, 832.8851
604.0233, 827.6341
604.5054, 821.2552
604.9875, 811.5534
605.4697, 802.6320
605.9518, 797.7535
606.4339, 795.8959
606.9160, 794.0500
607.3981, 790.5405
607.8802, 786.1423
608.3624, 781.7728
608.8445, 777.0785
609.3266, 775.8504
609.8087, 782.3361
610.2908, 787.6400
610.7729, 783.4473
611.2551, 772.8034
611.7372, 764.7825
612.2193, 763.1266
612.7014, 762.9456
613.1835, 760.9977
613.6656, 757.9004
614.1478, 755.1681
614.6299, 753.1758
615.1120, 750.5468
615.5941, 745.2153
616.0762, 737.1417
616.5583, 734.7209
617.0405, 744.4753
617.5226, 751.6873
618.0047, 753.0143
618.4868, 751.3105
618.9689, 748.0784
619.4510, 744.3508
619.9332, 742.8582
620.4153, 747.6728
620.8974, 756.1793
621.3795, 758.0851
621.8616, 752.1022
622.3438, 746.2299
622.8259, 742.1756
623.3080, 740.8541
623.7901, 744.4199
624.2722, 753.2398
624.7543, 759.7454
625.2365, 760.5557
625.7186, 759.4530
626.2007, 760.0623
626.6828, 761.3743
627.1649, 759.1721
627.6470, 751.5524
628.1292, 743.3642
628.6113, 743.1822
629.0934, 754.1639
629.5755, 759.9071
630.0576, 755.2313
630.5397, 750.6215
631.0219, 749.1315
631.5040, 749.5043
631.9861, 749.9623
632.4682, 750.0051
632.9503, 749.7896
633.4324, 749.7328
633.9146, 749.5358
634.3967, 747.7908
634.8788, 744.1602
635.3609, 741.1428
635.8430, 739.8123
636.3251, 740.3521
636.8073, 743.7371
637.2894, 751.6276
637.7715, 757.9816
638.2536, 760.0462
638.7357, 761.7754
639.2178, 767.2973
639.7000, 775.2383
640.1821, 781.0270
640.6642, 782.1296
641.1463, 780.2991
641.6284, 778.9051
642.1105, 777.9963
642.5927, 777.2022
643.0748, 775.7510
643.5569, 775.4176
644.0390, 778.1302
644.5211, 782.3983
645.0032, 785.1996
645.4854, 785.6592
645.9675, 784.9836
646.4496, 783.0352
646.9317, 780.7957
647.4138, 780.4865
647.8959, 782.2952
648.3781, 783.9200
648.8602, 783.4763
649.3423, 781.6138
649.8244, 781.4250
650.3065, 784.6603
650.7886, 786.9818
651.2708, 787.4570
651.7529, 787.6957
652.2350, 786.6544
652.7171, 786.2532
653.1992, 792.4453
653.6813, 811.1342
654.1635, 830.9763
654.6456, 830.6667
655.1277, 812.3253
655.6098, 803.6430
656.0919, 812.0065
656.5740, 824.7399
657.0562, 831.6080
657.5383, 833.2806
658.0204, 835.9924
658.5025, 842.5032
658.9846, 846.5798
659.4667, 843.0775
659.9489, 838.2663
660.4310, 839.3792
660.9131, 846.5388
661.3952, 854.5750
661.8773, 859.6213
662.3594, 862.9507
662.8416, 868.6641
663.3237, 876.8248
663.8058, 887.4229
664.2879, 903.4986
664.7700, 918.9221
665.2521, 929.3779
665.7343, 935.6536
666.2164, 940.2971
666.6985, 941.1363
667.1806, 944.4308
667.6627, 955.5894
668.1448, 972.0848
668.6270, 990.4672
669.1091, 1009.550
669.5912, 1026.411
670.0733, 1038.179
670.5554, 1045.420
671.0375, 1052.515
671.5197, 1059.115
672.0018, 1066.090
672.4839, 1074.367
672.9660, 1082.246
673.4481, 1088.681
673.9302, 1093.626
674.4124, 1097.452
674.8945, 1100.271
675.3766, 1102.073
675.8587, 1103.486
676.3408, 1104.032
676.8229, 1101.671
677.3051, 1096.027
677.7872, 1086.696
678.2693, 1072.418
678.7514, 1053.770
679.2335, 1037.428
679.7156, 1023.057
680.1978, 1011.060
680.6799, 1004.295
681.1620, 997.7655
681.6441, 986.5203
682.1262, 971.2853
682.6083, 956.8854
683.0905, 946.4911
683.5726, 938.0410
684.0547, 928.0153
684.5368, 916.4479
685.0189, 901.7479
685.5010, 881.3876
685.9832, 863.0566
686.4653, 854.1719
686.9474, 853.2426
687.4295, 851.8506
687.9116, 849.1273
688.3937, 846.8371
688.8759, 847.4295
689.3580, 847.4227
689.8401, 842.2986
690.3222, 832.7316
690.8043, 822.9978
691.2864, 815.5692
691.7686, 810.8148
692.2507, 810.5486
692.7328, 815.7906
693.2149, 819.1569
693.6970, 820.0178
694.1791, 818.3017
694.6613, 811.6980
695.1434, 802.7603
695.6255, 797.5895
696.1076, 799.6081
696.5897, 800.3493
697.0718, 792.9360
697.5540, 783.8836
698.0361, 782.2751
698.5182, 787.5289
699.0003, 792.3804
699.4824, 792.4265
699.9645, 788.9587
700.4467, 784.5373
700.9288, 778.2056
701.4109, 774.5864
701.8930, 774.9175
702.3751, 776.9122
702.8572, 780.8791
703.3394, 785.2059
703.8215, 787.2016
704.3036, 786.2074
704.7857, 783.3195
705.2678, 776.5231
705.7499, 769.6588
706.2321, 769.3326
706.7142, 774.7075
707.1963, 778.5370
707.6784, 776.7814
708.1605, 773.2031
708.6426, 776.1696
709.1248, 789.4373
709.6069, 795.7533
710.0890, 789.7819
710.5711, 782.9467
711.0532, 778.2162
711.5353, 775.3234
712.0175, 773.9499
712.4996, 774.0486
712.9817, 775.0377
713.4638, 776.7080
713.9459, 778.9664
714.4280, 782.4795
714.9102, 786.6949
715.3923, 788.6495
715.8744, 786.8997
716.3565, 783.8274
716.8386, 782.7059
717.3207, 783.4711
717.8029, 786.7198
718.2850, 798.6317
718.7671, 805.1425
719.2492, 797.4138
719.7313, 786.4895
720.2134, 784.6533
720.6956, 792.5280
721.1777, 799.1129
721.6598, 798.0011
722.1419, 792.0300
722.6240, 781.5699
723.1061, 768.8696
723.5883, 763.7845
724.0704, 769.5271
724.5525, 778.9386
725.0346, 785.0129
725.5167, 787.7510
725.9988, 787.7285
726.4810, 780.9792
726.9631, 777.2191
727.4452, 779.0916
727.9273, 783.0028
728.4094, 786.7352
728.8915, 790.0425
729.3737, 793.2484
729.8558, 796.9914
730.3379, 799.8924
730.8200, 799.9846
731.3021, 798.1068
731.7842, 796.9835
732.2664, 797.0551
732.7485, 795.5438
733.2306, 789.8615
733.7127, 781.5280
734.1948, 776.7018
734.6769, 778.3464
735.1591, 778.1171
735.6412, 771.9856
736.1233, 767.8802
736.6054, 771.9795
737.0875, 780.4831
737.5696, 785.9695
738.0518, 785.8364
738.5339, 784.1918
739.0160, 784.7220
739.4981, 785.8128
739.9802, 783.4828
740.4623, 778.0687
740.9445, 774.5811
741.4266, 775.5958
741.9087, 779.6194
742.3908, 784.3523
742.8729, 790.6173
743.3550, 794.0567
743.8372, 791.8040
744.3193, 790.1022
744.8014, 791.3333
745.2835, 793.5394
745.7656, 794.3132
746.2477, 793.4196
746.7299, 792.9822
747.2120, 794.3321
747.6941, 796.6277
748.1762, 798.6692
748.6583, 800.8234
749.1404, 805.2565
749.6226, 812.4931
750.1047, 817.7967
750.5868, 815.6492
751.0689, 807.0130
751.5510, 802.5608
752.0331, 805.1000
752.5153, 806.4551
752.9974, 803.3088
753.4795, 800.3490
753.9616, 801.7933
754.4437, 805.9778
754.9258, 807.3447
755.4080, 803.4335
755.8901, 797.8177
756.3722, 792.2558
756.8543, 786.8479
757.3364, 781.7138
757.8185, 776.9124
758.3007, 772.3669
758.7828, 768.0027
759.2649, 764.1904
759.7470, 761.7950
760.2291, 761.0165
760.7112, 760.6346
761.1934, 760.6643
761.6755, 761.0322
762.1576, 761.7729
762.6397, 762.8034
763.1218, 764.5320
763.6039, 767.2940
764.0861, 767.9609
764.5682, 764.2658
765.0503, 759.1769
765.5324, 753.6273
766.0145, 748.8067
766.4966, 747.8167
766.9788, 750.9891
767.4609, 753.2766
767.9430, 748.9203
768.4251, 739.5619
768.9072, 732.8989
769.3893, 728.5546
769.8715, 729.6104
770.3536, 740.2246
770.8357, 751.6674
771.3178, 755.5941
771.7999, 753.1290
772.2820, 750.0003
772.7642, 746.4359
773.2463, 742.3494
773.7284, 736.8240
774.2105, 731.4516
774.6926, 726.7190
775.1747, 723.4644
775.6569, 723.8987
776.1390, 729.3727
776.6211, 736.5067
777.1032, 741.3679
777.5853, 743.9449
778.0674, 743.3045
778.5496, 738.8522
779.0317, 736.0699
779.5138, 738.4752
779.9959, 742.7823
780.4780, 742.9102
780.9601, 737.2178
781.4423, 733.9906
781.9244, 732.9402
782.4065, 734.5515
782.8886, 742.7291
783.3707, 751.3395
783.8528, 752.4678
784.3350, 746.2678
784.8171, 741.3280
785.2992, 744.3697
785.7813, 749.6747
786.2634, 749.5320
786.7455, 745.3572
787.2277, 741.6223
787.7098, 739.2408
788.1919, 737.1805
788.6740, 734.4727
789.1561, 731.7560
789.6382, 731.4975
790.1204, 734.5093
790.6025, 738.0416
791.0846, 743.8555
791.5667, 748.0341
792.0488, 748.9177
792.5309, 747.0983
793.0131, 743.0907
793.4952, 736.6566
793.9773, 730.4729
794.4594, 723.1514
794.9415, 718.8359
795.4236, 724.1505
795.9058, 735.2320
796.3879, 743.3053
796.8700, 745.6050
797.3521, 744.3407
797.8342, 740.7499
798.3163, 736.0068
798.7985, 737.4202
799.2806, 746.6885
799.7627, 752.0570
800.2448, 749.7164
800.7269, 744.6375
801.2090, 739.9063
801.6912, 735.9221
802.1733, 734.4063
802.6554, 736.8194
803.1375, 739.3738
803.6196, 741.6484
804.1017, 743.5852
804.5839, 744.5387
805.0660, 745.2444
805.5481, 747.7199
806.0302, 752.7465
806.5123, 756.9015
806.9944, 755.6577
807.4766, 751.3043
807.9587, 748.7750
808.4408, 748.3035
808.9229, 751.3705
809.4050, 759.2605
809.8871, 765.9333
810.3693, 763.1279
810.8514, 751.0012
811.3335, 745.6062
811.8156, 751.2543
812.2977, 756.4564
812.7798, 758.8358
813.2620, 760.8713
813.7441, 764.1137
814.2262, 768.3331
814.7083, 772.9667
815.1904, 778.8519
815.6725, 782.6194
816.1547, 780.9498
816.6368, 777.1619
817.1189, 773.7520
817.6010, 771.7425
818.0831, 773.6011
818.5652, 780.2792
819.0474, 788.0823
819.5295, 792.3408
820.0116, 793.2952
820.4937, 792.8243
820.9758, 790.6179
821.4579, 788.7388
821.9401, 787.5223
822.4222, 787.4437
822.9043, 789.3865
823.3864, 793.2491
823.8685, 796.4200
824.3506, 798.1639
824.8328, 800.2649
825.3149, 803.3956
825.7970, 806.6151
826.2791, 809.6408
826.7612, 812.1511
827.2433, 813.4755
827.7255, 813.2640
828.2076, 812.7632
828.6897, 812.5115
829.1718, 812.9227
829.6539, 815.2415
830.1360, 819.0105
830.6182, 821.6092
831.1003, 822.0195
831.5824, 822.9586
832.0645, 827.8819
832.5466, 836.4474
833.0287, 844.6198
833.5109, 853.5948
833.9930, 858.1858
834.4751, 854.3546
834.9572, 849.3804
835.4393, 850.1288
835.9214, 854.4503
836.4036, 855.7740
836.8857, 850.6938
837.3678, 848.5309
837.8499, 853.0123
838.3320, 859.8313
838.8141, 868.1841
839.2963, 875.8287
839.7784, 878.3330
840.2605, 874.6750
840.7426, 871.1223
841.2247, 874.4518
841.7068, 881.1827
842.1890, 883.8386
842.6711, 883.3362
843.1532, 885.1955
843.6353, 890.9348
844.1174, 896.6075
844.5995, 898.1515
845.0817, 897.3275
845.5638, 902.9617
846.0459, 919.8546
846.5280, 929.4950
847.0101, 925.2785
847.4922, 920.4285
847.9744, 921.9047
848.4565, 926.9067
848.9386, 931.4826
849.4207, 935.3359
849.9028, 938.6729
850.3849, 942.5431
850.8671, 944.8321
851.3492, 940.9232
851.8313, 936.4273
852.3134, 940.5524
852.7955, 953.1725
853.2776, 965.1077
853.7598, 970.5282
854.2419, 971.3109
854.7240, 967.8174
855.2061, 961.9740
855.6882, 962.8690
856.1703, 971.4553
856.6525, 979.0242
857.1346, 980.3829
857.6167, 979.0096
858.0988, 981.8106
858.5809, 989.9205
859.0630, 994.5059
859.5452, 993.8242
860.0273, 992.6876
860.5094, 990.6166
860.9915, 990.2439
861.4736, 995.4442
861.9557, 1005.034
862.4379, 1011.790
862.9200, 1013.777
863.4021, 1013.691
863.8842, 1011.665
864.3663, 1008.626
864.8484, 1003.934
865.3306, 999.1511
865.8127, 998.4969
866.2948, 1003.531
866.7769, 1007.658
867.2590, 1001.744
867.7411, 991.3431
868.2233, 989.5866
868.7054, 994.8551
869.1875, 996.3868
869.6696, 991.0504
870.1517, 984.7252
870.6339, 983.0507
871.1160, 984.8907
871.5981, 985.1119
872.0802, 983.2965
872.5623, 981.4611
873.0444, 980.4997
873.5266, 978.3699
874.0087, 973.0329
874.4908, 966.1735
874.9729, 961.1474
875.4550, 958.4052
875.9371, 954.8738
876.4193, 950.4221
876.9014, 944.8000
877.3835, 935.5689
877.8656, 926.7309
878.3477, 922.5475
878.8298, 923.0317
879.3120, 926.0547
879.7941, 932.0496
880.2762, 936.2619
880.7583, 933.0722
881.2404, 925.3738
881.7225, 915.7748
882.2047, 906.1939
882.6868, 904.2944
883.1689, 913.3469
883.6510, 924.3577
884.1331, 925.3751
884.6152, 917.9601
885.0974, 914.1210
885.5795, 914.4045
886.0616, 914.4368
886.5437, 913.2087
887.0258, 911.6463
887.5079, 911.3840
887.9901, 911.1674
888.4722, 905.5873
888.9543, 886.7823
889.4364, 877.7073
889.9185, 886.2011
890.4006, 895.1379
890.8828, 897.8165
891.3649, 897.2106
891.8470, 897.3458
892.3291, 898.5782
892.8112, 898.4219
893.2933, 893.7106
893.7755, 889.7789
894.2576, 891.3309
894.7397, 894.7167
895.2218, 895.7178
895.7039, 894.0393
896.1860, 890.3896
896.6682, 884.9437
897.1503, 880.6631
897.6324, 883.2307
898.1145, 889.4273
898.5966, 887.8654
899.0787, 879.4346
899.5609, 876.5419
900.0430, 883.4601
900.5251, 890.8601
901.0072, 889.0185
901.4893, 880.7317
901.9714, 880.5014
902.4536, 891.8338
902.9357, 898.1673
903.4178, 896.1302
903.8999, 892.4386
904.3820, 890.2299
904.8641, 888.7382
905.3463, 886.3316
905.8284, 882.7041
906.3105, 880.8054
906.7926, 881.9096
907.2747, 883.4312
907.7568, 884.4643
908.2390, 885.6920
908.7211, 888.5825
909.2032, 892.2100
909.6853, 893.3867
910.1674, 890.0992
910.6495, 887.8604
911.1317, 892.3263
911.6138, 898.2148
912.0959, 898.5947
912.5780, 895.5620
913.0601, 894.9180
913.5422, 898.1067
914.0244, 902.4138
914.5065, 906.2104
914.9886, 908.3776
915.4707, 903.5165
915.9528, 893.8541
916.4349, 896.2566
916.9171, 913.1691
917.3992, 926.4860
917.8813, 925.8630
918.3634, 918.2253
918.8455, 914.9216
919.3276, 916.1544
919.8098, 918.3405
920.2919, 921.9283
920.7740, 925.3562
921.2561, 928.2110
921.7382, 930.8813
922.2203, 933.3931
922.7025, 935.9967
923.1846, 939.6954
923.6667, 945.3233
924.1488, 950.2681
924.6309, 956.6049
925.1130, 959.5863
925.5952, 953.2833
926.0773, 944.7195
926.5594, 942.6226
927.0415, 947.4728
927.5236, 953.3054
928.0057, 957.7805
928.4879, 962.2895
928.9700, 969.2205
929.4521, 975.6378
929.9342, 975.9731
930.4163, 972.8834
930.8984, 974.8279
931.3806, 984.8080
931.8627, 996.3574
932.3448, 1003.290
932.8269, 1007.128
933.3090, 1010.122
933.7911, 1012.745
934.2733, 1017.347
934.7554, 1024.275
935.2375, 1030.978
935.7196, 1035.561
936.2017, 1039.700
936.6838, 1047.340
937.1660, 1058.760
937.6481, 1068.069
938.1302, 1074.720
938.6123, 1081.691
939.0944, 1090.250
939.5765, 1098.878
940.0587, 1105.812
940.5408, 1111.446
941.0229, 1118.151
941.5050, 1124.434
941.9871, 1134.511
942.4692, 1152.455
942.9514, 1169.683
943.4335, 1182.074
943.9156, 1192.189
944.3977, 1203.158
944.8798, 1215.150
945.3619, 1227.140
945.8441, 1237.870
946.3262, 1249.859
946.8083, 1266.314
947.2904, 1282.351
947.7725, 1292.672
948.2546, 1299.608
948.7368, 1309.873
949.2189, 1325.670
949.7010, 1338.871
950.1831, 1341.896
950.6652, 1341.978
951.1473, 1347.104
951.6295, 1354.388
952.1116, 1357.326
952.5937, 1356.146
953.0758, 1357.340
953.5579, 1364.905
954.0400, 1373.993
954.5222, 1377.098
955.0043, 1376.609
955.4864, 1380.007
955.9685, 1386.986
956.4506, 1394.165
956.9327, 1400.507
957.4149, 1403.381
957.8970, 1399.844
958.3791, 1392.377
958.8612, 1388.266
959.3433, 1387.584
959.8254, 1390.343
960.3076, 1398.138
960.7897, 1401.815
961.2718, 1396.116
961.7539, 1387.253
962.2360, 1382.793
962.7181, 1382.611
963.2003, 1384.569
963.6824, 1393.523
964.1645, 1394.338
964.6466, 1377.911
965.1287, 1362.683
965.6108, 1361.700
966.0930, 1366.510
966.5751, 1363.091
967.0572, 1349.823
967.5393, 1343.499
968.0214, 1353.643
968.5035, 1360.511
968.9857, 1358.276
969.4678, 1351.257
969.9499, 1341.566
970.4320, 1330.099
970.9141, 1316.845
971.3962, 1301.210
971.8784, 1289.866
972.3605, 1290.723
972.8426, 1291.806
973.3247, 1283.764
973.8068, 1271.751
974.2889, 1262.155
974.7711, 1255.468
975.2532, 1249.380
975.7353, 1243.056
976.2174, 1235.465
976.6995, 1221.657
977.1816, 1208.810
977.6638, 1211.090
978.1459, 1222.077
978.6280, 1224.389
979.1101, 1215.014
979.5922, 1202.702
980.0743, 1192.991
980.5565, 1186.596
981.0386, 1187.881
981.5207, 1193.343
982.0028, 1189.392
982.4849, 1176.205
982.9670, 1160.951
983.4492, 1146.034
983.9313, 1135.474
984.4134, 1133.590
984.8955, 1137.970
985.3776, 1141.949
985.8597, 1145.643
986.3419, 1144.004
986.8240, 1135.669
987.3061, 1128.109
987.7882, 1124.509
988.2703, 1123.175
988.7524, 1122.468
989.2346, 1122.135
989.7167, 1119.190
990.1988, 1111.715
990.6809, 1107.648
991.1630, 1109.467
991.6451, 1111.403
992.1273, 1109.857
992.6094, 1107.495
993.0915, 1109.205
993.5736, 1115.472
994.0557, 1116.781
994.5378, 1109.351
995.0200, 1102.470
995.5021, 1093.772
995.9842, 1089.251
996.4663, 1096.067
996.9484, 1107.483
997.4305, 1112.786
997.9127, 1110.973
998.3948, 1105.638
998.8769, 1090.297
999.3590, 1080.918
999.8411, 1086.242
1000.323, 1095.765
1000.805, 1104.462
1001.287, 1110.074
1001.770, 1107.390
1002.252, 1094.593
1002.734, 1087.192
1003.216, 1096.412
1003.698, 1107.309
1004.180, 1111.760
1004.662, 1112.839
1005.144, 1112.823
1005.627, 1112.832
1006.109, 1114.255
1006.591, 1117.574
1007.073, 1122.367
1007.555, 1129.834
1008.037, 1137.185
1008.519, 1141.104
1009.001, 1143.335
1009.483, 1145.907
1009.966, 1149.632
1010.448, 1155.808
1010.930, 1165.072
1011.412, 1175.448
1011.894, 1187.635
1012.376, 1197.774
1012.858, 1197.130
1013.340, 1190.092
1013.823, 1188.098
1014.305, 1192.600
1014.787, 1198.397
1015.269, 1202.533
1015.751, 1206.149
1016.233, 1210.963
1016.715, 1216.400
1017.197, 1221.740
1017.679, 1226.341
1018.162, 1226.222
1018.644, 1220.966
1019.126, 1216.296
1019.608, 1215.895
1020.090, 1219.131
1020.572, 1227.702
1021.054, 1239.724
1021.536, 1240.700
1022.018, 1230.890
1022.501, 1220.729
1022.983, 1212.629
1023.465, 1205.215
1023.947, 1197.003
1024.429, 1190.494
1024.911, 1192.693
1025.393, 1203.911
1025.875, 1208.033
1026.358, 1204.244
1026.840, 1199.878
1027.322, 1196.599
1027.804, 1194.050
1028.286, 1191.672
1028.768, 1190.377
1029.250, 1193.365
1029.732, 1201.943
1030.214, 1203.687
1030.697, 1195.574
1031.179, 1191.394
1031.661, 1196.064
1032.143, 1202.641
1032.625, 1206.132
1033.107, 1207.058
1033.589, 1206.660
1034.071, 1204.379
1034.553, 1203.179
1035.036, 1202.638
1035.518, 1204.314
1036.000, 1210.638
1036.482, 1216.212
1036.964, 1215.609
1037.446, 1211.467
1037.928, 1211.807
1038.410, 1218.552
1038.893, 1223.140
1039.375, 1226.717
1039.857, 1226.296
1040.339, 1219.532
1040.821, 1210.221
1041.303, 1199.459
1041.785, 1188.606
1042.267, 1182.298
1042.750, 1182.771
1043.232, 1180.327
1043.714, 1172.644
1044.196, 1165.050
1044.678, 1159.167
1045.160, 1153.385
1045.642, 1145.203
1046.124, 1136.499
1046.606, 1132.640
1047.089, 1136.046
1047.571, 1135.168
1048.053, 1122.932
1048.535, 1114.217
1049.017, 1117.468
1049.499, 1121.562
1049.981, 1116.741
1050.463, 1106.621
1050.945, 1099.548
1051.428, 1096.468
1051.910, 1096.384
1052.392, 1103.043
1052.874, 1107.449
1053.356, 1105.529
1053.838, 1101.455
1054.320, 1096.875
1054.802, 1093.134
1055.285, 1093.412
1055.767, 1098.750
1056.249, 1100.410
1056.731, 1091.284
1057.213, 1084.505
1057.695, 1089.066
1058.177, 1093.814
1058.659, 1087.402
1059.141, 1075.784
1059.624, 1071.688
1060.106, 1077.311
1060.588, 1081.531
1061.070, 1081.379
1061.552, 1078.434
1062.034, 1068.839
1062.516, 1060.982
1062.998, 1064.755
1063.480, 1073.482
1063.963, 1074.019
1064.445, 1064.791
1064.927, 1058.766
1065.409, 1064.052
1065.891, 1068.869
1066.373, 1066.684
1066.855, 1063.916
1067.337, 1067.952
1067.820, 1073.566
1068.302, 1070.473
1068.784, 1058.503
1069.266, 1050.242
1069.748, 1051.930
1070.230, 1055.552
1070.712, 1060.737
1071.194, 1063.338
1071.677, 1058.101
1072.159, 1049.490
1072.641, 1043.910
1073.123, 1041.837
1073.605, 1039.992
1074.087, 1036.892
1074.569, 1034.557
1075.051, 1035.083
1075.533, 1035.493
1076.016, 1034.386
1076.498, 1031.405
1076.980, 1024.406
1077.462, 1015.037
1077.944, 1010.563
1078.426, 1015.524
1078.908, 1017.908
1079.390, 1007.322
1079.873, 997.6816
1080.355, 1000.782
1080.837, 1008.094
1081.319, 1009.562
1081.801, 1005.660
1082.283, 1002.025
1082.765, 1000.583
1083.247, 997.4904
1083.729, 988.7303
1084.212, 980.5398
1084.694, 977.0614
1085.176, 975.5450
1085.658, 974.3216
1086.140, 972.2675
1086.622, 967.0595
1087.104, 957.9620
1087.586, 950.0865
1088.068, 945.9755
1088.551, 943.0924
1089.033, 940.5792
1089.515, 938.3889
1089.997, 936.8972
1090.479, 935.5590
1090.961, 933.3810
1091.443, 930.2096
1091.925, 926.8082
1092.408, 923.3885
1092.890, 919.8923
1093.372, 916.3906
1093.854, 912.7245
1094.336, 906.5679
1094.818, 901.3573
1095.300, 904.0455
1095.782, 913.8228
1096.265, 919.0292
1096.747, 914.1418
1097.229, 908.5135
1097.711, 906.6600
1098.193, 903.3683
1098.675, 891.3597
1099.157, 879.2059
1099.639, 879.2916
1100.121, 888.9880
1100.604, 893.1736
1101.086, 886.2956
1101.568, 881.2762
1102.050, 881.9791
1102.532, 884.5824
1103.014, 892.9410
1103.496, 897.7210
1103.978, 884.9537
1104.460, 862.8472
1104.943, 854.5049
1105.425, 866.0212
1105.907, 873.8974
1106.389, 870.1441
1106.871, 867.4077
1107.353, 871.6071
1107.835, 875.7413
1108.317, 873.8329
1108.800, 869.0344
1109.282, 868.0430
1109.764, 871.5986
1110.246, 870.1322
1110.728, 856.5305
1111.210, 847.2236
1111.692, 848.5046
1112.174, 849.7817
1112.656, 844.4600
1113.139, 837.3425
1113.621, 834.3698
1114.103, 835.3124
1114.585, 836.7831
1115.067, 840.4113
1115.549, 841.5430
1116.031, 837.8114
1116.513, 834.9699
1116.995, 835.7436
1117.478, 837.0861
1117.960, 835.9335
1118.442, 833.3439
1118.924, 832.9979
1119.406, 836.2791
1119.888, 836.0760
1120.370, 829.5527
1120.852, 825.6648
1121.335, 828.0254
1121.817, 830.2983
1122.299, 827.7552
1122.781, 823.2649
1123.263, 822.3131
1123.745, 825.0081
1124.227, 825.2551
1124.709, 821.5064
1125.192, 821.3818
1125.674, 827.7012
1126.156, 831.8167
1126.638, 829.5125
1127.120, 823.5395
1127.602, 816.2555
1128.084, 808.7490
1128.566, 807.0524
1129.048, 811.9761
1129.531, 816.3143
1130.013, 820.4551
1130.495, 817.4261
1130.977, 803.8107
1131.459, 790.9626
1131.941, 788.5426
1132.423, 791.8605
1132.905, 789.9881
1133.387, 783.5699
1133.870, 784.8027
1134.352, 793.1857
1134.834, 792.2010
1135.316, 778.8679
1135.798, 769.6959
1136.280, 773.9589
1136.762, 781.9099
1137.244, 780.8186
1137.727, 773.7276
1138.209, 769.8455
1138.691, 768.2577
1139.173, 765.1269
1139.655, 760.2125
1140.137, 754.3751
1140.619, 748.0734
1141.101, 742.9383
1141.583, 740.3625
1142.066, 739.3768
1142.548, 740.4357
1143.030, 741.0026
1143.512, 733.1911
1143.994, 720.9084
1144.476, 715.9265
1144.958, 719.1993
1145.440, 723.2002
1145.922, 724.2773
1146.405, 722.9194
1146.887, 717.9525
1147.369, 712.3558
1147.851, 710.6553
1148.333, 709.8259
1148.815, 704.9299
1149.297, 696.9079
1149.779, 688.6934
1150.262, 681.4614
1150.744, 677.1123
1151.226, 677.5948
1151.708, 679.9404
1152.190, 685.8206
1152.672, 689.1972
1153.154, 680.0502
1153.636, 667.9842
1154.119, 669.4089
1154.601, 682.3912
1155.083, 689.0365
1155.565, 682.0916
1156.047, 676.9922
1156.529, 682.2190
1157.011, 685.9296
1157.493, 680.5366
1157.975, 673.7090
1158.458, 672.5125
1158.940, 674.6295
1159.422, 674.3432
1159.904, 670.9512
1160.386, 668.6904
1160.868, 666.6761
1161.350, 667.7774
1161.832, 676.6160
1162.314, 682.9239
1162.797, 680.0143
1163.279, 675.0914
1163.761, 677.2498
1164.243, 683.9039
1164.725, 681.9558
1165.207, 666.2150
1165.689, 660.9837
1166.171, 671.0252
1166.654, 677.0383
1167.136, 673.2664
1167.618, 667.8116
1168.100, 665.2675
1168.582, 666.2491
1169.064, 673.5986
1169.546, 685.4344
1170.028, 680.7928
1170.510, 658.9996
1170.993, 651.5497
1171.475, 661.9867
1171.957, 671.8040
1172.439, 674.1260
1172.921, 672.1715
1173.403, 668.3240
1173.885, 664.1752
1174.367, 663.3203
1174.849, 664.7343
1175.332, 665.1296
1175.814, 664.5681
1176.296, 663.3692
1176.778, 661.8893
1177.260, 661.7549
1177.742, 663.7319
1178.224, 665.4552
1178.706, 664.8608
1179.189, 662.5250
1179.671, 657.5994
1180.153, 652.5224
1180.635, 650.6842
1181.117, 651.8608
1181.599, 656.1111
1182.081, 662.3943
1182.563, 665.9551
1183.046, 663.7676
1183.528, 661.1494
1184.010, 661.5333
1184.492, 662.1989
1184.974, 661.1855
1185.456, 659.5955
1185.938, 658.4020
1186.420, 657.7228
1186.902, 657.8596
1187.385, 658.9549
1187.867, 658.6514
1188.349, 654.3965
1188.831, 651.8581
1189.313, 652.4471
1189.795, 654.5158
1190.277, 658.8207
1190.759, 662.9525
1191.241, 664.6140
1191.724, 664.0381
1192.206, 661.7286
1192.688, 656.1547
1193.170, 655.9779
1193.652, 664.2161
1194.134, 668.3041
1194.616, 664.9249
1195.098, 659.5128
1195.581, 654.3314
1196.063, 651.3093
1196.545, 653.7098
1197.027, 659.8934
1197.509, 662.6419
1197.991, 662.1689
1198.473, 661.0662
1198.955, 659.6962
1199.438, 661.0798
1199.920, 665.6876
1200.402, 667.8324
1200.884, 663.5095
1201.366, 657.2332
1201.848, 654.1207
1202.330, 653.7703
1202.812, 657.5408
1203.294, 662.5025
1203.776, 662.3021
1204.259, 657.6873
1204.741, 651.5892
1205.223, 645.6407
1205.705, 644.2713
1206.187, 652.2543
1206.669, 659.5140
1207.151, 657.8691
1207.633, 654.0746
1208.116, 651.9608
1208.598, 651.8546
1209.080, 655.8297
1209.562, 661.3611
1210.044, 661.2545
1210.526, 653.6073
1211.008, 649.5355
1211.490, 655.1017
1211.973, 658.4000
1212.455, 654.7089
1212.937, 651.4979
1213.419, 653.1492
1213.901, 655.5189
1214.383, 654.0032
1214.865, 650.0292
1215.347, 648.0582
1215.829, 647.5759
1216.312, 654.0315
1216.794, 670.1766
1217.276, 678.5803
1217.758, 675.3013
1218.240, 670.0394
1218.722, 667.3990
1219.204, 665.5120
1219.686, 662.0460
1220.168, 658.2469
1220.651, 657.5301
1221.133, 659.2205
1221.615, 661.0698
1222.097, 662.7131
1222.579, 663.0900
1223.061, 662.1986
1223.543, 661.1957
1224.025, 660.6271
1224.508, 659.9357
1224.990, 658.3860
1225.472, 656.7747
1225.954, 655.9043
1226.436, 655.4109
1226.918, 654.4788
1227.400, 653.8355
1227.882, 655.1500
1228.365, 658.0916
1228.847, 660.5383
1229.329, 662.2798
1229.811, 661.8585
1230.293, 656.6788
1230.775, 652.3322
1231.257, 649.6525
1231.739, 649.4554
1232.221, 655.3500
1232.703, 661.7505
1233.186, 660.6754
1233.668, 653.4539
1234.150, 648.4983
1234.632, 644.8684
1235.114, 648.4014
1235.596, 661.5078
1236.078, 670.3998
1236.560, 671.7275
1237.043, 669.5687
1237.525, 666.0836
1238.007, 661.3062
1238.489, 654.7130
1238.971, 647.6661
1239.453, 644.4806
1239.935, 643.8742
1240.417, 640.4727
1240.900, 635.7267
1241.382, 636.1556
1241.864, 642.4196
1242.346, 650.8678
1242.828, 659.9488
1243.310, 665.4474
1243.792, 660.7051
1244.274, 654.9803
1244.756, 657.8763
1245.239, 661.2659
1245.721, 654.5325
1246.203, 644.4894
1246.685, 642.7023
1247.167, 648.8796
1247.649, 654.8139
1248.131, 660.3425
1248.613, 661.5183
1249.095, 652.5433
1249.578, 647.3303
1250.060, 649.8518
1250.542, 654.3436
1251.024, 659.9294
1251.506, 662.5206
1251.988, 655.5033
1252.470, 642.9299
1252.952, 641.5739
1253.435, 651.7770
1253.917, 659.9666
1254.399, 665.8742
1254.881, 666.1067
1255.363, 660.3892
1255.845, 653.3535
1256.327, 647.2111
1256.809, 642.1737
1257.292, 637.6153
1257.774, 636.3025
1258.256, 646.5833
1258.738, 658.9140
1259.220, 657.5180
1259.702, 649.3699
1260.184, 646.7881
1260.666, 650.1859
1261.148, 655.6360
1261.630, 662.1218
1262.113, 663.6918
1262.595, 651.5769
1263.077, 644.1779
1263.559, 652.6930
1264.041, 659.6931
1264.523, 654.1554
1265.005, 645.7056
1265.487, 641.2087
1265.970, 641.1440
1266.452, 648.0422
1266.934, 662.1589
1267.416, 666.1445
1267.898, 658.2747
1268.380, 654.0244
1268.862, 655.1651
1269.344, 653.9846
1269.827, 647.9328
1270.309, 641.1302
1270.791, 636.3604
1271.273, 634.1603
1271.755, 634.7894
1272.237, 638.8749
1272.719, 651.4966
1273.201, 666.0784
1273.683, 670.9698
1274.166, 667.5354
1274.648, 658.2888
1275.130, 646.4633
1275.612, 643.3875
1276.094, 656.1306
1276.576, 665.2062
1277.058, 660.4397
1277.540, 653.9337
1278.022, 647.7791
1278.505, 644.1868
1278.987, 647.5885
1279.469, 651.9700
1279.951, 650.1146
1280.433, 643.4288
1280.915, 637.3125
1281.397, 631.5009
1281.879, 629.9332
1282.362, 633.1214
1282.844, 634.4509
1283.326, 632.8264
1283.808, 631.2308
1284.290, 630.8790
1284.772, 631.5536
1285.254, 632.7410
1285.736, 634.4291
##END=



