##NAMES=Aegirine
##RRUFFID=R050074
##IDEAL CHEMISTRY=NaFe^3+^Si_2_O_6_
##LOCALITY=Mt. Malosa, Zomba, Chilwa, Alkaline Area, Malawi
##OWNER=RRUFF
##SOURCE=Rock Currier
##DESCRIPTION=Black prismatic single crystal
##STATUS=The identification of this mineral has been confirmed by X-ray diffraction and chemical analysis
##URL=rruff.info/R050074
##MEASURED CHEMISTRY=(Na_0.98_Ca_0.02_)_Σ=1_(Fe^3+^_0.96_Ti_0.01_Mn_0.03_)_Σ=1_Si_2.00_O_6_
124.5917, 217.7270
125.0739, 232.1084
125.5560, 248.5438
126.0381, 265.9966
126.5202, 282.6935
127.0023, 297.8893
127.4844, 312.5326
127.9666, 327.2381
128.4487, 342.0336
128.9308, 359.1840
129.4129, 381.2187
129.8950, 407.6769
130.3772, 435.3349
130.8593, 466.1413
131.3414, 497.4393
131.8235, 518.8009
132.3056, 528.9061
132.7877, 533.9553
133.2699, 541.1624
133.7520, 550.6862
134.2341, 559.4187
134.7162, 566.1647
135.1983, 570.9603
135.6804, 574.3145
136.1626, 575.6388
136.6447, 576.2734
137.1268, 578.5735
137.6089, 582.5164
138.0910, 588.1693
138.5731, 596.0564
139.0553, 607.0530
139.5374, 616.7444
140.0195, 625.2883
140.5016, 632.2590
140.9837, 634.4246
141.4658, 627.3871
141.9480, 622.4958
142.4301, 628.4304
142.9122, 651.2128
143.3943, 671.8466
143.8764, 687.0206
144.3585, 696.7863
144.8407, 710.8550
145.3228, 733.7180
145.8049, 757.3731
146.2870, 773.8411
146.7691, 775.9383
147.2512, 780.0122
147.7334, 789.5719
148.2155, 806.2762
148.6976, 821.3806
149.1797, 829.4517
149.6618, 837.5433
150.1439, 854.8151
150.6261, 894.4249
151.1082, 931.2059
151.5903, 956.6732
152.0724, 961.4017
152.5545, 975.4984
153.0366, 1006.400
153.5188, 1047.858
154.0009, 1087.414
154.4830, 1125.835
154.9651, 1160.525
155.4472, 1190.380
155.9293, 1211.482
156.4115, 1233.215
156.8936, 1259.517
157.3757, 1288.492
157.8578, 1313.985
158.3399, 1336.586
158.8221, 1353.729
159.3042, 1364.038
159.7863, 1373.257
160.2684, 1369.620
160.7505, 1342.263
161.2326, 1294.131
161.7148, 1249.863
162.1969, 1220.204
162.6790, 1199.098
163.1611, 1181.013
163.6432, 1166.033
164.1253, 1151.840
164.6075, 1133.702
165.0896, 1111.330
165.5717, 1098.616
166.0538, 1108.637
166.5359, 1132.342
167.0180, 1156.680
167.5002, 1173.111
167.9823, 1190.268
168.4644, 1217.321
168.9465, 1256.720
169.4286, 1293.641
169.9107, 1309.990
170.3929, 1315.441
170.8750, 1330.829
171.3571, 1374.038
171.8392, 1429.252
172.3213, 1479.561
172.8034, 1521.395
173.2856, 1561.437
173.7677, 1604.618
174.2498, 1650.933
174.7319, 1699.501
175.2140, 1750.419
175.6961, 1803.144
176.1783, 1858.626
176.6604, 1920.671
177.1425, 1977.803
177.6246, 2015.286
178.1067, 2034.078
178.5888, 2042.794
179.0710, 2044.813
179.5531, 2041.141
180.0352, 2032.926
180.5173, 2017.475
180.9994, 2000.748
181.4815, 1988.008
181.9637, 1979.495
182.4458, 1985.960
182.9279, 2021.332
183.4100, 2080.705
183.8921, 2146.055
184.3742, 2212.349
184.8564, 2281.416
185.3385, 2354.249
185.8206, 2431.191
186.3027, 2515.302
186.7848, 2617.315
187.2669, 2733.919
187.7491, 2843.257
188.2312, 2935.941
188.7133, 3015.003
189.1954, 3096.962
189.6775, 3184.081
190.1596, 3261.446
190.6418, 3316.307
191.1239, 3348.115
191.6060, 3350.749
192.0881, 3320.301
192.5702, 3257.656
193.0524, 3166.432
193.5345, 3042.689
194.0166, 2901.434
194.4987, 2762.917
194.9808, 2626.701
195.4629, 2499.319
195.9451, 2384.305
196.4272, 2280.181
196.9093, 2191.453
197.3914, 2119.768
197.8735, 2061.094
198.3556, 2007.396
198.8378, 1958.099
199.3199, 1918.276
199.8020, 1895.221
200.2841, 1890.709
200.7662, 1877.410
201.2483, 1848.701
201.7305, 1814.992
202.2126, 1803.210
202.6947, 1816.801
203.1768, 1839.467
203.6589, 1861.140
204.1410, 1880.401
204.6232, 1908.161
205.1053, 1948.116
205.5874, 1995.990
206.0695, 2036.434
206.5516, 2066.462
207.0337, 2096.900
207.5159, 2137.486
207.9980, 2190.956
208.4801, 2237.627
208.9622, 2273.451
209.4443, 2300.639
209.9264, 2332.821
210.4086, 2376.946
210.8907, 2412.169
211.3728, 2423.622
211.8549, 2411.392
212.3370, 2374.527
212.8191, 2308.378
213.3013, 2216.138
213.7834, 2118.354
214.2655, 2013.324
214.7476, 1905.024
215.2297, 1796.416
215.7118, 1682.921
216.1940, 1578.627
216.6761, 1485.251
217.1582, 1402.483
217.6403, 1335.094
218.1224, 1289.269
218.6045, 1251.564
219.0867, 1207.892
219.5688, 1152.277
220.0509, 1105.747
220.5330, 1074.874
221.0151, 1059.542
221.4972, 1046.113
221.9794, 1035.536
222.4615, 1025.677
222.9436, 1013.779
223.4257, 998.0485
223.9078, 983.7441
224.3899, 971.7164
224.8721, 961.6548
225.3542, 956.3773
225.8363, 958.9293
226.3184, 963.3350
226.8005, 962.3668
227.2827, 953.9726
227.7648, 943.8872
228.2469, 931.7773
228.7290, 916.3079
229.2111, 910.2660
229.6932, 919.5779
230.1754, 933.5823
230.6575, 937.2172
231.1396, 921.9595
231.6217, 911.5347
232.1038, 914.4772
232.5859, 934.7053
233.0681, 947.0620
233.5502, 949.1870
234.0323, 945.1447
234.5144, 939.9651
234.9965, 930.7557
235.4786, 925.4809
235.9608, 927.8057
236.4429, 940.1735
236.9250, 948.3661
237.4071, 950.1559
237.8892, 949.0867
238.3713, 951.1526
238.8535, 959.3654
239.3356, 965.6267
239.8177, 966.5850
240.2998, 960.0303
240.7819, 956.5193
241.2640, 955.6939
241.7462, 958.0585
242.2283, 965.1461
242.7104, 980.6193
243.1925, 994.7695
243.6746, 1003.905
244.1567, 1006.050
244.6389, 1010.314
245.1210, 1018.688
245.6031, 1027.992
246.0852, 1032.121
246.5673, 1028.151
247.0494, 1023.960
247.5316, 1021.979
248.0137, 1022.075
248.4958, 1024.977
248.9779, 1031.281
249.4600, 1040.056
249.9421, 1049.575
250.4243, 1060.316
250.9064, 1071.049
251.3885, 1081.142
251.8706, 1090.081
252.3527, 1100.346
252.8348, 1112.408
253.3170, 1125.470
253.7991, 1137.804
254.2812, 1148.429
254.7633, 1159.967
255.2454, 1173.899
255.7275, 1191.294
256.2097, 1206.196
256.6918, 1216.234
257.1739, 1225.235
257.6560, 1241.490
258.1381, 1269.356
258.6202, 1295.514
259.1024, 1313.344
259.5845, 1318.408
260.0666, 1334.271
260.5487, 1367.679
261.0308, 1406.719
261.5129, 1429.657
261.9951, 1430.806
262.4772, 1428.965
262.9593, 1432.168
263.4414, 1442.837
263.9235, 1446.860
264.4056, 1442.841
264.8878, 1433.483
265.3699, 1423.439
265.8520, 1413.031
266.3341, 1400.719
266.8162, 1384.028
267.2983, 1361.266
267.7805, 1346.202
268.2626, 1340.272
268.7447, 1340.635
269.2268, 1342.774
269.7089, 1346.720
270.1910, 1352.313
270.6732, 1359.645
271.1553, 1368.746
271.6374, 1379.014
272.1195, 1390.305
272.6016, 1403.003
273.0837, 1418.854
273.5659, 1439.393
274.0480, 1455.506
274.5301, 1459.415
275.0122, 1450.173
275.4943, 1459.406
275.9764, 1492.855
276.4586, 1533.979
276.9407, 1556.557
277.4228, 1558.198
277.9049, 1559.745
278.3870, 1568.310
278.8691, 1583.763
279.3513, 1604.541
279.8334, 1632.409
280.3155, 1661.066
280.7976, 1678.958
281.2798, 1685.187
281.7619, 1698.145
282.2440, 1728.290
282.7261, 1772.755
283.2082, 1807.855
283.6903, 1831.295
284.1725, 1853.811
284.6546, 1894.451
285.1367, 1951.790
285.6188, 1996.843
286.1009, 2011.361
286.5830, 2004.475
287.0652, 2017.578
287.5473, 2052.781
288.0294, 2094.613
288.5115, 2127.394
288.9936, 2151.869
289.4757, 2173.220
289.9579, 2195.277
290.4400, 2215.094
290.9221, 2223.856
291.4042, 2221.082
291.8863, 2213.274
292.3684, 2206.127
292.8506, 2199.295
293.3327, 2191.299
293.8148, 2182.183
294.2969, 2171.283
294.7790, 2155.845
295.2611, 2135.791
295.7433, 2115.957
296.2254, 2101.327
296.7075, 2090.066
297.1896, 2076.816
297.6717, 2054.592
298.1538, 2033.915
298.6360, 2032.591
299.1181, 2049.580
299.6002, 2072.667
300.0823, 2094.107
300.5644, 2114.995
301.0465, 2137.583
301.5287, 2162.542
302.0108, 2189.303
302.4929, 2214.703
302.9750, 2240.033
303.4571, 2271.220
303.9392, 2320.514
304.4214, 2375.817
304.9035, 2421.341
305.3856, 2449.192
305.8677, 2471.297
306.3498, 2498.183
306.8319, 2527.752
307.3141, 2553.152
307.7962, 2572.473
308.2783, 2584.302
308.7604, 2586.641
309.2425, 2576.877
309.7246, 2562.215
310.2068, 2549.868
310.6889, 2536.474
311.1710, 2513.293
311.6531, 2471.856
312.1352, 2421.580
312.6173, 2367.771
313.0995, 2309.045
313.5816, 2255.219
314.0637, 2210.794
314.5458, 2174.250
315.0279, 2142.292
315.5100, 2117.075
315.9922, 2093.536
316.4743, 2067.045
316.9564, 2034.253
317.4385, 2010.239
317.9206, 2003.179
318.4027, 2007.148
318.8849, 2013.872
319.3670, 2013.391
319.8491, 2022.094
320.3312, 2049.120
320.8133, 2098.492
321.2954, 2146.153
321.7776, 2183.269
322.2597, 2218.294
322.7418, 2260.243
323.2239, 2308.975
323.7060, 2366.179
324.1881, 2432.475
324.6703, 2507.993
325.1524, 2591.516
325.6345, 2687.559
326.1166, 2788.235
326.5987, 2887.987
327.0808, 2978.914
327.5630, 3078.022
328.0451, 3187.305
328.5272, 3306.653
329.0093, 3435.350
329.4914, 3578.094
329.9735, 3722.859
330.4557, 3860.977
330.9378, 3988.957
331.4199, 4116.566
331.9020, 4243.903
332.3841, 4371.842
332.8662, 4506.519
333.3484, 4653.700
333.8305, 4796.882
334.3126, 4930.002
334.7947, 5054.049
335.2768, 5161.850
335.7589, 5255.817
336.2411, 5331.559
336.7232, 5377.461
337.2053, 5387.246
337.6874, 5384.445
338.1695, 5379.312
338.6516, 5372.303
339.1338, 5360.267
339.6159, 5344.839
340.0980, 5321.813
340.5801, 5281.642
341.0622, 5222.050
341.5443, 5161.440
342.0265, 5105.209
342.5086, 5053.687
342.9907, 5007.402
343.4728, 4968.649
343.9549, 4927.654
344.4370, 4875.140
344.9192, 4811.327
345.4013, 4734.338
345.8834, 4643.231
346.3655, 4539.479
346.8476, 4428.822
347.3297, 4311.648
347.8119, 4190.066
348.2940, 4065.250
348.7761, 3938.010
349.2582, 3813.139
349.7403, 3686.209
350.2225, 3564.841
350.7046, 3457.354
351.1867, 3363.084
351.6688, 3284.462
352.1509, 3224.377
352.6331, 3180.454
353.1152, 3149.928
353.5973, 3134.351
354.0794, 3127.947
354.5615, 3128.218
355.0436, 3133.996
355.5258, 3141.722
356.0079, 3142.323
356.4900, 3147.966
356.9721, 3171.211
357.4542, 3217.903
357.9363, 3268.925
358.4185, 3314.614
358.9006, 3357.271
359.3827, 3400.876
359.8648, 3446.708
360.3469, 3494.102
360.8290, 3543.202
361.3112, 3594.510
361.7933, 3645.160
362.2754, 3700.117
362.7575, 3752.188
363.2396, 3793.725
363.7217, 3826.612
364.2039, 3844.612
364.6860, 3844.314
365.1681, 3825.564
365.6502, 3797.536
366.1323, 3764.800
366.6144, 3720.931
367.0966, 3661.019
367.5787, 3563.583
368.0608, 3477.016
368.5429, 3403.136
369.0250, 3341.899
369.5071, 3295.483
369.9893, 3274.438
370.4714, 3256.080
370.9535, 3227.948
371.4356, 3179.592
371.9177, 3146.244
372.3998, 3131.595
372.8820, 3130.520
373.3641, 3130.833
373.8462, 3129.129
374.3283, 3137.663
374.8104, 3163.770
375.2925, 3209.453
375.7747, 3251.009
376.2568, 3286.620
376.7389, 3322.394
377.2210, 3367.936
377.7031, 3424.088
378.1852, 3477.324
378.6674, 3521.188
379.1495, 3559.014
379.6316, 3610.153
380.1137, 3675.706
380.5958, 3740.707
381.0779, 3794.528
381.5601, 3836.870
382.0422, 3862.762
382.5243, 3871.395
383.0064, 3863.699
383.4885, 3840.147
383.9706, 3801.009
384.4528, 3750.054
384.9349, 3688.762
385.4170, 3617.230
385.8991, 3534.254
386.3812, 3438.430
386.8633, 3332.460
387.3455, 3215.024
387.8276, 3089.460
388.3097, 2961.227
388.7918, 2827.384
389.2739, 2697.039
389.7560, 2579.503
390.2382, 2476.430
390.7203, 2374.693
391.2024, 2261.848
391.6845, 2148.686
392.1666, 2046.225
392.6487, 1963.941
393.1309, 1888.468
393.6130, 1817.760
394.0951, 1750.947
394.5772, 1683.302
395.0593, 1610.461
395.5414, 1538.302
396.0236, 1471.191
396.5057, 1406.578
396.9878, 1350.492
397.4699, 1307.902
397.9520, 1275.130
398.4341, 1240.762
398.9163, 1196.899
399.3984, 1159.729
399.8805, 1136.849
400.3626, 1135.509
400.8447, 1126.733
401.3268, 1107.582
401.8090, 1083.169
402.2911, 1059.875
402.7732, 1037.699
403.2553, 1017.034
403.7374, 996.7731
404.2195, 977.3124
404.7017, 967.3990
405.1838, 969.6146
405.6659, 974.3727
406.1480, 973.6689
406.6301, 967.4913
407.1122, 957.3767
407.5944, 942.2296
408.0765, 924.6620
408.5586, 911.6859
409.0407, 903.1580
409.5228, 894.6582
410.0049, 882.4155
410.4871, 868.0259
410.9692, 855.4366
411.4513, 844.7983
411.9334, 836.8892
412.4155, 834.7653
412.8976, 836.3174
413.3798, 835.5778
413.8619, 826.6799
414.3440, 815.9239
414.8261, 810.4938
415.3082, 810.5040
415.7903, 810.4973
416.2725, 808.5095
416.7546, 803.9190
417.2367, 795.7738
417.7188, 779.6911
418.2009, 764.6932
418.6830, 755.3464
419.1652, 750.6295
419.6473, 747.1699
420.1294, 746.8186
420.6115, 745.1824
421.0937, 739.2530
421.5758, 725.6756
422.0579, 714.4505
422.5400, 707.3998
423.0221, 703.3298
423.5042, 700.1256
423.9864, 695.5138
424.4685, 694.3812
424.9506, 701.0419
425.4327, 716.9470
425.9148, 719.2736
426.3969, 698.1606
426.8791, 674.7120
427.3612, 669.1866
427.8433, 689.0916
428.3254, 703.1194
428.8075, 705.6147
429.2896, 699.7752
429.7718, 696.1606
430.2539, 695.0211
430.7360, 694.6827
431.2181, 694.6166
431.7002, 694.7411
432.1823, 693.6036
432.6645, 690.8470
433.1466, 687.7711
433.6287, 686.7079
434.1108, 687.1605
434.5929, 686.5327
435.0750, 681.3426
435.5572, 675.4615
436.0393, 677.6307
436.5214, 687.4292
437.0035, 695.9466
437.4856, 694.3640
437.9677, 687.6567
438.4499, 682.7011
438.9320, 681.6512
439.4141, 682.0597
439.8962, 681.5320
440.3783, 681.0458
440.8604, 683.1086
441.3426, 691.6341
441.8247, 700.8730
442.3068, 708.2498
442.7889, 713.9093
443.2710, 715.5956
443.7531, 706.2232
444.2353, 695.0999
444.7174, 692.3599
445.1995, 708.3926
445.6816, 723.1471
446.1637, 732.2068
446.6458, 736.2041
447.1280, 743.1701
447.6101, 756.8773
448.0922, 769.4240
448.5743, 775.8724
449.0564, 773.2474
449.5385, 772.6063
450.0207, 774.6227
450.5028, 778.3842
450.9849, 780.9944
451.4670, 781.1118
451.9491, 786.9702
452.4312, 804.8208
452.9134, 832.3375
453.3955, 852.2350
453.8776, 864.2550
454.3597, 870.2603
454.8418, 867.5514
455.3239, 859.0546
455.8061, 857.7686
456.2882, 869.1993
456.7703, 885.0934
457.2524, 894.0803
457.7345, 897.2860
458.2166, 899.4733
458.6988, 903.4925
459.1809, 907.9171
459.6630, 911.3115
460.1451, 913.5920
460.6272, 914.6095
461.1093, 914.8160
461.5915, 913.5460
462.0736, 909.9400
462.5557, 901.2268
463.0378, 892.5726
463.5199, 886.6755
464.0020, 883.0540
464.4842, 877.6796
464.9663, 864.3260
465.4484, 853.0654
465.9305, 849.8925
466.4126, 864.6736
466.8947, 870.3462
467.3769, 863.1488
467.8590, 848.5319
468.3411, 834.2380
468.8232, 817.3674
469.3053, 807.1963
469.7874, 808.7277
470.2696, 820.9739
470.7517, 824.2326
471.2338, 815.8365
471.7159, 806.6557
472.1980, 807.9279
472.6801, 819.3221
473.1623, 825.0518
473.6444, 820.9588
474.1265, 814.1370
474.6086, 818.8073
475.0907, 833.0911
475.5728, 844.8361
476.0550, 843.1107
476.5371, 836.3276
477.0192, 838.1793
477.5013, 849.1613
477.9834, 864.1883
478.4655, 881.3521
478.9477, 899.6525
479.4298, 917.5527
479.9119, 934.6447
480.3940, 951.4741
480.8761, 964.7485
481.3582, 977.3943
481.8404, 997.7600
482.3225, 1036.715
482.8046, 1077.281
483.2867, 1110.737
483.7688, 1132.520
484.2509, 1160.476
484.7331, 1198.504
485.2152, 1242.059
485.6973, 1288.215
486.1794, 1339.173
486.6615, 1389.096
487.1436, 1437.225
487.6258, 1483.937
488.1079, 1531.126
488.5900, 1578.563
489.0721, 1626.388
489.5542, 1674.359
490.0363, 1722.669
490.5185, 1772.505
491.0006, 1823.936
491.4827, 1875.363
491.9648, 1925.652
492.4470, 1974.200
492.9291, 2016.634
493.4112, 2049.747
493.8933, 2076.470
494.3754, 2104.813
494.8575, 2132.656
495.3397, 2145.014
495.8218, 2129.728
496.3039, 2094.955
496.7860, 2048.317
497.2681, 1988.515
497.7502, 1924.418
498.2324, 1859.855
498.7145, 1793.766
499.1966, 1723.437
499.6787, 1638.760
500.1608, 1559.865
500.6429, 1495.560
501.1251, 1444.948
501.6072, 1392.092
502.0893, 1323.204
502.5714, 1262.305
503.0535, 1221.373
503.5356, 1208.377
504.0178, 1196.864
504.4999, 1187.770
504.9820, 1179.403
505.4641, 1168.533
505.9462, 1154.455
506.4283, 1141.777
506.9105, 1132.206
507.3926, 1125.049
507.8747, 1117.060
508.3568, 1108.076
508.8389, 1100.889
509.3210, 1096.857
509.8032, 1096.121
510.2853, 1099.719
510.7674, 1108.501
511.2495, 1118.521
511.7316, 1123.789
512.2137, 1127.438
512.6959, 1135.707
513.1780, 1154.177
513.6601, 1175.717
514.1422, 1195.708
514.6243, 1214.500
515.1064, 1234.881
515.5886, 1257.139
516.0707, 1281.988
516.5528, 1309.474
517.0349, 1339.134
517.5170, 1372.898
517.9991, 1415.888
518.4813, 1460.941
518.9634, 1498.337
519.4455, 1522.243
519.9276, 1548.154
520.4097, 1577.430
520.8918, 1610.568
521.3740, 1656.499
521.8561, 1718.484
522.3382, 1782.468
522.8203, 1835.990
523.3024, 1879.946
523.7845, 1938.759
524.2667, 2015.744
524.7488, 2101.753
525.2309, 2191.041
525.7130, 2282.814
526.1951, 2371.853
526.6772, 2452.228
527.1594, 2534.388
527.6415, 2632.193
528.1236, 2742.368
528.6057, 2853.195
529.0878, 2954.559
529.5699, 3055.185
530.0521, 3157.438
530.5342, 3259.805
531.0163, 3376.509
531.4984, 3516.885
531.9805, 3673.005
532.4626, 3836.956
532.9448, 4020.542
533.4269, 4196.344
533.9090, 4357.081
534.3911, 4507.326
534.8732, 4657.993
535.3553, 4809.787
535.8375, 4964.419
536.3196, 5122.980
536.8017, 5288.168
537.2838, 5441.246
537.7659, 5581.394
538.2480, 5716.902
538.7302, 5867.348
539.2123, 6027.641
539.6944, 6153.186
540.1765, 6233.068
540.6586, 6276.626
541.1407, 6297.935
541.6229, 6295.516
542.1050, 6264.981
542.5871, 6196.094
543.0692, 6103.185
543.5513, 5996.363
544.0334, 5877.163
544.5156, 5750.103
544.9977, 5608.259
545.4798, 5464.617
545.9619, 5330.893
546.4440, 5211.701
546.9261, 5098.737
547.4083, 4989.140
547.8904, 4885.141
548.3725, 4791.903
548.8546, 4706.337
549.3367, 4635.927
549.8188, 4586.021
550.3010, 4554.762
550.7831, 4517.554
551.2652, 4469.447
551.7473, 4431.827
552.2294, 4425.821
552.7115, 4447.948
553.1937, 4465.150
553.6758, 4475.299
554.1579, 4478.488
554.6400, 4471.305
555.1221, 4456.845
555.6042, 4444.376
556.0864, 4440.875
556.5685, 4436.888
557.0506, 4425.477
557.5327, 4406.480
558.0148, 4379.285
558.4969, 4344.905
558.9791, 4301.047
559.4612, 4246.721
559.9433, 4182.142
560.4254, 4106.835
560.9075, 4010.081
561.3896, 3908.665
561.8718, 3817.009
562.3539, 3749.076
562.8360, 3666.091
563.3181, 3559.650
563.8002, 3440.028
564.2823, 3330.111
564.7645, 3232.503
565.2466, 3137.037
565.7287, 3041.463
566.2108, 2945.465
566.6929, 2845.552
567.1750, 2741.976
567.6572, 2646.995
568.1393, 2580.517
568.6214, 2529.960
569.1035, 2471.302
569.5856, 2398.127
570.0677, 2325.238
570.5499, 2264.628
571.0320, 2211.688
571.5141, 2158.692
571.9962, 2099.023
572.4783, 2042.523
572.9604, 1993.788
573.4426, 1952.323
573.9247, 1913.944
574.4068, 1881.155
574.8889, 1848.841
575.3710, 1814.286
575.8531, 1776.286
576.3353, 1746.044
576.8174, 1730.149
577.2995, 1712.669
577.7816, 1673.351
578.2637, 1609.107
578.7458, 1559.517
579.2280, 1533.530
579.7101, 1518.698
580.1922, 1491.882
580.6743, 1455.505
581.1564, 1423.241
581.6385, 1407.713
582.1207, 1396.461
582.6028, 1373.865
583.0849, 1340.778
583.5670, 1302.447
584.0491, 1252.963
584.5313, 1205.282
585.0134, 1170.178
585.4955, 1152.066
585.9776, 1137.585
586.4597, 1127.415
586.9418, 1117.577
587.4240, 1103.689
587.9061, 1084.844
588.3882, 1062.868
588.8703, 1035.467
589.3524, 1005.734
589.8345, 984.0520
590.3167, 972.9109
590.7988, 960.0975
591.2809, 940.3118
591.7630, 914.6068
592.2451, 888.2474
592.7272, 861.1602
593.2094, 835.2170
593.6915, 809.2617
594.1736, 786.1078
594.6557, 772.8788
595.1378, 773.1952
595.6199, 773.9205
596.1021, 764.9862
596.5842, 750.3628
597.0663, 735.6522
597.5485, 719.7861
598.0306, 707.4449
598.5127, 702.6423
598.9948, 703.3231
599.4769, 700.4518
599.9590, 691.4119
600.4412, 681.2407
600.9233, 671.4746
601.4054, 662.0966
601.8875, 652.5016
602.3696, 642.4172
602.8517, 632.9480
603.3339, 625.3503
603.8160, 619.4714
604.2981, 614.2659
604.7802, 609.6611
605.2623, 605.7191
605.7444, 602.7263
606.2266, 600.5040
606.7087, 598.7900
607.1908, 598.8762
607.6729, 597.9343
608.1550, 592.0216
608.6371, 582.9191
609.1193, 576.2122
609.6014, 578.5028
610.0835, 580.0093
610.5656, 574.9409
611.0477, 561.6943
611.5298, 551.8157
612.0120, 545.8713
612.4941, 543.2395
612.9762, 544.7834
613.4583, 553.3043
613.9404, 554.9668
614.4225, 546.8421
614.9047, 535.9086
615.3868, 532.8375
615.8689, 536.9913
616.3510, 540.2580
616.8331, 540.0104
617.3152, 538.0042
617.7974, 536.0846
618.2795, 534.5412
618.7616, 534.3691
619.2437, 539.4945
619.7258, 543.6894
620.2079, 540.4796
620.6901, 529.6721
621.1722, 521.8503
621.6543, 523.8890
622.1364, 527.8594
622.6185, 528.1624
623.1006, 520.5125
623.5828, 518.2792
624.0649, 524.1828
624.5470, 533.0079
625.0291, 538.8434
625.5112, 541.5098
625.9933, 541.9619
626.4755, 539.9359
626.9576, 536.3742
627.4397, 532.0900
627.9218, 527.4666
628.4039, 525.4270
628.8860, 528.9090
629.3682, 535.0347
629.8503, 540.7424
630.3324, 545.8740
630.8145, 549.2416
631.2966, 548.7297
631.7787, 547.1581
632.2609, 546.8550
632.7430, 548.9054
633.2251, 549.0840
633.7072, 543.7671
634.1893, 537.9851
634.6714, 535.9053
635.1536, 538.8477
635.6357, 542.3850
636.1178, 545.3033
636.5999, 549.5617
637.0820, 561.9700
637.5641, 583.1284
638.0463, 594.9688
638.5284, 587.0357
639.0105, 570.3190
639.4926, 566.8803
639.9747, 575.0682
640.4568, 585.2509
640.9390, 591.8246
641.4211, 597.6346
641.9032, 607.2623
642.3853, 620.9696
642.8674, 628.9984
643.3495, 622.2714
643.8317, 611.9379
644.3138, 605.2725
644.7959, 602.0067
645.2780, 605.4658
645.7601, 621.1753
646.2422, 638.7390
646.7244, 644.2391
647.2065, 634.2576
647.6886, 630.4347
648.1707, 638.7117
648.6528, 651.9603
649.1349, 653.8992
649.6171, 646.4025
650.0992, 642.7931
650.5813, 654.9031
651.0634, 670.8033
651.5455, 673.5908
652.0276, 665.8269
652.5098, 661.1341
652.9919, 670.0492
653.4740, 681.7622
653.9561, 689.6569
654.4382, 692.5350
654.9203, 694.8542
655.4025, 693.8881
655.8846, 695.1982
656.3667, 703.4000
656.8488, 722.2742
657.3309, 736.0370
657.8130, 742.2513
658.2952, 746.8516
658.7773, 759.8754
659.2594, 780.4643
659.7415, 796.3096
660.2236, 801.8648
660.7057, 805.1887
661.1879, 817.9867
661.6700, 837.9729
662.1521, 858.6737
662.6342, 876.6109
663.1163, 894.5538
663.5984, 913.1367
664.0806, 932.7550
664.5627, 956.1283
665.0448, 987.4343
665.5269, 1019.167
666.0090, 1047.781
666.4911, 1072.317
666.9733, 1098.799
667.4554, 1126.833
667.9375, 1157.593
668.4196, 1195.274
668.9017, 1239.478
669.3839, 1272.696
669.8660, 1292.401
670.3481, 1305.264
670.8302, 1314.921
671.3123, 1323.803
671.7944, 1338.092
672.2766, 1364.995
672.7587, 1388.908
673.2408, 1398.418
673.7229, 1397.853
674.2050, 1395.927
674.6871, 1398.068
675.1693, 1395.772
675.6514, 1386.852
676.1335, 1371.634
676.6156, 1351.823
677.0977, 1328.468
677.5798, 1298.118
678.0620, 1257.141
678.5441, 1206.714
679.0262, 1162.748
679.5083, 1125.265
679.9904, 1087.839
680.4725, 1040.707
680.9547, 991.5129
681.4368, 955.4661
681.9189, 936.0284
682.4010, 916.3553
682.8831, 880.8915
683.3652, 841.7697
683.8474, 811.8887
684.3295, 800.3645
684.8116, 788.2499
685.2937, 773.0954
685.7758, 755.6987
686.2579, 736.1743
686.7401, 711.3297
687.2222, 694.1953
687.7043, 690.5724
688.1864, 692.8777
688.6685, 679.9755
689.1506, 653.0190
689.6328, 630.6165
690.1149, 621.5735
690.5970, 621.4346
691.0791, 627.6143
691.5612, 638.2021
692.0433, 643.3984
692.5255, 631.3591
693.0076, 617.6433
693.4897, 614.0665
693.9718, 622.8084
694.4539, 624.9215
694.9360, 612.2210
695.4182, 597.5013
695.9003, 587.5209
696.3824, 583.9158
696.8645, 578.0275
697.3466, 568.4720
697.8287, 560.2675
698.3109, 560.1093
698.7930, 566.5346
699.2751, 571.7653
699.7572, 574.2424
700.2393, 575.8966
700.7214, 580.9077
701.2036, 586.0098
701.6857, 585.6603
702.1678, 572.4575
702.6499, 559.8082
703.1320, 551.2242
703.6141, 546.9043
704.0963, 547.6895
704.5784, 558.5295
705.0605, 566.6144
705.5426, 569.0082
706.0247, 566.5759
706.5068, 562.2833
706.9890, 555.6979
707.4711, 550.6845
707.9532, 550.3332
708.4353, 552.8016
708.9174, 553.4060
709.3995, 552.2853
709.8817, 550.7328
710.3638, 550.1343
710.8459, 549.1809
711.3280, 545.5669
711.8101, 538.3309
712.2922, 535.0624
712.7744, 542.5399
713.2565, 551.2660
713.7386, 554.5879
714.2207, 549.2749
714.7028, 546.9722
715.1849, 548.2826
715.6671, 551.5259
716.1492, 555.6372
716.6313, 560.3983
717.1134, 563.5053
717.5955, 564.3755
718.0776, 564.0058
718.5598, 563.2485
719.0419, 562.1696
719.5240, 560.9180
720.0061, 559.9435
720.4882, 558.3118
720.9703, 557.0755
721.4525, 554.7613
721.9346, 547.8685
722.4167, 525.0534
722.8988, 512.0293
723.3809, 516.4912
723.8630, 534.0135
724.3452, 548.3472
724.8273, 559.8882
725.3094, 565.0400
725.7915, 558.2236
726.2736, 545.0991
726.7557, 539.5833
727.2379, 541.3249
727.7200, 547.5531
728.2021, 565.2376
728.6842, 580.4067
729.1663, 578.2967
729.6484, 557.1321
730.1306, 540.4175
730.6127, 535.4907
731.0948, 536.5593
731.5769, 541.0510
732.0590, 550.6434
732.5411, 556.5979
733.0233, 558.1557
733.5054, 557.7783
733.9875, 556.7897
734.4696, 555.5245
734.9517, 556.1640
735.4338, 558.7745
735.9160, 564.3156
736.3981, 578.2514
736.8802, 594.3362
737.3623, 602.9232
737.8444, 598.3078
738.3266, 591.9835
738.8087, 586.5461
739.2908, 582.5853
739.7729, 580.8638
740.2551, 579.5314
740.7372, 584.1426
741.2193, 598.3528
741.7014, 616.3113
742.1835, 624.9028
742.6656, 623.9834
743.1478, 622.2534
743.6299, 620.4871
744.1120, 621.9583
744.5941, 635.2440
745.0762, 656.6055
745.5583, 674.8632
746.0405, 679.5712
746.5226, 684.0420
747.0047, 696.5037
747.4868, 715.6323
747.9689, 732.7830
748.4510, 748.1231
748.9332, 759.4149
749.4153, 763.5877
749.8974, 761.8480
750.3795, 770.5328
750.8616, 791.1128
751.3438, 810.3889
751.8259, 816.9047
752.3080, 816.5674
752.7901, 826.1458
753.2722, 845.2458
753.7543, 860.0129
754.2365, 858.4760
754.7186, 850.6855
755.2007, 845.4246
755.6828, 845.0822
756.1649, 838.5213
756.6470, 817.1122
757.1292, 794.8371
757.6113, 781.3223
758.0934, 780.4714
758.5755, 770.5292
759.0576, 750.3823
759.5397, 724.4789
760.0219, 694.3265
760.5040, 661.9352
760.9861, 634.4551
761.4682, 613.3748
761.9503, 596.5343
762.4324, 583.4844
762.9146, 573.0680
763.3967, 564.0336
763.8788, 558.2621
764.3609, 550.2836
764.8430, 534.8201
765.3251, 519.2895
765.8073, 513.2874
766.2894, 520.4330
766.7715, 521.9459
767.2536, 512.9350
767.7357, 501.6163
768.2178, 504.7766
768.7000, 518.5065
769.1821, 525.6710
769.6642, 515.9902
770.1463, 505.5894
770.6284, 511.7644
771.1105, 526.7922
771.5927, 535.7420
772.0748, 529.9431
772.5569, 522.1448
773.0390, 513.5300
773.5211, 505.3920
774.0032, 500.9166
774.4854, 500.0269
774.9675, 503.7162
775.4496, 514.7884
775.9317, 528.4386
776.4138, 530.3867
776.8959, 522.8226
777.3781, 517.7265
777.8602, 527.4347
778.3423, 537.3818
778.8244, 533.3012
779.3065, 518.2219
779.7886, 505.5017
780.2708, 496.6900
780.7529, 493.9407
781.2350, 500.8869
781.7171, 515.6690
782.1992, 519.5197
782.6813, 509.8124
783.1635, 499.4979
783.6456, 495.7001
784.1277, 496.3073
784.6098, 493.4607
785.0919, 487.6711
785.5740, 483.8405
786.0562, 485.7752
786.5383, 490.5229
787.0204, 497.8932
787.5025, 507.7310
787.9846, 511.0163
788.4667, 498.1339
788.9489, 485.3516
789.4310, 479.0626
789.9131, 479.5146
790.3952, 484.1340
790.8773, 494.3517
791.3594, 501.8865
791.8416, 495.0883
792.3237, 481.4828
792.8058, 483.8929
793.2879, 503.1678
793.7700, 521.5286
794.2521, 526.1647
794.7343, 525.0089
795.2164, 524.3159
795.6985, 525.3353
796.1806, 524.5865
796.6627, 520.8078
797.1448, 516.2396
797.6270, 512.1254
798.1091, 508.4148
798.5912, 506.0697
799.0733, 505.4748
799.5554, 504.0560
800.0375, 495.2087
800.5197, 484.8324
801.0018, 486.0850
801.4839, 502.0327
801.9660, 518.5922
802.4481, 529.1025
802.9302, 535.3288
803.4124, 538.3710
803.8945, 536.1922
804.3766, 535.6249
804.8587, 537.1213
805.3408, 539.6342
805.8229, 542.7951
806.3051, 546.5875
806.7872, 548.1227
807.2693, 546.9172
807.7514, 544.9108
808.2335, 543.9825
808.7156, 543.5995
809.1978, 542.1005
809.6799, 537.3947
810.1620, 537.4980
810.6441, 552.3478
811.1262, 569.8697
811.6083, 577.2996
812.0905, 565.8743
812.5726, 565.1349
813.0547, 579.1943
813.5368, 597.1274
814.0189, 606.0331
814.5010, 607.2036
814.9832, 608.1456
815.4653, 610.0864
815.9474, 611.6934
816.4295, 607.2709
816.9116, 603.6757
817.3937, 610.3624
817.8759, 636.4446
818.3580, 659.3708
818.8401, 675.0850
819.3222, 685.0521
819.8043, 689.1003
820.2864, 685.0234
820.7686, 685.2930
821.2507, 691.2997
821.7328, 700.9388
822.2149, 712.3502
822.6970, 725.0705
823.1791, 739.1764
823.6613, 756.3304
824.1434, 768.8366
824.6255, 763.7947
825.1076, 754.7170
825.5897, 756.7037
826.0718, 788.4188
826.5540, 807.4763
827.0361, 806.8901
827.5182, 801.8268
828.0003, 812.0972
828.4824, 837.4026
828.9645, 858.6696
829.4467, 872.1982
829.9288, 884.5286
830.4109, 902.9152
830.8930, 925.0182
831.3751, 947.8111
831.8572, 971.2864
832.3394, 993.1222
832.8215, 1010.278
833.3036, 1026.816
833.7857, 1047.785
834.2678, 1075.507
834.7499, 1098.878
835.2321, 1114.497
835.7142, 1131.699
836.1963, 1164.460
836.6784, 1209.174
837.1605, 1251.808
837.6426, 1289.151
838.1248, 1324.944
838.6069, 1362.273
839.0890, 1399.497
839.5711, 1433.866
840.0532, 1459.476
840.5353, 1492.513
841.0175, 1536.974
841.4996, 1585.867
841.9817, 1631.463
842.4638, 1673.754
842.9459, 1717.168
843.4280, 1761.696
843.9102, 1809.587
844.3923, 1867.671
844.8744, 1929.566
845.3565, 1982.985
845.8386, 2023.040
846.3207, 2065.271
846.8029, 2115.756
847.2850, 2171.388
847.7671, 2229.776
848.2492, 2292.685
848.7313, 2352.099
849.2134, 2404.971
849.6956, 2461.074
850.1777, 2537.538
850.6598, 2626.271
851.1419, 2694.082
851.6240, 2734.787
852.1061, 2780.631
852.5883, 2865.379
853.0704, 2961.647
853.5525, 3043.054
854.0346, 3094.404
854.5167, 3165.645
854.9988, 3276.963
855.4810, 3385.786
855.9631, 3458.817
856.4452, 3495.616
856.9273, 3541.181
857.4094, 3596.426
857.8915, 3659.703
858.3737, 3731.022
858.8558, 3807.864
859.3379, 3892.526
859.8200, 3986.160
860.3021, 4061.833
860.7842, 4097.572
861.2664, 4120.313
861.7485, 4146.482
862.2306, 4178.214
862.7127, 4192.066
863.1948, 4185.776
863.6769, 4172.043
864.1591, 4161.111
864.6412, 4149.123
865.1233, 4128.244
865.6054, 4097.782
866.0875, 4055.305
866.5696, 3996.761
867.0518, 3927.291
867.5339, 3848.194
868.0160, 3758.095
868.4981, 3667.925
868.9802, 3578.100
869.4623, 3486.850
869.9445, 3393.713
870.4266, 3299.126
870.9087, 3204.953
871.3908, 3110.200
871.8729, 3017.313
872.3550, 2923.401
872.8372, 2833.991
873.3193, 2756.675
873.8014, 2688.797
874.2835, 2618.936
874.7656, 2541.033
875.2477, 2464.585
875.7299, 2390.122
876.2120, 2319.518
876.6941, 2257.121
877.1762, 2203.128
877.6583, 2157.948
878.1404, 2126.981
878.6226, 2100.183
879.1047, 2062.990
879.5869, 2019.350
880.0690, 1978.524
880.5511, 1948.176
881.0332, 1916.316
881.5153, 1874.014
881.9974, 1829.707
882.4796, 1802.788
882.9617, 1797.664
883.4438, 1783.329
883.9259, 1748.747
884.4080, 1709.732
884.8901, 1694.539
885.3723, 1694.505
885.8544, 1688.864
886.3365, 1664.720
886.8186, 1643.180
887.3007, 1637.988
887.7828, 1639.211
888.2650, 1632.866
888.7471, 1616.381
889.2292, 1598.280
889.7113, 1577.914
890.1934, 1559.054
890.6755, 1546.189
891.1577, 1538.701
891.6398, 1535.547
892.1219, 1537.803
892.6040, 1537.886
893.0861, 1527.757
893.5682, 1514.616
894.0504, 1505.403
894.5325, 1503.126
895.0146, 1499.790
895.4967, 1495.465
895.9788, 1489.972
896.4609, 1480.863
896.9431, 1469.714
897.4252, 1469.355
897.9073, 1480.612
898.3894, 1489.364
898.8715, 1481.416
899.3536, 1468.950
899.8358, 1461.206
900.3179, 1459.203
900.8000, 1462.967
901.2821, 1479.818
901.7642, 1491.267
902.2463, 1488.019
902.7285, 1471.813
903.2106, 1451.100
903.6927, 1426.507
904.1748, 1411.486
904.6569, 1422.943
905.1390, 1441.368
905.6212, 1447.981
906.1033, 1444.188
906.5854, 1438.357
907.0675, 1422.073
907.5496, 1417.942
908.0317, 1437.157
908.5139, 1469.674
908.9960, 1483.739
909.4781, 1479.192
909.9602, 1473.820
910.4423, 1472.658
910.9244, 1475.551
911.4066, 1484.802
911.8887, 1497.502
912.3708, 1508.439
912.8529, 1512.771
913.3350, 1519.144
913.8171, 1530.845
914.2993, 1543.953
914.7814, 1553.096
915.2635, 1558.012
915.7456, 1562.034
916.2277, 1565.266
916.7098, 1569.311
917.1920, 1576.463
917.6741, 1585.404
918.1562, 1592.759
918.6383, 1594.856
919.1204, 1606.108
919.6025, 1643.172
920.0847, 1680.833
920.5668, 1699.767
921.0489, 1695.432
921.5310, 1708.258
922.0131, 1740.325
922.4952, 1771.695
922.9774, 1781.038
923.4595, 1781.886
923.9416, 1794.171
924.4237, 1818.648
924.9058, 1846.986
925.3879, 1879.074
925.8701, 1911.326
926.3522, 1942.509
926.8343, 1972.851
927.3164, 2003.251
927.7985, 2033.930
928.2806, 2063.655
928.7628, 2088.455
929.2449, 2114.776
929.7270, 2154.543
930.2091, 2204.371
930.6912, 2256.262
931.1733, 2305.327
931.6555, 2357.258
932.1376, 2412.606
932.6197, 2472.014
933.1018, 2537.357
933.5839, 2609.822
934.0660, 2681.360
934.5482, 2748.344
935.0303, 2822.863
935.5124, 2926.667
935.9945, 3048.995
936.4766, 3169.990
936.9587, 3286.620
937.4409, 3402.342
937.9230, 3510.517
938.4051, 3625.990
938.8872, 3759.382
939.3693, 3912.888
939.8514, 4082.936
940.3336, 4270.377
940.8157, 4456.378
941.2978, 4620.526
941.7799, 4777.164
942.2620, 4952.326
942.7441, 5145.321
943.2263, 5330.667
943.7084, 5482.646
944.1905, 5637.151
944.6726, 5811.100
945.1547, 6000.042
945.6368, 6180.029
946.1190, 6353.399
946.6011, 6501.653
947.0832, 6609.641
947.5653, 6696.152
948.0474, 6796.540
948.5295, 6896.198
949.0117, 6961.155
949.4938, 6956.562
949.9759, 6945.060
950.4580, 6947.327
950.9401, 6943.415
951.4222, 6897.519
951.9044, 6808.698
952.3865, 6725.188
952.8686, 6653.959
953.3507, 6592.813
953.8328, 6546.585
954.3149, 6505.630
954.7971, 6451.705
955.2792, 6369.867
955.7613, 6324.734
956.2434, 6334.875
956.7255, 6372.176
957.2076, 6424.421
957.6898, 6491.503
958.1719, 6557.434
958.6540, 6622.927
959.1361, 6700.281
959.6182, 6801.295
960.1003, 6916.319
960.5825, 7036.947
961.0646, 7164.105
961.5467, 7306.110
962.0288, 7469.510
962.5109, 7639.120
962.9930, 7808.394
963.4752, 7980.167
963.9573, 8161.828
964.4394, 8349.995
964.9215, 8536.493
965.4036, 8731.218
965.8857, 8898.252
966.3679, 8994.090
966.8500, 9051.303
967.3321, 9114.336
967.8142, 9218.382
968.2963, 9275.564
968.7784, 9284.728
969.2606, 9247.610
969.7427, 9166.447
970.2248, 9040.409
970.7069, 8862.409
971.1890, 8633.056
971.6711, 8369.404
972.1533, 8075.274
972.6354, 7759.476
973.1175, 7424.661
973.5996, 7071.718
974.0817, 6723.304
974.5638, 6378.581
975.0460, 6041.600
975.5281, 5704.649
976.0102, 5380.672
976.4923, 5093.397
976.9744, 4839.864
977.4565, 4611.373
977.9387, 4410.249
978.4208, 4226.361
978.9029, 4057.142
979.3850, 3903.960
979.8671, 3769.045
980.3492, 3655.318
980.8314, 3547.220
981.3135, 3442.998
981.7956, 3343.143
982.2777, 3248.742
982.7598, 3157.235
983.2419, 3061.113
983.7241, 2956.662
984.2062, 2870.555
984.6883, 2828.655
985.1704, 2789.201
985.6525, 2733.593
986.1346, 2663.278
986.6168, 2592.413
987.0989, 2521.045
987.5810, 2450.678
988.0631, 2374.979
988.5452, 2306.485
989.0273, 2263.675
989.5095, 2237.719
989.9916, 2206.626
990.4737, 2164.817
990.9558, 2118.588
991.4379, 2066.387
991.9200, 2014.001
992.4022, 1971.390
992.8843, 1937.109
993.3664, 1903.002
993.8485, 1867.642
994.3306, 1834.123
994.8127, 1805.715
995.2949, 1779.308
995.7770, 1751.377
996.2591, 1720.471
996.7412, 1699.517
997.2233, 1692.335
997.7054, 1681.814
998.1876, 1652.308
998.6697, 1614.399
999.1518, 1590.703
999.6339, 1579.247
1000.116, 1571.634
1000.598, 1569.363
1001.080, 1564.038
1001.562, 1549.779
1002.044, 1532.010
1002.527, 1519.990
1003.009, 1514.050
1003.491, 1511.767
1003.973, 1514.325
1004.455, 1513.865
1004.937, 1494.600
1005.419, 1470.613
1005.901, 1461.864
1006.384, 1477.029
1006.866, 1484.872
1007.348, 1477.963
1007.830, 1469.021
1008.312, 1464.640
1008.794, 1464.322
1009.276, 1465.355
1009.758, 1467.724
1010.240, 1471.275
1010.723, 1474.232
1011.205, 1480.010
1011.687, 1495.701
1012.169, 1515.351
1012.651, 1522.380
1013.133, 1510.415
1013.615, 1504.108
1014.097, 1507.633
1014.580, 1516.579
1015.062, 1525.418
1015.544, 1534.951
1016.026, 1548.095
1016.508, 1566.614
1016.990, 1580.804
1017.472, 1582.122
1017.954, 1582.186
1018.436, 1587.281
1018.919, 1597.229
1019.401, 1609.763
1019.883, 1624.889
1020.365, 1640.247
1020.847, 1650.274
1021.329, 1663.378
1021.811, 1691.188
1022.293, 1728.372
1022.776, 1762.277
1023.258, 1785.203
1023.740, 1813.817
1024.222, 1850.979
1024.704, 1892.440
1025.186, 1929.041
1025.668, 1964.779
1026.150, 2014.386
1026.632, 2081.121
1027.115, 2147.796
1027.597, 2197.405
1028.079, 2248.973
1028.561, 2313.762
1029.043, 2391.627
1029.525, 2488.963
1030.007, 2604.816
1030.489, 2735.078
1030.972, 2884.132
1031.454, 3038.985
1031.936, 3180.008
1032.418, 3315.634
1032.900, 3461.574
1033.382, 3638.899
1033.864, 3806.143
1034.346, 3953.297
1034.828, 4096.747
1035.311, 4256.020
1035.793, 4428.421
1036.275, 4589.743
1036.757, 4739.416
1037.239, 4869.621
1037.721, 4970.192
1038.203, 5053.974
1038.685, 5131.049
1039.167, 5199.569
1039.650, 5243.579
1040.132, 5264.174
1040.614, 5254.309
1041.096, 5213.067
1041.578, 5137.960
1042.060, 5022.363
1042.542, 4871.825
1043.024, 4693.151
1043.507, 4479.032
1043.989, 4257.485
1044.471, 4022.595
1044.953, 3791.458
1045.435, 3576.120
1045.917, 3376.100
1046.399, 3166.404
1046.881, 2948.876
1047.364, 2751.829
1047.846, 2603.508
1048.328, 2473.813
1048.810, 2341.872
1049.292, 2211.447
1049.774, 2098.042
1050.256, 2002.820
1050.738, 1922.091
1051.220, 1857.641
1051.703, 1800.759
1052.185, 1738.532
1052.667, 1677.174
1053.149, 1629.222
1053.631, 1600.049
1054.113, 1570.391
1054.595, 1535.513
1055.077, 1498.163
1055.559, 1455.952
1056.042, 1411.953
1056.524, 1389.763
1057.006, 1386.607
1057.488, 1379.796
1057.970, 1352.978
1058.452, 1322.732
1058.934, 1297.016
1059.416, 1275.524
1059.899, 1257.881
1060.381, 1245.165
1060.863, 1232.255
1061.345, 1219.208
1061.827, 1203.715
1062.309, 1178.515
1062.791, 1151.459
1063.273, 1135.839
1063.755, 1132.382
1064.238, 1128.901
1064.720, 1124.013
1065.202, 1115.645
1065.684, 1101.933
1066.166, 1085.269
1066.648, 1072.309
1067.130, 1062.705
1067.612, 1052.926
1068.094, 1038.638
1068.577, 1031.798
1069.059, 1048.788
1069.541, 1070.443
1070.023, 1077.155
1070.505, 1065.068
1070.987, 1060.644
1071.469, 1064.747
1071.951, 1067.541
1072.434, 1061.549
1072.916, 1051.000
1073.398, 1037.368
1073.880, 1023.043
1074.362, 1016.075
1074.844, 1023.268
1075.326, 1029.736
1075.808, 1035.337
1076.291, 1036.700
1076.773, 1024.839
1077.255, 1005.286
1077.737, 996.1181
1078.219, 1000.632
1078.701, 1001.815
1079.183, 984.9841
1079.665, 968.8904
1080.147, 963.5525
1080.630, 967.0081
1081.112, 966.9233
1081.594, 963.4839
1082.076, 962.7990
1082.558, 969.1276
1083.040, 975.2976
1083.522, 974.5104
1084.004, 969.8380
1084.486, 965.3889
1084.969, 962.3292
1085.451, 957.1337
1085.933, 949.2891
1086.415, 941.4180
1086.897, 935.6450
1087.379, 931.1458
1087.861, 926.4673
1088.343, 921.7374
1088.826, 917.6223
1089.308, 913.9866
1089.790, 911.7078
1090.272, 911.2604
1090.754, 911.7817
1091.236, 910.5486
1091.718, 908.8367
1092.200, 915.5373
1092.682, 933.0026
1093.165, 943.0521
1093.647, 927.3590
1094.129, 906.7097
1094.611, 892.7354
1095.093, 885.2930
1095.575, 883.9520
1096.057, 888.9786
1096.539, 893.1898
1097.022, 892.4755
1097.504, 892.6235
1097.986, 902.2557
1098.468, 915.3426
1098.950, 923.5099
1099.432, 924.8237
1099.914, 922.5327
1100.396, 915.8024
1100.879, 908.3294
1101.361, 901.9360
1101.843, 897.0544
1102.325, 896.1108
1102.807, 897.6125
1103.289, 896.0607
1103.771, 879.9031
1104.253, 874.4230
1104.735, 888.3319
1105.218, 908.3163
1105.700, 916.2191
1106.182, 913.7943
1106.664, 906.6463
1107.146, 895.1995
1107.628, 889.0984
1108.110, 899.8787
1108.592, 912.0277
1109.074, 917.6063
1109.557, 917.3008
1110.039, 911.7757
1110.521, 900.8732
1111.003, 893.7318
1111.485, 892.7542
1111.967, 897.2803
1112.449, 917.2037
1112.931, 936.1754
1113.414, 932.0303
1113.896, 894.7933
1114.378, 879.0818
1114.860, 888.6830
1115.342, 903.5062
1115.824, 915.4753
1116.306, 923.0898
1116.788, 920.7785
1117.271, 912.6213
1117.753, 907.6873
1118.235, 911.8406
1118.717, 914.8961
1119.199, 915.6857
1119.681, 916.2098
1120.163, 919.6139
1120.645, 924.1727
1121.127, 923.7042
1121.609, 918.5782
1122.092, 914.7792
1122.574, 916.6959
1123.056, 918.7145
1123.538, 917.9802
1124.020, 916.9031
1124.502, 922.8392
1124.984, 934.1851
1125.466, 936.1321
1125.949, 925.1611
1126.431, 912.1376
1126.913, 899.6183
1127.395, 892.2463
1127.877, 895.4044
1128.359, 907.4594
1128.841, 919.3918
1129.323, 931.7112
1129.806, 933.6962
1130.288, 917.3610
1130.770, 898.0673
1131.252, 890.8958
1131.734, 890.4240
1132.216, 891.0408
1132.698, 895.3623
1133.180, 885.9171
1133.662, 858.9771
1134.145, 834.2327
1134.627, 826.3538
1135.109, 826.7653
1135.591, 825.0944
1136.073, 820.6066
1136.555, 811.4960
1137.037, 792.4410
1137.519, 775.5769
1138.001, 761.8890
1138.484, 750.0129
1138.966, 739.0959
1139.448, 728.8976
1139.930, 719.9904
1140.412, 711.8884
1140.894, 701.4911
1141.376, 686.5040
1141.858, 669.4784
1142.341, 648.3586
1142.823, 628.4297
1143.305, 623.5642
1143.787, 628.9838
1144.269, 620.3995
1144.751, 592.1856
1145.233, 567.8862
1145.715, 564.5161
1146.198, 565.2603
1146.680, 561.6346
1147.162, 553.9918
1147.644, 542.8282
1148.126, 528.5499
1148.608, 517.7051
1149.090, 513.6639
1149.572, 509.5933
1150.054, 498.5853
1150.536, 486.3356
1151.019, 477.8300
1151.501, 473.1510
1151.983, 472.5816
1152.465, 476.2100
1152.947, 481.7773
1153.429, 495.0645
1153.911, 501.8688
1154.393, 477.7981
1154.876, 441.1230
1155.358, 425.3546
1155.840, 440.1646
1156.322, 452.1859
1156.804, 461.1950
1157.286, 465.3345
1157.768, 457.9016
1158.250, 448.3843
1158.733, 452.4455
1159.215, 465.4409
1159.697, 468.0036
1160.179, 449.3814
1160.661, 438.1884
1161.143, 438.8717
1161.625, 444.3664
1162.107, 448.2587
1162.589, 450.5567
1163.072, 451.3353
1163.554, 450.5846
1164.036, 447.7047
1164.518, 440.2671
1165.000, 434.5851
1165.482, 432.2964
1165.964, 432.2721
1166.446, 435.1823
1166.928, 438.1854
1167.411, 433.1271
1167.893, 416.8064
1168.375, 405.0891
1168.857, 403.4461
1169.339, 407.6952
1169.821, 419.7281
1170.303, 434.2002
1170.785, 431.7265
1171.268, 418.0797
1171.750, 413.5036
1172.232, 430.1513
1172.714, 441.4374
1173.196, 429.1071
1173.678, 415.5526
1174.160, 416.2190
1174.642, 427.7316
1175.125, 426.1041
1175.607, 413.6728
1176.089, 403.3179
1176.571, 400.3340
1177.053, 401.7021
1177.535, 412.3160
1178.017, 421.9277
1178.499, 419.4912
1178.981, 405.1740
1179.464, 394.0627
1179.946, 386.5795
1180.428, 386.0539
1180.910, 402.0591
1181.392, 417.3622
1181.874, 422.6415
1182.356, 421.4772
1182.838, 419.0436
1183.320, 415.3053
1183.803, 410.5186
1184.285, 404.6562
1184.767, 398.7334
1185.249, 389.9704
1185.731, 384.6850
1186.213, 391.0835
1186.695, 404.0154
1187.177, 408.2867
1187.660, 403.1511
1188.142, 401.8749
1188.624, 407.3619
1189.106, 410.8173
1189.588, 398.6045
1190.070, 385.9915
1190.552, 389.1038
1191.034, 405.0314
1191.516, 408.4739
1191.999, 397.8500
1192.481, 389.7486
1192.963, 388.4282
1193.445, 390.3875
1193.927, 393.0713
1194.409, 396.6274
1194.891, 402.6277
1195.373, 411.2234
1195.855, 411.9163
1196.338, 403.6068
1196.820, 397.2511
1197.302, 398.4078
1197.784, 400.6494
1198.266, 395.1287
1198.748, 387.4870
1199.230, 385.6882
1199.712, 391.9449
1200.195, 393.8346
1200.677, 390.6075
1201.159, 388.4865
1201.641, 393.4075
1202.123, 397.8478
1202.605, 387.5028
1203.087, 372.8001
1203.569, 372.1306
1204.052, 394.8336
1204.534, 407.7038
1205.016, 409.7462
1205.498, 408.4929
1205.980, 410.1483
1206.462, 410.5526
1206.944, 402.6050
1207.426, 390.0446
1207.908, 381.5104
1208.391, 376.6695
1208.873, 379.3318
1209.355, 390.9062
1209.837, 403.4304
1210.319, 413.5904
1210.801, 418.3138
1211.283, 407.9890
1211.765, 388.6504
1212.247, 382.8496
1212.730, 397.5497
1213.212, 407.7275
1213.694, 410.6352
1214.176, 409.5250
1214.658, 404.1235
1215.140, 398.9797
1215.622, 402.5150
1216.104, 412.2180
1216.587, 410.4576
1217.069, 390.2442
1217.551, 381.2609
1218.033, 390.3853
1218.515, 402.7764
1218.997, 400.7653
1219.479, 393.6719
1219.961, 391.0302
1220.443, 393.8175
1220.926, 401.4995
1221.408, 417.0616
1221.890, 423.8346
1222.372, 416.1358
1222.854, 404.7583
1223.336, 401.7164
1223.818, 402.8145
1224.300, 403.7643
1224.782, 404.0401
1225.265, 403.1406
1225.747, 400.1994
1226.229, 400.7961
1226.711, 407.8949
1227.193, 415.7465
1227.675, 418.3480
1228.157, 417.1511
1228.639, 412.5547
1229.122, 404.0569
1229.604, 400.3782
1230.086, 401.7284
1230.568, 407.3060
1231.050, 420.4063
1231.532, 429.9892
1232.014, 414.8870
1232.496, 393.5636
1232.979, 391.6758
1233.461, 414.0806
1233.943, 423.6954
1234.425, 419.1449
1234.907, 414.8574
1235.389, 418.0602
1235.871, 423.7029
1236.353, 430.6147
1236.835, 434.9048
1237.318, 429.5812
1237.800, 412.6241
1238.282, 403.6503
1238.764, 403.0724
1239.246, 403.2259
1239.728, 397.2614
1240.210, 393.6836
1240.692, 404.1287
1241.175, 418.9833
1241.657, 425.1486
1242.139, 421.5062
1242.621, 413.3214
1243.103, 400.4369
1243.585, 392.9900
1244.067, 403.7774
1244.549, 414.7983
1245.031, 410.1858
1245.514, 400.4797
1245.996, 401.9433
1246.478, 416.2857
1246.960, 418.0228
1247.442, 407.5182
1247.924, 401.0957
1248.406, 420.6831
1248.888, 434.6902
1249.370, 415.2356
1249.853, 385.9137
1250.335, 378.7671
1250.817, 393.0129
1251.299, 403.4732
1251.781, 409.1892
1252.263, 413.4109
1252.745, 418.9889
1253.227, 422.4091
1253.710, 419.7578
1254.192, 416.0098
1254.674, 419.4399
1255.156, 428.1908
1255.638, 427.3004
1256.120, 416.7275
1256.602, 406.9524
1257.084, 400.8613
1257.567, 400.8346
1258.049, 409.8843
1258.531, 421.6542
1259.013, 428.9373
1259.495, 431.3900
1259.977, 424.9412
1260.459, 410.4667
1260.941, 400.1415
1261.423, 399.4519
1261.906, 405.2495
1262.388, 420.6744
1262.870, 435.4832
1263.352, 431.9209
1263.834, 417.1740
1264.316, 406.4660
1264.798, 401.3152
1265.280, 400.1792
1265.762, 405.3038
1266.245, 410.4847
1266.727, 415.3988
1267.209, 418.2545
1267.691, 414.3469
1268.173, 407.7879
1268.655, 405.8506
1269.137, 408.8622
1269.619, 410.7846
1270.102, 410.5373
1270.584, 410.5255
1271.066, 411.7892
1271.548, 411.5804
1272.030, 404.2348
1272.512, 394.9568
1272.994, 389.1525
1273.476, 387.6711
1273.958, 390.8267
1274.441, 399.7805
1274.923, 407.1825
1275.405, 411.3594
1275.887, 413.6778
1276.369, 413.7660
1276.851, 414.0833
1277.333, 418.3297
1277.815, 425.3705
1278.297, 427.1790
1278.780, 423.4470
1279.262, 421.2392
1279.744, 422.6254
1280.226, 422.9638
1280.708, 414.3188
1281.190, 407.2017
1281.672, 411.4263
1282.154, 422.9450
1282.637, 427.2627
1283.119, 424.9934
1283.601, 420.7111
1284.083, 414.4922
1284.565, 412.9447
1285.047, 427.7013
1285.529, 439.4777
1286.011, 438.6530
1286.494, 428.6869
1286.976, 415.3011
1287.458, 401.2677
1287.940, 397.7684
1288.422, 408.4762
1288.904, 417.8768
1289.386, 421.4313
1289.868, 420.3923
1290.350, 413.3337
1290.833, 404.3232
1291.315, 401.1453
1291.797, 402.2721
1292.279, 405.4878
1292.761, 410.8773
1293.243, 413.6186
1293.725, 411.9127
1294.207, 411.6102
1294.689, 415.7006
1295.172, 419.5575
1295.654, 413.8554
1296.136, 405.1924
1296.618, 402.9219
1297.100, 409.0937
1297.582, 412.8295
1298.064, 413.8096
1298.546, 414.4399
1299.029, 415.4642
1299.511, 416.4133
1299.993, 412.7426
1300.475, 411.7292
##END=



