##NAMES=Aegirine
##RRUFFID=R070125
##IDEAL CHEMISTRY=NaFe^3+^Si_2_O_6_
##LOCALITY=Ice River Alkaline Complex, Golden, British Columbia, Canada
##OWNER=RRUFF
##SOURCE=Mark Mauthner
##DESCRIPTION=Fragmented prismatic dark gray crystals associated with white microcline
##STATUS=The identification of this mineral is confirmed by single-crystal X-ray diffraction and chemical analysis.
##URL=rruff.info/R070125
##MEASURED CHEMISTRY=Na_1.00_(Fe^3+^_0.91_Al_0.07_Mg_0.01_Ti_0.01_)_Î£=1_Si_2.00_O_6_
126.5579, 285.7425
127.0400, 302.1834
127.5222, 321.4763
128.0043, 342.6547
128.4864, 363.7517
128.9685, 384.8371
129.4506, 405.4604
129.9328, 425.2109
130.4149, 444.1253
130.8970, 462.8336
131.3791, 482.7665
131.8612, 503.4311
132.3433, 520.0849
132.8255, 531.5871
133.3076, 539.2283
133.7897, 546.6916
134.2718, 554.2916
134.7539, 560.1563
135.2360, 563.5958
135.7182, 564.8621
136.2003, 560.0626
136.6824, 545.0793
137.1645, 521.1915
137.6466, 508.2742
138.1287, 508.9927
138.6109, 515.8558
139.0930, 519.3724
139.5751, 518.9631
140.0572, 516.9957
140.5393, 513.7946
141.0214, 508.7303
141.5036, 504.7615
141.9857, 500.2500
142.4678, 497.5824
142.9499, 503.3167
143.4320, 522.9914
143.9141, 542.5366
144.3963, 554.7745
144.8784, 554.6047
145.3605, 556.7790
145.8426, 561.8989
146.3247, 569.8077
146.8068, 580.0220
147.2890, 594.0558
147.7711, 609.1478
148.2532, 623.5323
148.7353, 636.9577
149.2174, 649.9590
149.6995, 661.6995
150.1817, 671.9205
150.6638, 684.6760
151.1459, 703.4526
151.6280, 723.3648
152.1101, 739.7796
152.5922, 748.7650
153.0744, 757.5980
153.5565, 767.3363
154.0386, 777.1035
154.5207, 790.9532
155.0028, 812.9167
155.4849, 838.7925
155.9671, 861.9235
156.4492, 878.9899
156.9313, 894.5726
157.4134, 910.1213
157.8955, 924.5188
158.3777, 941.6986
158.8598, 963.4493
159.3419, 989.0363
159.8240, 1015.827
160.3061, 1052.447
160.7882, 1084.756
161.2704, 1103.220
161.7525, 1098.593
162.2346, 1087.260
162.7167, 1072.609
163.1988, 1055.188
163.6809, 1040.447
164.1631, 1032.616
164.6452, 1027.985
165.1273, 1022.766
165.6094, 1011.640
166.0915, 1002.584
166.5736, 1001.219
167.0558, 1007.781
167.5379, 1016.529
168.0200, 1023.463
168.5021, 1030.262
168.9842, 1039.442
169.4663, 1050.608
169.9485, 1065.458
170.4306, 1086.506
170.9127, 1114.513
171.3948, 1144.806
171.8769, 1171.532
172.3590, 1197.112
172.8412, 1227.336
173.3233, 1265.525
173.8054, 1309.807
174.2875, 1358.313
174.7696, 1411.915
175.2517, 1467.477
175.7339, 1520.232
176.2160, 1571.795
176.6981, 1626.927
177.1802, 1695.998
177.6623, 1770.903
178.1444, 1835.779
178.6266, 1889.044
179.1087, 1929.663
179.5908, 1957.091
180.0729, 1971.054
180.5550, 1968.203
181.0371, 1934.898
181.5193, 1880.498
182.0014, 1833.751
182.4835, 1803.363
182.9656, 1785.364
183.4477, 1769.882
183.9298, 1756.614
184.4120, 1751.704
184.8941, 1760.196
185.3762, 1782.090
185.8583, 1816.938
186.3404, 1872.247
186.8225, 1940.962
187.3047, 1999.489
187.7868, 2045.841
188.2689, 2088.971
188.7510, 2141.122
189.2331, 2201.461
189.7152, 2261.754
190.1974, 2323.026
190.6795, 2382.667
191.1616, 2424.532
191.6437, 2446.604
192.1258, 2453.223
192.6080, 2451.572
193.0901, 2441.798
193.5722, 2420.833
194.0543, 2384.843
194.5364, 2334.534
195.0185, 2277.698
195.5007, 2211.547
195.9828, 2143.416
196.4649, 2092.930
196.9470, 2061.114
197.4291, 2035.373
197.9112, 2006.335
198.3934, 1973.534
198.8755, 1947.703
199.3576, 1931.340
199.8397, 1922.405
200.3218, 1913.850
200.8039, 1905.315
201.2861, 1898.433
201.7682, 1892.251
202.2503, 1885.332
202.7324, 1890.513
203.2145, 1913.979
203.6966, 1952.365
204.1788, 1980.778
204.6609, 1994.996
205.1430, 2008.437
205.6251, 2035.145
206.1072, 2078.086
206.5893, 2121.049
207.0715, 2159.982
207.5536, 2194.760
208.0357, 2233.444
208.5178, 2279.320
208.9999, 2323.932
209.4820, 2358.756
209.9642, 2383.795
210.4463, 2399.030
210.9284, 2404.416
211.4105, 2399.913
211.8926, 2385.856
212.3747, 2362.439
212.8569, 2329.188
213.3390, 2284.705
213.8211, 2229.142
214.3032, 2163.122
214.7853, 2085.083
215.2674, 1993.695
215.7496, 1900.409
216.2317, 1803.900
216.7138, 1706.157
217.1959, 1608.763
217.6780, 1506.441
218.1601, 1413.653
218.6423, 1338.418
219.1244, 1285.073
219.6065, 1234.053
220.0886, 1184.254
220.5707, 1136.538
221.0528, 1094.734
221.5350, 1058.713
222.0171, 1027.634
222.4992, 1000.884
222.9813, 979.0936
223.4634, 960.7363
223.9455, 946.5787
224.4277, 935.7379
224.9098, 926.3501
225.3919, 919.8992
225.8740, 912.4324
226.3561, 900.9384
226.8382, 881.9558
227.3204, 867.3377
227.8025, 859.9014
228.2846, 857.8190
228.7667, 851.0414
229.2488, 834.5538
229.7310, 820.2675
230.2131, 816.5450
230.6952, 829.8243
231.1773, 840.2870
231.6594, 846.3623
232.1415, 848.1707
232.6237, 846.3632
233.1058, 837.5550
233.5879, 829.1602
234.0700, 827.1722
234.5521, 836.2501
235.0342, 842.2018
235.5164, 841.4153
235.9985, 834.5020
236.4806, 833.1983
236.9627, 840.8688
237.4448, 850.3848
237.9269, 856.1718
238.4091, 857.2141
238.8912, 856.1203
239.3733, 851.6756
239.8554, 843.9385
240.3375, 842.3094
240.8196, 851.3953
241.3018, 861.9703
241.7839, 864.6217
242.2660, 852.1367
242.7481, 845.6623
243.2302, 851.3683
243.7123, 870.0280
244.1945, 881.9283
244.6766, 883.1592
245.1587, 881.3632
245.6408, 884.3983
246.1229, 894.3501
246.6050, 905.2938
247.0872, 916.8776
247.5693, 929.4563
248.0514, 938.1769
248.5335, 941.6256
249.0156, 942.4891
249.4977, 943.7996
249.9799, 946.0163
250.4620, 947.6407
250.9441, 947.2292
251.4262, 943.9653
251.9083, 946.7462
252.3904, 958.2202
252.8726, 973.3205
253.3547, 985.4625
253.8368, 993.0580
254.3189, 1001.153
254.8010, 1011.584
255.2831, 1024.949
255.7653, 1035.803
256.2474, 1042.001
256.7295, 1047.566
257.2116, 1058.731
257.6937, 1079.044
258.1758, 1096.866
258.6580, 1107.066
259.1401, 1107.861
259.6222, 1115.768
260.1043, 1133.121
260.5864, 1155.251
261.0685, 1175.461
261.5507, 1193.296
262.0328, 1210.349
262.5149, 1228.239
262.9970, 1248.059
263.4791, 1260.606
263.9612, 1264.101
264.4434, 1262.342
264.9255, 1261.317
265.4076, 1262.258
265.8897, 1260.394
266.3718, 1253.050
266.8539, 1239.345
267.3361, 1229.083
267.8182, 1223.924
268.3003, 1220.310
268.7824, 1211.643
269.2645, 1195.292
269.7466, 1182.672
270.2288, 1178.612
270.7109, 1183.959
271.1930, 1187.460
271.6751, 1188.358
272.1572, 1188.549
272.6393, 1190.976
273.1215, 1195.955
273.6036, 1201.831
274.0857, 1208.789
274.5678, 1216.988
275.0499, 1221.109
275.5320, 1218.977
276.0142, 1216.641
276.4963, 1223.721
276.9784, 1241.334
277.4605, 1261.821
277.9426, 1284.078
278.4247, 1307.896
278.9069, 1326.867
279.3890, 1339.948
279.8711, 1350.108
280.3532, 1361.264
280.8354, 1373.458
281.3175, 1386.151
281.7996, 1397.163
282.2817, 1407.222
282.7638, 1426.505
283.2459, 1457.054
283.7281, 1490.950
284.2102, 1516.739
284.6923, 1534.369
285.1744, 1552.438
285.6565, 1573.857
286.1386, 1598.470
286.6208, 1626.258
287.1029, 1658.483
287.5850, 1689.396
288.0671, 1709.641
288.5492, 1720.220
289.0313, 1733.811
289.5135, 1756.370
289.9956, 1786.149
290.4777, 1819.368
290.9598, 1857.457
291.4419, 1891.267
291.9240, 1907.527
292.4062, 1908.620
292.8883, 1908.512
293.3704, 1910.462
293.8525, 1915.473
294.3346, 1929.527
294.8167, 1953.630
295.2989, 1975.171
295.7810, 1978.540
296.2631, 1967.618
296.7452, 1955.980
297.2273, 1947.082
297.7094, 1941.565
298.1916, 1941.881
298.6737, 1948.197
299.1558, 1955.372
299.6379, 1957.780
300.1200, 1957.326
300.6021, 1958.635
301.0843, 1964.031
301.5664, 1971.817
302.0485, 1978.714
302.5306, 1984.889
303.0127, 1994.462
303.4948, 2012.045
303.9770, 2035.156
304.4591, 2060.073
304.9412, 2089.017
305.4233, 2116.373
305.9054, 2133.950
306.3875, 2142.642
306.8697, 2153.379
307.3518, 2177.017
307.8339, 2206.275
308.3160, 2231.207
308.7981, 2245.614
309.2802, 2257.490
309.7624, 2272.706
310.2445, 2290.718
310.7266, 2307.553
311.2087, 2326.073
311.6908, 2340.323
312.1729, 2344.130
312.6551, 2330.358
313.1372, 2311.873
313.6193, 2293.564
314.1014, 2275.791
314.5835, 2260.620
315.0656, 2249.342
315.5478, 2240.670
316.0299, 2233.656
316.5120, 2228.889
316.9941, 2224.637
317.4762, 2217.803
317.9583, 2210.424
318.4405, 2209.265
318.9226, 2219.147
319.4047, 2234.271
319.8868, 2251.424
320.3689, 2270.905
320.8510, 2291.051
321.3332, 2307.103
321.8153, 2323.052
322.2974, 2349.809
322.7795, 2396.000
323.2616, 2448.347
323.7437, 2500.971
324.2259, 2550.995
324.7080, 2605.489
325.1901, 2666.031
325.6722, 2731.502
326.1543, 2799.707
326.6364, 2861.315
327.1186, 2934.385
327.6007, 3026.580
328.0828, 3147.953
328.5649, 3264.361
329.0470, 3369.910
329.5291, 3472.432
330.0113, 3584.570
330.4934, 3709.610
330.9755, 3841.251
331.4576, 3981.800
331.9397, 4134.991
332.4218, 4272.486
332.9040, 4388.708
333.3861, 4493.731
333.8682, 4599.823
334.3503, 4706.763
334.8324, 4817.219
335.3145, 4933.325
335.7967, 5055.810
336.2788, 5180.734
336.7609, 5317.510
337.2430, 5444.438
337.7251, 5529.428
338.2072, 5562.877
338.6894, 5603.119
339.1715, 5667.792
339.6536, 5751.825
340.1357, 5815.601
340.6178, 5857.070
341.0999, 5886.827
341.5821, 5919.670
342.0642, 5955.787
342.5463, 5965.128
343.0284, 5935.287
343.5105, 5879.012
343.9926, 5834.939
344.4748, 5804.236
344.9569, 5770.953
345.4390, 5727.290
345.9211, 5672.246
346.4032, 5599.559
346.8853, 5507.226
347.3675, 5398.882
347.8496, 5282.973
348.3317, 5159.511
348.8138, 5022.576
349.2959, 4864.351
349.7780, 4692.633
350.2602, 4515.979
350.7423, 4334.577
351.2244, 4155.067
351.7065, 3976.916
352.1887, 3804.074
352.6708, 3654.895
353.1529, 3557.613
353.6350, 3481.294
354.1171, 3382.948
354.5992, 3253.952
355.0814, 3132.131
355.5635, 3047.224
356.0456, 2990.032
356.5277, 2944.362
357.0098, 2911.805
357.4919, 2882.109
357.9741, 2844.022
358.4562, 2796.842
358.9383, 2759.136
359.4204, 2746.171
359.9025, 2746.433
360.3846, 2747.088
360.8668, 2744.549
361.3489, 2741.039
361.8310, 2736.989
362.3131, 2732.499
362.7952, 2728.697
363.2773, 2723.334
363.7595, 2720.325
364.2416, 2722.418
364.7237, 2735.893
365.2058, 2748.145
365.6879, 2757.477
366.1700, 2764.035
366.6522, 2768.260
367.1343, 2769.501
367.6164, 2768.926
368.0985, 2766.892
368.5806, 2760.228
369.0627, 2757.003
369.5449, 2758.944
370.0270, 2764.083
370.5091, 2767.978
370.9912, 2768.995
371.4733, 2770.908
371.9554, 2773.583
372.4376, 2774.197
372.9197, 2787.724
373.4018, 2820.053
373.8839, 2859.544
374.3660, 2886.873
374.8481, 2893.576
375.3303, 2914.265
375.8124, 2963.129
376.2945, 3038.568
376.7766, 3108.054
377.2587, 3169.383
377.7408, 3229.274
378.2230, 3295.614
378.7051, 3367.969
379.1872, 3443.035
379.6693, 3522.893
380.1514, 3602.964
380.6335, 3662.132
381.1157, 3699.762
381.5978, 3738.152
382.0799, 3800.791
382.5620, 3880.433
383.0441, 3951.024
383.5262, 4011.025
384.0084, 4055.939
384.4905, 4073.618
384.9726, 4067.927
385.4547, 4060.338
385.9368, 4073.850
386.4189, 4090.029
386.9011, 4081.814
387.3832, 4044.801
387.8653, 3988.988
388.3474, 3917.593
388.8295, 3833.574
389.3116, 3743.867
389.7938, 3654.719
390.2759, 3560.289
390.7580, 3452.345
391.2401, 3330.276
391.7222, 3210.144
392.2043, 3104.019
392.6865, 3002.959
393.1686, 2895.775
393.6507, 2771.420
394.1328, 2650.512
394.6149, 2540.997
395.0970, 2442.025
395.5792, 2345.279
396.0613, 2247.485
396.5434, 2152.657
397.0255, 2061.719
397.5076, 1975.516
397.9897, 1894.736
398.4719, 1821.580
398.9540, 1754.036
399.4361, 1686.459
399.9182, 1611.641
400.4003, 1544.724
400.8824, 1492.289
401.3646, 1459.079
401.8467, 1425.773
402.3288, 1392.395
402.8109, 1359.012
403.2930, 1325.753
403.7751, 1292.248
404.2573, 1259.776
404.7394, 1227.869
405.2215, 1196.598
405.7036, 1171.307
406.1857, 1152.910
406.6678, 1137.910
407.1500, 1123.893
407.6321, 1110.861
408.1142, 1096.639
408.5963, 1080.119
409.0784, 1062.882
409.5605, 1049.390
410.0427, 1039.662
410.5248, 1030.438
411.0069, 1018.659
411.4890, 1005.519
411.9711, 994.4340
412.4532, 985.8547
412.9354, 979.0885
413.4175, 975.9272
413.8996, 974.4429
414.3817, 969.2219
414.8638, 951.8675
415.3459, 932.4934
415.8281, 923.1250
416.3102, 924.8659
416.7923, 926.8899
417.2744, 920.8646
417.7565, 911.3784
418.2386, 904.1479
418.7208, 906.3087
419.2029, 906.2338
419.6850, 896.1322
420.1671, 877.7016
420.6492, 863.0677
421.1313, 860.9622
421.6135, 860.7573
422.0956, 855.7707
422.5777, 840.9805
423.0598, 827.3154
423.5420, 814.2411
424.0241, 803.1948
424.5062, 797.5085
424.9883, 802.9532
425.4704, 807.4535
425.9525, 807.0712
426.4347, 800.5517
426.9168, 794.7078
427.3989, 789.5167
427.8810, 784.9551
428.3631, 780.9296
428.8452, 777.3691
429.3274, 774.5544
429.8095, 772.4272
430.2916, 771.1145
430.7737, 771.8972
431.2558, 775.2087
431.7379, 778.5820
432.2201, 779.2564
432.7022, 777.5898
433.1843, 778.5187
433.6664, 783.4749
434.1485, 789.7071
434.6306, 792.3706
435.1128, 791.9489
435.5949, 791.5728
436.0770, 795.0069
436.5591, 799.0643
437.0412, 796.4922
437.5233, 786.3192
438.0055, 776.8683
438.4876, 777.9627
438.9697, 784.1857
439.4518, 786.5852
439.9339, 775.6244
440.4160, 764.8188
440.8982, 763.8333
441.3803, 771.4500
441.8624, 779.6253
442.3445, 785.4523
442.8266, 790.1489
443.3087, 794.6368
443.7909, 799.8305
444.2730, 803.5785
444.7551, 805.4406
445.2372, 805.5570
445.7193, 804.2758
446.2014, 794.8360
446.6836, 790.7245
447.1657, 798.0887
447.6478, 820.5825
448.1299, 834.3009
448.6120, 835.3069
449.0941, 830.9454
449.5763, 827.3234
450.0584, 822.4476
450.5405, 824.0336
451.0226, 835.3561
451.5047, 853.6974
451.9868, 868.6517
452.4690, 880.2805
452.9511, 888.3908
453.4332, 889.6107
453.9153, 884.9766
454.3974, 890.4462
454.8795, 909.4848
455.3617, 931.9593
455.8438, 942.7609
456.3259, 943.8704
456.8080, 945.8517
457.2901, 954.5179
457.7722, 966.4951
458.2544, 976.8071
458.7365, 985.5459
459.2186, 992.9316
459.7007, 998.7007
460.1828, 1003.461
460.6649, 1008.286
461.1471, 1015.101
461.6292, 1019.476
462.1113, 1016.948
462.5934, 1009.828
463.0755, 1004.331
463.5576, 1004.079
464.0398, 1004.887
464.5219, 1005.721
465.0040, 1007.801
465.4861, 1004.564
465.9682, 990.8479
466.4503, 973.1985
466.9325, 958.2933
467.4146, 946.7830
467.8967, 937.4245
468.3788, 929.7057
468.8609, 923.8560
469.3430, 922.4155
469.8252, 928.5892
470.3073, 933.4649
470.7894, 931.2275
471.2715, 920.6934
471.7536, 909.8932
472.2357, 898.2314
472.7179, 888.0105
473.2000, 884.2061
473.6821, 886.7548
474.1642, 888.8535
474.6463, 885.5320
475.1284, 880.3294
475.6106, 884.7464
476.0927, 898.8474
476.5748, 913.4686
477.0569, 920.9496
477.5390, 923.8082
478.0211, 926.5986
478.5033, 930.8174
478.9854, 934.3608
479.4675, 933.6224
479.9496, 930.6570
480.4317, 930.4766
480.9138, 934.7594
481.3960, 943.0481
481.8781, 956.8283
482.3602, 977.2665
482.8423, 994.7056
483.3244, 1002.178
483.8065, 1007.614
484.2887, 1018.251
484.7708, 1040.326
485.2529, 1061.333
485.7350, 1079.843
486.2171, 1096.370
486.6992, 1112.476
487.1814, 1124.431
487.6635, 1141.295
488.1456, 1169.094
488.6277, 1211.156
489.1098, 1245.318
489.5919, 1269.907
490.0741, 1290.214
490.5562, 1311.887
491.0383, 1334.937
491.5204, 1362.520
492.0026, 1397.490
492.4847, 1436.546
492.9668, 1472.383
493.4489, 1504.901
493.9310, 1534.865
494.4131, 1562.881
494.8953, 1588.438
495.3774, 1609.964
495.8595, 1627.435
496.3416, 1641.239
496.8237, 1654.171
497.3058, 1663.629
497.7880, 1665.471
498.2701, 1650.322
498.7522, 1633.756
499.2343, 1626.987
499.7164, 1628.733
500.1985, 1622.540
500.6807, 1603.094
501.1628, 1574.625
501.6449, 1538.580
502.1270, 1485.987
502.6091, 1441.150
503.0912, 1407.497
503.5734, 1380.484
504.0555, 1352.038
504.5376, 1320.121
505.0197, 1291.587
505.5018, 1269.062
505.9839, 1252.176
506.4661, 1234.402
506.9482, 1213.940
507.4303, 1198.017
507.9124, 1195.435
508.3945, 1205.020
508.8766, 1209.618
509.3588, 1206.170
509.8409, 1199.619
510.3230, 1196.822
510.8051, 1197.140
511.2872, 1198.085
511.7693, 1197.506
512.2515, 1197.412
512.7336, 1198.998
513.2157, 1202.505
513.6978, 1211.032
514.1799, 1228.231
514.6620, 1250.504
515.1442, 1275.148
515.6263, 1305.138
516.1084, 1331.185
516.5905, 1345.524
517.0726, 1354.565
517.5547, 1370.649
518.0369, 1401.990
518.5190, 1434.306
519.0011, 1462.748
519.4832, 1486.751
519.9653, 1517.231
520.4474, 1555.447
520.9296, 1598.091
521.4117, 1643.176
521.8938, 1690.581
522.3759, 1741.015
522.8580, 1794.838
523.3401, 1851.406
523.8223, 1910.358
524.3044, 1971.232
524.7865, 2036.628
525.2686, 2108.419
525.7507, 2184.693
526.2328, 2259.848
526.7150, 2333.373
527.1971, 2409.443
527.6792, 2488.364
528.1613, 2572.251
528.6434, 2667.772
529.1255, 2777.876
529.6077, 2893.062
530.0898, 3007.759
530.5719, 3122.784
531.0540, 3242.277
531.5361, 3367.849
532.0182, 3496.686
532.5004, 3624.211
532.9825, 3751.193
533.4646, 3891.726
533.9467, 4059.408
534.4288, 4231.654
534.9109, 4398.535
535.3931, 4556.508
535.8752, 4715.457
536.3573, 4878.693
536.8394, 5039.235
537.3215, 5187.528
537.8036, 5322.051
538.2858, 5449.000
538.7679, 5572.236
539.2500, 5689.786
539.7321, 5796.115
540.2142, 5891.233
540.6964, 5978.508
541.1785, 6070.821
541.6606, 6155.381
542.1427, 6205.347
542.6248, 6216.131
543.1069, 6196.953
543.5891, 6147.132
544.0712, 6074.109
544.5533, 5989.564
545.0354, 5898.182
545.5175, 5795.947
545.9996, 5680.828
546.4818, 5552.504
546.9639, 5415.128
547.4460, 5248.003
547.9281, 5090.182
548.4102, 4960.854
548.8923, 4872.547
549.3745, 4773.466
549.8566, 4650.307
550.3387, 4529.267
550.8208, 4444.671
551.3029, 4406.915
551.7850, 4357.997
552.2672, 4278.952
552.7493, 4188.289
553.2314, 4141.097
553.7135, 4137.140
554.1956, 4136.951
554.6777, 4114.012
555.1599, 4078.856
555.6420, 4055.729
556.1241, 4045.566
556.6062, 4041.592
557.0883, 4051.261
557.5704, 4059.372
558.0526, 4044.077
558.5347, 3982.396
559.0168, 3922.505
559.4989, 3897.818
559.9810, 3892.215
560.4631, 3872.390
560.9453, 3833.018
561.4274, 3775.246
561.9095, 3692.926
562.3916, 3584.575
562.8737, 3485.925
563.3558, 3406.071
563.8380, 3327.234
564.3201, 3238.975
564.8022, 3142.238
565.2843, 3032.567
565.7664, 2903.242
566.2485, 2772.054
566.7307, 2667.055
567.2128, 2587.288
567.6949, 2509.656
568.1770, 2423.225
568.6591, 2335.690
569.1412, 2260.318
569.6234, 2196.263
570.1055, 2133.643
570.5876, 2061.859
571.0697, 1991.486
571.5518, 1933.725
572.0339, 1890.431
572.5161, 1853.186
572.9982, 1825.482
573.4803, 1798.457
573.9624, 1763.488
574.4445, 1706.144
574.9266, 1655.384
575.4088, 1617.058
575.8909, 1587.331
576.3730, 1556.333
576.8551, 1521.346
577.3372, 1490.630
577.8193, 1470.208
578.3015, 1459.553
578.7836, 1434.982
579.2657, 1393.906
579.7478, 1352.046
580.2299, 1324.665
580.7120, 1308.586
581.1942, 1290.466
581.6763, 1268.304
582.1584, 1243.864
582.6405, 1217.557
583.1226, 1190.653
583.6047, 1166.632
584.0869, 1149.572
584.5690, 1133.566
585.0511, 1115.097
585.5332, 1094.469
586.0153, 1073.359
586.4974, 1051.353
586.9796, 1029.812
587.4617, 1008.599
587.9438, 986.4341
588.4259, 969.5494
588.9080, 961.5992
589.3901, 955.7336
589.8723, 945.6152
590.3544, 930.0914
590.8365, 913.8293
591.3186, 895.8150
591.8007, 879.1858
592.2828, 874.5145
592.7650, 880.9595
593.2471, 879.7507
593.7292, 855.8198
594.2113, 821.5254
594.6934, 798.0729
595.1755, 785.3069
595.6577, 779.5220
596.1398, 785.6375
596.6219, 793.5096
597.1040, 792.0756
597.5862, 776.9024
598.0683, 762.6782
598.5504, 757.6124
599.0325, 755.4887
599.5146, 749.4624
599.9968, 731.5430
600.4789, 718.4755
600.9610, 714.6761
601.4431, 716.5264
601.9252, 712.0219
602.4073, 697.3596
602.8895, 687.4722
603.3716, 691.6420
603.8537, 707.1467
604.3358, 709.0555
604.8179, 696.3145
605.3000, 681.6572
605.7822, 675.7289
606.2643, 676.0013
606.7464, 676.9450
607.2285, 678.2275
607.7106, 677.9059
608.1927, 673.8466
608.6749, 667.1905
609.1570, 659.7223
609.6391, 647.9881
610.1212, 639.6959
610.6033, 638.7130
611.0854, 643.5892
611.5676, 649.0880
612.0497, 660.6384
612.5318, 666.1012
613.0139, 659.1588
613.4960, 638.5130
613.9781, 627.8546
614.4603, 629.6853
614.9424, 635.2422
615.4245, 638.3793
615.9066, 639.1475
616.3887, 637.9821
616.8708, 634.2761
617.3530, 631.0179
617.8351, 633.9768
618.3172, 640.4589
618.7993, 643.5273
619.2814, 637.5316
619.7635, 630.7671
620.2457, 630.3581
620.7278, 634.6774
621.2099, 638.9772
621.6920, 643.1307
622.1741, 645.3293
622.6563, 643.7778
623.1384, 637.8453
623.6205, 634.2189
624.1026, 633.5375
624.5847, 634.6686
625.0668, 637.1371
625.5490, 641.2672
626.0311, 645.5602
626.5132, 650.1393
626.9953, 654.5756
627.4774, 658.8795
627.9595, 662.8270
628.4417, 664.7409
628.9238, 664.6320
629.4059, 661.5554
629.8880, 649.8818
630.3701, 633.4310
630.8522, 623.8145
631.3344, 631.4248
631.8165, 644.3580
632.2986, 657.4274
632.7807, 670.0564
633.2628, 677.0661
633.7449, 670.9587
634.2271, 663.7465
634.7092, 661.9465
635.1913, 666.8099
635.6734, 673.9584
636.1555, 685.3221
636.6376, 696.4009
637.1198, 702.0831
637.6019, 701.9592
638.0840, 700.2856
638.5661, 697.1136
639.0482, 693.8961
639.5303, 692.9506
640.0125, 694.1293
640.4946, 696.8472
640.9767, 700.7873
641.4588, 706.1737
641.9409, 716.1981
642.4230, 729.0136
642.9052, 735.3627
643.3873, 720.6812
643.8694, 706.8488
644.3515, 708.0616
644.8336, 729.8630
645.3157, 744.5182
645.7979, 746.7167
646.2800, 745.1530
646.7621, 745.4402
647.2442, 747.4682
647.7263, 752.1517
648.2084, 760.3866
648.6906, 769.8320
649.1727, 776.2520
649.6548, 780.2432
650.1369, 786.1844
650.6190, 796.4886
651.1011, 807.8176
651.5833, 814.5118
652.0654, 818.0942
652.5475, 823.3458
653.0296, 838.3046
653.5117, 850.9566
653.9938, 850.0636
654.4760, 836.2082
654.9581, 830.7538
655.4402, 845.2968
655.9223, 863.7278
656.4044, 877.8332
656.8865, 885.7049
657.3687, 897.0265
657.8508, 912.9769
658.3329, 930.2973
658.8150, 943.8813
659.2971, 953.9905
659.7792, 972.9319
660.2614, 1005.736
660.7435, 1039.890
661.2256, 1052.169
661.7077, 1052.089
662.1898, 1064.708
662.6719, 1109.990
663.1541, 1161.744
663.6362, 1200.943
664.1183, 1231.507
664.6004, 1265.595
665.0825, 1310.856
665.5646, 1357.083
666.0468, 1400.737
666.5289, 1441.497
667.0110, 1480.454
667.4931, 1514.321
667.9752, 1552.145
668.4573, 1601.878
668.9395, 1664.428
669.4216, 1717.569
669.9037, 1759.586
670.3858, 1796.241
670.8679, 1834.539
671.3500, 1872.174
671.8322, 1902.943
672.3143, 1925.394
672.7964, 1940.844
673.2785, 1946.501
673.7606, 1946.578
674.2427, 1947.800
674.7249, 1961.659
675.2070, 1966.774
675.6891, 1954.388
676.1712, 1928.008
676.6533, 1899.742
677.1354, 1870.296
677.6176, 1838.456
678.0997, 1806.711
678.5818, 1773.228
679.0639, 1719.784
679.5460, 1644.623
680.0281, 1569.026
680.5103, 1508.061
680.9924, 1457.259
681.4745, 1410.201
681.9566, 1366.272
682.4387, 1319.750
682.9208, 1260.347
683.4030, 1198.537
683.8851, 1145.121
684.3672, 1104.630
684.8493, 1067.591
685.3314, 1030.706
685.8135, 996.4446
686.2957, 967.1364
686.7778, 944.3812
687.2599, 923.8629
687.7420, 905.4905
688.2241, 888.7133
688.7062, 872.5347
689.1884, 856.8261
689.6705, 841.4349
690.1526, 826.3023
690.6347, 811.4174
691.1168, 796.6946
691.5989, 782.1776
692.0811, 768.0707
692.5632, 750.8260
693.0453, 736.9280
693.5274, 733.0199
694.0095, 739.5717
694.4916, 743.3998
694.9738, 740.5385
695.4559, 734.6096
695.9380, 727.0756
696.4201, 717.1720
696.9022, 708.8195
697.3843, 701.9821
697.8665, 696.8945
698.3486, 694.1219
698.8307, 693.5280
699.3128, 693.9752
699.7949, 695.7446
700.2770, 696.7986
700.7592, 694.2495
701.2413, 689.3362
701.7234, 684.4690
702.2055, 681.3909
702.6876, 677.2900
703.1697, 668.2306
703.6519, 657.3600
704.1340, 651.4502
704.6161, 655.7943
705.0982, 660.5609
705.5803, 664.3700
706.0624, 667.2116
706.5446, 669.6237
707.0267, 672.3536
707.5088, 671.0620
707.9909, 659.8083
708.4730, 643.1401
708.9551, 640.0267
709.4373, 649.6367
709.9194, 659.8274
710.4015, 661.7772
710.8836, 659.6961
711.3657, 656.3619
711.8478, 651.5972
712.3300, 651.7033
712.8121, 667.7095
713.2942, 683.9421
713.7763, 687.0768
714.2584, 667.1110
714.7405, 655.9346
715.2227, 656.2040
715.7048, 661.5065
716.1869, 665.1182
716.6690, 667.0615
717.1511, 667.4180
717.6332, 666.0682
718.1154, 663.5064
718.5975, 660.0414
719.0796, 655.9328
719.5617, 651.5734
720.0438, 644.0999
720.5259, 640.0102
721.0081, 647.1561
721.4902, 660.7472
721.9723, 669.3963
722.4544, 665.3474
722.9365, 661.4081
723.4186, 660.7797
723.9008, 662.7721
724.3829, 663.5095
724.8650, 662.4111
725.3471, 662.2315
725.8292, 665.9592
726.3113, 671.5546
726.7935, 669.5658
727.2756, 660.4841
727.7577, 651.8986
728.2398, 648.8983
728.7219, 649.5632
729.2040, 652.5352
729.6862, 657.8046
730.1683, 662.9255
730.6504, 666.7767
731.1325, 670.2556
731.6146, 674.3470
732.0967, 680.6038
732.5789, 682.8243
733.0610, 679.1490
733.5431, 674.2499
734.0252, 673.1168
734.5073, 675.6486
734.9894, 678.5290
735.4716, 681.3848
735.9537, 684.2715
736.4358, 687.7087
736.9179, 691.1776
737.4000, 693.4125
737.8821, 692.5751
738.3643, 692.7644
738.8464, 697.8507
739.3286, 705.0929
739.8107, 709.4771
740.2928, 707.5356
740.7749, 706.0311
741.2570, 704.5617
741.7391, 704.5612
742.2213, 711.3273
742.7034, 725.9642
743.1855, 739.1712
743.6676, 747.7216
744.1497, 752.6216
744.6318, 754.5728
745.1140, 754.2949
745.5961, 755.4725
746.0782, 760.1865
746.5603, 767.1428
747.0424, 776.3926
747.5245, 787.5595
748.0067, 797.5845
748.4888, 804.1967
748.9709, 810.9501
749.4530, 818.7271
749.9351, 827.4187
750.4172, 841.5146
750.8994, 863.4050
751.3815, 882.8455
751.8636, 891.5193
752.3457, 891.5606
752.8278, 891.5848
753.3099, 892.0656
753.7921, 891.3765
754.2742, 886.4136
754.7563, 880.5391
755.2384, 878.3234
755.7205, 882.9337
756.2026, 882.7979
756.6848, 868.7290
757.1669, 852.3004
757.6490, 844.5925
758.1311, 854.0121
758.6132, 847.7911
759.0953, 819.2425
759.5775, 785.0286
760.0596, 768.2579
760.5417, 766.3193
761.0238, 762.0031
761.5059, 751.3732
761.9880, 738.0403
762.4702, 723.1781
762.9523, 708.7298
763.4344, 698.1074
763.9165, 696.2999
764.3986, 694.0599
764.8807, 688.1247
765.3629, 680.1772
765.8450, 673.6594
766.3271, 669.3804
766.8092, 664.3466
767.2913, 656.9360
767.7734, 649.3267
768.2556, 648.9814
768.7377, 654.9940
769.2198, 658.4895
769.7019, 653.9667
770.1840, 646.5571
770.6661, 640.7419
771.1483, 636.8792
771.6304, 636.0898
772.1125, 640.7987
772.5946, 646.7552
773.0767, 653.5950
773.5588, 660.7103
774.0410, 663.7795
774.5231, 661.0739
775.0052, 658.1216
775.4873, 657.8169
775.9694, 659.1331
776.4515, 655.0937
776.9337, 645.9717
777.4158, 639.3708
777.8979, 643.0957
778.3800, 650.5258
778.8621, 654.0633
779.3442, 653.4808
779.8264, 651.7266
780.3085, 645.6600
780.7906, 642.4183
781.2727, 648.9531
781.7548, 667.4362
782.2369, 673.8950
782.7191, 663.9927
783.2012, 651.1674
783.6833, 643.8644
784.1654, 641.7139
784.6475, 642.9032
785.1296, 647.5801
785.6118, 651.1723
786.0939, 647.9323
786.5760, 642.3809
787.0581, 640.6100
787.5402, 644.1459
788.0223, 646.6630
788.5045, 645.3310
788.9866, 642.4611
789.4687, 639.4673
789.9508, 635.1963
790.4329, 634.3060
790.9150, 637.3820
791.3972, 642.5643
791.8793, 649.6281
792.3614, 657.6339
792.8435, 661.2728
793.3256, 659.2770
793.8077, 656.4152
794.2899, 655.4229
794.7720, 656.7821
795.2541, 661.8687
795.7362, 675.1503
796.2183, 683.1998
796.7004, 677.9109
797.1826, 668.9386
797.6647, 666.1575
798.1468, 672.4780
798.6289, 674.9477
799.1110, 672.3159
799.5931, 666.2426
800.0753, 655.4990
800.5574, 642.7389
801.0395, 638.3508
801.5216, 647.4611
802.0037, 658.0246
802.4858, 658.4360
802.9680, 654.6484
803.4501, 654.6305
803.9322, 665.9301
804.4143, 673.7515
804.8964, 674.9312
805.3785, 673.2473
805.8607, 674.6523
806.3428, 679.8264
806.8249, 682.9274
807.3070, 682.2932
807.7891, 680.5037
808.2712, 681.8193
808.7534, 685.1887
809.2355, 687.7727
809.7176, 687.3828
810.1997, 687.7406
810.6818, 690.6091
811.1639, 695.7389
811.6461, 702.8582
812.1282, 716.4878
812.6103, 724.8974
813.0924, 724.3979
813.5745, 720.0016
814.0566, 724.0074
814.5388, 736.2455
815.0209, 741.7064
815.5030, 733.2134
815.9851, 721.0797
816.4672, 717.6705
816.9493, 721.2637
817.4315, 728.1039
817.9136, 740.7835
818.3957, 751.8401
818.8778, 756.7963
819.3599, 758.5321
819.8420, 764.4627
820.3242, 778.6899
820.8063, 786.7086
821.2884, 783.6959
821.7705, 774.8889
822.2526, 769.6703
822.7347, 768.3302
823.2169, 772.7289
823.6990, 787.4429
824.1811, 803.1688
824.6632, 810.6648
825.1453, 812.7105
825.6274, 815.7361
826.1096, 825.3943
826.5917, 831.4011
827.0738, 829.2650
827.5559, 823.0789
828.0380, 822.4142
828.5201, 827.6071
829.0023, 836.8401
829.4844, 851.1766
829.9665, 866.7181
830.4486, 873.8380
830.9307, 875.9167
831.4128, 882.5295
831.8950, 907.3735
832.3771, 928.2908
832.8592, 927.2064
833.3413, 913.7515
833.8234, 912.6734
834.3055, 934.7036
834.7877, 952.1313
835.2698, 958.6220
835.7519, 958.8643
836.2340, 962.8546
836.7161, 970.6336
837.1982, 984.5195
837.6804, 1009.571
838.1625, 1034.746
838.6446, 1045.019
839.1267, 1046.156
839.6088, 1050.355
840.0909, 1065.958
840.5731, 1080.468
841.0552, 1085.991
841.5373, 1089.746
842.0194, 1108.193
842.5015, 1145.813
842.9836, 1177.530
843.4658, 1195.876
843.9479, 1208.057
844.4300, 1224.068
844.9121, 1244.470
845.3942, 1271.115
845.8763, 1309.185
846.3585, 1347.769
846.8406, 1380.340
847.3227, 1409.098
847.8048, 1438.255
848.2869, 1466.204
848.7690, 1498.178
849.2512, 1536.450
849.7333, 1576.877
850.2154, 1608.171
850.6975, 1631.744
851.1796, 1666.636
851.6617, 1721.403
852.1439, 1781.349
852.6260, 1830.240
853.1081, 1873.921
853.5902, 1922.020
854.0723, 1982.264
854.5544, 2041.515
855.0366, 2096.010
855.5187, 2149.475
856.0008, 2207.332
856.4829, 2270.763
856.9650, 2333.281
857.4471, 2392.721
857.9293, 2452.512
858.4114, 2517.754
858.8935, 2586.816
859.3756, 2658.122
859.8577, 2736.282
860.3398, 2804.167
860.8220, 2841.032
861.3041, 2867.037
861.7862, 2908.227
862.2683, 2981.237
862.7504, 3036.034
863.2325, 3065.736
863.7147, 3083.968
864.1968, 3109.139
864.6789, 3137.787
865.1610, 3150.213
865.6431, 3140.815
866.1252, 3128.027
866.6074, 3133.686
867.0895, 3141.844
867.5716, 3134.656
868.0537, 3102.831
868.5358, 3069.408
869.0179, 3040.506
869.5001, 3006.392
869.9822, 2957.868
870.4643, 2893.589
870.9464, 2825.239
871.4285, 2751.525
871.9106, 2686.945
872.3928, 2653.292
872.8749, 2632.974
873.3570, 2600.698
873.8391, 2551.695
874.3212, 2501.022
874.8033, 2449.073
875.2855, 2400.529
875.7676, 2358.360
876.2497, 2323.369
876.7318, 2288.736
877.2139, 2254.176
877.6960, 2221.240
878.1782, 2190.590
878.6603, 2162.657
879.1424, 2139.524
879.6245, 2120.756
880.1067, 2099.392
880.5888, 2064.423
881.0709, 2031.543
881.5530, 2012.944
882.0352, 2009.621
882.5173, 1999.089
882.9994, 1978.843
883.4815, 1957.248
883.9636, 1936.632
884.4457, 1918.102
884.9279, 1908.554
885.4100, 1906.568
885.8921, 1901.635
886.3742, 1886.197
886.8563, 1866.703
887.3384, 1844.094
887.8206, 1820.357
888.3027, 1805.329
888.7848, 1804.101
889.2669, 1806.030
889.7490, 1811.376
890.2311, 1816.529
890.7133, 1806.372
891.1954, 1782.602
891.6775, 1765.194
892.1596, 1767.491
892.6417, 1773.370
893.1238, 1761.419
893.6060, 1741.421
894.0881, 1733.255
894.5702, 1762.230
895.0523, 1777.992
895.5344, 1767.870
896.0165, 1744.386
896.4987, 1727.931
896.9808, 1718.751
897.4629, 1712.323
897.9450, 1707.762
898.4271, 1705.507
898.9092, 1708.662
899.3914, 1713.782
899.8735, 1714.718
900.3556, 1705.123
900.8377, 1700.562
901.3198, 1709.571
901.8019, 1722.409
902.2841, 1731.808
902.7662, 1738.639
903.2483, 1735.152
903.7304, 1719.028
904.2125, 1702.554
904.6946, 1701.829
905.1768, 1708.556
905.6589, 1706.753
906.1410, 1692.753
906.6231, 1686.214
907.1052, 1706.285
907.5873, 1728.178
908.0695, 1734.985
908.5516, 1724.988
909.0337, 1715.563
909.5158, 1705.789
909.9979, 1700.957
910.4800, 1706.639
910.9622, 1719.391
911.4443, 1735.000
911.9264, 1751.987
912.4085, 1761.967
912.8906, 1750.666
913.3727, 1740.596
913.8549, 1745.902
914.3370, 1763.920
914.8191, 1775.466
915.3012, 1778.110
915.7833, 1782.639
916.2654, 1794.009
916.7476, 1808.485
917.2297, 1817.133
917.7118, 1821.604
918.1939, 1827.581
918.6760, 1837.210
919.1581, 1849.487
919.6403, 1868.142
920.1224, 1888.006
920.6045, 1897.921
921.0866, 1891.346
921.5687, 1892.078
922.0508, 1904.183
922.5330, 1922.908
923.0151, 1943.839
923.4972, 1965.429
923.9793, 1983.295
924.4614, 1995.320
924.9435, 2006.863
925.4257, 2021.017
925.9078, 2036.407
926.3899, 2051.612
926.8720, 2067.023
927.3541, 2080.027
927.8362, 2087.663
928.3184, 2100.353
928.8005, 2132.042
929.2826, 2175.808
929.7647, 2208.848
930.2468, 2230.065
930.7289, 2252.002
931.2111, 2283.117
931.6932, 2317.464
932.1753, 2352.190
932.6574, 2386.822
933.1395, 2420.103
933.6216, 2449.164
934.1038, 2484.024
934.5859, 2531.310
935.0680, 2585.826
935.5501, 2629.982
936.0322, 2667.108
936.5143, 2712.241
936.9965, 2778.488
937.4786, 2848.768
937.9607, 2909.603
938.4428, 2967.226
938.9249, 3041.031
939.4070, 3139.051
939.8892, 3230.800
940.3713, 3309.833
940.8534, 3385.302
941.3355, 3464.436
941.8176, 3553.412
942.2997, 3670.886
942.7819, 3831.740
943.2640, 3990.092
943.7461, 4117.601
944.2282, 4230.888
944.7103, 4342.545
945.1924, 4446.656
945.6746, 4572.250
946.1567, 4722.564
946.6388, 4879.953
947.1209, 5032.455
947.6030, 5180.801
948.0851, 5327.188
948.5673, 5471.994
949.0494, 5619.726
949.5315, 5789.388
950.0136, 5945.880
950.4957, 6057.548
950.9778, 6131.443
951.4600, 6229.481
951.9421, 6359.095
952.4242, 6482.882
952.9063, 6586.536
953.3884, 6674.536
953.8705, 6748.863
954.3527, 6813.937
954.8348, 6881.500
955.3169, 6952.761
955.7990, 7030.873
956.2811, 7120.903
956.7632, 7217.290
957.2454, 7307.227
957.7275, 7385.989
958.2096, 7488.113
958.6917, 7621.141
959.1738, 7767.147
959.6559, 7901.759
960.1381, 8036.004
960.6202, 8191.158
961.1023, 8375.193
961.5844, 8552.567
962.0665, 8683.988
962.5486, 8826.659
963.0308, 9021.057
963.5129, 9268.478
963.9950, 9489.441
964.4771, 9684.831
964.9592, 9859.044
965.4413, 10011.76
965.9235, 10151.84
966.4056, 10295.86
966.8877, 10439.60
967.3698, 10569.33
967.8519, 10688.67
968.3340, 10782.93
968.8162, 10859.03
969.2983, 10905.14
969.7804, 10887.74
970.2625, 10808.23
970.7446, 10706.63
971.2267, 10591.60
971.7089, 10460.79
972.1910, 10322.62
972.6731, 10162.29
973.1552, 9960.681
973.6373, 9701.792
974.1194, 9415.974
974.6016, 9098.042
975.0837, 8767.023
975.5658, 8432.869
976.0479, 8103.030
976.5300, 7805.139
977.0121, 7540.946
977.4943, 7278.624
977.9764, 6977.631
978.4585, 6684.461
978.9406, 6443.401
979.4227, 6252.991
979.9048, 6052.124
980.3870, 5824.694
980.8691, 5620.313
981.3512, 5457.628
981.8333, 5328.524
982.3154, 5226.635
982.7975, 5143.084
983.2797, 5049.870
983.7618, 4925.263
984.2439, 4804.512
984.7260, 4708.209
985.2081, 4623.609
985.6902, 4532.905
986.1724, 4433.343
986.6545, 4337.169
987.1366, 4245.607
987.6187, 4158.565
988.1008, 4080.200
988.5829, 4004.978
989.0651, 3920.545
989.5472, 3825.857
990.0293, 3739.835
990.5114, 3683.083
990.9935, 3622.322
991.4756, 3539.476
991.9578, 3439.700
992.4399, 3359.755
992.9220, 3299.778
993.4041, 3240.938
993.8862, 3178.293
994.3683, 3109.384
994.8505, 3019.737
995.3326, 2923.181
995.8147, 2847.447
996.2968, 2820.278
996.7789, 2783.647
997.2610, 2729.652
997.7432, 2671.203
998.2253, 2624.709
998.7074, 2588.543
999.1895, 2548.904
999.6716, 2504.034
1000.154, 2459.459
1000.636, 2416.368
1001.118, 2376.833
1001.600, 2341.869
1002.082, 2311.864
1002.564, 2286.687
1003.046, 2267.165
1003.529, 2249.480
1004.011, 2233.397
1004.493, 2216.571
1004.975, 2191.366
1005.457, 2160.797
1005.939, 2132.760
1006.421, 2107.606
1006.903, 2088.746
1007.385, 2079.606
1007.868, 2075.999
1008.350, 2073.567
1008.832, 2072.325
1009.314, 2072.901
1009.796, 2075.918
1010.278, 2076.443
1010.760, 2065.938
1011.242, 2052.480
1011.725, 2044.320
1012.207, 2042.465
1012.689, 2047.139
1013.171, 2064.352
1013.653, 2078.096
1014.135, 2080.862
1014.617, 2076.330
1015.099, 2077.685
1015.581, 2084.172
1016.064, 2091.684
1016.546, 2098.395
1017.028, 2105.636
1017.510, 2117.211
1017.992, 2128.645
1018.474, 2132.104
1018.956, 2122.265
1019.438, 2121.026
1019.921, 2131.472
1020.403, 2143.396
1020.885, 2144.035
1021.367, 2139.627
1021.849, 2139.374
1022.331, 2144.268
1022.813, 2157.637
1023.295, 2190.653
1023.778, 2221.953
1024.260, 2243.218
1024.742, 2256.079
1025.224, 2262.822
1025.706, 2264.194
1026.188, 2275.830
1026.670, 2304.742
1027.152, 2343.734
1027.634, 2386.688
1028.117, 2434.863
1028.599, 2491.800
1029.081, 2566.337
1029.563, 2633.465
1030.045, 2689.334
1030.527, 2745.143
1031.009, 2810.584
1031.491, 2884.244
1031.974, 2955.953
1032.456, 3027.271
1032.938, 3112.498
1033.420, 3237.722
1033.902, 3358.466
1034.384, 3445.364
1034.866, 3512.291
1035.348, 3602.500
1035.830, 3716.116
1036.313, 3828.566
1036.795, 3932.673
1037.277, 4031.706
1037.759, 4129.394
1038.241, 4222.984
1038.723, 4307.637
1039.205, 4382.501
1039.687, 4447.215
1040.169, 4505.571
1040.652, 4549.004
1041.134, 4569.601
1041.616, 4570.669
1042.098, 4571.963
1042.580, 4570.419
1043.062, 4547.404
1043.544, 4495.053
1044.026, 4416.375
1044.509, 4303.123
1044.991, 4167.419
1045.473, 4030.136
1045.955, 3892.502
1046.437, 3748.727
1046.919, 3597.635
1047.401, 3441.510
1047.883, 3276.348
1048.365, 3111.140
1048.848, 2958.021
1049.330, 2818.229
1049.812, 2682.651
1050.294, 2545.583
1050.776, 2421.150
1051.258, 2316.784
1051.740, 2229.486
1052.222, 2150.660
1052.704, 2080.324
1053.187, 2017.047
1053.669, 1964.979
1054.151, 1914.622
1054.633, 1856.890
1055.115, 1800.474
1055.597, 1757.933
1056.079, 1733.008
1056.561, 1698.258
1057.044, 1650.683
1057.526, 1606.646
1058.008, 1585.035
1058.490, 1572.694
1058.972, 1555.684
1059.454, 1533.433
1059.936, 1509.947
1060.418, 1480.969
1060.901, 1460.336
1061.383, 1455.646
1061.865, 1456.081
1062.347, 1436.210
1062.829, 1402.812
1063.311, 1377.217
1063.793, 1366.800
1064.275, 1358.949
1064.757, 1347.436
1065.240, 1335.978
1065.722, 1327.856
1066.204, 1323.421
1066.686, 1313.816
1067.168, 1298.707
1067.650, 1287.354
1068.132, 1291.975
1068.614, 1297.398
1069.096, 1284.606
1069.579, 1261.406
1070.061, 1248.785
1070.543, 1256.708
1071.025, 1259.345
1071.507, 1252.568
1071.989, 1244.346
1072.471, 1246.981
1072.953, 1254.665
1073.436, 1253.092
1073.918, 1240.760
1074.400, 1230.143
1074.882, 1226.675
1075.364, 1226.442
1075.846, 1228.072
1076.328, 1231.428
1076.810, 1236.527
1077.292, 1243.150
1077.775, 1249.051
1078.257, 1252.660
1078.739, 1257.219
1079.221, 1265.631
1079.703, 1276.286
1080.185, 1288.329
1080.667, 1303.430
1081.149, 1310.590
1081.631, 1307.828
1082.114, 1306.452
1082.596, 1315.502
1083.078, 1330.145
1083.560, 1344.482
1084.042, 1357.823
1084.524, 1368.068
1085.006, 1370.903
1085.488, 1376.023
1085.971, 1386.872
1086.453, 1397.386
1086.935, 1402.979
1087.417, 1401.328
1087.899, 1378.713
1088.381, 1333.013
1088.863, 1292.105
1089.345, 1276.935
1089.828, 1266.803
1090.310, 1250.464
1090.792, 1229.081
1091.274, 1207.387
1091.756, 1185.217
1092.238, 1171.883
1092.720, 1172.381
1093.202, 1178.041
1093.684, 1184.578
1094.167, 1189.071
1094.649, 1187.470
1095.131, 1177.755
1095.613, 1166.026
1096.095, 1150.028
1096.577, 1139.732
1097.059, 1146.379
1097.541, 1160.986
1098.024, 1167.127
1098.506, 1166.531
1098.988, 1164.265
1099.470, 1161.760
1099.952, 1157.586
1100.434, 1148.369
1100.916, 1141.668
1101.398, 1151.338
1101.880, 1172.536
1102.363, 1179.458
1102.845, 1170.295
1103.327, 1160.605
1103.809, 1156.585
1104.291, 1157.879
1104.773, 1168.544
1105.255, 1183.717
1105.737, 1184.447
1106.219, 1170.599
1106.702, 1165.431
1107.184, 1177.023
1107.666, 1190.930
1108.148, 1192.228
1108.630, 1189.452
1109.112, 1192.669
1109.594, 1204.752
1110.076, 1209.384
1110.559, 1204.626
1111.041, 1200.311
1111.523, 1202.313
1112.005, 1206.944
1112.487, 1207.020
1112.969, 1205.198
1113.451, 1207.061
1113.933, 1221.611
1114.416, 1228.127
1114.898, 1221.566
1115.380, 1213.817
1115.862, 1217.421
1116.344, 1228.656
1116.826, 1234.856
1117.308, 1235.996
1117.790, 1235.270
1118.272, 1229.949
1118.755, 1228.455
1119.237, 1236.372
1119.719, 1247.720
1120.201, 1251.291
1120.683, 1247.774
1121.165, 1244.671
1121.647, 1242.951
1122.129, 1243.272
1122.611, 1248.562
1123.094, 1254.016
1123.576, 1254.648
1124.058, 1251.570
1124.540, 1255.077
1125.022, 1266.154
1125.504, 1271.075
1125.986, 1262.952
1126.468, 1252.716
1126.951, 1252.566
1127.433, 1257.603
1127.915, 1261.926
1128.397, 1264.855
1128.879, 1266.168
1129.361, 1265.780
1129.843, 1264.102
1130.325, 1262.542
1130.807, 1258.967
1131.290, 1243.722
1131.772, 1223.767
1132.254, 1216.242
1132.736, 1244.591
1133.218, 1258.051
1133.700, 1248.238
1134.182, 1231.240
1134.664, 1224.731
1135.146, 1223.221
1135.629, 1204.968
1136.111, 1172.302
1136.593, 1148.111
1137.075, 1151.977
1137.557, 1156.266
1138.039, 1153.990
1138.521, 1145.966
1139.003, 1131.117
1139.486, 1111.034
1139.968, 1095.766
1140.450, 1087.050
1140.932, 1080.886
1141.414, 1079.882
1141.896, 1075.593
1142.378, 1062.049
1142.860, 1040.957
1143.343, 1018.086
1143.825, 993.2973
1144.307, 972.4659
1144.789, 956.8505
1145.271, 947.1976
1145.753, 951.2756
1146.235, 957.3257
1146.717, 951.0742
1147.199, 930.7345
1147.682, 919.3233
1148.164, 918.2175
1148.646, 914.1053
1149.128, 896.2820
1149.610, 877.3105
1150.092, 876.0943
1150.574, 882.8885
1151.056, 880.5925
1151.538, 857.2209
1152.021, 846.5595
1152.503, 851.6270
1152.985, 859.2705
1153.467, 859.9702
1153.949, 856.3174
1154.431, 850.8687
1154.913, 844.5636
1155.395, 840.0591
1155.878, 838.4126
1156.360, 838.8565
1156.842, 842.3740
1157.324, 845.8457
1157.806, 844.8644
1158.288, 841.4465
1158.770, 841.6182
1159.252, 845.0556
1159.734, 843.8497
1160.217, 827.0470
1160.699, 815.9084
1161.181, 817.8980
1161.663, 825.1191
1162.145, 822.5244
1162.627, 813.1555
1163.109, 806.9763
1163.591, 805.8029
1164.073, 805.8765
1164.556, 806.4822
1165.038, 806.6856
1165.520, 806.0612
1166.002, 804.7653
1166.484, 802.2176
1166.966, 799.1647
1167.448, 800.1121
1167.930, 807.8719
1168.413, 814.8796
1168.895, 816.5568
1169.377, 816.1285
1169.859, 815.6805
1170.341, 815.2678
1170.823, 816.8367
1171.305, 819.9218
1171.787, 818.9032
1172.270, 808.5179
1172.752, 797.7875
1173.234, 789.7850
1173.716, 786.5569
1174.198, 791.7401
1174.680, 807.6604
1175.162, 807.9171
1175.644, 792.5107
1176.126, 781.1700
1176.609, 790.9434
1177.091, 805.2867
1177.573, 813.3668
1178.055, 816.7465
1178.537, 819.1563
1179.019, 821.0372
1179.501, 819.2503
1179.983, 813.3016
1180.465, 807.6647
1180.948, 807.7373
1181.430, 808.1631
1181.912, 802.2284
1182.394, 792.4484
1182.876, 788.1597
1183.358, 790.1649
1183.840, 795.9892
1184.322, 806.4120
1184.805, 814.6745
1185.287, 810.1497
1185.769, 802.5916
1186.251, 804.9554
1186.733, 816.0453
1187.215, 816.1193
1187.697, 799.3192
1188.179, 791.8213
1188.661, 801.7023
1189.144, 814.8405
1189.626, 813.5566
1190.108, 805.0597
1190.590, 796.6426
1191.072, 789.2045
1191.554, 786.5309
1192.036, 788.5140
1192.518, 796.6296
1193.000, 814.5931
1193.483, 832.1138
1193.965, 833.1924
1194.447, 824.5559
1194.929, 814.8777
1195.411, 804.6577
1195.893, 799.7653
1196.375, 802.3843
1196.857, 804.0529
1197.340, 798.9696
1197.822, 793.2701
1198.304, 800.4034
1198.786, 813.6063
1199.268, 820.5012
1199.750, 813.9667
1200.232, 811.2989
1200.714, 814.6508
1201.197, 817.8844
1201.679, 816.1578
1202.161, 812.7202
1202.643, 813.5576
1203.125, 817.6276
1203.607, 822.6610
1204.089, 832.7139
1204.571, 834.7722
1205.053, 825.5337
1205.536, 816.2291
1206.018, 817.8382
1206.500, 824.6658
1206.982, 824.6484
1207.464, 819.8984
1207.946, 817.3784
1208.428, 823.6368
1208.910, 824.1340
1209.392, 814.6401
1209.875, 807.4644
1210.357, 819.9954
1210.839, 840.6432
1211.321, 846.9261
1211.803, 840.1740
1212.285, 831.7347
1212.767, 822.1775
1213.249, 815.6297
1213.732, 812.7995
1214.214, 812.4098
1214.696, 814.2216
1215.178, 816.8364
1215.660, 816.8189
1216.142, 814.5294
1216.624, 814.8251
1217.106, 820.1502
1217.589, 826.0604
1218.071, 831.9366
1218.553, 837.8246
1219.035, 846.6002
1219.517, 854.2652
1219.999, 852.1667
1220.481, 839.9052
1220.963, 829.8657
1221.445, 823.9041
1221.927, 821.4603
1222.410, 823.0680
1222.892, 826.8687
1223.374, 831.5295
1223.856, 835.8251
1224.338, 836.4205
1224.820, 832.4861
1225.302, 834.2983
1225.784, 848.4034
1226.267, 854.5807
1226.749, 843.6594
1227.231, 828.7283
1227.713, 833.5369
1228.195, 847.4499
1228.677, 853.4681
1229.159, 847.6998
1229.641, 839.3507
1230.124, 826.1148
1230.606, 820.3089
1231.088, 829.1500
1231.570, 842.9097
1232.052, 847.8805
1232.534, 846.3936
1233.016, 839.9985
1233.498, 825.7428
1233.980, 826.1136
1234.463, 847.3842
1234.945, 862.4006
1235.427, 855.3898
1235.909, 841.7188
1236.391, 846.8544
1236.873, 860.0831
1237.355, 864.1667
1237.837, 852.1578
1238.320, 845.8983
1238.802, 845.9721
1239.284, 849.6586
1239.766, 858.4573
1240.248, 866.3127
1240.730, 862.4514
1241.212, 853.5754
1241.694, 850.4254
1242.177, 856.2321
1242.659, 860.0512
1243.141, 862.0017
1243.623, 860.6748
1244.105, 851.4799
1244.587, 843.0966
1245.069, 847.0437
1245.551, 857.1027
1246.033, 863.7629
1246.516, 866.1909
1246.998, 866.4615
1247.480, 864.5347
1247.962, 860.8228
1248.444, 851.2895
1248.926, 844.4783
1249.408, 850.8451
1249.890, 863.1125
1250.372, 870.1710
1250.855, 870.8091
1251.337, 871.9872
1251.819, 873.7546
1252.301, 875.2784
1252.783, 877.3718
1253.265, 877.5516
1253.747, 871.9171
1254.229, 864.5823
1254.712, 861.3090
1255.194, 862.2762
1255.676, 864.6328
1256.158, 868.0906
1256.640, 868.8992
1257.122, 859.6402
1257.604, 852.8714
1258.086, 857.5695
1258.568, 866.9134
1259.051, 874.2581
1259.533, 879.4955
1260.015, 878.7608
1260.497, 872.7722
1260.979, 869.7795
1261.461, 881.0691
1261.943, 887.6046
1262.425, 878.2017
1262.907, 865.4833
1263.390, 866.1465
1263.872, 876.5693
1264.354, 878.6836
1264.836, 873.2012
1265.318, 871.8387
1265.800, 889.6744
1266.282, 898.2662
1266.764, 888.1529
1267.247, 873.1084
1267.729, 868.8369
1268.211, 872.6265
1268.693, 880.1497
1269.175, 889.8050
1269.657, 893.9192
1270.139, 882.4014
1270.621, 877.1047
1271.104, 882.9164
1271.586, 890.0270
1272.068, 885.1802
1272.550, 875.2205
1273.032, 871.3631
1273.514, 873.5620
1273.996, 877.5160
1274.478, 885.3988
1274.960, 885.9973
1275.443, 875.4810
1275.925, 867.3006
1276.407, 882.8766
1276.889, 903.2462
1277.371, 901.4833
1277.853, 883.3232
1278.335, 882.5013
1278.817, 907.1276
1279.299, 915.6603
1279.782, 901.4357
1280.264, 883.9348
1280.746, 878.0356
1281.228, 878.8167
1281.710, 884.2763
1282.192, 892.9926
1282.674, 902.4972
1283.156, 913.1984
1283.639, 916.4602
1284.121, 911.0183
1284.603, 904.9783
1285.085, 903.6408
1285.567, 904.1402
1286.049, 905.8025
1286.531, 907.5453
1287.013, 907.2317
1287.495, 905.1298
1287.978, 903.6315
1288.460, 902.9467
1288.942, 901.6824
1289.424, 895.9252
1289.906, 893.8474
1290.388, 899.2769
1290.870, 907.6903
1291.352, 911.2775
1291.834, 912.2003
1292.317, 918.4293
1292.799, 929.8619
1293.281, 936.5158
1293.763, 930.5117
1294.245, 925.5612
1294.727, 924.3284
1295.209, 923.8513
1295.691, 919.4358
1296.174, 913.6889
1296.656, 910.1888
1297.138, 909.3154
1297.620, 912.0063
1298.102, 919.5543
1298.584, 926.4592
1299.066, 932.3359
1299.548, 935.5300
1300.031, 930.5407
1300.513, 924.9717
1300.995, 929.3524
1301.477, 940.4429
1301.959, 941.8766
1302.441, 932.7871
1302.923, 920.3231
1303.405, 904.9671
1303.887, 894.9941
1304.370, 901.2730
1304.852, 910.9623
1305.334, 915.4155
1305.816, 917.4824
##END=



