##NAMES=Aegirine
##RRUFFID=R040054
##IDEAL CHEMISTRY=NaFe^3+^Si_2_O_6_
##LOCALITY=Mont Saint-Hilaire, Rouville County, Quebec, Canada
##OWNER=RRUFF
##SOURCE=Bob Downs
##DESCRIPTION=Black cleavage fragments
##STATUS=The identification of this mineral has been confirmed by X-ray diffraction and chemical analysis
##URL=rruff.info/R040054
##MEASURED CHEMISTRY=(Na_0.96_Ca_0.04_)(Fe_0.86_Ti_0.07_Mn_0.06_Mg_0.02_)(Si_0.97_Al_0.03_)_2_O_6_
126.3493, 1122.105
126.8314, 1189.229
127.3135, 1254.082
127.7956, 1320.239
128.2778, 1386.247
128.7599, 1449.352
129.2420, 1509.196
129.7241, 1570.512
130.2062, 1603.673
130.6883, 1599.388
131.1705, 1578.405
131.6526, 1544.945
132.1347, 1502.302
132.6168, 1455.511
133.0989, 1410.197
133.5810, 1364.493
134.0632, 1325.669
134.5453, 1290.163
135.0274, 1262.449
135.5095, 1245.831
135.9916, 1240.649
136.4737, 1244.196
136.9559, 1252.379
137.4380, 1262.106
137.9201, 1284.821
138.4022, 1324.614
138.8843, 1373.874
139.3664, 1427.612
139.8486, 1483.928
140.3307, 1542.517
140.8128, 1602.049
141.2949, 1658.539
141.7770, 1723.769
142.2591, 1807.417
142.7413, 1895.840
143.2234, 1973.584
143.7055, 2034.823
144.1876, 2087.409
144.6697, 2148.033
145.1518, 2222.975
145.6340, 2294.618
146.1161, 2365.493
146.5982, 2430.688
147.0803, 2482.239
147.5624, 2516.722
148.0445, 2538.454
148.5267, 2557.671
149.0088, 2580.977
149.4909, 2592.026
149.9730, 2578.780
150.4551, 2550.726
150.9372, 2526.727
151.4194, 2514.797
151.9015, 2511.012
152.3836, 2504.771
152.8657, 2493.328
153.3478, 2484.348
153.8299, 2477.045
154.3121, 2473.910
154.7942, 2485.182
155.2763, 2522.256
155.7584, 2569.647
156.2405, 2586.931
156.7226, 2553.823
157.2048, 2525.310
157.6869, 2534.827
158.1690, 2574.786
158.6511, 2612.344
159.1332, 2631.127
159.6153, 2637.933
160.0975, 2650.346
160.5796, 2669.157
161.0617, 2692.100
161.5438, 2719.961
162.0259, 2751.873
162.5080, 2782.272
162.9902, 2809.676
163.4723, 2832.690
163.9544, 2849.534
164.4365, 2855.630
164.9186, 2861.611
165.4007, 2876.832
165.8829, 2900.941
166.3650, 2924.700
166.8471, 2942.157
167.3292, 2957.223
167.8113, 2977.168
168.2934, 3006.119
168.7756, 3035.377
169.2577, 3053.731
169.7398, 3060.733
170.2219, 3074.302
170.7040, 3112.640
171.1861, 3158.810
171.6683, 3187.974
172.1504, 3191.094
172.6325, 3183.539
173.1146, 3177.754
173.5967, 3173.222
174.0788, 3176.334
174.5610, 3195.607
175.0431, 3222.804
175.5252, 3248.119
176.0073, 3270.533
176.4894, 3289.393
176.9715, 3301.583
177.4537, 3305.504
177.9358, 3313.786
178.4179, 3342.823
178.9000, 3375.627
179.3821, 3392.194
179.8642, 3384.433
180.3464, 3363.933
180.8285, 3339.146
181.3106, 3306.306
181.7927, 3289.649
182.2748, 3311.652
182.7569, 3352.354
183.2391, 3393.318
183.7212, 3427.788
184.2033, 3463.780
184.6854, 3512.162
185.1675, 3574.179
185.6496, 3642.063
186.1318, 3724.319
186.6139, 3806.042
187.0960, 3871.913
187.5781, 3915.629
188.0602, 3946.317
188.5423, 3979.339
189.0245, 4018.406
189.5066, 4042.388
189.9887, 4032.543
190.4708, 4007.269
190.9529, 3983.113
191.4350, 3967.696
191.9172, 3948.121
192.3993, 3905.535
192.8814, 3836.910
193.3635, 3759.229
193.8456, 3671.232
194.3277, 3579.823
194.8099, 3488.857
195.2920, 3397.567
195.7741, 3312.418
196.2562, 3242.928
196.7383, 3190.619
197.2204, 3145.566
197.7026, 3108.713
198.1847, 3075.740
198.6668, 3042.733
199.1489, 3007.892
199.6310, 2975.307
200.1131, 2950.429
200.5953, 2934.374
201.0774, 2920.450
201.5595, 2906.397
202.0416, 2893.797
202.5237, 2886.413
203.0058, 2886.382
203.4880, 2884.037
203.9701, 2861.996
204.4522, 2814.999
204.9343, 2783.079
205.4164, 2786.038
205.8985, 2805.384
206.3807, 2832.031
206.8628, 2865.383
207.3449, 2896.989
207.8270, 2918.195
208.3091, 2928.632
208.7912, 2931.818
209.2734, 2919.991
209.7555, 2906.582
210.2376, 2902.641
210.7197, 2910.059
211.2018, 2920.251
211.6839, 2926.025
212.1660, 2927.417
212.6482, 2924.660
213.1303, 2918.697
213.6124, 2907.285
214.0945, 2889.815
214.5766, 2866.298
215.0587, 2834.838
215.5409, 2790.028
216.0230, 2732.362
216.5051, 2679.294
216.9872, 2631.883
217.4693, 2593.313
217.9514, 2567.213
218.4336, 2553.343
218.9157, 2542.486
219.3978, 2528.743
219.8799, 2512.239
220.3620, 2493.991
220.8441, 2472.661
221.3263, 2451.085
221.8084, 2429.802
222.2905, 2409.216
222.7726, 2392.906
223.2547, 2385.004
223.7368, 2383.934
224.2190, 2381.604
224.7011, 2377.660
225.1832, 2371.294
225.6653, 2359.948
226.1474, 2345.040
226.6295, 2333.329
227.1117, 2330.148
227.5938, 2333.141
228.0759, 2335.218
228.5580, 2335.817
229.0401, 2335.512
229.5222, 2333.572
230.0044, 2330.851
230.4865, 2330.189
230.9686, 2338.235
231.4507, 2348.258
231.9328, 2343.663
232.4149, 2318.666
232.8971, 2293.555
233.3792, 2280.561
233.8613, 2277.721
234.3434, 2283.398
234.8255, 2304.866
235.3076, 2331.437
235.7898, 2347.948
236.2719, 2353.610
236.7540, 2352.996
237.2361, 2344.650
237.7182, 2332.349
238.2003, 2323.477
238.6825, 2320.473
239.1646, 2320.813
239.6467, 2321.925
240.1288, 2323.791
240.6109, 2327.594
241.0930, 2334.484
241.5752, 2343.858
242.0573, 2354.625
242.5394, 2371.906
243.0215, 2384.479
243.5036, 2380.569
243.9857, 2362.072
244.4679, 2343.712
244.9500, 2329.966
245.4321, 2322.513
245.9142, 2323.268
246.3963, 2334.827
246.8784, 2349.541
247.3606, 2366.913
247.8427, 2384.745
248.3248, 2394.570
248.8069, 2389.593
249.2890, 2379.835
249.7711, 2387.000
250.2533, 2418.323
250.7354, 2442.541
251.2175, 2444.023
251.6996, 2431.285
252.1817, 2417.690
252.6638, 2405.562
253.1460, 2399.694
253.6281, 2411.439
254.1102, 2445.893
254.5923, 2473.117
255.0744, 2484.114
255.5565, 2486.608
256.0387, 2488.529
256.5208, 2491.511
257.0029, 2496.582
257.4850, 2505.873
257.9671, 2521.325
258.4492, 2531.955
258.9314, 2539.064
259.4135, 2540.150
259.8956, 2526.374
260.3777, 2499.677
260.8598, 2480.758
261.3419, 2491.200
261.8241, 2535.731
262.3062, 2563.796
262.7883, 2568.948
263.2704, 2565.393
263.7525, 2558.004
264.2346, 2548.027
264.7168, 2536.251
265.1989, 2522.598
265.6810, 2507.372
266.1631, 2498.558
266.6452, 2503.426
267.1273, 2505.806
267.6095, 2498.151
268.0916, 2484.944
268.5737, 2473.730
269.0558, 2468.384
269.5379, 2468.938
270.0201, 2475.542
270.5022, 2505.927
270.9843, 2521.642
271.4664, 2504.594
271.9485, 2477.187
272.4306, 2467.166
272.9128, 2485.085
273.3949, 2516.128
273.8770, 2528.915
274.3591, 2508.206
274.8412, 2495.397
275.3233, 2493.203
275.8055, 2497.664
276.2876, 2507.503
276.7697, 2521.705
277.2518, 2537.250
277.7339, 2550.275
278.2160, 2559.846
278.6982, 2569.755
279.1803, 2588.765
279.6624, 2600.723
280.1445, 2590.960
280.6266, 2564.118
281.1087, 2540.606
281.5909, 2541.509
282.0730, 2566.958
282.5551, 2581.608
283.0372, 2573.626
283.5193, 2568.167
284.0014, 2577.121
284.4836, 2595.714
284.9657, 2614.021
285.4478, 2627.409
285.9299, 2635.735
286.4120, 2636.912
286.8941, 2627.173
287.3763, 2596.232
287.8584, 2633.610
288.3405, 2658.031
288.8226, 2670.191
289.3047, 2633.370
289.7868, 2659.799
290.2690, 2660.882
290.7511, 2660.923
291.2332, 2696.254
291.7153, 2666.557
292.1974, 2701.328
292.6795, 2710.365
293.1617, 2731.181
293.6438, 2726.492
294.1259, 2729.679
294.6080, 2758.380
295.0901, 2772.954
295.5722, 2751.877
296.0544, 2767.143
296.5365, 2768.663
297.0186, 2755.798
297.5007, 2747.803
297.9828, 2758.760
298.4649, 2777.675
298.9471, 2783.126
299.4292, 2769.798
299.9113, 2755.618
300.3934, 2757.788
300.8755, 2776.094
301.3576, 2799.478
301.8398, 2843.429
302.3219, 2880.234
302.8040, 2877.039
303.2861, 2838.249
303.7682, 2806.262
304.2503, 2812.996
304.7325, 2853.260
305.2146, 2874.203
305.6967, 2857.653
306.1788, 2844.319
306.6609, 2850.434
307.1430, 2870.396
307.6252, 2893.614
308.1073, 2915.464
308.5894, 2935.265
309.0715, 2950.792
309.5536, 2971.255
310.0357, 2975.111
310.5179, 2947.031
311.0000, 2909.637
311.4821, 2886.131
311.9642, 2881.790
312.4463, 2884.291
312.9284, 2875.883
313.4106, 2851.314
313.8927, 2830.540
314.3748, 2816.405
314.8569, 2802.923
315.3390, 2784.160
315.8211, 2762.283
316.3033, 2746.395
316.7854, 2746.912
317.2675, 2762.964
317.7496, 2763.852
318.2317, 2732.362
318.7138, 2705.329
319.1960, 2693.923
319.6781, 2693.916
320.1602, 2698.369
320.6423, 2704.009
321.1244, 2711.693
321.6065, 2723.573
322.0887, 2740.297
322.5708, 2759.118
323.0529, 2779.517
323.5350, 2801.451
324.0171, 2825.246
324.4992, 2851.095
324.9814, 2877.678
325.4635, 2899.800
325.9456, 2918.756
326.4277, 2952.058
326.9098, 3010.700
327.3919, 3076.174
327.8741, 3128.954
328.3562, 3169.938
328.8383, 3214.098
329.3204, 3270.340
329.8025, 3333.276
330.2846, 3393.840
330.7668, 3450.590
331.2489, 3506.525
331.7310, 3562.457
332.2131, 3618.947
332.6952, 3680.062
333.1773, 3748.069
333.6595, 3818.974
334.1415, 3892.633
334.6237, 3967.416
335.1058, 4035.785
335.5879, 4092.941
336.0700, 4142.066
336.5521, 4193.809
337.0342, 4262.367
337.5164, 4314.458
337.9985, 4335.443
338.4806, 4340.559
338.9627, 4347.317
339.4448, 4360.899
339.9269, 4376.609
340.4091, 4388.170
340.8912, 4396.908
341.3733, 4396.722
341.8554, 4385.889
342.3375, 4369.030
342.8196, 4345.230
343.3018, 4317.070
343.7839, 4291.980
344.2660, 4279.053
344.7481, 4276.157
345.2302, 4248.018
345.7123, 4174.848
346.1945, 4099.976
346.6766, 4027.847
347.1587, 3962.155
347.6408, 3909.535
348.1229, 3874.488
348.6050, 3844.539
349.0872, 3796.749
349.5693, 3727.214
350.0514, 3656.235
350.5335, 3581.964
351.0156, 3512.912
351.4977, 3456.705
351.9799, 3413.762
352.4620, 3376.808
352.9441, 3342.574
353.4262, 3310.272
353.9083, 3274.764
354.3904, 3230.634
354.8726, 3194.471
355.3547, 3186.463
355.8368, 3199.688
356.3189, 3214.634
356.8010, 3232.193
357.2831, 3245.975
357.7653, 3244.069
358.2474, 3229.160
358.7295, 3224.474
359.2116, 3245.807
359.6937, 3284.576
360.1758, 3309.873
360.6580, 3307.699
361.1401, 3313.956
361.6222, 3344.307
362.1043, 3386.161
362.5864, 3423.950
363.0685, 3453.135
363.5507, 3475.355
364.0328, 3492.667
364.5149, 3504.362
364.9970, 3512.662
365.4791, 3520.375
365.9612, 3522.817
366.4434, 3514.925
366.9255, 3499.026
367.4076, 3482.698
367.8897, 3472.300
368.3718, 3465.849
368.8539, 3448.865
369.3361, 3414.000
369.8182, 3378.885
370.3003, 3346.389
370.7824, 3316.417
371.2645, 3288.557
371.7466, 3262.687
372.2288, 3239.818
372.7109, 3220.637
373.1930, 3205.001
373.6751, 3195.626
374.1572, 3194.851
374.6393, 3199.217
375.1215, 3207.427
375.6036, 3218.776
376.0857, 3228.355
376.5678, 3233.201
377.0499, 3234.801
377.5320, 3233.899
378.0142, 3229.800
378.4963, 3230.402
378.9784, 3242.108
379.4605, 3263.215
379.9426, 3284.122
380.4247, 3311.887
380.9069, 3331.657
381.3890, 3328.055
381.8711, 3311.945
382.3532, 3311.294
382.8353, 3338.287
383.3174, 3370.063
383.7996, 3365.465
384.2817, 3291.507
384.7638, 3250.901
385.2459, 3275.610
385.7280, 3308.139
386.2101, 3311.109
386.6923, 3283.299
387.1744, 3241.425
387.6565, 3197.902
388.1386, 3152.822
388.6207, 3107.468
389.1028, 3059.377
389.5850, 3014.694
390.0671, 2979.198
390.5492, 2946.036
391.0313, 2906.279
391.5134, 2856.772
391.9955, 2803.022
392.4777, 2752.995
392.9598, 2707.136
393.4419, 2658.705
393.9240, 2601.198
394.4061, 2546.683
394.8882, 2504.496
395.3704, 2473.810
395.8525, 2448.018
396.3346, 2427.114
396.8167, 2407.910
397.2988, 2384.014
397.7809, 2354.792
398.2631, 2328.704
398.7452, 2314.186
399.2273, 2305.750
399.7094, 2284.221
400.1915, 2236.264
400.6736, 2193.991
401.1558, 2174.108
401.6379, 2166.611
402.1200, 2154.440
402.6021, 2132.497
403.0842, 2109.652
403.5663, 2099.104
404.0485, 2107.296
404.5306, 2106.009
405.0127, 2087.554
405.4948, 2068.233
405.9769, 2053.171
406.4590, 2044.129
406.9412, 2014.449
407.4233, 2038.683
407.9054, 2049.961
408.3875, 2048.979
408.8696, 1999.015
409.3517, 2012.300
409.8339, 2000.238
410.3160, 1987.136
410.7981, 2009.324
411.2802, 1966.484
411.7623, 1988.112
412.2444, 1984.006
412.7266, 1991.677
413.2087, 1973.844
413.6908, 1963.890
414.1729, 1966.284
414.6550, 1963.659
415.1371, 1958.169
415.6193, 1955.582
416.1014, 1960.500
416.5835, 1965.728
417.0656, 1965.686
417.5477, 1961.413
418.0298, 1956.832
418.5120, 1953.885
418.9941, 1950.122
419.4762, 1939.975
419.9583, 1915.858
420.4404, 1901.892
420.9225, 1906.450
421.4047, 1915.727
421.8868, 1919.325
422.3689, 1917.236
422.8510, 1915.534
423.3331, 1919.300
423.8152, 1927.735
424.2974, 1933.270
424.7795, 1931.288
425.2616, 1933.160
425.7437, 1946.606
426.2258, 1961.899
426.7079, 1969.308
427.1901, 1966.090
427.6722, 1956.170
428.1543, 1937.984
428.6364, 1913.050
429.1185, 1905.976
429.6006, 1929.900
430.0828, 1955.177
430.5649, 1956.054
431.0470, 1939.593
431.5291, 1926.401
432.0112, 1922.803
432.4933, 1924.025
432.9755, 1925.869
433.4576, 1928.843
433.9397, 1936.803
434.4218, 1953.318
434.9039, 1971.345
435.3860, 1975.510
435.8682, 1956.030
436.3503, 1943.707
436.8324, 1947.579
437.3145, 1953.713
437.7966, 1949.766
438.2787, 1936.804
438.7609, 1924.665
439.2430, 1920.744
439.7251, 1924.454
440.2072, 1931.559
440.6893, 1948.757
441.1714, 1958.723
441.6536, 1951.411
442.1357, 1939.678
442.6178, 1937.923
443.0999, 1949.331
443.5820, 1960.884
444.0641, 1956.522
444.5463, 1939.446
445.0284, 1932.448
445.5105, 1940.614
445.9926, 1952.650
446.4747, 1961.952
446.9568, 1968.584
447.4390, 1972.009
447.9211, 1970.770
448.4032, 1967.621
448.8853, 1953.933
449.3674, 1974.629
449.8495, 1987.921
450.3317, 1994.208
450.8138, 1972.505
451.2959, 1986.944
451.7780, 1986.900
452.2601, 1986.260
452.7422, 2005.787
453.2244, 1988.155
453.7065, 2007.362
454.1886, 2002.969
454.6707, 2008.124
455.1528, 2008.254
455.6349, 2004.979
456.1171, 2002.361
456.5992, 1999.086
457.0813, 1999.955
457.5634, 2007.038
458.0455, 2018.082
458.5276, 2033.135
459.0098, 2051.748
459.4919, 2069.779
459.9740, 2087.483
460.4561, 2102.134
460.9382, 2106.660
461.4203, 2100.195
461.9025, 2090.935
462.3846, 2082.307
462.8667, 2074.933
463.3488, 2070.646
463.8309, 2070.272
464.3130, 2071.422
464.7952, 2075.593
465.2773, 2079.935
465.7594, 2080.771
466.2415, 2077.566
466.7236, 2071.030
467.2057, 2058.037
467.6879, 2010.313
468.1700, 2039.191
468.6521, 2055.112
469.1342, 2058.772
469.6163, 2013.451
470.0984, 2031.380
470.5806, 2023.960
471.0627, 2015.502
471.5448, 2042.332
472.0269, 2004.135
472.5090, 2030.406
472.9911, 2030.942
473.4733, 2043.257
473.9554, 2030.067
474.4375, 2024.755
474.9196, 2044.955
475.4017, 2038.330
475.8839, 2044.104
476.3660, 2049.236
476.8481, 2059.492
477.3302, 2071.827
477.8123, 2078.163
478.2944, 2075.491
478.7766, 2067.938
479.2587, 2060.998
479.7408, 2052.301
480.2229, 2052.384
480.7050, 2068.454
481.1871, 2084.880
481.6693, 2092.465
482.1514, 2095.132
482.6335, 2102.684
483.1156, 2121.012
483.5977, 2142.436
484.0798, 2147.802
484.5620, 2131.976
485.0441, 2134.343
485.5262, 2175.226
486.0083, 2223.503
486.4904, 2252.152
486.9725, 2263.683
487.4547, 2276.599
487.9368, 2299.909
488.4189, 2326.202
488.9010, 2345.333
489.3831, 2359.195
489.8652, 2379.484
490.3474, 2412.731
490.8295, 2452.066
491.3116, 2483.482
491.7937, 2496.862
492.2758, 2521.931
492.7579, 2572.572
493.2401, 2622.835
493.7222, 2657.754
494.2043, 2677.815
494.6864, 2691.118
495.1685, 2703.311
495.6506, 2711.031
496.1328, 2702.943
496.6149, 2673.935
497.0970, 2646.838
497.5791, 2632.524
498.0612, 2617.289
498.5433, 2590.429
499.0254, 2551.885
499.5075, 2508.819
499.9897, 2456.750
500.4718, 2406.403
500.9539, 2373.660
501.4360, 2357.360
501.9181, 2344.394
502.4002, 2329.537
502.8824, 2311.717
503.3645, 2287.952
503.8466, 2253.019
504.3287, 2221.310
504.8108, 2188.521
505.2929, 2162.885
505.7751, 2154.180
506.2572, 2158.500
506.7393, 2162.850
507.2214, 2158.824
507.7035, 2147.887
508.1856, 2132.676
508.6678, 2109.923
509.1499, 2094.630
509.6320, 2101.565
510.1141, 2108.797
510.5962, 2091.307
511.0783, 2050.383
511.5605, 2024.208
512.0426, 2046.448
512.5247, 2081.878
513.0068, 2083.365
513.4890, 2054.449
513.9711, 2030.980
514.4532, 2031.610
514.9353, 2046.716
515.4174, 2053.482
515.8995, 2043.036
516.3817, 2039.913
516.8638, 2048.958
517.3459, 2061.029
517.8280, 2070.585
518.3101, 2077.998
518.7922, 2086.371
519.2744, 2098.071
519.7565, 2111.008
520.2386, 2119.789
520.7207, 2123.410
521.2028, 2128.512
521.6849, 2137.555
522.1671, 2147.693
522.6492, 2152.917
523.1313, 2154.398
523.6134, 2166.642
524.0955, 2208.109
524.5776, 2251.266
525.0598, 2268.460
525.5419, 2265.422
526.0240, 2264.408
526.5061, 2274.990
526.9882, 2292.113
527.4703, 2305.722
527.9525, 2309.781
528.4346, 2326.752
528.9167, 2372.781
529.3988, 2413.985
529.8809, 2431.550
530.3630, 2433.091
530.8452, 2433.170
531.3273, 2436.169
531.8094, 2449.631
532.2915, 2494.091
532.7736, 2567.884
533.2557, 2615.301
533.7379, 2610.397
534.2200, 2606.938
534.7021, 2666.750
535.1842, 2779.016
535.6663, 2866.880
536.1484, 2895.544
536.6306, 2896.359
537.1127, 2977.478
537.5948, 3045.647
538.0769, 3101.556
538.5590, 3108.484
539.0411, 3178.654
539.5233, 3223.497
540.0054, 3267.281
540.4875, 3346.361
540.9696, 3360.413
541.4517, 3438.934
541.9338, 3491.714
542.4160, 3495.544
542.8981, 3507.591
543.3802, 3511.594
543.8623, 3507.203
544.3444, 3487.878
544.8265, 3460.815
545.3087, 3445.309
545.7908, 3444.075
546.2729, 3444.258
546.7550, 3438.183
547.2371, 3425.816
547.7192, 3406.612
548.2014, 3371.158
548.6835, 3341.892
549.1656, 3320.029
549.6477, 3306.673
550.1298, 3308.506
550.6119, 3321.750
551.0941, 3330.425
551.5762, 3321.124
552.0583, 3298.469
552.5404, 3277.011
553.0225, 3255.564
553.5046, 3241.032
553.9868, 3239.878
554.4689, 3243.268
554.9510, 3238.826
555.4331, 3226.382
555.9152, 3222.594
556.3973, 3241.678
556.8795, 3264.272
557.3616, 3275.603
557.8437, 3276.089
558.3258, 3268.366
558.8079, 3253.172
559.2900, 3234.722
559.7722, 3220.691
560.2543, 3213.219
560.7364, 3203.466
561.2185, 3191.238
561.7006, 3176.669
562.1827, 3158.957
562.6649, 3139.047
563.1470, 3118.960
563.6291, 3099.539
564.1112, 3078.742
564.5933, 3039.495
565.0754, 2964.222
565.5576, 2976.768
566.0397, 2976.363
566.5218, 2963.696
567.0039, 2902.047
567.4860, 2903.647
567.9681, 2879.903
568.4503, 2855.112
568.9324, 2865.617
569.4145, 2811.093
569.8966, 2821.036
570.3787, 2843.404
570.8608, 2837.342
571.3430, 2819.396
571.8251, 2795.942
572.3072, 2769.873
572.7893, 2751.861
573.2714, 2743.382
573.7535, 2735.133
574.2357, 2723.115
574.7178, 2711.061
575.1999, 2707.011
575.6820, 2711.788
576.1641, 2704.740
576.6462, 2666.872
577.1284, 2628.421
577.6105, 2614.067
578.0926, 2616.197
578.5747, 2616.167
579.0568, 2606.377
579.5389, 2590.072
580.0211, 2569.232
580.5032, 2540.142
580.9852, 2529.680
581.4673, 2559.637
581.9495, 2578.874
582.4316, 2558.627
582.9137, 2517.940
583.3958, 2485.361
583.8779, 2468.406
584.3600, 2454.323
584.8422, 2432.043
585.3243, 2408.259
585.8064, 2397.860
586.2885, 2400.854
586.7706, 2399.831
587.2527, 2383.043
587.7349, 2352.994
588.2170, 2318.757
588.6991, 2267.809
589.1812, 2234.325
589.6633, 2236.196
590.1454, 2240.210
590.6276, 2222.238
591.1097, 2187.953
591.5918, 2159.987
592.0739, 2153.914
592.5560, 2153.146
593.0381, 2132.219
593.5203, 2095.430
594.0024, 2067.550
594.4845, 2055.435
594.9666, 2048.618
595.4487, 2037.350
595.9308, 2021.618
596.4130, 2003.908
596.8951, 1985.264
597.3772, 1963.615
597.8593, 1930.641
598.3414, 1899.118
598.8235, 1885.604
599.3057, 1890.432
599.7878, 1895.813
600.2699, 1884.906
600.7520, 1863.559
601.2341, 1851.180
601.7162, 1848.981
602.1984, 1843.474
602.6805, 1828.636
603.1626, 1809.644
603.6447, 1792.388
604.1268, 1776.027
604.6089, 1767.073
605.0911, 1772.917
605.5732, 1779.548
606.0553, 1781.499
606.5374, 1778.196
607.0195, 1767.283
607.5016, 1748.478
607.9838, 1729.848
608.4659, 1723.754
608.9480, 1729.600
609.4301, 1726.548
609.9122, 1710.026
610.3943, 1696.652
610.8765, 1698.081
611.3586, 1705.752
611.8407, 1704.487
612.3228, 1691.300
612.8049, 1679.895
613.2870, 1671.156
613.7692, 1668.290
614.2513, 1678.462
614.7334, 1697.141
615.2155, 1711.785
615.6976, 1716.274
616.1797, 1713.550
616.6619, 1707.772
617.1440, 1698.233
617.6261, 1691.028
618.1082, 1688.551
618.5903, 1685.311
619.0724, 1674.439
619.5546, 1661.654
620.0367, 1657.916
620.5188, 1668.315
621.0009, 1678.754
621.4830, 1683.475
621.9651, 1684.375
622.4473, 1683.506
622.9294, 1681.007
623.4115, 1675.176
623.8936, 1664.306
624.3757, 1652.149
624.8578, 1649.571
625.3400, 1660.362
625.8221, 1667.287
626.3042, 1665.381
626.7863, 1663.188
627.2684, 1666.490
627.7505, 1673.195
628.2327, 1678.368
628.7148, 1680.889
629.1969, 1681.597
629.6790, 1679.906
630.1611, 1677.175
630.6432, 1674.563
631.1254, 1672.689
631.6075, 1674.160
632.0896, 1681.653
632.5717, 1692.384
633.0538, 1694.767
633.5359, 1683.351
634.0181, 1678.198
634.5002, 1687.154
634.9823, 1698.004
635.4644, 1705.847
635.9465, 1709.700
636.4286, 1706.807
636.9108, 1691.172
637.3929, 1676.334
637.8750, 1671.142
638.3571, 1672.988
638.8392, 1679.490
639.3214, 1689.310
639.8035, 1697.448
640.2856, 1699.879
640.7677, 1697.339
641.2498, 1692.396
641.7319, 1681.767
642.2141, 1676.850
642.6962, 1683.380
643.1783, 1692.778
643.6604, 1701.423
644.1425, 1708.613
644.6246, 1712.369
645.1068, 1708.738
645.5889, 1705.954
646.0710, 1711.069
646.5531, 1720.387
647.0352, 1729.972
647.5173, 1738.035
647.9995, 1738.189
648.4816, 1723.236
648.9637, 1697.902
649.4458, 1685.167
649.9279, 1688.682
650.4100, 1695.504
650.8922, 1709.096
651.3743, 1720.070
651.8564, 1718.683
652.3385, 1708.562
652.8206, 1704.559
653.3027, 1716.725
653.7849, 1728.639
654.2670, 1726.806
654.7491, 1719.470
655.2312, 1721.569
655.7133, 1734.149
656.1954, 1744.085
656.6776, 1740.056
657.1597, 1726.099
657.6418, 1717.791
658.1239, 1715.312
658.6060, 1718.046
659.0881, 1728.789
659.5703, 1741.709
660.0524, 1755.349
660.5345, 1768.031
661.0166, 1772.574
661.4987, 1755.145
661.9808, 1745.421
662.4630, 1767.392
662.9451, 1800.118
663.4272, 1815.588
663.9093, 1811.865
664.3914, 1804.866
664.8735, 1805.427
665.3557, 1812.539
665.8378, 1824.620
666.3199, 1842.855
666.8020, 1858.194
667.2841, 1867.268
667.7662, 1875.983
668.2484, 1888.202
668.7305, 1903.771
669.2126, 1922.549
669.6947, 1946.031
670.1768, 1970.415
670.6589, 1998.474
671.1411, 2024.026
671.6232, 2037.494
672.1053, 2041.921
672.5874, 2049.785
673.0695, 2068.337
673.5516, 2096.230
674.0338, 2138.614
674.5159, 2195.057
674.9980, 2222.412
675.4801, 2206.651
675.9622, 2185.903
676.4443, 2187.785
676.9265, 2206.427
677.4086, 2217.550
677.8907, 2222.871
678.3728, 2218.816
678.8549, 2199.113
679.3370, 2174.942
679.8192, 2156.089
680.3013, 2139.236
680.7834, 2113.080
681.2655, 2070.786
681.7476, 2027.677
682.2297, 2007.375
682.7119, 2002.962
683.1940, 1984.363
683.6761, 1947.468
684.1582, 1914.820
684.6403, 1901.551
685.1224, 1898.823
685.6046, 1883.088
686.0867, 1842.285
686.5688, 1814.172
687.0509, 1807.608
687.5330, 1803.330
688.0151, 1790.353
688.4973, 1774.776
688.9794, 1768.787
689.4615, 1776.609
689.9436, 1783.253
690.4257, 1775.438
690.9078, 1760.204
691.3900, 1749.579
691.8721, 1743.091
692.3542, 1731.745
692.8363, 1710.682
693.3184, 1690.121
693.8005, 1688.940
694.2827, 1711.850
694.7648, 1722.513
695.2469, 1715.355
695.7290, 1704.133
696.2111, 1689.494
696.6932, 1675.615
697.1754, 1666.302
697.6575, 1661.917
698.1396, 1663.635
698.6217, 1680.325
699.1038, 1695.589
699.5859, 1693.865
700.0681, 1681.604
700.5502, 1671.838
701.0323, 1668.297
701.5144, 1666.651
701.9965, 1663.564
702.4786, 1658.334
702.9608, 1643.641
703.4429, 1614.988
703.9250, 1600.908
704.4071, 1615.164
704.8892, 1638.664
705.3713, 1655.520
705.8535, 1665.310
706.3356, 1662.824
706.8177, 1633.701
707.2998, 1610.132
707.7819, 1603.463
708.2640, 1605.153
708.7462, 1609.129
709.2283, 1613.288
709.7104, 1615.083
710.1925, 1611.764
710.6746, 1607.971
711.1567, 1610.949
711.6389, 1619.696
712.1210, 1631.658
712.6031, 1647.050
713.0852, 1655.281
713.5673, 1646.927
714.0494, 1627.050
714.5316, 1614.552
715.0137, 1611.164
715.4958, 1611.995
715.9779, 1623.220
716.4600, 1632.065
716.9421, 1632.755
717.4243, 1626.723
717.9064, 1615.080
718.3885, 1595.853
718.8706, 1582.242
719.3527, 1584.058
719.8348, 1594.445
720.3170, 1608.306
720.7991, 1623.369
721.2812, 1635.381
721.7633, 1642.498
722.2454, 1644.322
722.7275, 1637.442
723.2097, 1621.789
723.6918, 1619.963
724.1739, 1639.240
724.6560, 1649.517
725.1381, 1634.626
725.6202, 1609.445
726.1024, 1593.247
726.5845, 1585.795
727.0666, 1583.725
727.5487, 1593.153
728.0308, 1600.371
728.5129, 1600.352
728.9951, 1595.005
729.4772, 1583.049
729.9593, 1567.033
730.4414, 1557.334
730.9235, 1561.782
731.4056, 1575.809
731.8878, 1598.921
732.3699, 1626.608
732.8520, 1636.083
733.3341, 1622.156
733.8162, 1602.583
734.2983, 1590.254
734.7805, 1584.998
735.2626, 1586.552
735.7447, 1597.860
736.2268, 1609.630
736.7089, 1630.193
737.1910, 1641.526
737.6732, 1625.705
738.1553, 1596.534
738.6374, 1582.046
739.1195, 1590.657
739.6016, 1602.302
740.0837, 1613.087
740.5659, 1619.147
741.0480, 1612.523
741.5301, 1598.446
742.0122, 1591.130
742.4943, 1595.800
742.9764, 1601.711
743.4586, 1594.172
743.9407, 1575.913
744.4228, 1561.121
744.9049, 1549.406
745.3870, 1548.259
745.8691, 1564.278
746.3513, 1583.006
746.8334, 1584.612
747.3155, 1567.307
747.7976, 1560.947
748.2797, 1578.599
748.7618, 1589.779
749.2440, 1578.390
749.7261, 1567.464
750.2082, 1582.019
750.6903, 1616.040
751.1724, 1638.446
751.6545, 1632.181
752.1367, 1618.113
752.6188, 1608.258
753.1009, 1602.742
753.5830, 1601.516
754.0651, 1604.721
754.5472, 1614.051
755.0294, 1631.041
755.5115, 1650.586
755.9936, 1656.489
756.4757, 1624.282
756.9578, 1645.296
757.4399, 1653.355
757.9221, 1649.150
758.4042, 1595.967
758.8863, 1606.032
759.3684, 1590.750
759.8505, 1574.428
760.3326, 1593.397
760.8148, 1547.335
761.2969, 1538.393
761.7790, 1569.240
762.2611, 1584.361
762.7432, 1584.625
763.2253, 1524.320
763.7075, 1543.151
764.1896, 1530.834
764.6717, 1517.626
765.1538, 1548.750
765.6359, 1499.331
766.1180, 1530.565
766.6002, 1530.168
767.0823, 1544.837
767.5644, 1528.162
768.0465, 1521.696
768.5286, 1547.391
769.0107, 1555.905
769.4929, 1537.190
769.9750, 1555.212
770.4571, 1508.719
770.9392, 1519.597
771.4213, 1555.457
771.9034, 1540.355
772.3856, 1560.976
772.8677, 1568.549
773.3498, 1488.477
773.8319, 1506.860
774.3140, 1499.896
774.7961, 1491.893
775.2783, 1519.178
775.7604, 1481.436
776.2425, 1508.162
776.7246, 1509.154
777.2067, 1539.630
777.6888, 1547.607
778.1710, 1538.767
778.6531, 1532.932
779.1352, 1533.843
779.6173, 1530.387
780.0994, 1488.395
780.5815, 1518.507
781.0637, 1535.663
781.5458, 1540.558
782.0279, 1496.472
782.5100, 1515.635
782.9921, 1509.451
783.4742, 1502.227
783.9564, 1530.292
784.4385, 1493.330
784.9206, 1520.836
785.4027, 1522.607
785.8848, 1536.156
786.3669, 1524.201
786.8491, 1520.124
787.3312, 1550.099
787.8133, 1567.693
788.2954, 1565.900
788.7775, 1555.208
789.2596, 1530.518
789.7418, 1508.886
790.2239, 1509.632
790.7060, 1520.551
791.1881, 1518.961
791.6702, 1503.268
792.1523, 1489.398
792.6345, 1488.353
793.1166, 1496.405
793.5987, 1509.726
794.0808, 1527.068
794.5629, 1535.319
795.0450, 1532.939
795.5272, 1489.751
796.0093, 1525.209
796.4914, 1544.707
796.9735, 1549.110
797.4556, 1492.708
797.9377, 1515.206
798.4199, 1506.318
798.9020, 1496.305
799.3841, 1530.386
799.8662, 1483.688
800.3483, 1517.407
800.8304, 1519.259
801.3126, 1535.940
801.7947, 1521.040
802.2768, 1516.114
802.7589, 1543.112
803.2410, 1552.693
803.7231, 1534.808
804.2053, 1553.424
804.6874, 1507.290
805.1695, 1518.289
805.6516, 1554.033
806.1337, 1538.581
806.6158, 1558.613
807.0980, 1565.363
807.5801, 1511.148
808.0622, 1563.413
808.5443, 1569.868
809.0264, 1529.284
809.5085, 1578.407
809.9907, 1544.666
810.4728, 1540.728
810.9549, 1559.263
811.4370, 1554.713
811.9191, 1586.989
812.4012, 1584.116
812.8834, 1578.256
813.3655, 1586.332
813.8476, 1582.316
814.3297, 1574.134
814.8118, 1574.629
815.2939, 1594.917
815.7761, 1615.352
816.2582, 1621.936
816.7403, 1620.353
817.2224, 1625.437
817.7045, 1642.822
818.1866, 1648.466
818.6688, 1613.842
819.1509, 1574.154
819.6330, 1562.048
820.1151, 1571.095
820.5972, 1588.634
821.0793, 1609.663
821.5615, 1628.248
822.0436, 1640.712
822.5257, 1645.835
823.0078, 1634.957
823.4899, 1611.906
823.9720, 1605.959
824.4542, 1622.314
824.9363, 1641.769
825.4184, 1652.846
825.9005, 1656.337
826.3826, 1652.216
826.8647, 1636.296
827.3469, 1632.148
827.8290, 1645.569
828.3111, 1659.834
828.7932, 1669.811
829.2753, 1676.597
829.7574, 1679.659
830.2396, 1678.922
830.7217, 1684.338
831.2038, 1704.757
831.6859, 1720.561
832.1680, 1722.690
832.6501, 1721.810
833.1323, 1725.292
833.6144, 1733.575
834.0965, 1745.906
834.5786, 1763.116
835.0607, 1779.734
835.5428, 1792.774
836.0250, 1802.801
836.5071, 1808.855
836.9892, 1812.642
837.4713, 1819.806
837.9534, 1831.385
838.4355, 1838.480
838.9177, 1828.026
839.3998, 1810.532
839.8819, 1812.640
840.3640, 1832.471
840.8461, 1859.575
841.3282, 1892.208
841.8104, 1915.927
842.2925, 1918.297
842.7746, 1908.165
843.2567, 1909.996
843.7388, 1926.808
844.2209, 1941.025
844.7031, 1951.920
845.1852, 1961.012
845.6673, 1969.869
846.1494, 1976.316
846.6315, 1975.397
847.1136, 1965.677
847.5958, 1964.095
848.0779, 1978.199
848.5600, 1990.172
849.0421, 1991.948
849.5242, 1994.297
850.0063, 2006.756
850.4885, 2026.708
850.9706, 2046.677
851.4527, 2067.267
851.9348, 2079.246
852.4169, 2064.229
852.8990, 2051.210
853.3812, 2074.275
853.8633, 2115.396
854.3454, 2137.257
854.8275, 2131.576
855.3096, 2122.357
855.7917, 2130.302
856.2739, 2143.443
856.7560, 2141.084
857.2381, 2129.233
857.7202, 2125.269
858.2023, 2131.301
858.6844, 2139.158
859.1666, 2143.973
859.6487, 2146.942
860.1308, 2149.732
860.6129, 2152.422
861.0950, 2157.969
861.5771, 2167.214
862.0593, 2172.868
862.5414, 2171.563
863.0235, 2167.625
863.5056, 2165.514
863.9877, 2165.272
864.4698, 2167.684
864.9520, 2175.317
865.4341, 2180.140
865.9162, 2181.931
866.3983, 2179.912
866.8804, 2172.526
867.3625, 2161.283
867.8447, 2147.938
868.3268, 2130.349
868.8089, 2119.111
869.2910, 2122.366
869.7731, 2124.101
870.2552, 2116.794
870.7374, 2105.395
871.2195, 2095.414
871.7016, 2086.982
872.1837, 2076.667
872.6658, 2063.406
873.1479, 2047.453
873.6301, 2023.828
874.1122, 2001.288
874.5943, 1991.447
875.0764, 1990.323
875.5585, 1986.751
876.0406, 1976.763
876.5228, 1963.944
877.0049, 1951.570
877.4870, 1938.461
877.9691, 1918.130
878.4512, 1895.633
878.9333, 1889.151
879.4155, 1900.560
879.8976, 1912.977
880.3797, 1914.802
880.8618, 1909.662
881.3439, 1903.521
881.8260, 1896.574
882.3082, 1891.768
882.7903, 1889.596
883.2724, 1883.232
883.7545, 1869.330
884.2366, 1852.962
884.7188, 1839.842
885.2009, 1830.016
885.6830, 1826.147
886.1651, 1833.960
886.6472, 1827.131
887.1293, 1789.092
887.6115, 1759.706
888.0936, 1773.218
888.5757, 1808.087
889.0578, 1810.131
889.5399, 1757.296
890.0220, 1742.715
890.5042, 1811.455
890.9863, 1859.304
891.4684, 1840.040
891.9505, 1802.882
892.4326, 1797.169
892.9147, 1816.411
893.3969, 1814.792
893.8790, 1761.268
894.3611, 1725.499
894.8432, 1747.674
895.3253, 1774.961
895.8074, 1765.534
896.2896, 1737.574
896.7717, 1724.927
897.2538, 1734.493
897.7359, 1748.137
898.2180, 1760.820
898.7001, 1768.523
899.1823, 1762.346
899.6644, 1752.538
900.1465, 1754.341
900.6286, 1766.637
901.1107, 1779.332
901.5928, 1788.127
902.0750, 1791.183
902.5571, 1783.333
903.0392, 1770.211
903.5213, 1759.039
904.0034, 1751.615
904.4855, 1755.324
904.9677, 1770.543
905.4498, 1783.744
905.9319, 1783.762
906.4140, 1775.817
906.8961, 1768.376
907.3782, 1762.316
907.8604, 1766.898
908.3425, 1782.509
908.8246, 1786.827
909.3067, 1768.317
909.7888, 1750.366
910.2709, 1766.031
910.7530, 1809.473
911.2351, 1831.141
911.7172, 1828.791
912.1993, 1819.982
912.6815, 1807.650
913.1636, 1787.472
913.6457, 1750.434
914.1278, 1711.969
914.6099, 1709.181
915.0920, 1752.904
915.5742, 1774.475
916.0563, 1757.774
916.5384, 1751.817
917.0205, 1780.485
917.5026, 1812.187
917.9847, 1816.359
918.4669, 1798.416
918.9490, 1787.632
919.4311, 1787.048
919.9132, 1788.162
920.3953, 1792.223
920.8774, 1796.361
921.3596, 1799.607
921.8417, 1802.210
922.3238, 1802.984
922.8059, 1802.344
923.2880, 1807.112
923.7701, 1824.423
924.2523, 1839.226
924.7344, 1847.087
925.2165, 1851.204
925.6986, 1852.941
926.1807, 1853.050
926.6628, 1851.721
927.1450, 1848.859
927.6271, 1848.411
928.1092, 1856.255
928.5913, 1862.282
929.0734, 1856.503
929.5555, 1848.080
930.0377, 1843.901
930.5198, 1847.454
931.0019, 1867.674
931.4840, 1911.702
931.9661, 1949.101
932.4482, 1948.899
932.9304, 1937.787
933.4125, 1943.244
933.8946, 1960.220
934.3767, 1978.664
934.8588, 1995.603
935.3409, 2010.043
935.8231, 2021.590
936.3052, 2030.019
936.7873, 2033.321
937.2694, 2034.146
937.7515, 2032.231
938.2336, 2032.329
938.7158, 2052.537
939.1979, 2096.883
939.6800, 2142.435
940.1621, 2167.130
940.6442, 2182.418
941.1263, 2214.661
941.6085, 2257.055
942.0906, 2279.159
942.5727, 2281.094
943.0548, 2291.742
943.5369, 2324.292
944.0190, 2366.097
944.5012, 2401.847
944.9833, 2433.508
945.4654, 2469.819
945.9475, 2510.243
946.4296, 2545.120
946.9117, 2572.488
947.3939, 2601.999
947.8760, 2639.610
948.3581, 2681.423
948.8402, 2723.178
949.3223, 2764.477
949.8044, 2788.877
950.2866, 2794.477
950.7687, 2802.799
951.2508, 2820.135
951.7329, 2836.463
952.2150, 2845.126
952.6971, 2845.299
953.1793, 2833.190
953.6614, 2806.170
954.1435, 2780.423
954.6256, 2752.340
955.1077, 2740.254
955.5898, 2756.073
956.0720, 2775.567
956.5541, 2773.492
957.0362, 2756.284
957.5183, 2753.803
958.0004, 2769.067
958.4825, 2791.839
958.9647, 2831.758
959.4468, 2857.695
959.9289, 2851.469
960.4110, 2832.562
960.8931, 2819.574
961.3752, 2813.294
961.8574, 2825.820
962.3395, 2866.986
962.8216, 2907.157
963.3037, 2945.627
963.7858, 2981.136
964.2679, 3009.687
964.7501, 3037.030
965.2322, 3073.011
965.7143, 3118.180
966.1964, 3156.554
966.6785, 3174.737
967.1606, 3205.714
967.6428, 3271.246
968.1249, 3330.425
968.6070, 3358.760
969.0891, 3367.823
969.5712, 3376.373
970.0533, 3385.420
970.5355, 3390.389
971.0176, 3387.982
971.4997, 3385.646
971.9818, 3397.381
972.4639, 3397.468
972.9460, 3367.804
973.4282, 3314.237
973.9103, 3246.360
974.3924, 3161.934
974.8745, 3084.280
975.3566, 3021.241
975.8387, 2960.224
976.3209, 2893.512
976.8030, 2830.299
977.2851, 2783.620
977.7672, 2745.217
978.2493, 2690.728
978.7314, 2608.990
979.2136, 2544.355
979.6957, 2519.254
980.1778, 2497.378
980.6599, 2464.314
981.1420, 2426.657
981.6241, 2386.535
982.1063, 2348.049
982.5884, 2323.391
983.0705, 2321.747
983.5526, 2310.245
984.0347, 2268.649
984.5168, 2226.685
984.9990, 2195.846
985.4811, 2175.295
985.9632, 2168.818
986.4453, 2171.200
986.9274, 2164.492
987.4095, 2140.915
987.8917, 2116.895
988.3738, 2101.212
988.8559, 2083.647
989.3380, 2053.985
989.8201, 2021.634
990.3022, 1997.250
990.7844, 1981.376
991.2665, 1970.292
991.7486, 1965.714
992.2307, 1958.090
992.7128, 1932.371
993.1949, 1914.119
993.6771, 1933.123
994.1592, 1962.007
994.6413, 1958.520
995.1234, 1926.006
995.6055, 1909.567
996.0876, 1933.853
996.5698, 1954.832
997.0519, 1949.656
997.5340, 1936.830
998.0161, 1928.128
998.4982, 1921.010
998.9803, 1908.333
999.4625, 1891.398
999.9446, 1882.115
1000.427, 1887.556
1000.909, 1895.548
1001.391, 1902.562
1001.873, 1907.830
1002.355, 1912.318
1002.837, 1913.863
1003.319, 1908.698
1003.802, 1897.135
1004.284, 1883.550
1004.766, 1866.005
1005.248, 1854.275
1005.730, 1857.079
1006.212, 1863.321
1006.694, 1868.439
1007.176, 1869.438
1007.658, 1859.086
1008.141, 1839.504
1008.623, 1828.360
1009.105, 1837.665
1009.587, 1846.155
1010.069, 1838.563
1010.551, 1832.228
1011.033, 1844.310
1011.515, 1863.576
1011.997, 1874.222
1012.480, 1874.243
1012.962, 1868.633
1013.444, 1854.091
1013.926, 1843.916
1014.408, 1843.266
1014.890, 1849.389
1015.372, 1868.198
1015.854, 1888.069
1016.337, 1890.828
1016.819, 1877.074
1017.301, 1866.403
1017.783, 1868.375
1018.265, 1867.995
1018.747, 1851.960
1019.229, 1839.977
1019.711, 1851.526
1020.193, 1870.879
1020.676, 1877.980
1021.158, 1871.244
1021.640, 1858.415
1022.122, 1837.913
1022.604, 1819.032
1023.086, 1799.520
1023.568, 1788.348
1024.050, 1794.473
1024.533, 1809.388
1025.015, 1822.358
1025.497, 1833.546
1025.979, 1851.698
1026.461, 1892.063
1026.943, 1911.939
1027.425, 1869.563
1027.907, 1841.081
1028.390, 1881.866
1028.872, 1944.826
1029.354, 1976.014
1029.836, 1978.102
1030.318, 1987.129
1030.800, 2019.068
1031.282, 2035.575
1031.764, 2012.666
1032.246, 1994.810
1032.729, 1997.915
1033.211, 2017.064
1033.693, 2053.512
1034.175, 2102.036
1034.657, 2141.703
1035.139, 2167.759
1035.621, 2192.161
1036.103, 2207.362
1036.585, 2232.082
1037.068, 2281.252
1037.550, 2335.048
1038.032, 2377.979
1038.514, 2411.020
1038.996, 2438.448
1039.478, 2458.793
1039.960, 2476.154
1040.442, 2423.993
1040.925, 2522.561
1041.407, 2562.044
1041.889, 2584.251
1042.371, 2590.112
1042.853, 2530.664
1043.335, 2555.549
1043.817, 2546.638
1044.299, 2536.340
1044.781, 2448.893
1045.264, 2422.680
1045.746, 2369.035
1046.228, 2318.946
1046.710, 2297.702
1047.192, 2291.338
1047.674, 2270.389
1048.156, 2233.582
1048.638, 2196.073
1049.120, 2156.281
1049.603, 2121.070
1050.085, 2090.744
1050.567, 2068.456
1051.049, 2057.113
1051.531, 2052.970
1052.013, 2051.394
1052.495, 2051.811
1052.977, 2039.460
1053.460, 2011.535
1053.942, 1990.048
1054.424, 1977.841
1054.906, 1974.680
1055.388, 1982.184
1055.870, 1990.601
1056.352, 1986.097
1056.834, 1971.770
1057.317, 1964.054
1057.799, 1962.670
1058.281, 1954.805
1058.763, 1939.110
1059.245, 1921.471
1059.727, 1903.901
1060.209, 1893.859
1060.691, 1900.675
1061.173, 1917.363
1061.656, 1928.615
1062.138, 1933.725
1062.620, 1926.851
1063.102, 1909.319
1063.584, 1890.268
1064.066, 1873.232
1064.548, 1863.094
1065.030, 1864.606
1065.512, 1872.076
1065.995, 1878.456
1066.477, 1882.916
1066.959, 1884.130
1067.441, 1881.666
1067.923, 1868.875
1068.405, 1848.708
1068.887, 1847.171
1069.369, 1883.017
1069.852, 1919.583
1070.334, 1915.569
1070.816, 1890.870
1071.298, 1863.113
1071.780, 1838.821
1072.262, 1829.759
1072.744, 1834.009
1073.226, 1838.690
1073.708, 1838.552
1074.191, 1838.398
1074.673, 1837.254
1075.155, 1842.236
1075.637, 1868.518
1076.119, 1896.908
1076.601, 1903.549
1077.083, 1893.445
1077.565, 1881.033
1078.047, 1869.988
1078.530, 1867.082
1079.012, 1884.573
1079.494, 1898.143
1079.976, 1899.161
1080.458, 1890.460
1080.940, 1864.188
1081.422, 1834.908
1081.904, 1827.673
1082.386, 1843.614
1082.869, 1852.704
1083.351, 1849.027
1083.833, 1838.944
1084.315, 1807.598
1084.797, 1788.880
1085.279, 1810.661
1085.761, 1843.213
1086.243, 1851.453
1086.726, 1840.856
1087.208, 1842.507
1087.690, 1869.694
1088.172, 1874.415
1088.654, 1840.885
1089.136, 1816.238
1089.618, 1814.068
1090.100, 1823.419
1090.583, 1837.769
1091.065, 1855.614
1091.547, 1874.333
1092.029, 1894.758
1092.511, 1903.168
1092.993, 1897.846
1093.475, 1891.172
1093.957, 1885.386
1094.439, 1878.140
1094.922, 1867.594
1095.404, 1857.520
1095.886, 1853.750
1096.368, 1854.550
1096.850, 1851.099
1097.332, 1844.342
1097.814, 1842.636
1098.296, 1846.424
1098.778, 1849.250
1099.261, 1848.980
1099.743, 1854.988
1100.225, 1878.654
1100.707, 1905.830
1101.189, 1909.144
1101.671, 1899.680
1102.153, 1903.273
1102.635, 1914.939
1103.118, 1913.305
1103.600, 1897.227
1104.082, 1889.585
1104.564, 1905.080
1105.046, 1919.642
1105.528, 1902.979
1106.010, 1884.391
1106.492, 1896.268
1106.974, 1922.586
1107.457, 1946.696
1107.939, 1962.866
1108.421, 1961.563
1108.903, 1938.696
1109.385, 1923.984
1109.867, 1938.547
1110.349, 1952.317
1110.831, 1947.883
1111.313, 1942.198
1111.796, 1948.363
1112.278, 1961.655
1112.760, 1976.372
1113.242, 1991.453
1113.724, 1996.517
1114.206, 1975.794
1114.688, 1969.366
1115.170, 1990.145
1115.653, 2008.626
1116.135, 2012.778
1116.617, 2012.997
1117.099, 2017.810
1117.581, 2026.884
1118.063, 2040.384
1118.545, 2060.769
1119.027, 2069.232
1119.510, 2062.897
1119.992, 2058.799
1120.474, 2060.209
1120.956, 2066.973
1121.438, 2079.774
1121.920, 2093.988
1122.402, 2103.639
1122.884, 2108.018
1123.366, 2100.572
1123.849, 2084.343
1124.331, 2079.028
1124.813, 2085.326
1125.295, 2091.008
1125.777, 2092.140
1126.259, 2099.087
1126.741, 2125.211
1127.223, 2147.336
1127.705, 2117.174
1128.188, 2074.566
1128.670, 2088.364
1129.152, 2136.782
1129.634, 2177.041
1130.116, 2198.765
1130.598, 2197.957
1131.080, 2168.879
1131.562, 2148.191
1132.045, 2164.000
1132.527, 2186.908
1133.009, 2202.485
1133.491, 2213.383
1133.973, 2226.435
1134.455, 2235.503
1134.937, 2223.248
1135.419, 2187.587
1135.901, 2167.828
1136.384, 2183.895
1136.866, 2194.393
1137.348, 2190.030
1137.830, 2185.456
1138.312, 2182.460
1138.794, 2186.053
1139.276, 2205.360
1139.758, 2233.075
1140.240, 2243.101
1140.723, 2232.070
1141.205, 2223.017
1141.687, 2214.719
1142.169, 2218.929
1142.651, 2240.334
1143.133, 2255.024
1143.615, 2248.812
1144.097, 2231.894
1144.580, 2216.404
1145.062, 2202.914
1145.544, 2190.321
1146.026, 2181.904
1146.508, 2195.516
1146.990, 2225.883
1147.472, 2249.170
1147.954, 2257.105
1148.437, 2245.438
1148.919, 2204.735
1149.401, 2170.060
1149.883, 2186.403
1150.365, 2216.154
1150.847, 2223.346
1151.329, 2215.643
1151.811, 2201.263
1152.293, 2185.026
1152.776, 2174.647
1153.258, 2172.196
1153.740, 2172.343
1154.222, 2179.043
1154.704, 2179.868
1155.186, 2161.408
1155.668, 2146.838
1156.150, 2154.796
1156.632, 2170.644
1157.115, 2179.447
1157.597, 2180.010
1158.079, 2163.291
1158.561, 2116.987
1159.043, 2096.635
1159.525, 2112.043
1160.007, 2115.423
1160.489, 2092.360
1160.972, 2068.422
1161.454, 2059.061
1161.936, 2060.914
1162.418, 2072.094
1162.900, 2087.719
1163.382, 2085.549
1163.864, 2070.389
1164.346, 2064.841
1164.828, 2068.467
1165.311, 2066.288
1165.793, 2054.648
1166.275, 2043.668
1166.757, 2039.521
1167.239, 2041.182
1167.721, 2056.434
1168.203, 2068.390
1168.685, 2054.805
1169.167, 2029.911
1169.650, 2007.715
1170.132, 1993.152
1170.614, 1996.634
1171.096, 2021.737
1171.578, 2032.607
1172.060, 2007.109
1172.542, 1984.773
1173.024, 1973.019
1173.507, 1968.600
1173.989, 1975.914
1174.471, 1983.376
1174.953, 1976.501
1175.435, 1961.020
1175.917, 1949.018
1176.399, 1911.411
1176.881, 1927.237
1177.364, 1934.418
1177.846, 1933.433
1178.328, 1899.793
1178.810, 1908.320
1179.292, 1899.949
1179.774, 1890.884
1180.256, 1905.346
1180.738, 1876.455
1181.220, 1894.530
1181.703, 1898.936
1182.185, 1903.578
1182.667, 1907.106
1183.149, 1905.122
1183.631, 1898.543
1184.113, 1895.346
1184.595, 1899.567
1185.077, 1904.218
1185.559, 1902.715
1186.042, 1903.370
1186.524, 1917.979
1187.006, 1929.876
1187.488, 1920.679
1187.970, 1901.424
1188.452, 1889.290
1188.934, 1885.600
1189.416, 1891.020
1189.899, 1915.473
1190.381, 1925.715
1190.863, 1917.867
1191.345, 1903.854
1191.827, 1882.330
1192.309, 1872.693
1192.791, 1891.513
1193.273, 1916.218
1193.755, 1908.132
1194.238, 1878.073
1194.720, 1870.902
1195.202, 1881.531
1195.684, 1889.530
1196.166, 1893.093
1196.648, 1890.971
1197.130, 1885.245
1197.612, 1892.342
1198.094, 1925.761
1198.577, 1953.539
1199.059, 1941.391
1199.541, 1921.275
1200.023, 1917.959
1200.505, 1921.408
1200.987, 1920.982
1201.469, 1918.183
1201.951, 1921.189
1202.434, 1930.276
1202.916, 1924.572
1203.398, 1880.499
1203.880, 1859.169
1204.362, 1872.530
1204.844, 1886.407
1205.326, 1892.994
1205.808, 1892.153
1206.291, 1880.347
1206.773, 1870.424
1207.255, 1887.241
1207.737, 1924.197
1208.219, 1948.097
1208.701, 1960.164
1209.183, 1963.831
1209.665, 1961.753
1210.147, 1962.695
1210.630, 1969.557
1211.112, 1984.313
1211.594, 2010.337
1212.076, 2031.741
1212.558, 2033.862
1213.040, 2027.028
1213.522, 2011.362
1214.004, 1998.662
1214.486, 2003.988
1214.969, 2019.772
1215.451, 2031.821
1215.933, 2038.528
1216.415, 2041.839
1216.897, 2037.343
1217.379, 2039.207
1217.861, 2052.598
1218.343, 2059.645
1218.826, 2053.409
1219.308, 2047.891
1219.790, 2052.520
1220.272, 2060.583
1220.754, 2061.855
1221.236, 2058.961
1221.718, 2059.485
1222.200, 2063.868
1222.682, 2075.475
1223.165, 2092.356
1223.647, 2108.877
1224.129, 2122.884
1224.611, 2130.252
1225.093, 2127.823
1225.575, 2132.006
1226.057, 2160.522
1226.539, 2190.194
1227.021, 2214.738
1227.504, 2227.357
1227.986, 2213.456
1228.468, 2190.555
1228.950, 2183.631
1229.432, 2190.864
1229.914, 2197.231
1230.396, 2201.460
1230.878, 2211.037
1231.361, 2226.946
1231.843, 2244.156
1232.325, 2262.210
1232.807, 2278.700
1233.289, 2292.639
1233.771, 2301.220
1234.253, 2300.963
1234.735, 2295.598
1235.218, 2290.590
1235.700, 2285.705
1236.182, 2279.614
1236.664, 2273.720
1237.146, 2260.923
1237.628, 2252.289
1238.110, 2286.923
1238.592, 2373.666
1239.074, 2440.405
1239.557, 2449.537
1240.039, 2453.451
1240.521, 2459.039
1241.003, 2468.752
1241.485, 2488.846
1241.967, 2504.926
1242.449, 2501.040
1242.931, 2493.313
1243.413, 2516.174
1243.896, 2563.224
1244.378, 2576.324
1244.860, 2560.043
1245.342, 2572.237
1245.824, 2612.709
1246.306, 2649.424
1246.788, 2672.905
1247.270, 2682.515
1247.753, 2676.417
1248.235, 2673.278
1248.717, 2686.446
1249.199, 2711.968
1249.681, 2763.818
1250.163, 2809.703
1250.645, 2807.908
1251.127, 2790.208
1251.609, 2812.288
1252.092, 2865.814
1252.574, 2883.586
1253.056, 2851.366
1253.538, 2848.998
1254.020, 2884.291
1254.502, 2919.529
1254.984, 2950.917
1255.466, 2963.873
1255.948, 2951.018
1256.431, 2943.728
1256.913, 2972.495
1257.395, 3010.043
1257.877, 3010.124
1258.359, 2994.746
1258.841, 2997.831
1259.323, 3011.703
1259.805, 3025.970
1260.288, 3038.011
1260.770, 3043.937
1261.252, 3044.432
1261.734, 3052.936
1262.216, 3081.972
1262.698, 3099.150
1263.180, 3097.078
1263.662, 3087.869
1264.145, 3069.123
1264.627, 3055.063
1265.109, 3055.001
1265.591, 3059.045
1266.073, 3054.295
1266.555, 3045.303
1267.037, 3047.655
1267.519, 3056.264
1268.001, 3051.751
1268.484, 3038.210
1268.966, 3030.750
1269.448, 3028.044
1269.930, 3015.583
1270.412, 2989.076
1270.894, 2961.539
1271.376, 2937.774
1271.858, 2918.117
##END=



