##NAMES=Aegirine
##RRUFFID=R040054
##IDEAL CHEMISTRY=NaFe^3+^Si_2_O_6_
##LOCALITY=Mont Saint-Hilaire, Rouville County, Quebec, Canada
##OWNER=RRUFF
##SOURCE=Bob Downs
##DESCRIPTION=Black cleavage fragments
##STATUS=The identification of this mineral has been confirmed by X-ray diffraction and chemical analysis
##URL=rruff.info/R040054
##MEASURED CHEMISTRY=(Na_0.96_Ca_0.04_)(Fe_0.86_Ti_0.07_Mn_0.06_Mg_0.02_)(Si_0.97_Al_0.03_)_2_O_6_
127.3076, 522.8441
127.7897, 540.5234
128.2718, 557.7137
128.7539, 574.2596
129.2360, 589.7773
129.7182, 604.3912
130.2003, 617.8013
130.6824, 629.7238
131.1645, 640.2479
131.6466, 648.7380
132.1287, 652.6225
132.6109, 652.5322
133.0930, 655.5488
133.5751, 668.3795
134.0572, 687.9160
134.5393, 692.0197
135.0215, 677.5819
135.5036, 655.9730
135.9857, 643.0540
136.4678, 639.6026
136.9499, 638.8817
137.4320, 638.1851
137.9142, 637.4368
138.3963, 638.0215
138.8784, 641.0522
139.3605, 644.6265
139.8426, 643.0134
140.3247, 634.0797
140.8069, 625.2154
141.2890, 620.9008
141.7711, 622.1799
142.2532, 624.9313
142.7353, 629.6469
143.2174, 635.8408
143.6996, 639.2408
144.1817, 637.6884
144.6638, 635.7853
145.1459, 637.1741
145.6280, 642.7255
146.1101, 650.2606
146.5923, 661.1798
147.0744, 676.4623
147.5565, 684.3207
148.0386, 678.6076
148.5207, 668.4671
149.0028, 664.6196
149.4850, 670.3376
149.9671, 679.0275
150.4492, 689.6023
150.9313, 703.5083
151.4134, 716.2048
151.8955, 726.1278
152.3777, 735.1445
152.8598, 746.2667
153.3419, 761.9419
153.8240, 777.9308
154.3061, 792.8314
154.7882, 804.4675
155.2704, 817.8941
155.7525, 835.6378
156.2346, 856.0907
156.7167, 873.8080
157.1988, 883.3549
157.6809, 892.5231
158.1631, 905.6984
158.6452, 929.3442
159.1273, 951.3892
159.6094, 969.3704
160.0915, 983.2908
160.5736, 993.5807
161.0558, 1003.838
161.5379, 1008.910
162.0200, 1004.345
162.5021, 979.6566
162.9842, 952.8183
163.4663, 931.0026
163.9485, 914.5172
164.4306, 901.0822
164.9127, 888.6281
165.3948, 878.8538
165.8769, 873.9512
166.3591, 876.0030
166.8412, 882.4924
167.3233, 892.4811
167.8054, 906.3548
168.2875, 921.1934
168.7696, 931.4352
169.2518, 941.3382
169.7339, 959.1459
170.2160, 997.4455
170.6981, 1041.375
171.1802, 1077.141
171.6623, 1100.789
172.1445, 1120.544
172.6266, 1141.905
173.1087, 1164.573
173.5908, 1187.684
174.0729, 1207.190
174.5550, 1227.671
175.0372, 1255.578
175.5193, 1294.915
176.0014, 1338.284
176.4835, 1378.762
176.9656, 1416.661
177.4477, 1454.208
177.9299, 1497.217
178.4120, 1540.818
178.8941, 1574.124
179.3762, 1592.822
179.8583, 1600.821
180.3404, 1602.048
180.8226, 1596.597
181.3047, 1587.110
181.7868, 1572.050
182.2689, 1553.984
182.7510, 1541.347
183.2331, 1533.235
183.7153, 1533.501
184.1974, 1555.009
184.6795, 1599.211
185.1616, 1648.727
185.6437, 1680.462
186.1258, 1698.323
186.6080, 1723.100
187.0901, 1769.892
187.5722, 1831.182
188.0543, 1882.875
188.5364, 1923.310
189.0185, 1958.306
189.5007, 2000.681
189.9828, 2049.048
190.4649, 2084.705
190.9470, 2098.076
191.4291, 2090.267
191.9112, 2067.088
192.3934, 2027.381
192.8755, 1975.808
193.3576, 1917.694
193.8397, 1853.101
194.3218, 1785.699
194.8039, 1715.289
195.2861, 1641.339
195.7682, 1574.210
196.2503, 1514.466
196.7324, 1461.553
197.2145, 1414.715
197.6967, 1373.684
198.1788, 1337.714
198.6609, 1304.517
199.1430, 1273.607
199.6251, 1254.355
200.1072, 1249.507
200.5894, 1256.014
201.0715, 1264.150
201.5536, 1273.402
202.0357, 1285.881
202.5178, 1304.882
202.9999, 1331.722
203.4821, 1355.031
203.9642, 1370.633
204.4463, 1381.052
204.9284, 1401.841
205.4105, 1435.482
205.8926, 1473.300
206.3748, 1508.135
206.8569, 1539.924
207.3390, 1569.196
207.8211, 1596.227
208.3032, 1621.101
208.7853, 1640.457
209.2675, 1652.801
209.7496, 1662.820
210.2317, 1675.319
210.7138, 1690.585
211.1959, 1708.096
211.6780, 1730.566
212.1602, 1758.264
212.6423, 1772.631
213.1244, 1771.988
213.6065, 1760.229
214.0886, 1743.422
214.5707, 1725.208
215.0529, 1692.214
215.5350, 1637.010
216.0171, 1556.573
216.4992, 1479.054
216.9813, 1403.636
217.4634, 1330.870
217.9456, 1261.899
218.4277, 1194.357
218.9098, 1134.676
219.3919, 1086.092
219.8740, 1050.135
220.3561, 1018.443
220.8383, 990.9763
221.3204, 967.5103
221.8025, 948.6835
222.2846, 936.8901
222.7667, 924.9427
223.2488, 909.3847
223.7310, 888.4439
224.2131, 870.6868
224.6952, 856.4838
225.1773, 845.3750
225.6594, 836.6978
226.1415, 830.2603
226.6237, 826.4058
227.1058, 825.8216
227.5879, 830.8496
228.0700, 833.3881
228.5521, 833.2188
229.0343, 830.6096
229.5164, 825.6194
229.9985, 815.5851
230.4806, 807.2628
230.9627, 804.4202
231.4448, 810.4181
231.9270, 814.4557
232.4091, 816.8836
232.8912, 817.1529
233.3733, 812.7264
233.8554, 799.4998
234.3375, 787.2504
234.8197, 781.3881
235.3018, 785.2426
235.7839, 788.2855
236.2660, 789.7175
236.7481, 789.9738
237.2302, 790.5483
237.7124, 790.7383
238.1945, 792.2007
238.6766, 796.5038
239.1587, 807.1232
239.6408, 813.1175
240.1229, 811.5840
240.6051, 804.5302
241.0872, 802.0908
241.5693, 807.6226
242.0514, 813.4064
242.5335, 813.9362
243.0156, 803.6860
243.4978, 799.5777
243.9799, 805.1218
244.4620, 818.5209
244.9441, 829.2433
245.4262, 836.4764
245.9083, 841.9747
246.3905, 846.7610
246.8726, 850.3860
247.3547, 854.3026
247.8368, 859.3828
248.3189, 865.1047
248.8010, 867.4302
249.2832, 862.8605
249.7653, 859.4710
250.2474, 863.5298
250.7295, 878.8370
251.2116, 893.1755
251.6937, 905.4588
252.1759, 915.7032
252.6580, 924.6627
253.1401, 932.3417
253.6222, 938.6882
254.1043, 942.3796
254.5864, 938.7929
255.0686, 943.8720
255.5507, 963.0219
256.0328, 994.1416
256.5149, 1016.881
256.9970, 1027.646
257.4792, 1035.121
257.9613, 1045.828
258.4434, 1060.768
258.9255, 1076.178
259.4076, 1092.586
259.8897, 1109.367
260.3719, 1121.095
260.8540, 1124.551
261.3361, 1127.986
261.8182, 1139.251
262.3003, 1163.104
262.7824, 1180.878
263.2646, 1188.432
263.7467, 1187.042
264.2288, 1187.019
264.7109, 1190.445
265.1930, 1191.562
265.6751, 1184.391
266.1573, 1165.531
266.6394, 1150.562
267.1215, 1143.011
267.6036, 1141.501
268.0857, 1135.665
268.5678, 1123.142
269.0500, 1111.597
269.5321, 1108.306
270.0142, 1115.851
270.4963, 1120.099
270.9784, 1117.235
271.4605, 1109.273
271.9427, 1107.084
272.4248, 1111.546
272.9069, 1119.512
273.3890, 1129.028
273.8711, 1140.442
274.3532, 1151.919
274.8354, 1163.543
275.3175, 1174.935
275.7996, 1184.631
276.2817, 1192.879
276.7638, 1198.886
277.2459, 1200.743
277.7281, 1197.792
278.2102, 1198.134
278.6923, 1203.680
279.1744, 1213.124
279.6565, 1221.428
280.1386, 1228.246
280.6208, 1235.555
281.1029, 1244.259
281.5850, 1254.325
282.0671, 1268.519
282.5492, 1289.279
283.0313, 1312.938
283.5135, 1327.844
283.9956, 1333.015
284.4777, 1337.458
284.9598, 1345.488
285.4419, 1357.431
285.9240, 1379.118
286.4062, 1414.258
286.8883, 1456.535
287.3704, 1492.371
287.8525, 1521.711
288.3346, 1546.257
288.8167, 1563.885
289.2989, 1576.258
289.7810, 1592.666
290.2631, 1615.774
290.7452, 1641.400
291.2273, 1661.622
291.7094, 1676.414
292.1916, 1689.570
292.6737, 1705.385
293.1558, 1721.966
293.6379, 1731.082
294.1200, 1730.212
294.6021, 1725.016
295.0843, 1724.101
295.5664, 1727.014
296.0485, 1729.943
296.5306, 1728.257
297.0127, 1724.984
297.4948, 1727.995
297.9770, 1739.629
298.4591, 1753.963
298.9412, 1763.917
299.4233, 1770.192
299.9054, 1775.828
300.3875, 1780.574
300.8697, 1786.221
301.3518, 1796.478
301.8339, 1812.313
302.3160, 1829.936
302.7981, 1843.844
303.2803, 1855.873
303.7624, 1871.008
304.2445, 1897.678
304.7266, 1926.433
305.2087, 1945.166
305.6909, 1951.196
306.1730, 1955.614
306.6551, 1970.920
307.1372, 1991.457
307.6193, 2005.890
308.1014, 2004.018
308.5836, 1996.286
309.0657, 1993.146
309.5478, 1996.074
310.0299, 1996.150
310.5120, 1989.776
310.9941, 1976.323
311.4763, 1954.610
311.9584, 1916.748
312.4405, 1876.027
312.9226, 1840.473
313.4047, 1810.278
313.8868, 1782.599
314.3690, 1758.795
314.8511, 1735.814
315.3332, 1709.799
315.8153, 1674.807
316.2974, 1640.565
316.7795, 1610.534
317.2617, 1584.751
317.7438, 1565.684
318.2259, 1556.687
318.7080, 1553.687
319.1901, 1553.199
319.6722, 1557.162
320.1544, 1560.678
320.6365, 1558.309
321.1186, 1551.450
321.6007, 1554.739
322.0828, 1578.096
322.5649, 1609.054
323.0471, 1639.092
323.5292, 1663.440
324.0113, 1690.440
324.4934, 1722.445
324.9755, 1758.508
325.4576, 1794.679
325.9398, 1827.081
326.4219, 1861.890
326.9040, 1902.394
327.3861, 1950.448
327.8682, 2001.573
328.3503, 2055.892
328.8325, 2113.001
329.3146, 2173.360
329.7967, 2236.043
330.2788, 2302.876
330.7609, 2373.080
331.2430, 2432.896
331.7252, 2516.820
332.2073, 2538.413
332.6894, 2675.596
333.1715, 2797.212
333.6536, 2904.085
334.1357, 2952.089
334.6179, 3076.131
335.1000, 3169.692
335.5821, 3261.998
336.0642, 3396.727
336.5463, 3453.288
337.0284, 3587.345
337.5106, 3690.482
337.9927, 3765.139
338.4748, 3833.369
338.9569, 3887.687
339.4390, 3933.266
339.9211, 3968.021
340.4033, 3997.467
340.8854, 4029.658
341.3675, 4066.722
341.8496, 4091.957
342.3317, 4100.091
342.8138, 4092.793
343.2960, 4079.698
343.7781, 4061.799
344.2602, 4034.346
344.7423, 3987.233
345.2244, 3922.475
345.7065, 3866.328
346.1887, 3831.292
346.6708, 3803.298
347.1529, 3748.858
347.6350, 3668.325
348.1171, 3576.021
348.5992, 3480.210
349.0814, 3381.689
349.5635, 3282.275
350.0456, 3180.326
350.5277, 3081.458
351.0098, 2994.393
351.4919, 2917.750
351.9741, 2841.604
352.4562, 2752.508
352.9383, 2662.531
353.4204, 2593.068
353.9025, 2549.021
354.3846, 2518.479
354.8668, 2493.225
355.3489, 2473.126
355.8310, 2458.412
356.3131, 2447.889
356.7952, 2443.622
357.2773, 2449.827
357.7595, 2468.149
358.2416, 2485.679
358.7237, 2488.388
359.2058, 2486.740
359.6879, 2495.370
360.1700, 2528.703
360.6522, 2566.451
361.1343, 2599.503
361.6164, 2627.406
362.0985, 2652.131
362.5806, 2671.744
363.0627, 2689.718
363.5449, 2709.115
364.0270, 2735.576
364.5091, 2758.592
364.9912, 2776.330
365.4734, 2788.781
365.9555, 2795.123
366.4376, 2792.081
366.9197, 2785.145
367.4018, 2777.358
367.8839, 2777.782
368.3661, 2766.433
368.8482, 2739.253
369.3303, 2699.682
369.8124, 2656.874
370.2945, 2601.734
370.7766, 2553.033
371.2588, 2518.015
371.7409, 2501.089
372.2230, 2485.974
372.7051, 2471.380
373.1872, 2459.535
373.6693, 2455.079
374.1515, 2460.754
374.6336, 2467.403
375.1157, 2470.593
375.5978, 2469.712
376.0799, 2479.147
376.5620, 2500.941
377.0442, 2529.555
377.5263, 2561.551
378.0084, 2597.489
378.4905, 2629.700
378.9726, 2655.308
379.4547, 2675.953
379.9369, 2699.919
380.4190, 2727.714
380.9011, 2754.818
381.3832, 2777.070
381.8653, 2795.264
382.3474, 2812.625
382.8296, 2829.363
383.3117, 2846.357
383.7938, 2868.100
384.2759, 2893.501
384.7580, 2913.497
385.2401, 2923.210
385.7223, 2923.722
386.2044, 2918.374
386.6865, 2908.324
387.1686, 2888.130
387.6507, 2851.024
388.1328, 2799.010
388.6150, 2737.819
389.0971, 2666.535
389.5792, 2588.999
390.0613, 2510.212
390.5434, 2430.552
391.0255, 2345.678
391.5077, 2240.913
391.9898, 2132.925
392.4719, 2040.171
392.9540, 1988.607
393.4361, 1936.366
393.9182, 1860.870
394.4004, 1766.269
394.8825, 1681.565
395.3646, 1619.263
395.8467, 1567.907
396.3288, 1520.356
396.8109, 1478.308
397.2931, 1436.781
397.7752, 1394.997
398.2573, 1353.417
398.7394, 1313.272
399.2215, 1273.472
399.7036, 1236.184
400.1858, 1201.506
400.6679, 1168.552
401.1500, 1142.492
401.6321, 1128.675
402.1142, 1118.351
402.5963, 1099.405
403.0785, 1065.866
403.5606, 1035.700
404.0427, 1013.170
404.5248, 997.9873
405.0069, 984.5803
405.4890, 973.1657
405.9712, 962.8282
406.4533, 952.0818
406.9354, 940.4660
407.4175, 933.6408
407.8996, 935.1893
408.3817, 939.5001
408.8639, 928.9400
409.3460, 902.7437
409.8281, 878.7078
410.3102, 871.8358
410.7923, 877.1158
411.2744, 872.3278
411.7566, 853.6092
412.2387, 832.7772
412.7208, 826.8246
413.2029, 831.9340
413.6850, 835.4322
414.1671, 828.7640
414.6493, 818.4225
415.1314, 813.9250
415.6135, 815.3962
416.0956, 815.1082
416.5777, 804.8810
417.0598, 790.3244
417.5420, 778.3800
418.0241, 771.8412
418.5062, 767.9536
418.9883, 766.3707
419.4704, 766.5157
419.9525, 766.2555
420.4347, 764.3646
420.9168, 762.0797
421.3989, 760.4703
421.8810, 761.2050
422.3631, 759.3525
422.8452, 749.8987
423.3274, 737.9953
423.8095, 731.8357
424.2916, 737.3693
424.7737, 743.9255
425.2558, 749.5427
425.7379, 754.3409
426.2201, 756.7502
426.7022, 755.7729
427.1843, 753.2098
427.6664, 750.5521
428.1486, 747.8525
428.6307, 744.7700
429.1128, 741.0079
429.5949, 736.8468
430.0770, 732.6266
430.5591, 727.3058
431.0413, 725.2965
431.5234, 731.3069
432.0055, 745.5413
432.4876, 754.6347
432.9697, 757.0142
433.4518, 755.9194
433.9340, 756.0107
434.4161, 757.1304
434.8982, 757.5112
435.3803, 756.8555
435.8624, 754.8547
436.3445, 749.1160
436.8267, 739.6625
437.3088, 732.3290
437.7909, 733.8430
438.2730, 740.6753
438.7551, 746.5186
439.2372, 749.1776
439.7194, 751.0296
440.2015, 755.6801
440.6836, 761.5759
441.1657, 763.6968
441.6478, 756.0546
442.1299, 746.1008
442.6121, 738.4135
443.0942, 733.2747
443.5763, 731.7722
444.0584, 735.5651
444.5405, 742.8411
445.0226, 751.3678
445.5048, 765.6023
445.9869, 775.9221
446.4690, 777.5718
446.9511, 770.3679
447.4332, 767.8429
447.9153, 774.0108
448.3975, 781.7687
448.8796, 786.7332
449.3617, 785.2998
449.8438, 788.6534
450.3259, 800.0078
450.8080, 815.1678
451.2902, 822.9055
451.7723, 820.4030
452.2544, 819.1703
452.7365, 824.7140
453.2186, 836.9281
453.7007, 846.3715
454.1829, 852.7007
454.6650, 857.7542
455.1471, 863.8137
455.6292, 870.6780
456.1113, 875.9517
456.5934, 878.3538
457.0756, 879.5747
457.5577, 880.9343
458.0398, 882.9490
458.5219, 889.5280
459.0040, 908.0439
459.4861, 931.2271
459.9683, 949.1158
460.4504, 961.3262
460.9325, 965.5721
461.4146, 951.7682
461.8967, 930.1561
462.3788, 917.7753
462.8610, 928.7375
463.3431, 944.1245
463.8252, 956.4297
464.3073, 965.2213
464.7894, 968.8705
465.2715, 961.1750
465.7537, 951.8102
466.2358, 947.3264
466.7179, 958.5303
467.2000, 961.3197
467.6821, 947.4202
468.1642, 925.1165
468.6464, 911.8406
469.1285, 913.1594
469.6106, 915.2399
470.0927, 913.5079
470.5748, 907.4098
471.0569, 903.7786
471.5391, 903.5256
472.0212, 904.0555
472.5033, 903.0706
472.9854, 900.5956
473.4675, 896.1320
473.9496, 888.3049
474.4318, 879.8140
474.9139, 878.8598
475.3960, 885.1935
475.8781, 890.0067
476.3602, 884.9456
476.8423, 874.7800
477.3245, 870.6447
477.8066, 873.6903
478.2887, 879.8071
478.7708, 886.6193
479.2529, 893.6132
479.7350, 899.6869
480.2172, 900.6754
480.6993, 903.9520
481.1814, 915.7493
481.6635, 934.7374
482.1456, 954.3537
482.6277, 975.5856
483.1099, 993.8011
483.5920, 1004.418
484.0741, 999.5402
484.5562, 1003.130
485.0383, 1025.809
485.5204, 1057.514
486.0026, 1083.564
486.4847, 1099.397
486.9668, 1114.398
487.4489, 1128.939
487.9310, 1143.106
488.4131, 1164.005
488.8953, 1195.186
489.3774, 1227.162
489.8595, 1253.354
490.3416, 1272.766
490.8238, 1293.611
491.3059, 1316.093
491.7880, 1341.401
492.2701, 1372.732
492.7522, 1410.084
493.2343, 1444.987
493.7165, 1475.403
494.1986, 1500.833
494.6807, 1518.181
495.1628, 1527.727
495.6449, 1534.898
496.1270, 1547.451
496.6092, 1559.650
497.0913, 1562.792
497.5734, 1553.281
498.0555, 1537.833
498.5376, 1521.396
499.0197, 1502.372
499.5019, 1477.334
499.9840, 1440.331
500.4661, 1401.210
500.9482, 1362.591
501.4303, 1324.761
501.9124, 1291.580
502.3946, 1264.686
502.8767, 1242.482
503.3588, 1224.042
503.8409, 1215.131
504.3230, 1200.576
504.8051, 1176.061
505.2873, 1146.573
505.7694, 1125.098
506.2515, 1113.734
506.7336, 1104.996
507.2157, 1096.301
507.6978, 1087.720
508.1800, 1080.878
508.6621, 1076.002
509.1442, 1071.907
509.6263, 1066.100
510.1084, 1059.580
510.5905, 1058.411
511.0727, 1065.643
511.5548, 1075.017
512.0369, 1076.865
512.5190, 1073.243
513.0011, 1071.239
513.4832, 1073.445
513.9653, 1079.781
514.4474, 1093.008
514.9296, 1113.351
515.4117, 1129.063
515.8938, 1127.658
516.3759, 1122.223
516.8580, 1124.425
517.3401, 1140.899
517.8223, 1160.100
518.3044, 1181.415
518.7865, 1203.836
519.2687, 1224.849
519.7508, 1241.736
520.2329, 1260.499
520.7150, 1282.685
521.1971, 1308.355
521.6793, 1337.479
522.1614, 1371.439
522.6435, 1405.944
523.1256, 1435.513
523.6077, 1458.934
524.0898, 1489.934
524.5720, 1531.534
525.0541, 1579.535
525.5362, 1628.892
526.0183, 1678.647
526.5004, 1724.039
526.9825, 1757.296
527.4647, 1786.273
527.9468, 1827.241
528.4289, 1880.126
528.9110, 1933.997
529.3931, 1978.095
529.8752, 2020.776
530.3574, 2071.323
530.8395, 2135.049
531.3216, 2201.438
531.8037, 2266.661
532.2858, 2331.908
532.7679, 2400.769
533.2501, 2477.449
533.7322, 2553.955
534.2143, 2624.743
534.6964, 2690.563
535.1785, 2764.409
535.6606, 2848.672
536.1428, 2939.585
536.6249, 3037.694
537.1070, 3146.138
537.5891, 3248.514
538.0712, 3343.869
538.5533, 3435.136
539.0355, 3527.980
539.5176, 3622.428
539.9997, 3715.227
540.4818, 3812.528
540.9639, 3904.058
541.4460, 3961.882
541.9282, 3987.850
542.4103, 4005.003
542.8924, 4039.598
543.3745, 4070.747
543.8566, 4067.540
544.3387, 4022.198
544.8209, 3961.958
545.3030, 3902.259
545.7851, 3839.079
546.2672, 3766.947
546.7493, 3668.062
547.2314, 3578.118
547.7136, 3514.090
548.1957, 3470.924
548.6778, 3421.477
549.1599, 3349.646
549.6420, 3285.447
550.1241, 3241.873
550.6063, 3223.991
551.0884, 3200.203
551.5705, 3167.374
552.0526, 3133.477
552.5347, 3106.056
553.0168, 3085.185
553.4990, 3070.311
553.9811, 3062.881
554.4632, 3059.074
554.9453, 3052.738
555.4274, 3043.781
555.9095, 3031.526
556.3917, 3009.012
556.8738, 2985.945
557.3559, 2980.093
557.8380, 2991.251
558.3201, 3000.132
558.8022, 2994.215
559.2844, 2979.580
559.7665, 2962.807
560.2486, 2950.177
560.7307, 2925.573
561.2128, 2867.082
561.6949, 2796.552
562.1771, 2749.536
562.6592, 2764.045
563.1413, 2766.617
563.6234, 2743.063
564.1055, 2695.406
564.5876, 2639.779
565.0698, 2571.045
565.5519, 2504.363
566.0340, 2448.458
566.5161, 2404.163
566.9982, 2360.958
567.4803, 2318.902
567.9625, 2275.944
568.4446, 2228.368
568.9267, 2177.378
569.4088, 2130.195
569.8909, 2089.029
570.3730, 2051.513
570.8552, 2012.063
571.3373, 1972.704
571.8194, 1938.527
572.3015, 1914.544
572.7836, 1895.319
573.2657, 1880.444
573.7479, 1870.077
574.2300, 1852.592
574.7121, 1816.632
575.1942, 1777.143
575.6763, 1745.347
576.1584, 1726.923
576.6406, 1708.583
577.1227, 1690.629
577.6048, 1672.604
578.0869, 1654.544
578.5690, 1637.653
579.0511, 1616.868
579.5333, 1588.685
580.0154, 1555.963
580.4975, 1531.301
580.9796, 1514.772
581.4617, 1497.596
581.9438, 1470.843
582.4260, 1439.528
582.9081, 1414.246
583.3902, 1395.749
583.8723, 1381.259
584.3544, 1371.545
584.8365, 1363.314
585.3187, 1352.320
585.8008, 1339.287
586.2829, 1320.739
586.7650, 1288.566
587.2471, 1250.148
587.7292, 1221.719
588.2114, 1217.267
588.6935, 1212.372
589.1756, 1200.216
589.6577, 1180.670
590.1398, 1161.296
590.6219, 1142.683
591.1041, 1123.010
591.5862, 1099.475
592.0683, 1071.654
592.5504, 1050.949
593.0325, 1039.553
593.5146, 1030.040
593.9968, 1011.631
594.4789, 986.5071
594.9610, 963.1195
595.4431, 942.5924
595.9252, 926.8431
596.4073, 922.8806
596.8895, 926.4714
597.3716, 924.8047
597.8537, 905.0720
598.3358, 883.1362
598.8179, 869.1312
599.3000, 863.9397
599.7822, 858.8258
600.2643, 853.9893
600.7464, 847.0590
601.2285, 836.2038
601.7106, 817.8687
602.1927, 802.8170
602.6749, 791.0001
603.1570, 782.3406
603.6391, 777.6763
604.1212, 777.5862
604.6033, 776.7963
605.0854, 773.7335
605.5676, 769.3886
606.0497, 766.0641
606.5318, 763.6400
607.0139, 761.3702
607.4960, 758.4330
607.9781, 755.5583
608.4603, 754.3426
608.9424, 754.8022
609.4245, 753.8160
609.9066, 750.0933
610.3887, 743.7875
610.8708, 734.2648
611.3530, 716.6261
611.8351, 705.1064
612.3172, 706.6970
612.7993, 714.3916
613.2814, 718.5587
613.7635, 716.7628
614.2457, 716.3951
614.7278, 720.0356
615.2099, 725.5328
615.6920, 724.3665
616.1741, 715.4581
616.6563, 707.3875
617.1384, 703.7834
617.6205, 704.4426
618.1026, 709.8877
618.5847, 720.0377
619.0668, 729.6923
619.5490, 735.3658
620.0311, 737.5474
620.5132, 736.4241
620.9953, 731.3260
621.4774, 725.4666
621.9595, 718.7365
622.4417, 712.7736
622.9238, 709.6064
623.4059, 713.1980
623.8880, 715.4838
624.3701, 713.5728
624.8522, 709.5015
625.3344, 709.0961
625.8165, 713.7628
626.2986, 719.2200
626.7807, 725.4476
627.2628, 731.6751
627.7449, 728.6147
628.2271, 715.1344
628.7092, 703.2515
629.1913, 704.2244
629.6734, 713.7217
630.1555, 722.0816
630.6376, 728.6351
631.1198, 731.5134
631.6019, 725.5767
632.0840, 716.1042
632.5661, 710.5413
633.0482, 714.3167
633.5303, 717.5540
634.0125, 715.5204
634.4946, 710.6614
634.9767, 708.3932
635.4588, 711.1041
635.9409, 714.1004
636.4230, 717.0872
636.9052, 719.7087
637.3873, 719.7068
637.8694, 716.9443
638.3515, 711.9670
638.8336, 703.6747
639.3157, 692.8593
639.7979, 685.1534
640.2800, 680.6872
640.7621, 679.5287
641.2442, 682.6068
641.7263, 688.7920
642.2084, 697.1934
642.6906, 709.3309
643.1727, 718.4807
643.6548, 718.9974
644.1370, 714.1894
644.6191, 708.7787
645.1012, 700.4548
645.5833, 695.5638
646.0654, 698.7059
646.5475, 706.3983
647.0297, 707.3107
647.5118, 696.3892
647.9939, 689.0051
648.4760, 692.4375
648.9581, 705.0287
649.4402, 711.4835
649.9224, 711.3666
650.4045, 709.5650
650.8866, 708.6233
651.3687, 708.9346
651.8508, 712.2291
652.3329, 719.0011
652.8151, 725.1819
653.2972, 725.2218
653.7793, 723.8990
654.2614, 727.3662
654.7435, 742.6056
655.2256, 754.0113
655.7078, 754.8221
656.1899, 749.2654
656.6720, 744.6538
657.1541, 740.6197
657.6362, 738.3629
658.1183, 737.6768
658.6005, 738.9735
659.0826, 745.3964
659.5647, 758.1931
660.0468, 768.1089
660.5289, 768.7425
661.0110, 763.3046
661.4932, 762.0297
661.9753, 764.8614
662.4574, 770.1949
662.9395, 775.6208
663.4216, 783.5300
663.9037, 798.8141
664.3859, 824.2161
664.8680, 844.8550
665.3501, 850.7967
665.8322, 850.7208
666.3143, 852.6605
666.7964, 854.9252
667.2786, 863.4360
667.7607, 880.6324
668.2428, 902.3174
668.7249, 921.6060
669.2070, 938.1278
669.6891, 954.0092
670.1713, 970.1847
670.6534, 985.6723
671.1355, 997.8486
671.6176, 1006.871
672.0997, 1014.014
672.5818, 1016.196
673.0640, 1019.234
673.5461, 1032.180
674.0282, 1053.903
674.5103, 1072.783
674.9924, 1080.986
675.4745, 1085.997
675.9567, 1093.303
676.4388, 1105.682
676.9209, 1111.503
677.4030, 1110.340
677.8851, 1102.668
678.3672, 1087.200
678.8494, 1061.155
679.3315, 1040.152
679.8136, 1026.614
680.2957, 1014.075
680.7778, 990.9499
681.2599, 959.9392
681.7421, 932.9362
682.2242, 914.2818
682.7063, 899.9892
683.1884, 888.3444
683.6705, 877.6898
684.1526, 864.5667
684.6348, 842.8327
685.1169, 822.8196
685.5990, 810.0278
686.0811, 803.7256
686.5632, 795.6853
687.0453, 784.6901
687.5275, 772.9098
688.0096, 760.6013
688.4917, 747.6489
688.9738, 737.9365
689.4559, 732.1171
689.9380, 726.4814
690.4202, 717.5331
690.9023, 706.4384
691.3844, 696.1551
691.8665, 686.6258
692.3486, 680.1616
692.8307, 682.3757
693.3129, 687.2855
693.7950, 687.0430
694.2771, 675.8355
694.7592, 666.9447
695.2413, 666.7077
695.7234, 670.6071
696.2056, 672.2546
696.6877, 670.1454
697.1698, 668.3443
697.6519, 668.6388
698.1340, 668.7944
698.6161, 661.0414
699.0983, 644.5636
699.5804, 633.5157
700.0625, 635.7294
700.5446, 644.9026
701.0267, 648.3680
701.5089, 647.0537
701.9910, 645.7657
702.4731, 648.5676
702.9552, 651.6253
703.4373, 650.6443
703.9194, 645.5630
704.4016, 644.1100
704.8837, 654.2383
705.3658, 663.5863
705.8479, 665.6589
706.3300, 659.1324
706.8121, 650.7035
707.2943, 638.9697
707.7764, 628.1158
708.2585, 622.4858
708.7406, 621.6548
709.2227, 619.8773
709.7048, 616.1989
710.1870, 613.0401
710.6691, 613.2524
711.1512, 615.7687
711.6333, 618.7209
712.1154, 621.8934
712.5975, 624.8578
713.0797, 627.4415
713.5618, 629.6407
714.0439, 631.4028
714.5260, 632.3834
715.0081, 633.2544
715.4902, 633.6997
715.9724, 634.1783
716.4545, 637.0535
716.9366, 643.3661
717.4187, 645.9166
717.9008, 639.7317
718.3829, 629.0895
718.8651, 626.9299
719.3472, 631.9029
719.8293, 634.6883
720.3114, 625.4890
720.7935, 614.2928
721.2756, 610.8216
721.7578, 615.3888
722.2399, 619.9216
722.7220, 623.3414
723.2041, 624.4731
723.6862, 621.6608
724.1683, 613.1813
724.6505, 609.3958
725.1326, 611.6739
725.6147, 616.1169
726.0968, 619.6397
726.5789, 622.3535
727.0610, 625.8091
727.5432, 630.1807
728.0253, 634.9385
728.5074, 642.5690
728.9895, 649.3743
729.4716, 647.7758
729.9537, 630.9003
730.4359, 616.9679
730.9180, 619.9882
731.4001, 630.1732
731.8822, 634.1032
732.3643, 621.1281
732.8464, 613.3575
733.3286, 615.5114
733.8107, 622.2396
734.2928, 621.1032
734.7749, 610.7295
735.2570, 603.7065
735.7391, 604.9465
736.2213, 610.4518
736.7034, 611.1715
737.1855, 608.6338
737.6676, 608.8849
738.1497, 617.8500
738.6318, 628.5234
739.1140, 637.1230
739.5961, 643.2929
740.0782, 645.7709
740.5603, 639.7032
741.0424, 634.3863
741.5245, 633.1650
742.0067, 635.9766
742.4888, 639.5021
742.9709, 644.0264
743.4530, 648.2888
743.9351, 650.9974
744.4172, 652.6094
744.8994, 655.9474
745.3815, 661.0511
745.8636, 665.9412
746.3457, 666.9656
746.8278, 667.9700
747.3099, 674.0925
747.7921, 687.2435
748.2742, 698.7474
748.7563, 707.9077
749.2384, 712.9130
749.7205, 712.2141
750.2026, 704.0099
750.6848, 693.1309
751.1669, 675.3705
751.6490, 662.2067
752.1311, 670.6629
752.6132, 698.5480
753.0953, 724.7750
753.5775, 746.2540
754.0596, 763.0834
754.5417, 772.6946
755.0238, 778.0182
755.5059, 784.1301
755.9880, 795.6586
756.4702, 803.7865
756.9523, 803.5132
757.4344, 798.0338
757.9165, 793.5849
758.3986, 795.7194
758.8807, 789.4363
759.3629, 770.6261
759.8450, 743.4326
760.3271, 715.3043
760.8092, 686.0560
761.2913, 665.4850
761.7734, 659.8795
762.2556, 661.4736
762.7377, 660.8077
763.2198, 657.7122
763.7019, 651.6440
764.1840, 638.9698
764.6661, 626.4553
765.1483, 617.0275
765.6304, 610.5756
766.1125, 606.2639
766.5947, 604.8787
767.0768, 604.1400
767.5589, 603.6750
768.0410, 603.2603
768.5231, 601.0230
769.0052, 596.8383
769.4874, 593.0059
769.9695, 591.8808
770.4516, 591.6639
770.9337, 587.9045
771.4158, 581.1716
771.8979, 577.4120
772.3801, 582.1545
772.8622, 589.2121
773.3443, 595.7625
773.8264, 601.9605
774.3085, 603.6864
774.7906, 599.7549
775.2728, 592.9648
775.7549, 582.2128
776.2370, 566.8158
776.7191, 566.4164
777.2012, 582.8788
777.6833, 599.0858
778.1655, 595.9789
778.6476, 583.1324
779.1297, 578.2860
779.6118, 583.8896
780.0939, 591.6426
780.5760, 601.7518
781.0582, 608.9333
781.5403, 607.9753
782.0224, 592.4114
782.5045, 581.2880
782.9866, 575.1840
783.4688, 572.9544
783.9509, 573.5406
784.4330, 576.9395
784.9151, 585.1058
785.3972, 599.3636
785.8793, 612.5502
786.3615, 614.7444
786.8436, 610.4805
787.3257, 607.5219
787.8078, 608.0508
788.2899, 609.2174
788.7720, 611.3925
789.2542, 612.6834
789.7363, 610.5112
790.2184, 599.5012
790.7005, 594.4273
791.1826, 597.5322
791.6647, 604.7388
792.1469, 612.0886
792.6290, 619.3793
793.1111, 619.6193
793.5932, 609.5570
794.0753, 596.9138
794.5574, 587.4112
795.0396, 582.4952
795.5217, 584.9611
796.0038, 602.6318
796.4859, 618.6530
796.9680, 629.1903
797.4501, 633.5712
797.9323, 629.7279
798.4144, 610.8663
798.8965, 599.8621
799.3786, 601.7396
799.8607, 611.3235
800.3428, 619.6174
800.8250, 626.6567
801.3071, 633.1545
801.7892, 639.6018
802.2713, 645.0378
802.7534, 648.0871
803.2355, 649.4202
803.7177, 650.4534
804.1998, 652.8381
804.6819, 653.6882
805.1640, 649.6956
805.6461, 644.0524
806.1282, 643.5776
806.6104, 648.8455
807.0925, 657.9312
807.5746, 672.1151
808.0567, 687.7603
808.5388, 696.3883
809.0209, 699.0349
809.5031, 700.3911
809.9852, 702.2906
810.4673, 704.0258
810.9494, 702.7833
811.4315, 700.8715
811.9136, 704.3915
812.3958, 719.6447
812.8779, 735.0677
813.3600, 747.4153
813.8421, 758.1270
814.3242, 773.3185
814.8063, 794.0479
815.2885, 810.2219
815.7706, 816.1602
816.2527, 817.4216
816.7348, 825.7667
817.2169, 838.7778
817.6990, 848.5026
818.1812, 845.2488
818.6633, 843.2435
819.1454, 852.5765
819.6275, 870.1765
820.1096, 882.7857
820.5917, 887.3439
821.0739, 890.2979
821.5560, 891.4946
822.0381, 893.0370
822.5202, 903.8215
823.0023, 923.5663
823.4844, 942.6260
823.9666, 957.5293
824.4487, 968.7651
824.9308, 974.7601
825.4129, 977.4028
825.8950, 982.3732
826.3771, 990.5013
826.8593, 1002.898
827.3414, 1026.811
827.8235, 1056.022
828.3056, 1065.611
828.7877, 1047.057
829.2698, 1036.969
829.7520, 1050.516
830.2341, 1078.750
830.7162, 1100.076
831.1983, 1114.996
831.6804, 1126.290
832.1625, 1130.265
832.6447, 1135.387
833.1268, 1147.421
833.6089, 1165.515
834.0910, 1186.887
834.5731, 1216.418
835.0552, 1242.224
835.5374, 1260.053
836.0195, 1272.937
836.5016, 1291.683
836.9837, 1316.629
837.4658, 1340.035
837.9479, 1358.147
838.4301, 1374.003
838.9122, 1392.703
839.3943, 1413.332
839.8764, 1432.817
840.3585, 1447.194
840.8406, 1463.155
841.3228, 1485.121
841.8049, 1510.847
842.2870, 1532.401
842.7691, 1547.757
843.2512, 1564.136
843.7333, 1583.760
844.2155, 1605.174
844.6976, 1626.049
845.1797, 1646.177
845.6618, 1664.511
846.1439, 1678.860
846.6260, 1693.129
847.1082, 1711.069
847.5903, 1731.174
848.0724, 1750.391
848.5545, 1772.187
849.0366, 1787.026
849.5187, 1789.224
850.0009, 1786.026
850.4830, 1794.442
850.9651, 1814.910
851.4472, 1839.332
851.9293, 1868.182
852.4114, 1895.217
852.8936, 1906.276
853.3757, 1909.225
853.8578, 1921.007
854.3399, 1963.533
854.8220, 1998.739
855.3041, 2007.089
855.7863, 2001.295
856.2684, 2002.397
856.7505, 2010.106
857.2326, 2026.801
857.7147, 2056.157
858.1968, 2088.555
858.6790, 2107.455
859.1611, 2115.898
859.6432, 2124.928
860.1253, 2138.228
860.6074, 2151.982
861.0895, 2163.737
861.5717, 2174.374
862.0538, 2184.947
862.5359, 2197.002
863.0180, 2207.156
863.5001, 2215.131
863.9822, 2221.587
864.4644, 2227.351
864.9465, 2232.405
865.4286, 2238.413
865.9107, 2247.006
866.3928, 2250.359
866.8749, 2237.656
867.3571, 2216.122
867.8392, 2195.312
868.3213, 2179.432
868.8034, 2160.074
869.2855, 2131.589
869.7676, 2101.107
870.2498, 2075.376
870.7319, 2056.094
871.2140, 2030.471
871.6961, 1997.081
872.1782, 1962.140
872.6603, 1929.704
873.1425, 1900.558
873.6246, 1877.951
874.1067, 1863.578
874.5888, 1845.054
875.0709, 1809.628
875.5530, 1772.020
876.0352, 1744.921
876.5173, 1732.105
876.9994, 1709.795
877.4815, 1672.990
877.9636, 1639.791
878.4457, 1630.095
878.9279, 1634.883
879.4100, 1617.742
879.8921, 1578.417
880.3742, 1541.164
880.8563, 1521.019
881.3384, 1510.728
881.8206, 1509.425
882.3027, 1517.379
882.7848, 1512.938
883.2669, 1488.392
883.7490, 1462.892
884.2311, 1443.807
884.7133, 1430.793
885.1954, 1423.213
885.6775, 1420.796
886.1596, 1418.545
886.6417, 1413.141
887.1238, 1406.777
887.6060, 1399.467
888.0881, 1392.438
888.5702, 1390.831
889.0523, 1410.614
889.5344, 1417.731
890.0166, 1397.042
890.4987, 1359.806
890.9808, 1347.754
891.4630, 1361.529
891.9451, 1374.196
892.4272, 1374.637
892.9093, 1370.268
893.3914, 1370.876
893.8735, 1374.298
894.3557, 1375.795
894.8378, 1371.393
895.3199, 1367.575
895.8020, 1370.239
896.2841, 1372.542
896.7662, 1359.690
897.2484, 1326.748
897.7305, 1312.283
898.2126, 1326.881
898.6947, 1350.166
899.1768, 1355.299
899.6589, 1348.721
900.1411, 1343.101
900.6232, 1343.025
901.1053, 1341.298
901.5874, 1326.393
902.0695, 1313.949
902.5516, 1321.711
903.0338, 1362.546
903.5159, 1378.702
903.9980, 1362.784
904.4801, 1342.442
904.9622, 1349.479
905.4443, 1371.832
905.9265, 1378.644
906.4086, 1366.115
906.8907, 1355.172
907.3728, 1364.551
907.8549, 1375.154
908.3370, 1369.988
908.8192, 1345.432
909.3013, 1336.624
909.7834, 1347.667
910.2655, 1362.796
910.7476, 1372.195
911.2297, 1378.205
911.7119, 1391.846
912.1940, 1411.265
912.6761, 1423.580
913.1582, 1409.563
913.6403, 1396.801
914.1224, 1405.405
914.6046, 1432.183
915.0867, 1450.257
915.5688, 1456.362
916.0509, 1458.773
916.5330, 1458.045
917.0151, 1456.853
917.4973, 1463.662
917.9794, 1476.539
918.4615, 1486.583
918.9436, 1486.818
919.4257, 1487.686
919.9078, 1497.313
920.3900, 1511.992
920.8721, 1525.100
921.3542, 1532.612
921.8363, 1545.281
922.3184, 1566.660
922.8005, 1589.209
923.2827, 1597.767
923.7648, 1596.756
924.2469, 1608.764
924.7290, 1640.744
925.2111, 1669.377
925.6932, 1670.831
926.1754, 1663.671
926.6575, 1665.129
927.1396, 1678.428
927.6217, 1701.336
928.1038, 1741.347
928.5859, 1777.626
929.0681, 1790.449
929.5502, 1785.075
930.0323, 1797.557
930.5144, 1827.651
930.9965, 1858.390
931.4786, 1872.109
931.9608, 1887.269
932.4429, 1922.048
932.9250, 1975.646
933.4071, 2017.221
933.8892, 2036.715
934.3713, 2059.895
934.8535, 2095.378
935.3356, 2140.726
935.8177, 2191.311
936.2998, 2246.157
936.7819, 2302.407
937.2640, 2356.436
937.7462, 2385.118
938.2283, 2494.679
938.7104, 2588.677
939.1925, 2667.937
939.6746, 2688.323
940.1567, 2784.725
940.6389, 2850.688
941.1210, 2915.373
941.6031, 3022.485
942.0852, 3051.435
942.5673, 3157.874
943.0494, 3233.372
943.5316, 3323.056
944.0137, 3382.055
944.4958, 3450.533
944.9779, 3549.677
945.4600, 3726.613
945.9421, 3780.138
946.4243, 3915.637
946.9064, 4014.541
947.3885, 4078.841
947.8706, 4004.870
948.3527, 4109.446
948.8348, 4142.462
949.3170, 4172.564
949.7991, 4302.264
950.2812, 4248.403
950.7633, 4399.820
951.2454, 4431.944
951.7275, 4460.282
952.2097, 4486.742
952.6918, 4504.120
953.1739, 4509.829
953.6560, 4505.681
954.1381, 4490.608
954.6202, 4468.423
955.1024, 4451.256
955.5845, 4445.080
956.0666, 4442.375
956.5487, 4434.155
957.0308, 4429.869
957.5129, 4442.349
957.9951, 4477.547
958.4772, 4509.536
958.9593, 4532.839
959.4414, 4566.298
959.9235, 4639.622
960.4056, 4736.002
960.8878, 4818.408
961.3699, 4881.380
961.8520, 4950.671
962.3341, 5046.429
962.8162, 5145.937
963.2983, 5236.036
963.7805, 5317.513
964.2626, 5401.324
964.7447, 5488.063
965.2268, 5578.467
965.7089, 5671.646
966.1910, 5768.975
966.6732, 5874.883
967.1553, 5985.878
967.6374, 6091.178
968.1195, 6176.155
968.6016, 6264.804
969.0837, 6379.424
969.5659, 6492.372
970.0480, 6554.152
970.5301, 6562.752
971.0122, 6555.617
971.4943, 6540.752
971.9764, 6503.844
972.4586, 6429.599
972.9407, 6322.849
973.4228, 6190.814
973.9049, 6032.952
974.3870, 5850.894
974.8691, 5636.410
975.3513, 5407.240
975.8334, 5172.805
976.3155, 4933.231
976.7976, 4707.469
977.2797, 4493.732
977.7618, 4293.254
978.2440, 4107.122
978.7261, 3933.596
979.2082, 3771.473
979.6903, 3620.724
980.1724, 3482.272
980.6545, 3359.029
981.1367, 3242.027
981.6188, 3127.495
982.1009, 3019.186
982.5830, 2923.388
983.0651, 2839.345
983.5472, 2766.582
984.0294, 2706.316
984.5115, 2651.129
984.9936, 2600.363
985.4757, 2549.706
985.9578, 2493.125
986.4399, 2424.829
986.9221, 2370.385
987.4042, 2333.072
987.8863, 2297.502
988.3684, 2248.489
988.8505, 2193.124
989.3326, 2149.962
989.8148, 2117.597
990.2969, 2081.871
990.7790, 2027.366
991.2611, 1976.391
991.7432, 1940.776
992.2253, 1916.174
992.7075, 1888.635
993.1896, 1857.690
993.6717, 1828.636
994.1538, 1803.796
994.6359, 1779.420
995.1180, 1749.471
995.6002, 1716.846
996.0823, 1685.452
996.5644, 1651.748
997.0465, 1630.528
997.5286, 1632.660
998.0107, 1637.053
998.4929, 1627.187
998.9750, 1603.505
999.4571, 1570.766
999.9392, 1529.588
1000.421, 1497.756
1000.903, 1498.256
1001.386, 1506.021
1001.868, 1501.883
1002.350, 1485.829
1002.832, 1466.758
1003.314, 1442.581
1003.796, 1422.384
1004.278, 1409.563
1004.760, 1401.099
1005.242, 1392.305
1005.725, 1382.857
1006.207, 1371.237
1006.689, 1354.671
1007.171, 1341.006
1007.653, 1334.033
1008.135, 1332.136
1008.617, 1334.566
1009.099, 1343.764
1009.582, 1345.703
1010.064, 1339.959
1010.546, 1329.469
1011.028, 1310.040
1011.510, 1290.881
1011.992, 1287.780
1012.474, 1298.798
1012.956, 1307.314
1013.439, 1308.333
1013.921, 1305.143
1014.403, 1296.800
1014.885, 1286.031
1015.367, 1278.900
1015.849, 1275.449
1016.331, 1276.365
1016.813, 1282.414
1017.295, 1291.000
1017.778, 1304.600
1018.260, 1317.014
1018.742, 1319.899
1019.224, 1306.115
1019.706, 1302.421
1020.188, 1311.078
1020.670, 1323.745
1021.152, 1337.117
1021.635, 1349.354
1022.117, 1353.428
1022.599, 1350.970
1023.081, 1351.521
1023.563, 1364.418
1024.045, 1375.868
1024.527, 1374.666
1025.009, 1370.477
1025.491, 1386.461
1025.974, 1424.050
1026.456, 1460.121
1026.938, 1490.136
1027.420, 1518.142
1027.902, 1548.237
1028.384, 1579.601
1028.866, 1609.423
1029.348, 1634.439
1029.830, 1671.608
1030.313, 1726.284
1030.795, 1785.155
1031.277, 1842.184
1031.759, 1896.498
1032.241, 1939.432
1032.723, 1974.747
1033.205, 2023.963
1033.687, 2110.706
1034.170, 2201.012
1034.652, 2279.900
1035.134, 2351.106
1035.616, 2419.217
1036.098, 2479.944
1036.580, 2567.887
1037.062, 2693.589
1037.544, 2819.428
1038.026, 2899.795
1038.509, 2959.135
1038.991, 3032.926
1039.473, 3126.831
1039.955, 3211.657
1040.437, 3279.572
1040.919, 3340.111
1041.401, 3400.131
1041.883, 3453.898
1042.365, 3478.359
1042.848, 3474.655
1043.330, 3448.405
1043.812, 3402.821
1044.294, 3334.447
1044.776, 3234.428
1045.258, 3113.655
1045.740, 2983.786
1046.222, 2841.761
1046.705, 2710.791
1047.187, 2592.840
1047.669, 2480.802
1048.151, 2368.883
1048.633, 2260.149
1049.115, 2157.579
1049.597, 2060.833
1050.079, 1976.201
1050.562, 1911.295
1051.044, 1850.811
1051.526, 1789.694
1052.008, 1732.049
1052.490, 1690.405
1052.972, 1661.720
1053.454, 1632.235
1053.936, 1597.723
1054.418, 1562.753
1054.901, 1525.868
1055.383, 1493.099
1055.865, 1471.323
1056.347, 1461.931
1056.829, 1452.444
1057.311, 1443.340
1057.793, 1431.136
1058.275, 1411.333
1058.757, 1388.546
1059.240, 1368.886
1059.722, 1351.990
1060.204, 1336.180
1060.686, 1320.117
1061.168, 1306.599
1061.650, 1296.389
1062.132, 1288.041
1062.614, 1281.712
1063.097, 1275.883
1063.579, 1260.303
1064.061, 1233.137
1064.543, 1212.322
1065.025, 1216.016
1065.507, 1223.786
1065.989, 1222.120
1066.471, 1212.445
1066.953, 1206.484
1067.436, 1204.846
1067.918, 1199.895
1068.400, 1187.120
1068.882, 1173.218
1069.364, 1166.431
1069.846, 1163.860
1070.328, 1160.911
1070.810, 1155.293
1071.292, 1152.214
1071.775, 1152.932
1072.257, 1153.938
1072.739, 1151.307
1073.221, 1146.923
1073.703, 1150.837
1074.185, 1160.547
1074.667, 1161.049
1075.150, 1128.009
1075.632, 1103.845
1076.114, 1113.258
1076.596, 1137.318
1077.078, 1144.032
1077.560, 1133.204
1078.042, 1122.929
1078.524, 1115.698
1079.006, 1110.302
1079.489, 1105.471
1079.971, 1102.100
1080.453, 1101.563
1080.935, 1104.241
1081.417, 1106.246
1081.899, 1107.500
1082.381, 1108.220
1082.863, 1108.676
1083.345, 1108.331
1083.828, 1104.316
1084.310, 1099.083
1084.792, 1098.376
1085.274, 1109.998
1085.756, 1113.915
1086.238, 1102.827
1086.720, 1088.547
1087.202, 1079.837
1087.685, 1076.125
1088.167, 1074.646
1088.649, 1074.905
1089.131, 1072.588
1089.613, 1060.741
1090.095, 1050.172
1090.577, 1046.908
1091.059, 1049.268
1091.542, 1055.640
1092.024, 1067.501
1092.506, 1069.694
1092.988, 1058.769
1093.470, 1045.889
1093.952, 1040.570
1094.434, 1040.562
1094.916, 1045.129
1095.398, 1054.311
1095.880, 1059.239
1096.363, 1058.102
1096.845, 1056.125
1097.327, 1054.579
1097.809, 1053.991
1098.291, 1056.769
1098.773, 1061.118
1099.255, 1062.807
1099.737, 1058.917
1100.220, 1056.588
1100.702, 1060.705
1101.184, 1063.367
1101.666, 1056.448
1102.148, 1042.149
1102.630, 1044.228
1103.112, 1060.153
1103.594, 1070.628
1104.077, 1057.733
1104.559, 1043.902
1105.041, 1041.835
1105.523, 1046.337
1106.005, 1048.693
1106.487, 1048.751
1106.969, 1046.894
1107.451, 1042.770
1107.933, 1040.494
1108.416, 1047.422
1108.898, 1055.502
1109.380, 1055.508
1109.862, 1047.821
1110.344, 1043.816
1110.826, 1045.067
1111.308, 1047.492
1111.790, 1050.760
1112.272, 1053.245
1112.755, 1049.735
1113.237, 1044.369
1113.719, 1045.727
1114.201, 1057.738
1114.683, 1065.651
1115.165, 1063.808
1115.647, 1060.862
1116.129, 1062.254
1116.612, 1065.238
1117.094, 1056.496
1117.576, 1039.422
1118.058, 1027.808
1118.540, 1031.044
1119.022, 1035.628
1119.504, 1034.502
1119.986, 1033.317
1120.469, 1038.419
1120.951, 1050.204
1121.433, 1057.242
1121.915, 1059.402
1122.397, 1059.429
1122.879, 1058.603
1123.361, 1056.914
1123.843, 1054.307
1124.325, 1050.785
1124.807, 1045.740
1125.290, 1037.547
1125.772, 1035.904
1126.254, 1042.845
1126.736, 1052.399
1127.218, 1057.416
1127.700, 1062.110
1128.182, 1074.482
1128.664, 1094.571
1129.147, 1101.352
1129.629, 1088.245
1130.111, 1075.333
1130.593, 1068.719
1131.075, 1064.538
1131.557, 1052.959
1132.039, 1039.766
1132.521, 1038.238
1133.004, 1056.370
1133.486, 1065.069
1133.968, 1054.691
1134.450, 1038.861
1134.932, 1021.335
1135.414, 1004.980
1135.896, 1004.747
1136.378, 1016.102
1136.860, 1021.447
1137.343, 1009.654
1137.825, 996.5237
1138.307, 986.1971
1138.789, 978.2654
1139.271, 974.5889
1139.753, 974.8594
1140.235, 962.5859
1140.717, 938.5181
1141.199, 919.0789
1141.682, 921.4050
1142.164, 924.1499
1142.646, 913.7532
1143.128, 895.2411
1143.610, 877.8689
1144.092, 861.6010
1144.574, 849.1274
1145.056, 841.1754
1145.539, 833.2435
1146.021, 821.5192
1146.503, 807.7601
1146.985, 791.3732
1147.467, 773.5842
1147.949, 763.3889
1148.431, 764.6256
1148.913, 755.1864
1149.396, 725.6494
1149.878, 697.7253
1150.360, 703.2450
1150.842, 723.2159
1151.324, 734.1462
1151.806, 732.0114
1152.288, 722.1572
1152.770, 700.9257
1153.252, 683.2829
1153.734, 675.3284
1154.217, 673.6849
1154.699, 675.6615
1155.181, 678.4113
1155.663, 675.9590
1156.145, 663.8446
1156.627, 653.6392
1157.109, 646.8289
1157.591, 642.0388
1158.074, 638.9207
1158.556, 637.0076
1159.038, 636.3018
1159.520, 635.6420
1160.002, 631.1028
1160.484, 609.8161
1160.966, 600.7651
1161.448, 617.7196
1161.931, 638.7039
1162.413, 641.7471
1162.895, 630.3616
1163.377, 623.8928
1163.859, 622.4615
1164.341, 621.5096
1164.823, 619.5518
1165.305, 616.3355
1165.787, 609.5474
1166.270, 603.1459
1166.752, 604.7201
1167.234, 613.4004
1167.716, 616.6399
1168.198, 613.1343
1168.680, 610.3417
1169.162, 615.3187
1169.644, 620.6420
1170.126, 622.8423
1170.609, 621.7349
1171.091, 613.9196
1171.573, 599.5472
1172.055, 595.1535
1172.537, 605.3683
1173.019, 617.1306
1173.501, 622.6392
1173.983, 622.4454
1174.466, 613.9673
1174.948, 598.8378
1175.430, 589.1843
1175.912, 584.8919
1176.394, 587.1097
1176.876, 598.9588
1177.358, 609.9086
1177.840, 607.1554
1178.323, 599.5486
1178.805, 598.4098
1179.287, 605.8212
1179.769, 602.6099
1180.251, 587.1656
1180.733, 573.6945
1181.215, 568.1837
1181.697, 569.1364
1182.179, 581.0698
1182.661, 595.8564
1183.144, 600.2518
1183.626, 587.6831
1184.108, 581.1359
1184.590, 581.0526
1185.072, 584.5952
1185.554, 592.7995
1186.036, 601.2798
1186.518, 604.7322
1187.001, 604.1669
1187.483, 601.6996
1187.965, 597.1998
1188.447, 591.6058
1188.929, 584.2816
1189.411, 578.4918
1189.893, 576.3170
1190.375, 577.9845
1190.858, 587.9410
1191.340, 602.6777
1191.822, 607.8403
1192.304, 593.6486
1192.786, 585.6135
1193.268, 587.0289
1193.750, 593.2916
1194.232, 604.5457
1194.714, 614.5169
1195.197, 609.9075
1195.679, 592.2037
1196.161, 581.9458
1196.643, 587.4584
1197.125, 591.7336
1197.607, 591.7149
1198.089, 589.3840
1198.571, 587.4801
1199.054, 585.2555
1199.536, 579.8572
1200.018, 570.9499
1200.500, 568.3997
1200.982, 576.4605
1201.464, 586.1686
1201.946, 596.8599
1202.428, 604.7382
1202.911, 600.8419
1203.393, 590.4359
1203.875, 581.9689
1204.357, 576.4468
1204.839, 579.5370
1205.321, 598.7556
1205.803, 612.4730
1206.285, 610.9542
1206.767, 601.2513
1207.250, 595.6492
1207.732, 593.5945
1208.214, 594.4827
1208.696, 600.0261
1209.178, 601.2717
1209.660, 593.9401
1210.142, 588.5913
1210.624, 591.2670
1211.106, 598.7162
1211.589, 606.7878
1212.071, 612.8707
1212.553, 609.4388
1213.035, 584.2385
1213.517, 574.7498
1213.999, 593.0606
1214.481, 609.7214
1214.963, 600.9563
1215.446, 579.7548
1215.928, 578.5403
1216.410, 591.6285
1216.892, 604.1938
1217.374, 617.2408
1217.856, 617.8141
1218.338, 598.8394
1218.820, 581.0068
1219.302, 583.8396
1219.785, 597.9497
1220.267, 598.7015
1220.749, 590.1942
1221.231, 585.8696
1221.713, 596.2535
1222.195, 602.0523
1222.677, 600.3522
1223.159, 596.5093
1223.641, 595.2969
1224.124, 595.5701
1224.606, 593.8733
1225.088, 591.2010
1225.570, 591.8359
1226.052, 603.6682
1226.534, 608.3209
1227.016, 601.9289
1227.498, 593.4417
1227.981, 595.2983
1228.463, 600.5635
1228.945, 590.8414
1229.427, 569.8876
1229.909, 564.6885
1230.391, 597.7292
1230.873, 617.2448
1231.355, 613.4564
1231.838, 602.9927
1232.320, 606.5280
1232.802, 616.2789
1233.284, 620.4952
1233.766, 618.4194
1234.248, 610.3693
1234.730, 590.3239
1235.212, 578.7151
1235.694, 580.1793
1236.177, 588.2244
1236.659, 600.8610
1237.141, 611.2604
1237.623, 606.0509
1238.105, 585.4528
1238.587, 575.1041
1239.069, 579.7236
1239.551, 586.7758
1240.033, 594.4142
1240.516, 600.6848
1240.998, 603.4396
1241.480, 602.9397
1241.962, 597.5420
1242.444, 587.4122
##END=



