##NAMES=Aenigmatite
##RRUFFID=R061088
##IDEAL CHEMISTRY=Na_4_(Fe^2+^_10_Ti^4+^_2_)O_4_[Si_12_O_36_]
##LOCALITY=Naujakasik, Greenland
##OWNER=RRUFF
##SOURCE=Michael Scott
##DESCRIPTION=Black prismatic crystals
##STATUS=The identification of this mineral has been confirmed by X-ray diffraction and chemical analysis
##URL=rruff.info/R061088
##MEASURED CHEMISTRY=(Na_1.72_Ca_0.28_)_Σ=2_(Fe^2+^_4.90_Mn_0.08_Mg_0.02_)_Σ=5_(Ti_0.85_Al_0.14_Fe^3+^_0.01_)_Σ=1_(Si_5.87_Al_0.13_)_Σ=6_O_20_
139.4677, 2478.424
139.9498, 2530.062
140.4319, 2591.149
140.9140, 2660.053
141.3962, 2750.244
141.8783, 2867.197
142.3604, 3002.656
142.8425, 3151.852
143.3246, 3313.369
143.8067, 3483.134
144.2889, 3659.951
144.7710, 3850.576
145.2531, 4023.612
145.7352, 4149.551
146.2173, 4207.825
146.6994, 4227.075
147.1816, 4263.842
147.6637, 4300.699
148.1458, 4310.502
148.6279, 4295.885
149.1100, 4267.745
149.5921, 4218.337
150.0743, 4158.481
150.5564, 4107.747
151.0385, 4071.541
151.5206, 4043.193
152.0027, 4013.641
152.4848, 3983.412
152.9670, 3946.654
153.4491, 3891.112
153.9312, 3825.785
154.4133, 3774.925
154.8954, 3748.515
155.3775, 3734.906
155.8597, 3716.399
156.3418, 3691.929
156.8239, 3665.816
157.3060, 3635.532
157.7881, 3603.762
158.2702, 3581.713
158.7524, 3575.733
159.2345, 3578.430
159.7166, 3580.522
160.1987, 3583.699
160.6808, 3580.928
161.1629, 3560.375
161.6451, 3526.645
162.1272, 3508.586
162.6093, 3522.758
163.0914, 3550.685
163.5735, 3572.254
164.0556, 3589.284
164.5378, 3593.390
165.0199, 3574.049
165.5020, 3533.241
165.9841, 3491.611
166.4662, 3451.821
166.9483, 3417.860
167.4305, 3392.478
167.9126, 3376.076
168.3947, 3367.591
168.8768, 3372.391
169.3589, 3390.609
169.8410, 3396.740
170.3232, 3375.896
170.8053, 3343.452
171.2874, 3313.108
171.7695, 3286.643
172.2516, 3260.900
172.7337, 3232.136
173.2159, 3199.806
173.6980, 3168.628
174.1801, 3130.983
174.6622, 3100.500
175.1443, 3093.008
175.6264, 3113.941
176.1086, 3140.504
176.5907, 3149.481
177.0728, 3139.530
177.5549, 3122.223
178.0370, 3093.811
178.5191, 3063.017
179.0013, 3036.647
179.4834, 3016.314
179.9655, 2997.646
180.4476, 2974.639
180.9297, 2946.143
181.4118, 2920.903
181.8940, 2902.673
182.3761, 2888.007
182.8582, 2875.868
183.3403, 2866.305
183.8224, 2856.843
184.3046, 2843.593
184.7867, 2825.423
185.2688, 2810.170
185.7509, 2804.001
186.2330, 2799.236
186.7151, 2789.443
187.1973, 2772.982
187.6794, 2756.927
188.1615, 2754.587
188.6436, 2772.020
189.1257, 2772.156
189.6078, 2723.259
190.0900, 2668.234
190.5721, 2635.715
191.0542, 2632.229
191.5363, 2638.349
192.0184, 2628.821
192.5005, 2598.838
192.9827, 2578.393
193.4648, 2585.582
193.9469, 2596.697
194.4290, 2596.019
194.9111, 2580.684
195.3932, 2561.945
195.8754, 2552.552
196.3575, 2553.656
196.8396, 2557.577
197.3217, 2572.229
197.8038, 2583.190
198.2859, 2577.896
198.7681, 2555.054
199.2502, 2530.631
199.7323, 2526.199
200.2144, 2546.776
200.6965, 2555.559
201.1786, 2532.073
201.6608, 2504.781
202.1429, 2490.083
202.6250, 2489.556
203.1071, 2491.827
203.5892, 2483.585
204.0713, 2462.888
204.5535, 2447.066
205.0356, 2448.047
205.5177, 2447.050
205.9998, 2431.365
206.4819, 2401.178
206.9640, 2369.512
207.4462, 2350.931
207.9283, 2346.958
208.4104, 2336.873
208.8925, 2315.184
209.3746, 2289.368
209.8567, 2260.250
210.3388, 2229.292
210.8210, 2202.350
211.3031, 2184.521
211.7852, 2175.814
212.2673, 2173.628
212.7494, 2188.850
213.2315, 2199.927
213.7137, 2192.586
214.1958, 2169.931
214.6779, 2146.563
215.1600, 2135.110
215.6421, 2135.061
216.1242, 2132.959
216.6064, 2126.633
217.0885, 2120.331
217.5706, 2116.622
218.0527, 2114.868
218.5348, 2112.792
219.0169, 2107.947
219.4991, 2100.941
219.9812, 2096.799
220.4633, 2097.565
220.9454, 2098.622
221.4275, 2096.246
221.9096, 2092.221
222.3918, 2090.913
222.8739, 2096.427
223.3560, 2106.908
223.8381, 2114.277
224.3202, 2117.374
224.8023, 2119.080
225.2845, 2122.977
225.7666, 2126.539
226.2487, 2124.589
226.7308, 2110.754
227.2129, 2091.030
227.6950, 2081.921
228.1772, 2087.984
228.6593, 2094.660
229.1414, 2093.976
229.6235, 2089.705
230.1056, 2087.609
230.5877, 2092.403
231.0699, 2098.343
231.5520, 2093.175
232.0341, 2072.806
232.5162, 2054.839
232.9983, 2049.999
233.4804, 2051.154
233.9626, 2050.916
234.4447, 2047.019
234.9268, 2041.232
235.4089, 2034.854
235.8910, 2027.400
236.3731, 2022.708
236.8553, 2023.130
237.3374, 2026.963
237.8195, 2034.608
238.3016, 2049.396
238.7837, 2059.254
239.2658, 2047.162
239.7480, 2013.027
240.2301, 1985.735
240.7122, 1975.836
241.1943, 1977.490
241.6764, 1985.568
242.1585, 2002.280
242.6407, 2014.617
243.1228, 2006.065
243.6049, 1981.109
244.0870, 1971.930
244.5691, 1998.713
245.0512, 2031.469
245.5334, 2030.635
246.0155, 1992.700
246.4976, 1957.732
246.9797, 1950.284
247.4618, 1962.339
247.9439, 1970.988
248.4261, 1970.722
248.9082, 1967.228
249.3903, 1969.541
249.8724, 1977.414
250.3545, 1976.946
250.8366, 1951.411
251.3188, 1917.382
251.8009, 1905.552
252.2830, 1923.782
252.7651, 1949.332
253.2472, 1960.265
253.7293, 1958.091
254.2115, 1954.582
254.6936, 1951.477
255.1757, 1948.240
255.6578, 1943.432
256.1399, 1936.945
256.6220, 1931.991
257.1042, 1930.953
257.5863, 1934.100
258.0684, 1939.818
258.5505, 1953.844
259.0326, 1965.902
259.5147, 1965.900
259.9969, 1955.628
260.4790, 1947.732
260.9611, 1951.165
261.4432, 1963.749
261.9253, 1970.760
262.4074, 1967.821
262.8896, 1964.547
263.3717, 1966.187
263.8538, 1970.709
264.3359, 1972.350
264.8180, 1967.686
265.3001, 1959.175
265.7823, 1955.512
266.2644, 1960.201
266.7465, 1964.513
267.2286, 1967.106
267.7107, 1968.276
268.1928, 1967.919
268.6750, 1965.924
269.1571, 1963.549
269.6392, 1963.254
270.1213, 1965.396
270.6034, 1969.417
271.0855, 1978.829
271.5677, 1988.126
272.0498, 1991.629
272.5319, 1988.365
273.0140, 1982.332
273.4961, 1978.808
273.9782, 1979.093
274.4604, 1978.141
274.9425, 1973.848
275.4246, 1970.210
275.9067, 1970.913
276.3888, 1975.123
276.8709, 1978.127
277.3531, 1974.624
277.8352, 1963.369
278.3173, 1959.848
278.7994, 1974.019
279.2815, 1985.798
279.7636, 1988.671
280.2458, 1984.213
280.7279, 1975.695
281.2100, 1963.901
281.6921, 1950.836
282.1742, 1950.031
282.6563, 1975.730
283.1385, 1995.225
283.6206, 2002.715
284.1027, 2000.193
284.5848, 1988.042
285.0669, 1965.511
285.5490, 1939.154
286.0312, 1923.176
286.5133, 1918.546
286.9954, 1922.542
287.4775, 1944.969
287.9596, 1968.954
288.4417, 1980.219
288.9239, 1975.246
289.4060, 1963.897
289.8881, 1955.819
290.3702, 1950.808
290.8523, 1951.410
291.3344, 1963.174
291.8166, 1976.477
292.2987, 1986.313
292.7808, 1992.175
293.2629, 1993.739
293.7450, 1985.978
294.2271, 1972.248
294.7093, 1970.227
295.1914, 1987.398
295.6735, 2005.725
296.1556, 2011.226
296.6377, 2007.379
297.1198, 2004.040
297.6020, 2004.729
298.0841, 2008.270
298.5662, 2012.716
299.0483, 2017.935
299.5304, 2025.314
300.0125, 2038.318
300.4947, 2053.759
300.9768, 2063.770
301.4589, 2066.034
301.9410, 2064.223
302.4231, 2057.377
302.9052, 2047.355
303.3874, 2044.965
303.8695, 2058.632
304.3516, 2079.122
304.8337, 2083.288
305.3158, 2063.820
305.7979, 2046.253
306.2801, 2041.255
306.7622, 2042.648
307.2443, 2039.858
307.7264, 2029.602
308.2085, 2017.053
308.6906, 2009.779
309.1728, 2009.835
309.6549, 2009.834
310.1370, 2014.635
310.6191, 2015.868
311.1012, 2001.409
311.5833, 1973.220
312.0655, 1949.756
312.5476, 1950.657
313.0297, 1979.855
313.5118, 1988.843
313.9939, 1955.988
314.4760, 1928.437
314.9582, 1929.161
315.4403, 1948.560
315.9224, 1965.297
316.4045, 1966.689
316.8866, 1955.455
317.3687, 1943.012
317.8509, 1924.837
318.3330, 1911.934
318.8151, 1907.000
319.2972, 1907.049
319.7793, 1909.883
320.2614, 1914.649
320.7436, 1920.227
321.2257, 1925.620
321.7078, 1932.145
322.1899, 1933.861
322.6720, 1922.530
323.1541, 1912.077
323.6363, 1912.557
324.1184, 1923.132
324.6005, 1933.034
325.0826, 1931.219
325.5647, 1919.212
326.0468, 1913.233
326.5290, 1917.213
327.0111, 1921.980
327.4932, 1922.823
327.9753, 1920.587
328.4574, 1916.938
328.9395, 1912.134
329.4217, 1906.597
329.9038, 1900.754
330.3859, 1894.573
330.8680, 1888.850
331.3501, 1885.358
331.8322, 1881.921
332.3144, 1873.504
332.7965, 1854.436
333.2786, 1840.931
333.7607, 1850.427
334.2428, 1874.563
334.7249, 1886.119
335.2070, 1874.091
335.6891, 1852.649
336.1713, 1845.058
336.6534, 1854.334
337.1355, 1859.870
337.6176, 1854.261
338.0997, 1845.455
338.5818, 1840.674
339.0640, 1841.036
339.5461, 1845.354
340.0282, 1853.619
340.5103, 1866.486
340.9924, 1872.711
341.4745, 1867.776
341.9567, 1861.978
342.4388, 1859.016
342.9209, 1858.362
343.4030, 1858.430
343.8851, 1858.395
344.3672, 1858.261
344.8494, 1858.175
345.3315, 1860.471
345.8136, 1859.191
346.2957, 1849.006
346.7778, 1838.136
347.2599, 1834.290
347.7421, 1839.093
348.2242, 1847.907
348.7063, 1855.801
349.1884, 1863.290
349.6705, 1867.334
350.1526, 1865.009
350.6348, 1861.675
351.1169, 1858.392
351.5990, 1855.949
352.0811, 1856.104
352.5632, 1861.044
353.0453, 1869.176
353.5275, 1875.189
354.0096, 1877.907
354.4917, 1881.932
354.9738, 1892.547
355.4559, 1904.974
355.9380, 1912.510
356.4202, 1911.822
356.9023, 1909.980
357.3844, 1912.187
357.8665, 1918.290
358.3486, 1928.432
358.8307, 1944.957
359.3129, 1962.044
359.7950, 1970.193
360.2771, 1968.789
360.7592, 1966.764
361.2413, 1965.208
361.7234, 1964.805
362.2056, 1968.493
362.6877, 1976.074
363.1698, 1979.696
363.6519, 1970.764
364.1340, 1948.801
364.6161, 1938.368
365.0983, 1947.684
365.5804, 1957.929
366.0625, 1959.976
366.5446, 1958.047
367.0267, 1961.838
367.5089, 1976.399
367.9910, 1995.630
368.4731, 2003.512
368.9552, 1992.161
369.4373, 1982.167
369.9194, 1972.734
370.4016, 1966.152
370.8837, 1965.437
371.3658, 1970.217
371.8479, 1976.120
372.3300, 1979.538
372.8121, 1980.505
373.2943, 1977.668
373.7764, 1970.185
374.2585, 1959.590
374.7406, 1942.718
375.2227, 1924.063
375.7048, 1912.080
376.1870, 1912.370
376.6691, 1918.699
377.1512, 1921.627
377.6333, 1920.897
378.1154, 1920.905
378.5975, 1925.746
379.0797, 1930.117
379.5618, 1926.751
380.0439, 1914.396
380.5260, 1899.716
381.0081, 1881.575
381.4902, 1864.107
381.9724, 1855.749
382.4545, 1858.383
382.9366, 1865.299
383.4187, 1870.796
383.9008, 1874.727
384.3829, 1876.823
384.8651, 1875.685
385.3472, 1874.037
385.8293, 1872.911
386.3114, 1872.401
386.7935, 1872.400
387.2756, 1872.807
387.7578, 1873.893
388.2399, 1876.761
388.7220, 1887.049
389.2041, 1890.455
389.6862, 1879.843
390.1683, 1867.017
390.6505, 1862.606
391.1326, 1867.319
391.6147, 1872.676
392.0968, 1867.786
392.5789, 1852.017
393.0610, 1847.770
393.5432, 1864.343
394.0253, 1880.643
394.5074, 1889.804
394.9895, 1892.499
395.4716, 1889.004
395.9537, 1876.467
396.4359, 1862.961
396.9180, 1862.417
397.4001, 1875.184
397.8822, 1882.495
398.3643, 1874.143
398.8464, 1861.545
399.3286, 1861.825
399.8107, 1877.216
400.2928, 1887.274
400.7749, 1876.815
401.2570, 1859.707
401.7391, 1857.848
402.2213, 1873.466
402.7034, 1888.583
403.1855, 1887.753
403.6676, 1871.477
404.1497, 1859.951
404.6318, 1854.943
405.1140, 1851.876
405.5961, 1846.611
406.0782, 1842.980
406.5603, 1849.611
407.0424, 1869.580
407.5245, 1893.231
408.0067, 1901.490
408.4888, 1884.554
408.9709, 1874.854
409.4530, 1878.226
409.9351, 1883.280
410.4172, 1884.549
410.8994, 1882.167
411.3815, 1878.607
411.8636, 1874.896
412.3457, 1871.624
412.8278, 1871.706
413.3099, 1877.455
413.7921, 1880.205
414.2742, 1872.769
414.7563, 1862.027
415.2384, 1854.940
415.7205, 1853.050
416.2026, 1853.089
416.6848, 1854.931
417.1669, 1856.970
417.6490, 1852.542
418.1311, 1838.339
418.6132, 1826.617
419.0953, 1832.107
419.5775, 1855.840
420.0596, 1871.746
420.5417, 1869.057
421.0238, 1867.644
421.5059, 1882.399
421.9880, 1907.716
422.4702, 1929.655
422.9523, 1941.379
423.4344, 1944.528
423.9165, 1941.951
424.3986, 1921.852
424.8807, 1916.261
425.3629, 1936.931
425.8450, 1962.045
426.3271, 1977.656
426.8092, 1982.776
427.2913, 1983.644
427.7734, 1983.598
428.2556, 1983.544
428.7377, 1990.654
429.2198, 2010.244
429.7019, 2026.165
430.1840, 2025.127
430.6661, 2019.605
431.1483, 2025.795
431.6304, 2050.098
432.1125, 2075.150
432.5946, 2085.354
433.0767, 2084.671
433.5588, 2087.740
434.0410, 2099.093
434.5231, 2109.125
435.0052, 2104.815
435.4873, 2085.769
435.9694, 2078.125
436.4515, 2093.460
436.9337, 2111.189
437.4158, 2119.809
437.8979, 2120.993
438.3800, 2119.618
438.8621, 2117.846
439.3442, 2116.292
439.8264, 2116.793
440.3085, 2123.845
440.7906, 2124.694
441.2727, 2115.728
441.7548, 2104.217
442.2369, 2093.374
442.7191, 2084.119
443.2012, 2077.308
443.6833, 2074.728
444.1654, 2074.743
444.6475, 2070.016
445.1296, 2058.083
445.6118, 2048.258
446.0939, 2047.922
446.5760, 2049.954
447.0581, 2046.216
447.5402, 2034.571
448.0223, 2022.690
448.5045, 2014.395
448.9866, 2009.410
449.4687, 2008.960
449.9508, 2013.844
450.4329, 2015.881
450.9150, 2006.485
451.3972, 1985.910
451.8793, 1971.019
452.3614, 1965.135
452.8435, 1960.930
453.3256, 1954.592
453.8077, 1948.488
454.2899, 1948.118
454.7720, 1955.176
455.2541, 1962.851
455.7362, 1959.271
456.2183, 1939.373
456.7004, 1925.467
457.1826, 1923.923
457.6647, 1922.512
458.1468, 1916.907
458.6289, 1907.702
459.1110, 1895.878
459.5931, 1878.957
460.0753, 1864.444
460.5574, 1870.448
461.0395, 1898.147
461.5216, 1911.932
462.0037, 1894.550
462.4858, 1865.826
462.9680, 1850.624
463.4501, 1849.127
463.9322, 1850.551
464.4143, 1855.390
464.8964, 1859.485
465.3785, 1858.120
465.8607, 1851.768
466.3428, 1843.940
466.8249, 1836.328
467.3070, 1829.610
467.7891, 1826.310
468.2712, 1830.260
468.7534, 1832.666
469.2355, 1837.618
469.7176, 1837.880
470.1997, 1821.840
470.6818, 1792.519
471.1639, 1768.986
471.6461, 1770.796
472.1282, 1793.139
472.6103, 1806.217
473.0924, 1807.202
473.5745, 1805.628
474.0566, 1802.495
474.5388, 1800.273
475.0209, 1802.515
475.5030, 1810.633
475.9851, 1818.920
476.4672, 1824.719
476.9493, 1828.040
477.4315, 1828.603
477.9136, 1826.343
478.3957, 1821.764
478.8778, 1813.776
479.3599, 1802.927
479.8420, 1801.208
480.3242, 1821.909
480.8063, 1834.466
481.2884, 1820.417
481.7705, 1798.249
482.2526, 1792.917
482.7347, 1810.211
483.2169, 1833.448
483.6990, 1840.901
484.1811, 1830.577
484.6632, 1828.632
485.1453, 1842.663
485.6274, 1854.812
486.1096, 1859.265
486.5917, 1856.821
487.0738, 1847.400
487.5559, 1828.481
488.0380, 1809.789
488.5201, 1802.339
489.0023, 1803.195
489.4844, 1800.228
489.9665, 1789.708
490.4486, 1779.983
490.9307, 1781.589
491.4128, 1795.563
491.8950, 1797.672
492.3771, 1774.580
492.8592, 1753.901
493.3413, 1751.619
493.8234, 1758.723
494.3055, 1759.472
494.7877, 1748.063
495.2698, 1730.722
495.7519, 1715.640
496.2340, 1701.519
496.7161, 1695.141
497.1982, 1707.622
497.6804, 1715.728
498.1625, 1705.151
498.6446, 1684.027
499.1267, 1668.775
499.6088, 1667.364
500.0909, 1670.161
500.5730, 1665.139
501.0551, 1654.329
501.5373, 1650.062
502.0194, 1657.413
502.5015, 1665.987
502.9836, 1662.632
503.4657, 1645.829
503.9478, 1637.076
504.4300, 1643.033
504.9121, 1650.910
505.3942, 1654.840
505.8763, 1656.108
506.3584, 1657.021
506.8405, 1658.548
507.3227, 1661.734
507.8048, 1669.322
508.2869, 1683.479
508.7690, 1692.988
509.2511, 1698.163
509.7332, 1697.764
510.2154, 1685.079
510.6975, 1667.491
511.1796, 1659.913
511.6617, 1670.274
512.1439, 1687.187
512.6260, 1700.307
513.1081, 1709.986
513.5902, 1717.311
514.0723, 1722.045
514.5544, 1726.400
515.0366, 1732.887
515.5187, 1741.801
516.0008, 1749.517
516.4829, 1757.693
516.9650, 1762.880
517.4471, 1762.007
517.9293, 1757.593
518.4114, 1752.722
518.8935, 1748.639
519.3756, 1746.557
519.8577, 1749.739
520.3398, 1759.668
520.8220, 1763.166
521.3041, 1755.875
521.7862, 1747.739
522.2683, 1742.315
522.7504, 1739.466
523.2325, 1738.844
523.7147, 1740.076
524.1968, 1744.181
524.6789, 1754.302
525.1610, 1767.809
525.6431, 1777.938
526.1252, 1783.310
526.6074, 1785.586
527.0895, 1785.046
527.5716, 1781.634
528.0537, 1785.526
528.5358, 1808.507
529.0179, 1823.489
529.5001, 1818.944
529.9822, 1805.577
530.4643, 1793.166
530.9464, 1785.087
531.4285, 1783.210
531.9106, 1792.803
532.3928, 1812.447
532.8749, 1823.426
533.3570, 1822.833
533.8391, 1820.725
534.3212, 1821.325
534.8033, 1823.600
535.2855, 1826.223
535.7676, 1829.221
536.2497, 1832.124
536.7318, 1837.222
537.2139, 1840.843
537.6960, 1834.659
538.1782, 1819.678
538.6603, 1810.131
539.1424, 1817.501
539.6245, 1837.108
540.1066, 1846.115
540.5887, 1836.590
541.0709, 1828.224
541.5530, 1821.944
542.0351, 1817.928
542.5172, 1818.361
542.9993, 1821.846
543.4814, 1822.027
543.9636, 1810.224
544.4457, 1795.072
544.9278, 1797.693
545.4099, 1818.535
545.8920, 1832.630
546.3741, 1829.047
546.8563, 1816.810
547.3384, 1808.734
547.8205, 1804.669
548.3026, 1804.160
548.7847, 1815.320
549.2668, 1822.558
549.7490, 1812.155
550.2311, 1790.335
550.7132, 1771.015
551.1953, 1760.700
551.6774, 1756.993
552.1595, 1755.904
552.6417, 1757.230
553.1238, 1763.164
553.6059, 1783.723
554.0880, 1796.174
554.5701, 1782.730
555.0522, 1754.010
555.5344, 1732.414
556.0165, 1726.041
556.4986, 1724.544
556.9807, 1719.350
557.4628, 1713.580
557.9449, 1717.044
558.4271, 1731.644
558.9092, 1742.533
559.3913, 1734.612
559.8734, 1708.703
560.3555, 1690.382
560.8376, 1681.858
561.3198, 1678.709
561.8019, 1688.109
562.2840, 1697.879
562.7661, 1695.148
563.2482, 1679.026
563.7303, 1660.467
564.2125, 1647.529
564.6946, 1638.966
565.1767, 1631.857
565.6588, 1626.291
566.1409, 1621.562
566.6230, 1618.791
567.1052, 1615.290
567.5873, 1603.994
568.0694, 1581.111
568.5515, 1567.142
569.0336, 1573.938
569.5157, 1582.505
569.9979, 1576.861
570.4800, 1562.724
570.9621, 1557.029
571.4442, 1568.525
571.9263, 1585.058
572.4084, 1583.349
572.8906, 1560.546
573.3727, 1540.646
573.8548, 1524.596
574.3369, 1513.368
574.8190, 1508.933
575.3011, 1509.366
575.7833, 1510.993
576.2654, 1514.621
576.7475, 1516.659
577.2296, 1514.136
577.7117, 1508.970
578.1938, 1503.431
578.6760, 1498.200
579.1581, 1495.429
579.6402, 1498.004
580.1223, 1504.355
580.6044, 1500.938
581.0865, 1475.827
581.5686, 1460.543
582.0507, 1466.738
582.5328, 1477.998
583.0150, 1483.321
583.4971, 1481.541
583.9792, 1475.182
584.4613, 1458.512
584.9434, 1442.435
585.4255, 1445.610
585.9077, 1465.197
586.3898, 1484.922
586.8719, 1500.637
587.3540, 1507.229
587.8361, 1494.023
588.3182, 1452.400
588.8004, 1433.931
589.2825, 1459.428
589.7646, 1482.240
590.2467, 1481.251
590.7288, 1469.513
591.2109, 1466.957
591.6931, 1479.194
592.1752, 1492.510
592.6573, 1488.815
593.1394, 1473.538
593.6215, 1474.646
594.1036, 1497.603
594.5858, 1510.273
595.0679, 1488.998
595.5500, 1450.340
596.0321, 1435.574
596.5142, 1453.085
596.9963, 1468.506
597.4785, 1476.399
597.9606, 1480.860
598.4427, 1483.827
598.9248, 1485.978
599.4069, 1488.206
599.8890, 1491.069
600.3712, 1493.524
600.8533, 1493.461
601.3354, 1490.753
601.8175, 1487.769
602.2996, 1483.741
602.7817, 1481.367
603.2639, 1484.664
603.7460, 1491.024
604.2281, 1493.554
604.7102, 1490.169
605.1923, 1485.149
605.6744, 1479.105
606.1566, 1472.957
606.6387, 1465.745
607.1208, 1458.755
607.6029, 1458.591
608.0850, 1471.704
608.5671, 1492.439
609.0493, 1499.691
609.5314, 1488.746
610.0135, 1480.338
610.4956, 1482.970
610.9777, 1484.402
611.4598, 1471.797
611.9420, 1449.101
612.4241, 1434.371
612.9062, 1436.715
613.3883, 1444.539
613.8704, 1452.451
614.3525, 1459.926
614.8347, 1466.463
615.3168, 1471.771
615.7989, 1473.594
616.2810, 1468.005
616.7631, 1456.583
617.2452, 1460.210
617.7274, 1493.310
618.2095, 1514.017
618.6916, 1502.009
619.1737, 1481.679
619.6558, 1469.023
620.1379, 1465.467
620.6201, 1469.316
621.1022, 1484.766
621.5843, 1503.293
622.0664, 1517.088
622.5485, 1527.049
623.0306, 1534.546
623.5128, 1540.009
623.9949, 1548.754
624.4770, 1569.071
624.9591, 1602.114
625.4412, 1623.753
625.9233, 1623.304
626.4055, 1626.773
626.8876, 1643.477
627.3697, 1665.059
627.8518, 1682.400
628.3339, 1694.547
628.8160, 1710.127
629.2982, 1735.858
629.7803, 1766.266
630.2624, 1794.624
630.7445, 1821.433
631.2266, 1848.530
631.7087, 1876.369
632.1909, 1908.556
632.6730, 1950.971
633.1551, 2005.482
633.6372, 2058.584
634.1193, 2112.804
634.6014, 2162.154
635.0836, 2196.073
635.5657, 2228.860
636.0478, 2278.138
636.5299, 2347.071
637.0120, 2420.394
637.4941, 2491.683
637.9763, 2560.331
638.4584, 2624.721
638.9405, 2685.244
639.4226, 2742.018
639.9047, 2794.450
640.3868, 2848.482
640.8690, 2917.195
641.3511, 3008.781
641.8332, 3075.767
642.3153, 3102.731
642.7974, 3121.933
643.2795, 3139.183
643.7617, 3155.711
644.2438, 3174.564
644.7259, 3196.700
645.2080, 3211.791
645.6901, 3212.344
646.1722, 3202.685
646.6544, 3189.439
647.1365, 3172.030
647.6186, 3145.180
648.1007, 3106.271
648.5828, 3058.460
649.0649, 3006.054
649.5471, 2948.041
650.0292, 2890.065
650.5113, 2830.887
650.9934, 2773.355
651.4755, 2716.850
651.9576, 2663.050
652.4398, 2615.764
652.9219, 2576.204
653.4040, 2532.357
653.8861, 2475.382
654.3682, 2411.655
654.8503, 2342.190
655.3325, 2271.737
655.8146, 2218.279
656.2967, 2190.191
656.7788, 2175.045
657.2609, 2154.365
657.7430, 2128.147
658.2252, 2095.235
658.7073, 2049.379
659.1894, 2005.623
659.6715, 1970.647
660.1536, 1939.388
660.6357, 1906.752
661.1179, 1871.898
661.6000, 1835.951
662.0821, 1791.185
662.5642, 1751.456
663.0463, 1734.429
663.5284, 1734.542
664.0106, 1735.036
664.4927, 1729.365
664.9748, 1718.437
665.4569, 1702.547
665.9390, 1681.295
666.4211, 1663.122
666.9033, 1649.279
667.3854, 1636.047
667.8675, 1616.956
668.3496, 1600.972
668.8317, 1603.031
669.3138, 1625.482
669.7960, 1634.907
670.2781, 1610.218
670.7602, 1578.716
671.2423, 1558.916
671.7244, 1547.824
672.2065, 1537.911
672.6887, 1526.720
673.1708, 1516.040
673.6529, 1506.697
674.1350, 1499.353
674.6171, 1502.546
675.0992, 1520.850
675.5814, 1532.383
676.0635, 1526.981
676.5456, 1514.124
677.0277, 1504.633
677.5098, 1498.376
677.9919, 1494.012
678.4741, 1496.163
678.9562, 1494.845
679.4383, 1481.322
679.9204, 1463.443
680.4025, 1452.760
680.8846, 1450.786
681.3668, 1449.233
681.8489, 1439.365
682.3310, 1425.827
682.8131, 1422.409
683.2952, 1429.405
683.7773, 1436.004
684.2595, 1421.444
684.7416, 1434.283
685.2237, 1441.599
685.7058, 1443.690
686.1879, 1424.905
686.6700, 1433.077
687.1522, 1430.445
687.6343, 1427.371
688.1164, 1424.497
688.5985, 1420.179
689.0806, 1423.853
689.5627, 1423.085
690.0449, 1407.632
690.5270, 1389.304
691.0091, 1386.381
691.4912, 1394.510
691.9733, 1396.724
692.4554, 1389.694
692.9376, 1378.834
693.4197, 1368.112
693.9018, 1357.560
694.3839, 1347.570
694.8660, 1338.031
695.3481, 1329.215
695.8303, 1321.623
696.3124, 1314.287
696.7945, 1303.526
697.2766, 1292.966
697.7587, 1292.376
698.2408, 1309.594
698.7230, 1324.434
699.2051, 1324.673
699.6872, 1313.502
700.1693, 1288.022
700.6514, 1253.384
701.1335, 1232.593
701.6157, 1239.752
702.0978, 1260.217
702.5799, 1262.847
703.0620, 1243.808
703.5441, 1233.131
704.0262, 1235.708
704.5084, 1239.704
704.9905, 1240.789
705.4726, 1238.738
705.9547, 1232.320
706.4368, 1219.655
706.9189, 1210.100
707.4011, 1207.313
707.8832, 1206.910
708.3653, 1206.968
708.8474, 1206.917
709.3295, 1205.104
709.8116, 1201.340
710.2938, 1200.015
710.7759, 1210.791
711.2580, 1227.930
711.7401, 1225.869
712.2222, 1203.736
712.7043, 1187.533
713.1865, 1187.563
713.6686, 1194.671
714.1507, 1197.240
714.6328, 1194.565
715.1149, 1195.143
715.5970, 1205.015
716.0792, 1210.288
716.5613, 1203.906
717.0434, 1194.800
717.5255, 1190.643
718.0076, 1191.857
718.4897, 1194.786
718.9719, 1199.411
719.4540, 1202.760
719.9361, 1201.328
720.4182, 1196.443
720.9003, 1190.951
721.3824, 1185.414
721.8646, 1178.757
722.3467, 1169.430
722.8288, 1159.828
723.3109, 1159.754
723.7930, 1173.451
724.2751, 1179.828
724.7573, 1170.814
725.2394, 1162.064
725.7215, 1165.464
726.2036, 1176.229
726.6857, 1185.153
727.1678, 1193.066
727.6500, 1195.462
728.1321, 1187.244
728.6142, 1176.333
729.0963, 1167.431
729.5784, 1161.175
730.0605, 1157.961
730.5427, 1157.969
731.0248, 1158.781
731.5069, 1155.798
731.9890, 1151.416
732.4711, 1156.844
732.9532, 1172.504
733.4354, 1181.354
733.9175, 1175.678
734.3996, 1146.292
734.8817, 1166.057
735.3638, 1176.620
735.8459, 1178.473
736.3281, 1145.532
736.8102, 1157.520
737.2923, 1151.503
737.7744, 1144.748
738.2565, 1163.060
738.7386, 1135.180
739.2208, 1153.094
739.7029, 1152.728
740.1850, 1160.728
740.6671, 1150.612
741.1492, 1146.092
741.6313, 1159.694
742.1135, 1163.261
742.5956, 1151.059
743.0777, 1159.591
743.5598, 1131.079
744.0419, 1135.073
744.5240, 1153.094
745.0062, 1141.803
745.4883, 1150.666
745.9704, 1151.854
746.4525, 1118.158
746.9346, 1145.128
747.4167, 1123.987
747.8989, 1129.718
748.3810, 1131.101
748.8631, 1125.707
749.3452, 1118.012
749.8273, 1105.881
750.3094, 1094.599
750.7916, 1092.612
751.2737, 1101.624
751.7558, 1112.124
752.2379, 1120.100
752.7200, 1124.468
753.2021, 1121.859
753.6843, 1114.492
754.1664, 1108.869
754.6485, 1106.852
755.1306, 1106.378
755.6127, 1105.330
756.0948, 1104.077
756.5770, 1105.264
757.0591, 1110.026
757.5412, 1111.930
758.0233, 1107.680
758.5054, 1103.376
758.9875, 1103.239
759.4697, 1107.202
759.9518, 1114.550
760.4339, 1135.496
760.9160, 1143.532
761.3981, 1120.282
761.8802, 1095.996
762.3624, 1094.024
762.8445, 1106.396
763.3266, 1113.516
763.8087, 1108.391
764.2908, 1099.250
764.7729, 1091.076
765.2551, 1084.534
765.7372, 1081.355
766.2193, 1081.042
766.7014, 1081.447
767.1835, 1081.792
767.6656, 1081.052
768.1478, 1077.009
768.6299, 1070.234
769.1120, 1070.735
769.5941, 1081.094
770.0762, 1090.449
770.5583, 1096.323
771.0405, 1099.979
771.5226, 1102.383
772.0047, 1103.539
772.4868, 1103.466
772.9689, 1102.363
773.4510, 1099.728
773.9332, 1095.409
774.4153, 1089.568
774.8974, 1080.620
775.3795, 1070.446
775.8616, 1062.886
776.3438, 1059.285
776.8259, 1059.518
777.3080, 1066.415
777.7901, 1075.661
778.2722, 1078.716
778.7543, 1076.633
779.2365, 1077.226
779.7186, 1083.704
780.2007, 1090.278
780.6828, 1087.843
781.1649, 1077.487
781.6470, 1078.456
782.1292, 1094.949
782.6113, 1106.023
783.0934, 1104.437
783.5755, 1097.563
784.0576, 1091.864
784.5397, 1087.245
785.0219, 1082.217
785.5040, 1073.380
785.9861, 1068.928
786.4682, 1073.366
786.9503, 1079.506
787.4324, 1084.123
787.9146, 1086.122
788.3967, 1083.661
788.8788, 1075.309
789.3609, 1066.950
789.8430, 1060.220
790.3251, 1057.441
790.8073, 1063.558
791.2894, 1076.264
791.7715, 1090.284
792.2536, 1103.310
792.7357, 1109.940
793.2178, 1101.234
793.7000, 1081.413
794.1821, 1072.162
794.6642, 1074.345
795.1463, 1076.554
795.6284, 1076.103
796.1105, 1074.445
796.5927, 1073.488
797.0748, 1072.527
797.5569, 1066.434
798.0390, 1045.443
798.5211, 1035.371
799.0032, 1044.604
799.4854, 1056.819
799.9675, 1066.978
800.4496, 1073.269
800.9317, 1071.150
801.4138, 1057.265
801.8959, 1049.638
802.3781, 1062.155
802.8602, 1077.978
803.3423, 1082.804
803.8244, 1081.486
804.3065, 1084.604
804.7886, 1094.044
805.2708, 1101.420
805.7529, 1096.401
806.2350, 1088.587
806.7171, 1102.561
807.1992, 1132.171
807.6813, 1141.992
808.1635, 1125.330
808.6456, 1107.053
809.1277, 1105.273
809.6098, 1113.753
810.0919, 1114.491
810.5740, 1104.642
811.0562, 1098.968
811.5383, 1099.667
812.0204, 1101.107
812.5025, 1098.323
812.9846, 1096.308
813.4667, 1105.044
813.9489, 1126.543
814.4310, 1140.292
814.9131, 1140.620
815.3952, 1137.906
815.8773, 1130.755
816.3594, 1125.790
816.8416, 1135.617
817.3237, 1155.011
817.8058, 1158.442
818.2879, 1124.297
818.7700, 1092.431
819.2521, 1099.131
819.7343, 1125.155
820.2164, 1146.663
820.6985, 1160.412
821.1806, 1166.100
821.6627, 1163.636
822.1448, 1157.888
822.6270, 1155.621
823.1091, 1155.767
823.5912, 1150.745
824.0733, 1140.439
824.5554, 1138.575
825.0375, 1151.134
825.5197, 1165.149
826.0018, 1166.625
826.4839, 1157.563
826.9660, 1154.687
827.4481, 1162.343
827.9302, 1165.857
828.4124, 1158.599
828.8945, 1152.964
829.3766, 1158.183
829.8587, 1169.594
830.3408, 1178.127
830.8229, 1182.358
831.3051, 1187.079
831.7872, 1194.797
832.2693, 1201.440
832.7514, 1207.202
833.2335, 1209.452
833.7156, 1202.864
834.1978, 1188.225
834.6799, 1175.542
835.1620, 1170.494
835.6441, 1169.501
836.1262, 1170.642
836.6083, 1173.002
837.0905, 1176.104
837.5726, 1179.069
838.0547, 1178.355
838.5368, 1171.769
839.0189, 1164.420
839.5010, 1164.720
839.9832, 1171.132
840.4653, 1176.418
840.9474, 1180.316
841.4295, 1179.437
841.9116, 1171.675
842.3937, 1163.140
842.8759, 1160.964
843.3580, 1164.549
843.8401, 1167.950
844.3222, 1173.584
844.8043, 1171.599
845.2864, 1152.184
845.7686, 1136.828
846.2507, 1146.312
846.7328, 1169.169
847.2149, 1172.455
847.6970, 1142.981
848.1791, 1130.790
848.6613, 1157.919
849.1434, 1182.881
849.6255, 1182.941
850.1076, 1174.054
850.5897, 1178.104
851.0718, 1195.639
851.5540, 1206.488
852.0361, 1198.496
852.5182, 1185.262
853.0003, 1171.594
853.4824, 1160.344
853.9645, 1156.885
854.4467, 1159.330
854.9288, 1159.684
855.4109, 1154.083
855.8930, 1149.692
856.3751, 1156.555
856.8572, 1169.880
857.3394, 1180.110
857.8215, 1186.772
858.3036, 1188.537
858.7857, 1185.116
859.2678, 1181.099
859.7499, 1181.125
860.2321, 1183.663
860.7142, 1181.760
861.1963, 1174.579
861.6784, 1175.745
862.1605, 1190.645
862.6426, 1198.326
863.1248, 1182.433
863.6069, 1157.598
864.0890, 1154.573
864.5711, 1180.360
865.0532, 1193.702
865.5353, 1189.647
866.0175, 1180.736
866.4996, 1159.559
866.9817, 1143.377
867.4638, 1152.579
867.9459, 1181.342
868.4280, 1198.171
868.9102, 1191.504
869.3923, 1185.178
869.8744, 1180.758
870.3565, 1181.595
870.8386, 1195.611
871.3207, 1214.215
871.8029, 1222.550
872.2850, 1217.346
872.7671, 1210.243
873.2492, 1203.758
873.7313, 1201.632
874.2134, 1213.119
874.6956, 1227.772
875.1777, 1226.457
875.6598, 1210.982
876.1419, 1201.134
876.6240, 1208.786
877.1061, 1222.009
877.5883, 1226.153
878.0704, 1224.844
878.5525, 1224.764
879.0346, 1227.111
879.5167, 1237.224
879.9988, 1256.650
880.4810, 1274.550
880.9631, 1278.040
881.4452, 1271.776
881.9273, 1274.565
882.4094, 1286.533
882.8915, 1294.572
883.3737, 1295.966
883.8558, 1297.350
884.3379, 1302.923
884.8200, 1310.819
885.3021, 1316.939
885.7842, 1320.646
886.2664, 1326.936
886.7485, 1338.146
887.2306, 1346.690
887.7127, 1349.712
888.1948, 1350.035
888.6769, 1349.588
889.1591, 1348.593
889.6412, 1348.793
890.1233, 1346.989
890.6054, 1351.207
891.0875, 1375.012
891.5696, 1390.444
892.0518, 1373.802
892.5339, 1345.456
893.0160, 1337.601
893.4981, 1354.345
893.9802, 1363.721
894.4623, 1351.368
894.9445, 1336.226
895.4266, 1323.667
895.9087, 1314.757
896.3908, 1312.904
896.8729, 1315.302
897.3550, 1314.232
897.8372, 1306.452
898.3193, 1297.549
898.8014, 1292.556
899.2835, 1287.411
899.7656, 1276.372
900.2477, 1262.331
900.7299, 1249.722
901.2120, 1240.400
901.6941, 1238.237
902.1762, 1249.173
902.6583, 1260.889
903.1404, 1251.844
903.6226, 1231.518
904.1047, 1223.705
904.5868, 1228.531
905.0689, 1234.283
905.5510, 1236.027
906.0331, 1235.452
906.5153, 1234.218
906.9974, 1232.492
907.4795, 1230.797
907.9616, 1229.150
908.4437, 1228.025
908.9258, 1227.584
909.4080, 1226.198
909.8900, 1222.701
910.3721, 1217.768
910.8542, 1211.418
911.3364, 1202.694
911.8185, 1206.809
912.3006, 1230.082
912.7827, 1237.803
913.2648, 1211.538
913.7469, 1183.909
914.2291, 1189.710
914.7112, 1221.101
915.1933, 1231.976
915.6754, 1211.445
916.1575, 1195.911
916.6396, 1186.281
917.1218, 1182.674
917.6039, 1188.160
918.0860, 1197.754
918.5681, 1204.943
919.0502, 1209.709
919.5323, 1213.294
920.0145, 1217.273
920.4966, 1217.882
920.9787, 1212.672
921.4608, 1205.756
921.9429, 1196.314
922.4250, 1188.112
922.9072, 1190.886
923.3893, 1209.398
923.8714, 1217.553
924.3535, 1195.050
924.8356, 1177.412
925.3177, 1187.717
925.7999, 1205.463
926.2820, 1206.746
926.7641, 1195.345
927.2462, 1193.654
927.7283, 1213.388
928.2104, 1229.357
928.6926, 1226.092
929.1747, 1216.161
929.6568, 1205.723
930.1389, 1198.038
930.6210, 1196.942
931.1031, 1202.925
931.5853, 1214.380
932.0674, 1234.191
932.5495, 1251.709
933.0316, 1258.279
933.5137, 1256.193
933.9958, 1243.503
934.4780, 1225.573
934.9601, 1215.568
935.4422, 1217.481
935.9243, 1224.061
936.4064, 1231.622
936.8885, 1237.384
937.3707, 1233.116
937.8528, 1224.722
938.3349, 1230.254
938.8170, 1247.939
939.2991, 1255.078
939.7813, 1240.252
940.2634, 1220.587
940.7455, 1218.361
941.2276, 1228.381
941.7097, 1237.265
942.1918, 1244.472
942.6740, 1246.905
943.1561, 1244.014
943.6382, 1237.056
944.1203, 1226.259
944.6024, 1215.465
945.0845, 1212.429
945.5667, 1216.356
946.0488, 1221.443
946.5309, 1227.507
947.0130, 1231.005
947.4951, 1230.761
947.9772, 1228.747
948.4594, 1226.151
948.9415, 1224.173
949.4236, 1228.592
949.9057, 1240.338
950.3878, 1240.785
950.8699, 1226.983
951.3521, 1213.321
951.8342, 1204.526
952.3163, 1201.717
952.7984, 1207.802
953.2805, 1220.613
953.7626, 1224.262
954.2448, 1216.644
954.7269, 1208.562
955.2090, 1199.487
955.6911, 1194.611
956.1732, 1197.312
956.6553, 1204.504
957.1375, 1212.435
957.6196, 1221.111
958.1017, 1226.993
958.5838, 1231.717
959.0659, 1228.625
959.5480, 1209.872
960.0302, 1195.076
960.5123, 1197.690
960.9944, 1210.369
961.4765, 1219.221
961.9586, 1223.208
962.4407, 1230.289
962.9229, 1247.513
963.4050, 1255.800
963.8871, 1248.124
964.3692, 1234.358
964.8513, 1213.186
965.3334, 1192.624
965.8156, 1195.903
966.2977, 1235.774
966.7798, 1258.482
967.2619, 1256.480
967.7440, 1247.692
968.2261, 1226.260
968.7083, 1208.490
969.1904, 1210.490
969.6725, 1226.689
970.1546, 1238.399
970.6367, 1244.181
971.1188, 1246.317
971.6010, 1243.446
972.0831, 1238.903
972.5652, 1231.016
973.0473, 1224.202
973.5294, 1223.062
974.0115, 1226.883
974.4937, 1231.563
974.9758, 1237.253
975.4579, 1242.281
975.9400, 1251.452
976.4221, 1253.984
976.9042, 1236.534
977.3864, 1215.382
977.8685, 1210.661
978.3506, 1221.219
978.8327, 1229.601
979.3148, 1232.854
979.7969, 1232.527
980.2791, 1223.872
980.7612, 1217.380
981.2433, 1222.578
981.7254, 1231.571
982.2075, 1234.406
982.6896, 1230.149
983.1718, 1222.347
983.6539, 1206.059
984.1360, 1195.615
984.6181, 1202.575
985.1002, 1209.873
985.5823, 1201.230
986.0645, 1187.706
986.5466, 1188.390
987.0287, 1204.714
987.5108, 1217.734
987.9929, 1221.124
988.4750, 1219.827
988.9572, 1214.678
989.4393, 1206.606
989.9214, 1196.646
990.4035, 1184.131
990.8856, 1164.019
991.3677, 1136.671
991.8499, 1121.505
992.3320, 1131.695
992.8141, 1148.397
993.2962, 1171.400
993.7783, 1189.883
994.2604, 1191.644
994.7426, 1183.336
995.2247, 1178.281
995.7068, 1179.004
996.1889, 1177.393
996.6710, 1163.536
997.1531, 1154.771
997.6353, 1166.133
998.1174, 1180.599
998.5995, 1181.550
999.0816, 1174.414
999.5637, 1173.145
1000.046, 1180.725
1000.528, 1186.061
1001.010, 1181.183
1001.492, 1176.770
1001.974, 1179.133
1002.456, 1183.840
1002.939, 1191.339
1003.421, 1196.455
1003.903, 1186.398
1004.385, 1158.337
1004.867, 1137.779
1005.349, 1141.751
1005.831, 1148.886
1006.313, 1149.265
1006.795, 1146.536
1007.278, 1144.342
1007.760, 1141.849
1008.242, 1135.618
1008.724, 1124.817
1009.206, 1116.635
1009.688, 1111.288
1010.170, 1112.919
1010.652, 1133.715
1011.135, 1153.729
1011.617, 1151.287
1012.099, 1134.716
1012.581, 1122.800
1013.063, 1119.759
1013.545, 1122.139
1014.027, 1135.175
1014.509, 1144.848
1014.991, 1139.651
1015.474, 1132.498
1015.956, 1136.702
1016.438, 1147.288
1016.920, 1151.526
1017.402, 1146.661
1017.884, 1144.917
1018.366, 1156.465
1018.848, 1164.441
1019.331, 1160.073
1019.813, 1150.730
1020.295, 1139.485
1020.777, 1128.979
1021.259, 1123.732
1021.741, 1124.640
1022.223, 1124.935
1022.705, 1118.610
1023.187, 1116.674
1023.670, 1127.096
1024.152, 1139.438
1024.634, 1146.578
1025.116, 1149.772
1025.598, 1150.457
1026.080, 1148.750
1026.562, 1153.288
1027.044, 1172.353
1027.526, 1189.225
1028.009, 1198.199
1028.491, 1204.412
1028.973, 1207.905
1029.455, 1212.564
1029.937, 1229.308
1030.419, 1259.283
1030.901, 1269.248
1031.383, 1228.817
1031.866, 1204.367
1032.348, 1221.661
1032.830, 1245.020
1033.312, 1253.477
1033.794, 1255.750
1034.276, 1266.609
1034.758, 1286.739
1035.240, 1301.700
1035.723, 1301.713
1036.205, 1309.802
1036.687, 1340.179
1037.169, 1365.610
1037.651, 1370.037
1038.133, 1364.328
1038.615, 1362.278
1039.097, 1363.649
1039.579, 1361.570
1040.062, 1357.011
1040.544, 1346.936
1041.026, 1322.660
1041.508, 1305.372
1041.990, 1309.601
1042.472, 1319.022
1042.954, 1314.676
1043.436, 1298.515
1043.918, 1286.703
1044.401, 1281.535
1044.883, 1275.145
1045.365, 1266.052
1045.847, 1258.646
1046.329, 1255.653
1046.811, 1253.281
1047.293, 1248.059
1047.775, 1240.221
1048.258, 1230.597
1048.740, 1219.169
1049.222, 1205.667
1049.704, 1188.651
1050.186, 1174.188
1050.668, 1163.373
1051.150, 1158.363
1051.632, 1163.184
1052.115, 1172.008
1052.597, 1166.979
1053.079, 1146.015
1053.561, 1132.240
1054.043, 1126.300
1054.525, 1122.196
1055.007, 1118.510
1055.489, 1116.124
1055.971, 1115.759
1056.453, 1116.979
1056.936, 1120.607
1057.418, 1125.802
1057.900, 1119.937
1058.382, 1103.453
1058.864, 1091.640
1059.346, 1087.469
1059.828, 1087.196
1060.310, 1089.049
1060.793, 1089.634
1061.275, 1082.991
1061.757, 1071.448
1062.239, 1061.847
1062.721, 1054.765
1063.203, 1055.699
1063.685, 1063.680
1064.167, 1066.380
1064.650, 1058.337
1065.132, 1048.706
1065.614, 1048.682
1066.096, 1051.706
1066.578, 1044.784
1067.060, 1031.737
1067.542, 1020.802
1068.024, 1012.572
1068.506, 1003.905
1068.989, 994.4616
1069.471, 991.6648
1069.953, 1006.054
1070.435, 1020.432
1070.917, 1010.770
1071.399, 992.8064
1071.881, 987.4319
1072.363, 991.7320
1072.845, 998.6014
1073.328, 1004.620
1073.810, 1002.388
1074.292, 984.4436
1074.774, 967.2493
1075.256, 962.9579
1075.738, 963.6719
1076.220, 962.1430
1076.702, 961.5840
1077.184, 970.0098
1077.667, 984.6261
1078.149, 991.6115
1078.631, 985.0089
1079.113, 977.4659
1079.595, 971.7342
1080.077, 968.7974
1080.559, 971.0118
1081.041, 974.6356
1081.524, 977.6792
1082.006, 978.9954
1082.488, 975.5447
1082.970, 965.4953
1083.452, 959.3049
1083.934, 960.8995
1084.416, 962.8532
1084.898, 964.7128
1085.380, 965.3019
1085.863, 967.0300
1086.345, 965.1833
1086.827, 947.1788
1087.309, 912.2465
1087.791, 904.3775
1088.273, 943.5619
1088.755, 962.8218
1089.237, 948.9370
1089.719, 930.6786
1090.202, 917.9435
1090.684, 910.7449
1091.166, 910.0229
1091.648, 914.4421
1092.130, 918.3212
1092.612, 922.0524
1093.094, 919.7126
1093.576, 909.1447
1094.059, 910.9179
1094.541, 932.9703
1095.023, 953.8401
1095.505, 956.6181
1095.987, 947.6006
1096.469, 938.7191
1096.951, 929.6660
1097.433, 916.1897
1097.916, 899.8551
1098.398, 892.6238
1098.880, 895.9846
1099.362, 902.0776
1099.844, 906.8115
1100.326, 910.1595
1100.808, 910.5905
1101.290, 910.8345
1101.772, 919.6196
1102.255, 930.2878
1102.737, 926.3215
1103.219, 911.0430
1103.701, 898.9597
1104.183, 894.9858
1104.665, 897.8927
1105.147, 911.2240
1105.629, 923.2898
1106.111, 921.4822
1106.594, 916.1063
1107.076, 917.3167
1107.558, 922.6139
1108.040, 929.3224
1108.522, 935.1011
1109.004, 931.8293
1109.486, 911.6116
1109.968, 897.4332
1110.451, 902.2493
1110.933, 909.2958
1111.415, 910.9901
1111.897, 910.7177
1112.379, 912.1476
1112.861, 914.3246
1113.343, 914.3641
1113.825, 912.1105
1114.307, 907.4732
1114.790, 898.6791
1115.272, 890.4074
1115.754, 880.5051
1116.236, 875.9814
1116.718, 882.9995
1117.200, 894.2427
1117.682, 899.8965
1118.164, 900.4352
1118.646, 899.9396
1119.129, 898.2391
1119.611, 895.3267
1120.093, 890.0602
1120.575, 894.4634
1121.057, 914.4493
1121.539, 928.3132
1122.021, 915.9601
1122.503, 890.4234
1122.986, 877.3696
1123.468, 875.2462
1123.950, 878.1558
1124.432, 885.1617
1124.914, 893.4357
1125.396, 901.7745
1125.878, 907.5805
1126.360, 909.5118
1126.843, 907.2095
1127.325, 884.5793
1127.807, 896.4968
1128.289, 902.8924
1128.771, 904.0623
1129.253, 884.3560
1129.735, 891.6072
1130.217, 888.0549
1130.699, 884.0598
1131.182, 895.1035
1131.664, 878.4337
1132.146, 889.2403
1132.628, 889.0787
1133.110, 893.9371
1133.592, 892.7001
1134.074, 899.0106
1134.556, 903.2549
1135.038, 904.9140
1135.521, 904.1526
1136.003, 901.4305
1136.485, 894.5102
1136.967, 875.8153
1137.449, 864.4394
1137.931, 866.4266
1138.413, 872.1796
1138.895, 877.3142
1139.378, 882.2668
1139.860, 888.7362
1140.342, 895.7756
1140.824, 892.0750
1141.306, 874.9891
1141.788, 870.5906
1142.270, 882.0480
1142.752, 889.9086
1143.234, 887.5822
1143.717, 883.7422
1144.199, 885.3308
1144.681, 889.6805
1145.163, 892.5400
1145.645, 893.9853
1146.127, 894.6533
1146.609, 894.0559
1147.091, 889.4623
1147.573, 881.7660
1148.056, 875.2457
1148.538, 871.8010
1149.020, 873.7514
1149.502, 888.7352
1149.984, 902.0189
1150.466, 897.7414
1150.948, 887.6617
1151.430, 882.3160
1151.913, 880.7922
1152.395, 879.3361
1152.877, 878.1133
1153.359, 881.7057
1153.841, 894.6260
1154.323, 903.1766
1154.805, 902.2611
1155.287, 898.9503
1155.770, 893.6447
1156.252, 888.8428
1156.734, 886.0843
1157.216, 885.1974
1157.698, 886.6717
1158.180, 890.5685
1158.662, 889.6334
1159.144, 883.2982
1159.626, 872.9662
1160.109, 856.5829
1160.591, 849.4285
1161.073, 858.0099
1161.555, 871.7537
1162.037, 881.8844
1162.519, 887.9273
1163.001, 886.5672
1163.483, 880.5983
1163.965, 879.7067
1164.448, 883.6260
1164.930, 893.8079
1165.412, 907.3923
1165.894, 911.6945
1166.376, 901.4354
1166.858, 885.0750
1167.340, 860.6238
1167.822, 844.4225
1168.305, 862.1325
1168.787, 884.7870
1169.269, 878.1644
1169.751, 858.9545
1170.233, 858.0481
1170.715, 875.0077
1171.197, 885.3242
1171.679, 881.0723
1172.161, 877.3907
1172.644, 874.9567
1173.126, 876.1609
1173.608, 885.0982
1174.090, 893.3573
1174.572, 896.3448
1175.054, 894.9987
1175.536, 889.3065
1176.018, 880.3928
1176.500, 882.6221
1176.983, 898.2720
1177.465, 897.9369
1177.947, 878.8270
1178.429, 868.5082
1178.911, 875.2577
1179.393, 884.3318
1179.875, 885.0316
1180.357, 882.7281
1180.840, 887.0613
1181.322, 892.6992
1181.804, 883.9572
1182.286, 871.0016
1182.768, 881.0666
1183.250, 905.0033
1183.732, 906.9566
1184.214, 879.7623
1184.697, 858.0801
1185.179, 862.4292
1185.661, 869.3853
1186.143, 867.4642
1186.625, 865.3768
1187.107, 869.4747
1187.589, 874.9615
1188.071, 876.1411
1188.553, 874.6866
1189.036, 876.5688
1189.518, 882.7040
1190.000, 884.2504
1190.482, 879.1378
1190.964, 875.9921
1191.446, 876.6977
1191.928, 875.7189
1192.410, 870.6185
1192.892, 863.5361
1193.375, 855.5039
1193.857, 849.8690
1194.339, 858.0020
1194.821, 874.0598
1195.303, 873.2391
1195.785, 861.6007
1196.267, 862.8809
1196.749, 876.6292
1197.232, 883.8099
1197.714, 877.6983
1198.196, 871.2061
1198.678, 873.6982
1199.160, 877.8037
1199.642, 885.8044
1200.124, 885.5593
1200.606, 850.4359
1201.089, 872.3441
1201.571, 885.0469
1202.053, 889.0405
1202.535, 858.2406
1203.017, 872.3693
1203.499, 868.4928
1203.981, 863.8777
1204.463, 884.3302
1204.945, 858.5908
1205.427, 878.6458
1205.910, 880.4223
1206.392, 890.5632
1206.874, 882.5878
1207.356, 874.8655
1207.838, 875.4352
1208.320, 868.8187
1208.802, 863.5568
1209.284, 860.7972
1209.767, 868.1755
1210.249, 882.3234
1210.731, 881.6280
1211.213, 858.9572
1211.695, 842.3608
1212.177, 859.9339
1212.659, 875.2316
1213.141, 852.8349
1213.624, 828.4459
1214.106, 832.8246
1214.588, 849.2839
1215.070, 859.5380
1215.552, 862.3398
1216.034, 858.7595
1216.516, 847.3299
1216.998, 838.5855
1217.480, 831.5742
1217.963, 830.1251
1218.445, 836.1039
1218.927, 842.8835
1219.409, 848.0547
1219.891, 852.1187
1220.373, 855.7003
1220.855, 857.7128
1221.337, 854.4676
1221.819, 848.2595
1222.302, 846.9811
1222.784, 848.7825
1223.266, 848.7263
1223.748, 846.4082
1224.230, 842.3877
1224.712, 837.2913
1225.194, 834.6663
1225.676, 836.6741
1226.159, 840.9995
1226.641, 849.7615
1227.123, 856.4392
1227.605, 855.1083
1228.087, 851.9821
1228.569, 852.2003
1229.051, 855.3290
1229.533, 860.8743
1230.016, 868.7882
1230.498, 872.1924
1230.980, 870.2440
1231.462, 869.2379
1231.944, 870.1797
1232.426, 844.1993
1232.908, 865.2936
1233.390, 877.1843
1233.872, 880.3660
1234.354, 848.7540
1234.837, 862.0709
1235.319, 857.3822
1235.801, 851.9553
1236.283, 871.5955
1236.765, 845.0442
1237.247, 864.2870
1237.729, 865.2496
1238.211, 874.5786
1238.694, 865.7911
1239.176, 862.5991
1239.658, 877.5295
1240.140, 882.4255
1240.622, 871.5524
1241.104, 881.4132
1241.586, 865.4467
1242.068, 867.1689
1242.551, 869.0258
1243.033, 869.3325
1243.515, 868.0895
1243.997, 863.9340
1244.479, 857.7834
1244.961, 859.8972
1245.443, 867.9849
1245.925, 869.0156
1246.407, 862.1839
1246.890, 853.5137
1247.372, 845.7911
1247.854, 842.7120
1248.336, 849.3788
1248.818, 855.7510
1249.300, 855.6509
1249.782, 851.9734
1250.264, 841.2017
1250.746, 832.7195
1251.229, 841.1856
1251.711, 856.9368
1252.193, 856.0325
1252.675, 838.7393
1253.157, 829.7241
1253.639, 830.2495
1254.121, 834.0499
1254.603, 841.5021
1255.086, 844.2845
1255.568, 840.1362
1256.050, 837.0917
1256.532, 839.9722
1257.014, 845.4786
1257.496, 850.9113
1257.978, 855.3268
1258.460, 855.9631
1258.943, 855.9291
1259.425, 863.4550
1259.907, 870.8338
1260.389, 860.8906
1260.871, 838.3168
1261.353, 827.2247
1261.835, 834.4086
1262.317, 838.9229
1262.799, 835.9518
##END=



