##NAMES=Aenigmatite
##RRUFFID=R061089
##IDEAL CHEMISTRY=Na_4_(Fe^2+^_10_Ti^4+^_2_)O_4_[Si_12_O_36_]
##LOCALITY=Eveslogchorr, Khibiny Massif, Kola Peninsula, Russia
##OWNER=RRUFF
##SOURCE=Michael Scott
##DESCRIPTION=Black prismatic crystals embedded in eucryptite with astrophyllite and magnesioriebeckite
##STATUS=The identification of this mineral is confirmed by single-crystal X-ray diffraction and chemical analysis.
##URL=rruff.info/R061089
##MEASURED CHEMISTRY=Na_2.00_(Fe^2+^_4.08_Mn_0.51_Fe^3+^_0.21_Mg_0.16_Ca_0.03_Cr^3+^_0.01_)_Σ=5_Ti_1.00_(Si_5.78_Al_0.22_)_Σ=6.00_O_20_
119.8403, 759.2601
121.7688, 937.7695
123.6973, 1151.150
125.6257, 1349.207
127.5542, 1354.561
129.4827, 1295.529
131.4111, 1237.979
133.3396, 1188.031
135.2681, 1142.988
137.1965, 1110.245
139.1250, 1091.445
141.0535, 1079.759
142.9819, 1067.282
144.9104, 1047.035
146.8389, 1030.382
148.7673, 1023.144
150.6958, 1029.325
152.6243, 1029.943
154.5527, 1017.538
156.4812, 995.3521
158.4097, 977.1220
160.3381, 966.3344
162.2666, 957.0224
164.1951, 944.9368
166.1235, 931.1384
168.0520, 913.0482
169.9805, 888.1087
171.9089, 852.0223
173.8374, 825.0072
175.7659, 807.5626
177.6943, 798.6227
179.6228, 795.0858
181.5513, 800.9387
183.4797, 807.6002
185.4082, 811.3014
187.3367, 808.5353
189.2651, 809.1228
191.1936, 815.9996
193.1221, 826.7695
195.0505, 836.1140
196.9790, 841.0814
198.9075, 846.2792
200.8359, 855.0174
202.7644, 869.5900
204.6929, 881.8605
206.6213, 888.8820
208.5498, 891.0945
210.4783, 892.6963
212.4068, 896.6559
214.3352, 898.6359
216.2637, 893.8620
218.1922, 880.2639
220.1206, 865.5607
222.0491, 852.0511
223.9776, 839.8567
225.9060, 829.2446
227.8345, 820.4418
229.7630, 813.3036
231.6914, 806.7661
233.6199, 798.0330
235.5484, 793.9504
237.4768, 797.0217
239.4053, 810.7693
241.3338, 824.4942
243.2622, 839.2333
245.1907, 853.4985
247.1192, 865.3732
249.0476, 874.3976
250.9761, 881.0032
252.9046, 884.3470
254.8330, 882.7463
256.7615, 883.3552
258.6899, 886.9469
260.6184, 893.5146
262.5469, 903.7824
264.4753, 922.4066
266.4038, 941.3383
268.3323, 956.2231
270.2607, 966.0596
272.1892, 975.9131
274.1177, 985.1420
276.0461, 994.3125
277.9746, 1008.325
279.9031, 1034.339
281.8315, 1059.858
283.7600, 1076.280
285.6885, 1082.225
287.6169, 1088.426
289.5454, 1097.591
291.4739, 1109.575
293.4023, 1122.782
295.3308, 1140.445
297.2593, 1156.896
299.1877, 1168.673
301.1162, 1175.597
303.0447, 1178.172
304.9731, 1178.432
306.9016, 1175.462
308.8301, 1163.235
310.7585, 1135.121
312.6870, 1103.197
314.6155, 1074.693
316.5439, 1051.485
318.4724, 1027.798
320.4009, 1002.050
322.3293, 974.8295
324.2578, 949.3446
326.1863, 924.6238
328.1147, 902.6638
330.0432, 884.2822
331.9717, 870.8489
333.9002, 858.4429
335.8286, 846.3135
337.7571, 834.6124
339.6856, 823.4529
341.6140, 808.2205
343.5425, 798.1702
345.4710, 798.2082
347.3994, 815.5524
349.3279, 830.7905
351.2564, 841.4901
353.1848, 848.6552
355.1133, 856.0370
357.0418, 863.6497
358.9702, 871.5448
360.8987, 880.1612
362.8272, 892.7089
364.7556, 900.0452
366.6841, 901.4739
368.6126, 897.2125
370.5410, 888.9983
372.4695, 873.1927
374.3980, 857.7241
376.3264, 846.3867
378.2549, 842.4955
380.1834, 834.8170
382.1118, 816.6766
384.0403, 797.1996
385.9688, 787.7571
387.8972, 795.6307
389.8257, 803.4810
391.7542, 804.8607
393.6826, 797.6329
395.6111, 794.1435
397.5396, 797.8115
399.4680, 803.5376
401.3965, 807.0063
403.3250, 807.6080
405.2534, 807.3159
407.1819, 806.4579
409.1104, 805.1367
411.0388, 804.3007
412.9673, 799.9774
414.8958, 799.1412
416.8242, 805.3864
418.7527, 820.6299
420.6812, 838.3497
422.6096, 860.4825
424.5381, 884.2858
426.4666, 900.5770
428.3951, 904.3881
430.3235, 905.9629
432.2520, 910.9016
434.1805, 921.1010
436.1089, 926.5477
438.0374, 925.1381
439.9659, 919.4560
441.8943, 913.4759
443.8228, 907.1682
445.7513, 901.0235
447.6797, 894.5486
449.6082, 887.5745
451.5367, 884.0823
453.4651, 886.1793
455.3936, 890.4227
457.3221, 894.4790
459.2505, 898.7401
461.1790, 901.7411
463.1075, 900.5212
465.0359, 896.8059
466.9644, 898.3563
468.8929, 908.5477
470.8213, 920.6176
472.7498, 932.2525
474.6783, 943.3401
476.6067, 953.9349
478.5352, 965.9129
480.4637, 976.6224
482.3921, 982.7581
484.3206, 983.3942
486.2491, 980.1210
488.1775, 971.3452
490.1060, 957.9447
492.0345, 945.0231
493.9629, 931.7502
495.8914, 920.4924
497.8199, 912.4019
499.7483, 907.5235
501.6768, 906.7574
503.6053, 909.5890
505.5337, 917.1025
507.4622, 930.5558
509.3907, 953.7253
511.3191, 976.5380
513.2476, 993.9360
515.1760, 1004.199
517.1045, 1021.205
519.0330, 1053.582
520.9614, 1086.019
522.8899, 1105.735
524.8184, 1110.690
526.7468, 1115.607
528.6753, 1129.028
530.6038, 1145.076
532.5322, 1149.046
534.4607, 1134.183
536.3892, 1114.932
538.3176, 1091.819
540.2461, 1065.893
542.1746, 1045.377
544.1030, 1035.470
546.0315, 1029.073
547.9600, 1021.917
549.8884, 1012.851
551.8169, 1004.798
553.7454, 998.2445
555.6738, 992.8224
557.6023, 987.6165
559.5308, 982.6464
561.4592, 977.7810
563.3877, 973.4319
565.3162, 969.7420
567.2446, 963.8680
569.1731, 954.0167
571.1016, 943.4955
573.0300, 934.2316
574.9585, 926.1118
576.8870, 919.2977
578.8154, 913.3577
580.7440, 908.8246
582.6724, 906.7776
584.6009, 905.4831
586.5294, 908.4106
588.4578, 916.9458
590.3863, 930.5369
592.3148, 946.8689
594.2432, 965.0424
596.1717, 987.2978
598.1002, 1014.807
600.0286, 1049.420
601.9571, 1085.390
603.8856, 1128.067
605.8140, 1169.172
607.7425, 1200.610
609.6710, 1221.401
611.5994, 1237.263
613.5279, 1245.282
615.4564, 1249.425
617.3848, 1260.214
619.3133, 1268.519
621.2418, 1292.342
623.1702, 1336.731
625.0987, 1401.525
627.0272, 1485.754
628.9556, 1593.206
630.8841, 1718.178
632.8126, 1858.524
634.7410, 2020.579
636.6695, 2183.924
638.5980, 2372.446
640.5264, 2549.872
642.4549, 2681.733
644.3834, 2771.838
646.3118, 2816.336
648.2403, 2805.461
650.1688, 2751.229
652.0972, 2675.028
654.0257, 2554.293
655.9542, 2435.232
657.8826, 2322.424
659.8111, 2218.353
661.7396, 2133.379
663.6680, 2067.937
665.5965, 2024.346
667.5250, 2004.853
669.4534, 2017.043
671.3819, 2027.143
673.3104, 2036.226
675.2388, 2041.980
677.1673, 2042.089
679.0958, 2037.263
681.0242, 2026.447
682.9527, 2015.101
684.8812, 1995.209
686.8096, 1954.739
688.7381, 1885.511
690.6666, 1804.482
692.5950, 1706.082
694.5235, 1596.905
696.4520, 1498.857
698.3804, 1411.920
700.3089, 1336.498
702.2374, 1274.183
704.1658, 1223.881
706.0943, 1178.866
708.0228, 1135.946
709.9512, 1100.222
711.8797, 1076.293
713.8082, 1066.692
715.7366, 1055.533
717.6651, 1036.652
719.5936, 1020.341
721.5220, 1014.237
723.4505, 1021.488
725.3790, 1026.270
727.3074, 1024.978
729.2359, 1020.639
731.1644, 1017.069
733.0928, 1017.642
735.0213, 1012.249
736.9498, 994.3506
738.8782, 970.7390
740.8067, 951.5081
742.7352, 938.7551
744.6636, 927.6351
746.5921, 914.4518
748.5206, 901.1451
750.4490, 896.7241
752.3775, 908.5089
754.3060, 920.0872
756.2344, 926.5857
758.1629, 928.8422
760.0914, 929.9078
762.0198, 928.8230
763.9483, 927.8126
765.8768, 929.0408
767.8052, 933.5643
769.7337, 932.4240
771.6622, 920.8809
773.5906, 908.7754
775.5191, 902.6926
777.4476, 902.5159
779.3760, 900.6935
781.3045, 891.9047
783.2330, 884.7037
785.1614, 885.4259
787.0899, 898.1773
789.0184, 907.2361
790.9468, 911.1140
792.8753, 911.4658
794.8038, 907.8762
796.7322, 898.3292
798.6607, 894.1169
800.5892, 901.9614
802.5176, 914.0443
804.4461, 922.9182
806.3746, 928.4906
808.3030, 930.8788
810.2315, 928.3748
812.1600, 923.8405
814.0884, 921.2237
816.0169, 919.4207
817.9454, 921.8115
819.8738, 933.0868
821.8023, 947.8422
823.7308, 957.7638
825.6592, 958.8322
827.5877, 962.9819
829.5162, 976.3972
831.4446, 994.0939
833.3731, 1004.168
835.3016, 998.5495
837.2300, 995.3580
839.1585, 997.0809
841.0870, 1003.649
843.0154, 1014.179
844.9439, 1029.811
846.8724, 1047.998
848.8008, 1070.991
850.7293, 1096.378
852.6578, 1115.455
854.5862, 1123.868
856.5147, 1130.362
858.4432, 1134.811
860.3716, 1138.057
862.3001, 1142.720
864.2286, 1146.599
866.1570, 1155.762
868.0855, 1172.694
870.0140, 1196.768
871.9424, 1226.990
873.8709, 1265.938
875.7994, 1308.802
877.7278, 1354.549
879.6563, 1403.131
881.5848, 1455.407
883.5132, 1524.741
885.4417, 1578.627
887.3702, 1599.795
889.2986, 1597.469
891.2271, 1593.806
893.1556, 1598.041
895.0840, 1587.180
897.0125, 1546.009
898.9410, 1483.071
900.8694, 1435.725
902.7979, 1412.912
904.7264, 1394.047
906.6548, 1375.995
908.5833, 1359.012
910.5118, 1343.397
912.4402, 1329.447
914.3687, 1316.644
916.2972, 1305.923
918.2256, 1296.406
920.1541, 1285.571
922.0826, 1273.126
924.0110, 1259.683
925.9395, 1242.757
927.8680, 1224.817
929.7964, 1211.741
931.7249, 1202.359
933.6534, 1198.651
935.5818, 1202.200
937.5103, 1211.763
939.4388, 1225.696
941.3672, 1244.837
943.2957, 1266.820
945.2242, 1294.865
947.1526, 1323.984
949.0811, 1346.659
951.0096, 1357.970
952.9380, 1368.924
954.8665, 1383.201
956.7950, 1395.124
958.7234, 1397.874
960.6519, 1390.983
962.5804, 1380.141
964.5089, 1359.790
966.4373, 1341.236
968.3658, 1334.136
970.2943, 1341.017
972.2227, 1352.473
974.1512, 1366.610
976.0797, 1385.402
978.0081, 1413.327
979.9366, 1453.786
981.8651, 1482.967
983.7935, 1500.640
985.7220, 1505.044
987.6505, 1493.104
989.5789, 1466.095
991.5074, 1431.854
993.4359, 1384.282
995.3643, 1337.950
997.2928, 1296.096
999.2213, 1258.976
1001.150, 1237.304
1003.078, 1237.525
1005.007, 1244.841
1006.935, 1256.340
1008.864, 1271.913
1010.792, 1291.218
1012.721, 1318.936
1014.649, 1340.659
1016.577, 1345.750
1018.506, 1342.251
1020.434, 1343.002
1022.363, 1345.335
1024.291, 1358.890
1026.220, 1392.039
1028.148, 1433.612
1030.077, 1470.118
1032.005, 1504.333
1033.934, 1527.526
1035.862, 1540.186
1037.791, 1540.642
1039.719, 1525.774
1041.647, 1495.971
1043.576, 1457.724
1045.504, 1406.368
1047.433, 1352.346
1049.361, 1299.806
1051.290, 1248.701
1053.218, 1204.581
1055.147, 1167.303
1057.075, 1137.763
1059.004, 1118.963
1060.932, 1109.352
1062.861, 1099.686
1064.789, 1090.441
1066.718, 1080.747
1068.646, 1070.653
1070.574, 1060.117
1072.503, 1048.498
1074.432, 1034.857
1076.360, 1023.823
1078.288, 1015.862
1080.217, 1011.646
1082.145, 1012.841
1084.074, 1022.240
1086.002, 1028.656
1087.931, 1029.738
1089.859, 1029.086
1091.788, 1028.039
1093.716, 1026.390
1095.645, 1026.472
1097.573, 1031.926
1099.502, 1034.631
1101.430, 1028.712
1103.359, 1017.862
1105.287, 1011.245
1107.215, 1012.490
1109.144, 1011.526
1111.072, 1000.744
1113.001, 988.3383
1114.929, 986.5120
1116.858, 1004.553
1118.786, 1014.664
1120.715, 1008.267
1122.643, 998.9054
1124.572, 997.9871
1126.500, 1006.604
1128.429, 1010.674
1130.357, 1004.085
1132.286, 998.9327
1134.214, 1003.826
1136.142, 1014.715
1138.071, 1020.154
1139.999, 1017.168
1141.928, 1014.041
1143.856, 1012.350
1145.785, 1012.561
1147.713, 1015.929
1149.642, 1025.932
1151.570, 1031.538
1153.499, 1025.541
1155.427, 1020.420
1157.356, 1027.462
1159.284, 1048.234
1161.213, 1061.171
1163.141, 1059.064
1165.069, 1057.598
1166.998, 1064.756
1168.926, 1076.933
1170.855, 1086.150
1172.783, 1091.391
1174.712, 1095.529
1176.640, 1096.969
1178.569, 1098.969
1180.497, 1105.438
1182.426, 1118.146
1184.354, 1128.229
1186.283, 1134.105
1188.211, 1138.567
1190.140, 1143.349
1192.068, 1148.290
1193.996, 1150.656
1195.925, 1148.042
1197.853, 1146.789
1199.782, 1151.351
1201.710, 1156.887
1203.639, 1155.463
1205.567, 1145.802
1207.496, 1139.337
1209.424, 1138.187
1211.353, 1141.251
1213.281, 1150.117
1215.210, 1163.788
1217.138, 1170.506
1219.067, 1163.491
1220.995, 1157.323
1222.923, 1158.376
1224.852, 1161.900
1226.780, 1159.223
1228.709, 1142.819
1230.637, 1133.624
1232.566, 1133.750
1234.494, 1139.710
1236.423, 1154.269
1238.351, 1175.827
1240.280, 1182.901
1242.208, 1164.506
1244.137, 1149.004
1246.065, 1148.753
1247.994, 1157.040
1249.922, 1165.096
1251.850, 1173.071
1253.779, 1179.600
1255.707, 1185.146
1257.636, 1188.250
1259.564, 1186.694
1261.493, 1180.570
1263.421, 1177.099
1265.350, 1171.932
1267.278, 1175.322
1269.207, 1199.908
1271.135, 1229.229
1273.064, 1238.350
1274.992, 1214.923
1276.921, 1207.367
1278.849, 1230.083
1280.777, 1255.435
1282.706, 1268.108
1284.634, 1271.741
1286.563, 1280.104
1288.491, 1295.387
1290.420, 1309.260
1292.348, 1316.945
1294.277, 1323.339
1296.205, 1333.674
1298.134, 1347.922
1300.062, 1358.506
1301.991, 1364.006
1303.919, 1366.494
1305.848, 1366.113
1307.776, 1363.801
1309.704, 1361.484
1311.633, 1360.045
1313.561, 1357.214
1315.490, 1350.202
1317.418, 1344.587
1319.347, 1344.859
1321.275, 1350.471
1323.204, 1353.944
1325.132, 1352.128
1327.061, 1353.197
1328.989, 1363.669
1330.918, 1374.563
1332.846, 1374.243
1334.775, 1362.953
1336.703, 1352.418
1338.631, 1341.943
1340.560, 1334.732
1342.488, 1334.888
1344.417, 1338.337
1346.345, 1339.522
1348.274, 1338.974
1350.202, 1333.861
1352.131, 1320.042
1354.059, 1305.843
1355.988, 1296.074
1357.916, 1289.808
1359.845, 1281.306
1361.773, 1266.273
1363.702, 1257.038
1365.630, 1259.367
1367.558, 1264.316
1369.487, 1265.104
1371.415, 1261.526
1373.344, 1256.725
1375.272, 1250.703
1377.201, 1243.419
1379.129, 1231.096
1381.058, 1219.674
1382.986, 1219.470
1384.915, 1232.581
1386.843, 1234.495
1388.772, 1212.942
1390.700, 1194.824
1392.629, 1193.012
1394.557, 1199.792
1396.485, 1203.559
1398.414, 1204.132
1400.342, 1202.656
1402.271, 1200.108
1404.199, 1194.423
1406.128, 1180.154
1408.056, 1163.378
1409.985, 1157.589
1411.913, 1165.458
1413.842, 1174.433
1415.770, 1186.502
1417.699, 1194.178
1419.627, 1189.962
1421.556, 1177.264
1423.484, 1172.573
1425.412, 1182.097
1427.341, 1185.737
1429.269, 1174.104
1431.198, 1162.935
1433.126, 1163.778
1435.055, 1174.938
1436.983, 1182.745
1438.912, 1185.721
1440.840, 1187.162
1442.769, 1183.810
1444.697, 1181.615
1446.626, 1187.124
1448.554, 1199.128
1450.483, 1204.545
1452.411, 1199.412
1454.339, 1195.899
1456.268, 1198.182
1458.196, 1201.516
1460.125, 1200.407
1462.053, 1196.274
1463.982, 1198.878
1465.910, 1212.562
1467.839, 1222.650
1469.767, 1220.144
1471.696, 1216.296
1473.624, 1221.916
1475.553, 1234.384
1477.481, 1241.652
1479.410, 1240.972
1481.338, 1240.509
1483.266, 1242.966
1485.195, 1246.231
1487.123, 1248.379
1489.052, 1249.884
1490.980, 1253.796
1492.909, 1262.345
1494.837, 1267.985
1496.766, 1264.149
1498.694, 1260.909
1500.623, 1266.875
1502.551, 1280.372
1504.480, 1287.176
1506.408, 1283.390
1508.337, 1281.633
1510.265, 1282.004
1512.193, 1287.145
1514.122, 1303.015
1516.050, 1326.255
1517.979, 1338.624
1519.907, 1334.365
1521.836, 1330.851
1523.764, 1328.076
1525.693, 1327.966
1527.621, 1333.636
1529.550, 1342.863
1531.478, 1348.282
1533.407, 1345.169
1535.335, 1347.086
1537.264, 1357.468
1539.192, 1368.511
1541.120, 1375.449
1543.049, 1380.802
1544.977, 1390.118
1546.906, 1405.043
1548.834, 1418.863
1550.763, 1437.872
1552.691, 1448.360
1554.620, 1442.767
1556.548, 1427.935
1558.477, 1410.320
1560.405, 1388.733
1562.334, 1377.735
1564.262, 1388.196
1566.191, 1393.383
1568.119, 1381.617
1570.047, 1365.437
1571.976, 1356.307
1573.904, 1353.857
1575.833, 1353.218
1577.761, 1355.090
1579.690, 1356.534
1581.618, 1354.244
1583.547, 1353.455
1585.475, 1360.559
1587.404, 1371.694
1589.332, 1374.942
1591.261, 1368.669
1593.189, 1363.960
1595.118, 1362.449
1597.046, 1363.633
1598.974, 1370.959
1600.903, 1379.187
1602.831, 1379.468
1604.760, 1371.826
1606.688, 1365.490
1608.617, 1361.227
1610.545, 1358.695
1612.474, 1357.665
1614.402, 1358.417
1616.331, 1362.417
1618.259, 1368.701
1620.188, 1372.268
1622.116, 1371.678
1624.045, 1372.962
1625.973, 1379.929
1627.901, 1386.293
1629.830, 1388.270
1631.758, 1386.635
1633.687, 1382.117
1635.615, 1374.417
1637.544, 1366.998
1639.472, 1357.407
1641.401, 1353.990
1643.329, 1370.157
1645.258, 1387.128
1647.186, 1383.231
1649.115, 1362.958
1651.043, 1352.947
1652.972, 1358.304
1654.900, 1361.098
1656.828, 1355.590
1658.757, 1347.206
1660.685, 1335.516
1662.614, 1324.673
1664.542, 1324.455
1666.471, 1335.687
1668.399, 1342.207
1670.328, 1339.945
1672.256, 1336.962
1674.185, 1332.644
1676.113, 1332.149
1678.042, 1343.617
1679.970, 1362.659
1681.899, 1370.803
1683.827, 1363.825
1685.755, 1362.356
1687.684, 1377.184
1689.612, 1389.499
1691.541, 1388.327
1693.469, 1379.251
1695.398, 1366.536
1697.326, 1351.015
1699.255, 1344.604
1701.183, 1350.682
1703.112, 1358.991
1705.040, 1369.198
1706.969, 1377.916
1708.897, 1384.330
1710.826, 1387.428
1712.754, 1383.649
1714.682, 1372.660
1716.611, 1363.412
1718.539, 1355.226
1720.468, 1352.456
1722.396, 1363.756
1724.325, 1374.848
1726.253, 1370.670
1728.182, 1356.879
1730.110, 1350.406
1732.039, 1352.538
1733.967, 1355.709
1735.896, 1360.677
1737.824, 1363.467
1739.753, 1360.823
1741.681, 1356.446
1743.609, 1353.892
1745.538, 1352.994
1747.466, 1353.028
1749.395, 1355.024
1751.323, 1354.638
1753.252, 1347.545
1755.180, 1342.591
1757.109, 1344.779
1759.037, 1349.555
1760.966, 1349.695
1762.894, 1346.041
1764.823, 1351.318
1766.751, 1372.476
1768.680, 1382.940
1770.608, 1369.946
1772.536, 1357.836
1774.465, 1358.214
1776.393, 1364.423
1778.322, 1370.334
1780.250, 1375.756
1782.179, 1375.255
1784.107, 1361.581
1786.036, 1355.587
1787.964, 1361.741
1789.893, 1370.725
1791.821, 1382.635
1793.750, 1392.865
1795.678, 1395.513
1797.607, 1391.202
1799.535, 1385.450
1801.464, 1372.337
1803.392, 1370.132
1805.320, 1389.675
1807.249, 1406.023
1809.177, 1409.699
1811.106, 1407.396
1813.034, 1404.424
1814.963, 1401.154
1816.891, 1399.280
1818.820, 1398.713
1820.748, 1400.619
1822.677, 1405.379
1824.605, 1412.461
1826.534, 1427.182
1828.462, 1438.784
1830.391, 1435.118
1832.319, 1422.211
1834.247, 1419.266
1836.176, 1426.935
1838.104, 1433.086
1840.033, 1434.755
1841.961, 1439.441
1843.890, 1455.769
1845.818, 1468.239
1847.747, 1462.161
1849.675, 1448.101
1851.604, 1441.558
1853.532, 1442.151
1855.461, 1445.962
1857.389, 1455.392
1859.318, 1458.434
1861.246, 1446.641
1863.174, 1435.958
1865.103, 1433.632
1867.031, 1436.157
1868.960, 1441.571
1870.888, 1448.548
1872.817, 1450.637
1874.745, 1445.914
1876.674, 1443.713
1878.602, 1445.254
1880.531, 1448.683
1882.459, 1459.728
1884.388, 1466.702
1886.316, 1457.168
1888.245, 1439.547
1890.173, 1430.208
1892.101, 1429.505
1894.030, 1434.139
1895.958, 1449.265
1897.887, 1459.601
1899.815, 1459.885
1901.744, 1459.440
1903.672, 1460.557
1905.601, 1462.886
1907.529, 1466.797
1909.458, 1471.614
1911.386, 1475.478
1913.315, 1478.727
1915.243, 1477.896
1917.172, 1470.675
1919.100, 1465.557
1921.028, 1463.246
1922.957, 1466.402
1924.885, 1482.071
1926.814, 1500.351
1928.742, 1509.854
1930.671, 1511.558
1932.599, 1507.910
1934.528, 1497.203
1936.456, 1493.100
1938.385, 1503.720
1940.313, 1509.289
1942.242, 1498.751
1944.170, 1487.528
1946.099, 1486.880
1948.027, 1491.410
1949.955, 1492.452
1951.884, 1490.595
1953.812, 1491.599
1955.741, 1496.359
1957.669, 1501.975
1959.598, 1507.818
1961.526, 1514.136
1963.455, 1523.928
1965.383, 1529.666
1967.312, 1523.735
1969.240, 1512.499
1971.169, 1505.201
1973.097, 1502.050
1975.026, 1503.544
1976.954, 1511.337
1978.882, 1514.780
1980.811, 1510.171
1982.739, 1507.467
1984.668, 1511.484
1986.596, 1516.305
1988.525, 1518.764
1990.453, 1518.817
1992.382, 1513.590
1994.310, 1505.059
1996.239, 1506.915
1998.167, 1523.471
2000.096, 1530.287
2002.024, 1518.500
2003.953, 1509.980
2005.881, 1510.884
2007.809, 1512.410
2009.738, 1510.685
2011.666, 1507.330
2013.595, 1499.924
2015.523, 1492.561
2017.452, 1503.886
2019.380, 1535.353
2021.309, 1544.572
2023.237, 1521.722
2025.166, 1507.394
2027.094, 1515.289
2029.023, 1522.311
2030.951, 1514.715
2032.880, 1507.423
2034.808, 1513.079
2036.736, 1524.939
2038.665, 1533.385
2040.593, 1538.145
2042.522, 1539.059
2044.450, 1535.293
2046.379, 1529.985
2048.307, 1517.007
2050.236, 1512.677
2052.164, 1531.895
2054.093, 1544.917
2056.021, 1529.488
2057.949, 1510.583
2059.878, 1517.040
2061.807, 1536.247
2063.735, 1535.070
2065.664, 1515.193
2067.592, 1504.841
2069.521, 1506.813
2071.449, 1506.780
2073.377, 1499.777
2075.306, 1497.463
2077.234, 1507.785
2079.163, 1518.471
2081.091, 1522.037
2083.020, 1522.920
2084.948, 1524.807
2086.877, 1527.754
2088.805, 1532.856
2090.734, 1540.364
2092.662, 1546.501
2094.591, 1554.983
2096.519, 1553.705
2098.448, 1530.679
2100.376, 1519.407
2102.304, 1540.646
2104.233, 1557.558
2106.161, 1546.431
2108.090, 1528.632
2110.018, 1521.524
2111.947, 1521.656
2113.875, 1521.909
2115.804, 1523.116
2117.732, 1534.338
2119.661, 1559.129
2121.589, 1576.342
2123.518, 1581.621
2125.446, 1584.331
2127.375, 1585.492
2129.303, 1584.907
2131.231, 1577.669
2133.160, 1573.531
2135.088, 1585.674
2137.017, 1601.442
2138.945, 1598.831
2140.874, 1583.526
2142.802, 1579.427
2144.731, 1586.644
2146.659, 1588.132
2148.588, 1580.226
2150.516, 1580.550
2152.445, 1602.908
2154.373, 1612.990
2156.302, 1581.858
2158.230, 1558.899
2160.158, 1583.619
2162.087, 1613.842
2164.015, 1604.695
2165.944, 1575.960
2167.872, 1565.024
2169.801, 1570.475
2171.729, 1578.773
2173.658, 1590.470
2175.586, 1595.957
2177.515, 1591.419
2179.443, 1594.225
2181.372, 1614.573
2183.300, 1625.903
2185.229, 1605.570
2187.157, 1590.004
2189.085, 1607.854
2191.014, 1630.229
2192.942, 1628.457
2194.871, 1614.457
2196.799, 1607.765
2198.728, 1607.760
2200.656, 1611.329
2202.585, 1618.555
2204.513, 1620.492
2206.442, 1615.433
2208.370, 1610.829
2210.299, 1607.847
2212.227, 1605.693
2214.156, 1607.274
2216.084, 1605.606
2218.012, 1590.683
2219.941, 1579.699
2221.869, 1589.762
2223.798, 1607.258
2225.726, 1615.706
2227.655, 1617.349
2229.583, 1616.601
2231.512, 1613.967
2233.440, 1618.902
2235.369, 1632.165
2237.297, 1638.468
2239.226, 1636.008
2241.154, 1627.053
2243.083, 1604.191
2245.011, 1590.646
2246.939, 1601.386
2248.868, 1611.860
2250.796, 1608.908
2252.725, 1603.902
2254.653, 1608.794
2256.582, 1614.079
2258.510, 1602.834
2260.439, 1584.564
2262.367, 1586.734
2264.296, 1604.395
2266.224, 1609.535
2268.153, 1601.192
2270.081, 1595.379
2272.010, 1593.588
2273.938, 1592.622
2275.866, 1592.941
2277.795, 1591.997
2279.723, 1586.439
2281.652, 1583.688
2283.580, 1586.935
2285.509, 1593.125
2287.437, 1605.871
2289.366, 1616.094
2291.294, 1614.277
2293.223, 1606.141
2295.151, 1595.226
2297.080, 1585.311
2299.008, 1591.112
2300.937, 1610.915
2302.865, 1617.047
2304.793, 1604.078
2306.722, 1601.417
2308.650, 1614.136
2310.579, 1620.863
2312.507, 1614.868
2314.436, 1598.001
2316.364, 1614.955
2318.293, 1623.946
2320.221, 1625.406
2322.150, 1596.768
2324.078, 1606.994
2326.007, 1601.644
2327.935, 1595.657
2329.864, 1611.352
2331.792, 1587.092
2333.720, 1602.444
2335.649, 1601.983
2337.577, 1608.759
2339.506, 1599.864
2341.434, 1613.688
2343.363, 1619.695
2345.291, 1617.271
2347.220, 1617.169
2349.148, 1620.684
2351.077, 1625.923
2353.005, 1636.595
2354.934, 1642.633
2356.862, 1642.255
2358.791, 1637.429
2360.719, 1623.170
2362.647, 1612.482
2364.576, 1614.749
2366.504, 1619.354
2368.433, 1618.206
2370.361, 1616.213
2372.290, 1619.503
2374.218, 1625.111
2376.147, 1632.700
2378.075, 1637.355
2380.004, 1613.568
2381.932, 1569.332
2383.861, 1575.385
2385.789, 1627.678
2387.718, 1645.832
2389.646, 1621.082
2391.574, 1609.489
2393.503, 1622.348
2395.431, 1632.024
2397.360, 1634.401
2399.288, 1636.125
2401.217, 1639.155
2403.145, 1639.559
2405.074, 1633.629
2407.002, 1630.043
2408.931, 1635.479
2410.859, 1640.453
2412.788, 1638.960
2414.716, 1634.894
2416.645, 1630.851
2418.573, 1626.325
2420.501, 1617.420
2422.430, 1609.620
2424.358, 1615.522
2426.287, 1629.056
2428.215, 1633.976
2430.144, 1632.020
2432.072, 1628.238
2434.001, 1623.203
2435.929, 1622.109
2437.858, 1625.224
2439.786, 1631.099
2441.715, 1641.856
2443.643, 1647.656
2445.572, 1648.556
2447.500, 1641.018
2449.428, 1618.931
2451.357, 1609.258
2453.285, 1626.417
2455.214, 1640.858
2457.142, 1642.510
2459.071, 1642.144
2460.999, 1639.536
2462.928, 1640.855
2464.856, 1654.985
2466.785, 1666.056
2468.713, 1661.723
2470.642, 1653.808
2472.570, 1650.413
2474.499, 1649.958
2476.427, 1656.286
2478.355, 1660.461
2480.284, 1641.139
2482.212, 1613.893
2484.141, 1615.533
2486.069, 1636.720
2487.998, 1645.585
2489.926, 1645.977
2491.855, 1657.165
2493.783, 1677.850
2495.712, 1685.066
2497.640, 1676.894
2499.569, 1671.297
2501.497, 1668.802
2503.426, 1666.955
2505.354, 1666.548
2507.282, 1661.735
2509.211, 1649.195
2511.139, 1649.236
2513.068, 1676.878
2514.996, 1690.103
2516.925, 1670.813
2518.853, 1654.850
2520.782, 1647.135
2522.710, 1643.608
2524.639, 1644.059
2526.567, 1646.275
2528.496, 1652.355
2530.424, 1655.207
2532.353, 1645.182
2534.281, 1639.797
2536.209, 1657.468
2538.138, 1673.562
2540.066, 1665.417
2541.995, 1655.375
2543.923, 1661.086
2545.852, 1673.225
2547.780, 1685.883
2549.709, 1697.452
2551.637, 1710.893
2553.566, 1718.060
2555.494, 1696.944
2557.423, 1665.974
2559.351, 1665.358
2561.280, 1681.211
2563.208, 1680.104
2565.136, 1669.385
2567.065, 1672.829
2568.993, 1686.723
2570.922, 1693.149
2572.850, 1692.988
2574.779, 1694.572
2576.707, 1697.527
2578.636, 1697.296
2580.564, 1693.695
2582.493, 1685.661
2584.421, 1672.238
2586.350, 1664.870
2588.278, 1663.119
2590.207, 1672.492
2592.135, 1696.176
2594.063, 1710.704
2595.992, 1713.839
2597.920, 1714.267
2599.849, 1712.871
2601.777, 1708.461
2603.706, 1696.957
2605.634, 1688.971
2607.563, 1686.230
2609.491, 1683.121
2611.420, 1679.509
2613.348, 1675.177
2615.277, 1669.510
2617.205, 1666.257
2619.134, 1667.159
2621.062, 1669.731
2622.990, 1674.798
2624.919, 1678.813
2626.847, 1681.093
2628.776, 1681.066
2630.704, 1676.939
2632.633, 1673.497
2634.561, 1666.033
2636.490, 1670.085
2638.418, 1707.460
2640.347, 1733.587
2642.275, 1722.725
2644.204, 1711.815
2646.132, 1721.091
2648.061, 1726.352
2649.989, 1709.312
2651.917, 1692.390
2653.846, 1683.890
2655.774, 1684.927
2657.703, 1705.498
2659.631, 1724.126
2661.560, 1730.894
2663.488, 1729.488
2665.417, 1713.732
2667.345, 1701.313
2669.274, 1706.231
2671.202, 1717.425
2673.131, 1729.239
2675.059, 1741.130
2676.988, 1760.179
2678.916, 1770.239
2680.844, 1748.094
2682.773, 1723.813
2684.701, 1723.912
2686.630, 1733.300
2688.558, 1743.801
2690.487, 1751.349
2692.415, 1751.310
2694.344, 1748.379
2696.272, 1747.172
2698.201, 1744.649
2700.129, 1733.584
2702.058, 1724.092
2703.986, 1728.425
2705.915, 1737.306
2707.843, 1742.683
2709.771, 1747.585
2711.700, 1758.597
2713.628, 1767.050
2715.557, 1756.295
2717.485, 1745.957
2719.414, 1765.102
2721.342, 1786.182
2723.271, 1779.830
2725.199, 1765.843
2727.128, 1764.880
2729.056, 1766.796
2730.985, 1759.548
2732.913, 1751.283
2734.842, 1751.973
2736.770, 1753.647
2738.698, 1744.709
2740.627, 1737.156
2742.555, 1748.158
2744.484, 1760.204
2746.412, 1752.563
2748.341, 1741.526
2750.269, 1744.093
2752.198, 1747.360
2754.126, 1742.459
2756.055, 1730.897
2757.983, 1704.706
2759.912, 1683.589
2761.840, 1685.042
2763.769, 1697.937
2765.697, 1723.741
2767.625, 1745.299
2769.554, 1747.964
2771.482, 1743.334
2773.411, 1733.689
2775.339, 1728.114
2777.268, 1738.441
2779.196, 1745.528
2781.125, 1734.151
2783.053, 1720.138
2784.982, 1707.913
2786.910, 1703.764
2788.839, 1718.314
2790.767, 1732.647
2792.696, 1741.323
2794.624, 1742.898
2796.552, 1729.865
2798.481, 1719.001
2800.409, 1715.137
2802.338, 1717.895
2804.266, 1731.518
2806.195, 1740.965
2808.123, 1740.433
2810.052, 1734.958
2811.980, 1719.571
2813.909, 1713.176
2815.837, 1726.830
2817.766, 1734.352
2819.694, 1725.924
2821.623, 1721.538
2823.551, 1733.337
2825.479, 1736.699
2827.408, 1723.009
2829.336, 1712.454
2831.265, 1705.732
2833.193, 1709.371
2835.122, 1728.547
2837.050, 1743.239
2838.979, 1752.959
2840.907, 1749.927
2842.836, 1730.437
2844.764, 1727.401
2846.693, 1746.173
2848.621, 1752.684
2850.550, 1741.287
2852.478, 1737.385
2854.406, 1741.206
2856.335, 1751.019
2858.263, 1764.787
2860.192, 1758.949
2862.120, 1734.535
2864.049, 1725.309
2865.977, 1729.418
2867.906, 1730.451
2869.834, 1730.548
2871.763, 1739.020
2873.691, 1751.941
2875.620, 1755.958
2877.548, 1755.161
2879.477, 1761.818
2881.405, 1769.310
2883.333, 1763.473
2885.262, 1750.836
2887.190, 1736.104
2889.119, 1724.471
2891.047, 1724.332
2892.976, 1729.156
2894.904, 1735.513
2896.833, 1739.862
2898.761, 1737.065
2900.690, 1734.626
2902.618, 1739.460
2904.547, 1744.458
2906.475, 1746.125
2908.404, 1746.599
2910.332, 1746.772
2912.260, 1746.044
2914.189, 1744.372
2916.117, 1741.150
2918.046, 1733.914
2919.974, 1733.452
2921.903, 1749.488
2923.831, 1750.380
2925.760, 1704.709
2927.688, 1698.056
2929.617, 1743.050
2931.545, 1766.795
2933.474, 1760.939
2935.402, 1753.404
2937.331, 1746.340
2939.259, 1737.619
2941.188, 1727.866
2943.116, 1731.068
2945.044, 1744.616
2946.973, 1751.360
2948.901, 1753.801
2950.830, 1766.008
2952.758, 1779.506
2954.687, 1762.250
2956.615, 1737.732
2958.544, 1750.512
2960.472, 1771.596
2962.401, 1756.532
2964.329, 1735.480
2966.258, 1739.818
2968.186, 1749.670
2970.115, 1755.509
2972.043, 1756.248
2973.971, 1746.369
2975.900, 1740.540
2977.828, 1747.467
2979.757, 1752.481
2981.685, 1748.615
2983.614, 1746.985
2985.542, 1753.105
2987.471, 1753.127
2989.399, 1744.001
2991.328, 1738.424
2993.256, 1738.411
2995.185, 1736.618
2997.113, 1732.025
2999.042, 1736.097
3000.970, 1746.519
3002.898, 1738.311
3004.827, 1717.477
3006.755, 1708.413
3008.684, 1710.278
3010.612, 1725.053
3012.541, 1745.295
3014.469, 1763.491
3016.398, 1774.963
3018.326, 1769.720
3020.255, 1761.094
3022.183, 1762.447
3024.112, 1762.380
3026.040, 1750.013
3027.969, 1742.422
3029.897, 1755.332
3031.825, 1757.911
3033.754, 1737.190
3035.682, 1727.859
3037.611, 1741.512
3039.539, 1753.099
3041.468, 1760.147
3043.396, 1764.134
3045.325, 1765.084
3047.253, 1768.049
3049.182, 1772.383
3051.110, 1772.775
3053.039, 1769.136
3054.967, 1756.070
3056.896, 1743.635
3058.824, 1758.552
3060.752, 1777.708
3062.681, 1763.450
3064.609, 1745.669
3066.538, 1752.868
3068.466, 1763.698
3070.395, 1767.789
3072.323, 1767.882
3074.252, 1761.341
3076.180, 1759.552
3078.109, 1769.487
3080.037, 1765.099
3081.966, 1726.309
3083.894, 1723.759
3085.823, 1765.236
3087.751, 1771.606
3089.679, 1745.044
3091.608, 1741.526
3093.536, 1752.976
3095.465, 1726.962
3097.393, 1692.133
3099.322, 1730.307
3101.250, 1782.943
3103.179, 1778.938
3105.107, 1755.499
3107.036, 1730.984
3108.964, 1720.344
3110.893, 1742.830
3112.821, 1759.397
3114.750, 1745.879
3116.678, 1746.558
3118.606, 1772.644
3120.535, 1780.953
3122.463, 1760.606
3124.392, 1761.194
3126.320, 1784.643
3128.249, 1778.135
3130.177, 1752.811
3132.106, 1758.126
3134.034, 1774.795
3135.963, 1756.144
3137.891, 1730.834
3139.820, 1734.890
3141.748, 1747.453
3143.677, 1756.171
3145.605, 1763.677
3147.533, 1772.891
3149.462, 1774.865
3151.390, 1762.318
3153.319, 1758.513
3155.247, 1776.188
3157.176, 1774.887
3159.104, 1755.034
3161.033, 1741.785
3162.961, 1737.920
3164.890, 1758.301
3166.818, 1788.498
3168.747, 1790.965
3170.675, 1780.363
3172.604, 1768.823
3174.532, 1760.775
3176.460, 1761.281
3178.389, 1764.566
3180.317, 1769.812
3182.246, 1773.730
3184.174, 1774.009
3186.103, 1775.475
3188.031, 1778.220
3189.960, 1783.643
3191.888, 1791.556
3193.817, 1798.249
3195.745, 1802.733
3197.674, 1800.885
3199.602, 1794.260
3201.531, 1781.662
3203.459, 1771.358
3205.387, 1772.877
3207.316, 1778.416
3209.244, 1787.816
3211.173, 1791.557
3213.101, 1780.224
3215.030, 1777.423
3216.958, 1787.599
3218.887, 1783.080
3220.815, 1761.793
3222.744, 1750.267
3224.672, 1749.470
3226.601, 1775.416
3228.529, 1803.452
3230.458, 1784.377
3232.386, 1758.451
3234.314, 1770.119
3236.243, 1781.681
3238.171, 1768.225
3240.100, 1764.990
3242.028, 1801.123
3243.957, 1805.148
3245.885, 1770.181
3247.814, 1761.229
3249.742, 1779.776
3251.671, 1772.399
3253.599, 1751.056
3255.528, 1754.178
3257.456, 1765.456
3259.385, 1761.642
3261.313, 1761.313
3263.241, 1784.746
3265.170, 1802.273
3267.098, 1801.579
3269.027, 1796.106
3270.955, 1786.520
3272.884, 1780.032
3274.812, 1776.601
3276.741, 1766.328
3278.669, 1755.193
3280.598, 1775.651
3282.526, 1803.034
3284.455, 1798.184
3286.383, 1787.370
3288.312, 1792.476
3290.240, 1796.281
3292.168, 1789.207
3294.097, 1790.748
3296.025, 1811.175
3297.954, 1828.587
3299.882, 1842.113
3301.811, 1826.991
3303.739, 1796.537
3305.668, 1799.477
3307.596, 1814.068
3309.525, 1807.899
3311.453, 1798.123
3313.382, 1794.178
3315.310, 1794.722
3317.239, 1803.551
3319.167, 1799.533
3321.095, 1775.018
3323.024, 1770.385
3324.952, 1785.909
3326.881, 1798.870
3328.809, 1806.104
3330.738, 1794.384
3332.666, 1781.628
3334.595, 1791.661
3336.523, 1803.580
3338.452, 1810.160
3340.380, 1808.412
3342.309, 1794.576
3344.237, 1783.380
3346.166, 1776.239
3348.094, 1781.109
3350.022, 1794.725
3351.951, 1807.144
3353.879, 1814.584
3355.808, 1808.132
3357.736, 1801.252
3359.665, 1804.136
3361.593, 1808.514
3363.522, 1812.715
3365.450, 1816.711
3367.379, 1821.368
3369.307, 1821.458
3371.236, 1817.730
3373.164, 1812.458
3375.093, 1807.028
3377.021, 1801.359
3378.949, 1800.024
3380.878, 1812.647
3382.806, 1818.389
3384.735, 1803.864
3386.663, 1797.697
3388.592, 1802.705
3390.520, 1809.289
3392.449, 1816.900
3394.377, 1833.997
3396.306, 1844.562
3398.234, 1811.676
3400.163, 1782.406
3402.091, 1802.673
3404.020, 1820.940
3405.948, 1823.231
3407.876, 1822.201
3409.805, 1818.665
3411.733, 1823.314
3413.662, 1829.010
3415.590, 1800.767
3417.519, 1769.440
3419.447, 1782.371
3421.376, 1809.193
3423.304, 1852.677
3425.233, 1862.155
3427.161, 1814.324
3429.090, 1796.136
3431.018, 1812.456
3432.947, 1819.591
3434.875, 1821.898
3436.803, 1844.712
3438.732, 1857.693
3440.660, 1815.138
3442.589, 1781.882
3444.517, 1785.252
3446.446, 1798.262
3448.374, 1819.345
3450.303, 1832.748
3452.231, 1838.091
3454.160, 1827.442
3456.088, 1811.979
3458.017, 1805.703
3459.945, 1805.086
3461.874, 1808.115
3463.802, 1813.516
3465.730, 1827.026
3467.659, 1820.336
3469.587, 1797.715
3471.516, 1820.432
3473.444, 1862.039
3475.373, 1867.773
3477.301, 1852.656
3479.230, 1812.268
3481.158, 1791.157
3483.087, 1815.222
3485.015, 1828.497
3486.944, 1825.913
3488.872, 1808.879
3490.801, 1788.436
3492.729, 1810.863
3494.657, 1837.366
3496.586, 1820.845
3498.514, 1810.717
3500.443, 1829.283
3502.371, 1842.269
3504.300, 1843.218
3506.228, 1845.532
3508.157, 1847.607
3510.085, 1836.892
3512.014, 1828.079
3513.942, 1844.208
3515.871, 1856.730
3517.799, 1852.595
3519.728, 1846.272
3521.656, 1838.814
3523.584, 1844.612
3525.513, 1856.429
3527.441, 1846.448
3529.370, 1830.972
3531.298, 1827.029
3533.227, 1829.111
3535.155, 1840.030
3537.084, 1844.561
3539.012, 1841.535
3540.941, 1835.348
3542.869, 1829.794
3544.798, 1839.176
3546.726, 1851.167
3548.655, 1853.808
3550.583, 1854.455
3552.511, 1857.824
3554.440, 1850.659
3556.368, 1833.466
3558.297, 1850.656
3560.225, 1883.288
3562.154, 1875.631
3564.082, 1857.523
3566.011, 1849.329
3567.939, 1844.297
3569.868, 1840.456
3571.796, 1838.719
3573.725, 1839.542
3575.653, 1853.344
3577.582, 1866.981
3579.510, 1851.638
3581.438, 1839.392
3583.367, 1856.937
3585.295, 1864.690
3587.224, 1851.575
3589.152, 1861.264
3591.081, 1886.099
3593.009, 1873.862
3594.938, 1850.843
3596.866, 1840.165
3598.795, 1840.493
3600.723, 1854.261
3602.652, 1863.619
3604.580, 1866.250
3606.509, 1868.893
3608.437, 1871.700
3610.365, 1877.443
3612.294, 1878.802
3614.222, 1867.692
3616.151, 1859.933
3618.079, 1859.576
3620.008, 1866.545
3621.936, 1877.999
3623.865, 1882.267
3625.793, 1883.134
3627.722, 1885.163
3629.650, 1885.466
3631.579, 1884.530
3633.507, 1872.659
3635.436, 1851.435
3637.364, 1861.489
3639.292, 1881.360
3641.221, 1862.362
3643.149, 1849.166
3645.078, 1878.270
3647.006, 1890.444
3648.935, 1874.940
3650.863, 1887.633
3652.792, 1914.796
3654.720, 1910.142
3656.649, 1894.556
3658.577, 1882.298
3660.506, 1874.368
3662.434, 1873.316
3664.363, 1860.377
3666.291, 1842.643
3668.219, 1864.207
3670.148, 1893.539
3672.076, 1893.245
3674.005, 1889.597
3675.933, 1895.218
3677.862, 1886.887
3679.790, 1868.044
3681.719, 1881.565
3683.647, 1899.374
3685.576, 1866.183
3687.504, 1844.883
3689.433, 1886.337
3691.361, 1892.876
3693.290, 1863.197
3695.218, 1861.289
3697.146, 1875.075
3699.075, 1888.131
3701.003, 1891.109
3702.932, 1863.423
3704.860, 1867.527
3706.789, 1905.544
3708.717, 1898.337
3710.646, 1872.180
3712.574, 1890.794
3714.503, 1907.239
3716.431, 1888.058
3718.360, 1870.659
3720.288, 1859.240
3722.217, 1878.646
3724.145, 1908.175
3726.073, 1897.589
3728.002, 1885.377
3729.930, 1899.970
3731.859, 1905.830
3733.787, 1899.543
3735.716, 1879.614
3737.644, 1861.743
3739.573, 1893.146
3741.501, 1917.839
3743.430, 1888.480
3745.358, 1887.220
3747.287, 1918.395
3749.215, 1914.223
3751.144, 1891.914
3753.072, 1881.421
3755.000, 1877.134
3756.929, 1872.329
3758.857, 1890.359
3760.786, 1927.822
3762.714, 1925.270
3764.643, 1904.460
3766.571, 1892.316
3768.500, 1893.828
3770.428, 1929.544
3772.357, 1922.769
3774.285, 1882.517
3776.214, 1902.184
3778.142, 1936.984
3780.071, 1925.820
3781.999, 1913.062
3783.927, 1917.245
3785.856, 1918.143
3787.784, 1916.717
3789.713, 1919.602
3791.641, 1919.685
3793.570, 1907.531
3795.498, 1897.807
3797.427, 1893.341
3799.355, 1902.496
3801.284, 1916.040
3803.212, 1905.056
3805.141, 1895.833
3807.069, 1906.999
3808.998, 1918.151
3810.926, 1925.995
3812.854, 1929.886
3814.783, 1929.060
3816.711, 1912.876
3818.640, 1911.296
3820.568, 1942.353
3822.497, 1953.732
3824.425, 1943.339
3826.354, 1928.102
3828.282, 1916.400
3830.211, 1919.805
3832.139, 1926.516
3834.068, 1934.193
3835.996, 1938.868
3837.925, 1939.739
3839.853, 1934.997
3841.781, 1925.247
3843.710, 1903.362
3845.638, 1899.835
3847.567, 1919.066
3849.495, 1926.247
3851.424, 1927.521
3853.352, 1934.019
3855.281, 1934.087
3857.209, 1921.151
3859.138, 1922.908
3861.066, 1936.713
3862.995, 1945.228
3864.923, 1947.930
3866.852, 1937.908
3868.780, 1939.083
3870.708, 1954.588
3872.637, 1939.885
3874.565, 1918.329
3876.494, 1937.207
3878.422, 1951.331
3880.351, 1942.544
3882.279, 1930.795
3884.208, 1917.579
3886.136, 1924.570
3888.065, 1932.930
3889.993, 1924.960
3891.922, 1927.573
3893.850, 1944.217
3895.779, 1944.351
3897.707, 1939.570
3899.635, 1928.983
3901.564, 1932.403
3903.492, 1968.445
3905.421, 1979.767
3907.349, 1972.328
3909.278, 1960.965
3911.206, 1956.239
3913.135, 1969.036
3915.063, 1972.464
3916.992, 1971.655
3918.920, 1965.440
3920.849, 1953.964
3922.777, 1941.860
3924.706, 1941.669
3926.634, 1950.154
3928.563, 1953.118
3930.491, 1954.625
3932.419, 1966.173
3934.348, 1973.495
3936.276, 1959.750
3938.205, 1959.059
3940.133, 1967.100
3942.062, 1965.458
3943.990, 1966.211
3945.919, 1973.448
3947.847, 1979.943
3949.776, 1983.692
3951.704, 1966.382
3953.633, 1944.648
3955.561, 1933.770
3957.490, 1938.695
3959.418, 1962.241
3961.346, 1971.239
3963.275, 1969.751
3965.203, 1977.103
3967.132, 1991.689
3969.060, 2004.009
3970.989, 2003.144
3972.917, 2002.079
3974.846, 2006.813
3976.774, 2004.638
3978.703, 1992.237
3980.631, 1984.490
3982.560, 1988.540
3984.488, 1994.545
3986.417, 2011.293
3988.345, 2021.259
3990.273, 2015.865
3992.202, 2017.817
3994.130, 2014.782
3996.059, 2008.133
3997.987, 2001.257
3999.916, 2008.838
4001.844, 2030.885
4003.773, 2016.809
4005.701, 1996.521
4007.630, 1995.919
4009.558, 2002.533
4011.487, 2022.179
4013.415, 2027.374
4015.344, 2019.322
4017.272, 2007.523
4019.200, 2003.468
4021.129, 2004.850
4023.057, 2009.048
4024.986, 2016.448
4026.914, 2026.797
4028.843, 2030.618
4030.771, 2019.845
4032.700, 2017.520
4034.628, 2020.965
4036.557, 2021.783
4038.485, 2019.223
4040.414, 2015.608
4042.342, 2016.397
4044.271, 2020.528
4046.199, 2031.251
4048.127, 2038.332
4050.056, 2038.265
4051.984, 2040.665
4053.913, 2039.401
4055.841, 2030.212
4057.770, 2022.039
4059.698, 2022.522
4061.627, 2024.418
4063.555, 2036.021
4065.484, 2041.120
4067.412, 2035.688
4069.341, 2034.584
4071.269, 2038.163
4073.198, 2033.337
4075.126, 2035.730
4077.054, 2042.117
4078.983, 2040.311
4080.911, 2038.309
4082.840, 2041.113
4084.768, 2047.097
4086.697, 2050.777
4088.625, 2043.366
4090.554, 2036.170
4092.482, 2051.811
4094.411, 2059.175
4096.339, 2054.508
4098.268, 2048.911
4100.196, 2047.007
4102.125, 2062.024
4104.053, 2077.298
4105.981, 2086.046
4107.910, 2068.401
4109.838, 2038.213
4111.767, 2053.386
4113.695, 2069.536
4115.624, 2054.727
4117.552, 2057.497
4119.481, 2073.883
4121.409, 2091.881
4123.338, 2090.179
4125.266, 2070.424
4127.195, 2065.806
4129.123, 2066.153
4131.052, 2069.522
4132.980, 2070.648
4134.909, 2071.574
4136.837, 2078.823
4138.766, 2082.915
4140.694, 2100.461
4142.623, 2103.005
4144.551, 2070.554
4146.479, 2061.336
4148.408, 2082.942
4150.336, 2080.430
4152.265, 2073.512
4154.193, 2090.360
4156.122, 2104.037
4158.050, 2107.209
4159.979, 2101.418
4161.907, 2096.083
4163.835, 2096.628
4165.764, 2091.402
4167.692, 2085.648
4169.621, 2086.724
4171.549, 2087.883
4173.478, 2104.224
4175.406, 2109.078
4177.335, 2084.059
4179.263, 2086.253
4181.192, 2103.258
4183.120, 2103.744
4185.049, 2116.018
4186.977, 2143.154
4188.906, 2129.120
4190.834, 2105.738
4192.763, 2101.206
4194.691, 2099.203
4196.620, 2101.940
4198.548, 2142.688
4200.477, 2176.249
4202.405, 2143.941
4204.333, 2123.431
4206.262, 2125.729
4208.190, 2134.655
4210.119, 2145.534
4212.047, 2157.644
4213.976, 2157.320
4215.904, 2144.290
4217.833, 2131.449
4219.761, 2130.752
4221.689, 2160.344
4223.618, 2175.003
4225.546, 2171.944
4227.475, 2173.121
4229.403, 2170.456
4231.332, 2155.504
4233.260, 2141.834
4235.189, 2134.333
4237.117, 2153.256
4239.046, 2172.331
4240.974, 2174.689
4242.903, 2172.733
4244.831, 2169.323
4246.760, 2171.988
4248.688, 2169.977
4250.617, 2156.127
4252.545, 2162.916
4254.474, 2179.029
4256.402, 2166.885
4258.331, 2149.945
4260.259, 2135.569
4262.188, 2136.667
4264.116, 2152.460
4266.044, 2195.144
4267.973, 2212.879
4269.901, 2194.218
4271.830, 2207.887
4273.758, 2230.844
4275.687, 2228.713
4277.615, 2221.715
4279.543, 2213.402
4281.472, 2194.223
4283.400, 2177.545
4285.329, 2169.894
4287.257, 2196.605
4289.186, 2245.216
4291.114, 2236.341
4293.043, 2213.939
4294.971, 2204.728
4296.900, 2199.487
4298.828, 2199.369
4300.757, 2213.175
4302.685, 2227.902
4304.614, 2238.509
4306.542, 2236.816
4308.471, 2232.772
4310.399, 2249.871
4312.328, 2258.808
4314.256, 2252.135
4316.185, 2218.636
4318.113, 2191.818
4320.042, 2225.407
4321.970, 2220.320
4323.898, 2175.717
4325.827, 2206.174
4327.755, 2246.548
4329.684, 2251.265
4331.612, 2240.923
4333.541, 2225.127
4335.469, 2225.765
4337.397, 2236.414
4339.326, 2262.737
4341.254, 2249.750
4343.183, 2222.244
4345.111, 2222.866
4347.040, 2215.894
4348.968, 2195.456
4350.897, 2193.215
4352.825, 2201.078
4354.754, 2216.816
4356.682, 2218.697
4358.611, 2211.252
4360.539, 2224.474
4362.468, 2236.206
4364.396, 2236.845
4366.325, 2253.625
4368.253, 2265.492
4370.182, 2220.511
4372.110, 2208.847
4374.039, 2240.238
4375.967, 2249.101
4377.896, 2245.502
4379.824, 2233.559
4381.752, 2244.031
4383.681, 2265.640
4385.609, 2245.768
4387.538, 2253.005
4389.466, 2319.117
4391.395, 2296.346
4393.323, 2245.083
4395.251, 2252.397
4397.180, 2260.038
4399.108, 2259.098
4401.037, 2250.231
4402.965, 2245.375
4404.894, 2253.848
4406.822, 2265.947
4408.751, 2271.630
4410.679, 2240.409
4412.608, 2224.332
4414.536, 2235.548
4416.465, 2235.826
4418.393, 2231.114
4420.322, 2223.715
4422.250, 2232.675
4424.179, 2248.251
4426.107, 2228.774
4428.036, 2224.551
4429.964, 2250.390
4431.893, 2235.125
4433.821, 2210.706
4435.750, 2216.031
4437.678, 2220.980
4439.606, 2223.339
4441.535, 2225.826
4443.463, 2236.045
4445.392, 2265.116
4447.320, 2247.787
4449.249, 2225.012
4451.177, 2261.645
4453.105, 2259.998
4455.034, 2220.824
4456.962, 2238.549
4458.891, 2253.161
4460.819, 2238.522
4462.748, 2244.464
4464.676, 2250.492
4466.605, 2209.702
4468.533, 2213.803
4470.462, 2259.701
4472.390, 2272.799
4474.319, 2267.055
4476.247, 2240.266
4478.176, 2241.180
4480.104, 2252.778
4482.033, 2255.214
4483.961, 2245.196
4485.890, 2230.084
4487.818, 2261.012
4489.747, 2278.858
4491.675, 2259.992
4493.604, 2246.281
4495.532, 2241.222
4497.460, 2254.144
4499.389, 2245.670
4501.317, 2223.600
4503.246, 2231.840
4505.174, 2235.678
4507.103, 2218.989
4509.031, 2219.501
4510.959, 2222.134
4512.888, 2211.174
4514.816, 2206.261
4516.745, 2205.061
4518.673, 2192.160
4520.602, 2191.659
4522.530, 2206.897
4524.459, 2214.284
4526.387, 2216.435
4528.316, 2212.710
4530.244, 2218.859
4532.173, 2223.985
4534.101, 2196.614
4536.030, 2198.227
4537.958, 2230.294
4539.887, 2225.628
4541.815, 2213.677
4543.744, 2206.894
4545.672, 2200.621
4547.601, 2199.545
4549.529, 2212.490
4551.458, 2221.197
4553.386, 2218.122
4555.314, 2171.671
4557.243, 2162.202
4559.171, 2210.555
4561.100, 2202.587
4563.028, 2196.583
4564.957, 2233.819
4566.885, 2207.196
4568.813, 2162.105
4570.742, 2169.782
4572.670, 2188.695
4574.599, 2205.363
4576.527, 2189.306
4578.456, 2186.094
4580.384, 2214.495
4582.313, 2191.298
4584.241, 2162.707
4586.170, 2160.570
4588.098, 2177.810
4590.027, 2192.428
4591.955, 2164.345
4593.884, 2148.524
4595.812, 2152.498
4597.741, 2175.799
4599.669, 2189.779
4601.598, 2182.619
4603.526, 2181.917
4605.455, 2181.771
4607.383, 2179.183
4609.312, 2163.584
4611.240, 2146.634
4613.168, 2150.076
4615.097, 2136.563
4617.025, 2116.901
4618.954, 2157.444
4620.882, 2167.747
4622.811, 2122.774
4624.739, 2128.735
4626.667, 2140.661
4628.596, 2134.590
4630.524, 2153.539
4632.453, 2169.025
4634.381, 2134.388
4636.310, 2133.091
4638.238, 2156.173
4640.167, 2177.665
4642.095, 2167.517
4644.024, 2131.326
4645.952, 2147.495
4647.881, 2163.519
4649.809, 2160.904
4651.738, 2159.142
4653.666, 2147.876
4655.595, 2103.189
4657.523, 2125.498
4659.452, 2159.787
4661.380, 2127.705
4663.309, 2113.048
4665.237, 2117.143
4667.166, 2116.913
4669.094, 2125.639
4671.022, 2141.136
4672.951, 2129.397
4674.879, 2116.994
4676.808, 2114.144
4678.736, 2150.284
4680.665, 2166.275
4682.593, 2121.669
4684.521, 2111.715
4686.450, 2114.494
4688.378, 2095.581
4690.307, 2079.841
4692.235, 2078.418
4694.164, 2125.934
4696.092, 2123.638
4698.021, 2081.478
4699.949, 2082.309
4701.878, 2088.278
4703.806, 2089.367
4705.735, 2117.254
4707.663, 2131.142
4709.592, 2114.131
4711.520, 2106.287
4713.449, 2105.406
4715.377, 2108.456
4717.306, 2127.574
4719.234, 2139.342
4721.163, 2108.025
4723.091, 2102.747
4725.020, 2109.576
4726.948, 2089.498
4728.876, 2081.541
4730.805, 2087.430
4732.733, 2099.123
4734.662, 2101.698
4736.590, 2091.947
4738.519, 2059.569
4740.447, 2055.731
4742.375, 2088.658
4744.304, 2077.216
4746.232, 2065.413
4748.161, 2080.706
4750.089, 2090.334
4752.018, 2096.878
4753.946, 2103.876
4755.875, 2064.686
4757.803, 2027.674
4759.732, 2057.312
4761.660, 2074.936
4763.589, 2085.559
4765.517, 2108.640
4767.446, 2102.070
4769.374, 2077.914
4771.303, 2067.852
4773.231, 2068.487
4775.160, 2075.907
4777.088, 2079.588
4779.017, 2085.948
4780.945, 2093.896
4782.874, 2096.133
4784.802, 2080.990
4786.730, 2048.488
4788.659, 2055.341
4790.587, 2071.442
4792.516, 2083.300
4794.444, 2066.425
4796.373, 2047.797
4798.301, 2042.636
4800.229, 2052.825
4802.158, 2072.608
4804.086, 2099.620
4806.015, 2099.687
4807.943, 2078.354
4809.872, 2025.471
4811.800, 2033.215
4813.729, 2061.105
4815.657, 2063.626
4817.586, 2047.932
4819.514, 2038.420
4821.443, 2079.132
4823.371, 2080.204
4825.300, 2057.114
4827.228, 2044.941
4829.157, 2053.195
4831.085, 2066.333
4833.014, 2042.575
4834.942, 2052.771
4836.871, 2079.453
4838.799, 2038.587
4840.728, 2029.684
4842.656, 2053.169
4844.584, 2064.899
4846.513, 2062.050
4848.441, 2050.865
4850.370, 2058.342
4852.298, 2067.030
4854.227, 2070.134
4856.155, 2054.637
4858.083, 2040.121
4860.012, 2032.349
4861.940, 2031.268
4863.869, 2042.594
4865.797, 2061.579
4867.726, 2054.814
4869.654, 2040.040
4871.583, 2024.259
4873.511, 2007.069
4875.440, 2007.020
4877.368, 2024.505
4879.297, 1996.944
4881.225, 1988.874
4883.154, 2020.167
4885.082, 2028.482
4887.011, 2032.733
4888.939, 2039.832
4890.868, 2021.551
4892.796, 2019.694
4894.725, 2045.048
4896.653, 2031.461
4898.582, 2008.740
4900.510, 1990.913
4902.438, 1990.474
4904.367, 2006.229
4906.295, 2034.718
4908.224, 2057.505
4910.152, 2055.489
4912.081, 2021.776
4914.009, 1998.031
4915.938, 1993.061
4917.866, 2007.388
4919.794, 2028.330
4921.723, 2032.576
4923.651, 2012.782
4925.580, 2001.327
4927.508, 1997.011
4929.437, 1999.124
4931.365, 2003.219
4933.294, 2004.488
4935.222, 2002.981
4937.151, 2010.417
4939.079, 2029.533
4941.008, 2054.633
4942.936, 2028.239
4944.865, 1996.314
4946.793, 1973.155
4948.722, 1957.020
4950.650, 1961.336
4952.579, 1980.722
4954.507, 1963.251
4956.436, 1954.575
4958.364, 1963.040
4960.292, 1982.883
4962.221, 1983.484
4964.149, 1968.382
4966.078, 1967.454
4968.006, 1970.300
4969.935, 1977.490
4971.863, 2001.279
4973.792, 2012.369
4975.720, 2007.233
4977.648, 1977.116
4979.577, 1986.543
4981.505, 2011.176
4983.434, 1992.615
4985.362, 1986.220
4987.291, 1985.181
4989.219, 1970.464
4991.148, 1963.696
4993.076, 1960.031
4995.005, 1950.897
4996.933, 1941.000
4998.862, 1947.087
5000.790, 1985.111
5002.719, 1985.655
5004.647, 1968.866
5006.576, 1950.226
5008.504, 1978.836
5010.433, 1990.323
5012.361, 1949.366
5014.290, 1943.997
5016.218, 1953.197
5018.146, 1964.932
5020.075, 1961.244
5022.003, 1947.926
5023.932, 1932.676
5025.860, 1964.854
5027.789, 1969.981
5029.717, 1944.890
5031.646, 1944.388
5033.574, 1951.272
5035.502, 1961.286
5037.431, 1973.057
5039.359, 1988.782
5041.288, 1994.137
5043.216, 1959.985
5045.145, 1961.081
5047.073, 1970.253
5049.002, 1943.031
5050.930, 1946.527
5052.859, 1956.338
5054.787, 1947.645
5056.716, 1941.997
5058.644, 1959.606
5060.573, 2003.712
5062.501, 1959.381
5064.430, 1931.018
5066.358, 1955.874
5068.287, 1961.585
5070.215, 1956.297
5072.144, 1945.851
5074.072, 1937.264
5076.000, 1960.090
5077.929, 1990.930
5079.857, 1962.423
5081.786, 1960.328
5083.714, 1973.130
5085.643, 1972.205
5087.571, 1979.766
5089.500, 1978.432
5091.428, 1952.743
5093.356, 1961.768
5095.285, 1969.984
5097.213, 1955.381
5099.142, 1960.986
5101.070, 1951.959
5102.999, 1925.305
5104.927, 1946.738
5106.856, 1955.912
5108.784, 1947.892
5110.713, 1938.822
5112.641, 1953.769
5114.570, 1971.601
5116.498, 1951.317
5118.427, 1939.262
5120.355, 1936.487
5122.284, 1940.791
5124.212, 1957.500
5126.141, 1967.652
5128.069, 1961.353
5129.998, 1950.807
5131.926, 1947.524
5133.854, 1953.698
5135.783, 1967.620
5137.711, 1950.616
5139.640, 1926.525
5141.568, 1969.869
5143.497, 1957.452
5145.425, 1925.987
5147.354, 1928.815
5149.282, 1935.589
5151.210, 1948.303
5153.139, 1965.887
5155.067, 1944.190
5156.996, 1935.716
5158.924, 1949.521
5160.853, 1938.597
5162.781, 1934.600
5164.710, 1942.620
5166.638, 1965.503
5168.567, 1954.445
5170.495, 1942.002
5172.424, 1966.271
5174.352, 1942.951
5176.281, 1929.738
5178.209, 1959.122
5180.138, 1933.016
5182.066, 1917.322
5183.995, 1923.712
5185.923, 1916.984
5187.852, 1914.879
5189.780, 1915.644
5191.708, 1911.421
5193.637, 1909.247
5195.565, 1920.469
5197.494, 1958.813
5199.422, 1952.381
5201.351, 1926.238
5203.279, 1900.502
5205.208, 1935.839
5207.136, 1946.360
5209.064, 1932.734
5210.993, 1926.614
5212.921, 1910.356
5214.850, 1899.773
5216.778, 1910.197
5218.707, 1929.529
5220.635, 1942.425
5222.564, 1942.188
5224.492, 1919.632
5226.421, 1923.958
5228.349, 1943.266
5230.278, 1933.425
5232.206, 1914.231
5234.135, 1918.614
5236.063, 1976.670
5237.992, 1944.348
5239.920, 1915.394
5241.849, 1924.991
5243.777, 1957.538
5245.706, 1955.374
5247.634, 1934.843
5249.563, 1945.095
5251.491, 1949.550
5253.419, 1952.925
5255.348, 1959.941
5257.276, 1938.806
5259.205, 1923.366
5261.133, 1919.978
5263.062, 1909.507
5264.990, 1897.342
5266.918, 1892.404
5268.847, 1909.646
5270.775, 1917.795
5272.704, 1921.338
5274.632, 1922.874
5276.561, 1912.384
5278.489, 1913.225
5280.418, 1920.466
5282.346, 1911.023
5284.275, 1901.610
5286.203, 1900.042
5288.132, 1911.768
5290.060, 1943.218
5291.989, 1955.086
5293.917, 1943.887
5295.846, 1949.642
5297.774, 1942.909
5299.703, 1933.678
5301.631, 1940.450
5303.560, 1935.926
5305.488, 1908.306
5307.417, 1863.861
5309.345, 1894.782
5311.273, 1929.846
5313.202, 1940.350
5315.130, 1902.407
5317.059, 1918.425
5318.987, 1920.781
5320.916, 1873.125
5322.844, 1885.411
5324.772, 1907.669
5326.701, 1922.543
5328.629, 1923.357
5330.558, 1920.803
5332.486, 1922.996
5334.415, 1933.401
5336.343, 1931.005
5338.272, 1934.594
5340.200, 1940.153
5342.129, 1917.089
5344.057, 1934.133
5345.986, 1950.901
5347.914, 1931.316
5349.843, 1917.489
5351.771, 1927.139
5353.700, 1934.283
5355.628, 1849.513
5357.557, 1875.916
5359.485, 1923.496
5361.414, 1906.085
5363.342, 1919.268
5365.271, 1932.626
5367.199, 1938.624
5369.127, 1950.491
5371.056, 1930.024
5372.984, 1908.506
5374.913, 1910.086
5376.841, 1914.008
5378.770, 1918.663
5380.698, 1918.443
5382.626, 1898.714
5384.555, 1895.758
5386.483, 1904.421
5388.412, 1917.839
5390.340, 1905.916
5392.269, 1894.397
5394.197, 1894.118
5396.126, 1912.673
5398.054, 1937.068
5399.983, 1938.325
5401.911, 1910.666
5403.840, 1894.999
5405.768, 1895.813
5407.697, 1908.207
5409.625, 1933.779
5411.554, 1909.228
5413.482, 1888.030
5415.411, 1888.683
5417.339, 1898.015
5419.268, 1896.778
5421.196, 1894.323
5423.125, 1900.945
5425.053, 1912.609
5426.981, 1913.845
5428.910, 1907.116
5430.838, 1909.173
5432.767, 1900.069
5434.695, 1898.002
5436.624, 1911.521
5438.552, 1912.091
5440.480, 1916.013
5442.409, 1925.859
5444.337, 1940.127
5446.266, 1886.909
5448.194, 1869.422
5450.123, 1899.474
5452.051, 1871.780
5453.980, 1907.762
5455.908, 1937.009
5457.837, 1902.870
5459.765, 1884.365
5461.694, 1905.100
5463.622, 1929.120
5465.551, 1895.943
5467.479, 1908.042
5469.408, 1926.324
5471.336, 1926.716
5473.265, 1889.907
5475.193, 1884.319
5477.122, 1896.577
5479.050, 1910.374
5480.979, 1916.235
5482.907, 1894.526
5484.835, 1863.364
5486.764, 1853.176
5488.692, 1894.668
5490.621, 1904.807
5492.549, 1875.548
5494.478, 1875.164
5496.406, 1891.755
5498.334, 1891.959
5500.263, 1862.865
5502.191, 1876.265
5504.120, 1863.668
5506.048, 1848.799
5507.977, 1879.180
5509.905, 1877.979
5511.834, 1885.107
5513.762, 1901.224
5515.691, 1902.514
5517.619, 1905.319
5519.548, 1912.539
5521.476, 1912.507
5523.405, 1841.576
5525.333, 1846.092
5527.262, 1883.476
5529.190, 1906.495
5531.119, 1855.443
5533.047, 1858.990
5534.976, 1877.611
5536.904, 1830.651
5538.833, 1855.556
5540.761, 1889.483
5542.689, 1905.708
5544.618, 1892.802
5546.546, 1900.447
5548.475, 1912.624
5550.403, 1914.982
5552.332, 1883.059
5554.260, 1896.122
5556.188, 1911.151
5558.117, 1903.135
5560.045, 1917.987
5561.974, 1869.438
5563.902, 1899.259
5565.831, 1915.811
5567.759, 1919.809
5569.688, 1873.646
5571.616, 1892.254
5573.545, 1884.905
5575.473, 1876.492
5577.402, 1904.216
5579.330, 1865.349
5581.259, 1892.501
5583.187, 1893.299
5585.116, 1906.158
5587.044, 1892.900
5588.973, 1887.708
5590.901, 1908.643
5592.830, 1915.112
5594.758, 1898.847
5596.687, 1912.473
5598.615, 1872.693
5600.543, 1875.549
5602.472, 1883.689
5604.400, 1878.147
5606.329, 1869.028
5608.257, 1865.672
5610.186, 1872.258
5612.114, 1888.669
5614.042, 1888.733
5615.971, 1882.904
5617.899, 1882.431
5619.828, 1888.029
5621.756, 1914.096
5623.685, 1935.248
5625.613, 1926.771
5627.542, 1891.419
5629.470, 1882.393
5631.399, 1890.458
5633.327, 1894.888
5635.256, 1897.380
5637.184, 1909.132
5639.113, 1921.021
5641.041, 1920.842
5642.970, 1895.812
5644.898, 1900.384
5646.827, 1916.690
5648.755, 1908.123
5650.684, 1894.151
5652.612, 1875.202
5654.541, 1873.081
5656.469, 1918.486
5658.397, 1914.151
5660.326, 1909.540
5662.254, 1910.251
5664.183, 1905.789
5666.111, 1910.618
5668.040, 1903.169
5669.968, 1882.964
5671.896, 1858.441
5673.825, 1872.945
5675.753, 1898.646
5677.682, 1910.130
5679.610, 1889.495
5681.539, 1888.308
5683.467, 1903.440
5685.396, 1919.557
5687.324, 1921.065
5689.253, 1908.425
5691.181, 1885.169
5693.110, 1884.882
5695.038, 1937.735
5696.967, 1889.104
5698.895, 1872.279
5700.824, 1877.976
5702.752, 1872.185
5704.681, 1904.646
5706.609, 1901.238
5708.538, 1895.902
5710.466, 1917.929
5712.395, 1885.570
5714.323, 1873.800
5716.251, 1879.889
5718.180, 1889.690
5720.108, 1887.268
5722.037, 1879.081
5723.965, 1879.437
5725.894, 1892.487
5727.822, 1904.965
5729.750, 1897.275
5731.679, 1888.758
5733.607, 1888.176
5735.536, 1887.098
5737.464, 1904.712
5739.393, 1914.836
5741.321, 1905.807
5743.250, 1877.588
5745.178, 1871.671
5747.107, 1881.645
5749.035, 1887.220
5750.964, 1867.000
5752.892, 1891.971
5754.821, 1895.061
5756.749, 1889.151
5758.678, 1907.138
5760.606, 1904.896
5762.535, 1908.781
5764.463, 1900.751
5766.392, 1868.699
5768.320, 1885.508
5770.249, 1914.333
5772.177, 1919.899
5774.105, 1896.460
5776.034, 1884.881
5777.962, 1884.463
5779.891, 1887.635
5781.819, 1892.969
5783.748, 1905.417
5785.676, 1888.427
5787.604, 1880.280
5789.533, 1901.788
5791.461, 1954.612
5793.390, 1907.981
5795.318, 1882.349
5797.247, 1893.023
5799.175, 1917.858
5801.104, 1895.626
5803.032, 1898.158
5804.961, 1900.614
5806.889, 1889.684
5808.818, 1896.114
5810.746, 1876.916
5812.675, 1897.484
5814.603, 1940.208
5816.532, 1921.084
5818.460, 1883.075
5820.389, 1861.637
5822.317, 1865.377
5824.246, 1889.962
5826.174, 1892.814
5828.103, 1885.432
5830.031, 1896.481
5831.959, 1922.785
5833.888, 1897.827
5835.816, 1890.954
5837.745, 1858.570
5839.673, 1845.026
5841.602, 1941.138
5843.530, 1911.035
5845.458, 1869.057
5847.387, 1854.834
5849.315, 1872.560
5851.244, 1919.948
5853.172, 1905.000
5855.101, 1885.548
5857.029, 1888.348
5858.958, 1886.671
5860.886, 1880.583
5862.815, 1894.634
5864.743, 1908.185
5866.672, 1896.017
5868.600, 1927.417
5870.529, 1942.421
5872.457, 1925.432
5874.386, 1892.165
5876.314, 1909.459
5878.243, 1914.237
5880.171, 1910.329
5882.100, 1905.940
5884.028, 1908.344
5885.957, 1900.284
5887.885, 1899.556
5889.813, 1907.292
5891.742, 1919.978
5893.670, 1940.025
5895.599, 1888.780
5897.527, 1894.762
5899.456, 1936.316
5901.384, 1925.748
5903.313, 1932.042
5905.241, 1911.343
5907.169, 1910.538
5909.098, 1940.363
5911.026, 1932.858
5912.955, 1903.799
5914.883, 1904.117
5916.812, 1923.551
5918.740, 1935.300
5920.669, 1963.150
5922.597, 1940.746
5924.526, 1939.544
5926.454, 1964.991
5928.383, 1935.941
5930.311, 1954.042
5932.240, 1940.775
5934.168, 1921.717
5936.097, 1932.185
5938.025, 1943.525
5939.954, 1935.737
5941.882, 1947.091
5943.811, 1959.282
5945.739, 1927.884
5947.667, 1962.719
5949.596, 1959.971
5951.524, 1951.161
5953.453, 1962.100
5955.381, 1977.483
5957.310, 1955.968
5959.238, 1947.233
5961.167, 1964.065
5963.095, 1997.456
5965.023, 2021.351
5966.952, 1968.845
5968.880, 1949.638
5970.809, 1963.641
5972.737, 1940.085
5974.666, 1979.897
5976.594, 1957.786
5978.523, 1935.320
5980.451, 1944.303
5982.380, 1951.233
5984.308, 1960.843
5986.237, 1971.391
5988.165, 1966.613
5990.094, 1945.149
5992.022, 1939.051
5993.951, 1945.329
5995.879, 1970.071
5997.808, 1984.074
5999.736, 1964.406
6001.665, 1961.161
6003.593, 1927.380
6005.521, 1927.648
6007.450, 1949.040
6009.378, 1944.727
6011.307, 1975.021
6013.235, 1943.758
6015.164, 1933.280
6017.092, 1952.376
6019.021, 1946.594
6020.949, 1924.531
6022.877, 1935.733
6024.806, 1953.884
6026.734, 1964.938
6028.663, 1978.647
6030.591, 1974.176
6032.520, 1965.885
6034.448, 1965.755
6036.377, 1973.570
6038.305, 1977.428
6040.234, 1974.726
6042.162, 1947.894
6044.091, 1940.937
6046.019, 1966.245
6047.948, 1977.016
6049.876, 1978.933
6051.805, 1992.739
6053.733, 2014.815
6055.662, 2035.186
6057.590, 2045.352
6059.519, 2009.619
6061.447, 2016.497
6063.375, 2023.004
6065.304, 1994.991
6067.232, 1967.458
6069.161, 1972.563
6071.089, 1995.708
6073.018, 2016.353
6074.946, 2016.176
6076.875, 1981.937
6078.803, 1975.689
6080.731, 1984.876
6082.660, 1984.742
6084.588, 1977.430
6086.517, 1996.714
6088.445, 2012.097
6090.374, 2018.232
6092.302, 2013.098
6094.231, 2007.777
6096.159, 2023.395
6098.088, 2060.282
6100.016, 2053.361
6101.945, 2023.712
6103.873, 2000.835
6105.802, 2000.242
6107.730, 2010.341
6109.659, 2009.277
6111.587, 2012.672
6113.516, 2010.329
6115.444, 1986.154
6117.373, 2016.520
6119.301, 2003.834
6121.229, 2001.186
6123.158, 2001.857
6125.086, 1986.405
6127.015, 2040.465
6128.943, 2034.110
6130.872, 2019.340
6132.800, 2005.239
6134.729, 1993.549
6136.657, 2021.302
6138.585, 2030.733
6140.514, 2019.007
6142.442, 2016.974
6144.371, 2025.891
6146.299, 2010.069
6148.228, 2027.626
6150.156, 2025.456
6152.085, 2029.331
6154.013, 2031.912
6155.942, 2004.226
6157.870, 2016.559
6159.799, 2030.295
6161.727, 2006.616
6163.656, 2009.738
6165.584, 2074.719
6167.513, 2063.667
6169.441, 2054.772
6171.370, 2057.574
6173.298, 2049.776
6175.227, 2034.200
6177.155, 2045.929
6179.083, 2091.346
6181.012, 2060.272
6182.940, 2031.630
6184.869, 2048.294
6186.797, 2093.087
6188.726, 2056.124
6190.654, 2028.708
6192.583, 2040.260
6194.511, 2039.558
6196.439, 2019.775
6198.368, 2059.230
6200.296, 2076.118
6202.225, 2052.027
6204.153, 2058.313
6206.082, 2076.588
6208.010, 2057.734
6209.939, 2053.760
6211.867, 2021.558
6213.796, 2035.689
6215.724, 2059.681
6217.653, 2073.266
6219.581, 2107.130
6221.510, 2084.797
6223.438, 2075.228
6225.367, 2073.452
6227.295, 2079.185
6229.224, 2090.782
6231.152, 2084.909
6233.081, 2077.833
6235.009, 2093.925
6236.938, 2069.468
6238.866, 2034.257
6240.794, 2067.016
6242.723, 2068.850
6244.651, 2105.483
6246.580, 2087.105
6248.508, 2074.823
6250.437, 2098.683
6252.365, 2086.517
6254.293, 2086.040
6256.222, 2050.678
6258.150, 2043.974
6260.079, 2087.049
6262.007, 2135.798
6263.936, 2073.867
6265.864, 2058.631
6267.793, 2081.779
6269.721, 2085.642
6271.650, 2085.366
6273.578, 2111.481
6275.507, 2088.421
6277.435, 2106.520
6279.364, 2114.981
6281.292, 2095.838
6283.221, 2082.163
6285.149, 2106.840
6287.078, 2100.343
6289.006, 2102.399
6290.935, 2103.451
6292.863, 2103.199
6294.792, 2114.053
6296.720, 2135.919
6298.648, 2089.444
6300.577, 2111.731
6302.505, 2091.626
6304.434, 2092.644
6306.362, 2123.544
6308.291, 2116.750
6310.219, 2101.300
6312.147, 2088.677
6314.076, 2110.932
6316.004, 2132.718
6317.933, 2129.575
6319.861, 2106.518
6321.790, 2078.203
6323.718, 2080.428
6325.647, 2119.621
6327.575, 2145.469
6329.504, 2146.306
6331.432, 2141.255
6333.361, 2094.726
6335.289, 2120.819
6337.218, 2109.367
6339.146, 2096.266
6341.075, 2102.238
6343.003, 2109.313
6344.932, 2100.777
6346.860, 2121.419
6348.789, 2141.220
6350.717, 2140.952
6352.646, 2122.321
6354.574, 2110.014
6356.502, 2140.499
6358.431, 2141.513
6360.359, 2135.655
6362.288, 2121.476
6364.216, 2120.791
6366.145, 2138.770
6368.073, 2147.144
6370.001, 2128.472
6371.930, 2131.787
6373.858, 2142.765
6375.787, 2147.779
6377.715, 2134.832
6379.644, 2105.552
6381.572, 2140.419
6383.501, 2102.111
6385.429, 2084.413
6387.358, 2135.696
6389.286, 2158.418
6391.215, 2115.551
6393.143, 2167.801
6395.072, 2141.364
6397.000, 2144.377
6398.929, 2169.463
6400.857, 2179.075
6402.786, 2160.479
6404.714, 2138.171
6406.643, 2165.430
6408.571, 2182.719
6410.500, 2155.840
6412.428, 2144.971
6414.356, 2156.185
6416.285, 2163.113
6418.213, 2156.306
6420.142, 2155.442
6422.070, 2147.319
6423.999, 2159.967
6425.927, 2160.684
6427.855, 2130.939
6429.784, 2095.760
6431.712, 2127.557
6433.641, 2153.682
6435.569, 2153.669
6437.498, 2167.454
6439.426, 2157.955
6441.355, 2141.292
6443.283, 2172.650
6445.212, 2144.033
6447.140, 2143.340
6449.069, 2183.717
6450.997, 2151.525
6452.926, 2130.723
6454.854, 2167.186
6456.783, 2149.495
6458.711, 2133.709
6460.640, 2114.755
6462.568, 2126.671
6464.497, 2162.945
6466.425, 2173.061
6468.354, 2154.609
6470.282, 2168.331
6472.210, 2119.172
6474.139, 2105.688
6476.067, 2122.258
6477.996, 2147.200
6479.924, 2157.369
6481.853, 2152.609
6483.781, 2158.235
6485.709, 2172.033
6487.638, 2127.559
6489.566, 2157.469
6491.495, 2175.837
6493.423, 2161.786
6495.352, 2158.012
6497.280, 2188.184
6499.209, 2193.672
6501.137, 2194.576
6503.066, 2169.541
6504.994, 2147.149
6506.923, 2137.357
6508.851, 2140.892
6510.780, 2153.652
6512.708, 2148.925
##END=



