##NAMES=Aenigmatite
##RRUFFID=R061089
##IDEAL CHEMISTRY=Na_4_(Fe^2+^_10_Ti^4+^_2_)O_4_[Si_12_O_36_]
##LOCALITY=Eveslogchorr, Khibiny Massif, Kola Peninsula, Russia
##OWNER=RRUFF
##SOURCE=Michael Scott
##DESCRIPTION=Black prismatic crystals embedded in eucryptite with astrophyllite and magnesioriebeckite
##STATUS=The identification of this mineral is confirmed by single-crystal X-ray diffraction and chemical analysis.
##URL=rruff.info/R061089
##MEASURED CHEMISTRY=Na_2.00_(Fe^2+^_4.08_Mn_0.51_Fe^3+^_0.21_Mg_0.16_Ca_0.03_Cr^3+^_0.01_)_Σ=5_Ti_1.00_(Si_5.78_Al_0.22_)_Σ=6.00_O_20_
127.4148, 2466.127
127.8969, 2850.447
128.3790, 3250.786
128.8611, 3632.217
129.3432, 3996.458
129.8254, 4308.538
130.3075, 4533.281
130.7896, 4745.381
131.2717, 5010.491
131.7538, 5301.104
132.2359, 5532.793
132.7181, 5630.071
133.2002, 5594.358
133.6823, 5374.233
134.1644, 4831.060
134.6465, 4252.964
135.1286, 3770.680
135.6108, 3407.923
136.0929, 3141.316
136.5750, 2953.342
137.0571, 2869.301
137.5392, 2799.218
138.0213, 2717.456
138.5035, 2664.355
138.9856, 2680.845
139.4677, 2770.975
139.9498, 2892.970
140.4319, 2990.044
140.9140, 3034.249
141.3962, 3140.846
141.8783, 3343.800
142.3604, 3594.284
142.8425, 3853.326
143.3246, 4111.001
143.8067, 4364.650
144.2889, 4613.252
144.7710, 4860.159
145.2531, 5089.279
145.7352, 5263.117
146.2173, 5357.818
146.6994, 5419.008
147.1816, 5524.238
147.6637, 5627.625
148.1458, 5656.023
148.6279, 5613.606
149.1100, 5542.876
149.5921, 5436.412
150.0743, 5310.724
150.5564, 5194.074
151.0385, 5091.924
151.5206, 5001.771
152.0027, 4919.278
152.4848, 4841.540
152.9670, 4770.816
153.4491, 4703.944
153.9312, 4643.171
154.4133, 4595.918
154.8954, 4565.896
155.3775, 4547.041
155.8597, 4530.164
156.3418, 4514.574
156.8239, 4499.763
157.3060, 4493.542
157.7881, 4489.844
158.2702, 4462.051
158.7524, 4389.225
159.2345, 4303.219
159.7166, 4247.394
160.1987, 4224.283
160.6808, 4215.150
161.1629, 4212.828
161.6451, 4216.502
162.1272, 4221.787
162.6093, 4238.386
163.0914, 4245.637
163.5735, 4219.858
164.0556, 4156.057
164.5378, 4083.290
165.0199, 4018.195
165.5020, 3960.931
165.9841, 3916.132
166.4662, 3887.013
166.9483, 3871.394
167.4305, 3869.481
167.9126, 3885.115
168.3947, 3897.839
168.8768, 3886.594
169.3589, 3851.410
169.8410, 3818.465
170.3232, 3794.860
170.8053, 3777.646
171.2874, 3764.744
171.7695, 3756.506
172.2516, 3749.137
172.7337, 3738.434
173.2159, 3723.907
173.6980, 3710.222
174.1801, 3699.113
174.6622, 3688.677
175.1443, 3675.707
175.6264, 3658.435
176.1086, 3644.586
176.5907, 3647.033
177.0728, 3668.842
177.5549, 3679.998
178.0370, 3661.218
178.5191, 3633.466
179.0013, 3612.183
179.4834, 3600.778
179.9655, 3591.936
180.4476, 3577.192
180.9297, 3555.747
181.4118, 3533.745
181.8940, 3512.637
182.3761, 3491.626
182.8582, 3470.549
183.3403, 3449.552
183.8224, 3427.688
184.3046, 3403.194
184.7867, 3375.428
185.2688, 3349.141
185.7509, 3321.576
186.2330, 3298.611
186.7151, 3287.500
187.1973, 3290.269
187.6794, 3294.844
188.1615, 3285.683
188.6436, 3260.151
189.1257, 3234.975
189.6078, 3216.357
190.0900, 3198.055
190.5721, 3173.281
191.0542, 3140.656
191.5363, 3110.521
192.0184, 3097.384
192.5005, 3105.082
192.9827, 3110.109
193.4648, 3104.100
193.9469, 3096.304
194.4290, 3093.567
194.9111, 3097.087
195.3932, 3100.254
195.8754, 3094.380
196.3575, 3077.576
196.8396, 3062.071
197.3217, 3049.182
197.8038, 3038.894
198.2859, 3033.305
198.7681, 3032.337
199.2502, 3030.255
199.7323, 3019.414
200.2144, 2998.225
200.6965, 2978.605
201.1786, 2959.020
201.6608, 2944.095
202.1429, 2940.375
202.6250, 2947.558
203.1071, 2954.338
203.5892, 2948.735
204.0713, 2929.620
204.5535, 2906.859
205.0356, 2870.521
205.5177, 2839.305
205.9998, 2826.448
206.4819, 2831.499
206.9640, 2840.428
207.4462, 2838.883
207.9283, 2825.743
208.4104, 2815.826
208.8925, 2815.101
209.3746, 2813.999
209.8567, 2808.564
210.3388, 2798.341
210.8210, 2783.754
211.3031, 2761.509
211.7852, 2731.181
212.2673, 2711.104
212.7494, 2710.667
213.2315, 2713.623
213.7137, 2711.895
214.1958, 2705.940
214.6779, 2699.830
215.1600, 2696.523
215.6421, 2695.985
216.1242, 2697.715
216.6064, 2708.382
217.0885, 2713.388
217.5706, 2703.574
218.0527, 2682.017
218.5348, 2658.764
219.0169, 2639.614
219.4991, 2624.461
219.9812, 2612.536
220.4633, 2604.872
220.9454, 2599.385
221.4275, 2595.441
221.9096, 2592.608
222.3918, 2589.934
222.8739, 2586.624
223.3560, 2582.952
223.8381, 2580.208
224.3202, 2578.814
224.8023, 2577.565
225.2845, 2580.294
225.7666, 2582.472
226.2487, 2574.586
226.7308, 2543.768
227.2129, 2502.683
227.6950, 2487.029
228.1772, 2508.646
228.6593, 2529.598
229.1414, 2530.198
229.6235, 2519.261
230.1056, 2508.521
230.5877, 2502.724
231.0699, 2499.530
231.5520, 2493.751
232.0341, 2483.497
232.5162, 2477.052
232.9983, 2484.340
233.4804, 2495.546
233.9626, 2498.485
234.4447, 2485.629
234.9268, 2469.761
235.4089, 2470.623
235.8910, 2491.463
236.3731, 2506.830
236.8553, 2497.993
237.3374, 2482.178
237.8195, 2479.427
238.3016, 2497.528
238.7837, 2517.632
239.2658, 2518.064
239.7480, 2498.788
240.2301, 2484.927
240.7122, 2488.639
241.1943, 2499.356
241.6764, 2503.636
242.1585, 2498.965
242.6407, 2495.608
243.1228, 2506.066
243.6049, 2527.087
244.0870, 2535.321
244.5691, 2516.341
245.0512, 2491.262
245.5334, 2487.171
246.0155, 2506.025
246.4976, 2525.140
246.9797, 2529.921
247.4618, 2525.526
247.9439, 2528.319
248.4261, 2545.277
248.9082, 2563.262
249.3903, 2566.046
249.8724, 2554.747
250.3545, 2542.292
250.8366, 2532.723
251.3188, 2525.058
251.8009, 2516.048
252.2830, 2503.988
252.7651, 2496.389
253.2472, 2505.930
253.7293, 2530.236
254.2115, 2545.309
254.6936, 2540.907
255.1757, 2528.382
255.6578, 2518.632
256.1399, 2512.683
256.6220, 2510.216
257.1042, 2512.270
257.5863, 2518.453
258.0684, 2522.269
258.5505, 2520.232
259.0326, 2518.392
259.5147, 2522.302
259.9969, 2531.148
260.4790, 2539.208
260.9611, 2543.633
261.4432, 2544.023
261.9253, 2539.630
262.4074, 2520.870
262.8896, 2507.762
263.3717, 2515.029
263.8538, 2534.884
264.3359, 2547.390
264.8180, 2542.110
265.3001, 2523.758
265.7823, 2508.278
266.2644, 2494.321
266.7465, 2484.198
267.2286, 2480.376
267.7107, 2480.068
268.1928, 2478.907
268.6750, 2475.203
269.1571, 2471.442
269.6392, 2472.790
270.1213, 2487.678
270.6034, 2494.444
271.0855, 2483.990
271.5677, 2470.341
272.0498, 2467.734
272.5319, 2478.624
273.0140, 2493.411
273.4961, 2499.596
273.9782, 2494.734
274.4604, 2487.400
274.9425, 2467.395
275.4246, 2453.453
275.9067, 2462.036
276.3888, 2489.730
276.8709, 2518.130
277.3531, 2530.536
277.8352, 2525.935
278.3173, 2515.858
278.7994, 2487.824
279.2815, 2466.994
279.7636, 2465.156
280.2458, 2476.760
280.7279, 2489.737
281.2100, 2496.308
281.6921, 2497.336
282.1742, 2498.202
282.6563, 2500.189
283.1385, 2500.187
283.6206, 2498.777
284.1027, 2494.811
284.5848, 2486.063
285.0669, 2471.212
285.5490, 2453.366
286.0312, 2438.915
286.5133, 2427.034
286.9954, 2420.957
287.4775, 2426.072
287.9596, 2433.973
288.4417, 2438.486
288.9239, 2438.052
289.4060, 2434.784
289.8881, 2430.548
290.3702, 2425.205
290.8523, 2420.396
291.3344, 2417.976
291.8166, 2414.659
292.2987, 2407.003
292.7808, 2395.471
293.2629, 2385.321
293.7450, 2379.255
294.2271, 2377.452
294.7093, 2382.880
295.1914, 2402.531
295.6735, 2417.123
296.1556, 2408.077
296.6377, 2382.506
297.1198, 2361.109
297.6020, 2354.482
298.0841, 2355.637
298.5662, 2354.081
299.0483, 2349.326
299.5304, 2344.146
300.0125, 2340.225
300.4947, 2337.160
300.9768, 2333.775
301.4589, 2327.648
301.9410, 2323.654
302.4231, 2326.880
302.9052, 2336.047
303.3874, 2344.928
303.8695, 2351.355
304.3516, 2355.297
304.8337, 2356.715
305.3158, 2355.428
305.7979, 2352.689
306.2801, 2346.950
306.7622, 2340.487
307.2443, 2337.761
307.7264, 2340.331
308.2085, 2344.202
308.6906, 2343.380
309.1728, 2335.357
309.6549, 2329.339
310.1370, 2324.524
310.6191, 2322.457
311.1012, 2325.938
311.5833, 2334.331
312.0655, 2342.642
312.5476, 2345.543
313.0297, 2333.856
313.5118, 2348.958
313.9939, 2357.755
314.4760, 2360.586
314.9582, 2339.582
315.4403, 2349.356
315.9224, 2346.796
316.4045, 2343.730
316.8866, 2357.836
317.3687, 2340.299
317.8509, 2354.133
318.3330, 2355.444
318.8151, 2359.012
319.2972, 2376.299
319.7793, 2383.162
320.2614, 2373.693
320.7436, 2358.805
321.2257, 2356.992
321.7078, 2373.115
322.1899, 2385.452
322.6720, 2389.209
323.1541, 2390.584
323.6363, 2392.660
324.1184, 2395.657
324.6005, 2398.139
325.0826, 2398.271
325.5647, 2396.429
326.0468, 2396.454
326.5290, 2399.620
327.0111, 2402.961
327.4932, 2406.102
327.9753, 2408.229
328.4574, 2407.066
328.9395, 2397.543
329.4217, 2386.981
329.9038, 2390.048
330.3859, 2408.697
330.8680, 2421.482
331.3501, 2411.519
331.8322, 2391.575
332.3144, 2385.351
332.7965, 2400.218
333.2786, 2417.262
333.7607, 2427.812
334.2428, 2431.493
334.7249, 2424.521
335.2070, 2402.590
335.6891, 2377.253
336.1713, 2368.985
336.6534, 2381.489
337.1355, 2389.416
337.6176, 2385.568
338.0997, 2376.726
338.5818, 2367.544
339.0640, 2359.313
339.5461, 2355.040
340.0282, 2357.581
340.5103, 2367.291
340.9924, 2380.572
341.4745, 2411.702
341.9567, 2431.382
342.4388, 2418.691
342.9209, 2386.198
343.4030, 2359.007
343.8851, 2350.936
344.3672, 2357.967
344.8494, 2366.684
345.3315, 2380.444
345.8136, 2390.844
346.2957, 2397.471
346.7778, 2400.700
347.2599, 2399.338
347.7421, 2393.723
348.2242, 2388.101
348.7063, 2387.372
349.1884, 2391.613
349.6705, 2400.698
350.1526, 2425.265
350.6348, 2444.770
351.1169, 2447.723
351.5990, 2437.353
352.0811, 2424.343
352.5632, 2412.407
353.0453, 2403.489
353.5275, 2404.852
354.0096, 2419.462
354.4917, 2435.734
354.9738, 2453.928
355.4559, 2468.335
355.9380, 2468.367
356.4202, 2444.858
356.9023, 2420.682
357.3844, 2417.259
357.8665, 2431.510
358.3486, 2446.620
358.8307, 2459.014
359.3129, 2467.559
359.7950, 2468.598
360.2771, 2460.871
360.7592, 2456.680
361.2413, 2460.036
361.7234, 2468.122
362.2056, 2480.394
362.6877, 2496.143
363.1698, 2507.871
363.6519, 2507.801
364.1340, 2495.523
364.6161, 2489.886
365.0983, 2499.788
365.5804, 2505.936
366.0625, 2495.745
366.5446, 2477.221
367.0267, 2467.001
367.5089, 2473.516
367.9910, 2488.324
368.4731, 2488.601
368.9552, 2457.251
369.4373, 2440.474
369.9194, 2449.347
370.4016, 2465.523
370.8837, 2478.000
371.3658, 2484.164
371.8479, 2485.168
372.3300, 2480.274
372.8121, 2469.288
373.2943, 2463.043
373.7764, 2466.275
374.2585, 2468.211
374.7406, 2460.374
375.2227, 2448.578
375.7048, 2444.771
376.1870, 2459.330
376.6691, 2477.673
377.1512, 2472.283
377.6333, 2440.804
378.1154, 2420.509
378.5975, 2435.852
379.0797, 2461.590
379.5618, 2458.478
380.0439, 2418.378
380.5260, 2385.242
381.0081, 2385.362
381.4902, 2404.765
381.9724, 2419.421
382.4545, 2425.117
382.9366, 2424.839
383.4187, 2420.251
383.9008, 2410.782
384.3829, 2403.899
384.8651, 2403.270
385.3472, 2401.634
385.8293, 2392.259
386.3114, 2378.740
386.7935, 2370.849
387.2756, 2374.247
387.7578, 2384.341
388.2399, 2387.354
388.7220, 2377.494
389.2041, 2368.709
389.6862, 2359.560
390.1683, 2353.047
390.6505, 2352.496
391.1326, 2357.806
391.6147, 2365.171
392.0968, 2371.024
392.5789, 2375.373
393.0610, 2379.350
393.5432, 2384.916
394.0253, 2387.359
394.5074, 2384.789
394.9895, 2378.137
395.4716, 2367.975
395.9537, 2351.780
396.4359, 2336.961
396.9180, 2337.694
397.4001, 2354.420
397.8822, 2363.156
398.3643, 2349.221
398.8464, 2330.514
399.3286, 2333.262
399.8107, 2360.713
400.2928, 2382.717
400.7749, 2384.608
401.2570, 2375.834
401.7391, 2368.069
402.2213, 2362.849
402.7034, 2359.364
403.1855, 2357.058
403.6676, 2355.940
404.1497, 2355.885
404.6318, 2359.612
405.1140, 2361.208
405.5961, 2357.587
406.0782, 2350.804
406.5603, 2344.348
407.0424, 2339.578
407.5245, 2334.702
408.0067, 2325.731
408.4888, 2308.015
408.9709, 2297.184
409.4530, 2297.153
409.9351, 2300.032
410.4172, 2302.988
410.8994, 2305.367
411.3815, 2306.710
411.8636, 2305.920
412.3457, 2304.183
412.8278, 2305.749
413.3099, 2311.394
413.7921, 2318.286
414.2742, 2327.817
414.7563, 2336.865
415.2384, 2342.507
415.7205, 2344.507
416.2026, 2342.010
416.6848, 2329.181
417.1669, 2311.341
417.6490, 2303.880
418.1311, 2310.694
418.6132, 2324.286
419.0953, 2339.133
419.5775, 2355.300
420.0596, 2366.438
420.5417, 2369.005
421.0238, 2369.667
421.5059, 2371.996
421.9880, 2375.535
422.4702, 2378.974
422.9523, 2381.752
423.4344, 2383.337
423.9165, 2382.139
424.3986, 2375.276
424.8807, 2370.363
425.3629, 2364.187
425.8450, 2362.297
426.3271, 2371.532
426.8092, 2389.986
427.2913, 2407.825
427.7734, 2417.339
428.2556, 2419.240
428.7377, 2418.094
429.2198, 2413.101
429.7019, 2406.539
430.1840, 2395.793
430.6661, 2385.481
431.1483, 2382.332
431.6304, 2389.704
432.1125, 2397.135
432.5946, 2392.307
433.0767, 2380.142
433.5588, 2380.762
434.0410, 2402.317
434.5231, 2422.833
435.0052, 2414.779
435.4873, 2377.330
435.9694, 2356.916
436.4515, 2372.947
436.9337, 2391.042
437.4158, 2389.328
437.8979, 2373.266
438.3800, 2358.261
438.8621, 2351.672
439.3442, 2350.048
439.8264, 2345.149
440.3085, 2334.719
440.7906, 2324.878
441.2727, 2310.812
441.7548, 2301.209
442.2369, 2307.008
442.7191, 2323.980
443.2012, 2334.932
443.6833, 2324.534
444.1654, 2298.759
444.6475, 2281.353
445.1296, 2273.849
445.6118, 2270.586
446.0939, 2275.262
446.5760, 2280.208
447.0581, 2275.078
447.5402, 2255.993
448.0223, 2239.805
448.5045, 2243.592
448.9866, 2256.574
449.4687, 2251.788
449.9508, 2223.208
450.4329, 2196.950
450.9150, 2199.168
451.3972, 2229.144
451.8793, 2242.097
452.3614, 2225.386
452.8435, 2206.684
453.3256, 2193.451
453.8077, 2185.659
454.2899, 2184.812
454.7720, 2191.087
455.2541, 2197.680
455.7362, 2193.041
456.2183, 2172.905
456.7004, 2156.046
457.1826, 2147.064
457.6647, 2136.990
458.1468, 2118.028
458.6289, 2095.455
459.1110, 2081.088
459.5931, 2081.792
460.0753, 2092.094
460.5574, 2106.018
461.0395, 2123.967
461.5216, 2135.616
462.0037, 2137.666
462.4858, 2132.124
462.9680, 2119.516
463.4501, 2099.360
463.9322, 2083.179
464.4143, 2075.453
464.8964, 2072.375
465.3785, 2070.547
465.8607, 2069.891
466.3428, 2072.091
466.8249, 2078.691
467.3070, 2088.053
467.7891, 2094.202
468.2712, 2100.373
468.7534, 2098.211
469.2355, 2079.549
469.7176, 2058.223
470.1997, 2043.766
470.6818, 2037.761
471.1639, 2037.487
471.6461, 2042.192
472.1282, 2050.788
472.6103, 2057.101
473.0924, 2062.364
473.5745, 2062.496
474.0566, 2049.624
474.5388, 2033.234
475.0209, 2024.198
475.5030, 2025.222
475.9851, 2027.842
476.4672, 2027.492
476.9493, 2024.935
477.4315, 2021.532
477.9136, 2017.489
478.3957, 2012.842
478.8778, 2007.710
479.3599, 2002.060
479.8420, 1995.459
480.3242, 1984.179
480.8063, 1976.515
481.2884, 1978.118
481.7705, 1983.109
482.2526, 1983.198
482.7347, 1976.618
483.2169, 1969.869
483.6990, 1972.524
484.1811, 1986.049
484.6632, 1991.683
485.1453, 1983.728
485.6274, 1975.546
486.1096, 1972.658
486.5917, 1973.244
487.0738, 1974.783
487.5559, 1977.136
488.0380, 1978.608
488.5201, 1976.581
489.0023, 1972.148
489.4844, 1970.113
489.9665, 1972.197
490.4486, 1973.674
490.9307, 1968.109
491.4128, 1954.849
491.8950, 1950.677
492.3771, 1963.712
492.8592, 1977.069
493.3413, 1986.203
493.8234, 1989.992
494.3055, 1985.231
494.7877, 1971.044
495.2698, 1954.855
495.7519, 1949.753
496.2340, 1960.397
496.7161, 1961.511
497.1982, 1937.878
497.6804, 1921.391
498.1625, 1936.497
498.6446, 1966.498
499.1267, 1977.045
499.6088, 1948.269
500.0909, 1910.221
500.5730, 1899.097
501.0551, 1909.422
501.5373, 1910.250
502.0194, 1891.795
502.5015, 1868.206
502.9836, 1855.532
503.4657, 1855.114
503.9478, 1850.550
504.4300, 1833.807
504.9121, 1820.660
505.3942, 1821.200
505.8763, 1830.323
506.3584, 1839.834
506.8405, 1846.300
507.3227, 1848.837
507.8048, 1844.660
508.2869, 1831.226
508.7690, 1822.169
509.2511, 1825.201
509.7332, 1824.340
510.2154, 1804.507
510.6975, 1777.053
511.1796, 1765.988
511.6617, 1785.714
512.1439, 1812.944
512.6260, 1825.202
513.1081, 1824.186
513.5902, 1815.048
514.0723, 1796.652
514.5544, 1779.790
515.0366, 1776.984
515.5187, 1789.867
516.0008, 1801.719
516.4829, 1813.504
516.9650, 1823.182
517.4471, 1828.838
517.9293, 1832.041
518.4114, 1835.018
518.8935, 1838.600
519.3756, 1842.372
519.8577, 1845.568
520.3398, 1847.946
520.8220, 1852.044
521.3041, 1863.182
521.7862, 1868.503
522.2683, 1855.123
522.7504, 1834.173
523.2325, 1826.016
523.7147, 1840.713
524.1968, 1857.983
524.6789, 1859.566
525.1610, 1851.582
525.6431, 1850.957
526.1252, 1861.469
526.6074, 1873.254
527.0895, 1876.872
527.5716, 1872.291
528.0537, 1869.745
528.5358, 1870.923
529.0179, 1871.807
529.5001, 1872.900
529.9822, 1872.469
530.4643, 1866.029
530.9464, 1853.765
531.4285, 1844.735
531.9106, 1853.196
532.3928, 1876.686
532.8749, 1881.883
533.3570, 1860.617
533.8391, 1841.146
534.3212, 1838.282
534.8033, 1845.148
535.2855, 1852.816
535.7676, 1861.192
536.2497, 1868.218
536.7318, 1871.359
537.2139, 1873.389
537.6960, 1879.696
538.1782, 1889.847
538.6603, 1895.994
539.1424, 1891.884
539.6245, 1879.941
540.1066, 1872.054
540.5887, 1873.877
541.0709, 1870.978
541.5530, 1855.547
542.0351, 1840.456
542.5172, 1836.061
542.9993, 1841.744
543.4814, 1848.647
543.9636, 1850.756
544.4457, 1850.349
544.9278, 1852.579
545.4099, 1857.531
545.8920, 1860.867
546.3741, 1861.340
546.8563, 1858.947
547.3384, 1851.693
547.8205, 1837.441
548.3026, 1831.042
548.7847, 1843.370
549.2668, 1855.625
549.7490, 1855.763
550.2311, 1846.354
550.7132, 1833.397
551.1953, 1819.615
551.6774, 1807.788
552.1595, 1773.844
552.6417, 1809.003
553.1238, 1828.400
553.6059, 1832.881
554.0880, 1777.773
554.5701, 1799.612
555.0522, 1790.614
555.5344, 1780.352
556.0165, 1801.014
556.4986, 1813.062
556.9807, 1807.806
557.4628, 1791.423
557.9449, 1776.344
558.4271, 1765.120
558.9092, 1756.426
559.3913, 1749.393
559.8734, 1743.909
560.3555, 1736.681
560.8376, 1721.360
561.3198, 1712.167
561.8019, 1718.678
562.2840, 1727.437
562.7661, 1724.333
563.2482, 1708.279
563.7303, 1690.779
564.2125, 1680.606
564.6946, 1676.097
565.1767, 1673.866
565.6588, 1674.252
566.1409, 1672.710
566.6230, 1667.127
567.1052, 1658.680
567.5873, 1648.862
568.0694, 1636.939
568.5515, 1626.827
569.0336, 1619.273
569.5157, 1613.574
569.9979, 1609.491
570.4800, 1606.865
570.9621, 1606.064
571.4442, 1607.395
571.9263, 1608.682
572.4084, 1605.330
572.8906, 1596.475
573.3727, 1589.295
573.8548, 1583.023
574.3369, 1580.577
574.8190, 1585.847
575.3011, 1595.782
575.7833, 1604.259
576.2654, 1611.034
576.7475, 1614.322
577.2296, 1610.714
577.7117, 1603.796
578.1938, 1599.582
578.6760, 1598.959
579.1581, 1598.985
579.6402, 1597.369
580.1223, 1594.096
580.6044, 1588.673
581.0865, 1577.156
581.5686, 1570.025
582.0507, 1570.061
582.5328, 1573.547
583.0150, 1578.281
583.4971, 1583.822
583.9792, 1589.808
584.4613, 1597.709
584.9434, 1604.905
585.4255, 1607.698
585.9077, 1606.349
586.3898, 1602.237
586.8719, 1595.656
587.3540, 1587.125
587.8361, 1576.534
588.3182, 1562.067
588.8004, 1554.889
589.2825, 1560.742
589.7646, 1566.656
590.2467, 1567.293
590.7288, 1565.526
591.2109, 1566.862
591.6931, 1572.658
592.1752, 1576.003
592.6573, 1564.501
593.1394, 1543.646
593.6215, 1539.997
594.1036, 1557.635
594.5858, 1575.522
595.0679, 1584.971
595.5500, 1585.933
596.0321, 1576.067
596.5142, 1547.989
596.9963, 1529.721
597.4785, 1531.774
597.9606, 1539.641
598.4427, 1546.103
598.9248, 1549.261
599.4069, 1546.181
599.8890, 1534.703
600.3712, 1521.647
600.8533, 1521.563
601.3354, 1535.603
601.8175, 1540.993
602.2996, 1531.210
602.7817, 1519.545
603.2639, 1512.906
603.7460, 1511.640
604.2281, 1517.970
604.7102, 1540.611
605.1923, 1557.506
605.6744, 1554.978
606.1566, 1544.770
606.6387, 1539.398
607.1208, 1540.670
607.6029, 1545.783
608.0850, 1553.383
608.5671, 1561.876
609.0493, 1565.150
609.5314, 1561.385
610.0135, 1558.569
610.4956, 1560.070
610.9777, 1560.966
611.4598, 1554.790
611.9420, 1544.064
612.4241, 1540.227
612.9062, 1554.550
613.3883, 1568.599
613.8704, 1567.204
614.3525, 1557.842
614.8347, 1555.192
615.3168, 1562.181
615.7989, 1569.909
616.2810, 1569.014
616.7631, 1560.614
617.2452, 1557.667
617.7274, 1560.491
618.2095, 1568.349
618.6916, 1588.488
619.1737, 1608.133
619.6558, 1615.010
620.1379, 1609.828
620.6201, 1607.188
621.1022, 1615.077
621.5843, 1626.911
622.0664, 1638.227
622.5485, 1648.206
623.0306, 1653.188
623.5128, 1651.977
623.9949, 1651.908
624.4770, 1662.786
624.9591, 1685.377
625.4412, 1704.453
625.9233, 1720.854
626.4055, 1732.233
626.8876, 1733.526
627.3697, 1732.788
627.8518, 1737.770
628.3339, 1749.431
628.8160, 1763.885
629.2982, 1777.702
629.7803, 1794.090
630.2624, 1818.372
630.7445, 1849.092
631.2266, 1879.818
631.7087, 1908.108
632.1909, 1935.929
632.6730, 1965.646
633.1551, 1996.880
633.6372, 2032.546
634.1193, 2076.921
634.6014, 2120.474
635.0836, 2162.688
635.5657, 2201.449
636.0478, 2232.882
636.5299, 2256.329
637.0120, 2280.120
637.4941, 2305.363
637.9763, 2336.272
638.4584, 2382.683
638.9405, 2441.655
639.4226, 2497.739
639.9047, 2544.618
640.3868, 2583.273
640.8690, 2614.148
641.3511, 2633.464
641.8332, 2662.115
642.3153, 2716.556
642.7974, 2761.030
643.2795, 2779.336
643.7617, 2784.778
644.2438, 2794.195
644.7259, 2811.140
645.2080, 2825.669
645.6901, 2829.492
646.1722, 2828.451
646.6544, 2834.666
647.1365, 2845.179
647.6186, 2841.421
648.1007, 2813.972
648.5828, 2775.549
649.0649, 2747.368
649.5471, 2732.377
650.0292, 2714.070
650.5113, 2688.698
650.9934, 2664.587
651.4755, 2648.931
651.9576, 2633.764
652.4398, 2607.949
652.9219, 2568.956
653.4040, 2528.086
653.8861, 2492.714
654.3682, 2458.484
654.8503, 2416.471
655.3325, 2369.645
655.8146, 2331.258
656.2967, 2307.239
656.7788, 2291.971
657.2609, 2278.781
657.7430, 2270.335
658.2252, 2246.071
658.7073, 2192.282
659.1894, 2141.963
659.6715, 2108.684
660.1536, 2083.436
660.6357, 2056.382
661.1179, 2025.931
661.6000, 1996.438
662.0821, 1969.368
662.5642, 1944.292
663.0463, 1917.647
663.5284, 1892.395
664.0106, 1879.046
664.4927, 1881.544
664.9748, 1888.688
665.4569, 1885.802
665.9390, 1872.768
666.4211, 1849.913
666.9033, 1807.445
667.3854, 1774.317
667.8675, 1767.771
668.3496, 1772.809
668.8317, 1776.516
669.3138, 1778.612
669.7960, 1771.098
670.2781, 1740.568
670.7602, 1709.641
671.2423, 1698.546
671.7244, 1698.738
672.2065, 1690.740
672.6887, 1669.031
673.1708, 1646.090
673.6529, 1635.767
674.1350, 1637.078
674.6171, 1642.777
675.0992, 1654.984
675.5814, 1664.118
676.0635, 1669.190
676.5456, 1667.539
677.0277, 1649.010
677.5098, 1613.178
677.9919, 1597.803
678.4741, 1626.190
678.9562, 1655.564
679.4383, 1663.385
679.9204, 1661.530
680.4025, 1669.547
680.8846, 1689.236
681.3668, 1702.075
681.8489, 1685.626
682.3310, 1655.100
682.8131, 1657.919
683.2952, 1695.304
683.7773, 1720.814
684.2595, 1719.302
684.7416, 1708.038
685.2237, 1703.430
685.7058, 1705.590
686.1879, 1710.362
686.6700, 1723.383
687.1522, 1731.418
687.6343, 1729.427
688.1164, 1723.205
688.5985, 1718.718
689.0806, 1715.461
689.5627, 1707.893
690.0449, 1690.840
690.5270, 1671.179
691.0091, 1657.186
691.4912, 1648.374
691.9733, 1644.260
692.4554, 1644.905
692.9376, 1645.266
693.4197, 1642.126
693.9018, 1634.758
694.3839, 1618.819
694.8660, 1585.934
695.3481, 1559.652
695.8303, 1544.943
696.3124, 1533.813
696.7945, 1520.066
697.2766, 1506.760
697.7587, 1502.876
698.2408, 1515.759
698.7230, 1526.327
699.2051, 1519.555
699.6872, 1503.688
700.1693, 1488.538
700.6514, 1475.896
701.1335, 1467.386
701.6157, 1464.427
702.0978, 1462.587
702.5799, 1450.380
703.0620, 1424.422
703.5441, 1411.998
704.0262, 1421.161
704.5084, 1430.944
704.9905, 1431.941
705.4726, 1426.205
705.9547, 1416.165
706.4368, 1399.975
706.9189, 1387.214
707.4011, 1381.737
707.8832, 1378.822
708.3653, 1375.180
708.8474, 1371.763
709.3295, 1370.441
709.8116, 1371.876
710.2938, 1376.071
710.7759, 1387.375
711.2580, 1401.496
711.7401, 1398.097
712.2222, 1376.312
712.7043, 1362.996
713.1865, 1370.486
713.6686, 1383.303
714.1507, 1380.615
714.6328, 1360.236
715.1149, 1348.336
715.5970, 1350.342
716.0792, 1353.625
716.5613, 1357.762
717.0434, 1360.630
717.5255, 1358.409
718.0076, 1352.406
718.4897, 1350.603
718.9719, 1361.654
719.4540, 1372.970
719.9361, 1370.523
720.4182, 1359.007
720.9003, 1347.532
721.3824, 1338.297
721.8646, 1334.194
722.3467, 1339.039
722.8288, 1347.461
723.3109, 1337.387
723.7930, 1299.070
724.2751, 1280.820
724.7573, 1300.304
725.2394, 1323.614
725.7215, 1327.867
726.2036, 1320.125
726.6857, 1314.219
727.1678, 1310.955
727.6500, 1310.113
728.1321, 1315.819
728.6142, 1320.282
729.0963, 1315.692
729.5784, 1305.226
730.0605, 1295.520
730.5427, 1289.275
731.0248, 1287.203
731.5069, 1293.018
731.9890, 1303.590
732.4711, 1306.987
732.9532, 1302.816
733.4354, 1299.650
733.9175, 1301.485
734.3996, 1304.030
734.8817, 1300.662
735.3638, 1290.220
735.8459, 1283.760
736.3281, 1281.689
736.8102, 1283.310
737.2923, 1292.385
737.7744, 1302.210
738.2565, 1307.192
738.7386, 1307.118
739.2208, 1304.354
739.7029, 1298.743
740.1850, 1292.003
740.6671, 1284.510
741.1492, 1277.120
741.6313, 1274.814
742.1135, 1269.313
742.5956, 1281.704
743.0777, 1287.789
743.5598, 1287.907
744.0419, 1264.191
744.5240, 1271.253
745.0062, 1265.980
745.4883, 1260.201
745.9704, 1271.595
746.4525, 1251.345
746.9346, 1262.467
747.4167, 1261.066
747.8989, 1275.810
748.3810, 1284.612
748.8631, 1266.023
749.3452, 1247.941
749.8273, 1240.722
750.3094, 1243.389
750.7916, 1258.357
751.2737, 1285.299
751.7558, 1302.731
752.2379, 1285.401
752.7200, 1258.364
753.2021, 1257.353
753.6843, 1274.018
754.1664, 1279.421
754.6485, 1265.836
755.1306, 1250.204
755.6127, 1250.386
756.0948, 1262.790
756.5770, 1266.737
757.0591, 1259.734
757.5412, 1255.267
758.0233, 1257.684
758.5054, 1260.418
758.9875, 1255.404
759.4697, 1245.812
759.9518, 1246.870
760.4339, 1273.284
760.9160, 1286.976
761.3981, 1268.969
761.8802, 1248.393
762.3624, 1248.347
762.8445, 1260.436
763.3266, 1263.205
763.8087, 1238.868
764.2908, 1253.177
764.7729, 1261.181
765.2551, 1263.220
765.7372, 1241.422
766.2193, 1250.404
766.7014, 1247.051
767.1835, 1243.192
767.6656, 1256.505
768.1478, 1238.174
768.6299, 1251.215
769.1120, 1251.733
769.5941, 1257.983
770.0762, 1251.822
770.5583, 1249.494
771.0405, 1259.580
771.5226, 1262.793
772.0047, 1246.772
772.4868, 1246.508
772.9689, 1242.567
773.4510, 1243.469
773.9332, 1257.816
774.4153, 1271.635
774.8974, 1272.629
775.3795, 1264.370
775.8616, 1257.147
776.3438, 1254.673
776.8259, 1255.816
777.3080, 1261.488
777.7901, 1269.219
778.2722, 1274.567
778.7543, 1277.789
779.2365, 1282.397
779.7186, 1289.846
780.2007, 1294.787
780.6828, 1287.971
781.1649, 1270.821
781.6470, 1267.519
782.1292, 1282.168
782.6113, 1294.897
783.0934, 1301.590
783.5755, 1302.379
784.0576, 1295.339
784.5397, 1281.239
785.0219, 1270.869
785.5040, 1262.711
785.9861, 1260.335
786.4682, 1270.471
786.9503, 1280.890
787.4324, 1283.736
787.9146, 1279.929
788.3967, 1271.872
788.8788, 1258.790
789.3609, 1250.098
789.8430, 1256.442
790.3251, 1268.219
790.8073, 1272.654
791.2894, 1271.309
791.7715, 1271.440
792.2536, 1275.694
792.7357, 1282.320
793.2178, 1291.901
793.7000, 1301.638
794.1821, 1293.744
794.6642, 1266.044
795.1463, 1248.398
795.6284, 1250.988
796.1105, 1257.872
796.5927, 1254.420
797.0748, 1242.472
797.5569, 1234.563
798.0390, 1230.968
798.5211, 1231.097
799.0032, 1239.948
799.4854, 1247.127
799.9675, 1247.560
800.4496, 1242.496
800.9317, 1231.950
801.4138, 1213.165
801.8959, 1205.229
802.3781, 1230.283
802.8602, 1256.127
803.3423, 1252.066
803.8244, 1231.994
804.3065, 1220.969
804.7886, 1225.281
805.2708, 1236.147
805.7529, 1248.982
806.2350, 1260.819
806.7171, 1264.833
807.1992, 1262.372
807.6813, 1259.951
808.1635, 1258.794
808.6456, 1259.352
809.1277, 1262.737
809.6098, 1266.272
810.0919, 1260.096
810.5740, 1238.141
811.0562, 1233.402
811.5383, 1259.085
812.0204, 1278.781
812.5025, 1269.444
812.9846, 1248.377
813.4667, 1243.983
813.9489, 1258.661
814.4310, 1267.514
814.9131, 1262.614
815.3952, 1258.895
815.8773, 1260.967
816.3594, 1266.973
816.8416, 1280.532
817.3237, 1297.084
817.8058, 1298.437
818.2879, 1266.540
818.7700, 1238.037
819.2521, 1250.046
819.7343, 1279.036
820.2164, 1290.709
820.6985, 1285.668
821.1806, 1280.923
821.6627, 1284.199
822.1448, 1288.250
822.6270, 1280.887
823.1091, 1265.475
823.5912, 1259.851
824.0733, 1264.097
824.5554, 1271.878
825.0375, 1281.855
825.5197, 1292.064
826.0018, 1301.421
826.4839, 1309.113
826.9660, 1307.677
827.4481, 1290.505
827.9302, 1279.528
828.4124, 1279.248
828.8945, 1283.029
829.3766, 1289.112
829.8587, 1295.932
830.3408, 1299.931
830.8229, 1299.303
831.3051, 1301.619
831.7872, 1314.387
832.2693, 1323.621
832.7514, 1318.739
833.2335, 1308.200
833.7156, 1303.442
834.1978, 1305.523
834.6799, 1306.149
835.1620, 1297.532
835.6441, 1289.720
836.1262, 1295.817
836.6083, 1307.389
837.0905, 1310.565
837.5726, 1304.319
838.0547, 1292.002
838.5368, 1274.747
839.0189, 1261.209
839.5010, 1269.266
839.9832, 1293.378
840.4653, 1301.750
840.9474, 1293.417
841.4295, 1288.558
841.9116, 1294.816
842.3937, 1305.585
842.8759, 1314.477
843.3580, 1321.025
843.8401, 1318.884
844.3222, 1304.098
844.8043, 1290.864
845.2864, 1278.397
845.7686, 1271.978
846.2507, 1279.854
846.7328, 1295.560
847.2149, 1300.900
847.6970, 1289.959
848.1791, 1285.182
848.6613, 1296.580
849.1434, 1305.271
849.6255, 1299.665
850.1076, 1289.014
850.5897, 1284.906
851.0718, 1288.089
851.5540, 1290.615
852.0361, 1288.611
852.5182, 1285.384
853.0003, 1278.866
853.4824, 1275.059
853.9645, 1285.993
854.4467, 1306.979
854.9288, 1320.497
855.4109, 1318.424
855.8930, 1310.052
856.3751, 1300.502
856.8572, 1294.326
857.3394, 1307.796
857.8215, 1336.105
858.3036, 1351.745
858.7857, 1346.693
859.2678, 1336.122
859.7499, 1334.342
860.2321, 1338.830
860.7142, 1339.216
861.1963, 1334.708
861.6784, 1337.751
862.1605, 1352.348
862.6426, 1364.611
863.1248, 1365.336
863.6069, 1360.286
864.0890, 1360.623
864.5711, 1366.793
865.0532, 1376.594
865.5353, 1396.271
866.0175, 1409.903
866.4996, 1407.061
866.9817, 1401.320
867.4638, 1403.727
867.9459, 1413.189
868.4280, 1423.187
868.9102, 1435.429
869.3923, 1444.207
869.8744, 1446.498
870.3565, 1446.766
870.8386, 1443.677
871.3207, 1442.272
871.8029, 1453.513
872.2850, 1479.594
872.7671, 1499.669
873.2492, 1496.397
873.7313, 1489.045
874.2134, 1494.028
874.6956, 1504.994
875.1777, 1511.071
875.6598, 1512.333
876.1419, 1517.111
876.6240, 1530.685
877.1061, 1546.237
877.5883, 1554.681
878.0704, 1559.074
878.5525, 1566.534
879.0346, 1576.997
879.5167, 1588.303
879.9988, 1599.550
880.4810, 1608.239
880.9631, 1609.788
881.4452, 1608.317
881.9273, 1622.818
882.4094, 1653.492
882.8915, 1674.846
883.3737, 1681.933
883.8558, 1684.352
884.3379, 1687.133
884.8200, 1690.690
885.3021, 1695.906
885.7842, 1702.922
886.2664, 1710.804
886.7485, 1719.370
887.2306, 1729.455
887.7127, 1744.001
888.1948, 1757.071
888.6769, 1762.559
889.1591, 1761.248
889.6412, 1759.267
890.1233, 1749.772
890.6054, 1750.052
891.0875, 1776.136
891.5696, 1795.377
892.0518, 1783.445
892.5339, 1759.141
893.0160, 1753.236
893.4981, 1769.663
893.9802, 1774.257
894.4623, 1747.029
894.9445, 1718.571
895.4266, 1705.093
895.9087, 1695.075
896.3908, 1673.936
896.8729, 1646.093
897.3550, 1628.411
897.8372, 1629.034
898.3193, 1628.621
898.8014, 1610.331
899.2835, 1587.370
899.7656, 1575.586
900.2477, 1569.062
900.7299, 1550.607
901.2120, 1520.120
901.6941, 1501.468
902.1762, 1517.086
902.6583, 1538.666
903.1404, 1518.420
903.6226, 1475.825
904.1047, 1460.560
904.5868, 1472.328
905.0689, 1484.196
905.5510, 1484.811
906.0331, 1478.540
906.5153, 1468.721
906.9974, 1457.210
907.4795, 1451.327
907.9616, 1450.834
908.4437, 1453.297
908.9258, 1458.740
909.4080, 1456.544
909.8900, 1437.629
910.3721, 1412.989
910.8542, 1407.240
911.3364, 1422.178
911.8185, 1437.848
912.3006, 1458.855
912.7827, 1458.239
913.2648, 1417.406
913.7469, 1375.339
914.2291, 1372.218
914.7112, 1400.206
915.1933, 1413.646
915.6754, 1404.782
916.1575, 1399.555
916.6396, 1399.259
917.1218, 1402.404
917.6039, 1412.504
918.0860, 1422.924
918.5681, 1423.078
919.0502, 1412.333
919.5323, 1404.656
920.0145, 1405.328
920.4966, 1401.905
920.9787, 1388.719
921.4608, 1374.563
921.9429, 1362.047
922.4250, 1353.623
922.9072, 1355.072
923.3893, 1369.193
923.8714, 1380.687
924.3535, 1385.465
924.8356, 1387.125
925.3177, 1388.046
925.7999, 1386.092
926.2820, 1374.048
926.7641, 1356.838
927.2462, 1353.188
927.7283, 1375.463
928.2104, 1391.501
928.6926, 1379.196
929.1747, 1359.145
929.6568, 1344.213
930.1389, 1335.625
930.6210, 1335.343
931.1031, 1342.176
931.5853, 1348.606
932.0674, 1350.422
932.5495, 1350.264
933.0316, 1350.048
933.5137, 1349.602
933.9958, 1350.136
934.4780, 1350.055
934.9601, 1343.550
935.4422, 1329.485
935.9243, 1317.494
936.4064, 1317.907
936.8885, 1323.378
937.3707, 1321.746
937.8528, 1316.605
938.3349, 1319.132
938.8170, 1328.109
939.2991, 1328.663
939.7813, 1313.283
940.2634, 1294.545
940.7455, 1288.983
941.2276, 1292.558
941.7097, 1294.102
942.1918, 1293.824
942.6740, 1294.066
943.1561, 1294.922
943.6382, 1289.384
944.1203, 1271.776
944.6024, 1250.417
945.0845, 1241.294
945.5667, 1243.164
946.0488, 1246.932
946.5309, 1252.328
947.0130, 1253.918
947.4951, 1249.744
947.9772, 1245.485
948.4594, 1246.340
948.9415, 1250.477
949.4236, 1253.066
949.9057, 1254.330
950.3878, 1247.937
950.8699, 1231.030
951.3521, 1223.131
951.8342, 1233.794
952.3163, 1250.352
952.7984, 1259.649
953.2805, 1261.576
953.7626, 1253.475
954.2448, 1231.370
954.7269, 1217.189
955.2090, 1214.865
955.6911, 1215.379
956.1732, 1214.584
956.6553, 1214.023
957.1375, 1216.711
957.6196, 1222.710
958.1017, 1222.720
958.5838, 1212.557
959.0659, 1207.173
959.5480, 1211.449
960.0302, 1216.143
960.5123, 1215.547
960.9944, 1212.012
961.4765, 1208.876
961.9586, 1204.818
962.4407, 1210.482
962.9229, 1238.298
963.4050, 1254.714
963.8871, 1248.351
964.3692, 1234.655
964.8513, 1219.311
965.3334, 1205.491
965.8156, 1202.891
966.2977, 1218.656
966.7798, 1222.659
967.2619, 1200.652
967.7440, 1185.930
968.2261, 1192.543
968.7083, 1203.953
969.1904, 1205.976
969.6725, 1202.011
970.1546, 1204.763
970.6367, 1220.407
971.1188, 1228.892
971.6010, 1223.054
972.0831, 1216.481
972.5652, 1212.691
973.0473, 1211.367
973.5294, 1212.812
974.0115, 1216.434
974.4937, 1219.893
974.9758, 1223.233
975.4579, 1225.616
975.9400, 1228.902
976.4221, 1228.871
976.9042, 1217.779
977.3864, 1206.224
977.8685, 1209.549
978.3506, 1225.494
978.8327, 1233.280
979.3148, 1221.188
979.7969, 1214.068
980.2791, 1221.843
980.7612, 1232.530
981.2433, 1243.230
981.7254, 1250.275
982.2075, 1246.984
982.6896, 1234.356
983.1718, 1225.752
983.6539, 1224.864
984.1360, 1228.622
984.6181, 1243.443
985.1002, 1254.995
985.5823, 1249.706
986.0645, 1236.762
986.5466, 1229.984
987.0287, 1231.197
987.5108, 1233.858
987.9929, 1238.725
988.4750, 1240.548
988.9572, 1239.941
989.4393, 1232.986
989.9214, 1210.049
990.4035, 1181.571
990.8856, 1165.267
991.3677, 1163.701
991.8499, 1164.324
992.3320, 1160.218
992.8141, 1159.867
993.2962, 1172.291
993.7783, 1185.244
994.2604, 1188.297
994.7426, 1184.234
995.2247, 1179.236
995.7068, 1174.597
996.1889, 1169.051
996.6710, 1157.477
997.1531, 1150.731
997.6353, 1159.944
998.1174, 1171.228
998.5995, 1170.491
999.0816, 1162.886
999.5637, 1163.053
1000.046, 1173.929
1000.528, 1175.478
1001.010, 1150.785
1001.492, 1124.754
1001.974, 1106.366
1002.456, 1095.976
1002.939, 1096.773
1003.421, 1104.744
1003.903, 1113.646
1004.385, 1121.943
1004.867, 1125.528
1005.349, 1119.080
1005.831, 1111.798
1006.313, 1108.246
1006.795, 1106.323
1007.278, 1104.076
1007.760, 1101.848
1008.242, 1100.996
1008.724, 1101.854
1009.206, 1102.427
1009.688, 1101.177
1010.170, 1100.297
1010.652, 1102.427
1011.135, 1104.119
1011.617, 1100.869
1012.099, 1095.098
1012.581, 1092.064
1013.063, 1092.975
1013.545, 1095.483
1014.027, 1101.003
1014.509, 1104.900
1014.991, 1101.134
1015.474, 1098.191
1015.956, 1107.177
1016.438, 1121.652
1016.920, 1125.446
1017.402, 1114.953
1017.884, 1111.892
1018.366, 1136.721
1018.848, 1153.978
1019.331, 1140.848
1019.813, 1121.229
1020.295, 1112.527
1020.777, 1113.037
1021.259, 1117.888
1021.741, 1126.320
1022.223, 1132.032
1022.705, 1129.926
1023.187, 1129.032
1023.670, 1131.814
1024.152, 1137.754
1024.634, 1152.800
1025.116, 1168.109
1025.598, 1164.721
1026.080, 1139.643
1026.562, 1124.459
1027.044, 1129.558
1027.526, 1141.100
1028.009, 1165.348
1028.491, 1184.292
1028.973, 1181.880
1029.455, 1168.263
1029.937, 1162.211
1030.419, 1165.665
1030.901, 1159.860
1031.383, 1124.711
1031.866, 1104.885
1032.348, 1120.781
1032.830, 1142.104
1033.312, 1152.370
1033.794, 1156.985
1034.276, 1167.111
1034.758, 1183.168
1035.240, 1186.242
1035.723, 1154.889
1036.205, 1140.999
1036.687, 1165.649
1037.169, 1190.587
1037.651, 1198.877
1038.133, 1196.656
1038.615, 1188.833
1039.097, 1175.904
1039.579, 1170.675
1040.062, 1185.870
1040.544, 1185.977
1041.026, 1151.470
1041.508, 1128.121
1041.990, 1142.119
1042.472, 1168.540
1042.954, 1181.323
1043.436, 1181.521
1043.918, 1177.389
1044.401, 1168.897
1044.883, 1154.899
1045.365, 1126.435
1045.847, 1112.423
1046.329, 1132.381
1046.811, 1155.913
1047.293, 1150.747
1047.775, 1124.995
1048.258, 1114.181
1048.740, 1122.825
1049.222, 1129.456
1049.704, 1134.795
1050.186, 1133.806
1050.668, 1122.011
1051.150, 1112.139
1051.632, 1116.305
1052.115, 1128.641
1052.597, 1132.443
1053.079, 1126.734
1053.561, 1123.182
1054.043, 1122.604
1054.525, 1115.796
1055.007, 1098.931
1055.489, 1087.188
1055.971, 1092.818
1056.453, 1106.373
1056.936, 1109.562
1057.418, 1103.085
1057.900, 1094.240
1058.382, 1083.218
1058.864, 1077.173
1059.346, 1077.464
1059.828, 1079.970
1060.310, 1082.571
1060.793, 1083.431
1061.275, 1078.225
1061.757, 1069.780
1062.239, 1070.328
1062.721, 1077.101
1063.203, 1075.685
1063.685, 1065.421
1064.167, 1057.203
1064.650, 1055.938
1065.132, 1057.415
1065.614, 1058.966
1066.096, 1058.196
1066.578, 1046.415
1067.060, 1030.396
1067.542, 1029.816
1068.024, 1040.704
1068.506, 1041.145
1068.989, 1025.151
1069.471, 1009.715
1069.953, 1009.031
1070.435, 1012.701
1070.917, 1009.193
1071.399, 1002.848
1071.881, 1000.399
1072.363, 999.7241
1072.845, 994.5590
1073.328, 984.4709
1073.810, 975.2859
1074.292, 969.3694
1074.774, 966.9205
1075.256, 971.8890
1075.738, 976.5935
1076.220, 972.1817
1076.702, 964.6483
1077.184, 962.6269
1077.667, 966.1424
1078.149, 970.9522
1078.631, 977.6285
1079.113, 978.0656
1079.595, 960.9394
1080.077, 946.8963
1080.559, 947.2117
1081.041, 954.4588
1081.524, 966.6036
1082.006, 978.6972
1082.488, 977.7227
1082.970, 957.9777
1083.452, 949.1913
1083.934, 967.3481
1084.416, 979.6410
1084.898, 976.9153
1085.380, 968.5308
1085.863, 957.6779
1086.345, 946.1424
1086.827, 935.1618
1087.309, 924.5558
1087.791, 925.4084
1088.273, 947.4055
1088.755, 958.0295
1089.237, 950.0781
1089.719, 939.9090
1090.202, 933.0114
1090.684, 930.0209
1091.166, 933.1593
1091.648, 940.0210
1092.130, 937.6976
1092.612, 924.1969
1093.094, 918.6371
1093.576, 922.6113
1094.059, 928.4041
1094.541, 934.2511
1095.023, 935.9850
1095.505, 929.2080
1095.987, 920.3738
1096.469, 926.3282
1096.951, 942.8289
1097.433, 941.8210
1097.916, 925.4882
1098.398, 906.3865
1098.880, 888.7951
1099.362, 888.2058
1099.844, 913.2343
1100.326, 938.9319
1100.808, 930.1925
1101.290, 907.4570
1101.772, 908.5875
1102.255, 923.2610
1102.737, 931.9514
1103.219, 933.3556
1103.701, 931.4529
1104.183, 927.9224
1104.665, 924.7919
1105.147, 922.2297
1105.629, 922.7319
1106.111, 932.3195
1106.594, 942.4094
1107.076, 943.5323
1107.558, 939.2686
1108.040, 936.8303
1108.522, 936.3581
1109.004, 931.5356
1109.486, 916.9913
1109.968, 907.5451
1110.451, 913.0768
1110.933, 919.3638
1111.415, 919.8698
1111.897, 917.6599
1112.379, 913.7289
1112.861, 909.9370
1113.343, 911.2116
1113.825, 919.4746
1114.307, 925.0635
1114.790, 930.3538
1115.272, 928.1401
1115.754, 910.9429
1116.236, 896.3708
1116.718, 893.9958
1117.200, 898.6202
1117.682, 903.9041
1118.164, 909.5714
1118.646, 913.5057
1119.129, 916.0720
1119.611, 913.4697
1120.093, 904.2459
1120.575, 898.8105
1121.057, 900.9417
1121.539, 906.3309
1122.021, 912.3467
1122.503, 915.5266
1122.986, 904.4074
1123.468, 884.0090
1123.950, 879.4974
1124.432, 888.7271
1124.914, 901.1855
1125.396, 913.4212
1125.878, 918.8638
1126.360, 914.1342
1126.843, 906.8165
1127.325, 902.5488
1127.807, 902.2327
1128.289, 912.5168
1128.771, 923.9780
1129.253, 918.3989
1129.735, 902.8355
1130.217, 897.4694
1130.699, 905.6923
1131.182, 911.8290
1131.664, 906.7391
1132.146, 901.6248
1132.628, 902.5083
1133.110, 904.8602
1133.592, 906.1048
1134.074, 906.8812
1134.556, 909.1073
1135.038, 911.6516
1135.521, 910.3818
1136.003, 904.1346
1136.485, 896.6353
1136.967, 887.1398
1137.449, 877.5809
1137.931, 861.9078
1138.413, 856.4782
1138.895, 876.4701
1139.378, 904.3571
1139.860, 914.8110
1140.342, 909.3430
1140.824, 901.9260
1141.306, 891.7145
1141.788, 887.2385
1142.270, 889.6986
1142.752, 890.7971
1143.234, 887.7739
1143.717, 882.9133
1144.199, 877.3278
1144.681, 874.5515
1145.163, 885.4171
1145.645, 903.0793
1146.127, 905.1436
1146.609, 895.7476
1147.091, 886.6511
1147.573, 880.6827
1148.056, 880.3611
1148.538, 886.4037
1149.020, 891.5436
1149.502, 887.2883
1149.984, 883.4699
1150.466, 885.5475
1150.948, 881.8970
1151.430, 895.2970
1151.913, 902.3903
1152.395, 903.5191
1152.877, 880.8127
1153.359, 888.8847
1153.841, 884.6222
1154.323, 879.8537
1154.805, 892.2576
1155.287, 873.0181
1155.770, 893.5907
1156.252, 905.3446
1156.734, 910.0195
1157.216, 908.8735
1157.698, 902.0679
1158.180, 889.4260
1158.662, 891.7817
1159.144, 915.5609
1159.626, 925.1480
1160.109, 915.0615
1160.591, 902.8738
1161.073, 894.7307
1161.555, 888.7692
1162.037, 883.3644
1162.519, 878.8662
1163.001, 876.1835
1163.483, 875.0427
1163.965, 873.7943
1164.448, 873.2338
1164.930, 878.2777
1165.412, 887.6188
1165.894, 891.4006
1166.376, 885.5860
1166.858, 878.8499
1167.340, 879.9258
1167.822, 880.5614
1168.305, 869.2080
1168.787, 857.7810
1169.269, 859.6817
1169.751, 869.1200
1170.233, 877.3690
1170.715, 882.8342
1171.197, 884.8412
1171.679, 880.7098
1172.161, 880.4713
1172.644, 891.1440
1173.126, 898.3732
1173.608, 897.5051
1174.090, 893.2379
1174.572, 885.8261
1175.054, 879.6072
1175.536, 882.9714
1176.018, 894.2249
1176.500, 893.5341
1176.983, 879.0505
1177.465, 873.1787
1177.947, 877.7877
1178.429, 880.8572
1178.911, 878.7751
1179.393, 875.6046
1179.875, 874.1162
1180.357, 874.3700
1180.840, 877.8447
1181.322, 882.2336
1181.804, 882.5667
1182.286, 880.5260
1182.768, 879.5005
1183.250, 879.3521
1183.732, 878.3098
1184.214, 875.9664
1184.697, 873.3673
1185.179, 869.1619
1185.661, 868.5629
1186.143, 877.0602
1186.625, 886.3130
1187.107, 893.3910
1187.589, 897.1078
1188.071, 895.9312
1188.553, 890.6547
1189.036, 882.7643
1189.518, 871.3434
1190.000, 866.1121
1190.482, 869.6703
1190.964, 871.5392
1191.446, 870.1530
1191.928, 868.7874
1192.410, 869.0476
1192.892, 868.1522
1193.375, 863.2059
1193.857, 856.1198
1194.339, 850.0678
1194.821, 845.7192
1195.303, 846.9280
1195.785, 851.8439
1196.267, 852.2217
1196.749, 849.4031
1197.232, 856.1119
1197.714, 876.2685
1198.196, 892.3923
1198.678, 891.0146
1199.160, 884.2287
1199.642, 878.2710
1200.124, 872.4600
1200.606, 864.1792
1201.089, 857.3340
1201.571, 859.9778
1202.053, 868.2446
1202.535, 866.2260
1203.017, 848.3094
1203.499, 838.8387
1203.981, 842.9707
1204.463, 843.2201
1204.945, 834.0090
1205.427, 830.9922
1205.910, 842.8679
1206.392, 857.3451
1206.874, 862.2984
1207.356, 859.5784
1207.838, 850.0731
1208.320, 837.3171
1208.802, 839.3951
1209.284, 853.1346
1209.767, 869.0801
1210.249, 882.6253
1210.731, 881.0355
1211.213, 860.5134
1211.695, 844.4228
1212.177, 854.1804
1212.659, 864.8110
1213.141, 855.4217
1213.624, 843.4320
1214.106, 840.5147
1214.588, 844.3843
1215.070, 855.3962
1215.552, 869.5291
1216.034, 874.8805
1216.516, 869.3985
1216.998, 861.8646
1217.480, 848.8255
1217.963, 843.1639
1218.445, 848.0620
1218.927, 854.8582
1219.409, 860.8090
1219.891, 863.2783
1220.373, 858.8105
1220.855, 853.1012
1221.337, 860.8359
1221.819, 875.8914
1222.302, 877.5002
1222.784, 856.8602
1223.266, 871.1431
1223.748, 879.1209
1224.230, 881.1326
1224.712, 859.3088
1225.194, 868.2637
1225.676, 864.8839
1226.159, 860.9980
1226.641, 874.2848
1227.123, 855.9278
1227.605, 868.9423
1228.087, 869.4338
1228.569, 875.6569
1229.051, 869.4690
1229.533, 867.1145
1230.016, 877.1745
1230.498, 846.5908
1230.980, 859.8674
1231.462, 866.8389
1231.944, 867.8445
1232.426, 845.0142
1232.908, 852.9629
1233.390, 848.5766
1233.872, 843.6848
1234.354, 855.9651
1234.837, 836.5995
1235.319, 848.6077
1235.801, 848.0928
1236.283, 853.3096
1236.765, 846.1154
1237.247, 842.7546
1237.729, 851.8084
1238.211, 853.9880
1238.694, 845.3630
1239.176, 850.9438
1239.658, 831.1472
1240.140, 833.6196
1240.622, 845.7004
1241.104, 841.2258
1241.586, 842.2482
1242.068, 839.3336
1242.551, 837.6838
1243.033, 844.5269
1243.515, 855.2589
1243.997, 853.4955
1244.479, 841.4202
1244.961, 839.1537
1245.443, 845.2229
1245.925, 853.0278
1246.407, 859.3266
1246.890, 852.8570
1247.372, 831.1197
1247.854, 815.3975
1248.336, 823.4614
1248.818, 834.4185
1249.300, 833.2802
1249.782, 830.6772
1250.264, 834.3904
1250.746, 839.9787
1251.229, 843.4324
1251.711, 844.7225
1252.193, 843.5143
1252.675, 839.9527
1253.157, 842.0888
1253.639, 852.5845
1254.121, 855.5999
1254.603, 849.6290
1255.086, 841.9899
1255.568, 834.5953
1256.050, 833.7568
1256.532, 843.6451
1257.014, 852.9254
1257.496, 846.1388
1257.978, 834.5336
1258.460, 831.1046
1258.943, 835.1049
1259.425, 853.3404
1259.907, 873.7453
1260.389, 875.7719
1260.871, 861.3700
1261.353, 846.0822
1261.835, 831.3681
1262.317, 824.7148
1262.799, 830.2815
1263.281, 838.6976
1263.764, 853.4176
1264.246, 859.8976
1264.728, 851.2938
1265.210, 838.0358
1265.692, 827.9653
1266.174, 821.5553
1266.656, 819.6429
1267.138, 821.9997
1267.621, 831.4540
1268.103, 843.2601
1268.585, 846.6116
1269.067, 842.3307
1269.549, 832.9731
1270.031, 821.3807
1270.513, 815.7389
1270.995, 818.8737
1271.478, 830.4683
##END=



