##NAMES=Aeschynite-(Y)
##RRUFFID=R080045
##IDEAL CHEMISTRY=(Y^3+^,Ca,Th^4+^)(Ti^4+^,Nb^5+^)_2_(O,OH)_6_
##LOCALITY=Hittero, Vest-Agder, Norway
##OWNER=RRUFF
##SOURCE=Herb Obodda
##DESCRIPTION=Light brown glassy, from black amorphous sample R060312 after heating at T = 850 C for 18 hours
##STATUS=The identification of this mineral has been confirmed only by X-ray diffraction
##URL=rruff.info/R080045
94.30859, 715.1321
94.79071, 668.9387
95.27283, 661.5234
95.75494, 696.8446
96.23706, 758.4030
96.71918, 825.8455
97.20129, 898.0579
97.68341, 976.7750
98.16553, 1062.044
98.64764, 1153.416
99.12976, 1254.975
99.61188, 1368.344
100.0940, 1491.132
100.5761, 1621.771
101.0582, 1760.758
101.5403, 1902.579
102.0225, 2046.026
102.5046, 2190.779
102.9867, 2331.855
103.4688, 2468.365
103.9509, 2599.417
104.4330, 2732.398
104.9152, 2870.565
105.3973, 3003.240
105.8794, 3114.720
106.3615, 3192.874
106.8436, 3272.913
107.3257, 3363.338
107.8079, 3464.823
108.2900, 3569.234
108.7721, 3670.873
109.2542, 3776.198
109.7363, 3897.829
110.2184, 4046.566
110.7006, 4200.657
111.1827, 4352.794
111.6648, 4497.280
112.1469, 4650.817
112.6290, 4821.192
113.1111, 4998.882
113.5933, 5171.071
114.0754, 5338.604
114.5575, 5496.860
115.0396, 5643.246
115.5217, 5779.112
116.0038, 5903.242
116.4859, 6013.311
116.9681, 6110.899
117.4502, 6201.667
117.9323, 6288.598
118.4144, 6368.899
118.8965, 6440.452
119.3786, 6497.956
119.8608, 6551.029
120.3429, 6603.667
120.8250, 6655.804
121.3071, 6704.552
121.7892, 6746.307
122.2713, 6784.801
122.7535, 6824.503
123.2356, 6868.863
123.7177, 6914.030
124.1998, 6953.017
124.6819, 6985.905
125.1640, 7026.181
125.6462, 7090.814
126.1283, 7171.494
126.6104, 7250.728
127.0925, 7318.042
127.5746, 7380.042
128.0567, 7445.644
128.5389, 7515.788
129.0210, 7588.762
129.5031, 7662.594
129.9852, 7737.327
130.4673, 7811.712
130.9494, 7886.005
131.4316, 7956.825
131.9137, 7990.908
132.3958, 7983.274
132.8779, 7973.288
133.3600, 7954.153
133.8421, 7926.457
134.3243, 7897.680
134.8064, 7872.849
135.2885, 7851.746
135.7706, 7829.421
136.2527, 7805.820
136.7348, 7779.958
137.2169, 7747.801
137.6991, 7707.203
138.1812, 7667.995
138.6633, 7638.076
139.1454, 7618.037
139.6275, 7598.374
140.1096, 7578.749
140.5918, 7558.248
141.0739, 7531.104
141.5560, 7494.390
142.0381, 7456.851
142.5202, 7425.603
143.0023, 7402.000
143.4845, 7381.566
143.9666, 7365.319
144.4487, 7353.302
144.9308, 7335.589
145.4129, 7307.987
145.8951, 7278.800
146.3772, 7256.553
146.8593, 7247.321
147.3414, 7235.571
147.8235, 7217.109
148.3056, 7189.676
148.7878, 7166.265
149.2699, 7149.286
149.7520, 7134.941
150.2341, 7118.483
150.7162, 7099.315
151.1983, 7078.289
151.6805, 7054.371
152.1626, 7024.626
152.6447, 6999.783
153.1268, 6982.676
153.6089, 6969.703
154.0910, 6955.140
154.5732, 6941.249
155.0553, 6923.375
155.5374, 6898.718
156.0195, 6860.639
156.5016, 6828.988
156.9837, 6808.497
157.4659, 6796.306
157.9480, 6786.384
158.4301, 6781.555
158.9122, 6775.902
159.3943, 6766.522
159.8764, 6750.949
160.3586, 6735.044
160.8407, 6719.581
161.3228, 6704.830
161.8049, 6691.552
162.2870, 6678.507
162.7691, 6667.873
163.2512, 6661.302
163.7334, 6661.798
164.2155, 6662.745
164.6976, 6662.808
165.1797, 6661.440
165.6618, 6656.567
166.1439, 6642.435
166.6261, 6626.581
167.1082, 6615.642
167.5903, 6614.659
168.0724, 6615.676
168.5545, 6616.368
169.0366, 6616.133
169.5188, 6611.004
170.0009, 6594.396
170.4830, 6573.122
170.9651, 6554.606
171.4472, 6542.687
171.9293, 6533.391
172.4115, 6522.510
172.8936, 6510.468
173.3757, 6501.944
173.8578, 6505.663
174.3399, 6514.335
174.8220, 6516.809
175.3042, 6505.052
175.7863, 6487.358
176.2684, 6471.764
176.7505, 6458.200
177.2326, 6445.826
177.7147, 6433.084
178.1969, 6420.924
178.6790, 6411.786
179.1611, 6410.640
179.6432, 6411.556
180.1253, 6403.884
180.6074, 6387.154
181.0896, 6370.350
181.5717, 6364.079
182.0538, 6365.506
182.5359, 6365.424
183.0180, 6359.436
183.5001, 6349.388
183.9823, 6337.919
184.4644, 6324.762
184.9465, 6313.144
185.4286, 6307.986
185.9107, 6308.295
186.3928, 6309.087
186.8750, 6308.731
187.3571, 6307.188
187.8392, 6303.770
188.3213, 6298.134
188.8034, 6292.268
189.2855, 6288.506
189.7677, 6286.816
190.2498, 6286.841
190.7319, 6289.875
191.2140, 6295.016
191.6961, 6296.785
192.1782, 6294.374
192.6603, 6290.924
193.1425, 6289.973
193.6246, 6291.529
194.1067, 6297.425
194.5888, 6310.175
195.0709, 6329.047
195.5530, 6347.870
196.0352, 6367.643
196.5173, 6385.284
196.9994, 6393.450
197.4815, 6391.210
197.9636, 6390.864
198.4457, 6399.055
198.9279, 6415.825
199.4100, 6432.830
199.8921, 6449.848
200.3742, 6466.971
200.8563, 6484.741
201.3384, 6503.563
201.8206, 6521.252
202.3027, 6535.726
202.7848, 6546.553
203.2669, 6560.450
203.7490, 6577.851
204.2311, 6598.294
204.7133, 6621.900
205.1954, 6649.824
205.6775, 6676.519
206.1596, 6698.897
206.6417, 6716.469
207.1238, 6733.844
207.6060, 6750.695
208.0881, 6768.072
208.5702, 6788.348
209.0523, 6811.868
209.5344, 6837.152
210.0165, 6863.855
210.4987, 6892.488
210.9808, 6920.380
211.4629, 6947.159
211.9450, 6973.182
212.4271, 6998.322
212.9092, 7021.056
213.3914, 7046.501
213.8735, 7078.346
214.3556, 7118.745
214.8377, 7156.051
215.3198, 7188.655
215.8019, 7218.698
216.2841, 7250.334
216.7662, 7284.119
217.2483, 7318.913
217.7304, 7354.888
218.2125, 7392.953
218.6946, 7428.138
219.1767, 7459.431
219.6589, 7488.146
220.1410, 7518.948
220.6231, 7552.288
221.1052, 7587.043
221.5873, 7623.304
222.0694, 7661.177
222.5516, 7699.139
223.0337, 7737.667
223.5158, 7775.777
223.9979, 7813.258
224.4800, 7849.827
224.9621, 7885.536
225.4443, 7919.686
225.9264, 7951.530
226.4085, 7984.471
226.8906, 8019.508
227.3727, 8055.263
227.8548, 8090.596
228.3370, 8126.336
228.8191, 8159.781
229.3012, 8189.417
229.7833, 8212.055
230.2654, 8239.338
230.7475, 8274.981
231.2297, 8313.829
231.7118, 8343.195
232.1939, 8356.576
232.6760, 8370.932
233.1581, 8394.161
233.6402, 8431.514
234.1224, 8462.791
234.6045, 8487.201
235.0866, 8505.994
235.5687, 8521.332
236.0508, 8530.979
236.5329, 8540.670
237.0151, 8552.956
237.4972, 8569.885
237.9793, 8582.913
238.4614, 8591.397
238.9435, 8596.293
239.4256, 8599.514
239.9078, 8600.866
240.3899, 8600.961
240.8720, 8600.509
241.3541, 8600.735
241.8362, 8596.307
242.3183, 8583.945
242.8005, 8568.945
243.2826, 8560.397
243.7647, 8560.377
244.2468, 8563.893
244.7289, 8571.096
245.2110, 8584.916
245.6931, 8589.714
246.1753, 8579.601
246.6574, 8564.186
247.1395, 8558.617
247.6216, 8567.025
248.1037, 8578.039
248.5858, 8589.380
249.0680, 8601.713
249.5501, 8608.873
250.0322, 8606.762
250.5143, 8602.499
250.9964, 8606.941
251.4785, 8627.712
251.9607, 8642.932
252.4428, 8644.611
252.9249, 8630.235
253.4070, 8624.886
253.8891, 8633.756
254.3712, 8646.897
254.8534, 8652.248
255.3355, 8646.569
255.8176, 8639.631
256.2997, 8632.880
256.7818, 8626.269
257.2639, 8623.145
257.7461, 8626.647
258.2282, 8630.113
258.7103, 8626.503
259.1924, 8614.368
259.6745, 8597.917
260.1566, 8576.209
260.6388, 8549.221
261.1209, 8529.113
261.6030, 8517.906
262.0851, 8510.437
262.5672, 8502.557
263.0493, 8494.607
263.5315, 8485.166
264.0136, 8473.420
264.4957, 8459.873
264.9778, 8446.795
265.4599, 8431.031
265.9420, 8421.611
266.4242, 8428.382
266.9063, 8457.911
267.3884, 8482.963
267.8705, 8501.783
268.3526, 8513.303
268.8347, 8509.237
269.3169, 8482.764
269.7990, 8455.338
270.2811, 8442.278
270.7632, 8446.979
271.2453, 8451.557
271.7274, 8454.729
272.2096, 8456.100
272.6917, 8453.512
273.1738, 8444.876
273.6559, 8438.040
274.1380, 8438.935
274.6201, 8449.243
275.1023, 8456.413
275.5844, 8458.312
276.0665, 8457.813
276.5486, 8462.805
277.0307, 8474.964
277.5128, 8486.017
277.9950, 8490.136
278.4771, 8486.556
278.9592, 8488.169
279.4413, 8496.621
279.9234, 8508.941
280.4055, 8520.356
280.8877, 8531.184
281.3698, 8539.257
281.8519, 8540.957
282.3340, 8536.334
282.8161, 8539.552
283.2982, 8551.639
283.7804, 8569.131
284.2625, 8589.134
284.7446, 8611.929
285.2267, 8629.638
285.7088, 8637.279
286.1909, 8636.299
286.6730, 8637.540
287.1552, 8641.511
287.6373, 8645.459
288.1194, 8645.861
288.6015, 8642.904
289.0836, 8639.015
289.5657, 8632.653
290.0479, 8626.317
290.5300, 8631.507
291.0121, 8649.402
291.4942, 8668.077
291.9763, 8674.880
292.4584, 8671.437
292.9406, 8667.407
293.4227, 8664.158
293.9048, 8662.763
294.3869, 8667.154
294.8690, 8677.314
295.3511, 8687.177
295.8333, 8691.788
296.3154, 8692.049
296.7975, 8690.791
297.2796, 8687.739
297.7617, 8684.682
298.2438, 8684.442
298.7260, 8686.924
299.2081, 8691.074
299.6902, 8700.256
300.1723, 8710.289
300.6544, 8711.098
301.1365, 8698.784
301.6187, 8683.682
302.1008, 8678.309
302.5829, 8680.995
303.0650, 8685.099
303.5471, 8686.268
304.0292, 8686.647
304.5114, 8689.121
304.9935, 8693.882
305.4756, 8700.807
305.9577, 8711.658
306.4398, 8724.596
306.9219, 8735.564
307.4041, 8741.236
307.8862, 8744.627
308.3683, 8749.005
308.8504, 8754.471
309.3325, 8759.646
309.8146, 8763.276
310.2968, 8765.930
310.7789, 8768.517
311.2610, 8770.563
311.7431, 8773.388
312.2252, 8779.484
312.7073, 8788.524
313.1895, 8795.190
313.6716, 8795.885
314.1537, 8792.990
314.6358, 8788.744
315.1179, 8780.377
315.6000, 8774.671
316.0822, 8777.892
316.5643, 8787.754
317.0464, 8794.747
317.5285, 8792.448
318.0106, 8787.060
318.4927, 8783.318
318.9749, 8784.732
319.4570, 8783.130
319.9391, 8771.995
320.4212, 8755.432
320.9033, 8742.872
321.3854, 8746.752
321.8676, 8747.707
322.3497, 8734.947
322.8318, 8702.121
323.3139, 8670.538
323.7960, 8643.201
324.2781, 8620.266
324.7603, 8601.496
325.2424, 8591.639
325.7245, 8581.599
326.2066, 8569.939
326.6887, 8557.318
327.1708, 8539.250
327.6530, 8511.540
328.1351, 8480.268
328.6172, 8450.701
329.0993, 8418.290
329.5814, 8393.053
330.0635, 8380.040
330.5457, 8378.686
331.0278, 8370.228
331.5099, 8349.736
331.9920, 8325.955
332.4741, 8304.830
332.9562, 8287.498
333.4384, 8270.143
333.9205, 8251.588
334.4026, 8232.768
334.8847, 8217.050
335.3668, 8206.753
335.8489, 8195.877
336.3311, 8180.930
336.8132, 8158.971
337.2953, 8141.166
337.7774, 8128.707
338.2595, 8119.540
338.7416, 8109.924
339.2238, 8099.005
339.7059, 8089.867
340.1880, 8083.417
340.6701, 8079.661
341.1522, 8080.113
341.6343, 8086.183
342.1164, 8093.622
342.5985, 8097.466
343.0807, 8097.515
343.5628, 8096.620
344.0449, 8094.493
344.5270, 8092.266
345.0091, 8094.317
345.4912, 8100.729
345.9734, 8111.060
346.4555, 8126.743
346.9376, 8146.932
347.4197, 8165.776
347.9018, 8182.038
348.3839, 8196.209
348.8661, 8208.448
349.3482, 8218.904
349.8303, 8231.257
350.3124, 8249.374
350.7945, 8271.104
351.2766, 8289.817
351.7588, 8303.912
352.2409, 8319.846
352.7230, 8346.813
353.2051, 8382.237
353.6872, 8419.127
354.1693, 8453.918
354.6515, 8488.167
355.1336, 8523.604
355.6157, 8560.804
356.0978, 8599.115
356.5799, 8636.428
357.0620, 8675.428
357.5442, 8720.266
358.0263, 8776.989
358.5084, 8835.546
358.9905, 8889.595
359.4726, 8939.392
359.9547, 8987.768
360.4369, 9029.319
360.9190, 9073.291
361.4011, 9127.916
361.8832, 9198.799
362.3653, 9272.870
362.8474, 9342.787
363.3296, 9411.739
363.8117, 9486.788
364.2938, 9573.779
364.7759, 9663.681
365.2580, 9752.285
365.7401, 9838.764
366.2223, 9925.658
366.7044, 10009.97
367.1865, 10096.03
367.6686, 10190.21
368.1507, 10299.52
368.6328, 10409.41
369.1150, 10515.86
369.5971, 10618.75
370.0792, 10726.17
370.5613, 10835.75
371.0434, 10950.71
371.5255, 11072.88
372.0077, 11205.38
372.4898, 11341.25
372.9719, 11483.84
373.4540, 11630.66
373.9361, 11773.12
374.4182, 11902.83
374.9004, 12039.60
375.3825, 12195.29
375.8646, 12376.22
376.3467, 12543.08
376.8288, 12691.92
377.3109, 12833.12
377.7931, 12981.87
378.2752, 13137.63
378.7573, 13306.06
379.2394, 13495.63
379.7215, 13700.72
380.2036, 13893.36
380.6858, 14068.04
381.1679, 14240.10
381.6500, 14420.04
382.1321, 14608.73
382.6142, 14796.37
383.0963, 14983.24
383.5785, 15168.29
384.0606, 15357.40
384.5427, 15546.81
385.0248, 15730.30
385.5069, 15893.48
385.9890, 16047.66
386.4712, 16216.95
386.9533, 16404.35
387.4354, 16598.04
387.9175, 16786.14
388.3996, 16966.77
388.8817, 17136.95
389.3639, 17288.00
389.8460, 17429.72
390.3281, 17571.04
390.8102, 17711.72
391.2923, 17855.36
391.7744, 18016.78
392.2566, 18178.20
392.7387, 18323.34
393.2208, 18445.13
393.7029, 18553.59
394.1850, 18653.76
394.6671, 18745.19
395.1493, 18827.83
395.6314, 18899.91
396.1135, 18964.74
396.5956, 19024.76
397.0777, 19081.43
397.5598, 19131.19
398.0419, 19170.45
398.5240, 19203.42
399.0062, 19234.86
399.4883, 19272.49
399.9704, 19301.00
400.4525, 19315.37
400.9346, 19315.85
401.4167, 19311.60
401.8989, 19303.01
402.3810, 19289.00
402.8631, 19269.21
403.3452, 19245.62
403.8273, 19210.96
404.3094, 19159.09
404.7916, 19098.89
405.2737, 19054.03
405.7558, 19033.56
406.2379, 19005.65
406.7200, 18953.36
407.2021, 18875.16
407.6843, 18816.04
408.1664, 18781.59
408.6485, 18753.67
409.1306, 18712.04
409.6127, 18656.58
410.0948, 18599.64
410.5770, 18539.73
411.0591, 18483.65
411.5412, 18454.53
412.0233, 18451.76
412.5054, 18452.29
412.9875, 18432.52
413.4697, 18403.77
413.9518, 18398.07
414.4339, 18422.08
414.9160, 18457.04
415.3981, 18480.91
415.8802, 18498.81
416.3624, 18525.05
416.8445, 18571.58
417.3266, 18625.79
417.8087, 18674.82
418.2908, 18718.52
418.7729, 18767.35
419.2551, 18827.58
419.7372, 18895.88
420.2193, 18968.90
420.7014, 19049.98
421.1835, 19129.27
421.6656, 19195.53
422.1478, 19255.86
422.6299, 19328.61
423.1120, 19434.54
423.5941, 19541.16
424.0762, 19630.43
424.5583, 19697.76
425.0405, 19768.86
425.5226, 19850.44
426.0047, 19935.49
426.4868, 20016.43
426.9689, 20092.43
427.4510, 20165.39
427.9332, 20236.58
428.4153, 20304.44
428.8974, 20359.98
429.3795, 20399.07
429.8616, 20431.70
430.3438, 20464.94
430.8259, 20503.72
431.3080, 20523.25
431.7901, 20518.38
432.2722, 20501.82
432.7543, 20496.71
433.2365, 20505.88
433.7186, 20498.41
434.2007, 20460.58
434.6828, 20399.18
435.1649, 20336.96
435.6470, 20273.54
436.1292, 20214.44
436.6113, 20169.77
437.0934, 20133.42
437.5755, 20087.35
438.0576, 20028.93
438.5397, 19958.21
439.0219, 19868.37
439.5040, 19764.60
439.9861, 19664.50
440.4682, 19580.37
440.9503, 19501.04
441.4324, 19415.02
441.9146, 19322.09
442.3967, 19230.11
442.8788, 19143.43
443.3609, 19059.94
443.8430, 18979.39
444.3251, 18897.39
444.8073, 18822.09
445.2894, 18758.01
445.7715, 18702.83
446.2536, 18650.58
446.7357, 18593.08
447.2178, 18543.53
447.7000, 18506.86
448.1821, 18483.51
448.6642, 18470.10
449.1463, 18469.75
449.6284, 18476.44
450.1105, 18483.83
450.5927, 18483.62
451.0747, 18498.83
451.5569, 18533.92
452.0390, 18586.44
452.5211, 18650.16
453.0032, 18728.06
453.4853, 18808.62
453.9674, 18883.73
454.4496, 18953.26
454.9317, 19032.19
455.4138, 19121.45
455.8959, 19217.82
456.3780, 19321.59
456.8601, 19431.72
457.3423, 19532.60
457.8244, 19613.75
458.3065, 19687.20
458.7886, 19775.70
459.2707, 19878.64
459.7528, 19980.49
460.2350, 20076.77
460.7171, 20165.00
461.1992, 20242.70
461.6813, 20308.12
462.1634, 20366.08
462.6455, 20427.18
463.1277, 20481.96
463.6098, 20516.63
464.0919, 20507.61
464.5740, 20493.93
465.0561, 20505.31
465.5382, 20534.18
466.0204, 20532.63
466.5025, 20457.65
466.9846, 20368.91
467.4667, 20303.68
467.9488, 20291.92
468.4309, 20248.13
468.9131, 20149.18
469.3952, 20022.87
469.8773, 19904.75
470.3594, 19799.71
470.8415, 19693.40
471.3236, 19581.91
471.8058, 19467.04
472.2879, 19355.23
472.7700, 19247.84
473.2521, 19141.50
473.7342, 19036.17
474.2163, 18932.24
474.6985, 18823.43
475.1806, 18706.50
475.6627, 18591.60
476.1448, 18489.61
476.6269, 18400.40
477.1090, 18323.55
477.5912, 18262.89
478.0733, 18211.61
478.5554, 18150.78
479.0375, 18082.67
479.5196, 18032.27
480.0017, 18024.22
480.4839, 18040.30
480.9660, 18056.56
481.4481, 18067.19
481.9302, 18086.17
482.4123, 18120.89
482.8944, 18170.50
483.3766, 18233.57
483.8587, 18316.23
484.3408, 18406.38
484.8229, 18498.60
485.3050, 18593.94
485.7871, 18697.72
486.2693, 18804.90
486.7514, 18926.63
487.2335, 19069.47
487.7156, 19246.02
488.1977, 19416.54
488.6798, 19575.99
489.1620, 19734.26
489.6441, 19903.54
490.1262, 20091.11
490.6083, 20273.41
491.0904, 20442.28
491.5725, 20600.88
492.0547, 20768.57
492.5368, 20945.28
493.0189, 21124.65
493.5010, 21304.24
493.9831, 21482.76
494.4652, 21662.01
494.9474, 21842.32
495.4295, 22019.27
495.9116, 22186.53
496.3937, 22347.09
496.8758, 22503.75
497.3579, 22659.28
497.8401, 22811.02
498.3222, 22953.55
498.8043, 23089.75
499.2864, 23233.43
499.7685, 23404.99
500.2506, 23577.45
500.7328, 23728.77
501.2149, 23854.12
501.6970, 23969.52
502.1791, 24072.64
502.6612, 24170.89
503.1433, 24271.37
503.6255, 24384.69
504.1076, 24488.89
504.5897, 24577.23
505.0718, 24655.42
505.5539, 24741.62
506.0360, 24848.83
506.5181, 24947.22
507.0002, 25021.98
507.4824, 25071.28
507.9645, 25134.90
508.4466, 25214.74
508.9287, 25304.04
509.4108, 25396.82
509.8929, 25493.01
510.3751, 25594.87
510.8572, 25705.33
511.3393, 25818.36
511.8214, 25925.99
512.3035, 26028.92
512.7856, 26132.23
513.2678, 26234.32
513.7499, 26339.64
514.2320, 26458.26
514.7141, 26587.96
515.1962, 26715.83
515.6783, 26824.76
516.1605, 26932.17
516.6426, 27056.27
517.1247, 27206.37
517.6068, 27359.31
518.0889, 27512.78
518.5710, 27662.82
519.0532, 27801.56
519.5353, 27910.28
520.0174, 28028.22
520.4995, 28171.44
520.9816, 28335.03
521.4637, 28488.10
521.9459, 28625.72
522.4280, 28759.86
522.9101, 28895.18
523.3922, 29034.25
523.8743, 29167.64
524.3564, 29298.12
524.8386, 29418.29
525.3207, 29518.40
525.8028, 29597.56
526.2849, 29668.75
526.7670, 29739.28
527.2491, 29796.08
527.7313, 29808.55
528.2134, 29781.05
528.6955, 29737.77
529.1776, 29691.79
529.6597, 29638.81
530.1418, 29577.87
530.6240, 29509.56
531.1061, 29416.21
531.5882, 29273.34
532.0703, 29107.52
532.5524, 28943.16
533.0345, 28786.66
533.5167, 28633.46
533.9988, 28489.06
534.4809, 28346.91
534.9630, 28196.46
535.4451, 28013.00
535.9272, 27845.71
536.4094, 27708.40
536.8915, 27599.26
537.3736, 27483.99
537.8557, 27353.82
538.3378, 27230.49
538.8199, 27128.12
539.3021, 27049.95
539.7842, 26966.90
540.2663, 26875.09
540.7484, 26786.01
541.2305, 26712.02
541.7126, 26652.31
542.1948, 26607.25
542.6769, 26582.54
543.1590, 26564.64
543.6411, 26528.51
544.1232, 26480.56
544.6053, 26444.69
545.0875, 26447.34
545.5696, 26459.37
546.0517, 26449.52
546.5338, 26417.31
547.0159, 26393.32
547.4980, 26398.82
547.9802, 26414.18
548.4623, 26423.86
548.9444, 26419.13
549.4265, 26419.42
549.9086, 26429.64
550.3907, 26445.45
550.8729, 26461.71
551.3550, 26486.07
551.8371, 26496.04
552.3192, 26481.51
552.8013, 26447.86
553.2834, 26428.29
553.7656, 26428.11
554.2477, 26420.47
554.7298, 26386.68
555.2119, 26329.21
555.6940, 26277.20
556.1761, 26231.23
556.6583, 26185.51
557.1404, 26144.65
557.6225, 26099.15
558.1046, 26023.05
558.5867, 25899.56
559.0688, 25770.29
559.5510, 25673.45
560.0331, 25599.14
560.5152, 25525.46
560.9973, 25455.66
561.4794, 25373.36
561.9615, 25265.30
562.4437, 25134.76
562.9258, 25007.86
563.4079, 24889.57
563.8900, 24775.75
564.3721, 24666.65
564.8542, 24565.13
565.3364, 24454.69
565.8185, 24332.93
566.3006, 24208.04
566.7827, 24088.85
567.2648, 23977.06
567.7469, 23867.68
568.2291, 23760.75
568.7112, 23655.22
569.1933, 23544.31
569.6754, 23429.51
570.1575, 23319.52
570.6396, 23215.92
571.1218, 23121.21
571.6039, 23042.96
572.0860, 22980.30
572.5681, 22920.70
573.0502, 22854.18
573.5323, 22788.66
574.0145, 22729.14
574.4966, 22676.55
574.9787, 22629.55
575.4608, 22592.74
575.9429, 22558.42
576.4250, 22519.54
576.9072, 22465.72
577.3893, 22418.11
577.8714, 22382.47
578.3535, 22353.02
578.8356, 22315.26
579.3177, 22259.33
579.7999, 22221.06
580.2820, 22218.06
580.7641, 22243.55
581.2462, 22250.07
581.7283, 22236.78
582.2104, 22216.06
582.6926, 22193.41
583.1747, 22170.60
583.6568, 22154.68
584.1389, 22147.03
584.6210, 22136.83
585.1031, 22107.72
585.5853, 22071.69
586.0674, 22047.93
586.5495, 22053.77
587.0316, 22052.54
587.5137, 22019.39
587.9958, 21966.85
588.4779, 21919.01
588.9600, 21884.62
589.4421, 21852.84
589.9243, 21828.45
590.4064, 21808.30
590.8885, 21759.51
591.3706, 21665.33
591.8527, 21569.16
592.3348, 21493.57
592.8170, 21440.88
593.2991, 21380.36
593.7812, 21311.18
594.2633, 21235.88
594.7454, 21154.22
595.2275, 21068.20
595.7097, 20989.25
596.1918, 20920.42
596.6739, 20855.73
597.1560, 20786.95
597.6381, 20717.31
598.1202, 20655.42
598.6024, 20607.61
599.0845, 20565.11
599.5666, 20520.21
600.0487, 20475.32
600.5308, 20440.72
601.0129, 20424.12
601.4951, 20414.03
601.9772, 20405.72
602.4593, 20398.34
602.9414, 20398.19
603.4235, 20404.53
603.9056, 20419.37
604.3878, 20444.64
604.8699, 20480.37
605.3520, 20524.71
605.8341, 20578.26
606.3162, 20639.83
606.7983, 20711.08
607.2805, 20790.36
607.7626, 20870.02
608.2447, 20944.21
608.7268, 21024.49
609.2089, 21131.61
609.6910, 21258.49
610.1732, 21389.19
610.6553, 21517.59
611.1374, 21643.95
611.6195, 21760.00
612.1016, 21868.43
612.5837, 21995.23
613.0659, 22162.57
613.5480, 22337.35
614.0301, 22503.53
614.5122, 22660.42
614.9943, 22806.76
615.4764, 22934.65
615.9586, 23060.02
616.4407, 23199.91
616.9228, 23354.30
617.4049, 23508.38
617.8870, 23662.73
618.3691, 23814.78
618.8513, 23960.29
619.3334, 24099.84
619.8155, 24240.61
620.2976, 24383.66
620.7797, 24526.61
621.2618, 24669.91
621.7440, 24810.45
622.2261, 24941.62
622.7082, 25051.35
623.1903, 25156.96
623.6724, 25271.61
624.1545, 25394.75
624.6367, 25507.91
625.1188, 25599.57
625.6009, 25687.60
626.0830, 25781.13
626.5651, 25882.86
627.0472, 25978.40
627.5294, 26066.18
628.0115, 26149.28
628.4936, 26232.73
628.9757, 26317.21
629.4578, 26383.37
629.9399, 26426.27
630.4221, 26457.18
630.9042, 26488.15
631.3863, 26520.11
631.8684, 26556.39
632.3505, 26609.50
632.8326, 26655.38
633.3148, 26669.91
633.7969, 26659.95
634.2790, 26645.66
634.7611, 26640.40
635.2432, 26627.84
635.7253, 26598.07
636.2075, 26550.62
636.6896, 26506.53
637.1717, 26472.76
637.6538, 26434.95
638.1359, 26385.20
638.6180, 26322.49
639.1002, 26258.86
639.5823, 26194.53
640.0644, 26128.24
640.5465, 26060.74
641.0286, 25990.62
641.5107, 25910.38
641.9929, 25818.49
642.4750, 25719.92
642.9571, 25618.53
643.4392, 25516.03
643.9213, 25414.29
644.4034, 25319.46
644.8856, 25219.93
645.3677, 25108.31
645.8498, 24987.50
646.3319, 24867.78
646.8140, 24756.51
647.2961, 24638.93
647.7783, 24509.72
648.2604, 24370.76
648.7425, 24230.70
649.2246, 24089.68
649.7067, 23950.12
650.1888, 23813.68
650.6710, 23680.80
651.1531, 23538.31
651.6352, 23387.47
652.1173, 23235.53
652.5994, 23090.08
653.0815, 22946.82
653.5637, 22793.75
654.0458, 22625.73
654.5279, 22462.50
655.0100, 22322.42
655.4921, 22192.93
655.9742, 22059.98
656.4564, 21919.88
656.9385, 21776.15
657.4206, 21625.85
657.9027, 21472.75
658.3848, 21325.98
658.8669, 21187.31
659.3491, 21050.77
659.8312, 20915.67
660.3133, 20780.88
660.7954, 20640.30
661.2775, 20494.16
661.7596, 20345.45
662.2418, 20190.20
662.7239, 20035.13
663.2060, 19904.22
663.6881, 19793.28
664.1702, 19676.72
664.6523, 19529.21
665.1345, 19375.01
665.6166, 19236.85
666.0987, 19117.62
666.5808, 18997.51
667.0629, 18866.77
667.5450, 18736.59
668.0272, 18616.06
668.5093, 18510.83
668.9914, 18399.72
669.4735, 18276.84
669.9556, 18155.08
670.4377, 18047.24
670.9199, 17954.97
671.4020, 17862.88
671.8841, 17769.24
672.3662, 17673.33
672.8483, 17572.63
673.3304, 17469.19
673.8126, 17371.18
674.2947, 17283.01
674.7768, 17198.53
675.2589, 17107.29
675.7410, 17013.97
676.2231, 16929.21
676.7053, 16870.41
677.1874, 16808.01
677.6695, 16727.77
678.1516, 16632.70
678.6337, 16545.90
679.1158, 16467.60
679.5980, 16396.40
680.0801, 16332.96
680.5622, 16277.09
681.0443, 16216.28
681.5264, 16150.44
682.0085, 16086.41
682.4907, 16028.28
682.9728, 15977.02
683.4549, 15936.10
683.9370, 15906.47
684.4191, 15877.92
684.9012, 15840.46
685.3834, 15802.05
685.8655, 15770.89
686.3476, 15749.62
686.8297, 15734.00
687.3118, 15724.24
687.7939, 15719.40
688.2761, 15718.51
688.7582, 15722.90
689.2403, 15727.35
689.7224, 15728.95
690.2045, 15733.06
690.6866, 15749.88
691.1688, 15779.08
691.6509, 15810.38
692.1330, 15839.69
692.6151, 15871.64
693.0972, 15916.09
693.5793, 15969.28
694.0615, 16019.18
694.5436, 16057.51
695.0257, 16094.58
695.5078, 16136.15
695.9899, 16181.96
696.4720, 16230.31
696.9542, 16276.63
697.4363, 16330.40
697.9183, 16393.14
698.4005, 16465.03
698.8826, 16547.95
699.3647, 16647.42
699.8468, 16741.74
700.3289, 16812.79
700.8110, 16865.14
701.2932, 16933.24
701.7753, 17016.54
702.2574, 17107.82
702.7395, 17208.21
703.2216, 17309.62
703.7037, 17400.24
704.1859, 17477.76
704.6680, 17553.08
705.1501, 17629.38
705.6322, 17707.37
706.1143, 17789.04
706.5964, 17876.71
707.0786, 17963.65
707.5607, 18052.29
708.0428, 18138.18
708.5249, 18213.99
709.0070, 18277.87
709.4891, 18349.77
709.9713, 18434.46
710.4534, 18524.36
710.9355, 18612.43
711.4176, 18696.94
711.8997, 18769.99
712.3818, 18825.32
712.8640, 18875.91
713.3461, 18933.67
713.8282, 18993.52
714.3103, 19045.45
714.7924, 19075.21
715.2745, 19108.04
715.7567, 19157.41
716.2388, 19215.21
716.7209, 19259.15
717.2030, 19288.04
717.6851, 19303.97
718.1672, 19302.94
718.6494, 19291.08
719.1315, 19295.01
719.6136, 19313.98
720.0957, 19327.49
720.5778, 19319.86
721.0599, 19301.13
721.5421, 19285.79
722.0242, 19272.70
722.5063, 19254.31
722.9884, 19226.88
723.4705, 19192.20
723.9526, 19150.79
724.4348, 19101.65
724.9169, 19049.75
725.3990, 18997.00
725.8811, 18939.50
726.3632, 18875.53
726.8453, 18805.38
727.3275, 18729.75
727.8096, 18648.07
728.2917, 18567.33
728.7738, 18497.53
729.2559, 18433.49
729.7380, 18359.98
730.2202, 18274.40
730.7023, 18190.54
731.1844, 18122.41
731.6665, 18058.30
732.1486, 17985.34
732.6307, 17899.07
733.1129, 17809.17
733.5950, 17708.17
734.0771, 17608.33
734.5592, 17521.49
735.0413, 17451.59
735.5234, 17381.82
736.0056, 17312.33
736.4877, 17238.45
736.9698, 17149.21
737.4519, 17047.51
737.9340, 16948.41
738.4161, 16856.81
738.8983, 16766.74
739.3804, 16673.68
739.8625, 16578.23
740.3446, 16479.63
740.8267, 16368.19
741.3088, 16264.84
741.7910, 16184.04
742.2731, 16114.55
742.7552, 16030.58
743.2373, 15927.00
743.7194, 15820.95
744.2015, 15715.26
744.6837, 15611.15
745.1658, 15515.28
745.6479, 15426.66
746.1300, 15334.37
746.6121, 15229.78
747.0942, 15121.43
747.5764, 15024.10
748.0585, 14934.48
748.5406, 14840.98
749.0227, 14731.56
749.5048, 14623.28
749.9869, 14527.36
750.4691, 14441.69
750.9512, 14350.89
751.4333, 14251.77
751.9154, 14152.97
752.3975, 14055.91
752.8796, 13961.30
753.3618, 13867.65
753.8439, 13775.56
754.3260, 13687.21
754.8081, 13611.21
755.2902, 13537.76
755.7723, 13446.24
756.2545, 13338.63
756.7366, 13236.91
757.2187, 13154.51
757.7008, 13079.94
758.1829, 13005.00
758.6650, 12929.21
759.1472, 12859.39
759.6293, 12801.94
760.1114, 12742.17
760.5935, 12670.26
761.0756, 12586.19
761.5577, 12518.18
762.0399, 12467.77
762.5220, 12423.21
763.0041, 12374.53
763.4862, 12325.02
763.9683, 12279.83
764.4504, 12238.93
764.9326, 12201.48
765.4147, 12166.53
765.8968, 12135.16
766.3789, 12109.25
766.8610, 12092.32
767.3431, 12068.91
767.8253, 12031.19
768.3074, 11995.44
768.7895, 11972.38
769.2716, 11962.53
769.7537, 11964.33
770.2358, 11980.03
770.7180, 11994.86
771.2001, 11990.15
771.6822, 11974.92
772.1643, 11967.69
772.6464, 11971.34
773.1285, 11977.68
773.6107, 11978.64
774.0928, 11981.22
774.5749, 11992.34
775.0570, 12017.74
775.5391, 12041.03
776.0212, 12062.82
776.5034, 12080.81
776.9855, 12091.31
777.4676, 12093.28
777.9497, 12099.87
778.4318, 12112.36
778.9139, 12127.93
779.3961, 12143.31
779.8782, 12159.58
780.3603, 12179.11
780.8424, 12203.09
781.3245, 12228.20
781.8066, 12255.02
782.2888, 12280.92
782.7709, 12303.49
783.2530, 12318.83
783.7351, 12336.50
784.2172, 12357.79
784.6993, 12380.18
785.1815, 12400.88
785.6636, 12420.06
786.1457, 12437.66
786.6278, 12453.70
787.1099, 12468.74
787.5920, 12479.88
788.0742, 12491.54
788.5563, 12514.78
789.0384, 12560.46
789.5205, 12596.29
790.0026, 12598.18
790.4847, 12585.26
790.9669, 12578.72
791.4490, 12578.07
791.9311, 12588.50
792.4132, 12614.72
792.8953, 12645.99
793.3774, 12667.38
793.8596, 12679.18
794.3417, 12697.04
794.8238, 12724.81
795.3059, 12753.26
795.7880, 12770.96
796.2701, 12782.87
796.7523, 12797.94
797.2344, 12822.37
797.7165, 12841.91
798.1986, 12846.38
798.6807, 12845.91
799.1628, 12853.74
799.6450, 12877.64
800.1271, 12891.60
800.6092, 12890.94
801.0913, 12885.61
801.5734, 12888.88
802.0555, 12899.84
802.5377, 12913.77
803.0198, 12930.80
803.5019, 12947.40
803.9840, 12961.14
804.4661, 12972.13
804.9482, 12980.31
805.4304, 12985.60
805.9125, 12988.54
806.3946, 12986.86
806.8767, 12984.22
807.3588, 12984.48
807.8409, 12988.45
808.3230, 12991.47
808.8051, 12992.60
809.2872, 12993.51
809.7693, 12997.07
810.2515, 13002.03
810.7336, 13006.21
811.2157, 13010.53
811.6978, 13007.82
812.1799, 12991.35
812.6620, 12965.49
813.1442, 12934.71
813.6263, 12894.93
814.1084, 12858.66
814.5905, 12828.78
815.0726, 12800.64
815.5547, 12769.62
816.0369, 12736.00
816.5190, 12701.89
817.0011, 12668.42
817.4832, 12630.48
817.9653, 12579.41
818.4474, 12520.49
818.9296, 12462.72
819.4117, 12406.58
819.8938, 12355.40
820.3759, 12320.98
820.8580, 12286.93
821.3401, 12236.21
821.8223, 12159.90
822.3044, 12086.36
822.7865, 12015.43
823.2686, 11946.00
823.7507, 11879.79
824.2328, 11815.61
824.7150, 11742.51
825.1971, 11659.33
825.6792, 11574.35
826.1613, 11499.39
826.6434, 11425.58
827.1255, 11341.52
827.6077, 11242.09
828.0898, 11147.21
828.5719, 11068.06
829.0540, 10989.63
829.5361, 10903.11
830.0182, 10805.36
830.5004, 10712.71
830.9825, 10626.58
831.4646, 10539.48
831.9467, 10445.80
832.4288, 10347.53
832.9109, 10252.22
833.3931, 10160.87
833.8752, 10068.09
834.3573, 9972.783
834.8394, 9874.408
835.3215, 9771.227
835.8036, 9661.389
836.2858, 9557.932
836.7679, 9463.255
837.2500, 9369.431
837.7321, 9270.910
838.2142, 9168.774
838.6964, 9069.018
839.1785, 8971.678
839.6606, 8877.625
840.1427, 8790.314
840.6248, 8703.688
841.1069, 8606.829
841.5891, 8500.696
842.0712, 8402.808
842.5533, 8325.303
843.0354, 8250.641
843.5175, 8171.060
843.9996, 8086.883
844.4818, 8004.292
844.9639, 7923.819
845.4460, 7841.219
845.9281, 7752.255
846.4102, 7660.220
846.8923, 7573.619
847.3745, 7491.550
847.8566, 7411.499
848.3387, 7333.667
848.8208, 7256.206
849.3029, 7177.983
849.7850, 7099.366
850.2672, 7021.432
850.7493, 6944.584
851.2314, 6869.259
851.7135, 6794.831
852.1956, 6722.444
852.6777, 6658.875
853.1599, 6602.475
853.6420, 6543.341
854.1241, 6474.497
854.6062, 6405.187
855.0883, 6346.507
855.5704, 6294.052
856.0526, 6239.364
856.5347, 6180.077
857.0168, 6117.739
857.4989, 6048.199
857.9810, 5977.737
858.4631, 5922.779
858.9453, 5884.126
859.4274, 5838.177
859.9095, 5778.497
860.3916, 5714.865
860.8737, 5658.058
861.3558, 5607.405
861.8380, 5561.903
862.3201, 5525.301
862.8022, 5485.843
863.2843, 5437.721
863.7664, 5385.430
864.2485, 5334.884
864.7307, 5286.021
865.2128, 5237.508
865.6949, 5187.940
866.1770, 5140.946
866.6591, 5101.419
867.1412, 5066.769
867.6234, 5027.233
868.1055, 4980.989
868.5876, 4936.780
869.0697, 4903.313
869.5518, 4872.334
870.0339, 4835.593
870.5161, 4790.007
870.9982, 4746.466
871.4803, 4703.907
871.9624, 4665.468
872.4445, 4636.961
872.9266, 4616.564
873.4088, 4584.838
873.8909, 4541.906
874.3730, 4496.983
874.8551, 4454.218
875.3372, 4414.551
875.8193, 4379.161
876.3015, 4348.029
876.7836, 4317.452
877.2657, 4288.587
877.7478, 4258.219
878.2299, 4225.116
878.7120, 4189.581
879.1942, 4154.513
879.6763, 4119.917
880.1584, 4086.688
880.6405, 4054.482
881.1226, 4025.093
881.6047, 4004.049
882.0869, 3988.069
882.5690, 3968.305
883.0511, 3937.577
883.5332, 3906.826
884.0153, 3878.240
884.4974, 3851.930
884.9796, 3829.430
885.4617, 3811.496
885.9438, 3791.617
886.4259, 3767.935
886.9080, 3742.729
887.3901, 3718.541
887.8723, 3695.427
888.3544, 3674.380
888.8365, 3657.347
889.3186, 3638.023
889.8007, 3610.425
890.2828, 3580.755
890.7650, 3555.687
891.2471, 3537.258
891.7292, 3517.588
892.2113, 3495.872
892.6934, 3475.095
893.1755, 3460.088
893.6577, 3448.458
894.1398, 3433.406
894.6219, 3414.333
895.1040, 3394.862
895.5861, 3376.821
896.0682, 3359.722
896.5504, 3342.949
897.0325, 3326.628
897.5146, 3310.165
897.9967, 3293.527
898.4788, 3276.665
898.9609, 3258.687
899.4431, 3240.426
899.9252, 3225.325
900.4073, 3213.092
900.8894, 3201.420
901.3715, 3190.578
901.8536, 3178.526
902.3358, 3163.269
902.8179, 3145.512
903.3000, 3128.435
903.7821, 3112.010
904.2642, 3097.514
904.7463, 3086.509
905.2285, 3076.461
905.7106, 3060.192
906.1927, 3039.006
906.6748, 3021.065
907.1569, 3009.386
907.6390, 3000.286
908.1212, 2992.959
908.6033, 2985.283
909.0854, 2974.543
909.5675, 2958.001
910.0496, 2941.456
910.5317, 2924.224
911.0139, 2908.219
911.4960, 2896.201
911.9781, 2887.738
912.4602, 2877.170
912.9423, 2863.978
913.4244, 2851.021
913.9066, 2841.255
914.3887, 2832.349
914.8708, 2822.000
915.3529, 2809.832
915.8350, 2797.574
916.3171, 2784.696
916.7993, 2772.863
917.2813, 2763.336
917.7634, 2755.530
918.2455, 2745.393
918.7277, 2733.081
919.2098, 2720.231
919.6919, 2707.820
920.1740, 2695.271
920.6561, 2680.250
921.1382, 2664.608
921.6204, 2653.281
922.1025, 2654.580
922.5846, 2651.351
923.0667, 2639.987
923.5488, 2623.751
924.0309, 2607.592
924.5131, 2591.568
924.9952, 2578.391
925.4773, 2568.959
925.9594, 2560.724
926.4415, 2551.071
926.9236, 2540.972
927.4058, 2531.397
927.8879, 2522.311
928.3700, 2514.644
928.8521, 2511.517
929.3342, 2506.132
929.8163, 2491.307
930.2985, 2467.360
930.7806, 2454.022
931.2627, 2451.466
931.7448, 2449.379
932.2269, 2439.706
932.7090, 2426.987
933.1912, 2414.278
933.6733, 2402.293
934.1554, 2393.154
934.6375, 2391.446
935.1196, 2387.312
935.6017, 2377.522
936.0839, 2363.854
936.5660, 2350.542
937.0481, 2337.785
937.5302, 2328.471
938.0123, 2325.032
938.4944, 2322.313
938.9766, 2315.995
939.4587, 2306.804
939.9408, 2295.876
940.4229, 2280.146
940.9050, 2267.353
941.3871, 2258.403
941.8693, 2251.726
942.3514, 2246.661
942.8335, 2242.920
943.3156, 2237.749
943.7977, 2230.969
944.2798, 2222.355
944.7620, 2210.258
945.2441, 2197.419
945.7262, 2186.088
946.2083, 2176.503
946.6904, 2168.937
947.1725, 2165.009
947.6547, 2160.034
948.1368, 2151.955
948.6189, 2141.568
949.1010, 2130.971
949.5831, 2120.293
950.0652, 2110.245
950.5474, 2100.136
951.0295, 2091.971
951.5116, 2090.019
951.9937, 2090.355
952.4758, 2085.211
952.9579, 2070.699
953.4401, 2057.379
953.9222, 2045.775
954.4043, 2036.171
954.8864, 2029.844
955.3685, 2025.849
955.8506, 2021.110
956.3328, 2015.213
956.8149, 2008.414
957.2970, 1998.902
957.7791, 1990.071
958.2612, 1985.679
958.7433, 1986.476
959.2255, 1982.188
959.7076, 1971.395
960.1897, 1959.741
960.6718, 1949.462
961.1539, 1940.512
961.6360, 1932.168
962.1182, 1924.775
962.6003, 1919.567
963.0824, 1921.595
963.5645, 1920.987
964.0466, 1910.538
964.5287, 1895.997
965.0109, 1887.522
965.4930, 1887.244
965.9751, 1882.771
966.4572, 1871.642
966.9393, 1859.643
967.4214, 1855.336
967.9036, 1854.630
968.3857, 1850.673
968.8678, 1842.041
969.3499, 1833.239
969.8320, 1824.389
970.3141, 1817.383
970.7963, 1813.917
971.2784, 1813.692
971.7605, 1809.944
972.2426, 1802.609
972.7247, 1794.485
973.2068, 1786.591
973.6890, 1779.189
974.1711, 1773.185
974.6532, 1768.012
975.1353, 1762.113
975.6174, 1752.990
976.0995, 1746.038
976.5817, 1742.576
977.0638, 1740.883
977.5459, 1739.631
978.0280, 1738.466
978.5101, 1732.617
978.9922, 1720.993
979.4744, 1710.019
979.9565, 1706.006
980.4386, 1704.797
980.9207, 1702.754
981.4028, 1699.337
981.8849, 1696.696
982.3671, 1696.294
982.8492, 1693.706
983.3313, 1686.184
983.8134, 1675.385
984.2955, 1665.332
984.7776, 1656.337
985.2598, 1649.661
985.7419, 1647.595
986.2240, 1646.124
986.7061, 1643.844
987.1882, 1640.709
987.6703, 1636.629
988.1525, 1631.217
988.6346, 1626.251
989.1167, 1621.876
989.5988, 1617.956
990.0809, 1614.757
990.5630, 1611.803
991.0452, 1608.291
991.5273, 1604.129
992.0094, 1599.485
992.4915, 1592.808
992.9736, 1587.452
993.4557, 1585.620
993.9379, 1586.337
994.4200, 1584.028
994.9021, 1578.704
995.3842, 1573.236
995.8663, 1568.638
996.3484, 1564.615
996.8306, 1561.347
997.3127, 1558.336
997.7948, 1554.724
998.2769, 1548.789
998.7590, 1544.842
999.2411, 1544.099
999.7233, 1543.554
1000.205, 1539.692
1000.688, 1533.284
1001.170, 1528.790
1001.652, 1526.323
1002.134, 1524.614
1002.616, 1523.881
1003.098, 1522.665
1003.580, 1519.945
1004.062, 1515.766
1004.544, 1511.264
1005.027, 1506.426
1005.509, 1500.801
1005.991, 1493.514
1006.473, 1486.846
1006.955, 1486.183
1007.437, 1488.368
1007.919, 1486.763
1008.401, 1477.857
1008.883, 1469.861
1009.366, 1466.012
1009.848, 1463.575
1010.330, 1461.273
1010.812, 1459.170
1011.294, 1454.560
1011.776, 1447.376
1012.258, 1441.428
1012.740, 1440.257
1013.223, 1440.529
1013.705, 1439.510
1014.187, 1437.359
1014.669, 1434.829
1015.151, 1432.035
1015.633, 1428.685
1016.115, 1424.453
1016.597, 1420.173
1017.079, 1417.169
1017.562, 1415.150
1018.044, 1413.604
1018.526, 1412.567
1019.008, 1410.656
1019.490, 1405.711
1019.972, 1400.814
1020.454, 1398.785
1020.936, 1399.376
1021.419, 1395.881
1021.901, 1387.701
1022.383, 1381.000
1022.865, 1379.182
1023.347, 1379.700
1023.829, 1380.726
1024.311, 1381.144
1024.793, 1378.793
1025.275, 1369.845
1025.758, 1362.631
1026.240, 1357.875
1026.722, 1354.913
1027.204, 1353.925
1027.686, 1354.415
1028.168, 1352.751
1028.650, 1348.829
1029.132, 1344.953
1029.615, 1342.193
1030.097, 1340.396
1030.579, 1340.188
1031.061, 1340.980
1031.543, 1339.971
1032.025, 1336.580
1032.507, 1333.763
1032.989, 1332.637
1033.471, 1331.427
1033.953, 1326.613
1034.436, 1320.277
1034.918, 1316.031
1035.400, 1315.363
1035.882, 1314.104
1036.364, 1311.085
1036.846, 1307.437
1037.328, 1303.543
1037.810, 1299.468
1038.293, 1296.283
1038.775, 1293.802
1039.257, 1290.523
1039.739, 1283.932
1040.221, 1277.944
1040.703, 1275.885
1041.185, 1276.023
1041.667, 1274.770
1042.150, 1271.013
1042.632, 1269.001
1043.114, 1269.426
1043.596, 1270.187
1044.078, 1269.576
1044.560, 1267.636
1045.042, 1264.008
1045.524, 1258.807
1046.006, 1253.709
1046.489, 1248.529
1046.971, 1244.427
1047.453, 1241.673
1047.935, 1240.240
1048.417, 1240.772
1048.899, 1242.906
1049.381, 1243.599
1049.863, 1241.801
1050.345, 1239.199
1050.828, 1236.616
1051.310, 1234.189
1051.792, 1232.228
1052.274, 1230.941
1052.756, 1228.874
1053.238, 1226.094
1053.720, 1222.212
1054.202, 1215.828
1054.685, 1209.019
1055.167, 1205.171
1055.649, 1203.808
1056.131, 1203.673
1056.613, 1207.138
1057.095, 1207.616
1057.577, 1202.705
1058.059, 1196.653
1058.542, 1195.355
1059.024, 1197.693
1059.506, 1195.401
1059.988, 1187.999
1060.470, 1181.396
1060.952, 1180.882
1061.434, 1181.235
1061.916, 1178.786
1062.398, 1174.314
1062.880, 1171.312
1063.363, 1169.942
1063.845, 1169.248
1064.327, 1169.393
1064.809, 1168.926
1065.291, 1165.426
1065.773, 1160.457
1066.255, 1155.910
1066.737, 1151.964
1067.220, 1149.626
1067.702, 1150.147
1068.184, 1149.902
1068.666, 1146.302
1069.148, 1140.888
1069.630, 1139.400
1070.112, 1140.776
1070.594, 1141.041
1071.077, 1137.870
1071.559, 1134.075
1072.041, 1130.032
1072.523, 1126.391
1073.005, 1123.916
1073.487, 1122.751
1073.969, 1121.401
1074.451, 1119.841
1074.933, 1117.638
1075.416, 1114.211
1075.898, 1110.213
1076.380, 1105.764
1076.862, 1101.191
1077.344, 1097.946
1077.826, 1096.455
1078.308, 1095.192
1078.790, 1093.942
1079.272, 1092.792
1079.755, 1092.229
1080.237, 1091.741
1080.719, 1090.389
1081.201, 1088.012
1081.683, 1085.184
1082.165, 1081.172
1082.647, 1077.828
1083.129, 1076.218
1083.611, 1075.492
1084.094, 1072.329
1084.576, 1067.265
1085.058, 1063.255
1085.540, 1061.824
1086.022, 1060.286
1086.504, 1055.902
1086.986, 1051.445
1087.468, 1050.091
1087.951, 1052.599
1088.433, 1050.230
1088.915, 1042.605
1089.397, 1035.729
1089.879, 1034.437
1090.361, 1034.909
1090.843, 1033.482
1091.325, 1030.739
1091.807, 1027.881
1092.290, 1024.434
1092.772, 1022.563
1093.254, 1023.154
1093.736, 1023.275
1094.218, 1018.815
1094.700, 1012.199
1095.182, 1008.744
1095.664, 1008.357
1096.146, 1007.656
1096.629, 1005.484
1097.111, 1002.403
1097.593, 998.0729
1098.075, 993.4916
1098.557, 990.7228
1099.039, 989.5016
1099.521, 988.2456
1100.003, 986.5731
1100.486, 985.8201
1100.968, 988.4593
1101.450, 990.8923
1101.932, 990.3983
1102.414, 987.4005
1102.896, 984.4890
1103.378, 981.6701
1103.860, 979.4987
1104.343, 978.5584
1104.825, 977.5507
1105.307, 975.5459
1105.789, 972.4917
1106.271, 967.9899
1106.753, 961.1099
1107.235, 955.8932
1107.717, 952.1984
1108.199, 950.6561
1108.682, 953.6434
1109.164, 957.4694
1109.646, 954.3215
1110.128, 946.7930
1110.610, 941.0951
1111.092, 940.9944
1111.574, 940.5116
1112.056, 938.9390
1112.538, 937.0796
1113.021, 935.8589
1113.503, 934.9780
1113.985, 933.1322
1114.467, 930.3949
1114.949, 927.6167
1115.431, 925.0303
1115.913, 922.7850
1116.395, 921.0705
1116.878, 919.6473
1117.360, 918.4386
1117.842, 917.3721
1118.324, 914.6619
1118.806, 910.0086
1119.288, 905.2881
1119.770, 901.2806
1120.252, 898.2894
1120.734, 896.7382
1121.217, 896.4379
1121.699, 896.9870
1122.181, 898.6255
1122.663, 898.7474
1123.145, 896.4912
1123.627, 893.1172
1124.109, 889.1323
1124.591, 885.3361
1125.073, 882.8040
1125.556, 881.9385
1126.038, 880.5770
1126.520, 878.5265
1127.002, 876.5915
1127.484, 875.3711
1127.966, 874.0885
1128.448, 870.6953
1128.930, 866.4360
1129.413, 863.6440
1129.895, 863.4715
1130.377, 863.8314
1130.859, 865.2944
1131.341, 865.6973
1131.823, 862.9213
1132.305, 858.1823
1132.787, 855.8820
1133.270, 855.2723
1133.752, 853.6945
1134.234, 848.4020
1134.716, 844.1021
1135.198, 842.2518
1135.680, 841.4858
1136.162, 841.0477
1136.644, 840.7565
1137.126, 838.4479
1137.609, 834.2987
1138.091, 830.7509
1138.573, 829.6871
1139.055, 829.0807
1139.537, 828.3610
1140.019, 827.2653
1140.501, 825.3927
1140.983, 822.7427
1141.465, 818.9691
1141.948, 813.9755
1142.430, 809.7118
1142.912, 808.0458
1143.394, 807.4794
1143.876, 807.8141
1144.358, 808.3460
1144.840, 806.1608
1145.322, 800.6953
1145.805, 796.6312
1146.287, 794.9844
1146.769, 794.4376
1147.251, 793.8129
1147.733, 793.4628
1148.215, 794.5370
1148.697, 797.0873
1149.179, 795.8219
1149.661, 789.3856
1150.144, 783.9807
1150.626, 781.6286
1151.108, 780.9794
1151.590, 781.1240
1152.072, 781.2673
1152.554, 780.3200
1153.036, 778.0326
1153.518, 774.2460
1154.000, 767.6012
1154.483, 763.0696
1154.965, 763.8268
1155.447, 767.0833
1155.929, 767.8482
1156.411, 766.4900
1156.893, 763.4424
1157.375, 757.1169
1157.857, 753.5432
1158.340, 755.1311
1158.822, 756.2630
1159.304, 752.6191
1159.786, 746.0459
1160.268, 741.9148
1160.750, 739.8536
1161.232, 738.6700
1161.714, 738.7424
1162.197, 738.4056
1162.679, 737.3889
1163.161, 735.7930
1163.643, 733.2307
1164.125, 730.0699
1164.607, 728.8446
1165.089, 729.2637
1165.571, 729.3522
1166.053, 728.9542
1166.536, 726.8797
1167.018, 721.2861
1167.500, 715.1136
1167.982, 711.7766
1168.464, 711.0048
1168.946, 710.2413
1169.428, 709.3328
1169.910, 708.1329
1170.392, 706.5562
1170.875, 704.6757
1171.357, 702.3476
1171.839, 699.8546
1172.321, 697.2992
1172.803, 694.7543
1173.285, 694.3232
1173.767, 696.3019
1174.249, 698.0140
1174.732, 698.7137
1175.214, 697.3732
1175.696, 691.2578
1176.178, 682.9704
1176.660, 679.3472
1177.142, 680.5062
1177.624, 681.9827
1178.106, 683.1476
1178.589, 683.1702
1179.071, 679.7112
1179.553, 676.2031
1180.035, 676.4493
1180.517, 679.2968
1180.999, 678.0654
1181.481, 672.3718
1181.963, 667.8105
1182.445, 665.7657
1182.927, 664.7690
1183.410, 664.0929
1183.892, 663.2761
1184.374, 661.8153
1184.856, 659.7227
1185.338, 657.5214
1185.820, 655.1696
1186.302, 653.2769
1186.784, 652.3753
1187.267, 651.0682
1187.749, 646.7343
1188.231, 641.8600
1188.713, 639.6895
1189.195, 640.6646
1189.677, 640.4003
1190.159, 638.7147
1190.641, 637.1583
1191.124, 636.4576
1191.606, 635.9485
1192.088, 634.6309
1192.570, 633.1437
1193.052, 632.5592
1193.534, 633.4547
1194.016, 632.3380
1194.498, 628.8368
1194.980, 625.6437
1195.463, 624.3006
1195.945, 623.7563
1196.427, 623.6061
1196.909, 623.0293
1197.391, 620.2425
1197.873, 613.2083
1198.355, 611.2617
1198.837, 615.4717
1199.319, 618.8781
1199.802, 616.2720
1200.284, 611.5340
1200.766, 608.6591
1201.248, 607.2657
1201.730, 606.8214
1202.212, 607.9534
1202.694, 608.0768
1203.176, 607.0850
1203.658, 605.5746
1204.141, 603.6616
1204.623, 601.7145
1205.105, 600.3143
1205.587, 599.2133
1206.069, 597.8987
1206.551, 596.4249
1207.033, 594.2110
1207.515, 590.9931
1207.998, 588.2888
1208.480, 588.0485
1208.962, 588.4564
1209.444, 587.2638
1209.926, 584.9099
1210.408, 582.6310
1210.890, 580.3434
1211.372, 578.7194
1211.854, 577.7760
1212.337, 577.4988
1212.819, 578.8861
1213.301, 580.1450
1213.783, 578.6339
1214.265, 575.1973
1214.747, 572.9347
1215.229, 572.8516
1215.711, 571.1722
1216.193, 567.2780
1216.676, 563.6983
1217.158, 563.6075
1217.640, 564.4993
1218.122, 563.2634
1218.604, 560.5551
1219.086, 559.4237
1219.568, 560.8702
1220.050, 560.5035
1220.533, 557.5854
1221.015, 554.3969
1221.497, 552.8909
1221.979, 552.4209
1222.461, 552.8244
1222.943, 553.7352
1223.425, 553.7850
1223.907, 552.7734
1224.390, 551.5890
1224.872, 550.3312
1225.354, 548.9500
1225.836, 547.1335
1226.318, 545.3672
1226.800, 544.5152
1227.282, 544.1869
1227.764, 542.2675
1228.246, 538.2792
1228.729, 535.5629
1229.211, 534.7003
1229.693, 534.7555
1230.175, 535.9086
1230.657, 536.7289
1231.139, 535.9438
1231.621, 533.6424
1232.103, 530.2555
1232.585, 525.4593
1233.068, 523.5915
1233.550, 525.7122
1234.032, 527.6039
1234.514, 524.3642
1234.996, 520.3874
1235.478, 519.9208
1235.960, 521.7376
1236.442, 520.7366
1236.925, 516.7957
1237.407, 514.7842
1237.889, 515.7695
1238.371, 516.3725
1238.853, 512.9230
1239.335, 508.9511
1239.817, 506.9672
1240.299, 506.4929
1240.781, 506.3950
1241.264, 506.6491
1241.746, 506.9480
1242.228, 507.2951
1242.710, 507.0497
1243.192, 505.0003
1243.674, 503.0368
1244.156, 502.3415
1244.638, 502.4831
1245.120, 502.3897
1245.603, 502.0639
1246.085, 501.7144
1246.567, 501.4821
1247.049, 499.9986
1247.531, 494.0896
1248.013, 489.5529
1248.495, 489.5279
1248.977, 492.0407
1249.460, 492.2580
1249.942, 490.6525
1250.424, 489.1756
1250.906, 488.1922
1251.388, 486.9749
1251.870, 485.3032
1252.352, 483.1012
1252.834, 480.0775
1253.317, 476.8519
1253.799, 474.5180
1254.281, 473.1671
1254.763, 473.2936
1255.245, 475.0627
1255.727, 476.5234
1256.209, 477.7086
1256.691, 477.3088
1257.173, 474.4146
1257.656, 470.6098
1258.138, 469.0230
1258.620, 468.5284
1259.102, 466.3999
1259.584, 462.0571
1260.066, 461.3043
1260.548, 467.4547
1261.030, 470.7598
1261.512, 467.8179
1261.995, 462.7456
1262.477, 461.4524
1262.959, 461.8210
1263.441, 460.6510
1263.923, 457.5647
1264.405, 456.0456
1264.887, 456.7340
1265.369, 457.0974
1265.852, 456.3976
1266.334, 455.4552
1266.816, 455.6817
1267.298, 455.8804
1267.780, 454.2849
1268.262, 451.0048
1268.744, 449.5473
1269.226, 450.0841
1269.708, 451.0598
1270.191, 452.3510
1270.673, 452.7870
1271.155, 450.6089
1271.637, 447.6982
1272.119, 445.3932
1272.601, 443.7748
1273.083, 443.1077
1273.565, 443.3543
1274.047, 443.1711
1274.530, 442.2585
1275.012, 441.1227
1275.494, 439.7237
1275.976, 438.6597
1276.458, 438.5980
1276.940, 438.8426
1277.422, 437.0881
1277.904, 433.9164
1278.387, 432.4140
1278.869, 433.1980
1279.351, 434.0629
1279.833, 434.4457
1280.315, 433.8875
1280.797, 431.9401
1281.279, 429.4344
1281.761, 427.6838
1282.244, 426.6547
1282.726, 426.4206
1283.208, 426.9855
1283.690, 427.3586
1284.172, 427.6974
1284.654, 426.9095
1285.136, 424.3449
1285.618, 421.5482
1286.100, 420.9063
1286.583, 421.3244
1287.065, 421.1262
1287.547, 420.2006
1288.029, 419.4044
1288.511, 419.0921
1288.993, 417.9227
1289.475, 415.4989
1289.957, 412.8201
1290.439, 410.6880
1290.922, 409.1031
1291.404, 408.1212
1291.886, 407.7421
1292.368, 407.7769
1292.850, 408.2231
1293.332, 409.5616
1293.814, 412.0130
1294.296, 413.0648
1294.779, 408.5720
1295.261, 404.0876
1295.743, 404.6509
1296.225, 407.3061
1296.707, 406.1343
1297.189, 401.6735
1297.671, 399.6047
1298.153, 400.3801
1298.635, 401.3744
1299.118, 401.5953
1299.600, 401.0157
1300.082, 399.2984
1300.564, 397.3217
1301.046, 396.4560
1301.528, 396.3804
1302.010, 396.1093
1302.492, 395.5818
1302.974, 394.9045
1303.457, 393.8480
1303.939, 393.0703
1304.421, 392.7182
1304.903, 392.7901
1305.385, 393.4720
1305.867, 394.6291
##END=



