##NAMES=Afghanite
##RRUFFID=R060422
##IDEAL CHEMISTRY=Na_22_Ca_10_(Si_24_Al_24_)O_96_(S^6+^O_4_)_6_Cl_6_
##LOCALITY=Kokscha Valley, Badakshan Province, Afghanistan
##OWNER=RRUFF
##SOURCE=Herb Obodda
##DESCRIPTION=Blue hexagonal prism with pyramidal termination
##STATUS=The identification of this mineral has been confirmed by X-ray diffraction and chemical analysis
##URL=rruff.info/R060422
##MEASURED CHEMISTRY=(Na_19.94_K_2.06_)_Î£=22_Ca_10.00_[Si_24.00_Al_24.00_O_96_](S_1.00_O_4_)_6_Cl_6.00_
175.4057, 394.7236
175.8878, 395.3260
176.3699, 395.5695
176.8520, 395.9962
177.3341, 396.5294
177.8163, 397.0113
178.2984, 397.4024
178.7805, 397.6805
179.2626, 397.9437
179.7447, 398.2274
180.2268, 398.0664
180.7090, 396.5451
181.1911, 394.0928
181.6732, 392.0529
182.1553, 391.2247
182.6374, 391.2054
183.1195, 391.1919
183.6017, 391.1524
184.0838, 391.1802
184.5659, 391.3990
185.0480, 391.7845
185.5301, 392.2343
186.0123, 392.5714
186.4944, 392.9146
186.9765, 393.8230
187.4586, 395.4873
187.9407, 397.0895
188.4228, 397.2016
188.9050, 395.9682
189.3871, 394.9339
189.8692, 395.1731
190.3513, 396.3795
190.8334, 396.9381
191.3155, 396.6429
191.7977, 396.0292
192.2798, 396.1505
192.7619, 397.0092
193.2440, 397.4329
193.7261, 396.4904
194.2082, 394.3433
194.6904, 392.8065
195.1725, 392.0331
195.6546, 391.7794
196.1367, 391.7421
196.6188, 391.9445
197.1009, 392.0632
197.5831, 391.9829
198.0652, 391.7023
198.5473, 391.0130
199.0294, 389.7596
199.5115, 388.2866
199.9937, 387.3640
200.4758, 387.0795
200.9579, 386.8172
201.4400, 386.2321
201.9221, 385.2992
202.4042, 384.3408
202.8864, 383.3420
203.3685, 382.3529
203.8506, 381.4738
204.3327, 380.6989
204.8148, 380.0757
205.2969, 379.8177
205.7791, 380.0725
206.2612, 379.6047
206.7433, 378.2650
207.2254, 376.2293
207.7075, 373.7509
208.1896, 370.5472
208.6718, 367.7052
209.1539, 365.8905
209.6360, 365.3265
210.1181, 364.7505
210.6002, 364.1143
211.0823, 363.4241
211.5645, 362.7224
212.0466, 362.0787
212.5287, 361.2727
213.0108, 360.1936
213.4929, 358.8248
213.9750, 357.1936
214.4572, 355.0573
214.9393, 352.7630
215.4214, 351.3783
215.9035, 351.2681
216.3856, 351.3102
216.8678, 350.9183
217.3499, 349.9971
217.8320, 348.8720
218.3141, 347.3504
218.7962, 345.6866
219.2783, 344.7760
219.7605, 344.9181
220.2426, 345.2596
220.7247, 345.4880
221.2068, 345.8980
221.6889, 345.2431
222.1710, 342.9215
222.6532, 339.6324
223.1353, 337.7007
223.6174, 337.6455
224.0995, 338.0562
224.5816, 338.2556
225.0637, 338.1790
225.5459, 338.0683
226.0280, 337.9112
226.5101, 337.7327
226.9922, 337.6406
227.4743, 337.7773
227.9564, 337.7773
228.4386, 337.4184
228.9207, 336.4906
229.4028, 335.7045
229.8849, 334.9938
230.3670, 334.4415
230.8492, 334.3153
231.3313, 334.8718
231.8134, 335.4648
232.2955, 335.7897
232.7776, 335.6738
233.2597, 335.7219
233.7419, 336.1479
234.2240, 336.6922
234.7061, 336.5586
235.1882, 335.1353
235.6703, 333.9797
236.1524, 333.7790
236.6346, 334.8947
237.1167, 336.1961
237.5988, 337.8715
238.0809, 339.6695
238.5630, 341.0070
239.0451, 341.6785
239.5273, 342.1753
240.0094, 342.7297
240.4915, 343.5343
240.9736, 343.8150
241.4557, 343.1817
241.9378, 342.1877
242.4200, 342.0010
242.9021, 342.8910
243.3842, 344.1624
243.8663, 345.6297
244.3484, 347.4506
244.8306, 349.0111
245.3127, 350.3551
245.7948, 351.4055
246.2769, 351.8893
246.7590, 351.2163
247.2411, 350.9761
247.7233, 351.8036
248.2054, 354.0154
248.6875, 356.1784
249.1696, 358.4642
249.6517, 360.5744
250.1338, 361.9533
250.6160, 362.2794
251.0981, 362.4577
251.5802, 362.7383
252.0623, 363.1281
252.5444, 363.5699
253.0265, 363.9305
253.5087, 364.4530
253.9908, 365.5203
254.4729, 367.3904
254.9550, 369.3117
255.4371, 371.1951
255.9192, 373.0976
256.4014, 374.3245
256.8835, 374.5771
257.3656, 374.4495
257.8477, 374.6440
258.3298, 375.1920
258.8120, 376.0304
259.2941, 377.4262
259.7762, 379.4865
260.2583, 380.1379
260.7404, 378.7692
261.2225, 376.7464
261.7047, 375.5128
262.1868, 375.3323
262.6689, 375.2216
263.1510, 374.9254
263.6331, 374.4550
264.1152, 374.3747
264.5974, 375.0111
265.0795, 375.5294
265.5616, 375.0484
266.0437, 373.2784
266.5258, 371.4228
267.0079, 369.5348
267.4901, 367.6861
267.9722, 366.7744
268.4543, 367.1747
268.9364, 367.7638
269.4185, 367.5901
269.9006, 366.4870
270.3828, 365.3463
270.8649, 364.2016
271.3470, 363.1220
271.8291, 362.4834
272.3112, 362.4107
272.7933, 362.4091
273.2755, 362.1046
273.7576, 361.4473
274.2397, 360.7772
274.7218, 360.1244
275.2039, 359.4831
275.6860, 358.8878
276.1682, 358.3789
276.6503, 357.7438
277.1324, 356.7259
277.6145, 355.2848
278.0966, 354.2067
278.5787, 353.5934
279.0609, 353.3495
279.5430, 353.3141
280.0251, 353.5256
280.5072, 353.7776
280.9893, 354.1770
281.4715, 354.7212
281.9536, 354.1353
282.4357, 351.8450
282.9178, 349.4150
283.3999, 350.4066
283.8820, 355.0772
284.3642, 358.4174
284.8463, 357.0319
285.3284, 351.4453
285.8105, 348.1496
286.2926, 347.4878
286.7747, 348.0306
287.2569, 347.9118
287.7390, 347.1544
288.2211, 346.4953
288.7032, 346.3901
289.1853, 346.6503
289.6674, 346.4313
290.1496, 345.7107
290.6317, 344.6898
291.1138, 343.3470
291.5959, 341.7784
292.0780, 340.6906
292.5602, 340.5311
293.0423, 340.9252
293.5244, 340.9117
294.0065, 340.4812
294.4886, 339.9196
294.9707, 339.5156
295.4529, 339.2003
295.9350, 338.6776
296.4171, 337.6156
296.8992, 336.5397
297.3813, 336.4857
297.8634, 337.3915
298.3456, 338.5877
298.8277, 340.0241
299.3098, 341.3499
299.7919, 341.6276
300.2740, 340.2935
300.7561, 338.4936
301.2383, 337.4185
301.7204, 337.0809
302.2025, 337.6332
302.6846, 340.3930
303.1667, 343.7525
303.6488, 344.9864
304.1310, 343.1053
304.6131, 340.8336
305.0952, 341.4262
305.5773, 343.8920
306.0594, 345.5461
306.5415, 344.0580
307.0237, 341.5008
307.5058, 340.1266
307.9879, 340.2744
308.4700, 340.7666
308.9521, 340.6993
309.4343, 340.3594
309.9164, 340.2500
310.3985, 340.8602
310.8806, 341.5960
311.3627, 342.0221
311.8448, 342.1206
312.3270, 342.0521
312.8091, 341.7104
313.2912, 341.3212
313.7733, 341.1517
314.2554, 341.6425
314.7375, 342.0790
315.2197, 341.5811
315.7018, 340.3676
316.1839, 340.3095
316.6660, 343.3066
317.1481, 347.2778
317.6302, 350.5005
318.1124, 352.4117
318.5945, 353.7358
319.0766, 354.8810
319.5587, 355.6776
320.0408, 355.5714
320.5229, 353.4050
321.0051, 350.9767
321.4872, 349.2109
321.9693, 348.1267
322.4514, 347.9807
322.9335, 349.2882
323.4156, 351.5352
323.8978, 353.7307
324.3799, 355.7353
324.8620, 357.6358
325.3441, 359.5438
325.8262, 361.6178
326.3083, 363.1622
326.7905, 363.7874
327.2726, 363.9669
327.7547, 364.2766
328.2368, 364.6036
328.7189, 365.2052
329.2010, 366.2654
329.6832, 367.8427
330.1653, 369.1452
330.6474, 370.4362
331.1295, 371.2625
331.6116, 371.1300
332.0938, 368.5347
332.5759, 367.4502
333.0580, 369.2111
333.5401, 373.2511
334.0222, 375.0985
334.5043, 373.6445
334.9865, 371.5511
335.4686, 370.3788
335.9507, 370.4281
336.4328, 370.6035
336.9149, 370.9234
337.3970, 371.2982
337.8792, 371.4737
338.3613, 371.4127
338.8434, 371.2711
339.3255, 371.1166
339.8076, 370.9554
340.2898, 370.7130
340.7719, 370.3118
341.2540, 369.9702
341.7361, 370.1782
342.2182, 371.0326
342.7003, 371.4913
343.1825, 370.9936
343.6646, 369.7281
344.1467, 369.0418
344.6288, 369.0044
345.1109, 369.1564
345.5930, 368.8999
346.0752, 368.3097
346.5573, 368.1900
347.0394, 368.9760
347.5215, 370.1324
348.0036, 370.3921
348.4857, 369.7676
348.9679, 369.0009
349.4500, 368.5787
349.9321, 368.4377
350.4142, 368.4406
350.8963, 368.6329
351.3784, 368.7906
351.8606, 368.3520
352.3427, 367.5437
352.8248, 367.1989
353.3069, 368.4642
353.7890, 370.2166
354.2711, 370.6424
354.7533, 369.4372
355.2354, 368.4349
355.7175, 369.7338
356.1996, 372.2614
356.6817, 374.1460
357.1638, 374.2219
357.6460, 373.6304
358.1281, 373.1757
358.6102, 372.8554
359.0923, 372.4393
359.5744, 371.4497
360.0565, 370.4591
360.5387, 370.0454
361.0208, 370.7561
361.5029, 371.5893
361.9850, 372.1701
362.4671, 372.5343
362.9492, 372.7782
363.4314, 372.8823
363.9135, 372.9157
364.3956, 372.8792
364.8777, 372.6582
365.3598, 372.6520
365.8419, 373.2323
366.3241, 374.0168
366.8062, 374.4264
367.2883, 374.0352
367.7704, 373.5939
368.2526, 373.2792
368.7347, 373.1023
369.2168, 373.0119
369.6989, 373.1274
370.1810, 373.2507
370.6631, 373.1883
371.1453, 372.4410
371.6274, 372.2747
372.1095, 373.1323
372.5916, 374.7995
373.0737, 375.7832
373.5558, 375.7328
374.0380, 375.5304
374.5201, 375.7086
375.0022, 376.4703
375.4843, 376.8867
375.9664, 376.7557
376.4485, 376.4155
376.9307, 376.5620
377.4128, 377.2754
377.8949, 378.1337
378.3770, 379.0511
378.8591, 380.0080
379.3412, 380.5721
379.8234, 380.6121
380.3055, 380.7034
380.7876, 381.7296
381.2697, 383.6251
381.7518, 385.0430
382.2339, 385.5967
382.7161, 385.4820
383.1982, 384.8181
383.6803, 383.6442
384.1624, 382.9149
384.6445, 383.8095
385.1266, 385.6871
385.6088, 386.8543
386.0909, 386.8867
386.5730, 386.6994
387.0551, 387.3033
387.5372, 388.5421
388.0193, 389.9866
388.5015, 391.9565
388.9836, 393.7134
389.4657, 394.2528
389.9478, 393.4883
390.4299, 392.6093
390.9120, 392.1133
391.3942, 392.0676
391.8763, 392.5790
392.3584, 394.7370
392.8405, 396.4510
393.3226, 396.3056
393.8047, 394.6673
394.2869, 393.2102
394.7690, 391.8156
395.2511, 391.3307
395.7332, 392.5321
396.2154, 396.7660
396.6975, 400.1077
397.1796, 401.3404
397.6617, 401.2527
398.1438, 401.2009
398.6259, 401.2647
399.1081, 401.4814
399.5902, 401.8106
400.0723, 402.2087
400.5544, 403.0173
401.0365, 404.7597
401.5186, 406.5177
402.0008, 407.4618
402.4829, 406.9567
402.9650, 406.8382
403.4471, 407.3485
403.9292, 408.3954
404.4113, 409.6657
404.8935, 411.3678
405.3756, 412.8344
405.8577, 413.6301
406.3398, 413.6399
406.8219, 413.7541
407.3040, 413.8968
407.7862, 414.3237
408.2683, 415.6525
408.7504, 417.9262
409.2325, 419.8211
409.7146, 420.5448
410.1967, 420.6304
410.6789, 422.0455
411.1610, 424.8315
411.6431, 427.9887
412.1252, 431.1522
412.6073, 434.0257
413.0894, 435.4425
413.5716, 434.6036
414.0537, 433.4426
414.5358, 434.4290
415.0179, 437.1017
415.5000, 440.0005
415.9821, 442.6592
416.4643, 444.9184
416.9464, 446.3131
417.4285, 446.7220
417.9106, 447.4735
418.3927, 449.6191
418.8748, 452.5244
419.3570, 455.3990
419.8391, 458.1611
420.3212, 460.6888
420.8033, 462.7674
421.2854, 464.5197
421.7675, 466.5523
422.2497, 469.2629
422.7318, 472.1572
423.2139, 474.9774
423.6960, 477.7238
424.1781, 480.3419
424.6602, 482.8867
425.1424, 485.2820
425.6245, 487.3640
426.1066, 488.5539
426.5887, 490.1606
427.0709, 492.8286
427.5530, 496.5538
428.0351, 498.7032
428.5172, 498.2917
428.9993, 497.6732
429.4814, 498.7292
429.9636, 502.0752
430.4457, 504.6014
430.9278, 505.7138
431.4099, 506.2042
431.8920, 507.8328
432.3741, 510.7152
432.8563, 513.9482
433.3384, 517.0804
433.8205, 520.2033
434.3026, 523.8937
434.7847, 528.2105
435.2668, 532.7465
435.7490, 537.2292
436.2311, 541.6355
436.7132, 545.6870
437.1953, 549.1699
437.6774, 552.4797
438.1595, 556.2265
438.6417, 560.3323
439.1238, 564.4733
439.6059, 568.3970
440.0880, 572.2900
440.5701, 576.3856
441.0522, 580.7586
441.5344, 585.1246
442.0165, 589.3035
442.4986, 593.3799
442.9807, 597.4350
443.4628, 601.2662
443.9449, 605.3044
444.4271, 609.9641
444.9092, 615.0844
445.3913, 619.7968
445.8734, 623.1152
446.3555, 626.4493
446.8376, 630.4611
447.3198, 635.2840
447.8019, 640.6756
448.2840, 647.6703
448.7661, 654.7401
449.2482, 659.6267
449.7303, 660.9803
450.2125, 662.3944
450.6946, 664.8522
451.1767, 668.2288
451.6588, 670.5820
452.1409, 671.9986
452.6230, 672.2538
453.1052, 670.8279
453.5873, 667.5508
454.0694, 664.8967
454.5515, 663.4078
455.0337, 661.8962
455.5158, 657.8431
455.9979, 651.4237
456.4800, 645.8157
456.9621, 643.0319
457.4442, 641.7560
457.9264, 638.8345
458.4085, 634.3264
458.8906, 629.2682
459.3727, 624.3467
459.8548, 619.5055
460.3369, 614.7698
460.8191, 610.1265
461.3012, 605.5136
461.7833, 600.9147
462.2654, 596.3015
462.7475, 591.6305
463.2296, 586.6719
463.7118, 581.7607
464.1939, 577.2384
464.6760, 573.0892
465.1581, 568.5242
465.6402, 562.7652
466.1223, 556.8410
466.6045, 551.5482
467.0866, 547.6050
467.5687, 543.5374
468.0508, 538.9026
468.5329, 534.0932
469.0150, 529.9968
469.4972, 527.4017
469.9793, 524.3683
470.4614, 519.9387
470.9435, 513.9594
471.4256, 509.9455
471.9077, 508.5345
472.3899, 507.8331
472.8720, 506.0870
473.3541, 503.1558
473.8362, 500.7137
474.3183, 499.1413
474.8004, 497.9028
475.2826, 495.8183
475.7647, 492.9507
476.2468, 490.2159
476.7289, 488.0508
477.2110, 486.3402
477.6931, 484.8693
478.1753, 483.6248
478.6574, 482.6540
479.1395, 482.4518
479.6216, 482.4199
480.1037, 481.5833
480.5858, 479.2679
481.0680, 476.8875
481.5501, 475.4590
482.0322, 474.6770
482.5143, 473.9176
482.9964, 472.8291
483.4786, 471.8109
483.9607, 471.1291
484.4428, 470.8399
484.9249, 470.3971
485.4070, 469.4810
485.8892, 468.5205
486.3713, 467.8215
486.8534, 467.5139
487.3355, 467.2633
487.8176, 466.7813
488.2997, 466.4434
488.7819, 467.2223
489.2640, 469.8235
489.7461, 471.9210
490.2282, 472.5766
490.7103, 471.8980
491.1924, 471.7354
491.6746, 472.1555
492.1567, 472.7886
492.6388, 473.4672
493.1209, 474.1474
493.6030, 474.3710
494.0851, 474.0291
494.5673, 473.3524
495.0494, 472.2634
495.5315, 471.0168
496.0136, 470.5718
496.4957, 472.0687
496.9778, 474.1835
497.4600, 475.4969
497.9421, 476.0507
498.4242, 476.4092
498.9063, 476.5861
499.3884, 476.9080
499.8705, 477.7616
500.3527, 479.5356
500.8348, 481.0445
501.3169, 481.5370
501.7990, 481.5802
502.2811, 481.9781
502.7632, 483.2275
503.2454, 484.4625
503.7275, 485.5780
504.2096, 486.5612
504.6917, 487.2643
505.1738, 487.4189
505.6559, 487.6569
506.1381, 488.2608
506.6202, 489.2019
507.1023, 490.6539
507.5844, 492.6253
508.0665, 495.0947
508.5486, 498.3430
509.0308, 502.4171
509.5129, 505.5707
509.9950, 506.9219
510.4771, 507.5192
510.9592, 509.7586
511.4413, 513.5005
511.9235, 517.5363
512.4056, 521.0378
512.8877, 524.3544
513.3698, 528.1150
513.8519, 532.3817
514.3340, 536.7534
514.8162, 540.9898
515.2983, 545.1435
515.7804, 549.2614
516.2625, 553.0676
516.7446, 557.2415
517.2267, 562.1622
517.7089, 567.6462
518.1910, 573.1879
518.6731, 577.9558
519.1552, 583.4874
519.6373, 590.5451
520.1194, 599.3303
520.6016, 607.7312
521.0837, 615.1348
521.5658, 622.7175
522.0479, 631.3262
522.5300, 640.9978
523.0121, 651.1715
523.4943, 661.6401
523.9764, 672.8076
524.4585, 685.6277
524.9406, 699.9050
525.4227, 714.8777
525.9048, 730.3659
526.3870, 746.2432
526.8691, 762.5143
527.3513, 779.2653
527.8334, 796.5632
528.3155, 814.4870
528.7976, 833.2045
529.2797, 852.8793
529.7618, 873.5610
530.2440, 895.7175
530.7261, 919.6610
531.2082, 945.1682
531.6903, 971.4968
532.1724, 999.3030
532.6545, 1027.243
533.1367, 1055.654
533.6188, 1084.130
534.1009, 1112.307
534.5830, 1138.977
535.0651, 1166.215
535.5472, 1194.882
536.0294, 1225.765
536.5115, 1254.303
536.9936, 1280.585
537.4757, 1304.422
537.9578, 1325.611
538.4399, 1344.343
538.9221, 1360.518
539.4042, 1374.613
539.8863, 1385.623
540.3684, 1391.660
540.8505, 1392.864
541.3326, 1390.968
541.8148, 1387.801
542.2969, 1381.341
542.7790, 1367.153
543.2611, 1345.720
543.7432, 1320.626
544.2253, 1294.186
544.7075, 1265.383
545.1896, 1232.771
545.6717, 1195.756
546.1538, 1157.246
546.6359, 1117.702
547.1180, 1077.720
547.6002, 1038.447
548.0823, 998.9003
548.5644, 961.4445
549.0465, 926.2698
549.5286, 893.2834
550.0107, 862.2703
550.4929, 832.9431
550.9750, 805.9918
551.4571, 781.5414
551.9392, 759.5054
552.4213, 740.6589
552.9034, 725.2613
553.3856, 711.8673
553.8677, 699.6132
554.3498, 688.4562
554.8319, 677.7874
555.3140, 667.4413
555.7961, 657.9302
556.2783, 650.3942
556.7604, 644.3478
557.2425, 638.4863
557.7246, 631.9036
558.2067, 625.7314
558.6888, 621.1945
559.1710, 618.0555
559.6531, 615.5741
560.1352, 613.8820
560.6173, 612.3850
561.0994, 610.7597
561.5815, 608.9489
562.0637, 607.1990
562.5458, 605.4335
563.0279, 603.8312
563.5100, 602.4952
563.9921, 601.4922
564.4742, 600.6086
564.9564, 599.7728
565.4385, 599.0918
565.9206, 598.6890
566.4027, 598.4981
566.8848, 598.9517
567.3669, 600.4081
567.8491, 602.4673
568.3312, 603.7408
568.8133, 604.2505
569.2954, 604.7176
569.7775, 605.6539
570.2596, 606.8468
570.7418, 607.7911
571.2239, 608.4534
571.7060, 609.3615
572.1881, 611.1344
572.6702, 613.2737
573.1523, 615.1884
573.6345, 616.2973
574.1166, 617.9278
574.5987, 621.4750
575.0808, 625.6630
575.5629, 628.4250
576.0450, 628.5943
576.5272, 628.1230
577.0093, 627.0852
577.4914, 625.6193
577.9735, 624.6788
578.4556, 624.5981
578.9377, 624.3768
579.4199, 623.3293
579.9020, 621.4475
580.3841, 620.5501
580.8662, 620.8680
581.3483, 620.9974
581.8304, 619.2748
582.3126, 616.1638
582.7947, 613.2421
583.2768, 610.7988
583.7589, 608.6215
584.2410, 606.2930
584.7231, 604.0726
585.2053, 602.4760
585.6874, 602.9916
586.1696, 602.9897
586.6517, 600.3371
587.1338, 595.7081
587.6159, 592.1688
588.0980, 591.8986
588.5801, 591.6290
589.0623, 589.7112
589.5444, 585.7495
590.0265, 582.7682
590.5086, 581.2424
590.9907, 580.0995
591.4728, 578.5418
591.9550, 576.5493
592.4371, 574.3417
592.9192, 571.8278
593.4013, 569.4506
593.8834, 568.0905
594.3655, 567.5817
594.8477, 566.7913
595.3298, 565.1639
595.8119, 563.3516
596.2940, 562.1962
596.7761, 561.6073
597.2582, 561.2421
597.7404, 561.0258
598.2225, 560.8759
598.7046, 560.7587
599.1867, 560.6622
599.6688, 560.4938
600.1509, 560.3594
600.6331, 560.0273
601.1152, 559.2311
601.5973, 557.3087
602.0794, 556.5110
602.5615, 557.3911
603.0436, 558.8734
603.5258, 559.6714
604.0079, 559.5925
604.4900, 559.8740
604.9721, 560.7171
605.4542, 562.0226
605.9363, 563.6583
606.4185, 565.6022
606.9006, 567.7655
607.3827, 570.5046
607.8648, 573.1600
608.3469, 574.5333
608.8290, 574.8056
609.3112, 574.9115
609.7933, 574.8962
610.2754, 575.2850
610.7575, 576.6544
611.2396, 579.1701
611.7217, 581.5821
612.2039, 583.8090
612.6860, 585.5901
613.1681, 586.7395
613.6502, 587.2191
614.1323, 587.0225
614.6144, 585.5460
615.0966, 583.9139
615.5787, 583.9642
616.0608, 586.0209
616.5429, 587.7227
617.0250, 588.5057
617.5071, 588.6443
617.9893, 588.5978
618.4714, 588.3989
618.9535, 588.2625
619.4356, 588.7406
619.9177, 589.1130
620.3998, 587.9254
620.8820, 585.4190
621.3641, 583.7847
621.8462, 584.8702
622.3283, 586.8503
622.8104, 588.6806
623.2925, 590.5606
623.7747, 590.9452
624.2568, 587.5908
624.7389, 583.8527
625.2210, 582.5743
625.7031, 585.4391
626.1852, 587.0104
626.6674, 586.7018
627.1495, 585.3073
627.6316, 583.6705
628.1137, 581.7252
628.5958, 581.3651
629.0779, 583.8743
629.5601, 587.4420
630.0422, 588.2923
630.5243, 586.8852
631.0064, 585.4095
631.4885, 584.9946
631.9706, 585.1418
632.4528, 585.7592
632.9349, 586.7273
633.4170, 586.9568
633.8991, 584.5159
634.3812, 582.2955
634.8633, 582.3273
635.3455, 585.9335
635.8276, 588.1625
636.3097, 587.9940
636.7918, 587.2330
637.2739, 587.5681
637.7560, 589.5446
638.2382, 590.1426
638.7203, 588.5945
639.2024, 586.5734
639.6845, 587.0635
640.1666, 589.7001
640.6487, 591.4241
641.1309, 590.7783
641.6130, 589.5385
642.0951, 590.5074
642.5772, 592.9532
643.0594, 594.7870
643.5415, 594.7068
644.0236, 593.9686
644.5057, 593.0338
644.9879, 591.9969
645.4700, 591.4306
645.9521, 592.6877
646.4342, 593.3240
646.9163, 592.1214
647.3984, 588.7278
647.8806, 585.9197
648.3627, 583.8388
648.8448, 582.0701
649.3269, 580.1653
649.8090, 578.1360
650.2911, 576.7484
650.7733, 576.1035
651.2554, 575.8351
651.7375, 575.6049
652.2196, 575.3965
652.7017, 575.1357
653.1838, 574.6893
653.6660, 574.3887
654.1481, 574.4523
654.6302, 574.8320
655.1123, 575.4539
655.5944, 577.0263
656.0765, 578.0323
656.5587, 577.4303
657.0408, 575.6969
657.5229, 575.1664
658.0050, 576.6166
658.4871, 577.9518
658.9692, 578.4939
659.4514, 578.2747
659.9335, 577.3849
660.4156, 575.6791
660.8977, 574.5074
661.3798, 575.3535
661.8619, 577.4469
662.3441, 578.7228
662.8262, 579.0546
663.3083, 579.0573
663.7904, 579.4097
664.2725, 579.6166
664.7546, 578.9874
665.2368, 576.9348
665.7189, 575.3056
666.2010, 575.0535
666.6831, 575.3958
667.1652, 575.4316
667.6473, 574.7911
668.1295, 574.4335
668.6116, 574.6264
669.0937, 574.9949
669.5758, 574.6705
670.0579, 573.5461
670.5400, 572.7646
671.0222, 572.7452
671.5043, 573.1695
671.9864, 573.4196
672.4685, 573.5168
672.9506, 573.5970
673.4327, 574.0908
673.9149, 574.3250
674.3970, 573.1340
674.8791, 570.8115
675.3612, 569.5663
675.8433, 571.5746
676.3254, 573.7776
676.8076, 574.3793
677.2897, 572.9184
677.7718, 572.3342
678.2539, 573.1339
678.7360, 574.1364
679.2181, 574.5579
679.7003, 574.3499
680.1824, 574.0970
680.6645, 573.7850
681.1466, 573.5873
681.6287, 573.6923
682.1108, 574.0599
682.5930, 574.6901
683.0751, 575.7473
683.5572, 576.4741
684.0393, 575.7483
684.5214, 574.4189
685.0035, 573.7021
685.4857, 574.3417
685.9678, 575.2034
686.4499, 576.2785
686.9320, 577.3375
687.4141, 577.8397
687.8962, 577.1575
688.3784, 577.1730
688.8605, 578.6656
689.3426, 581.0052
689.8247, 581.8988
690.3068, 581.3124
690.7889, 580.5058
691.2711, 579.8840
691.7532, 579.5547
692.2353, 580.0170
692.7174, 581.1192
693.1995, 581.9240
693.6816, 581.4534
694.1638, 580.7686
694.6459, 580.7150
695.1280, 581.3858
695.6101, 582.0289
696.0922, 582.7115
696.5743, 583.1032
697.0565, 582.9110
697.5386, 581.8163
698.0207, 581.5926
698.5028, 582.5306
698.9849, 583.7386
699.4670, 584.3492
699.9492, 584.4259
700.4313, 584.6353
700.9135, 585.0571
701.3956, 585.5444
701.8777, 586.0297
702.3598, 586.4346
702.8419, 586.5817
703.3240, 586.1995
703.8062, 585.9725
704.2883, 586.3527
704.7704, 587.0687
705.2525, 587.7237
705.7346, 587.9097
706.2167, 588.5128
706.6989, 589.9130
707.1810, 591.6584
707.6631, 592.7029
708.1452, 592.9415
708.6273, 593.0645
709.1094, 593.2764
709.5916, 593.5205
710.0737, 593.7206
710.5558, 593.8525
711.0379, 593.7813
711.5200, 593.0604
712.0021, 592.3809
712.4843, 592.4181
712.9664, 593.0654
713.4485, 593.7465
713.9306, 594.2205
714.4127, 594.6833
714.8948, 595.2988
715.3770, 596.0798
715.8591, 596.4599
716.3412, 596.2854
716.8233, 596.0145
717.3054, 595.9020
717.7875, 595.9431
718.2697, 595.9750
718.7518, 596.0012
719.2339, 596.0386
719.7160, 596.2474
720.1981, 596.4317
720.6802, 596.0992
721.1624, 595.1213
721.6445, 594.5130
722.1266, 594.9930
722.6087, 596.0424
723.0908, 597.2868
723.5729, 599.0302
724.0551, 600.1514
724.5372, 600.3133
725.0193, 600.1111
725.5014, 600.1395
725.9835, 600.4514
726.4656, 600.6296
726.9478, 600.5578
727.4299, 600.5433
727.9120, 601.1246
728.3941, 602.1357
728.8762, 603.0629
729.3583, 603.8294
729.8405, 604.3210
730.3226, 603.9600
730.8047, 603.3621
731.2868, 603.5538
731.7689, 605.8621
732.2510, 607.8002
732.7332, 608.8121
733.2153, 609.0920
733.6974, 608.8658
734.1795, 607.8055
734.6616, 607.1355
735.1437, 607.1381
735.6259, 607.7448
736.1080, 609.1853
736.5901, 611.3049
737.0722, 612.7242
737.5543, 611.9326
738.0364, 610.7401
738.5186, 611.6027
739.0007, 613.9578
739.4828, 615.8273
739.9649, 616.1711
740.4470, 616.0190
740.9291, 615.5325
741.4113, 614.8077
741.8934, 614.8178
742.3755, 616.1584
742.8576, 617.1436
743.3397, 616.7824
743.8218, 615.3710
744.3040, 615.7322
744.7861, 617.9211
745.2682, 619.6871
745.7503, 618.6909
746.2324, 616.6198
746.7145, 616.2387
747.1967, 617.5678
747.6788, 619.3519
748.1609, 621.7200
748.6430, 623.6692
749.1251, 624.2482
749.6072, 622.9031
750.0894, 622.8025
750.5715, 624.7865
751.0536, 627.0529
751.5357, 628.4550
752.0178, 628.9362
752.4999, 629.2405
752.9821, 629.2698
753.4642, 629.7976
753.9463, 632.0790
754.4284, 635.2594
754.9105, 637.6337
755.3926, 638.9772
755.8748, 639.7646
756.3569, 639.3588
756.8390, 639.0971
757.3211, 640.3787
757.8032, 644.7340
758.2853, 647.5757
758.7675, 647.6566
759.2496, 647.1563
759.7318, 648.1816
760.2139, 650.9899
760.6960, 653.3151
761.1781, 654.9453
761.6602, 656.1653
762.1423, 656.9189
762.6245, 657.5715
763.1066, 659.2090
763.5887, 662.4388
764.0708, 665.4045
764.5529, 665.9856
765.0350, 665.8848
765.5172, 667.1194
765.9993, 672.6248
766.4814, 675.9899
766.9635, 675.4671
767.4456, 673.7429
767.9277, 674.7576
768.4099, 679.1948
768.8920, 681.7549
769.3741, 681.4151
769.8562, 679.3588
770.3383, 676.6692
770.8204, 673.6745
771.3026, 671.2965
771.7847, 670.0173
772.2668, 669.0762
772.7489, 668.3246
773.2310, 667.4883
773.7131, 666.1479
774.1953, 662.9836
774.6774, 660.9777
775.1595, 660.9025
775.6416, 661.8736
776.1237, 662.2558
776.6058, 661.9578
777.0880, 661.7950
777.5701, 662.0158
778.0522, 662.3502
778.5343, 662.2045
779.0164, 661.7753
779.4985, 661.6855
779.9807, 662.8820
780.4628, 663.6204
780.9449, 661.6508
781.4270, 658.5762
781.9091, 657.7003
782.3912, 662.4678
782.8734, 665.9687
783.3555, 666.9579
783.8376, 666.2485
784.3197, 665.5948
784.8018, 664.9456
785.2839, 665.0654
785.7661, 666.5223
786.2482, 668.3903
786.7303, 669.0133
787.2124, 668.7377
787.6945, 668.5645
788.1766, 669.0250
788.6588, 669.6363
789.1409, 669.8769
789.6230, 670.0674
790.1051, 671.2060
790.5872, 674.4323
791.0693, 676.9230
791.5515, 677.9211
792.0336, 677.9207
792.5157, 678.3643
792.9978, 679.2585
793.4799, 679.7894
793.9620, 679.3138
794.4442, 678.7256
794.9263, 679.7526
795.4084, 681.7854
795.8905, 683.1388
796.3726, 682.3665
796.8547, 681.4692
797.3369, 680.7336
797.8190, 680.5162
798.3011, 682.0104
798.7832, 686.8217
799.2653, 690.0500
799.7474, 690.0392
800.2296, 688.0087
800.7117, 687.3333
801.1938, 687.9111
801.6759, 688.6506
802.1580, 689.0889
802.6401, 689.4738
803.1223, 690.2621
803.6044, 691.2376
804.0865, 691.8146
804.5686, 691.4715
805.0507, 691.0676
805.5328, 690.6541
806.0150, 690.4136
806.4971, 690.9299
806.9792, 692.5099
807.4613, 693.8594
807.9434, 694.5303
808.4255, 694.8533
808.9077, 695.7879
809.3898, 697.1260
809.8719, 697.9336
810.3540, 697.3134
810.8361, 696.4991
811.3182, 696.4774
811.8004, 696.9973
812.2825, 697.4701
812.7646, 697.5339
813.2467, 697.8033
813.7288, 698.4620
814.2109, 699.3749
814.6931, 700.3311
815.1752, 701.4226
815.6573, 701.7625
816.1394, 700.8112
816.6215, 699.4703
817.1037, 699.3572
817.5858, 700.0883
818.0679, 700.6369
818.5500, 699.9271
819.0322, 699.6307
819.5143, 700.9451
819.9964, 703.1794
820.4785, 704.9349
820.9606, 706.2963
821.4427, 706.7448
821.9249, 705.8099
822.4070, 704.3056
822.8891, 704.0247
823.3712, 704.8566
823.8533, 705.6385
824.3354, 706.1797
824.8176, 706.2734
825.2997, 705.4425
825.7818, 704.0613
826.2639, 702.7824
826.7460, 701.1658
827.2281, 700.4791
827.7103, 701.6536
828.1924, 703.6162
828.6745, 704.9944
829.1566, 705.6353
829.6387, 706.2485
830.1208, 706.9442
830.6030, 707.5853
831.0851, 707.8704
831.5672, 707.9100
832.0493, 708.0566
832.5314, 708.4913
833.0135, 708.7946
833.4957, 708.5986
833.9778, 708.1417
834.4599, 707.6993
834.9420, 706.8486
835.4241, 706.8715
835.9063, 708.4725
836.3884, 710.1234
836.8705, 709.3760
837.3526, 706.3528
837.8347, 705.7982
838.3168, 708.6873
838.7990, 711.9083
839.2811, 711.7836
839.7632, 710.1328
840.2453, 709.5154
840.7274, 710.7184
841.2095, 711.9535
841.6917, 712.6378
842.1738, 713.0820
842.6559, 713.5664
843.1380, 714.1959
843.6201, 714.3787
844.1022, 713.9683
844.5844, 713.6158
845.0665, 714.1257
845.5486, 715.1654
846.0307, 715.8329
846.5128, 716.0536
846.9949, 716.0098
847.4771, 715.5876
847.9592, 715.1281
848.4413, 714.8486
848.9234, 714.7549
849.4055, 715.0746
849.8876, 716.2159
850.3698, 717.0807
850.8519, 716.5508
851.3340, 714.8572
851.8161, 715.7906
852.2982, 719.3196
852.7803, 721.9802
853.2625, 719.6594
853.7446, 716.1866
854.2267, 716.1321
854.7088, 719.3505
855.1909, 721.6822
855.6730, 721.1419
856.1552, 720.0574
856.6373, 718.9845
857.1194, 718.0638
857.6015, 718.7172
858.0836, 721.2502
858.5657, 723.1199
859.0479, 722.5723
859.5300, 721.0002
860.0121, 721.2327
860.4942, 722.8294
860.9763, 724.2488
861.4584, 724.8622
861.9406, 724.9510
862.4227, 723.9186
862.9048, 722.4191
863.3869, 722.7656
863.8690, 726.0977
864.3511, 728.3361
864.8333, 728.1622
865.3154, 726.8478
865.7975, 727.1688
866.2796, 728.7846
866.7617, 730.2002
867.2438, 730.7138
867.7260, 731.1703
868.2081, 732.5814
868.6902, 734.2460
869.1723, 735.1032
869.6544, 733.9014
870.1365, 733.3389
870.6187, 733.7027
871.1008, 734.5927
871.5829, 735.6053
872.0650, 736.7252
872.5471, 737.5507
873.0292, 738.0190
873.5114, 738.2264
873.9935, 738.1721
874.4756, 737.9659
874.9577, 737.6799
875.4399, 737.1803
875.9220, 737.0908
876.4041, 737.7891
876.8862, 738.7724
877.3683, 739.8242
877.8505, 741.0176
878.3326, 741.5552
878.8147, 741.3047
879.2968, 741.2921
879.7789, 743.2193
880.2610, 745.6208
880.7432, 745.6144
881.2253, 743.1376
881.7074, 741.3683
882.1895, 742.6594
882.6716, 744.2940
883.1537, 744.6144
883.6359, 743.7092
884.1180, 743.7109
884.6001, 744.8291
885.0822, 745.9965
885.5643, 746.6813
886.0464, 747.0816
886.5286, 747.8559
887.0107, 748.8259
887.4928, 749.2479
887.9749, 748.1682
888.4570, 746.9950
888.9391, 746.1477
889.4213, 745.7800
889.9034, 746.3568
890.3855, 748.4916
890.8676, 750.1038
891.3497, 750.8046
891.8318, 750.7279
892.3140, 749.7727
892.7961, 748.2122
893.2782, 747.0999
893.7603, 746.7224
894.2424, 746.9649
894.7245, 748.1674
895.2067, 749.7579
895.6888, 751.0408
896.1709, 751.2729
896.6530, 752.3597
897.1351, 754.9685
897.6172, 757.3724
898.0994, 757.1634
898.5815, 754.8398
899.0636, 754.3177
899.5457, 756.0593
900.0278, 757.8812
900.5099, 757.6526
900.9921, 756.9095
901.4742, 757.2573
901.9563, 759.0935
902.4384, 760.1180
902.9205, 758.9720
903.4026, 758.5903
903.8848, 760.8093
904.3669, 765.1684
904.8490, 768.1044
905.3311, 769.6061
905.8132, 769.9482
906.2953, 768.3267
906.7775, 766.3729
907.2596, 765.8752
907.7417, 766.4576
908.2238, 766.7255
908.7059, 765.6348
909.1880, 765.0648
909.6702, 765.7373
910.1523, 766.9567
910.6344, 766.7084
911.1165, 765.0466
911.5986, 764.6199
912.0807, 766.6744
912.5629, 768.9369
913.0450, 768.1522
913.5271, 766.0933
914.0092, 765.4662
914.4913, 768.0934
914.9734, 770.2711
915.4556, 771.6273
915.9377, 772.1574
916.4198, 771.2912
916.9019, 768.8287
917.3840, 768.9949
917.8661, 772.2750
918.3483, 775.6627
918.8304, 776.4435
919.3125, 775.7869
919.7946, 774.6661
920.2767, 773.1871
920.7589, 772.8620
921.2410, 775.8212
921.7231, 778.2562
922.2052, 778.3292
922.6873, 776.4249
923.1694, 775.9355
923.6516, 776.8826
924.1337, 778.4782
924.6158, 780.8440
925.0979, 783.1857
925.5800, 784.5155
926.0621, 784.9555
926.5443, 784.8326
927.0264, 783.2317
927.5085, 782.4023
927.9906, 783.1624
928.4727, 784.6429
928.9548, 785.3615
929.4370, 785.2891
929.9191, 785.3263
930.4012, 785.5620
930.8833, 786.2493
931.3654, 788.2169
931.8475, 790.5750
932.3297, 792.1375
932.8118, 792.5580
933.2939, 792.4994
933.7761, 791.5381
934.2582, 790.6901
934.7403, 790.5281
935.2224, 791.0519
935.7045, 792.0709
936.1866, 793.6120
936.6688, 795.0216
937.1509, 796.2902
937.6330, 796.8851
938.1151, 795.4632
938.5972, 792.5670
939.0793, 790.9863
939.5615, 792.8573
940.0436, 794.6132
940.5257, 795.2814
941.0078, 795.3056
941.4899, 795.8788
941.9720, 796.9774
942.4542, 797.8458
942.9363, 798.1651
943.4184, 798.4383
943.9005, 799.2908
944.3826, 800.3963
944.8647, 801.3201
945.3469, 801.8196
945.8290, 802.3639
946.3111, 803.1801
946.7932, 803.7985
947.2753, 803.6885
947.7574, 802.8937
948.2396, 802.1063
948.7217, 801.3446
949.2038, 801.6696
949.6859, 805.1423
950.1680, 809.1667
950.6501, 811.4656
951.1323, 811.9678
951.6144, 811.9387
952.0965, 810.6563
952.5786, 810.4811
953.0607, 812.5784
953.5428, 815.9738
954.0250, 817.6605
954.5071, 817.8834
954.9892, 818.0845
955.4713, 818.7044
955.9534, 819.6511
956.4355, 821.1530
956.9177, 822.8192
957.3998, 824.0781
957.8819, 824.3641
958.3640, 825.2234
958.8461, 826.8319
959.3282, 828.7517
959.8104, 830.5955
960.2925, 832.3484
960.7746, 833.8583
961.2567, 835.1223
961.7388, 836.3135
962.2209, 836.9899
962.7031, 838.1209
963.1852, 840.5104
963.6673, 844.1145
964.1494, 847.8900
964.6315, 852.0110
965.1136, 855.5002
965.5958, 857.7336
966.0779, 859.3783
966.5600, 861.4742
967.0421, 864.1533
967.5242, 867.7516
968.0063, 873.2961
968.4885, 878.5942
968.9706, 882.6449
969.4527, 886.1446
969.9348, 889.8144
970.4169, 893.3945
970.8990, 898.4778
971.3812, 905.2232
971.8633, 912.9683
972.3454, 921.2032
972.8275, 929.8135
973.3096, 939.0026
973.7917, 948.7147
974.2739, 957.8216
974.7560, 964.0446
975.2381, 971.6458
975.7202, 982.4837
976.2023, 996.0292
976.6844, 1009.838
977.1666, 1024.026
977.6487, 1039.000
978.1308, 1054.974
978.6129, 1071.432
979.0950, 1088.324
979.5771, 1105.310
980.0593, 1121.927
980.5414, 1138.206
981.0235, 1153.691
981.5056, 1167.897
981.9877, 1182.249
982.4698, 1199.026
982.9520, 1217.648
983.4341, 1234.154
983.9162, 1248.306
984.3983, 1262.529
984.8804, 1277.991
985.3625, 1294.702
985.8447, 1311.880
986.3268, 1329.892
986.8089, 1352.175
987.2910, 1380.774
987.7731, 1407.857
988.2552, 1430.700
988.7374, 1450.954
989.2195, 1473.551
989.7016, 1496.042
990.1837, 1511.939
990.6658, 1519.527
991.1479, 1519.305
991.6301, 1509.833
992.1122, 1493.295
992.5944, 1471.406
993.0765, 1443.551
993.5586, 1415.066
994.0407, 1385.682
994.5228, 1358.168
995.0049, 1335.563
995.4871, 1315.748
995.9692, 1295.343
996.4513, 1274.472
996.9334, 1255.630
997.4155, 1241.254
997.8976, 1227.009
998.3798, 1211.392
998.8619, 1195.646
999.3440, 1182.852
999.8261, 1172.651
1000.308, 1162.254
1000.790, 1151.153
1001.272, 1138.947
1001.755, 1123.267
1002.237, 1107.272
1002.719, 1094.839
1003.201, 1087.822
1003.683, 1079.571
1004.165, 1069.678
1004.647, 1059.395
1005.129, 1048.768
1005.612, 1038.395
1006.094, 1030.291
1006.576, 1024.009
1007.058, 1017.049
1007.540, 1007.256
1008.022, 997.6406
1008.504, 989.0038
1008.986, 981.4043
1009.468, 974.9002
1009.951, 969.5648
1010.433, 965.0019
1010.915, 961.1240
1011.397, 957.8742
1011.879, 955.7208
1012.361, 953.8844
1012.843, 951.1729
1013.325, 947.2338
1013.807, 944.0809
1014.290, 941.9109
1014.772, 940.8046
1015.254, 941.3974
1015.736, 942.9474
1016.218, 941.8880
1016.700, 938.7135
1017.182, 936.2704
1017.664, 935.9892
1018.147, 936.6296
1018.629, 938.0351
1019.111, 939.6187
1019.593, 940.4834
1020.075, 940.4125
1020.557, 940.2152
1021.039, 939.8914
1021.521, 939.5818
1022.003, 939.3074
1022.486, 939.1875
1022.968, 939.7315
1023.450, 940.8453
1023.932, 941.2598
1024.414, 939.8602
1024.896, 938.3573
1025.378, 937.1035
1025.860, 936.2408
1026.343, 936.3839
1026.825, 937.4495
1027.307, 938.3524
1027.789, 938.7968
1028.271, 938.9905
1028.753, 939.4493
1029.235, 939.5750
1029.717, 938.4567
1030.199, 935.2146
1030.682, 933.6797
1031.164, 934.4622
1031.646, 935.2062
1032.128, 934.0410
1032.610, 931.9072
1033.092, 931.1287
1033.574, 931.5332
1034.056, 932.5153
1034.539, 934.8771
1035.021, 936.4427
1035.503, 936.0846
1035.985, 934.8532
1036.467, 934.1038
1036.949, 933.8568
1037.431, 933.2015
1037.913, 931.9547
1038.396, 931.1974
1038.878, 932.3223
1039.360, 934.0824
1039.842, 935.1617
1040.324, 935.4664
1040.806, 936.7777
1041.288, 940.0471
1041.770, 942.2114
1042.252, 941.8823
1042.734, 940.4962
1043.217, 941.0994
1043.699, 943.0811
1044.181, 944.8563
1044.663, 945.9919
1045.145, 946.7967
1045.627, 946.7080
1046.109, 946.9336
1046.591, 948.5817
1047.074, 951.7411
1047.556, 953.9057
1048.038, 955.0914
1048.520, 956.0853
1049.002, 957.3914
1049.484, 958.7381
1049.966, 959.2472
1050.448, 959.6257
1050.931, 962.0715
1051.413, 968.1985
1051.895, 973.0766
1052.377, 976.0067
1052.859, 977.9676
1053.341, 980.1019
1053.823, 982.2660
1054.305, 983.9374
1054.787, 985.0549
1055.270, 986.8181
1055.752, 990.5203
1056.234, 994.1658
1056.716, 996.7551
1057.198, 998.6326
1057.680, 1001.029
1058.162, 1003.933
1058.644, 1007.346
1059.126, 1011.601
1059.609, 1015.517
1060.091, 1017.468
1060.573, 1018.734
1061.055, 1020.669
1061.537, 1023.330
1062.019, 1027.088
1062.501, 1032.239
1062.983, 1037.468
1063.466, 1041.845
1063.948, 1045.718
1064.430, 1049.996
1064.912, 1054.383
1065.394, 1057.973
1065.876, 1059.578
1066.358, 1061.402
1066.840, 1063.540
1067.323, 1066.358
1067.805, 1070.777
1068.287, 1076.481
1068.769, 1080.668
1069.251, 1083.132
1069.733, 1085.913
1070.215, 1091.194
1070.697, 1096.518
1071.179, 1099.625
1071.661, 1101.208
1072.144, 1104.534
1072.626, 1109.963
1073.108, 1114.352
1073.590, 1116.621
1074.072, 1118.304
1074.554, 1121.513
1075.036, 1125.194
1075.518, 1127.787
1076.001, 1128.628
1076.483, 1130.475
1076.965, 1134.461
1077.447, 1137.527
1077.929, 1137.497
1078.411, 1135.750
1078.893, 1136.301
1079.375, 1138.607
1079.858, 1140.917
1080.340, 1142.458
1080.822, 1143.950
1081.304, 1146.043
1081.786, 1147.833
1082.268, 1148.416
1082.750, 1147.765
1083.232, 1146.319
1083.714, 1144.099
1084.197, 1142.843
1084.679, 1145.755
1085.161, 1148.315
1085.643, 1146.104
1086.125, 1140.730
1086.607, 1137.778
1087.089, 1138.155
1087.571, 1138.461
1088.054, 1138.391
1088.536, 1137.453
1089.018, 1134.047
1089.500, 1129.893
1089.982, 1128.065
1090.464, 1128.915
1090.946, 1128.013
1091.428, 1123.484
1091.911, 1118.630
1092.393, 1114.050
1092.875, 1110.197
1093.357, 1108.889
1093.839, 1109.260
1094.321, 1108.525
1094.803, 1105.708
1095.285, 1102.386
1095.767, 1098.865
1096.250, 1095.535
1096.732, 1092.587
1097.214, 1090.057
1097.696, 1088.262
1098.178, 1087.171
1098.660, 1086.169
1099.142, 1085.175
1099.624, 1083.857
1100.106, 1081.568
1100.589, 1078.946
1101.071, 1076.963
1101.553, 1075.646
1102.035, 1075.060
1102.517, 1075.339
1102.999, 1075.564
1103.481, 1074.650
1103.963, 1073.430
1104.446, 1073.359
1104.928, 1074.056
1105.410, 1073.783
1105.892, 1071.181
1106.374, 1069.247
1106.856, 1068.497
1107.338, 1068.264
1107.820, 1067.476
1108.302, 1066.521
1108.785, 1066.545
1109.267, 1067.672
1109.749, 1068.394
1110.231, 1067.480
1110.713, 1066.767
1111.195, 1067.170
1111.677, 1068.101
1112.159, 1067.799
1112.641, 1066.460
1113.124, 1065.249
1113.606, 1064.476
1114.088, 1063.811
1114.570, 1062.629
1115.052, 1061.828
1115.534, 1062.458
1116.016, 1064.397
1116.498, 1064.948
1116.981, 1064.075
1117.463, 1062.908
1117.945, 1061.793
1118.427, 1060.826
1118.909, 1060.329
1119.391, 1059.935
1119.873, 1058.998
1120.355, 1056.823
1120.838, 1056.171
1121.320, 1057.361
1121.802, 1058.649
1122.284, 1058.924
1122.766, 1058.478
1123.248, 1057.684
1123.730, 1056.555
1124.212, 1055.106
1124.694, 1052.336
1125.177, 1050.975
1125.659, 1051.809
1126.141, 1052.935
1126.623, 1051.777
1127.105, 1049.458
1127.587, 1049.267
1128.069, 1051.065
1128.551, 1052.491
1129.033, 1052.915
1129.516, 1052.096
1129.998, 1049.201
1130.480, 1045.926
1130.962, 1045.560
1131.444, 1047.477
1131.926, 1048.464
1132.408, 1048.052
1132.890, 1047.136
1133.373, 1045.536
1133.855, 1044.378
1134.337, 1044.673
1134.819, 1045.841
1135.301, 1045.745
1135.783, 1044.443
1136.265, 1043.213
1136.747, 1042.370
1137.229, 1041.754
1137.712, 1041.424
1138.194, 1041.114
1138.676, 1040.349
1139.158, 1039.122
1139.640, 1039.062
1140.122, 1040.259
1140.604, 1041.806
1141.086, 1043.774
1141.569, 1045.137
1142.051, 1043.940
1142.533, 1041.845
1143.015, 1041.312
1143.497, 1043.626
1143.979, 1043.843
1144.461, 1041.221
1144.943, 1039.454
1145.426, 1042.088
1145.908, 1045.865
1146.390, 1044.598
1146.872, 1040.559
1147.354, 1038.502
1147.836, 1041.658
1148.318, 1044.157
1148.800, 1046.038
1149.282, 1046.821
1149.765, 1045.453
1150.247, 1042.948
1150.729, 1041.355
1151.211, 1040.682
1151.693, 1040.668
1152.175, 1042.360
1152.657, 1043.046
1153.139, 1041.933
1153.621, 1040.311
1154.104, 1039.408
1154.586, 1039.288
1155.068, 1040.548
1155.550, 1043.077
1156.032, 1045.217
1156.514, 1047.114
1156.996, 1047.063
1157.478, 1043.358
1157.961, 1038.762
1158.443, 1038.918
1158.925, 1042.863
1159.407, 1045.177
1159.889, 1045.073
1160.371, 1044.314
1160.853, 1043.640
1161.335, 1042.885
1161.818, 1041.599
1162.300, 1040.288
1162.782, 1040.818
1163.264, 1042.991
1163.746, 1044.468
1164.228, 1044.730
1164.710, 1044.320
1165.192, 1042.837
1165.674, 1041.539
1166.156, 1041.590
1166.639, 1042.718
1167.121, 1043.264
1167.603, 1043.236
1168.085, 1043.008
1168.567, 1042.851
1169.049, 1042.114
1169.531, 1038.669
1170.013, 1035.449
1170.496, 1036.265
1170.978, 1041.209
1171.460, 1042.612
1171.942, 1040.260
1172.424, 1038.250
1172.906, 1038.559
1173.388, 1039.683
1173.870, 1040.310
1174.353, 1040.746
1174.835, 1041.540
1175.317, 1042.996
1175.799, 1043.250
1176.281, 1042.220
1176.763, 1040.691
1177.245, 1038.518
1177.727, 1036.707
1178.209, 1036.876
1178.692, 1035.980
1179.174, 1035.994
1179.656, 1036.974
1180.138, 1037.253
1180.620, 1039.580
1181.102, 1041.963
1181.584, 1043.198
1182.066, 1043.487
1182.548, 1042.510
1183.031, 1040.869
1183.513, 1040.000
1183.995, 1040.677
1184.477, 1040.855
1184.959, 1040.423
1185.441, 1039.619
1185.923, 1038.085
1186.405, 1036.703
1186.888, 1037.038
1187.370, 1038.651
1187.852, 1039.922
1188.334, 1041.014
1188.816, 1040.464
1189.298, 1037.548
1189.780, 1034.950
1190.262, 1036.091
1190.745, 1038.959
1191.227, 1040.679
1191.709, 1041.236
1192.191, 1041.554
1192.673, 1041.766
1193.155, 1041.820
1193.637, 1041.651
1194.119, 1041.485
1194.601, 1042.001
1195.084, 1042.498
1195.566, 1041.249
1196.048, 1038.436
1196.530, 1037.355
1197.012, 1039.921
1197.494, 1041.465
1197.976, 1040.730
1198.458, 1039.564
1198.941, 1041.133
1199.423, 1043.813
1199.905, 1044.795
1200.387, 1043.807
1200.869, 1042.340
1201.351, 1040.034
1201.833, 1038.677
1202.315, 1038.888
1202.797, 1039.889
1203.280, 1040.627
1203.762, 1041.197
1204.244, 1041.864
1204.726, 1042.692
1205.208, 1043.017
1205.690, 1042.636
1206.172, 1041.956
1206.654, 1040.919
1207.136, 1039.963
1207.619, 1039.509
1208.101, 1039.802
1208.583, 1041.803
1209.065, 1046.124
1209.547, 1048.235
1210.029, 1046.301
1210.511, 1044.939
1210.993, 1046.064
1211.476, 1048.189
1211.958, 1048.476
1212.440, 1047.824
1212.922, 1048.028
1213.404, 1049.803
1213.886, 1050.256
1214.368, 1048.077
1214.850, 1047.141
1215.333, 1049.630
1215.815, 1053.431
1216.297, 1055.307
1216.779, 1055.483
1217.261, 1053.984
1217.743, 1049.943
1218.225, 1047.957
1218.707, 1048.976
1219.189, 1050.391
1219.672, 1051.168
1220.154, 1051.387
1220.636, 1050.584
1221.118, 1049.539
1221.600, 1049.804
1222.082, 1052.454
1222.564, 1054.063
1223.046, 1054.242
1223.528, 1054.044
1224.011, 1053.735
1224.493, 1053.703
1224.975, 1055.232
1225.457, 1057.310
1225.939, 1058.075
1226.421, 1056.267
1226.903, 1055.580
1227.385, 1056.426
1227.868, 1056.982
1228.350, 1055.737
1228.832, 1054.162
1229.314, 1054.662
1229.796, 1056.385
1230.278, 1057.937
1230.760, 1059.092
1231.242, 1059.981
1231.724, 1060.649
1232.207, 1060.843
1232.689, 1060.167
1233.171, 1059.195
1233.653, 1058.263
1234.135, 1057.698
1234.617, 1058.254
1235.099, 1060.830
1235.581, 1061.466
1236.063, 1059.837
1236.546, 1058.624
1237.028, 1060.361
1237.510, 1062.458
1237.992, 1061.692
1238.474, 1059.607
1238.956, 1058.803
1239.438, 1059.633
1239.920, 1060.929
1240.403, 1062.738
1240.885, 1064.020
1241.367, 1063.329
1241.849, 1062.583
1242.331, 1063.464
1242.813, 1065.354
1243.295, 1067.448
1243.777, 1069.967
1244.260, 1071.094
1244.742, 1070.840
1245.224, 1070.138
1245.706, 1068.768
1246.188, 1068.032
1246.670, 1069.849
1247.152, 1072.235
1247.634, 1072.175
1248.116, 1069.350
1248.599, 1069.282
1249.081, 1071.808
1249.563, 1073.981
1250.045, 1073.651
1250.527, 1072.933
1251.009, 1072.391
1251.491, 1072.448
1251.973, 1074.079
1252.455, 1077.121
1252.938, 1077.004
1253.420, 1074.169
1253.902, 1072.460
1254.384, 1075.714
1254.866, 1078.223
1255.348, 1077.047
1255.830, 1075.152
1256.313, 1075.031
1256.795, 1076.505
1257.277, 1079.044
1257.759, 1082.262
1258.241, 1084.250
1258.723, 1082.997
1259.205, 1082.041
1259.687, 1082.259
1260.169, 1082.694
1260.651, 1082.339
1261.134, 1081.549
1261.616, 1081.456
1262.098, 1081.965
1262.580, 1082.727
1263.062, 1084.004
1263.544, 1084.860
1264.026, 1085.122
1264.508, 1085.186
1264.991, 1085.716
1265.473, 1086.107
1265.955, 1084.320
1266.437, 1081.485
1266.919, 1080.603
1267.401, 1083.850
1267.883, 1086.844
1268.365, 1089.810
1268.848, 1091.500
1269.330, 1089.301
1269.812, 1086.571
1270.294, 1088.526
1270.776, 1093.098
1271.258, 1095.527
1271.740, 1094.566
1272.222, 1094.255
1272.704, 1094.668
1273.187, 1095.400
1273.669, 1096.237
1274.151, 1097.178
1274.633, 1099.025
1275.115, 1100.542
1275.597, 1099.613
1276.079, 1095.681
1276.561, 1092.986
1277.043, 1091.585
1277.526, 1091.978
1278.008, 1096.783
1278.490, 1100.865
1278.972, 1100.474
1279.454, 1098.299
1279.936, 1096.843
1280.418, 1096.132
1280.900, 1096.589
1281.383, 1098.017
1281.865, 1099.191
1282.347, 1099.514
1282.829, 1099.429
1283.311, 1098.813
1283.793, 1098.106
1284.275, 1097.389
1284.757, 1096.869
1285.240, 1097.807
1285.722, 1099.754
1286.204, 1101.187
1286.686, 1100.496
1287.168, 1101.412
1287.650, 1105.215
1288.132, 1108.528
1288.614, 1108.410
1289.096, 1106.662
1289.578, 1107.104
1290.061, 1108.734
1290.543, 1109.476
1291.025, 1108.369
1291.507, 1107.179
1291.989, 1105.703
1292.471, 1105.041
1292.953, 1106.310
1293.435, 1108.070
1293.918, 1108.359
1294.400, 1108.123
1294.882, 1109.125
1295.364, 1111.796
1295.846, 1111.921
1296.328, 1109.477
1296.810, 1107.308
1297.292, 1106.506
1297.775, 1106.681
1298.257, 1108.731
1298.739, 1110.873
1299.221, 1111.244
1299.703, 1110.078
1300.185, 1109.968
1300.667, 1110.759
1301.149, 1111.515
1301.631, 1112.064
1302.114, 1111.588
1302.596, 1110.997
##END=



