##NAMES=Afwillite
##RRUFFID=R070296
##IDEAL CHEMISTRY=Ca_3_(SiO_4_)(SiO_2_(OH)_2_)&#183;2H_2_O
##LOCALITY=Hatrurim Formation, Negev Desert, West of Dead Sea, southern Israel
##OWNER=Michael Scott
##SOURCE=Michael Scott
##DESCRIPTION=Colorless bladed crystals, associated with yellow ettringite, R070208.
##STATUS=The identification of this mineral is confirmed by single-crystal X-ray diffraction and chemical analysis.
##URL=rruff.info/R070296
##MEASURED CHEMISTRY=Ca_3.00_(Si_1.00_O_3_)_2_(OH)_2_Â·2H_2_O; trace amounts of Al. OH by charge balance; H_2_O by difference
158.6245, 1231.464
159.1066, 1218.068
159.5887, 1206.593
160.0709, 1192.857
160.5530, 1181.681
161.0351, 1182.347
161.5172, 1197.893
161.9993, 1214.626
162.4814, 1221.525
162.9636, 1222.612
163.4457, 1224.966
163.9278, 1230.546
164.4099, 1238.978
164.8920, 1250.093
165.3741, 1264.704
165.8563, 1279.666
166.3384, 1295.255
166.8205, 1309.751
167.3026, 1319.508
167.7847, 1320.177
168.2668, 1316.116
168.7490, 1317.211
169.2311, 1325.434
169.7132, 1334.481
170.1953, 1339.619
170.6774, 1343.457
171.1595, 1350.765
171.6417, 1367.383
172.1238, 1387.355
172.6059, 1394.048
173.0880, 1380.306
173.5701, 1367.416
174.0522, 1362.698
174.5344, 1364.996
175.0165, 1374.331
175.4986, 1394.862
175.9807, 1419.938
176.4628, 1431.129
176.9449, 1424.559
177.4271, 1409.951
177.9092, 1383.079
178.3913, 1353.630
178.8734, 1336.110
179.3555, 1340.561
179.8376, 1358.552
180.3197, 1364.483
180.8019, 1351.290
181.2840, 1338.008
181.7661, 1330.606
182.2482, 1326.659
182.7303, 1323.054
183.2124, 1317.938
183.6946, 1312.737
184.1767, 1311.718
184.6588, 1316.534
185.1409, 1323.015
185.6230, 1328.561
186.1051, 1335.251
186.5873, 1345.329
187.0694, 1359.786
187.5515, 1378.384
188.0336, 1402.507
188.5157, 1440.844
188.9978, 1468.581
189.4800, 1473.560
189.9621, 1469.787
190.4442, 1473.631
190.9263, 1493.091
191.4084, 1518.629
191.8905, 1525.638
192.3727, 1500.365
192.8548, 1480.503
193.3369, 1475.135
193.8190, 1475.984
194.3011, 1474.384
194.7832, 1466.825
195.2654, 1457.750
195.7475, 1457.484
196.2296, 1472.413
196.7117, 1484.413
197.1938, 1490.040
197.6759, 1492.872
198.1581, 1497.545
198.6402, 1505.422
199.1223, 1511.370
199.6044, 1503.299
200.0865, 1466.028
200.5686, 1445.820
201.0508, 1451.299
201.5329, 1468.943
202.0150, 1492.224
202.4971, 1518.293
202.9792, 1542.175
203.4613, 1555.126
203.9435, 1551.733
204.4256, 1549.104
204.9077, 1553.346
205.3898, 1555.013
205.8719, 1543.960
206.3540, 1519.855
206.8362, 1494.530
207.3183, 1485.918
207.8004, 1504.194
208.2825, 1513.439
208.7646, 1505.379
209.2467, 1495.614
209.7289, 1493.848
210.2110, 1500.714
210.6931, 1509.734
211.1752, 1512.782
211.6573, 1507.038
212.1395, 1505.712
212.6216, 1507.671
213.1037, 1514.545
213.5858, 1532.947
214.0679, 1559.162
214.5500, 1580.099
215.0322, 1580.200
215.5143, 1554.416
215.9964, 1541.563
216.4785, 1548.588
216.9606, 1561.803
217.4427, 1579.431
217.9249, 1599.426
218.4070, 1618.611
218.8891, 1634.131
219.3712, 1645.864
219.8533, 1658.397
220.3354, 1671.564
220.8176, 1685.794
221.2997, 1699.625
221.7818, 1714.656
222.2639, 1734.984
222.7460, 1764.844
223.2281, 1802.612
223.7103, 1828.032
224.1924, 1825.353
224.6745, 1826.923
225.1566, 1841.546
225.6387, 1864.227
226.1208, 1887.730
226.6030, 1908.192
227.0851, 1925.484
227.5672, 1938.533
228.0493, 1940.113
228.5314, 1947.515
229.0135, 1971.250
229.4957, 1999.185
229.9778, 2016.050
230.4599, 2014.652
230.9420, 2002.946
231.4241, 2001.096
231.9062, 2017.150
232.3884, 2029.503
232.8705, 2035.066
233.3526, 2036.517
233.8347, 2036.067
234.3168, 2034.454
234.7989, 2031.304
235.2811, 2025.055
235.7632, 2012.089
236.2453, 2004.844
236.7274, 2007.823
237.2095, 2013.619
237.6916, 2017.513
238.1738, 2018.557
238.6559, 2018.711
239.1380, 2023.012
239.6201, 2036.581
240.1022, 2034.739
240.5843, 2002.342
241.0665, 1966.079
241.5486, 1939.897
242.0307, 1923.134
242.5128, 1905.111
242.9949, 1872.355
243.4770, 1822.507
243.9592, 1785.893
244.4413, 1771.330
244.9234, 1762.602
245.4055, 1753.714
245.8876, 1745.670
246.3697, 1742.470
246.8519, 1748.189
247.3340, 1761.745
247.8161, 1772.561
248.2982, 1775.496
248.7803, 1782.926
249.2624, 1804.592
249.7446, 1832.314
250.2267, 1851.631
250.7088, 1852.094
251.1909, 1842.277
251.6730, 1848.647
252.1551, 1881.108
252.6373, 1909.826
253.1194, 1929.950
253.6015, 1940.079
254.0836, 1935.418
254.5657, 1911.885
255.0478, 1882.072
255.5300, 1866.979
256.0121, 1870.601
256.4942, 1873.995
256.9763, 1869.607
257.4584, 1864.231
257.9406, 1864.911
258.4227, 1873.428
258.9048, 1879.591
259.3869, 1869.539
259.8690, 1842.288
260.3511, 1821.652
260.8333, 1818.859
261.3154, 1817.962
261.7975, 1807.344
262.2796, 1786.880
262.7617, 1763.526
263.2438, 1741.195
263.7260, 1719.795
264.2081, 1698.934
264.6902, 1678.016
265.1723, 1658.637
265.6544, 1641.152
266.1365, 1625.687
266.6187, 1613.262
267.1008, 1603.842
267.5829, 1597.862
268.0650, 1597.198
268.5471, 1603.237
269.0292, 1610.181
269.5114, 1613.961
269.9935, 1615.908
270.4756, 1618.008
270.9577, 1618.402
271.4398, 1621.094
271.9219, 1631.498
272.4041, 1649.816
272.8862, 1669.808
273.3683, 1687.002
273.8504, 1704.937
274.3325, 1730.234
274.8146, 1767.152
275.2968, 1804.362
275.7789, 1834.507
276.2610, 1858.581
276.7431, 1879.669
277.2252, 1896.002
277.7073, 1913.890
278.1895, 1945.093
278.6716, 1991.529
279.1537, 2038.234
279.6358, 2082.306
280.1179, 2122.547
280.6000, 2154.502
281.0822, 2176.149
281.5643, 2196.719
282.0464, 2230.636
282.5285, 2279.819
283.0106, 2315.447
283.4927, 2325.951
283.9749, 2326.760
284.4570, 2330.319
284.9391, 2337.989
285.4212, 2348.408
285.9033, 2362.964
286.3854, 2380.752
286.8676, 2382.705
287.3497, 2361.026
287.8318, 2332.730
288.3139, 2302.423
288.7960, 2271.777
289.2781, 2244.423
289.7603, 2222.701
290.2424, 2205.186
290.7245, 2186.348
291.2066, 2162.778
291.6887, 2142.129
292.1708, 2130.859
292.6530, 2121.251
293.1351, 2102.515
293.6172, 2071.000
294.0993, 2033.142
294.5814, 2000.698
295.0635, 1978.828
295.5457, 1952.460
296.0278, 1912.241
296.5099, 1874.698
296.9920, 1855.636
297.4741, 1854.150
297.9562, 1854.269
298.4384, 1837.652
298.9205, 1799.693
299.4026, 1777.242
299.8847, 1782.271
300.3668, 1790.319
300.8489, 1790.706
301.3310, 1769.669
301.8131, 1791.027
302.2953, 1803.272
302.7774, 1806.894
303.2595, 1776.066
303.7416, 1789.723
304.2237, 1785.553
304.7058, 1780.651
305.1880, 1800.569
305.6701, 1774.752
306.1522, 1794.276
306.6343, 1795.701
307.1164, 1805.409
307.5985, 1797.181
308.0807, 1794.492
308.5628, 1809.746
309.0449, 1815.065
309.5270, 1795.801
310.0091, 1790.275
310.4912, 1783.688
310.9734, 1778.892
311.4555, 1775.831
311.9376, 1773.647
312.4197, 1770.352
312.9018, 1771.117
313.3839, 1783.308
313.8661, 1802.015
314.3482, 1814.003
314.8303, 1808.052
315.3124, 1794.058
315.7945, 1790.340
316.2766, 1798.562
316.7588, 1807.304
317.2409, 1809.664
317.7230, 1808.906
318.2051, 1809.797
318.6872, 1810.925
319.1693, 1817.226
319.6515, 1839.429
320.1336, 1872.261
320.6157, 1890.425
321.0978, 1880.721
321.5799, 1859.809
322.0620, 1852.914
322.5442, 1859.540
323.0263, 1875.359
323.5084, 1908.348
323.9905, 1946.036
324.4726, 1973.445
324.9547, 1988.133
325.4369, 1991.940
325.9190, 1983.524
326.4011, 1961.223
326.8832, 1950.905
327.3653, 1963.445
327.8474, 1977.450
328.3296, 1979.466
328.8117, 1972.553
329.2938, 1967.681
329.7759, 1971.441
330.2580, 1981.892
330.7401, 1990.132
331.2223, 1998.176
331.7044, 2001.484
332.1865, 1997.709
332.6686, 1989.826
333.1507, 1982.166
333.6328, 1975.690
334.1150, 1965.994
334.5971, 1944.858
335.0792, 1904.476
335.5613, 1874.262
336.0434, 1854.976
336.5255, 1843.796
337.0077, 1845.349
337.4898, 1854.970
337.9719, 1860.651
338.4540, 1852.812
338.9361, 1832.492
339.4182, 1808.418
339.9004, 1776.863
340.3825, 1747.310
340.8646, 1719.045
341.3467, 1695.178
341.8288, 1680.902
342.3109, 1679.098
342.7931, 1682.622
343.2752, 1682.111
343.7573, 1677.688
344.2394, 1667.577
344.7215, 1640.944
345.2036, 1617.035
345.6858, 1614.688
346.1679, 1634.110
346.6500, 1652.179
347.1321, 1652.124
347.6142, 1639.635
348.0963, 1629.892
348.5785, 1624.230
349.0606, 1621.779
349.5427, 1625.319
350.0248, 1631.984
350.5069, 1632.718
350.9890, 1619.640
351.4712, 1605.038
351.9533, 1600.919
352.4354, 1605.104
352.9175, 1605.192
353.3996, 1593.730
353.8817, 1576.448
354.3639, 1569.194
354.8460, 1576.169
355.3281, 1581.878
355.8102, 1582.836
356.2923, 1580.768
356.7744, 1577.903
357.2566, 1574.639
357.7387, 1569.080
358.2208, 1557.864
358.7029, 1538.024
359.1850, 1529.977
359.6671, 1543.108
360.1493, 1556.856
360.6314, 1562.546
361.1135, 1561.599
361.5956, 1558.206
362.0777, 1554.521
362.5598, 1551.241
363.0420, 1551.285
363.5241, 1559.218
364.0062, 1562.981
364.4883, 1555.280
364.9704, 1546.931
365.4525, 1547.557
365.9347, 1558.917
366.4168, 1575.015
366.8989, 1592.338
367.3810, 1611.789
367.8631, 1617.902
368.3452, 1594.514
368.8274, 1576.504
369.3095, 1582.643
369.7916, 1607.223
370.2737, 1636.714
370.7558, 1669.633
371.2379, 1699.903
371.7201, 1714.580
372.2022, 1712.066
372.6843, 1708.965
373.1664, 1710.342
373.6485, 1716.441
374.1306, 1727.818
374.6128, 1746.172
375.0949, 1763.732
375.5770, 1771.336
376.0591, 1776.051
376.5412, 1794.491
377.0233, 1831.375
377.5055, 1871.586
377.9876, 1899.472
378.4697, 1913.338
378.9518, 1929.737
379.4339, 1949.384
379.9160, 1971.064
380.3982, 1992.295
380.8803, 2014.724
381.3624, 2043.400
381.8445, 2081.636
382.3266, 2125.871
382.8087, 2166.004
383.2909, 2196.716
383.7730, 2229.771
384.2551, 2262.274
384.7372, 2299.103
385.2193, 2348.742
385.7014, 2409.860
386.1836, 2468.921
386.6657, 2509.173
387.1478, 2528.793
387.6299, 2561.999
388.1120, 2622.069
388.5941, 2681.262
389.0763, 2731.815
389.5584, 2775.247
390.0405, 2812.256
390.5226, 2841.476
391.0047, 2870.671
391.4868, 2917.053
391.9690, 2983.484
392.4511, 3037.772
392.9332, 3065.961
393.4153, 3082.774
393.8974, 3101.326
394.3795, 3121.968
394.8617, 3143.362
395.3438, 3170.970
395.8259, 3196.843
396.3080, 3205.998
396.7901, 3196.525
397.2722, 3180.702
397.7544, 3165.834
398.2365, 3151.565
398.7186, 3135.883
399.2007, 3124.285
399.6828, 3105.452
400.1649, 3072.329
400.6471, 3029.747
401.1292, 2986.720
401.6113, 2945.973
402.0934, 2901.231
402.5755, 2841.117
403.0576, 2756.402
403.5398, 2685.491
404.0219, 2631.467
404.5040, 2585.596
404.9861, 2550.513
405.4682, 2519.747
405.9503, 2478.623
406.4325, 2415.811
406.9146, 2340.412
407.3967, 2287.840
407.8788, 2273.489
408.3609, 2250.481
408.8430, 2198.130
409.3252, 2141.770
409.8073, 2103.461
410.2894, 2085.754
410.7715, 2070.569
411.2536, 2042.387
411.7357, 2003.307
412.2179, 1962.902
412.7000, 1918.168
413.1821, 1881.208
413.6642, 1871.332
414.1463, 1874.610
414.6284, 1862.441
415.1106, 1816.513
415.5927, 1769.569
416.0748, 1750.441
416.5569, 1750.423
417.0390, 1740.983
417.5211, 1710.815
418.0033, 1673.912
418.4854, 1651.187
418.9675, 1647.042
419.4496, 1643.491
419.9317, 1645.306
420.4138, 1643.222
420.8960, 1628.447
421.3781, 1603.713
421.8602, 1577.715
422.3423, 1555.240
422.8244, 1537.402
423.3065, 1529.798
423.7887, 1545.119
424.2708, 1550.675
424.7529, 1533.534
425.2350, 1512.614
425.7171, 1507.661
426.1992, 1519.086
426.6814, 1526.394
427.1635, 1502.461
427.6456, 1451.277
428.1277, 1425.660
428.6098, 1438.888
429.0919, 1452.345
429.5741, 1442.502
430.0562, 1421.130
430.5383, 1405.906
431.0204, 1403.625
431.5025, 1402.531
431.9846, 1391.088
432.4668, 1372.432
432.9489, 1358.605
433.4310, 1353.741
433.9131, 1350.789
434.3952, 1340.574
434.8773, 1322.082
435.3595, 1307.931
435.8416, 1297.657
436.3237, 1292.984
436.8058, 1299.881
437.2879, 1313.303
437.7701, 1319.632
438.2522, 1311.247
438.7343, 1295.833
439.2164, 1294.102
439.6985, 1322.759
440.1806, 1334.919
440.6628, 1316.946
441.1449, 1294.857
441.6270, 1282.867
442.1091, 1282.380
442.5912, 1290.432
443.0733, 1309.355
443.5555, 1333.332
444.0376, 1336.706
444.5197, 1310.526
445.0018, 1288.845
445.4839, 1289.806
445.9660, 1299.030
446.4482, 1300.512
446.9303, 1290.426
447.4124, 1287.680
447.8945, 1313.708
448.3766, 1353.384
448.8587, 1372.198
449.3409, 1364.447
449.8230, 1353.281
450.3051, 1357.198
450.7872, 1374.454
451.2693, 1385.392
451.7514, 1380.214
452.2336, 1380.562
452.7157, 1398.644
453.1978, 1424.667
453.6799, 1446.586
454.1620, 1460.436
454.6441, 1465.969
455.1263, 1460.791
455.6084, 1441.090
456.0905, 1432.328
456.5726, 1436.681
457.0547, 1450.679
457.5368, 1482.486
458.0190, 1521.252
458.5011, 1549.471
458.9832, 1558.763
459.4653, 1560.016
459.9474, 1571.025
460.4295, 1592.036
460.9117, 1601.844
461.3938, 1588.751
461.8759, 1573.777
462.3580, 1578.784
462.8401, 1599.698
463.3222, 1615.213
463.8044, 1616.434
464.2865, 1612.362
464.7686, 1605.802
465.2507, 1599.718
465.7328, 1606.250
466.2149, 1632.075
466.6971, 1668.387
467.1792, 1698.702
467.6613, 1727.005
468.1434, 1738.878
468.6255, 1718.419
469.1076, 1695.660
469.5898, 1688.724
470.0719, 1696.103
470.5540, 1708.980
471.0361, 1722.766
471.5182, 1735.724
472.0003, 1743.841
472.4825, 1748.784
472.9646, 1744.098
473.4467, 1716.925
473.9288, 1687.755
474.4109, 1669.314
474.8930, 1662.096
475.3752, 1659.720
475.8573, 1664.180
476.3394, 1668.945
476.8215, 1658.867
477.3036, 1633.496
477.7857, 1614.855
478.2679, 1616.965
478.7500, 1630.286
479.2321, 1631.668
479.7142, 1619.338
480.1963, 1602.218
480.6784, 1575.252
481.1606, 1548.731
481.6427, 1532.257
482.1248, 1526.027
482.6069, 1524.910
483.0890, 1525.331
483.5711, 1527.289
484.0533, 1531.288
484.5354, 1542.370
485.0175, 1546.873
485.4996, 1537.614
485.9817, 1525.573
486.4638, 1517.661
486.9460, 1515.441
487.4281, 1519.706
487.9102, 1537.728
488.3923, 1562.414
488.8744, 1568.807
489.3565, 1553.040
489.8387, 1540.896
490.3208, 1550.062
490.8029, 1568.512
491.2850, 1569.016
491.7671, 1541.879
492.2492, 1525.011
492.7314, 1540.554
493.2135, 1567.868
493.6956, 1584.387
494.1777, 1587.849
494.6598, 1586.991
495.1419, 1588.403
495.6241, 1591.198
496.1062, 1589.527
496.5883, 1580.070
497.0704, 1570.583
497.5525, 1560.018
498.0346, 1550.922
498.5168, 1545.695
498.9989, 1544.391
499.4810, 1545.139
499.9631, 1548.908
500.4452, 1553.410
500.9273, 1547.014
501.4095, 1525.468
501.8916, 1511.444
502.3737, 1520.421
502.8558, 1539.494
503.3379, 1547.218
503.8200, 1540.197
504.3022, 1534.576
504.7843, 1541.045
505.2664, 1549.413
505.7485, 1543.848
506.2306, 1525.806
506.7127, 1513.947
507.1949, 1521.767
507.6770, 1544.182
508.1591, 1558.744
508.6412, 1556.816
509.1233, 1559.634
509.6054, 1571.444
510.0876, 1585.749
510.5697, 1599.245
511.0518, 1610.834
511.5339, 1618.703
512.0161, 1617.734
512.4982, 1614.522
512.9803, 1630.550
513.4624, 1669.576
513.9445, 1704.346
514.4266, 1723.548
514.9088, 1735.352
515.3909, 1750.229
515.8730, 1768.319
516.3551, 1787.570
516.8372, 1812.064
517.3193, 1834.037
517.8015, 1837.885
518.2836, 1830.610
518.7657, 1844.471
519.2478, 1899.289
519.7299, 1972.844
520.2120, 2011.011
520.6942, 1991.134
521.1763, 1978.526
521.6584, 1973.236
522.1405, 1974.233
522.6226, 1986.897
523.1047, 2005.357
523.5869, 2015.727
524.0690, 2009.542
524.5511, 1994.460
525.0332, 1982.284
525.5153, 1972.993
525.9974, 1962.903
526.4796, 1950.046
526.9617, 1937.929
527.4438, 1933.559
527.9259, 1935.471
528.4080, 1928.448
528.8901, 1893.031
529.3723, 1865.237
529.8544, 1875.458
530.3365, 1906.946
530.8186, 1928.280
531.3007, 1928.604
531.7828, 1914.036
532.2650, 1891.156
532.7471, 1857.515
533.2292, 1830.345
533.7113, 1813.703
534.1934, 1799.097
534.6755, 1788.325
535.1577, 1776.369
535.6398, 1755.871
536.1219, 1724.166
536.6040, 1688.287
537.0861, 1652.692
537.5682, 1618.166
538.0504, 1590.198
538.5325, 1571.237
539.0146, 1545.161
539.4967, 1495.453
539.9788, 1429.710
540.4609, 1386.533
540.9431, 1374.825
541.4252, 1370.068
541.9073, 1377.029
542.3894, 1382.500
542.8715, 1370.952
543.3536, 1343.227
543.8358, 1313.451
544.3179, 1292.394
544.8000, 1278.791
545.2821, 1267.716
545.7642, 1260.481
546.2463, 1252.161
546.7285, 1238.465
547.2106, 1225.630
547.6926, 1217.975
548.1747, 1215.652
548.6569, 1217.386
549.1390, 1231.674
549.6211, 1243.393
550.1032, 1232.477
550.5853, 1203.055
551.0674, 1172.380
551.5496, 1145.966
552.0317, 1127.247
552.5138, 1122.524
552.9959, 1136.737
553.4780, 1148.498
553.9601, 1160.516
554.4423, 1167.662
554.9244, 1164.245
555.4065, 1155.730
555.8886, 1151.789
556.3707, 1156.151
556.8528, 1160.006
557.3350, 1148.447
557.8171, 1124.506
558.2992, 1114.545
558.7813, 1124.297
559.2634, 1137.876
559.7455, 1149.160
560.2277, 1155.437
560.7098, 1149.287
561.1919, 1120.536
561.6740, 1097.092
562.1561, 1091.382
562.6382, 1093.029
563.1204, 1090.525
563.6025, 1083.423
564.0846, 1078.872
564.5667, 1082.640
565.0488, 1091.986
565.5309, 1095.863
566.0131, 1092.037
566.4952, 1088.402
566.9773, 1089.039
567.4594, 1087.934
567.9415, 1077.862
568.4236, 1061.549
568.9058, 1051.691
569.3879, 1056.588
569.8700, 1067.583
570.3521, 1079.165
570.8342, 1089.831
571.3163, 1094.035
571.7985, 1089.880
572.2806, 1080.333
572.7627, 1067.158
573.2448, 1048.520
573.7269, 1043.646
574.2090, 1066.234
574.6912, 1085.460
575.1733, 1092.869
575.6554, 1093.335
576.1375, 1092.009
576.6196, 1090.271
577.1017, 1087.794
577.5839, 1084.137
578.0660, 1079.503
578.5481, 1072.383
579.0302, 1061.559
579.5123, 1060.501
579.9944, 1082.334
580.4766, 1111.397
580.9587, 1113.223
581.4408, 1079.251
581.9229, 1059.098
582.4050, 1072.197
582.8871, 1089.761
583.3693, 1093.050
583.8514, 1085.499
584.3335, 1077.323
584.8156, 1073.184
585.2977, 1071.633
585.7798, 1068.988
586.2620, 1064.435
586.7441, 1069.654
587.2262, 1091.726
587.7083, 1112.958
588.1904, 1124.574
588.6725, 1128.441
589.1547, 1125.685
589.6368, 1113.003
590.1189, 1102.910
590.6010, 1103.497
591.0831, 1108.929
591.5652, 1111.872
592.0474, 1111.904
592.5295, 1113.526
593.0116, 1120.774
593.4937, 1128.570
593.9758, 1118.108
594.4579, 1072.538
594.9401, 1048.949
595.4222, 1073.524
595.9043, 1101.907
596.3864, 1112.074
596.8685, 1108.443
597.3506, 1104.999
597.8328, 1107.698
598.3149, 1110.577
598.7970, 1106.182
599.2791, 1097.929
599.7612, 1094.911
600.2433, 1098.879
600.7255, 1106.377
601.2076, 1115.966
601.6897, 1126.388
602.1718, 1127.221
602.6539, 1106.514
603.1360, 1092.439
603.6182, 1093.138
604.1003, 1096.346
604.5824, 1089.076
605.0645, 1074.659
605.5466, 1070.062
606.0287, 1089.780
606.5109, 1118.062
606.9930, 1132.083
607.4751, 1132.920
607.9572, 1128.212
608.4393, 1118.914
608.9214, 1107.833
609.4036, 1096.604
609.8857, 1085.242
610.3678, 1080.524
610.8499, 1092.932
611.3320, 1098.109
611.8141, 1080.540
612.2963, 1059.256
612.7784, 1053.913
613.2605, 1066.000
613.7426, 1084.214
614.2247, 1101.779
614.7068, 1117.982
615.1890, 1132.049
615.6711, 1144.171
616.1532, 1149.121
616.6353, 1143.376
617.1174, 1133.478
617.5995, 1126.423
618.0817, 1122.265
618.5638, 1117.517
619.0459, 1107.735
619.5280, 1102.323
620.0101, 1106.902
620.4922, 1116.927
620.9744, 1128.992
621.4565, 1141.074
621.9386, 1148.103
622.4207, 1142.518
622.9028, 1129.510
623.3849, 1132.076
623.8671, 1153.790
624.3492, 1169.865
624.8313, 1170.310
625.3134, 1164.862
625.7955, 1168.247
626.2776, 1179.798
626.7598, 1177.608
627.2419, 1140.718
627.7240, 1108.826
628.2061, 1105.839
628.6882, 1119.092
629.1703, 1131.141
629.6525, 1137.150
630.1346, 1140.329
630.6167, 1144.865
631.0988, 1149.063
631.5809, 1140.100
632.0630, 1111.517
632.5452, 1095.628
633.0273, 1109.821
633.5094, 1133.581
633.9915, 1145.904
634.4736, 1147.200
634.9557, 1141.591
635.4379, 1116.007
635.9200, 1098.271
636.4021, 1113.853
636.8842, 1143.900
637.3663, 1159.761
637.8484, 1154.349
638.3306, 1136.328
638.8127, 1110.314
639.2948, 1079.893
639.7769, 1070.631
640.2590, 1089.935
640.7411, 1104.008
641.2233, 1101.962
641.7054, 1091.834
642.1875, 1079.658
642.6696, 1065.882
643.1517, 1057.018
643.6339, 1056.114
644.1160, 1058.622
644.5981, 1064.166
645.0802, 1070.673
645.5623, 1075.390
646.0444, 1077.621
646.5266, 1077.657
647.0087, 1075.055
647.4908, 1070.893
647.9729, 1071.565
648.4550, 1079.562
648.9371, 1081.476
649.4193, 1065.993
649.9014, 1051.919
650.3835, 1063.320
650.8656, 1095.414
651.3477, 1113.896
651.8298, 1104.034
652.3120, 1089.693
652.7941, 1077.953
653.2762, 1070.389
653.7583, 1071.085
654.2404, 1079.156
654.7225, 1086.620
655.2047, 1086.319
655.6868, 1092.929
656.1689, 1084.283
656.6510, 1097.106
657.1331, 1103.525
657.6152, 1100.136
658.0974, 1089.385
658.5795, 1065.579
659.0616, 1034.057
659.5437, 1020.640
660.0258, 1041.677
660.5079, 1063.577
660.9901, 1079.620
661.4722, 1087.926
661.9543, 1080.456
662.4364, 1061.807
662.9185, 1051.893
663.4006, 1066.261
663.8828, 1090.762
664.3649, 1091.417
664.8470, 1067.189
665.3291, 1054.250
665.8112, 1061.362
666.2933, 1072.965
666.7755, 1079.615
667.2576, 1081.222
667.7397, 1078.217
668.2218, 1065.715
668.7039, 1056.588
669.1860, 1056.035
669.6682, 1057.533
670.1503, 1056.199
670.6324, 1052.307
671.1145, 1047.989
671.5966, 1044.156
672.0787, 1041.300
672.5609, 1037.430
673.0430, 1034.068
673.5251, 1045.646
674.0072, 1076.974
674.4893, 1102.792
674.9714, 1106.674
675.4536, 1096.062
675.9357, 1090.138
676.4178, 1092.168
676.8999, 1091.677
677.3820, 1087.062
677.8641, 1081.226
678.3463, 1075.666
678.8284, 1069.973
679.3105, 1063.004
679.7926, 1054.409
680.2747, 1045.881
680.7568, 1037.804
681.2390, 1031.341
681.7211, 1029.079
682.2032, 1031.149
682.6853, 1038.993
683.1674, 1054.931
683.6495, 1071.470
684.1317, 1076.911
684.6138, 1069.651
685.0959, 1059.623
685.5780, 1040.562
686.0601, 1026.152
686.5422, 1022.284
687.0244, 1023.090
687.5065, 1023.048
687.9886, 1021.263
688.4707, 1018.724
688.9528, 1014.340
689.4349, 1010.749
689.9171, 1011.713
690.3992, 1015.979
690.8813, 1019.165
691.3634, 1020.165
691.8455, 1023.495
692.3276, 1034.994
692.8098, 1052.766
693.2919, 1058.546
693.7740, 1044.336
694.2561, 1035.973
694.7382, 1046.265
695.2203, 1056.538
695.7025, 1052.103
696.1846, 1036.478
696.6667, 1023.630
697.1488, 1016.504
697.6309, 1013.598
698.1130, 1013.189
698.5952, 1017.127
699.0773, 1033.235
699.5594, 1057.564
700.0415, 1070.495
700.5236, 1058.376
701.0057, 1036.585
701.4879, 1042.013
701.9700, 1076.932
702.4521, 1088.375
702.9342, 1061.936
703.4163, 1037.129
703.8984, 1040.364
704.3806, 1059.927
704.8627, 1066.630
705.3448, 1054.256
705.8269, 1047.828
706.3090, 1055.192
706.7911, 1064.968
707.2733, 1074.721
707.7554, 1080.701
708.2375, 1075.083
708.7196, 1056.229
709.2017, 1037.546
709.6838, 1031.686
710.1660, 1035.636
710.6481, 1045.142
711.1302, 1059.389
711.6123, 1064.350
712.0944, 1053.101
712.5765, 1039.290
713.0587, 1041.234
713.5408, 1060.148
714.0229, 1068.771
714.5050, 1055.539
714.9871, 1047.720
715.4692, 1056.485
715.9514, 1066.739
716.4335, 1063.975
716.9156, 1050.521
717.3977, 1041.357
717.8798, 1045.018
718.3619, 1051.352
718.8441, 1050.219
719.3262, 1047.055
719.8083, 1054.906
720.2904, 1072.790
720.7725, 1083.720
721.2546, 1075.764
721.7368, 1055.521
722.2189, 1036.408
722.7010, 1016.854
723.1831, 1011.075
723.6652, 1028.262
724.1473, 1043.298
724.6295, 1040.135
725.1116, 1026.071
725.5937, 1015.578
726.0758, 1008.168
726.5579, 1006.509
727.0400, 1011.807
727.5222, 1022.228
728.0043, 1045.370
728.4864, 1069.672
728.9685, 1072.676
729.4506, 1050.581
729.9327, 1029.704
730.4149, 1039.207
730.8970, 1064.689
731.3791, 1070.439
731.8612, 1059.056
732.3433, 1056.918
732.8254, 1072.956
733.3076, 1091.894
733.7897, 1097.818
734.2718, 1091.819
734.7539, 1089.094
735.2360, 1098.275
735.7181, 1096.022
736.2003, 1060.154
736.6824, 1030.557
737.1645, 1040.022
737.6466, 1075.375
738.1287, 1098.004
738.6108, 1093.214
739.0930, 1085.364
739.5751, 1086.209
740.0572, 1092.613
740.5393, 1105.505
741.0214, 1120.768
741.5035, 1124.788
741.9857, 1111.025
742.4678, 1095.024
742.9499, 1103.912
743.4320, 1134.839
743.9141, 1144.619
744.3962, 1128.015
744.8784, 1117.279
745.3605, 1128.091
745.8426, 1145.649
746.3247, 1148.629
746.8068, 1134.537
747.2889, 1129.546
747.7711, 1142.185
748.2532, 1152.286
748.7353, 1151.242
749.2174, 1148.584
749.6995, 1154.073
750.1816, 1166.574
750.6638, 1177.407
751.1459, 1181.582
751.6280, 1184.322
752.1101, 1188.796
752.5922, 1195.843
753.0743, 1211.680
753.5565, 1233.968
754.0386, 1243.020
754.5207, 1225.742
755.0028, 1199.663
755.4849, 1203.070
755.9670, 1240.901
756.4492, 1259.679
756.9313, 1249.651
757.4134, 1242.963
757.8955, 1255.783
758.3776, 1277.918
758.8597, 1293.813
759.3419, 1302.690
759.8240, 1314.011
760.3061, 1331.002
760.7882, 1347.620
761.2703, 1358.308
761.7524, 1369.610
762.2346, 1392.704
762.7167, 1424.988
763.1988, 1448.921
763.6809, 1450.674
764.1630, 1446.730
764.6451, 1455.898
765.1273, 1474.301
765.6094, 1493.259
766.0915, 1511.249
766.5736, 1527.806
767.0557, 1542.153
767.5378, 1557.048
768.0200, 1580.151
768.5021, 1613.975
768.9842, 1639.532
769.4663, 1652.196
769.9484, 1665.681
770.4305, 1686.145
770.9127, 1710.514
771.3948, 1735.499
771.8769, 1761.394
772.3590, 1783.341
772.8411, 1796.338
773.3232, 1810.412
773.8054, 1833.703
774.2875, 1857.186
774.7696, 1871.442
775.2517, 1875.978
775.7338, 1874.095
776.2159, 1862.437
776.6981, 1856.123
777.1802, 1882.469
777.6623, 1924.603
778.1444, 1938.976
778.6265, 1924.019
779.1086, 1912.894
779.5908, 1924.463
780.0729, 1948.110
780.5550, 1966.705
781.0371, 1981.030
781.5192, 1979.962
782.0013, 1957.282
782.4835, 1935.114
782.9656, 1917.318
783.4477, 1908.476
783.9298, 1924.781
784.4119, 1967.683
784.8940, 1973.208
785.3762, 1900.052
785.8583, 1839.191
786.3404, 1818.597
786.8225, 1817.453
787.3046, 1826.781
787.7867, 1838.494
788.2689, 1835.656
788.7510, 1808.283
789.2331, 1774.142
789.7152, 1743.360
790.1973, 1717.811
790.6794, 1702.606
791.1616, 1695.731
791.6437, 1687.733
792.1258, 1674.455
792.6079, 1660.524
793.0900, 1653.700
793.5721, 1652.555
794.0543, 1639.818
794.5364, 1611.932
795.0185, 1596.005
795.5006, 1604.211
795.9827, 1617.218
796.4648, 1614.721
796.9470, 1598.867
797.4291, 1592.870
797.9112, 1603.819
798.3933, 1614.675
798.8754, 1627.336
799.3575, 1637.118
799.8397, 1636.378
800.3218, 1632.250
800.8039, 1641.816
801.2860, 1672.512
801.7681, 1691.109
802.2502, 1662.979
802.7324, 1631.317
803.2145, 1641.325
803.6966, 1675.529
804.1787, 1696.014
804.6608, 1694.729
805.1429, 1693.403
805.6251, 1711.006
806.1072, 1739.727
806.5893, 1764.831
807.0714, 1786.208
807.5535, 1800.775
808.0356, 1807.573
808.5178, 1815.681
808.9999, 1832.040
809.4820, 1852.001
809.9641, 1863.444
810.4462, 1864.570
810.9283, 1863.141
811.4105, 1852.787
811.8926, 1850.412
812.3747, 1872.828
812.8568, 1899.714
813.3389, 1904.961
813.8210, 1888.495
814.3032, 1878.479
814.7853, 1885.663
815.2674, 1891.421
815.7495, 1885.157
816.2316, 1878.038
816.7137, 1882.993
817.1959, 1896.472
817.6780, 1903.969
818.1601, 1897.826
818.6422, 1892.066
819.1243, 1905.969
819.6064, 1923.761
820.0886, 1914.166
820.5707, 1885.114
821.0528, 1870.998
821.5349, 1883.645
822.0170, 1906.147
822.4991, 1922.514
822.9813, 1931.824
823.4634, 1925.602
823.9455, 1902.404
824.4276, 1894.069
824.9097, 1909.147
825.3918, 1933.048
825.8740, 1957.935
826.3561, 1980.892
826.8382, 1990.830
827.3203, 1978.149
827.8024, 1974.633
828.2845, 1985.044
828.7667, 1998.948
829.2488, 2013.480
829.7309, 2028.891
830.2130, 2045.047
830.6951, 2062.001
831.1772, 2081.527
831.6594, 2104.035
832.1415, 2129.229
832.6236, 2156.412
833.1057, 2186.729
833.5878, 2223.472
834.0699, 2264.663
834.5521, 2303.108
835.0342, 2334.707
835.5163, 2368.030
835.9984, 2409.061
836.4805, 2458.261
836.9626, 2521.176
837.4448, 2593.437
837.9269, 2658.576
838.4090, 2711.293
838.8911, 2762.471
839.3732, 2823.920
839.8553, 2892.125
840.3375, 2949.800
840.8196, 2996.289
841.3017, 3069.992
841.7838, 3182.135
842.2659, 3301.530
842.7480, 3409.724
843.2302, 3508.042
843.7123, 3599.154
844.1944, 3676.076
844.6765, 3770.264
845.1586, 3891.593
845.6407, 4015.278
846.1229, 4140.007
846.6050, 4259.002
847.0871, 4358.515
847.5692, 4441.419
848.0513, 4542.784
848.5334, 4694.200
849.0156, 4828.977
849.4977, 4913.152
849.9798, 4988.271
850.4619, 5097.662
850.9440, 5222.105
851.4261, 5313.042
851.9083, 5355.035
852.3904, 5380.082
852.8725, 5401.616
853.3546, 5423.657
853.8367, 5458.634
854.3188, 5495.166
854.8010, 5513.246
855.2831, 5507.590
855.7652, 5478.896
856.2473, 5427.194
856.7294, 5354.258
857.2115, 5255.215
857.6937, 5136.902
858.1758, 5032.194
858.6579, 4943.422
859.1400, 4845.090
859.6221, 4724.796
860.1042, 4590.944
860.5864, 4453.278
861.0685, 4312.648
861.5506, 4170.432
862.0327, 4022.203
862.5148, 3890.958
862.9969, 3788.081
863.4791, 3688.382
863.9612, 3569.868
864.4433, 3438.922
864.9254, 3320.373
865.4075, 3216.072
865.8896, 3119.694
866.3718, 3038.735
866.8539, 2955.744
867.3360, 2857.694
867.8181, 2758.733
868.3002, 2675.920
868.7823, 2609.675
869.2645, 2547.621
869.7466, 2485.449
870.2287, 2428.918
870.7108, 2386.368
871.1929, 2345.556
871.6750, 2294.030
872.1572, 2235.613
872.6393, 2180.382
873.1214, 2131.485
873.6035, 2088.966
874.0856, 2058.712
874.5677, 2029.709
875.0499, 1988.427
875.5320, 1938.760
876.0141, 1885.021
876.4962, 1831.188
876.9783, 1791.343
877.4604, 1777.284
877.9426, 1772.859
878.4247, 1749.650
878.9068, 1713.992
879.3889, 1691.208
879.8710, 1681.990
880.3531, 1673.493
880.8353, 1661.145
881.3174, 1639.205
881.7995, 1597.280
882.2816, 1541.063
882.7637, 1508.781
883.2458, 1503.855
883.7280, 1498.451
884.2101, 1488.241
884.6922, 1476.820
885.1743, 1466.677
885.6564, 1456.725
886.1385, 1443.944
886.6207, 1426.577
887.1028, 1415.010
887.5849, 1417.116
888.0670, 1412.292
888.5491, 1391.275
889.0313, 1364.611
889.5134, 1336.890
889.9955, 1310.507
890.4776, 1296.695
890.9597, 1306.751
891.4418, 1310.379
891.9240, 1296.245
892.4061, 1282.584
892.8882, 1282.947
893.3703, 1287.505
893.8524, 1279.628
894.3345, 1258.564
894.8167, 1244.699
895.2988, 1255.546
895.7809, 1264.280
896.2630, 1257.157
896.7451, 1240.317
897.2272, 1209.562
897.7094, 1176.436
898.1915, 1170.585
898.6736, 1202.829
899.1557, 1235.080
899.6378, 1238.283
900.1199, 1223.508
900.6021, 1191.683
901.0842, 1156.414
901.5663, 1150.575
902.0484, 1174.651
902.5305, 1197.903
903.0126, 1201.388
903.4948, 1193.281
903.9769, 1180.953
904.4590, 1167.400
904.9411, 1163.662
905.4232, 1169.001
905.9053, 1175.359
906.3875, 1180.051
906.8696, 1181.438
907.3517, 1176.957
907.8338, 1169.600
908.3159, 1171.610
908.7980, 1183.129
909.2802, 1180.928
909.7623, 1159.780
910.2444, 1147.518
910.7265, 1159.544
911.2086, 1181.062
911.6907, 1189.797
912.1729, 1186.054
912.6550, 1196.036
913.1371, 1228.769
913.6192, 1245.770
914.1013, 1234.567
914.5834, 1217.512
915.0656, 1208.633
915.5477, 1204.360
916.0298, 1195.470
916.5119, 1178.063
916.9940, 1170.756
917.4761, 1178.665
917.9583, 1189.455
918.4404, 1204.746
918.9225, 1218.053
919.4046, 1225.209
919.8867, 1226.173
920.3688, 1220.513
920.8510, 1203.658
921.3331, 1190.286
921.8152, 1176.625
922.2973, 1173.645
922.7794, 1199.278
923.2615, 1229.967
923.7437, 1237.994
924.2258, 1222.894
924.7079, 1202.237
925.1900, 1174.672
925.6721, 1153.246
926.1542, 1142.658
926.6364, 1140.949
927.1185, 1153.524
927.6006, 1171.086
928.0827, 1177.704
928.5648, 1170.581
929.0469, 1162.344
929.5291, 1160.347
930.0112, 1159.434
930.4933, 1158.677
930.9754, 1154.775
931.4575, 1138.448
931.9396, 1115.677
932.4218, 1104.692
932.9039, 1111.833
933.3860, 1122.097
933.8681, 1126.213
934.3502, 1123.261
934.8323, 1105.465
935.3145, 1081.921
935.7966, 1073.807
936.2787, 1080.949
936.7608, 1085.759
937.2429, 1078.665
937.7250, 1070.275
938.2072, 1074.065
938.6893, 1085.972
939.1714, 1099.089
939.6535, 1111.913
940.1356, 1118.648
940.6177, 1118.502
941.0999, 1116.586
941.5820, 1116.145
942.0641, 1117.942
942.5462, 1124.441
943.0283, 1134.573
943.5104, 1143.483
943.9926, 1150.795
944.4747, 1152.649
944.9568, 1147.585
945.4389, 1148.338
945.9210, 1168.321
946.4031, 1197.892
946.8853, 1203.222
947.3674, 1234.192
947.8495, 1206.087
948.3316, 1276.463
948.8137, 1328.499
949.2958, 1333.738
949.7780, 1323.096
950.2601, 1329.330
950.7422, 1350.659
951.2243, 1379.469
951.7064, 1417.659
952.1885, 1449.284
952.6707, 1469.422
953.1528, 1495.370
953.6349, 1536.027
954.1170, 1584.930
954.5991, 1635.675
955.0812, 1687.521
955.5634, 1728.922
956.0455, 1754.793
956.5276, 1784.910
957.0097, 1819.869
957.4918, 1864.384
957.9739, 1925.766
958.4561, 1993.213
958.9382, 2049.049
959.4203, 2092.785
959.9024, 2134.528
960.3845, 2174.747
960.8666, 2212.412
961.3488, 2252.457
961.8309, 2282.844
962.3130, 2293.490
962.7951, 2290.849
963.2772, 2290.137
963.7593, 2296.621
964.2415, 2276.679
964.7236, 2214.697
965.2057, 2148.950
965.6878, 2076.695
966.1699, 2011.159
966.6520, 1967.224
967.1342, 1934.420
967.6163, 1888.961
968.0984, 1827.766
968.5805, 1764.188
969.0626, 1690.441
969.5447, 1625.291
970.0269, 1575.298
970.5090, 1533.847
970.9911, 1500.492
971.4732, 1470.929
971.9553, 1434.023
972.4374, 1385.056
972.9196, 1341.925
973.4017, 1309.521
973.8838, 1279.684
974.3659, 1252.016
974.8480, 1223.747
975.3301, 1187.173
975.8123, 1148.302
976.2944, 1127.936
976.7765, 1136.534
977.2586, 1139.486
977.7407, 1121.141
978.2228, 1105.333
978.7050, 1108.634
979.1871, 1114.716
979.6692, 1106.350
980.1513, 1085.906
980.6334, 1065.620
981.1155, 1046.731
981.5977, 1032.581
982.0798, 1026.290
982.5619, 1022.504
983.0440, 1018.174
983.5261, 1015.055
984.0082, 1017.333
984.4904, 1022.917
984.9725, 1022.723
985.4546, 1011.008
985.9367, 1003.466
986.4188, 1013.545
986.9009, 1020.559
987.3831, 1006.593
987.8652, 986.8191
988.3473, 977.7642
988.8294, 980.5816
989.3115, 991.6804
989.7936, 1015.870
990.2758, 1030.702
990.7579, 1017.697
991.2400, 1002.434
991.7221, 1003.952
992.2042, 1011.014
992.6863, 1006.833
993.1685, 993.1816
993.6506, 986.2853
994.1327, 993.2178
994.6148, 1002.398
995.0969, 1010.327
995.5790, 1017.015
996.0612, 1024.124
996.5433, 1028.891
997.0254, 1025.280
997.5075, 1015.497
997.9896, 1011.093
998.4717, 1017.957
998.9539, 1024.661
999.4360, 1025.026
999.9181, 1024.390
1000.400, 1026.911
1000.882, 1030.350
1001.364, 1030.633
1001.847, 1028.608
1002.329, 1030.258
1002.811, 1040.291
1003.293, 1045.828
1003.775, 1034.039
1004.257, 1023.043
1004.739, 1033.464
1005.221, 1046.756
1005.703, 1034.513
1006.186, 1001.206
1006.668, 976.0106
1007.150, 969.2258
1007.632, 969.8582
1008.114, 984.5167
1008.596, 992.1072
1009.078, 971.0251
1009.560, 940.3044
1010.043, 920.8538
1010.525, 914.3815
1011.007, 915.1028
1011.489, 921.7403
1011.971, 933.6295
1012.453, 965.8100
1012.935, 985.7665
1013.417, 960.9497
1013.899, 922.3887
1014.382, 906.2910
1014.864, 909.5715
1015.346, 905.5988
1015.828, 882.1329
1016.310, 873.0924
1016.792, 910.9005
1017.274, 943.5969
1017.756, 934.4723
1018.239, 912.7136
1018.721, 910.0444
1019.203, 922.1685
1019.685, 927.3077
1020.167, 919.6774
1020.649, 908.9504
1021.131, 888.3831
1021.613, 877.6539
1022.095, 895.6201
1022.578, 919.1577
1023.060, 926.4283
1023.542, 921.5222
1024.024, 919.9731
1024.506, 926.1287
1024.988, 925.5273
1025.470, 906.5539
1025.952, 890.5212
1026.435, 887.2910
1026.917, 888.3892
1027.399, 886.2858
1027.881, 883.3534
1028.363, 886.5087
1028.845, 897.6445
1029.327, 905.9566
1029.809, 905.6292
1030.292, 907.5976
1030.774, 927.1125
1031.256, 937.5174
1031.738, 907.0744
1032.220, 860.5900
1032.702, 845.0998
1033.184, 866.4095
1033.666, 882.8209
1034.148, 888.3652
1034.630, 891.3429
1035.113, 891.7153
1035.595, 891.3310
1036.077, 894.4858
1036.559, 895.7841
1037.041, 883.4098
1037.523, 856.5023
1038.005, 843.7595
1038.487, 858.4596
1038.970, 866.0671
1039.452, 857.0627
1039.934, 850.5518
1040.416, 856.4056
1040.898, 867.8567
1041.380, 880.3665
1041.862, 892.5588
1042.344, 887.5627
1042.826, 848.3908
1043.309, 830.5507
1043.791, 848.3364
1044.273, 864.0833
1044.755, 861.5999
1045.237, 855.0507
1045.719, 859.5650
1046.201, 860.3663
1046.683, 864.0966
1047.166, 873.6739
1047.648, 876.9893
1048.130, 892.8944
1048.612, 902.3269
1049.094, 898.6211
1049.576, 888.5206
1050.058, 875.3597
1050.540, 863.1191
1051.022, 864.1536
1051.505, 880.4179
1051.987, 891.2663
1052.469, 897.0908
1052.951, 892.3088
1053.433, 872.9609
1053.915, 857.9769
1054.397, 861.0773
1054.879, 872.5709
1055.361, 874.4427
1055.844, 867.6359
1056.326, 863.1570
1056.808, 860.9746
1057.290, 859.2075
1057.772, 857.4719
1058.254, 862.7498
1058.736, 879.1884
1059.218, 898.7422
1059.701, 912.0782
1060.183, 918.8001
1060.665, 913.9891
1061.147, 900.6425
1061.629, 896.6972
1062.111, 902.8572
1062.593, 907.0084
1063.075, 904.4851
1063.557, 900.3753
1064.040, 899.9581
1064.522, 894.7605
1065.004, 894.7316
1065.486, 885.9669
1065.968, 879.1851
1066.450, 875.0242
1066.932, 875.3036
1067.414, 879.4310
1067.896, 880.0070
1068.379, 870.7057
1068.861, 860.7084
1069.343, 861.0891
1069.825, 866.6608
1070.307, 872.0767
1070.789, 876.2064
1071.271, 878.3862
1071.753, 878.0023
1072.236, 871.9533
1072.718, 857.2987
1073.200, 847.9319
1073.682, 862.4954
1074.164, 877.3073
1074.646, 866.9421
1075.128, 849.3490
1075.610, 846.7974
1076.093, 857.2350
1076.575, 869.1821
1077.057, 879.7610
1077.539, 887.3212
1078.021, 899.4829
1078.503, 897.3778
1078.985, 851.2686
1079.467, 808.5453
1079.949, 810.0699
1080.432, 838.2173
1080.914, 865.3266
1081.396, 887.2691
1081.878, 897.4147
1082.360, 883.9052
1082.842, 874.9757
1083.324, 876.7838
1083.806, 881.7181
1084.288, 889.5263
1084.771, 896.4029
1085.253, 897.8638
1085.735, 894.7310
1086.217, 890.8140
1086.699, 885.3303
1087.181, 881.3066
1087.663, 880.1074
1088.145, 877.0941
1088.628, 867.7781
1089.110, 862.9450
1089.592, 873.0362
1090.074, 870.3557
1090.556, 894.3433
1091.038, 885.7343
1091.520, 889.8237
1092.002, 910.6602
1092.484, 915.8199
1092.967, 897.5812
1093.449, 879.8107
1093.931, 874.1022
1094.413, 877.4185
1094.895, 888.4297
1095.377, 902.1565
1095.859, 897.0018
1096.341, 876.0175
1096.823, 862.9525
1097.306, 859.2297
1097.788, 856.5121
1098.270, 852.3469
1098.752, 853.6496
1099.234, 867.4966
1099.716, 883.0308
1100.198, 879.8598
1100.680, 889.5268
1101.163, 873.1217
1101.645, 886.5627
1102.127, 883.4498
1102.609, 864.1548
1103.091, 850.6801
1103.573, 853.4236
1104.055, 863.1189
1104.537, 877.7397
1105.020, 889.8517
1105.502, 892.4792
1105.984, 888.6744
1106.466, 881.5510
1106.948, 871.4901
1107.430, 853.7435
1107.912, 828.9012
1108.394, 820.2792
1108.876, 854.9384
1109.359, 880.8399
1109.841, 868.6807
1110.323, 853.0488
1110.805, 855.2773
1111.287, 865.8417
1111.769, 875.2588
1112.251, 881.5815
1112.733, 878.4750
1113.215, 855.2857
1113.698, 848.1312
1114.180, 874.1035
1114.662, 890.1790
1115.144, 879.5966
1115.626, 866.9853
1116.108, 869.8292
1116.590, 880.5186
1117.072, 885.5688
1117.555, 884.9689
1118.037, 877.1187
1118.519, 859.0189
1119.001, 850.9248
1119.483, 855.8644
1119.965, 868.5953
1120.447, 888.7318
1120.929, 903.0217
1121.411, 896.5121
1121.894, 877.1969
1122.376, 863.2758
1122.858, 855.2038
1123.340, 859.0317
1123.822, 871.6421
1124.304, 875.5894
1124.786, 867.3862
1125.268, 851.9707
1125.750, 831.2921
1126.233, 819.2752
1126.715, 836.7198
1127.197, 867.9833
1127.679, 902.8445
1128.161, 929.4191
1128.643, 921.1017
1129.125, 889.5097
1129.607, 868.7216
1130.090, 867.0963
1130.572, 868.6221
1131.054, 867.5242
1131.536, 863.5620
1132.018, 851.3376
1132.500, 842.0240
1132.982, 845.0250
1133.464, 853.9891
1133.947, 864.2473
1134.429, 873.2266
1134.911, 872.7915
1135.393, 856.2421
1135.875, 850.0091
1136.357, 876.5134
1136.839, 881.8810
1137.321, 835.0106
1137.803, 797.9678
1138.286, 812.9369
1138.768, 849.4519
1139.250, 862.3618
1139.732, 854.6041
1140.214, 856.3694
1140.696, 870.7332
1141.178, 866.9913
1141.660, 840.5559
1142.142, 826.8705
1142.625, 837.8477
1143.107, 854.5867
1143.589, 862.8996
1144.071, 865.9646
1144.553, 869.2679
1145.035, 871.8914
1145.517, 871.1733
1145.999, 867.2794
1146.482, 857.9306
1146.964, 845.7451
1147.446, 842.2241
1147.928, 851.1324
1148.410, 861.1526
1148.892, 864.7856
1149.374, 864.6646
1149.856, 858.1783
1150.339, 853.6845
1150.821, 863.5884
1151.303, 878.6982
1151.785, 885.1741
1152.267, 882.6946
1152.749, 878.8493
1153.231, 875.3259
1153.713, 871.0554
1154.195, 863.0219
1154.677, 858.0098
1155.160, 858.1245
1155.642, 861.8872
1156.124, 869.5085
1156.606, 879.2805
1157.088, 890.2562
1157.570, 901.6076
1158.052, 902.7834
1158.534, 891.4252
1159.017, 880.3835
1159.499, 870.1525
1159.981, 859.6270
1160.463, 847.3274
1160.945, 846.9831
1161.427, 871.3368
1161.909, 898.6254
1162.391, 883.9541
1162.874, 845.3066
1163.356, 848.2063
1163.838, 878.6945
1164.320, 893.4039
1164.802, 889.7926
1165.284, 880.6327
1165.766, 871.0728
1166.248, 864.8764
1166.730, 864.8622
1167.213, 868.1826
1167.695, 870.5129
1168.177, 877.1820
1168.659, 902.0091
1169.141, 927.3606
1169.623, 928.8077
1170.105, 911.6498
1170.587, 896.4852
1171.069, 886.8220
1171.552, 880.0132
1172.034, 871.4216
1172.516, 872.4063
1172.998, 896.8965
1173.480, 913.3941
1173.962, 905.2031
1174.444, 887.3762
1174.926, 873.1584
1175.409, 863.9025
1175.891, 866.8590
1176.373, 883.6544
1176.855, 888.2307
1177.337, 880.3110
1177.819, 873.3667
1178.301, 869.8517
1178.783, 863.4016
1179.266, 850.8522
1179.748, 844.0645
1180.230, 859.3522
1180.712, 880.9124
1181.194, 882.7554
1181.676, 873.1621
1182.158, 860.0329
1182.640, 849.5506
1183.122, 855.3506
1183.604, 874.7947
1184.087, 890.4541
1184.569, 896.5593
1185.051, 893.7879
1185.533, 872.6800
1186.015, 856.1174
1186.497, 853.2241
1186.979, 858.7064
1187.461, 877.3517
1187.944, 896.4597
1188.426, 895.9359
1188.908, 879.6079
1189.390, 870.8967
1189.872, 870.1467
1190.354, 877.3557
1190.836, 896.0735
1191.318, 906.8273
1191.801, 904.8890
1192.283, 895.9283
1192.765, 881.8326
1193.247, 873.1345
1193.729, 885.3781
1194.211, 909.0788
1194.693, 927.4601
1195.175, 936.2112
1195.657, 914.2081
1196.140, 874.3421
1196.622, 852.8680
1197.104, 856.0278
1197.586, 874.9911
1198.068, 908.4227
1198.550, 930.0654
1199.032, 913.6620
1199.514, 893.4943
1199.996, 882.9586
1200.479, 882.6784
1200.961, 907.0573
1201.443, 933.1448
1201.925, 917.9213
1202.407, 930.0795
1202.889, 929.2474
1203.371, 906.5079
1203.853, 918.5439
1204.336, 876.1715
1204.818, 855.8871
1205.300, 877.3732
1205.782, 902.4772
1206.264, 911.3032
1206.746, 910.9775
1207.228, 908.1141
##END=



