##NAMES=Afwillite
##RRUFFID=R080022
##IDEAL CHEMISTRY=Ca_3_(SiO_4_)(SiO_2_(OH)_2_)&#183;2H_2_O
##LOCALITY=Crestmore Quarry, Riverside County, Jurupa Mountains, California, USA
##OWNER=Michael Scott
##SOURCE=Michael Scott
##DESCRIPTION=Colorless, prismatic and elongated crystals associated with colorless fibers of thaumasite, R060814
##STATUS=The identification of this mineral is confirmed by single-crystal X-ray diffraction and chemical analysis.
##URL=rruff.info/R080022
##MEASURED CHEMISTRY=Ca_3.00_(Si_1.00_O_3_)_2_(OH)_2_Â·2H_2_O; trace amounts of Fe, Al, Cr; OH estimated by charge balance; H_2_O by difference;
142.5821, 151.5289
143.0643, 151.9398
143.5464, 152.5681
144.0285, 153.0669
144.5106, 153.4011
144.9927, 153.7064
145.4748, 154.0647
145.9570, 154.3801
146.4391, 154.3429
146.9212, 153.7869
147.4033, 153.0839
147.8854, 152.4058
148.3675, 151.9199
148.8497, 151.1904
149.3318, 150.0198
149.8139, 148.5409
150.2960, 147.4236
150.7781, 146.9330
151.2602, 146.6113
151.7424, 146.2177
152.2245, 145.7130
152.7066, 145.1799
153.1887, 144.4757
153.6708, 143.6481
154.1529, 143.2226
154.6351, 143.6449
155.1172, 144.2327
155.5993, 144.5286
156.0814, 143.6255
156.5635, 143.3018
157.0456, 144.2120
157.5278, 146.3514
158.0099, 148.1649
158.4920, 149.0437
158.9741, 149.6171
159.4562, 150.4486
159.9383, 152.4910
160.4205, 154.0726
160.9026, 154.5928
161.3847, 153.9970
161.8668, 152.8942
162.3489, 151.2493
162.8310, 149.2872
163.3132, 147.2690
163.7953, 145.2134
164.2774, 143.1755
164.7595, 141.1409
165.2416, 139.0769
165.7237, 137.1838
166.2059, 135.3107
166.6880, 133.6840
167.1701, 132.6502
167.6522, 132.7522
168.1343, 133.2442
168.6164, 133.5461
169.0986, 133.5136
169.5807, 133.6779
170.0628, 134.5566
170.5449, 135.8855
171.0270, 137.1424
171.5091, 137.9310
171.9913, 138.5940
172.4734, 139.5798
172.9555, 141.1206
173.4376, 142.4259
173.9197, 142.7627
174.4018, 142.3212
174.8840, 141.6004
175.3661, 141.0762
175.8482, 140.3855
176.3303, 138.9615
176.8124, 136.5262
177.2945, 133.7877
177.7767, 131.3706
178.2588, 129.2433
178.7409, 127.3863
179.2230, 125.7489
179.7051, 124.3499
180.1872, 123.2669
180.6694, 122.5459
181.1515, 122.0568
181.6336, 121.5933
182.1157, 121.1800
182.5978, 120.9941
183.0799, 121.1600
183.5621, 121.6476
184.0442, 122.4152
184.5263, 123.5805
185.0084, 124.8591
185.4905, 125.7773
185.9726, 126.3400
186.4547, 126.7879
186.9369, 127.2732
187.4190, 127.7948
187.9011, 128.3276
188.3832, 128.8787
188.8653, 129.4371
189.3474, 130.0660
189.8296, 130.7825
190.3117, 131.2967
190.7938, 131.2515
191.2759, 130.7192
191.7580, 130.2790
192.2401, 130.1280
192.7223, 130.1135
193.2044, 129.7467
193.6865, 128.9918
194.1686, 128.1313
194.6507, 127.3454
195.1328, 126.6374
195.6150, 126.1778
196.0971, 126.0717
196.5792, 126.2310
197.0613, 126.2362
197.5434, 126.0147
198.0255, 125.9741
198.5077, 126.6096
198.9898, 127.9491
199.4719, 129.2786
199.9540, 130.4772
200.4361, 131.5286
200.9182, 132.3853
201.4004, 133.0564
201.8825, 133.4905
202.3646, 133.6789
202.8467, 133.6434
203.3288, 133.1590
203.8109, 132.0181
204.2931, 130.3270
204.7752, 129.0329
205.2573, 128.2432
205.7394, 127.5935
206.2215, 126.5936
206.7036, 125.1090
207.1858, 124.0294
207.6679, 123.5984
208.1500, 123.7895
208.6321, 124.2720
209.1142, 125.1518
209.5963, 126.1237
210.0785, 126.7932
210.5606, 127.0096
211.0427, 127.4833
211.5248, 128.4632
212.0069, 129.9346
212.4890, 131.2427
212.9712, 132.3672
213.4533, 133.3666
213.9354, 134.2541
214.4175, 134.9681
214.8996, 135.7981
215.3817, 136.9274
215.8639, 138.3484
216.3460, 139.2477
216.8281, 139.3606
217.3102, 139.3031
217.7923, 139.7863
218.2744, 141.0086
218.7566, 142.2734
219.2387, 143.4101
219.7208, 144.4267
220.2029, 145.3917
220.6850, 146.2152
221.1671, 147.0832
221.6493, 148.1891
222.1314, 149.5919
222.6135, 151.1177
223.0956, 152.6559
223.5777, 154.2133
224.0598, 156.2060
224.5420, 159.0975
225.0241, 161.9333
225.5062, 163.6887
225.9883, 163.9632
226.4704, 163.9635
226.9525, 163.9100
227.4347, 163.8041
227.9168, 163.6304
228.3989, 163.5470
228.8810, 163.2299
229.3631, 162.2659
229.8452, 160.1946
230.3274, 158.3725
230.8095, 157.1331
231.2916, 156.5004
231.7737, 155.8043
232.2558, 155.1110
232.7379, 154.2880
233.2201, 153.1902
233.7022, 151.6941
234.1843, 150.1634
234.6664, 148.6044
235.1485, 147.0258
235.6306, 145.7300
236.1128, 144.6595
236.5949, 143.9141
237.0770, 143.6463
237.5591, 144.1857
238.0412, 144.5725
238.5233, 144.7011
239.0055, 144.5695
239.4876, 143.9545
239.9697, 142.6750
240.4518, 141.1076
240.9339, 139.5610
241.4160, 138.0202
241.8982, 136.5287
242.3803, 135.0428
242.8624, 133.5665
243.3445, 132.4546
243.8266, 131.8803
244.3087, 131.4620
244.7909, 130.8844
245.2730, 130.0644
245.7551, 129.2392
246.2372, 128.3773
246.7193, 127.4985
247.2014, 126.9132
247.6836, 126.7764
248.1657, 126.7489
248.6478, 126.5854
249.1299, 126.2573
249.6120, 125.8385
250.0941, 125.2421
250.5762, 124.5240
251.0584, 124.1551
251.5405, 124.2842
252.0226, 124.5698
252.5047, 124.8049
252.9868, 125.0521
253.4689, 125.1100
253.9511, 124.9332
254.4332, 124.5473
254.9153, 124.0800
255.3974, 123.4725
255.8795, 122.8804
256.3617, 122.4125
256.8438, 122.1049
257.3259, 121.8398
257.8080, 121.6949
258.2901, 121.5819
258.7722, 121.1363
259.2544, 120.2742
259.7365, 119.2112
260.2186, 118.0266
260.7007, 116.7038
261.1828, 115.3358
261.6649, 113.9136
262.1471, 112.4543
262.6292, 110.9264
263.1113, 109.2334
263.5934, 107.6846
264.0755, 106.4780
264.5576, 105.7107
265.0398, 104.8738
265.5219, 103.8485
266.0040, 102.8117
266.4861, 102.2183
266.9682, 102.2700
267.4503, 102.2767
267.9325, 101.8645
268.4146, 100.8802
268.8967, 100.1482
269.3788, 99.63952
269.8609, 99.41457
270.3430, 99.71976
270.8252, 100.7602
271.3073, 101.6430
271.7894, 101.8787
272.2715, 101.3746
272.7536, 101.2796
273.2357, 101.7299
273.7179, 102.3889
274.2000, 102.6639
274.6821, 102.4087
275.1642, 102.4184
275.6463, 103.0743
276.1284, 104.3775
276.6106, 105.4476
277.0927, 106.2558
277.5748, 106.8923
278.0569, 107.4546
278.5390, 107.9384
279.0211, 108.3753
279.5032, 108.7817
279.9854, 109.1499
280.4675, 109.4547
280.9496, 109.7171
281.4317, 109.8512
281.9138, 109.6834
282.3959, 109.1987
282.8781, 108.8337
283.3602, 108.7200
283.8423, 108.8102
284.3244, 108.9204
284.8065, 109.0558
285.2886, 109.1820
285.7708, 109.2702
286.2529, 109.3202
286.7350, 109.3340
287.2171, 109.2814
287.6992, 109.2122
288.1813, 109.3619
288.6635, 109.7515
289.1456, 109.9742
289.6277, 109.5876
290.1098, 108.6844
290.5919, 107.9381
291.0740, 107.5181
291.5562, 107.1977
292.0383, 106.4968
292.5204, 105.4264
293.0025, 104.3496
293.4846, 103.5471
293.9667, 102.9327
294.4489, 102.1680
294.9310, 101.1738
295.4131, 100.1483
295.8952, 99.39113
296.3773, 98.88004
296.8594, 98.44418
297.3416, 97.96700
297.8237, 97.49382
298.3058, 97.16212
298.7879, 97.00184
299.2700, 96.86897
299.7521, 96.49500
300.2343, 95.98373
300.7164, 95.68778
301.1985, 96.00687
301.6806, 96.56608
302.1627, 96.73905
302.6448, 96.48817
303.1270, 96.13015
303.6091, 95.91193
304.0912, 95.80193
304.5733, 95.72499
305.0554, 95.70520
305.5375, 95.67420
306.0197, 95.51771
306.5018, 95.24503
306.9839, 95.01174
307.4660, 94.98843
307.9481, 95.06622
308.4302, 95.09416
308.9124, 95.04554
309.3945, 94.90990
309.8766, 94.62182
310.3587, 94.21104
310.8408, 93.84709
311.3229, 93.62186
311.8051, 93.49680
312.2872, 93.43809
312.7693, 93.43253
313.2514, 93.49772
313.7335, 93.69833
314.2156, 93.98796
314.6978, 94.23313
315.1799, 94.28826
315.6620, 94.32834
316.1441, 94.49009
316.6262, 94.84327
317.1083, 95.18874
317.5905, 95.35460
318.0726, 95.46262
318.5547, 95.72942
319.0368, 96.43072
319.5189, 97.14948
320.0010, 97.66572
320.4832, 97.93013
320.9653, 98.16258
321.4474, 98.37172
321.9295, 98.60003
322.4116, 98.89738
322.8937, 99.36728
323.3759, 99.82044
323.8580, 100.2438
324.3401, 100.6382
324.8222, 100.8688
325.3043, 100.7289
325.7864, 100.5196
326.2686, 100.4731
326.7507, 100.9553
327.2328, 101.2207
327.7149, 101.0642
328.1970, 100.5310
328.6791, 100.1179
329.1613, 99.99582
329.6434, 99.86777
330.1255, 99.58229
330.6076, 98.99773
331.0897, 98.46133
331.5718, 98.03145
332.0540, 97.65147
332.5361, 97.12495
333.0182, 96.14746
333.5003, 95.41800
333.9824, 95.28893
334.4645, 96.04529
334.9467, 96.53239
335.4288, 96.71965
335.9109, 96.65638
336.3930, 96.37094
336.8751, 95.71923
337.3572, 95.17857
337.8394, 94.90601
338.3215, 94.91466
338.8036, 94.93298
339.2857, 94.94698
339.7678, 94.99528
340.2499, 95.13638
340.7321, 95.38461
341.2142, 95.63198
341.6963, 95.87594
342.1784, 96.09641
342.6605, 96.14464
343.1426, 95.97547
343.6248, 95.84132
344.1069, 95.98294
344.5890, 96.38478
345.0711, 96.75948
345.5532, 97.06902
346.0353, 97.31822
346.5175, 97.52601
346.9996, 97.69299
347.4817, 97.75902
347.9638, 97.55737
348.4459, 97.20498
348.9280, 97.18537
349.4102, 97.58992
349.8923, 98.08961
350.3744, 98.28423
350.8565, 98.21510
351.3386, 98.04171
351.8207, 97.69348
352.3029, 97.33840
352.7850, 97.29077
353.2671, 97.55733
353.7492, 97.89643
354.2313, 98.32044
354.7134, 98.64453
355.1956, 98.51461
355.6777, 97.42183
356.1598, 96.20005
356.6419, 95.68009
357.1240, 95.75661
357.6061, 95.86335
358.0883, 95.62667
358.5704, 95.26583
359.0525, 94.99553
359.5346, 94.87366
360.0167, 94.82473
360.4988, 94.83189
360.9810, 94.87939
361.4631, 94.93388
361.9452, 95.06108
362.4273, 95.12896
362.9094, 95.00508
363.3915, 94.60223
363.8737, 94.34811
364.3558, 94.53243
364.8379, 94.89104
365.3200, 95.11494
365.8021, 94.96821
366.2842, 94.84230
366.7664, 94.88319
367.2485, 95.09666
367.7306, 95.23459
368.2127, 95.11650
368.6948, 95.01077
369.1769, 95.09592
369.6591, 95.80495
370.1412, 96.17532
370.6233, 95.90500
371.1054, 95.22409
371.5875, 95.02085
372.0696, 95.60471
372.5518, 96.29189
373.0339, 96.79773
373.5160, 97.03233
373.9981, 97.35313
374.4802, 97.81603
374.9623, 98.32386
375.4445, 98.68980
375.9266, 98.83701
376.4087, 99.06969
376.8908, 99.51318
377.3729, 100.1588
377.8550, 100.6800
378.3372, 101.0475
378.8193, 101.3572
379.3014, 101.6710
379.7835, 101.9885
380.2656, 102.3781
380.7477, 102.8432
381.2299, 103.3940
381.7120, 104.1145
382.1941, 105.0018
382.6762, 105.8774
383.1583, 106.6383
383.6404, 107.2889
384.1226, 107.7802
384.6047, 108.0693
385.0868, 108.3368
385.5689, 108.8732
386.0510, 109.6047
386.5331, 110.2608
387.0153, 110.5996
387.4974, 110.8419
387.9795, 111.3421
388.4616, 112.1049
388.9437, 112.8935
389.4258, 113.4858
389.9080, 114.0021
390.3901, 114.6123
390.8722, 115.4615
391.3543, 116.3131
391.8364, 117.0239
392.3185, 117.5925
392.8007, 118.0384
393.2828, 118.2272
393.7649, 118.3873
394.2470, 118.7040
394.7291, 119.2934
395.2112, 119.7911
395.6934, 119.8465
396.1755, 119.7747
396.6576, 120.0482
397.1397, 121.2334
397.6218, 122.3490
398.1039, 122.9936
398.5861, 123.0954
399.0682, 123.3977
399.5503, 124.1498
400.0324, 125.0255
400.5145, 125.7787
400.9966, 126.3580
401.4788, 126.8933
401.9609, 127.3644
402.4430, 127.7962
402.9251, 128.2581
403.4072, 128.6170
403.8893, 129.2149
404.3714, 130.2803
404.8535, 132.0071
405.3357, 133.3710
405.8178, 134.1904
406.2999, 134.8660
406.7820, 136.0284
407.2641, 137.7749
407.7462, 139.4421
408.2284, 140.8441
408.7105, 141.9950
409.1926, 143.0809
409.6747, 144.1017
410.1568, 145.0623
410.6389, 145.9467
411.1211, 146.7623
411.6032, 147.6187
412.0853, 148.5875
412.5674, 149.5039
413.0495, 150.2573
413.5316, 150.8108
414.0138, 150.9626
414.4959, 150.4404
414.9780, 149.5084
415.4601, 148.5785
415.9422, 147.6716
416.4243, 146.6448
416.9065, 145.3672
417.3886, 143.8902
417.8707, 142.3169
418.3528, 140.6418
418.8349, 138.9026
419.3170, 137.0731
419.7992, 135.1559
420.2813, 133.2699
420.7634, 131.3804
421.2455, 129.5517
421.7276, 127.8502
422.2097, 126.3502
422.6919, 124.7845
423.1740, 122.8990
423.6561, 120.9437
424.1382, 119.2555
424.6203, 118.1114
425.1024, 117.0602
425.5846, 116.0204
426.0667, 114.9981
426.5488, 113.9142
427.0309, 112.7373
427.5130, 111.5140
427.9951, 110.2574
428.4773, 108.8914
428.9594, 107.6599
429.4415, 106.5933
429.9236, 105.6693
430.4057, 104.8236
430.8878, 104.0729
431.3700, 103.3663
431.8521, 102.6634
432.3342, 101.9648
432.8163, 101.4155
433.2984, 101.0371
433.7805, 100.7360
434.2627, 100.4480
434.7448, 100.1641
435.2269, 99.75727
435.7090, 99.07133
436.1911, 98.36481
436.6732, 98.29907
437.1554, 98.79226
437.6375, 99.19195
438.1196, 98.96690
438.6017, 98.39118
439.0838, 97.84710
439.5659, 97.34354
440.0481, 97.05959
440.5302, 97.31786
441.0123, 97.86880
441.4944, 98.29387
441.9765, 98.39320
442.4586, 98.33859
442.9408, 98.13420
443.4229, 97.81752
443.9050, 97.65268
444.3871, 97.96484
444.8692, 98.32640
445.3513, 98.42549
445.8335, 97.93960
446.3156, 97.68338
446.7977, 98.03769
447.2798, 98.67647
447.7619, 99.02199
448.2440, 98.53492
448.7262, 98.29740
449.2083, 98.63668
449.6904, 99.59111
450.1725, 100.3478
450.6546, 100.8083
451.1367, 101.1839
451.6189, 101.6376
452.1010, 102.2132
452.5831, 102.7251
453.0652, 103.1468
453.5473, 103.5162
454.0294, 103.9375
454.5116, 104.4219
454.9937, 104.8809
455.4758, 105.2767
455.9579, 105.6147
456.4400, 105.9202
456.9221, 106.1901
457.4043, 106.4741
457.8864, 106.9021
458.3685, 107.3911
458.8506, 107.7007
459.3327, 107.7242
459.8148, 107.6154
460.2970, 107.5542
460.7791, 107.5142
461.2612, 107.4097
461.7433, 107.1028
462.2254, 106.7674
462.7076, 106.5720
463.1897, 106.5398
463.6718, 106.5300
464.1539, 106.3907
464.6360, 106.2724
465.1181, 106.3285
465.6003, 106.8224
466.0824, 107.2538
466.5645, 107.4687
467.0466, 107.5129
467.5287, 107.5632
468.0108, 107.7240
468.4930, 107.8153
468.9751, 107.7739
469.4572, 107.5870
469.9393, 107.3069
470.4214, 106.8910
470.9035, 106.4205
471.3857, 105.9302
471.8678, 105.3061
472.3499, 105.0679
472.8320, 105.4887
473.3141, 106.2749
473.7962, 106.3314
474.2784, 105.5708
474.7605, 104.7193
475.2426, 104.1489
475.7247, 103.8418
476.2068, 103.7513
476.6889, 103.9048
477.1711, 104.0865
477.6532, 103.9971
478.1353, 103.7386
478.6174, 103.5977
479.0995, 103.7264
479.5816, 103.9455
480.0638, 104.0438
480.5459, 104.0544
481.0280, 104.1013
481.5101, 104.2941
481.9922, 104.5239
482.4743, 104.6515
482.9565, 104.6114
483.4386, 104.7577
483.9207, 105.5094
484.4028, 106.4034
484.8849, 106.9530
485.3670, 106.4774
485.8492, 106.2901
486.3313, 106.8505
486.8134, 107.9802
487.2955, 108.7372
487.7776, 108.7538
488.2597, 108.8267
488.7419, 109.3352
489.2240, 110.4350
489.7061, 111.1710
490.1882, 111.4106
490.6703, 111.4845
491.1524, 111.7484
491.6346, 112.2178
492.1167, 112.7810
492.5988, 113.4346
493.0809, 114.1593
493.5630, 114.9313
494.0451, 115.7518
494.5273, 116.5003
495.0094, 117.0768
495.4915, 117.5393
495.9736, 117.9975
496.4557, 118.4498
496.9378, 118.9807
497.4200, 119.7746
497.9021, 120.6664
498.3842, 121.3770
498.8663, 121.7306
499.3484, 122.0311
499.8305, 122.4788
500.3127, 123.0267
500.7948, 123.5514
501.2769, 124.2376
501.7590, 124.7022
502.2411, 124.7403
502.7232, 124.3018
503.2054, 123.7096
503.6875, 122.6612
504.1696, 121.6995
504.6517, 121.2639
505.1338, 121.8699
505.6159, 122.0714
506.0981, 121.5768
506.5802, 120.7222
507.0623, 120.3507
507.5444, 120.6528
508.0265, 120.8035
508.5086, 120.4200
508.9908, 119.5883
509.4729, 118.9811
509.9550, 118.5959
510.4371, 118.4587
510.9192, 118.7409
511.4013, 119.3235
511.8835, 119.7142
512.3655, 119.7943
512.8477, 119.8243
513.3298, 120.1599
513.8119, 120.6855
514.2940, 121.1245
514.7761, 121.3145
515.2582, 121.4000
515.7404, 121.3877
516.2225, 121.3195
516.7046, 121.4755
517.1867, 122.1990
517.6688, 123.0365
518.1509, 123.6933
518.6331, 124.0686
519.1152, 124.4069
519.5973, 124.8916
520.0794, 125.2939
520.5615, 125.3195
521.0436, 124.7136
521.5258, 124.1217
522.0079, 123.6509
522.4900, 123.2704
522.9721, 122.8482
523.4542, 122.4160
523.9363, 121.8731
524.4185, 121.1361
524.9006, 120.2036
525.3827, 119.3442
525.8648, 118.5908
526.3469, 117.7362
526.8290, 116.3716
527.3112, 114.6763
527.7933, 113.3455
528.2754, 112.6370
528.7575, 112.1696
529.2396, 111.5846
529.7217, 110.8677
530.2039, 109.9907
530.6860, 108.6476
531.1681, 107.3501
531.6502, 106.4981
532.1323, 106.0977
532.6144, 105.7177
533.0966, 105.1896
533.5787, 104.6127
534.0608, 104.0624
534.5429, 103.7278
535.0250, 103.1265
535.5071, 101.9433
535.9893, 100.5822
536.4714, 99.67004
536.9535, 99.44515
537.4356, 99.21684
537.9177, 98.86049
538.3998, 98.38129
538.8820, 97.80630
539.3641, 97.12570
539.8462, 96.43193
540.3283, 95.71753
540.8104, 95.01891
541.2925, 94.64292
541.7747, 94.64481
542.2568, 94.70235
542.7389, 94.31736
543.2210, 93.72599
543.7031, 93.54436
544.1852, 94.22649
544.6674, 94.91943
545.1495, 94.71998
545.6316, 93.90830
546.1137, 93.18352
546.5958, 92.88719
547.0779, 92.73991
547.5601, 92.64524
548.0422, 92.59821
548.5243, 92.46867
549.0064, 92.07858
549.4885, 91.70433
549.9706, 91.52456
550.4528, 91.68006
550.9349, 91.76469
551.4170, 91.76897
551.8991, 91.70939
552.3812, 91.57632
552.8633, 91.31771
553.3455, 91.21144
553.8276, 91.38709
554.3097, 91.72632
554.7918, 91.81050
555.2739, 91.63912
555.7560, 91.48180
556.2382, 91.60297
556.7203, 91.83788
557.2024, 91.05160
557.6845, 91.96155
558.1666, 92.46054
558.6487, 92.57068
559.1309, 91.12724
559.6130, 91.68991
560.0951, 91.44862
560.5772, 91.17437
561.0593, 92.01939
561.5414, 90.80193
562.0236, 91.62920
562.5057, 91.64024
562.9878, 92.02486
563.4699, 91.60056
563.9520, 91.42609
564.4341, 92.06082
564.9163, 92.24749
565.3984, 91.73006
565.8805, 92.13843
566.3626, 90.89269
566.8447, 91.09845
567.3268, 91.93047
567.8090, 91.45370
568.2911, 91.87685
568.7732, 91.95728
569.2553, 90.48011
569.7374, 91.71173
570.2195, 91.77190
570.7017, 90.62922
571.1838, 91.76804
571.6659, 91.10598
572.1480, 91.34242
572.6301, 91.48832
573.1122, 91.30891
573.5944, 90.84693
574.0765, 90.49055
574.5586, 90.52603
575.0407, 90.63546
575.5228, 90.59016
576.0049, 90.22210
576.4871, 90.10574
576.9692, 90.52374
577.4513, 91.06053
577.9334, 91.32645
578.4155, 91.19699
578.8976, 91.07455
579.3798, 90.98763
579.8619, 90.94930
580.3440, 91.02063
580.8261, 91.21291
581.3082, 91.37241
581.7903, 91.42348
582.2725, 91.39706
582.7546, 91.39364
583.2367, 91.40867
583.7188, 91.37679
584.2009, 91.14418
584.6830, 90.88022
585.1652, 90.85114
585.6473, 91.12940
586.1294, 91.37373
586.6115, 91.32022
587.0936, 91.15653
587.5757, 91.08045
588.0579, 91.18485
588.5400, 91.32840
589.0221, 91.51291
589.5042, 91.71655
589.9863, 91.89784
590.4684, 92.11246
590.9506, 92.20338
591.4327, 92.07375
591.9148, 91.76367
592.3969, 91.63381
592.8790, 91.70420
593.3611, 91.87170
593.8433, 92.12440
594.3254, 92.43160
594.8075, 92.64861
595.2896, 92.76961
595.7717, 92.81112
596.2538, 92.75279
596.7360, 92.63480
597.2181, 92.51985
597.7002, 92.40537
598.1823, 92.34498
598.6644, 92.37947
599.1465, 92.49254
599.6287, 92.65674
600.1108, 92.92737
600.5929, 93.17866
601.0750, 93.44254
601.5571, 93.68290
602.0392, 93.64429
602.5214, 92.98741
603.0035, 92.50753
603.4856, 92.59203
603.9677, 93.29498
604.4498, 93.79468
604.9319, 94.07113
605.4141, 94.21500
605.8962, 94.22789
606.3783, 94.14632
606.8604, 94.25752
607.3425, 94.63950
607.8246, 95.04453
608.3068, 95.11894
608.7889, 94.99414
609.2710, 94.94737
609.7531, 95.05656
610.2352, 95.30167
610.7173, 95.88067
611.1995, 96.60307
611.6816, 96.95766
612.1637, 96.33509
612.6458, 95.74883
613.1279, 95.60477
613.6100, 95.93647
614.0922, 96.27456
614.5743, 96.67966
615.0564, 97.01803
615.5385, 97.19478
616.0206, 97.17409
616.5027, 97.21011
616.9849, 97.30482
617.4670, 97.45109
617.9491, 97.57224
618.4312, 97.71262
618.9133, 97.63188
619.3954, 98.10736
619.8776, 98.39460
620.3597, 98.49850
620.8418, 98.15443
621.3239, 98.17137
621.8060, 97.91070
622.2881, 97.54767
622.7703, 97.34397
623.2524, 97.38232
623.7345, 97.08613
624.2166, 96.57185
624.6987, 96.17880
625.1808, 96.09620
625.6630, 96.35140
626.1451, 96.46180
626.6272, 96.38180
627.1093, 96.22947
627.5914, 96.03300
628.0735, 95.77422
628.5557, 95.79202
629.0378, 96.16759
629.5199, 96.57145
630.0020, 96.52116
630.4841, 96.17107
630.9662, 96.04353
631.4484, 96.39291
631.9305, 96.74886
632.4126, 96.53365
632.8947, 96.00031
633.3768, 95.65288
633.8589, 95.80689
634.3411, 96.08470
634.8232, 96.38428
635.3053, 96.69215
635.7874, 96.95044
636.2695, 97.13241
636.7516, 97.28215
637.2338, 97.38976
637.7159, 97.44884
638.1980, 97.61293
638.6801, 97.91467
639.1622, 98.22112
639.6443, 98.43884
640.1265, 98.56714
640.6086, 98.60917
641.0907, 98.54915
641.5728, 98.48887
642.0549, 98.54838
642.5370, 98.68190
643.0192, 98.80523
643.5013, 98.88676
643.9834, 98.97434
644.4655, 99.11216
644.9476, 99.27636
645.4297, 99.43079
645.9119, 99.73828
646.3940, 99.84686
646.8761, 99.54787
647.3582, 98.96017
647.8403, 98.52766
648.3224, 98.27534
648.8046, 98.12357
649.2867, 98.05576
649.7688, 98.06493
650.2509, 98.10648
650.7330, 98.18569
651.2151, 98.24198
651.6973, 98.19070
652.1794, 98.08820
652.6615, 98.05972
653.1436, 98.11304
653.6257, 98.25324
654.1078, 98.50957
654.5900, 98.84175
655.0721, 99.21722
655.5542, 99.65518
656.0363, 100.0759
656.5184, 100.3646
657.0005, 100.6518
657.4827, 101.1208
657.9648, 101.9151
658.4469, 102.6442
658.9290, 103.2182
659.4111, 103.7243
659.8932, 104.4308
660.3754, 105.3793
660.8575, 106.1566
661.3396, 106.5226
661.8217, 106.6687
662.3038, 107.1566
662.7859, 107.9186
663.2681, 108.4949
663.7502, 108.3100
664.2323, 107.9847
664.7144, 108.2358
665.1965, 109.0727
665.6786, 109.7471
666.1608, 109.8545
666.6429, 109.7619
667.1250, 109.6924
667.6071, 109.6920
668.0892, 109.6525
668.5714, 109.5999
669.0535, 109.4830
669.5356, 109.2567
670.0177, 108.9163
670.4998, 108.4895
670.9819, 107.9586
671.4641, 107.3970
671.9462, 106.8913
672.4283, 106.4471
672.9104, 106.0686
673.3925, 105.8332
673.8746, 105.5350
674.3568, 104.8711
674.8389, 103.9926
675.3210, 103.2274
675.8031, 102.9329
676.2852, 102.5592
676.7673, 101.7415
677.2495, 100.5863
677.7316, 99.79754
678.2137, 99.54774
678.6958, 99.44876
679.1779, 99.44282
679.6600, 99.51466
680.1422, 99.25883
680.6243, 98.60828
681.1064, 98.00713
681.5885, 97.85566
682.0706, 97.99635
682.5527, 97.91650
683.0349, 97.58608
683.5170, 97.16481
683.9991, 96.60558
684.4812, 96.10662
684.9633, 95.94755
685.4454, 96.34175
685.9276, 96.56611
686.4097, 96.10106
686.8918, 95.47305
687.3739, 95.27672
687.8560, 95.93549
688.3381, 96.29212
688.8203, 96.17691
689.3024, 95.83447
689.7845, 95.65072
690.2666, 95.62769
690.7487, 95.71328
691.2308, 95.93666
691.7130, 96.19234
692.1951, 96.31191
692.6772, 96.30883
693.1593, 96.23957
693.6414, 96.09473
694.1235, 95.92403
694.6057, 95.69605
695.0878, 95.45835
695.5699, 95.39565
696.0520, 95.75945
696.5341, 96.12437
697.0162, 96.31326
697.4984, 96.32881
697.9805, 96.39182
698.4626, 96.53611
698.9447, 96.66399
699.4268, 96.74596
699.9089, 96.77901
700.3911, 96.57977
700.8732, 96.11938
701.3553, 95.79449
701.8374, 96.18385
702.3195, 96.87661
702.8016, 97.08617
703.2838, 96.63832
703.7659, 96.22676
704.2480, 96.40137
704.7301, 96.75204
705.2122, 96.88073
705.6943, 96.50852
706.1765, 96.24767
706.6586, 96.15968
707.1407, 96.18874
707.6228, 96.30379
708.1049, 96.56168
708.5870, 96.64162
709.0692, 96.42905
709.5513, 96.13905
710.0334, 96.23679
710.5155, 96.63360
710.9976, 96.84023
711.4797, 96.54785
711.9618, 96.17754
712.4439, 96.20793
712.9260, 96.50355
713.4081, 96.73744
713.8903, 96.62392
714.3724, 96.58266
714.8545, 96.85838
715.3366, 97.38673
715.8187, 97.72227
716.3008, 97.79823
716.7830, 97.80041
717.2651, 97.79874
717.7472, 97.78197
718.2293, 97.59100
718.7114, 97.20789
719.1935, 96.95589
719.6757, 97.14094
720.1578, 97.56502
720.6399, 97.88256
721.1220, 98.07957
721.6041, 98.19445
722.0862, 98.21851
722.5684, 98.18737
723.0505, 98.06850
723.5326, 97.78999
724.0147, 97.78029
724.4968, 98.37440
724.9789, 99.01647
725.4611, 99.37678
725.9432, 99.41376
726.4253, 99.29484
726.9074, 98.98806
727.3895, 98.62594
727.8716, 98.27037
728.3538, 97.96684
728.8359, 97.94471
729.3180, 98.28376
729.8001, 98.71700
730.2822, 99.06483
730.7643, 99.33869
731.2465, 99.54701
731.7286, 99.68731
732.2107, 99.77000
732.6928, 99.68780
733.1749, 99.58685
733.6570, 99.72009
734.1392, 100.3353
734.6213, 100.5810
735.1034, 100.1867
735.5855, 99.53598
736.0676, 99.43867
736.5497, 99.86247
737.0319, 100.3379
737.5140, 100.7518
737.9961, 101.0703
738.4782, 101.2281
738.9603, 101.2529
739.4424, 101.2146
739.9246, 100.9629
740.4067, 100.8392
740.8888, 101.1354
741.3709, 101.7320
741.8530, 102.0620
742.3351, 101.9614
742.8173, 101.8021
743.2994, 101.6383
743.7815, 101.4992
744.2636, 101.5847
744.7457, 101.9103
745.2278, 102.2432
745.7100, 102.3583
746.1921, 102.4200
746.6742, 102.8139
747.1563, 103.4915
747.6384, 104.1013
748.1205, 104.3819
748.6027, 104.5746
749.0848, 104.8835
749.5669, 105.3295
750.0490, 105.5592
750.5311, 105.2225
751.0132, 105.0071
751.4954, 105.2970
751.9775, 106.1489
752.4596, 106.6974
752.9417, 106.9194
753.4238, 106.9775
753.9059, 106.8818
754.3881, 106.7414
754.8702, 106.8612
755.3523, 107.2661
755.8344, 107.7590
756.3165, 108.3134
756.7986, 108.8143
757.2808, 109.1232
757.7629, 109.1454
758.2450, 109.2730
758.7271, 109.5862
759.2092, 110.0152
759.6913, 110.5486
760.1735, 111.2349
760.6556, 111.7723
761.1377, 112.0951
761.6198, 112.4511
762.1019, 113.2345
762.5840, 114.2854
763.0662, 115.0185
763.5483, 115.2794
764.0304, 115.5233
764.5125, 116.0292
764.9946, 116.7665
765.4767, 117.7299
765.9589, 119.2277
766.4410, 120.4151
766.9231, 120.9515
767.4052, 121.2358
767.8873, 121.6332
768.3694, 122.0891
768.8516, 122.9304
769.3337, 124.3302
769.8158, 125.8069
770.2979, 126.4898
770.7800, 126.6175
771.2621, 127.0808
771.7443, 128.2098
772.2264, 129.4992
772.7085, 130.3952
773.1906, 131.2090
773.6727, 132.4047
774.1548, 134.6147
774.6370, 136.5982
775.1191, 138.0211
775.6012, 139.1720
776.0833, 140.4911
776.5654, 142.0571
777.0475, 143.4741
777.5297, 144.5856
778.0118, 145.6840
778.4939, 147.4209
778.9760, 149.6262
779.4581, 151.6595
779.9402, 153.1492
780.4224, 154.5550
780.9045, 156.1681
781.3866, 157.9485
781.8687, 159.8130
782.3508, 161.6963
782.8329, 163.7285
783.3151, 166.0916
783.7972, 168.5318
784.2793, 170.5156
784.7614, 171.9844
785.2435, 173.2374
785.7256, 174.4060
786.2078, 175.3404
786.6899, 175.7859
787.1720, 175.7413
787.6541, 175.1841
788.1362, 174.0295
788.6183, 172.4378
789.1005, 170.3548
789.5826, 167.9212
790.0647, 165.5426
790.5468, 163.2662
791.0289, 161.0601
791.5110, 158.9163
791.9932, 156.8605
792.4753, 155.1016
792.9574, 153.6493
793.4395, 152.2599
793.9216, 150.8060
794.4037, 149.3733
794.8859, 148.1413
795.3680, 147.0683
795.8501, 146.0853
796.3322, 144.9001
796.8143, 144.0261
797.2964, 143.9502
797.7786, 144.4476
798.2607, 144.7159
798.7428, 144.5061
799.2249, 144.3054
799.7070, 144.1630
800.1891, 144.1343
800.6713, 144.4552
801.1534, 145.1303
801.6355, 145.8531
802.1176, 146.3221
802.5997, 146.9374
803.0818, 148.4627
803.5640, 150.6564
804.0461, 152.7807
804.5282, 154.5456
805.0103, 156.1167
805.4924, 157.3287
805.9745, 158.3663
806.4567, 160.0445
806.9388, 162.6004
807.4209, 165.2340
807.9030, 167.6779
808.3851, 170.0709
808.8672, 172.9184
809.3494, 176.1680
809.8315, 179.3579
810.3136, 182.0742
810.7957, 184.7593
811.2778, 187.8848
811.7599, 191.3416
812.2421, 194.8251
812.7242, 198.1622
813.2063, 201.5847
813.6884, 205.2260
814.1705, 209.0203
814.6526, 212.6859
815.1348, 216.2247
815.6169, 219.7538
816.0990, 223.3374
816.5811, 226.9503
817.0632, 230.7359
817.5453, 234.5683
818.0275, 237.8616
818.5096, 240.2895
818.9917, 242.1311
819.4738, 243.5293
819.9559, 244.4802
820.4380, 244.9524
820.9202, 245.2542
821.4023, 244.6102
821.8844, 242.6817
822.3665, 239.8443
822.8486, 237.1655
823.3307, 234.6898
823.8129, 231.5982
824.2950, 227.4731
824.7771, 222.8037
825.2592, 218.1605
825.7413, 213.5303
826.2234, 208.6702
826.7056, 202.7739
827.1877, 197.4192
827.6698, 193.6922
828.1519, 190.8424
828.6340, 186.9412
829.1161, 181.3178
829.5983, 176.2529
830.0804, 172.1301
830.5625, 168.8283
831.0446, 166.2797
831.5267, 164.3862
832.0089, 162.4921
832.4910, 160.3120
832.9731, 158.2327
833.4552, 156.7293
833.9373, 155.5307
834.4194, 154.2045
834.9016, 152.0967
835.3837, 150.5634
835.8658, 149.9925
836.3479, 149.8809
836.8300, 149.5137
837.3121, 148.8781
837.7943, 148.0705
838.2764, 147.0073
838.7585, 146.0472
839.2406, 145.8489
839.7227, 146.0852
840.2048, 146.0412
840.6870, 145.2654
841.1691, 144.7423
841.6512, 145.2369
842.1333, 146.0944
842.6154, 146.5086
843.0975, 146.1863
843.5797, 145.9926
844.0618, 145.9432
844.5439, 146.0648
845.0260, 146.4648
845.5081, 147.0840
845.9902, 147.5993
846.4724, 147.9417
846.9545, 148.3135
847.4366, 148.9376
847.9187, 149.6655
848.4008, 150.3034
848.8829, 150.7149
849.3651, 151.3459
849.8472, 152.3836
850.3293, 153.5209
850.8114, 154.5363
851.2935, 155.4176
851.7756, 156.3375
852.2578, 157.3096
852.7399, 158.2259
853.2220, 158.9058
853.7041, 159.5063
854.1862, 160.2942
854.6683, 161.2976
855.1505, 162.3307
855.6326, 163.3786
856.1147, 164.3671
856.5968, 165.2534
857.0789, 166.0435
857.5610, 166.6684
858.0432, 167.0198
858.5253, 167.5090
859.0074, 168.4604
859.4895, 169.7657
859.9716, 171.1119
860.4537, 172.4923
860.9359, 173.7623
861.4180, 174.6999
861.9001, 175.6195
862.3822, 176.8442
862.8643, 178.3503
863.3464, 179.5738
863.8286, 180.2586
864.3107, 180.9983
864.7928, 181.9811
865.2749, 183.1846
865.7570, 184.5318
866.2391, 186.0194
866.7213, 187.3753
867.2034, 188.1915
867.6855, 189.0403
868.1676, 190.7720
868.6497, 193.0751
869.1318, 195.0065
869.6140, 195.9791
870.0961, 196.8826
870.5782, 197.8804
871.0603, 198.9829
871.5424, 200.3313
872.0245, 201.9902
872.5067, 203.2028
872.9888, 203.6541
873.4709, 203.8138
873.9530, 204.4577
874.4351, 205.3599
874.9172, 206.0146
875.3994, 206.1706
875.8815, 206.1984
876.3636, 206.1180
876.8457, 206.0467
877.3278, 206.1944
877.8099, 206.7844
878.2921, 206.8841
878.7742, 206.3278
879.2563, 205.4753
879.7384, 204.6038
880.2205, 203.8066
880.7026, 203.4303
881.1848, 203.6166
881.6669, 203.7500
882.1490, 203.3950
882.6311, 202.8125
883.1132, 202.2677
883.5953, 201.9427
884.0775, 201.1170
884.5596, 199.6154
885.0417, 197.9278
885.5238, 196.4693
886.0059, 195.1723
886.4880, 193.6473
886.9702, 191.8977
887.4523, 190.0447
887.9344, 188.1325
888.4165, 186.1879
888.8986, 184.2120
889.3807, 182.2027
889.8629, 180.3616
890.3450, 178.8583
890.8271, 177.3454
891.3092, 175.7321
891.7913, 174.0172
892.2734, 172.2217
892.7556, 170.3581
893.2377, 168.3684
893.7198, 166.0886
894.2019, 163.7831
894.6840, 161.6823
895.1661, 159.7256
895.6483, 157.7859
896.1304, 155.5313
896.6125, 153.6481
897.0946, 152.3953
897.5767, 151.4823
898.0588, 150.3224
898.5410, 148.8897
899.0231, 147.5035
899.5052, 146.2005
899.9873, 145.0390
900.4694, 144.1416
900.9515, 143.4044
901.4337, 142.6281
901.9158, 141.6289
902.3979, 140.8484
902.8800, 140.6025
903.3621, 140.5040
903.8442, 140.1971
904.3264, 139.6150
904.8085, 139.2467
905.2906, 139.1292
905.7727, 139.1112
906.2548, 139.0365
906.7369, 138.9626
907.2191, 139.0499
907.7012, 139.3210
908.1833, 139.4149
908.6654, 138.9781
909.1475, 138.4891
909.6296, 138.2037
910.1118, 138.1208
910.5939, 138.1003
911.0760, 138.1609
911.5581, 138.1841
912.0402, 138.0233
912.5223, 137.8247
913.0045, 137.8690
913.4866, 138.1342
913.9687, 138.5410
914.4508, 139.2761
914.9329, 139.9057
915.4150, 140.1155
915.8972, 140.1003
916.3793, 140.3531
916.8614, 140.9204
917.3435, 141.5578
917.8256, 142.2197
918.3077, 142.9102
918.7899, 143.6674
919.2720, 144.4548
919.7541, 145.1853
920.2362, 145.8219
920.7183, 146.4296
921.2004, 146.8351
921.6826, 147.3616
922.1647, 148.4050
922.6468, 150.3377
923.1289, 151.5802
923.6110, 151.9665
924.0931, 152.1987
924.5753, 153.1141
925.0574, 154.3236
925.5395, 154.9068
926.0216, 154.8049
926.5037, 154.5128
926.9858, 154.3612
927.4680, 154.0542
927.9501, 153.3483
928.4322, 152.2796
928.9143, 151.1709
929.3964, 149.9344
929.8785, 149.0061
930.3607, 148.7827
930.8428, 148.8110
931.3249, 147.9318
931.8070, 146.4060
932.2891, 145.0914
932.7712, 144.3032
933.2534, 143.8793
933.7355, 144.0511
934.2176, 144.4561
934.6997, 144.3445
935.1818, 143.4577
935.6639, 142.9841
936.1461, 143.1549
936.6282, 143.5431
937.1103, 143.6168
937.5924, 143.4727
938.0745, 143.2421
938.5566, 142.8791
939.0388, 142.8169
939.5209, 143.4411
940.0030, 144.3236
940.4851, 145.1558
940.9672, 145.9193
941.4493, 146.6617
941.9315, 147.3479
942.4136, 148.1472
942.8957, 149.2078
943.3778, 150.4521
943.8599, 151.9113
944.3420, 153.4866
944.8242, 154.7388
945.3063, 155.1267
945.7884, 155.4834
946.2705, 156.3391
946.7526, 157.4011
947.2347, 157.8530
947.7169, 157.6494
948.1990, 157.0871
948.6811, 156.0877
949.1632, 155.1255
949.6453, 154.9665
950.1274, 155.3248
950.6096, 155.6620
951.0917, 155.7448
951.5738, 155.9845
952.0559, 156.4611
952.5380, 157.1806
953.0201, 158.2729
953.5023, 159.8572
953.9844, 160.8508
954.4665, 161.2045
954.9486, 161.2086
955.4307, 161.2827
955.9128, 161.0412
956.3950, 159.7829
956.8771, 157.5703
957.3591, 155.4804
957.8412, 153.6833
958.3234, 152.3043
958.8055, 151.4014
959.2876, 150.9052
959.7697, 150.4658
960.2518, 150.0940
960.7339, 150.3654
961.2161, 151.8900
961.6982, 153.4255
962.1803, 153.4799
962.6624, 152.7017
963.1445, 152.1181
963.6266, 152.6106
964.1088, 152.3422
964.5909, 151.0930
965.0730, 149.2445
965.5551, 147.0082
966.0372, 144.4639
966.5193, 142.2864
967.0015, 140.5435
967.4836, 138.9023
967.9657, 137.2257
968.4478, 135.4723
968.9299, 133.5104
969.4120, 131.3502
969.8942, 129.6270
970.3763, 128.5026
970.8584, 127.5000
971.3405, 126.4987
971.8226, 125.4523
972.3047, 124.0736
972.7869, 122.4822
973.2690, 121.1581
973.7511, 120.5140
974.2332, 119.8766
974.7153, 118.6953
975.1974, 117.3706
975.6796, 116.4768
976.1617, 116.2343
976.6438, 115.8237
977.1259, 115.1727
977.6080, 114.4929
978.0901, 114.0099
978.5723, 113.6666
979.0544, 113.3342
979.5365, 113.0034
980.0186, 112.7505
980.5007, 112.6833
980.9828, 112.6404
981.4650, 112.5922
981.9471, 112.5102
982.4292, 112.1638
982.9113, 111.5286
983.3934, 110.8896
983.8755, 110.2934
984.3577, 109.8483
984.8398, 109.8440
985.3219, 110.0588
985.8040, 110.0779
986.2861, 109.4407
986.7682, 109.0869
987.2504, 109.2339
987.7325, 109.5703
988.2146, 109.8101
988.6967, 109.9558
989.1788, 110.0493
989.6609, 110.0969
990.1431, 109.9859
990.6252, 109.4190
991.1073, 108.8139
991.5894, 108.5547
992.0715, 108.6592
992.5536, 108.7681
993.0358, 108.9262
993.5179, 108.9189
994.0000, 108.5783
994.4821, 108.1334
994.9642, 108.2490
995.4464, 108.7552
995.9285, 109.0650
996.4106, 108.8949
996.8927, 108.6212
997.3748, 108.1621
997.8569, 107.8693
998.3391, 108.2212
998.8212, 109.6518
999.3033, 110.0721
999.7854, 109.2993
1000.268, 108.3358
1000.750, 107.9996
1001.232, 108.0556
1001.714, 108.2462
1002.196, 108.5220
1002.678, 108.6521
1003.160, 108.3323
1003.642, 108.1170
1004.124, 108.2720
1004.607, 108.5978
1005.089, 108.4617
1005.571, 107.8893
1006.053, 107.4456
1006.535, 107.2680
1007.017, 107.3038
1007.499, 107.6493
1007.981, 108.0962
1008.464, 108.4223
1008.946, 108.6203
1009.428, 108.5267
1009.910, 107.9838
1010.392, 107.4718
1010.874, 107.4013
1011.356, 107.6311
1011.838, 107.6325
1012.320, 107.4460
1012.803, 107.3061
1013.285, 107.4080
1013.767, 107.5226
1014.249, 107.5042
1014.731, 107.4312
1015.213, 107.5038
1015.695, 107.7750
1016.177, 106.9960
1016.659, 107.9447
1017.142, 108.4825
1017.624, 108.6313
1018.106, 107.2266
1018.588, 107.8280
1019.070, 107.6255
1019.552, 107.3899
1020.034, 108.2737
1020.516, 107.0950
1020.999, 107.9610
1021.481, 108.0108
1021.963, 108.4341
1022.445, 108.0485
1022.927, 107.9128
1023.409, 108.5863
1023.891, 108.8117
1024.373, 108.3330
1024.855, 108.7801
1025.338, 107.5731
1025.820, 107.8176
1026.302, 108.6883
1026.784, 108.2503
1027.266, 108.7122
1027.748, 108.8313
1028.230, 107.3929
1028.712, 108.2675
1029.195, 108.7159
1029.677, 109.0340
1030.159, 109.0879
1030.641, 108.9738
1031.123, 108.6337
1031.605, 108.1947
1032.087, 108.1411
1032.569, 108.4516
1033.052, 108.7486
1033.534, 108.9497
1034.016, 109.0028
1034.498, 108.8316
1034.980, 108.5005
1035.462, 108.0494
1035.944, 107.3224
1036.426, 106.9916
1036.908, 107.1959
1037.391, 107.4141
1037.873, 107.1477
1038.355, 106.6539
1038.837, 106.6846
1039.319, 107.1249
1039.801, 107.4430
1040.283, 107.2662
1040.765, 107.0728
1041.247, 107.0282
1041.730, 107.0512
1042.212, 107.0125
1042.694, 106.9105
1043.176, 106.7858
1043.658, 106.6359
1044.140, 106.5083
1044.622, 106.3722
1045.104, 106.3257
1045.587, 106.5412
1046.069, 107.0605
1046.551, 107.2929
1047.033, 107.0962
1047.515, 106.9285
1047.997, 106.9886
1048.479, 107.1611
1048.961, 107.1887
1049.443, 107.1226
1049.926, 107.1011
1050.408, 107.2586
1050.890, 107.3136
1051.372, 107.0406
1051.854, 106.7255
1052.336, 106.5957
1052.818, 106.6591
1053.300, 106.7583
1053.782, 106.8921
1054.265, 106.9972
1054.747, 106.9986
1055.229, 106.9777
1055.711, 107.0023
1056.193, 107.0636
1056.675, 107.1318
1057.157, 107.2605
1057.639, 107.2046
1058.122, 106.8241
1058.604, 106.5010
1059.086, 106.9411
1059.568, 107.7755
1060.050, 108.3187
1060.532, 108.4652
1061.014, 108.3030
1061.496, 107.4159
1061.979, 106.7258
1062.461, 106.7308
1062.943, 107.2416
1063.425, 107.3023
1063.907, 106.9613
1064.389, 106.6902
1064.871, 106.7163
1065.353, 106.7890
1065.835, 106.6018
1066.318, 106.4093
1066.800, 106.5990
1067.282, 107.4405
1067.764, 107.7495
1068.246, 107.4350
1068.728, 107.0025
1069.210, 106.7952
1069.692, 106.7362
1070.174, 106.6840
1070.657, 106.6627
1071.139, 106.7791
1071.621, 107.2104
1072.103, 107.6046
1072.585, 107.9608
1073.067, 108.1865
1073.549, 108.0671
1074.031, 107.6870
1074.514, 107.3857
1074.996, 107.2108
1075.478, 107.1508
1075.960, 107.2651
1076.442, 107.4370
1076.924, 107.6268
1077.406, 107.8178
1077.888, 107.9118
1078.370, 107.9127
1078.853, 107.7610
1079.335, 107.3786
1079.817, 106.9707
1080.299, 106.6846
1080.781, 106.5464
1081.263, 106.6196
1081.745, 107.0695
1082.227, 107.3079
1082.709, 107.2941
1083.192, 107.1659
1083.674, 106.9045
1084.156, 106.6343
1084.638, 106.7305
1085.120, 107.1028
1085.602, 107.4415
1086.084, 107.6499
1086.566, 107.7673
1087.048, 107.7938
1087.531, 107.7520
1088.013, 107.6982
1088.495, 107.6163
1088.977, 107.2595
1089.459, 106.6119
1089.941, 106.0547
1090.423, 105.7665
1090.905, 105.7441
1091.388, 106.1999
1091.870, 106.9432
1092.352, 107.1506
1092.834, 106.7235
1093.316, 106.4733
1093.798, 106.6061
1094.280, 106.8895
1094.762, 107.2147
1095.245, 107.4393
1095.727, 107.3417
1096.209, 106.8272
1096.691, 106.3644
1097.173, 105.9303
1097.655, 105.6851
1098.137, 105.7466
1098.619, 106.0026
1099.101, 106.1382
1099.583, 106.2524
1100.066, 106.6396
1100.548, 107.8007
1101.030, 108.5182
1101.512, 108.1908
1101.994, 107.6047
1102.476, 107.3486
1102.958, 107.3954
1103.440, 107.2952
1103.923, 107.0559
1104.405, 106.7856
1104.887, 106.4156
1105.369, 106.1701
1105.851, 106.2980
1106.333, 106.5934
1106.815, 106.5901
1107.297, 106.1865
1107.780, 106.3385
1108.262, 107.2128
1108.744, 108.0071
1109.226, 107.7541
1109.708, 107.2286
1110.190, 107.2896
1110.672, 107.9109
1111.154, 108.1770
1111.636, 107.8913
1112.119, 107.6717
1112.601, 107.6683
1113.083, 107.7765
1113.565, 107.9323
1114.047, 108.0561
1114.529, 107.9768
1115.011, 107.6300
1115.493, 107.3232
1115.975, 107.1594
1116.458, 106.9949
1116.940, 106.7630
1117.422, 106.4898
1117.904, 106.1866
1118.386, 105.9084
1118.868, 105.8539
1119.350, 106.2550
1119.832, 106.5743
1120.315, 106.4518
1120.797, 106.2694
1121.279, 106.3671
1121.761, 106.7383
1122.243, 106.7257
1122.725, 106.3588
1123.207, 106.0979
1123.689, 106.4456
1124.172, 106.7537
1124.654, 106.5014
1125.136, 105.9568
1125.618, 105.5896
1126.100, 105.3884
1126.582, 105.5388
1127.064, 106.1108
1127.546, 106.4960
1128.028, 105.7485
1128.510, 104.8680
1128.993, 105.0701
1129.475, 106.1524
1129.957, 106.8183
1130.439, 106.9704
1130.921, 106.6934
1131.403, 105.8853
1131.885, 105.0046
1132.367, 104.5211
1132.850, 104.4196
1133.332, 104.8479
1133.814, 105.8336
1134.296, 106.3340
1134.778, 105.8346
1135.260, 105.3274
1135.742, 105.0746
1136.224, 105.0292
1136.707, 105.1821
1137.189, 105.4473
1137.671, 105.5869
1138.153, 105.5140
1138.635, 105.4494
1139.117, 105.5310
1139.599, 105.5777
1140.081, 105.4553
1140.563, 105.2329
1141.046, 105.3080
1141.528, 105.6083
1142.010, 105.7504
1142.492, 105.4223
1142.974, 105.1825
1143.456, 105.4072
1143.938, 105.7888
1144.420, 106.0597
1144.902, 106.2188
1145.385, 106.3574
1145.867, 106.4705
1146.349, 106.4570
1146.831, 106.1198
1147.313, 105.7709
1147.795, 105.5889
1148.277, 105.5646
1148.759, 105.6805
1149.242, 105.9721
1149.724, 106.2186
1150.206, 106.4120
1150.688, 106.5251
1151.170, 106.5772
1151.652, 106.5005
1152.134, 106.1044
1152.616, 105.5145
1153.099, 105.2168
1153.581, 105.3124
1154.063, 105.4255
1154.545, 105.5109
1155.027, 105.5872
1155.509, 105.6973
1155.991, 105.7939
1156.473, 105.7691
1156.955, 105.6329
1157.438, 105.6682
1157.920, 106.0148
1158.402, 106.2428
1158.884, 106.2357
1159.366, 106.1054
1159.848, 105.9334
1160.330, 105.7874
1160.812, 105.8173
1161.294, 106.0694
1161.777, 106.2306
1162.259, 106.1196
1162.741, 106.1434
1163.223, 106.5204
1163.705, 107.0252
1164.187, 107.1722
1164.669, 107.0415
1165.151, 106.7976
1165.634, 106.4195
1166.116, 106.1458
1166.598, 106.0275
1167.080, 106.0466
1167.562, 106.2730
1168.044, 106.5983
1168.526, 106.6228
1169.008, 106.4014
1169.490, 106.1102
1169.973, 105.6806
1170.455, 105.4554
1170.937, 105.7423
1171.419, 106.0960
1171.901, 106.2284
1172.383, 106.1625
1172.865, 106.0231
1173.347, 105.8412
1173.829, 105.7768
1174.312, 106.1499
1174.794, 106.3682
1175.276, 105.8737
1175.758, 105.3501
1176.240, 105.5905
1176.722, 106.5581
1177.204, 106.8726
1177.686, 106.5589
1178.169, 106.3178
1178.651, 106.8168
1179.133, 107.2481
1179.615, 107.0658
1180.097, 106.6236
1180.579, 106.4373
1181.061, 106.5130
1181.543, 106.5405
1182.026, 106.4979
1182.508, 106.4331
1182.990, 106.2448
1183.472, 106.1801
1183.954, 106.6729
1184.436, 107.3310
1184.918, 107.1142
1185.400, 105.9431
1185.882, 105.6466
1186.365, 106.5301
1186.847, 107.4240
1187.329, 107.1888
1187.811, 106.7439
1188.293, 106.9415
1188.775, 107.5572
1189.257, 107.5841
1189.739, 106.9621
1190.221, 106.6088
1190.704, 106.7414
1191.186, 106.9343
1191.668, 106.6961
1192.150, 106.4028
1192.632, 106.4159
1193.114, 106.7125
1193.596, 106.9927
1194.078, 107.2755
1194.561, 107.2947
1195.043, 106.8973
1195.525, 106.5016
1196.007, 106.6494
1196.489, 106.9343
1196.971, 106.8568
1197.453, 106.3930
1197.935, 106.4461
1198.417, 107.1020
1198.900, 107.5261
1199.382, 107.3641
1199.864, 106.9991
1200.346, 106.7066
1200.828, 106.5153
1201.310, 106.5116
1201.792, 106.7322
1202.274, 106.7424
1202.756, 106.5195
1203.239, 106.2704
1203.721, 105.9842
1204.203, 105.8929
1204.685, 106.5994
1205.167, 107.4894
1205.649, 107.5963
1206.131, 106.6042
1206.613, 106.3117
1207.096, 106.8083
1207.578, 107.1738
1208.060, 106.6649
1208.542, 106.1008
1209.024, 106.7149
1209.506, 107.7453
1209.988, 107.8749
1210.470, 106.6868
1210.953, 106.0331
1211.435, 105.9362
1211.917, 106.1694
1212.399, 106.8461
1212.881, 107.5401
1213.363, 107.7678
1213.845, 107.7127
1214.327, 107.7141
1214.809, 107.8123
1215.292, 107.9269
1215.774, 108.0622
1216.256, 108.1498
1216.738, 108.1063
1217.220, 108.0159
1217.702, 107.8153
1218.184, 107.6674
1218.666, 107.9762
1219.148, 108.9839
1219.631, 109.4227
1220.113, 109.1905
1220.595, 108.8598
1221.077, 108.9866
1221.559, 109.1268
1222.041, 108.7787
1222.523, 108.1541
1223.005, 107.7589
1223.488, 107.5895
1223.970, 107.8480
1224.452, 108.6009
1224.934, 109.1943
1225.416, 108.9419
1225.898, 108.4549
1226.380, 108.1931
1226.862, 108.1252
1227.344, 108.0621
1227.827, 107.9708
1228.309, 108.1642
1228.791, 108.6970
1229.273, 109.1149
1229.755, 108.9059
1230.237, 108.5540
1230.719, 108.4558
1231.201, 108.5183
1231.683, 108.3971
1232.166, 108.0578
1232.648, 107.9980
1233.130, 108.2894
1233.612, 108.5560
1234.094, 108.4794
1234.576, 108.2774
1235.058, 108.0139
1235.540, 107.7720
1236.023, 107.7761
1236.505, 108.0322
1236.987, 108.1811
1237.469, 108.1725
1237.951, 108.1348
1238.433, 108.1547
1238.915, 108.1928
1239.397, 108.2506
1239.880, 108.3008
1240.362, 108.2313
1240.844, 108.0610
1241.326, 108.0784
1241.808, 108.3355
1242.290, 108.6676
1242.772, 109.0900
1243.254, 109.4093
1243.736, 109.5022
1244.219, 109.4399
1244.701, 109.3836
1245.183, 109.3230
1245.665, 109.1511
1246.147, 108.8362
1246.629, 108.6735
1247.111, 108.8872
1247.593, 109.2471
1248.075, 109.7372
1248.558, 110.2171
1249.040, 110.3210
1249.522, 110.1310
1250.004, 109.9699
1250.486, 109.8973
1250.968, 109.7943
1251.450, 109.5357
1251.932, 109.3299
1252.415, 109.2389
1252.897, 109.2561
1253.379, 109.4314
1253.861, 109.6930
1254.343, 109.8522
1254.825, 109.8731
1255.307, 109.8497
1255.789, 109.7862
1256.271, 109.7056
1256.754, 109.5807
1257.236, 109.4944
1257.718, 109.7400
1258.200, 110.0892
1258.682, 109.9777
1259.164, 109.2532
1259.646, 109.0819
1260.128, 109.9564
1260.610, 110.5601
1261.093, 110.3914
1261.575, 110.0089
1262.057, 110.4153
1262.539, 111.0844
1263.021, 111.1675
1263.503, 110.4986
1263.985, 110.1449
1264.467, 110.2550
1264.950, 110.3231
1265.432, 110.1576
1265.914, 110.0174
1266.396, 110.4409
1266.878, 110.9417
1267.360, 110.8530
1267.842, 110.1050
1268.324, 109.7154
1268.807, 109.7070
1269.289, 109.9004
1269.771, 110.3121
1270.253, 110.6562
1270.735, 110.5156
1271.217, 110.2799
1271.699, 110.3820
1272.181, 110.7525
1272.663, 110.8958
1273.146, 110.8153
1273.628, 110.7483
1274.110, 110.7513
1274.592, 110.8140
1275.074, 110.9933
1275.556, 111.1691
1276.038, 111.2583
1276.520, 111.2850
1277.002, 111.3585
1277.485, 111.4613
1277.967, 111.4759
1278.449, 111.3581
1278.931, 111.2401
1279.413, 111.0503
1279.895, 111.0687
1280.377, 111.5228
1280.859, 112.1610
1281.342, 112.3011
1281.824, 112.0888
1282.306, 111.9643
1282.788, 112.0414
1283.270, 112.0225
1283.752, 111.6149
1284.234, 111.4515
1284.716, 111.8393
1285.198, 112.4176
1285.681, 112.5503
1286.163, 112.3893
1286.645, 112.1415
1287.127, 111.8180
1287.609, 111.8115
1288.091, 112.2897
1288.573, 112.6370
1289.055, 112.6419
1289.537, 112.5178
1290.020, 112.5460
1290.502, 112.6160
1290.984, 112.5956
1291.466, 112.4693
1291.948, 112.3420
1292.430, 112.2156
1292.912, 112.0539
1293.394, 111.8168
1293.877, 111.6959
1294.359, 112.0509
1294.841, 112.4582
1295.323, 112.4751
1295.805, 112.2218
1296.287, 112.1943
1296.769, 112.3737
1297.251, 112.4057
1297.734, 112.1878
1298.216, 112.0853
1298.698, 112.6296
1299.180, 113.0050
1299.662, 112.6985
1300.144, 112.0577
1300.626, 111.9363
1301.108, 112.1949
1301.590, 112.3407
1302.073, 112.2900
1302.555, 112.2024
1303.037, 112.1651
1303.519, 112.0476
1304.001, 111.7570
1304.483, 111.4529
1304.965, 111.3465
##END=



