##NAMES=Afwillite
##RRUFFID=R070296
##IDEAL CHEMISTRY=Ca_3_(SiO_4_)(SiO_2_(OH)_2_)&#183;2H_2_O
##LOCALITY=Hatrurim Formation, Negev Desert, West of Dead Sea, southern Israel
##OWNER=Michael Scott
##SOURCE=Michael Scott
##DESCRIPTION=Colorless bladed crystals, associated with yellow ettringite, R070208.
##STATUS=The identification of this mineral is confirmed by single-crystal X-ray diffraction and chemical analysis.
##URL=rruff.info/R070296
##MEASURED CHEMISTRY=Ca_3.00_(Si_1.00_O_3_)_2_(OH)_2_Â·2H_2_O; trace amounts of Al. OH by charge balance; H_2_O by difference
167.0180, 5457.735
167.5002, 5454.128
167.9823, 5451.892
168.4644, 5481.508
168.9465, 5549.369
169.4286, 5620.091
169.9107, 5671.835
170.3929, 5707.308
170.8750, 5733.535
171.3571, 5747.490
171.8392, 5756.500
172.3213, 5767.382
172.8034, 5780.130
173.2856, 5797.203
173.7677, 5827.677
174.2498, 5866.595
174.7319, 5896.460
175.2140, 5903.981
175.6961, 5896.544
176.1783, 5885.036
176.6604, 5871.644
177.1425, 5854.587
177.6246, 5826.292
178.1067, 5789.370
178.5888, 5758.919
179.0710, 5754.346
179.5531, 5764.692
180.0352, 5765.210
180.5173, 5746.525
180.9994, 5718.825
181.4815, 5696.437
181.9637, 5679.218
182.4458, 5668.839
182.9279, 5669.953
183.4100, 5679.907
183.8921, 5688.311
184.3742, 5689.294
184.8564, 5688.109
185.3385, 5696.065
185.8206, 5713.289
186.3027, 5738.938
186.7848, 5778.613
187.2669, 5829.668
187.7491, 5873.146
188.2312, 5898.382
188.7133, 5910.632
189.1954, 5930.674
189.6775, 5959.638
190.1596, 5990.813
190.6418, 6019.091
191.1239, 6044.182
191.6060, 6060.949
192.0881, 6064.568
192.5702, 6056.484
193.0524, 6048.265
193.5345, 6039.046
194.0166, 6031.945
194.4987, 6034.234
194.9808, 6046.683
195.4629, 6056.935
195.9451, 6055.221
196.4272, 6041.943
196.9093, 6042.657
197.3914, 6062.704
197.8735, 6089.609
198.3556, 6097.977
198.8378, 6085.185
199.3199, 6070.526
199.8020, 6062.354
200.2841, 6060.578
200.7662, 6067.719
201.2483, 6084.453
201.7305, 6109.704
202.2126, 6144.021
202.6947, 6190.804
203.1768, 6233.961
203.6589, 6262.142
204.1410, 6272.828
204.6232, 6284.567
205.1053, 6299.024
205.5874, 6315.547
206.0695, 6333.291
206.5516, 6354.273
207.0337, 6371.175
207.5159, 6376.408
207.9980, 6366.028
208.4801, 6362.404
208.9622, 6369.121
209.4443, 6384.655
209.9264, 6403.684
210.4086, 6430.435
210.8907, 6452.230
211.3728, 6454.590
211.8549, 6427.407
212.3370, 6415.838
212.8191, 6429.011
213.3013, 6464.289
213.7834, 6502.955
214.2655, 6550.133
214.7476, 6592.579
215.2297, 6615.835
215.7118, 6611.387
216.1940, 6612.015
216.6761, 6624.002
217.1582, 6646.940
217.6403, 6673.173
218.1224, 6708.391
218.6045, 6738.931
219.0867, 6747.015
219.5688, 6716.094
220.0509, 6702.309
220.5330, 6721.612
221.0151, 6775.072
221.4972, 6822.561
221.9794, 6867.325
222.4615, 6902.995
222.9436, 6918.400
223.4257, 6893.622
223.9078, 6890.837
224.3899, 6931.383
224.8721, 7020.692
225.3542, 7088.089
225.8363, 7126.395
226.3184, 7150.195
226.8005, 7176.237
227.2827, 7202.796
227.7648, 7235.014
228.2469, 7277.754
228.7290, 7334.159
229.2111, 7374.156
229.6932, 7387.570
230.1754, 7392.354
230.6575, 7413.927
231.1396, 7464.936
231.6217, 7509.838
232.1038, 7535.467
232.5859, 7535.442
233.0681, 7553.362
233.5502, 7607.454
234.0323, 7666.352
234.5144, 7681.640
234.9965, 7627.459
235.4786, 7573.078
235.9608, 7541.055
236.4429, 7538.983
236.9250, 7524.185
237.4071, 7485.344
237.8892, 7440.923
238.3713, 7422.618
238.8535, 7448.491
239.3356, 7470.258
239.8177, 7471.667
240.2998, 7447.176
240.7819, 7423.878
241.2640, 7405.009
241.7462, 7385.085
242.2283, 7352.708
242.7104, 7296.771
243.1925, 7246.551
243.6746, 7210.698
244.1567, 7189.171
244.6389, 7183.355
245.1210, 7199.613
245.6031, 7227.711
246.0852, 7249.910
246.5673, 7264.782
247.0494, 7276.060
247.5316, 7282.983
248.0137, 7280.784
248.4958, 7291.037
248.9779, 7317.701
249.4600, 7354.592
249.9421, 7390.353
250.4243, 7426.522
250.9064, 7459.292
251.3885, 7487.688
251.8706, 7512.485
252.3527, 7529.439
252.8348, 7533.383
253.3170, 7532.654
253.7991, 7545.018
254.2812, 7579.585
254.7633, 7609.529
255.2454, 7623.879
255.7275, 7618.297
256.2097, 7612.518
256.6918, 7606.411
257.1739, 7600.265
257.6560, 7594.706
258.1381, 7590.292
258.6202, 7585.314
259.1024, 7579.708
259.5845, 7574.559
260.0666, 7564.428
260.5487, 7548.510
261.0308, 7528.219
261.5129, 7504.775
261.9951, 7477.144
262.4772, 7449.364
262.9593, 7425.318
263.4414, 7408.050
263.9235, 7375.958
264.4056, 7318.149
264.8878, 7255.329
265.3699, 7225.566
265.8520, 7238.639
266.3341, 7256.171
266.8162, 7263.127
267.2983, 7257.243
267.7805, 7253.969
268.2626, 7251.385
268.7447, 7253.647
269.2268, 7270.290
269.7089, 7305.412
270.1910, 7339.982
270.6732, 7363.276
271.1553, 7372.315
271.6374, 7400.882
272.1195, 7454.483
272.6016, 7519.640
273.0837, 7570.363
273.5659, 7602.735
274.0480, 7641.748
274.5301, 7699.601
275.0122, 7776.781
275.4943, 7853.129
275.9764, 7929.418
276.4586, 8003.413
276.9407, 8071.067
277.4228, 8130.876
277.9049, 8189.825
278.3870, 8243.942
278.8691, 8294.470
279.3513, 8376.355
279.8334, 8498.402
280.3155, 8629.180
280.7976, 8723.684
281.2798, 8779.650
281.7619, 8833.875
282.2440, 8906.026
282.7261, 8991.038
283.2082, 9047.963
283.6903, 9073.542
284.1725, 9083.024
284.6546, 9092.095
285.1367, 9100.726
285.6188, 9110.568
286.1009, 9127.749
286.5830, 9147.140
287.0652, 9144.405
287.5473, 9117.728
288.0294, 9080.010
288.5115, 9046.963
288.9936, 9016.795
289.4757, 8976.181
289.9579, 8914.978
290.4400, 8841.378
290.9221, 8777.035
291.4042, 8722.531
291.8863, 8670.006
292.3684, 8609.338
292.8506, 8543.188
293.3327, 8482.354
293.8148, 8431.532
294.2969, 8386.958
294.7790, 8338.104
295.2611, 8284.771
295.7433, 8237.042
296.2254, 8210.560
296.7075, 8196.754
297.1896, 8170.914
297.6717, 8112.398
298.1538, 8049.196
298.6360, 8028.395
299.1181, 8047.183
299.6002, 8074.525
300.0823, 8093.313
300.5644, 8103.163
301.0465, 8101.514
301.5287, 8077.960
302.0108, 8054.881
302.4929, 8064.533
302.9750, 8101.500
303.4571, 8134.184
303.9392, 8136.978
304.4214, 8124.137
304.9035, 8114.317
305.3856, 8111.251
305.8677, 8113.813
306.3498, 8123.305
306.8319, 8138.290
307.3141, 8153.975
307.7962, 8174.554
308.2783, 8190.991
308.7604, 8191.895
309.2425, 8167.144
309.7246, 8143.753
310.2068, 8140.718
310.6889, 8152.733
311.1710, 8165.871
311.6531, 8177.801
312.1352, 8185.624
312.6173, 8184.528
313.0995, 8168.631
313.5816, 8158.934
314.0637, 8168.563
314.5458, 8191.040
315.0279, 8214.162
315.5100, 8237.696
315.9922, 8257.301
316.4743, 8266.037
316.9564, 8256.840
317.4385, 8262.886
317.9206, 8311.605
318.4027, 8378.382
318.8849, 8428.813
319.3670, 8431.773
319.8491, 8436.084
320.3312, 8465.315
320.8133, 8527.874
321.2954, 8574.719
321.7776, 8576.188
322.2597, 8565.356
322.7418, 8577.473
323.2239, 8650.495
323.7060, 8714.089
324.1881, 8746.190
324.6703, 8742.896
325.1524, 8750.370
325.6345, 8781.318
326.1166, 8819.059
326.5987, 8850.525
327.0808, 8876.612
327.5630, 8895.204
328.0451, 8903.764
328.5272, 8902.767
329.0093, 8903.240
329.4914, 8915.506
329.9735, 8919.973
330.4557, 8901.190
330.9378, 8832.742
331.4199, 8788.126
331.9020, 8783.905
332.3841, 8809.544
332.8662, 8811.341
333.3484, 8774.067
333.8305, 8736.020
334.3126, 8720.548
334.7947, 8739.026
335.2768, 8745.454
335.7589, 8736.342
336.2411, 8714.600
336.7232, 8683.877
337.2053, 8639.173
337.6874, 8600.772
338.1695, 8580.826
338.6516, 8582.248
339.1338, 8579.483
339.6159, 8574.086
340.0980, 8561.286
340.5801, 8524.535
341.0622, 8458.917
341.5443, 8411.642
342.0265, 8412.569
342.5086, 8454.732
342.9907, 8472.266
343.4728, 8462.942
343.9549, 8437.077
344.4370, 8396.104
344.9192, 8343.425
345.4013, 8311.603
345.8834, 8326.273
346.3655, 8366.521
346.8476, 8373.928
347.3297, 8347.680
347.8119, 8313.057
348.2940, 8288.498
348.7761, 8273.964
349.2582, 8270.889
349.7403, 8286.360
350.2225, 8306.416
350.7046, 8307.046
351.1867, 8290.957
351.6688, 8279.021
352.1509, 8293.022
352.6331, 8319.039
353.1152, 8335.374
353.5973, 8333.650
354.0794, 8327.860
354.5615, 8327.863
355.0436, 8333.514
355.5258, 8344.360
356.0079, 8374.296
356.4900, 8401.480
356.9721, 8402.137
357.4542, 8363.720
357.9363, 8328.973
358.4185, 8320.214
358.9006, 8331.513
359.3827, 8352.604
359.8648, 8390.423
360.3469, 8428.343
360.8290, 8456.615
361.3112, 8473.141
361.7933, 8490.028
362.2754, 8517.803
362.7575, 8545.608
363.2396, 8561.715
363.7217, 8541.109
364.2039, 8530.672
364.6860, 8551.383
365.1681, 8603.951
365.6502, 8638.443
366.1323, 8629.585
366.6144, 8613.035
367.0966, 8613.399
367.5787, 8645.799
368.0608, 8677.558
368.5429, 8705.927
369.0250, 8731.960
369.5071, 8760.200
369.9893, 8790.070
370.4714, 8822.630
370.9535, 8858.746
371.4356, 8899.477
371.9177, 8940.746
372.3998, 8983.608
372.8820, 9026.585
373.3641, 9064.298
373.8462, 9092.601
374.3283, 9126.177
374.8104, 9171.589
375.2925, 9230.292
375.7747, 9289.212
376.2568, 9349.918
376.7389, 9408.732
377.2210, 9452.326
377.7031, 9478.063
378.1852, 9528.243
378.6674, 9629.641
379.1495, 9765.166
379.6316, 9858.943
380.1137, 9905.975
380.5958, 9949.430
381.0779, 10030.54
381.5601, 10143.97
382.0422, 10257.72
382.5243, 10369.54
383.0064, 10475.19
383.4885, 10558.04
383.9706, 10623.22
384.4528, 10702.53
384.9349, 10834.65
385.4170, 10991.48
385.8991, 11124.91
386.3812, 11221.48
386.8633, 11319.01
387.3455, 11458.64
387.8276, 11626.26
388.3097, 11792.18
388.7918, 11942.24
389.2739, 12082.26
389.7560, 12214.56
390.2382, 12338.66
390.7203, 12463.06
391.2024, 12604.92
391.6845, 12744.87
392.1666, 12862.30
392.6487, 12926.73
393.1309, 12988.43
393.6130, 13075.02
394.0951, 13183.20
394.5772, 13267.35
395.0593, 13302.24
395.5414, 13318.20
396.0236, 13333.78
396.5057, 13366.90
396.9878, 13381.50
397.4699, 13371.01
397.9520, 13338.96
398.4341, 13297.12
398.9163, 13247.48
399.3984, 13185.96
399.8805, 13110.00
400.3626, 13015.77
400.8447, 12918.56
401.3268, 12819.06
401.8090, 12716.18
402.2911, 12606.06
402.7732, 12488.77
403.2553, 12366.54
403.7374, 12237.36
404.2195, 12102.08
404.7017, 11976.81
405.1838, 11862.85
405.6659, 11754.10
406.1480, 11646.94
406.6301, 11541.02
407.1122, 11428.66
407.5944, 11302.80
408.0765, 11175.20
408.5586, 11081.73
409.0407, 11021.33
409.5228, 10961.68
410.0049, 10878.20
410.4871, 10779.61
410.9692, 10689.22
411.4513, 10609.73
411.9334, 10536.12
412.4155, 10459.60
412.8976, 10382.42
413.3798, 10313.94
413.8619, 10273.40
414.3440, 10233.64
414.8261, 10156.43
415.3082, 10041.01
415.7903, 9935.281
416.2725, 9872.910
416.7546, 9835.845
417.2367, 9802.727
417.7188, 9769.789
418.2009, 9737.341
418.6830, 9710.957
419.1652, 9686.713
419.6473, 9651.229
420.1294, 9580.803
420.6115, 9511.854
421.0937, 9464.801
421.5758, 9454.543
422.0579, 9441.929
422.5400, 9420.359
423.0221, 9393.727
423.5042, 9367.897
423.9864, 9343.360
424.4685, 9319.627
424.9506, 9296.458
425.4327, 9274.215
425.9148, 9252.063
426.3969, 9231.548
426.8791, 9209.382
427.3612, 9179.983
427.8433, 9135.866
428.3254, 9110.315
428.8075, 9116.623
429.2896, 9141.412
429.7718, 9133.594
430.2539, 9086.171
430.7360, 9043.219
431.2181, 9037.610
431.7002, 9066.015
432.1823, 9078.925
432.6645, 9072.308
433.1466, 9055.437
433.6287, 9035.823
434.1108, 9015.247
434.5929, 9003.303
435.0750, 9016.891
435.5572, 9036.101
436.0393, 9013.407
436.5214, 8951.378
437.0035, 8904.397
437.4856, 8935.893
437.9677, 9003.049
438.4499, 9044.583
438.9320, 9033.126
439.4141, 9012.610
439.8962, 9014.102
440.3783, 9030.888
440.8604, 9045.719
441.3426, 9052.434
441.8247, 9053.767
442.3068, 9048.524
442.7889, 9033.687
443.2710, 9026.374
443.7531, 9035.945
444.2353, 9053.503
444.7174, 9069.372
445.1995, 9075.786
445.6816, 9087.282
446.1637, 9108.942
446.6458, 9139.389
447.1280, 9166.699
447.6101, 9194.708
448.0922, 9215.390
448.5743, 9220.831
449.0564, 9197.485
449.5385, 9197.060
450.0207, 9228.916
450.5028, 9276.812
450.9849, 9307.122
451.4670, 9314.395
451.9491, 9330.911
452.4312, 9376.605
452.9134, 9445.193
453.3955, 9486.716
453.8776, 9498.814
454.3597, 9500.141
454.8418, 9504.731
455.3239, 9512.898
455.8061, 9525.940
456.2882, 9545.024
456.7703, 9568.009
457.2524, 9588.378
457.7345, 9608.662
458.2166, 9639.999
458.6988, 9705.145
459.1809, 9776.485
459.6630, 9820.158
460.1451, 9830.073
460.6272, 9835.412
461.1093, 9853.352
461.5915, 9877.838
462.0736, 9901.028
462.5557, 9916.641
463.0378, 9934.156
463.5199, 9959.203
464.0020, 9990.340
464.4842, 10017.52
464.9663, 10029.18
465.4484, 10043.13
465.9305, 10069.19
466.4126, 10115.60
466.8947, 10160.73
467.3769, 10202.64
467.8590, 10243.92
468.3411, 10290.69
468.8232, 10349.15
469.3053, 10400.69
469.7874, 10442.78
470.2696, 10475.03
470.7517, 10488.10
471.2338, 10478.88
471.7159, 10460.12
472.1980, 10435.09
472.6801, 10404.43
473.1623, 10400.30
473.6444, 10434.84
474.1265, 10482.64
474.6086, 10500.26
475.0907, 10490.90
475.5728, 10475.19
476.0550, 10461.37
476.5371, 10449.04
477.0192, 10440.24
477.5013, 10435.12
477.9834, 10424.39
478.4655, 10395.49
478.9477, 10358.21
479.4298, 10325.45
479.9119, 10298.72
480.3940, 10279.77
480.8761, 10271.18
481.3582, 10271.41
481.8404, 10276.25
482.3225, 10289.42
482.8046, 10302.72
483.2867, 10312.21
483.7688, 10316.33
484.2509, 10320.89
484.7331, 10338.60
485.2152, 10350.50
485.6973, 10336.62
486.1794, 10271.76
486.6615, 10224.14
487.1436, 10204.76
487.6258, 10209.72
488.1079, 10222.74
488.5900, 10246.97
489.0721, 10270.41
489.5542, 10286.69
490.0363, 10295.87
490.5185, 10299.15
491.0006, 10293.94
491.4827, 10291.53
491.9648, 10312.05
492.4470, 10350.87
492.9291, 10382.70
493.4112, 10399.31
493.8933, 10403.29
494.3754, 10390.57
494.8575, 10364.36
495.3397, 10345.71
495.8218, 10357.88
496.3039, 10380.13
496.7860, 10387.69
497.2681, 10372.74
497.7502, 10360.16
498.2324, 10369.64
498.7145, 10387.65
499.1966, 10395.98
499.6787, 10370.79
500.1608, 10353.65
500.6429, 10366.75
501.1251, 10407.16
501.6072, 10425.50
502.0893, 10398.72
502.5714, 10366.77
503.0535, 10347.19
503.5356, 10340.68
504.0178, 10346.11
504.4999, 10369.09
504.9820, 10398.89
505.4641, 10420.92
505.9462, 10435.33
506.4283, 10440.02
506.9105, 10429.24
507.3926, 10409.36
507.8747, 10403.10
508.3568, 10410.35
508.8389, 10434.51
509.3210, 10493.19
509.8032, 10570.99
510.2853, 10622.31
510.7674, 10636.86
511.2495, 10644.73
511.7316, 10676.06
512.2137, 10723.71
512.6959, 10772.57
513.1780, 10824.62
513.6601, 10869.37
514.1422, 10893.11
514.6243, 10899.71
515.1064, 10915.46
515.5886, 10954.68
516.0707, 11003.59
516.5528, 11054.53
517.0349, 11110.93
517.5170, 11160.99
517.9991, 11197.87
518.4813, 11229.71
518.9634, 11266.25
519.4455, 11307.88
519.9276, 11354.35
520.4097, 11411.26
520.8918, 11473.81
521.3740, 11512.23
521.8561, 11518.92
522.3382, 11526.67
522.8203, 11569.20
523.3024, 11641.99
523.7845, 11667.51
524.2667, 11634.74
524.7488, 11580.26
525.2309, 11543.10
525.7130, 11520.38
526.1951, 11503.03
526.6772, 11489.97
527.1594, 11478.39
527.6415, 11468.65
528.1236, 11458.97
528.6057, 11441.12
529.0878, 11393.76
529.5699, 11347.52
530.0521, 11331.39
530.5342, 11357.83
531.0163, 11373.40
531.4984, 11350.28
531.9805, 11312.33
532.4626, 11284.84
532.9448, 11291.00
533.4269, 11283.50
533.9090, 11247.76
534.3911, 11193.53
534.8732, 11163.72
535.3553, 11178.25
535.8375, 11179.08
536.3196, 11137.78
536.8017, 11051.76
537.2838, 10964.31
537.7659, 10870.36
538.2480, 10789.14
538.7302, 10748.29
539.2123, 10741.98
539.6944, 10732.83
540.1765, 10712.50
540.6586, 10686.21
541.1407, 10659.96
541.6229, 10633.41
542.1050, 10604.87
542.5871, 10571.76
543.0692, 10537.31
543.5513, 10503.31
544.0334, 10470.21
544.5156, 10441.64
544.9977, 10416.04
545.4798, 10397.54
545.9619, 10390.37
546.4440, 10406.40
546.9261, 10417.25
547.4083, 10417.11
547.8904, 10409.71
548.3725, 10402.10
548.8546, 10397.38
549.3367, 10387.05
549.8188, 10366.84
550.3010, 10337.99
550.7831, 10313.76
551.2652, 10292.90
551.7473, 10280.75
552.2294, 10283.85
552.7115, 10300.80
553.1937, 10320.50
553.6758, 10344.37
554.1579, 10361.43
554.6400, 10349.62
555.1221, 10319.00
555.6042, 10298.95
556.0864, 10306.52
556.5685, 10322.21
557.0506, 10326.56
557.5327, 10322.80
558.0148, 10322.84
558.4969, 10337.28
558.9791, 10353.76
559.4612, 10363.03
559.9433, 10361.53
560.4254, 10366.36
560.9075, 10390.68
561.3896, 10416.91
561.8718, 10429.67
562.3539, 10419.78
562.8360, 10411.54
563.3181, 10404.84
563.8002, 10401.79
564.2823, 10410.76
564.7645, 10435.95
565.2466, 10453.63
565.7287, 10450.90
566.2108, 10432.66
566.6929, 10422.51
567.1750, 10420.70
567.6572, 10422.98
568.1393, 10427.83
568.6214, 10433.88
569.1035, 10439.02
569.5856, 10443.75
570.0677, 10444.37
570.5499, 10427.56
571.0320, 10406.74
571.5141, 10402.92
571.9962, 10444.21
572.4783, 10483.68
572.9604, 10497.78
573.4426, 10491.75
573.9247, 10494.25
574.4068, 10524.46
574.8889, 10550.43
575.3710, 10557.14
575.8531, 10538.45
576.3353, 10533.70
576.8174, 10550.22
577.2995, 10569.86
577.7816, 10571.36
578.2637, 10551.69
578.7458, 10547.40
579.2280, 10566.31
579.7101, 10598.15
580.1922, 10635.35
580.6743, 10673.60
581.1564, 10688.55
581.6385, 10639.97
582.1207, 10577.20
582.6028, 10573.48
583.0849, 10621.96
583.5670, 10668.44
584.0491, 10681.44
584.5313, 10679.34
585.0134, 10673.11
585.4955, 10659.30
585.9776, 10658.30
586.4597, 10688.42
586.9418, 10728.58
587.4240, 10754.47
587.9061, 10757.34
588.3882, 10758.48
588.8703, 10757.78
589.3524, 10757.45
589.8345, 10764.35
590.3167, 10779.52
590.7988, 10798.45
591.2809, 10823.49
591.7630, 10851.17
592.2451, 10859.12
592.7272, 10846.71
593.2094, 10830.39
593.6915, 10818.97
594.1736, 10814.41
594.6557, 10823.72
595.1378, 10851.58
595.6199, 10877.39
596.1021, 10882.76
596.5842, 10877.07
597.0663, 10873.71
597.5485, 10875.55
598.0306, 10882.15
598.5127, 10894.23
598.9948, 10911.22
599.4769, 10931.16
599.9590, 10964.18
600.4412, 10987.76
600.9233, 10989.16
601.4054, 10965.64
601.8875, 10966.64
602.3696, 11000.53
602.8517, 11038.42
603.3339, 11053.69
603.8160, 11048.27
604.2981, 11044.89
604.7802, 11046.53
605.2623, 11049.22
605.7444, 11044.92
606.2266, 11037.37
606.7087, 11036.61
607.1908, 11046.53
607.6729, 11064.34
608.1550, 11092.22
608.6371, 11126.92
609.1193, 11158.90
609.6014, 11190.08
610.0835, 11212.41
610.5656, 11216.90
611.0477, 11199.35
611.5298, 11194.28
612.0120, 11210.43
612.4941, 11231.64
612.9762, 11246.48
613.4583, 11251.34
613.9404, 11264.36
614.4225, 11290.47
614.9047, 11317.29
615.3868, 11322.16
615.8689, 11307.37
616.3510, 11303.62
616.8331, 11324.57
617.3152, 11354.94
617.7974, 11374.56
618.2795, 11383.89
618.7616, 11385.90
619.2437, 11372.71
619.7258, 11359.89
620.2079, 11358.99
620.6901, 11370.65
621.1722, 11388.02
621.6543, 11417.82
622.1364, 11446.22
622.6185, 11463.98
623.1006, 11469.17
623.5828, 11466.19
624.0649, 11446.11
624.5470, 11426.03
625.0291, 11430.10
625.5112, 11464.43
625.9933, 11489.30
626.4755, 11494.75
626.9576, 11490.41
627.4397, 11495.92
627.9218, 11510.19
628.4039, 11525.15
628.8860, 11537.58
629.3682, 11548.03
629.8503, 11557.38
630.3324, 11565.53
630.8145, 11571.29
631.2966, 11575.75
631.7787, 11576.28
632.2609, 11570.76
632.7430, 11558.33
633.2251, 11542.14
633.7072, 11505.51
634.1893, 11476.38
634.6714, 11479.90
635.1536, 11535.94
635.6357, 11581.73
636.1178, 11613.54
636.5999, 11631.84
637.0820, 11634.80
637.5641, 11621.95
638.0463, 11602.53
638.5284, 11570.79
639.0105, 11541.78
639.4926, 11554.25
639.9747, 11601.34
640.4568, 11642.87
640.9390, 11650.52
641.4211, 11644.36
641.9032, 11641.00
642.3853, 11641.65
642.8674, 11645.51
643.3495, 11654.72
643.8317, 11665.37
644.3138, 11674.46
644.7959, 11677.54
645.2780, 11687.94
645.7601, 11713.61
646.2422, 11739.62
646.7244, 11747.04
647.2065, 11732.18
647.6886, 11717.21
648.1707, 11705.89
648.6528, 11696.69
649.1349, 11681.56
649.6171, 11663.05
650.0992, 11658.62
650.5813, 11689.59
651.0634, 11730.87
651.5455, 11751.24
652.0276, 11753.74
652.5098, 11753.50
652.9919, 11752.98
653.4740, 11756.65
653.9561, 11771.48
654.4382, 11802.35
654.9203, 11817.66
655.4025, 11790.67
655.8846, 11765.63
656.3667, 11775.39
656.8488, 11837.21
657.3309, 11882.87
657.8130, 11910.46
658.2952, 11921.21
658.7773, 11908.53
659.2594, 11875.04
659.7415, 11854.75
660.2236, 11861.26
660.7057, 11877.06
661.1879, 11874.95
661.6700, 11861.27
662.1521, 11853.81
662.6342, 11870.70
663.1163, 11888.32
663.5984, 11890.87
664.0806, 11879.69
664.5627, 11868.88
665.0448, 11859.04
665.5269, 11853.09
666.0090, 11852.03
666.4911, 11855.89
666.9733, 11864.76
667.4554, 11880.08
667.9375, 11897.51
668.4196, 11914.99
668.9017, 11932.39
669.3839, 11944.39
669.8660, 11950.09
670.3481, 11952.33
670.8302, 11948.95
671.3123, 11944.99
671.7944, 11953.94
672.2766, 11995.41
672.7587, 12025.49
673.2408, 11999.09
673.7229, 11942.72
674.2050, 11907.78
674.6871, 11931.90
675.1693, 11953.81
675.6514, 11952.17
676.1335, 11933.09
676.6156, 11928.21
677.0977, 11938.37
677.5798, 11961.44
678.0620, 12005.41
678.5441, 12065.58
679.0262, 12086.73
679.5083, 12066.99
679.9904, 12041.55
680.4725, 12041.90
680.9547, 12054.78
681.4368, 12052.54
681.9189, 12029.53
682.4010, 12015.63
682.8831, 12045.58
683.3652, 12087.82
683.8474, 12109.75
684.3295, 12089.85
684.8116, 12072.02
685.2937, 12061.13
685.7758, 12056.36
686.2579, 12058.98
686.7401, 12075.08
687.2222, 12079.72
687.7043, 12061.35
688.1864, 12035.66
688.6685, 12049.63
689.1506, 12100.07
689.6328, 12135.71
690.1149, 12120.97
690.5970, 12086.52
691.0791, 12073.11
691.5612, 12079.94
692.0433, 12102.71
692.5255, 12169.32
693.0076, 12227.25
693.4897, 12235.77
693.9718, 12187.14
694.4539, 12149.97
694.9360, 12133.05
695.4182, 12130.55
695.9003, 12144.50
696.3824, 12184.11
696.8645, 12191.84
697.3466, 12151.99
697.8287, 12121.46
698.3109, 12185.85
698.7930, 12322.10
699.2751, 12404.47
699.7572, 12404.18
700.2393, 12369.38
700.7214, 12340.47
701.2036, 12313.26
701.6857, 12280.34
702.1678, 12219.75
702.6499, 12175.57
703.1320, 12169.97
703.6141, 12192.83
704.0963, 12219.13
704.5784, 12248.93
705.0605, 12279.91
705.5426, 12317.06
706.0247, 12354.70
706.5068, 12361.71
706.9890, 12334.39
707.4711, 12308.08
707.9532, 12301.54
708.4353, 12309.37
708.9174, 12321.93
709.3995, 12338.33
709.8817, 12349.10
710.3638, 12341.31
710.8459, 12329.10
711.3280, 12323.45
711.8101, 12325.29
712.2922, 12335.91
712.7744, 12359.84
713.2565, 12389.89
713.7386, 12425.06
714.2207, 12483.53
714.7028, 12493.20
715.1849, 12432.20
715.6671, 12360.60
716.1492, 12353.19
716.6313, 12403.80
717.1134, 12434.88
717.5955, 12428.36
718.0776, 12413.98
718.5598, 12428.51
719.0419, 12461.58
719.5240, 12493.47
720.0061, 12524.99
720.4882, 12544.51
720.9703, 12539.80
721.4525, 12519.80
721.9346, 12504.73
722.4167, 12494.22
722.8988, 12492.86
723.3809, 12503.17
723.8630, 12523.12
724.3452, 12547.22
724.8273, 12576.90
725.3094, 12600.02
725.7915, 12609.96
726.2736, 12609.35
726.7557, 12599.39
727.2379, 12582.12
727.7200, 12573.62
728.2021, 12595.83
728.6842, 12623.01
729.1663, 12630.16
729.6484, 12614.43
730.1306, 12608.38
730.6127, 12628.09
731.0948, 12654.69
731.5769, 12679.57
732.0590, 12705.62
732.5411, 12717.59
733.0233, 12712.54
733.5054, 12699.98
733.9875, 12682.85
734.4696, 12663.61
734.9517, 12663.63
735.4338, 12687.48
735.9160, 12717.10
736.3981, 12736.19
736.8802, 12748.57
737.3623, 12759.48
737.8444, 12768.43
738.3266, 12779.79
738.8087, 12798.95
739.2908, 12820.42
739.7729, 12835.37
740.2551, 12835.23
740.7372, 12845.43
741.2193, 12877.21
741.7014, 12913.88
742.1835, 12909.94
742.6656, 12864.74
743.1478, 12845.68
743.6299, 12888.24
744.1120, 12951.01
744.5941, 12960.11
745.0762, 12932.83
745.5583, 12923.22
746.0405, 12976.98
746.5226, 13038.10
747.0047, 13076.23
747.4868, 13094.14
747.9689, 13110.84
748.4510, 13123.00
748.9332, 13141.77
749.4153, 13176.19
749.8974, 13223.11
750.3795, 13241.38
750.8616, 13226.41
751.3438, 13217.65
751.8259, 13252.86
752.3080, 13309.86
752.7901, 13330.41
753.2722, 13315.14
753.7543, 13304.39
754.2365, 13322.03
754.7186, 13357.38
755.2007, 13406.56
755.6828, 13473.44
756.1649, 13529.25
756.6470, 13569.35
757.1292, 13597.57
757.6113, 13613.51
758.0934, 13612.62
758.5755, 13618.06
759.0576, 13628.17
759.5397, 13650.51
760.0219, 13697.28
760.5040, 13763.11
760.9861, 13833.23
761.4682, 13907.23
761.9503, 13971.21
762.4324, 13999.88
762.9146, 14018.81
763.3967, 14059.09
763.8788, 14144.59
764.3609, 14225.00
764.8430, 14291.45
765.3251, 14348.59
765.8073, 14401.28
766.2894, 14448.23
766.7715, 14493.57
767.2536, 14534.13
767.7357, 14579.71
768.2178, 14653.64
768.7000, 14749.10
769.1821, 14835.74
769.6642, 14902.69
770.1463, 14960.37
770.6284, 15010.12
771.1105, 15058.07
771.5927, 15116.03
772.0748, 15201.77
772.5569, 15281.63
773.0390, 15343.28
773.5211, 15394.14
774.0032, 15452.05
774.4854, 15518.28
774.9675, 15587.29
775.4496, 15659.16
775.9317, 15731.24
776.4138, 15802.50
776.8959, 15869.79
777.3781, 15919.38
777.8602, 15933.44
778.3423, 15935.04
778.8244, 15938.89
779.3065, 15946.13
779.7886, 15960.18
780.2708, 15990.15
780.7529, 16018.94
781.2350, 16045.55
781.7171, 16068.25
782.1992, 16070.46
782.6813, 16051.14
783.1635, 16015.09
783.6456, 15953.59
784.1277, 15879.03
784.6098, 15835.59
785.0919, 15820.36
785.5740, 15802.37
786.0562, 15760.88
786.5383, 15708.28
787.0204, 15654.87
787.5025, 15600.90
787.9846, 15542.59
788.4667, 15465.31
788.9489, 15397.22
789.4310, 15350.77
789.9131, 15327.32
790.3952, 15310.29
790.8773, 15303.01
791.3594, 15287.31
791.8416, 15237.84
792.3237, 15171.18
792.8058, 15134.52
793.2879, 15129.49
793.7700, 15130.20
794.2521, 15113.67
794.7343, 15098.49
795.2164, 15103.80
795.6985, 15139.09
796.1806, 15160.40
796.6627, 15146.60
797.1448, 15136.18
797.6270, 15159.81
798.1091, 15225.15
798.5912, 15257.48
799.0733, 15251.33
799.5554, 15240.70
800.0375, 15265.15
800.5197, 15306.93
801.0018, 15324.66
801.4839, 15307.71
801.9660, 15310.16
802.4481, 15381.49
802.9302, 15476.22
803.4124, 15556.38
803.8945, 15610.55
804.3766, 15663.54
804.8587, 15717.25
805.3408, 15767.23
805.8229, 15807.10
806.3051, 15836.95
806.7872, 15872.44
807.2693, 15915.50
807.7514, 15961.24
808.2335, 16008.07
808.7156, 16053.61
809.1978, 16092.87
809.6799, 16121.80
810.1620, 16154.54
810.6441, 16209.51
811.1262, 16263.94
811.6083, 16293.13
812.0905, 16277.23
812.5726, 16287.06
813.0547, 16339.72
813.5368, 16387.69
814.0189, 16358.12
814.5010, 16267.33
814.9832, 16212.88
815.4653, 16214.08
815.9474, 16236.53
816.4295, 16274.02
816.9116, 16303.25
817.3937, 16288.72
817.8759, 16176.28
818.3580, 16110.18
818.8401, 16168.26
819.3222, 16254.09
819.8043, 16272.19
820.2864, 16201.76
820.7686, 16162.73
821.2507, 16172.24
821.7328, 16195.88
822.2149, 16187.29
822.6970, 16157.85
823.1791, 16136.21
823.6613, 16130.36
824.1434, 16128.57
824.6255, 16109.92
825.1076, 16097.20
825.5897, 16116.04
826.0718, 16218.79
826.5540, 16283.15
827.0361, 16294.31
827.5182, 16284.79
828.0003, 16292.88
828.4824, 16318.33
828.9645, 16341.13
829.4467, 16355.93
829.9288, 16377.47
830.4109, 16421.97
830.8930, 16484.31
831.3751, 16558.90
831.8572, 16649.33
832.3394, 16738.88
832.8215, 16810.66
833.3036, 16885.96
833.7857, 16991.71
834.2678, 17145.36
834.7499, 17272.35
835.2321, 17361.48
835.7142, 17437.04
836.1963, 17525.51
836.6784, 17626.20
837.1605, 17731.27
837.6426, 17835.18
838.1248, 17957.68
838.6069, 18123.22
839.0890, 18311.38
839.5711, 18497.84
840.0532, 18675.79
840.5353, 18854.82
841.0175, 19028.67
841.4996, 19211.31
841.9817, 19415.02
842.4638, 19640.96
842.9459, 19879.28
843.4280, 20129.81
843.9102, 20388.65
844.3923, 20658.06
844.8744, 20931.78
845.3565, 21192.62
845.8386, 21432.13
846.3207, 21684.43
846.8029, 21971.38
847.2850, 22272.13
847.7671, 22570.42
848.2492, 22872.47
848.7313, 23157.01
849.2134, 23425.76
849.6956, 23667.24
850.1777, 23860.29
850.6598, 24017.53
851.1419, 24190.96
851.6240, 24391.36
852.1061, 24565.24
852.5883, 24660.28
853.0704, 24719.10
853.5525, 24787.51
854.0346, 24891.85
854.5167, 24939.86
854.9988, 24929.58
855.4810, 24861.34
855.9631, 24721.72
856.4452, 24508.83
856.9273, 24312.18
857.4094, 24137.63
857.8915, 23938.86
858.3737, 23662.95
858.8558, 23348.21
859.3379, 23039.29
859.8200, 22743.97
860.3021, 22454.60
860.7842, 22184.14
861.2664, 21911.88
861.7485, 21631.06
862.2306, 21338.94
862.7127, 21040.85
863.1948, 20731.83
863.6769, 20428.21
864.1591, 20121.77
864.6412, 19831.52
865.1233, 19608.26
865.6054, 19446.38
866.0875, 19279.42
866.5696, 19048.15
867.0518, 18812.34
867.5339, 18609.44
868.0160, 18441.62
868.4981, 18284.32
868.9802, 18141.45
869.4623, 17999.04
869.9445, 17848.37
870.4266, 17694.01
870.9087, 17559.46
871.3908, 17441.93
871.8729, 17330.12
872.3550, 17214.39
872.8372, 17101.66
873.3193, 16999.00
873.8014, 16904.56
874.2835, 16812.19
874.7656, 16702.94
875.2477, 16619.21
875.7299, 16587.09
876.2120, 16585.60
876.6941, 16520.74
877.1762, 16392.97
877.6583, 16277.93
878.1404, 16218.78
878.6226, 16180.27
879.1047, 16108.63
879.5869, 16020.09
880.0690, 15954.58
880.5511, 15957.85
881.0332, 15950.93
881.5153, 15900.50
881.9974, 15828.39
882.4796, 15775.95
882.9617, 15744.33
883.4438, 15731.26
883.9259, 15748.41
884.4080, 15759.45
884.8901, 15689.36
885.3723, 15569.06
885.8544, 15470.17
886.3365, 15421.08
886.8186, 15393.44
887.3007, 15396.75
887.7828, 15405.74
888.2650, 15381.96
888.7471, 15303.04
889.2292, 15252.24
889.7113, 15239.91
890.1934, 15249.09
890.6755, 15274.34
891.1577, 15303.05
891.6398, 15290.96
892.1219, 15223.61
892.6040, 15147.91
893.0861, 15071.45
893.5682, 15017.43
894.0504, 15015.25
894.5325, 15107.41
895.0146, 15149.43
895.4967, 15121.42
895.9788, 15080.04
896.4609, 15079.58
896.9431, 15110.53
897.4252, 15105.88
897.9073, 15061.66
898.3894, 15026.86
898.8715, 15048.72
899.3536, 15088.27
899.8358, 15113.90
900.3179, 15121.38
900.8000, 15125.16
901.2821, 15122.36
901.7642, 15123.07
902.2463, 15134.26
902.7285, 15153.52
903.2106, 15159.92
903.6927, 15154.18
904.1748, 15155.83
904.6569, 15188.64
905.1390, 15225.90
905.6212, 15240.94
906.1033, 15236.40
906.5854, 15227.04
907.0675, 15202.49
907.5496, 15192.13
908.0317, 15210.92
908.5139, 15245.31
908.9960, 15248.50
909.4781, 15220.29
909.9602, 15205.61
910.4423, 15231.00
910.9244, 15259.94
911.4066, 15235.62
911.8887, 15185.15
912.3708, 15158.22
912.8529, 15194.17
913.3350, 15227.02
913.8171, 15245.39
914.2993, 15254.48
914.7814, 15260.74
915.2635, 15264.32
915.7456, 15260.68
916.2277, 15246.99
916.7098, 15235.38
917.1920, 15245.01
917.6741, 15263.89
918.1562, 15272.24
918.6383, 15260.41
919.1204, 15258.24
919.6025, 15292.09
920.0847, 15324.38
920.5668, 15331.79
921.0489, 15313.46
921.5310, 15259.58
922.0131, 15161.79
922.4952, 15098.71
922.9774, 15172.23
923.4595, 15302.59
923.9416, 15376.54
924.4237, 15388.16
924.9058, 15371.37
925.3879, 15297.73
925.8701, 15242.59
926.3522, 15245.35
926.8343, 15296.65
927.3164, 15319.88
927.7985, 15313.05
928.2806, 15297.61
928.7628, 15280.46
929.2449, 15263.35
929.7270, 15246.15
930.2091, 15231.09
930.6912, 15223.79
931.1733, 15231.72
931.6555, 15242.02
932.1376, 15256.53
932.6197, 15268.58
933.1018, 15262.84
933.5839, 15235.26
934.0660, 15222.43
934.5482, 15234.96
935.0303, 15251.40
935.5124, 15241.28
935.9945, 15216.32
936.4766, 15195.52
936.9587, 15179.42
937.4409, 15177.86
937.9230, 15209.02
938.4051, 15244.66
938.8872, 15260.56
939.3693, 15250.52
939.8514, 15261.98
940.3336, 15298.02
940.8157, 15332.69
941.2978, 15340.98
941.7799, 15336.17
942.2620, 15335.78
942.7441, 15341.09
943.2263, 15350.77
943.7084, 15371.69
944.1905, 15388.37
944.6726, 15388.61
945.1547, 15378.31
945.6368, 15399.59
946.1190, 15454.74
946.6011, 15505.37
947.0832, 15528.58
947.5653, 15544.47
948.0474, 15582.88
948.5295, 15635.41
949.0117, 15682.50
949.4938, 15700.25
949.9759, 15734.34
950.4580, 15795.66
950.9401, 15875.17
951.4222, 15962.34
951.9044, 16057.75
952.3865, 16146.70
952.8686, 16226.93
953.3507, 16299.88
953.8328, 16359.21
954.3149, 16415.87
954.7971, 16484.21
955.2792, 16566.91
955.7613, 16657.34
956.2434, 16765.60
956.7255, 16867.45
957.2076, 16942.46
957.6898, 16992.29
958.1719, 17069.67
958.6540, 17174.77
959.1361, 17276.49
959.6182, 17351.34
960.1003, 17415.86
960.5825, 17488.32
961.0646, 17566.31
961.5467, 17633.06
962.0288, 17697.17
962.5109, 17729.82
962.9930, 17715.36
963.4752, 17672.04
963.9573, 17653.65
964.4394, 17652.04
964.9215, 17613.42
965.4036, 17508.35
965.8857, 17383.83
966.3679, 17270.04
966.8500, 17163.01
967.3321, 17056.42
967.8142, 16952.39
968.2963, 16844.05
968.7784, 16730.19
969.2606, 16616.11
969.7427, 16504.13
970.2248, 16397.47
970.7069, 16310.65
971.1890, 16244.89
971.6711, 16182.93
972.1533, 16109.95
972.6354, 16040.81
973.1175, 15983.97
973.5996, 15940.16
974.0817, 15919.94
974.5638, 15934.60
975.0460, 15931.81
975.5281, 15881.21
976.0102, 15807.23
976.4923, 15758.16
976.9744, 15729.32
977.4565, 15706.96
977.9387, 15693.34
978.4208, 15675.50
978.9029, 15633.57
979.3850, 15592.56
979.8671, 15592.83
980.3492, 15645.69
980.8314, 15671.63
981.3135, 15658.99
981.7956, 15632.17
982.2777, 15614.94
982.7598, 15601.98
983.2419, 15583.46
983.7241, 15556.23
984.2062, 15538.36
984.6883, 15532.84
985.1704, 15541.89
985.6525, 15575.06
986.1346, 15627.49
986.6168, 15640.16
987.0989, 15614.46
987.5810, 15593.91
988.0631, 15621.61
988.5452, 15650.74
989.0273, 15617.52
989.5095, 15551.17
989.9916, 15528.26
990.4737, 15608.18
990.9558, 15660.68
991.4379, 15660.75
991.9200, 15640.89
992.4022, 15653.04
992.8843, 15689.81
993.3664, 15719.28
993.8485, 15734.38
994.3306, 15747.78
994.8127, 15767.64
995.2949, 15790.02
995.7770, 15811.29
996.2591, 15830.86
996.7412, 15852.76
997.2233, 15878.42
997.7054, 15900.59
998.1876, 15917.60
998.6697, 15926.81
999.1518, 15913.95
999.6339, 15886.22
1000.116, 15872.16
1000.598, 15894.89
1001.080, 15921.63
1001.562, 15947.36
1002.044, 15967.16
1002.527, 15970.75
1003.009, 15957.24
1003.491, 15938.18
1003.973, 15914.05
1004.455, 15892.98
1004.937, 15893.14
1005.419, 15897.62
1005.901, 15882.28
1006.384, 15835.93
1006.866, 15799.59
1007.348, 15774.86
1007.830, 15765.80
1008.312, 15785.38
1008.794, 15824.05
1009.276, 15816.00
1009.758, 15767.10
1010.240, 15726.14
1010.723, 15728.21
1011.205, 15740.70
1011.687, 15747.71
1012.169, 15748.84
1012.651, 15744.37
1013.133, 15732.00
1013.615, 15719.66
1014.097, 15706.20
1014.580, 15699.27
1015.062, 15718.60
1015.544, 15749.58
1016.026, 15760.80
1016.508, 15741.89
1016.990, 15730.47
1017.472, 15748.41
1017.954, 15772.57
1018.436, 15794.17
1018.919, 15812.21
1019.401, 15798.69
1019.883, 15753.49
1020.365, 15721.01
1020.847, 15734.27
1021.329, 15766.29
1021.811, 15800.49
1022.293, 15831.62
1022.776, 15847.05
1023.258, 15832.70
1023.740, 15821.32
1024.222, 15814.95
1024.704, 15814.51
1025.186, 15831.03
1025.668, 15854.86
1026.150, 15843.29
1026.632, 15786.69
1027.115, 15746.65
1027.597, 15786.44
1028.079, 15833.44
1028.561, 15830.94
1029.043, 15781.69
1029.525, 15762.52
1030.007, 15775.67
1030.489, 15804.00
1030.972, 15851.06
1031.454, 15896.17
1031.936, 15908.62
1032.418, 15897.63
1032.900, 15882.96
1033.382, 15860.23
1033.864, 15849.87
1034.346, 15857.71
1034.828, 15872.61
1035.311, 15879.93
1035.793, 15882.19
1036.275, 15897.08
1036.757, 15926.21
1037.239, 15958.78
1037.721, 16006.80
1038.203, 16038.81
1038.685, 16020.92
1039.167, 15959.24
1039.650, 15918.83
1040.132, 15902.53
1040.614, 15896.67
1041.096, 15897.08
1041.578, 15905.27
1042.060, 15937.69
1042.542, 15976.41
1043.024, 15985.51
1043.507, 15929.97
1043.989, 15892.90
1044.471, 15894.01
1044.953, 15911.75
1045.435, 15934.76
1045.917, 15961.78
1046.399, 15972.09
1046.881, 15966.44
1047.364, 15968.38
1047.846, 16016.71
1048.328, 16056.96
1048.810, 16034.43
1049.292, 15968.84
1049.774, 15952.50
1050.256, 16003.01
1050.738, 16043.64
1051.220, 16059.95
1051.703, 16058.32
1052.185, 16035.62
1052.667, 16005.25
1053.149, 15988.40
1053.631, 15988.29
1054.113, 16007.01
1054.595, 16065.15
1055.077, 16119.76
1055.559, 16152.12
1056.042, 16162.28
1056.524, 16139.87
1057.006, 16090.38
1057.488, 16058.67
1057.970, 16085.84
1058.452, 16121.26
1058.934, 16126.41
1059.416, 16120.48
1059.899, 16143.61
1060.381, 16213.92
1060.863, 16248.10
1061.345, 16234.17
1061.827, 16206.04
1062.309, 16185.02
1062.791, 16179.06
1063.273, 16209.85
1063.755, 16277.81
1064.238, 16330.12
1064.720, 16356.29
1065.202, 16357.52
1065.684, 16324.29
1066.166, 16272.88
1066.648, 16246.51
1067.130, 16243.36
1067.612, 16256.34
1068.094, 16295.06
1068.577, 16320.87
1069.059, 16294.39
1069.541, 16254.67
1070.023, 16238.37
1070.505, 16247.56
1070.987, 16280.43
1071.469, 16342.19
1071.951, 16380.99
1072.434, 16336.01
1072.916, 16266.97
1073.398, 16243.22
1073.880, 16256.13
1074.362, 16271.13
1074.844, 16271.96
1075.326, 16292.99
1075.808, 16350.06
1076.291, 16408.69
1076.773, 16411.67
1077.255, 16377.84
1077.737, 16362.16
1078.219, 16373.45
1078.701, 16383.70
1079.183, 16389.84
1079.665, 16377.92
1080.147, 16325.21
1080.630, 16248.23
1081.112, 16257.89
1081.594, 16351.00
1082.076, 16429.35
1082.558, 16454.81
1083.040, 16454.01
1083.522, 16433.67
1084.004, 16409.17
1084.486, 16402.73
1084.969, 16424.84
1085.451, 16440.46
1085.933, 16448.43
1086.415, 16453.91
1086.897, 16456.55
1087.379, 16461.49
1087.861, 16484.28
1088.343, 16519.18
1088.826, 16541.56
1089.308, 16538.13
1089.790, 16523.72
1090.272, 16489.09
1090.754, 16459.71
1091.236, 16493.07
1091.718, 16570.22
1092.200, 16596.34
1092.682, 16553.76
1093.165, 16511.16
1093.647, 16520.25
1094.129, 16534.84
1094.611, 16517.43
1095.093, 16476.31
1095.575, 16481.36
1096.057, 16534.91
1096.539, 16575.45
1097.022, 16571.32
1097.504, 16561.37
1097.986, 16597.17
1098.468, 16646.99
1098.950, 16664.90
1099.432, 16629.09
1099.914, 16598.99
1100.396, 16571.80
1100.879, 16560.83
1101.361, 16593.45
1101.843, 16640.97
1102.325, 16639.31
1102.807, 16601.32
1103.289, 16576.85
1103.771, 16592.48
1104.253, 16614.51
1104.735, 16644.97
1105.218, 16668.86
1105.700, 16652.20
1106.182, 16607.96
1106.664, 16608.13
1107.146, 16661.40
1107.628, 16702.43
1108.110, 16673.07
1108.592, 16638.49
1109.074, 16635.72
1109.557, 16658.07
1110.039, 16683.99
1110.521, 16713.92
1111.003, 16723.72
1111.485, 16699.82
1111.967, 16673.47
1112.449, 16665.71
1112.931, 16676.89
1113.414, 16715.58
1113.896, 16793.96
1114.378, 16832.08
1114.860, 16824.13
1115.342, 16800.66
1115.824, 16767.39
1116.306, 16738.73
1116.788, 16741.87
1117.271, 16767.13
1117.753, 16793.04
1118.235, 16828.71
1118.717, 16836.95
1119.199, 16802.88
1119.681, 16765.93
1120.163, 16774.47
1120.645, 16810.14
1121.127, 16813.27
1121.609, 16785.30
1122.092, 16766.23
1122.574, 16780.96
1123.056, 16803.18
1123.538, 16830.13
1124.020, 16853.99
1124.502, 16856.37
1124.984, 16839.64
1125.466, 16820.27
1125.949, 16799.59
1126.431, 16793.01
1126.913, 16834.06
1127.395, 16873.81
1127.877, 16869.46
1128.359, 16828.03
1128.841, 16804.83
1129.323, 16800.22
1129.806, 16809.53
1130.288, 16836.83
1130.770, 16864.72
1131.252, 16870.19
1131.734, 16868.08
1132.216, 16878.70
1132.698, 16908.86
1133.180, 16939.14
1133.662, 16974.45
1134.145, 16988.02
1134.627, 16936.98
1135.109, 16870.91
1135.591, 16871.84
1136.073, 16921.46
1136.555, 16973.24
1137.037, 17038.75
1137.519, 17064.49
1138.001, 17036.63
1138.484, 16991.51
1138.966, 16957.28
1139.448, 16937.66
1139.930, 16951.53
1140.412, 16995.38
1140.894, 17029.76
1141.376, 17024.47
1141.858, 17027.40
1142.341, 17060.14
1142.823, 17098.30
1143.305, 17090.02
1143.787, 17046.34
1144.269, 17016.87
1144.751, 17010.50
1145.233, 17011.33
1145.715, 17001.08
1146.198, 17006.63
1146.680, 17052.38
1147.162, 17123.95
1147.644, 17148.36
1148.126, 17128.56
1148.608, 17102.55
1149.090, 17077.09
1149.572, 17062.37
1150.054, 17069.60
1150.536, 17089.04
1151.019, 17116.06
1151.501, 17152.44
1151.983, 17156.76
1152.465, 17127.31
1152.947, 17109.58
1153.429, 17148.83
1153.911, 17187.45
1154.393, 17142.98
1154.876, 17068.18
1155.358, 17065.25
1155.840, 17187.58
1156.322, 17223.97
1156.804, 17156.51
1157.286, 17080.46
1157.768, 17075.69
1158.250, 17104.26
1158.733, 17120.68
1159.215, 17128.47
1159.697, 17148.21
1160.179, 17194.12
1160.661, 17226.00
1161.143, 17236.13
1161.625, 17240.16
1162.107, 17254.45
1162.589, 17276.08
1163.072, 17307.70
1163.554, 17347.19
1164.036, 17360.52
1164.518, 17318.46
1165.000, 17284.08
1165.482, 17271.43
1165.964, 17274.97
1166.446, 17295.39
1166.928, 17321.89
1167.411, 17326.64
1167.893, 17300.60
1168.375, 17282.26
1168.857, 17292.28
1169.339, 17301.69
1169.821, 17297.09
1170.303, 17286.06
1170.785, 17290.80
1171.268, 17308.14
1171.750, 17328.60
1172.232, 17350.88
1172.714, 17371.06
1173.196, 17397.34
1173.678, 17410.11
1174.160, 17392.46
1174.642, 17349.76
1175.125, 17310.32
1175.607, 17277.27
1176.089, 17270.30
1176.571, 17329.17
1177.053, 17375.44
1177.535, 17349.83
1178.017, 17314.46
1178.499, 17337.03
1178.981, 17416.46
1179.464, 17437.67
1179.946, 17402.47
1180.428, 17361.25
1180.910, 17324.55
1181.392, 17313.50
1181.874, 17358.87
1182.356, 17427.76
1182.838, 17471.62
1183.320, 17490.19
1183.803, 17500.07
1184.285, 17502.51
1184.767, 17498.94
1185.249, 17481.91
1185.731, 17467.37
1186.213, 17465.31
1186.695, 17475.11
1187.177, 17497.70
1187.660, 17534.62
1188.142, 17558.32
1188.624, 17562.55
1189.106, 17566.24
1189.588, 17595.62
1190.070, 17623.40
1190.552, 17624.66
1191.034, 17601.83
1191.516, 17579.11
1191.999, 17556.27
1192.481, 17532.83
1192.963, 17506.14
1193.445, 17487.15
1193.927, 17486.05
1194.409, 17498.72
1194.891, 17526.83
1195.373, 17570.53
1195.855, 17596.17
1196.338, 17602.47
1196.820, 17602.56
1197.302, 17599.20
1197.784, 17596.54
1198.266, 17602.55
1198.748, 17610.21
1199.230, 17609.28
1199.712, 17596.75
1200.195, 17590.57
1200.677, 17591.78
1201.159, 17591.68
1201.641, 17581.83
1202.123, 17573.14
1202.605, 17576.22
1203.087, 17589.77
1203.569, 17614.49
1204.052, 17662.78
1204.534, 17679.52
1205.016, 17659.38
1205.498, 17640.22
1205.980, 17650.40
1206.462, 17673.84
1206.944, 17694.61
1207.426, 17713.77
1207.908, 17733.64
1208.391, 17755.26
1208.873, 17778.40
1209.355, 17805.74
1209.837, 17821.05
1210.319, 17792.30
1210.801, 17758.02
1211.283, 17774.78
1211.765, 17825.17
1212.247, 17841.02
1212.730, 17803.59
1213.212, 17777.33
1213.694, 17769.28
1214.176, 17771.19
1214.658, 17782.63
1215.140, 17793.93
1215.622, 17785.11
1216.104, 17763.04
1216.587, 17774.05
1217.069, 17835.36
1217.551, 17874.84
1218.033, 17877.53
1218.515, 17870.15
1218.997, 17887.84
1219.479, 17908.21
1219.961, 17897.03
1220.443, 17856.26
1220.926, 17850.41
1221.408, 17895.07
1221.890, 17919.35
1222.372, 17903.50
1222.854, 17873.53
1223.336, 17840.61
1223.818, 17823.71
1224.300, 17854.66
1224.782, 17939.29
1225.265, 17998.63
1225.747, 18031.83
1226.229, 18039.01
1226.711, 18010.89
1227.193, 17982.50
1227.675, 18007.06
1228.157, 18049.33
1228.639, 18068.44
1229.122, 18058.38
1229.604, 18031.04
1230.086, 17981.01
1230.568, 17949.43
1231.050, 17955.99
1231.532, 17979.55
1232.014, 18001.88
1232.496, 18023.53
1232.979, 18048.11
1233.461, 18077.85
1233.943, 18087.72
1234.425, 18075.16
1234.907, 18069.53
1235.389, 18096.69
1235.871, 18117.01
1236.353, 18073.97
1236.835, 18009.75
1237.318, 17980.49
1237.800, 17989.96
1238.282, 18017.65
1238.764, 18064.31
1239.246, 18109.72
1239.728, 18144.63
1240.210, 18170.01
1240.692, 18185.36
1241.175, 18191.22
1241.657, 18187.75
1242.139, 18173.64
1242.621, 18158.44
1243.103, 18141.93
1243.585, 18134.84
1244.067, 18137.55
1244.549, 18158.18
1245.031, 18227.48
1245.514, 18303.84
1245.996, 18328.38
1246.478, 18296.35
1246.960, 18265.12
1247.442, 18236.69
1247.924, 18232.83
1248.406, 18313.10
1248.888, 18371.55
1249.370, 18305.55
1249.853, 18209.38
1250.335, 18217.21
1250.817, 18324.36
1251.299, 18395.95
1251.781, 18425.89
1252.263, 18420.67
1252.745, 18339.92
1253.227, 18277.41
1253.710, 18284.84
1254.192, 18325.00
1254.674, 18361.54
1255.156, 18392.26
1255.638, 18395.77
1256.120, 18373.19
1256.602, 18352.04
1257.084, 18346.18
1257.567, 18345.73
1258.049, 18342.93
1258.531, 18348.14
1259.013, 18388.94
1259.495, 18449.85
1259.977, 18465.16
1260.459, 18434.93
1260.941, 18417.32
1261.423, 18454.54
1261.906, 18485.74
1262.388, 18493.89
1262.870, 18495.83
1263.352, 18521.53
1263.834, 18557.91
1264.316, 18564.51
1264.798, 18542.33
1265.280, 18550.95
1265.762, 18654.57
1266.245, 18711.63
1266.727, 18687.88
1267.209, 18630.52
1267.691, 18581.94
1268.173, 18554.76
1268.655, 18587.96
1269.137, 18678.64
1269.619, 18719.41
1270.102, 18678.30
1270.584, 18645.43
1271.066, 18636.68
1271.548, 18651.51
1272.030, 18716.49
1272.512, 18786.42
1272.994, 18798.06
1273.476, 18750.70
1273.958, 18726.35
1274.441, 18728.96
1274.923, 18751.84
1275.405, 18799.98
1275.887, 18838.04
1276.369, 18806.25
1276.851, 18764.47
1277.333, 18784.43
1277.815, 18852.64
1278.297, 18861.67
1278.780, 18807.73
1279.262, 18775.77
1279.744, 18787.49
1280.226, 18810.21
1280.708, 18813.40
1281.190, 18822.19
1281.672, 18863.83
1282.154, 18924.33
1282.637, 18953.53
1283.119, 18953.01
1283.601, 18933.27
1284.083, 18893.01
1284.565, 18859.61
1285.047, 18840.96
1285.529, 18846.67
1286.011, 18894.01
1286.494, 18956.42
1286.976, 18943.83
1287.458, 18880.81
1287.940, 18853.46
##END=



