##NAMES=Agardite-(Y)
##RRUFFID=R070649
##IDEAL CHEMISTRY=Cu^2+^_6_Y^3+^(As^5+^O_4_)_3_(OH)_6_&#183;3H_2_O
##LOCALITY=Jote West mine, Pampa Larga Mining District, Copiapo, Chile
##OWNER=RRUFF
##SOURCE=Bob Jenkins
##DESCRIPTION=Sprays of bright green acicular crystals. Sample used in Morrison <em>et al.</em> (2013) study.
##STATUS=The identification of this mineral is confirmed by single-crystal X-ray diffraction and chemical analysis.
##URL=rruff.info/R070649
##MEASURED CHEMISTRY=(Cu_5.33_Al_0.12_Ca_0.03_Mn_0.01_)_Σ=5.49_(Y_0.52_Er_0.02_Dy_0.01_Yb_0.01_Ho_0.01_Ca_0.43_)_Σ=1.00_[(AsO_4_)_0.88_(PO_4_)_0.14_)]_3_(OH)_6_·2.99H_2_O
147.9413, 2726.986
148.4234, 2769.217
148.9055, 2812.115
149.3877, 2832.455
149.8698, 2805.042
150.3519, 2784.901
150.8340, 2773.737
151.3161, 2771.304
151.7982, 2775.486
152.2804, 2790.524
152.7625, 2809.604
153.2446, 2828.093
153.7267, 2847.789
154.2088, 2864.444
154.6909, 2876.414
155.1731, 2883.141
155.6552, 2889.275
156.1373, 2899.111
156.6194, 2907.831
157.1015, 2909.436
157.5836, 2886.885
158.0658, 2869.093
158.5479, 2870.217
159.0300, 2901.229
159.5121, 2930.250
159.9942, 2945.258
160.4763, 2950.967
160.9585, 2958.249
161.4406, 2975.295
161.9227, 2992.917
162.4048, 3004.689
162.8869, 3003.921
163.3690, 3002.958
163.8512, 3004.568
164.3333, 3009.436
164.8154, 3022.297
165.2975, 3056.814
165.7796, 3096.829
166.2617, 3124.915
166.7439, 3116.172
167.2260, 3106.389
167.7081, 3122.548
168.1902, 3166.453
168.6723, 3213.921
169.1544, 3252.190
169.6366, 3282.993
170.1187, 3309.369
170.6008, 3335.748
171.0829, 3357.077
171.5650, 3364.419
172.0471, 3352.202
172.5293, 3342.368
173.0114, 3360.404
173.4935, 3398.576
173.9756, 3431.174
174.4577, 3437.964
174.9398, 3431.299
175.4220, 3429.193
175.9041, 3436.311
176.3862, 3447.757
176.8683, 3458.446
177.3504, 3468.381
177.8326, 3478.787
178.3147, 3488.701
178.7968, 3499.524
179.2789, 3515.472
179.7610, 3545.628
180.2431, 3577.383
180.7253, 3587.322
181.2074, 3574.516
181.6895, 3556.469
182.1716, 3550.991
182.6537, 3555.455
183.1358, 3558.900
183.6179, 3551.852
184.1001, 3540.254
184.5822, 3543.978
185.0643, 3566.437
185.5464, 3592.555
186.0285, 3599.301
186.5106, 3588.599
186.9928, 3581.123
187.4749, 3595.114
187.9570, 3624.133
188.4391, 3635.321
188.9212, 3620.847
189.4033, 3594.968
189.8855, 3585.960
190.3676, 3594.422
190.8497, 3601.141
191.3318, 3581.274
191.8139, 3489.202
192.2960, 3536.244
192.7782, 3555.775
193.2603, 3549.279
193.7424, 3438.791
194.2245, 3462.587
194.7066, 3432.568
195.1887, 3400.342
195.6709, 3443.035
196.1530, 3348.944
196.6351, 3318.698
197.1172, 3316.229
197.5993, 3305.366
198.0814, 3285.860
198.5636, 3259.141
199.0457, 3220.939
199.5278, 3167.575
200.0099, 3129.096
200.4920, 3127.098
200.9741, 3162.613
201.4563, 3158.158
201.9384, 3101.764
202.4205, 3023.716
202.9026, 2974.625
203.3847, 2959.046
203.8668, 2952.871
204.3490, 2947.072
204.8311, 2941.947
205.3132, 2934.785
205.7953, 2924.851
206.2774, 2913.188
206.7595, 2902.267
207.2417, 2891.912
207.7238, 2882.604
208.2059, 2876.999
208.6880, 2878.498
209.1701, 2867.334
209.6522, 2835.841
210.1344, 2790.976
210.6165, 2764.574
211.0986, 2761.606
211.5807, 2767.407
212.0628, 2772.457
212.5449, 2778.115
213.0271, 2778.956
213.5092, 2773.184
213.9913, 2761.320
214.4734, 2750.166
214.9555, 2738.973
215.4376, 2729.577
215.9198, 2724.469
216.4019, 2725.511
216.8840, 2725.987
217.3661, 2723.803
217.8482, 2718.640
218.3303, 2715.742
218.8125, 2714.788
219.2946, 2716.273
219.7767, 2720.650
220.2588, 2727.077
220.7409, 2737.889
221.2230, 2753.934
221.7052, 2776.070
222.1873, 2800.227
222.6694, 2828.547
223.1515, 2857.329
223.6336, 2879.167
224.1157, 2892.377
224.5978, 2901.954
225.0800, 2908.832
225.5621, 2910.292
226.0442, 2917.361
226.5263, 2934.231
227.0084, 2955.474
227.4905, 2965.306
227.9727, 2952.730
228.4548, 2945.062
228.9369, 2959.619
229.4190, 3017.106
229.9011, 3047.935
230.3832, 3039.893
230.8654, 3002.499
231.3475, 2974.156
231.8296, 2957.968
232.3117, 2947.131
232.7938, 2938.832
233.2759, 2938.699
233.7581, 2929.717
234.2402, 2909.224
234.7223, 2877.900
235.2044, 2842.399
235.6865, 2796.892
236.1686, 2753.885
236.6508, 2723.988
237.1329, 2716.033
237.6150, 2704.292
238.0971, 2685.038
238.5792, 2658.357
239.0613, 2628.548
239.5435, 2592.184
240.0256, 2556.054
240.5077, 2526.477
240.9898, 2504.383
241.4719, 2486.854
241.9540, 2475.991
242.4362, 2473.124
242.9183, 2458.762
243.4004, 2424.986
243.8825, 2386.334
244.3646, 2360.009
244.8467, 2351.668
245.3289, 2345.906
245.8110, 2339.367
246.2931, 2331.986
246.7752, 2324.285
247.2573, 2316.560
247.7394, 2308.419
248.2216, 2298.606
248.7037, 2283.519
249.1858, 2273.048
249.6679, 2271.422
250.1500, 2281.993
250.6321, 2288.438
251.1143, 2291.713
251.5964, 2290.224
252.0785, 2279.165
252.5606, 2249.709
253.0427, 2225.682
253.5248, 2217.986
254.0070, 2235.036
254.4891, 2240.821
254.9712, 2228.828
255.4533, 2208.680
255.9354, 2203.229
256.4175, 2222.337
256.8997, 2239.000
257.3818, 2240.093
257.8639, 2218.186
258.3460, 2201.967
258.8281, 2193.509
259.3102, 2190.274
259.7924, 2184.770
260.2745, 2175.223
260.7566, 2166.705
261.2387, 2161.502
261.7208, 2159.755
262.2029, 2161.750
262.6851, 2169.810
263.1672, 2181.073
263.6493, 2184.888
264.1314, 2178.425
264.6135, 2170.150
265.0956, 2164.968
265.5778, 2163.742
266.0599, 2162.854
266.5420, 2162.871
267.0241, 2162.783
267.5062, 2157.483
267.9883, 2144.059
268.4705, 2131.926
268.9526, 2128.254
269.4347, 2134.746
269.9168, 2142.899
270.3989, 2155.447
270.8810, 2168.377
271.3632, 2160.179
271.8453, 2122.674
272.3274, 2085.154
272.8095, 2070.335
273.2916, 2081.803
273.7737, 2098.116
274.2559, 2119.892
274.7380, 2143.657
275.2201, 2151.839
275.7022, 2140.927
276.1843, 2124.865
276.6664, 2113.050
277.1486, 2105.051
277.6307, 2106.290
278.1128, 2121.866
278.5949, 2146.977
279.0770, 2158.481
279.5591, 2154.102
280.0413, 2145.030
280.5234, 2143.260
281.0055, 2149.412
281.4876, 2146.873
281.9697, 2127.600
282.4518, 2097.759
282.9340, 2084.300
283.4161, 2089.598
283.8982, 2098.972
284.3803, 2096.302
284.8624, 2082.110
285.3445, 2074.226
285.8266, 2079.982
286.3087, 2094.633
286.7909, 2102.359
287.2730, 2102.853
287.7551, 2098.290
288.2372, 2088.066
288.7193, 2073.095
289.2014, 2061.305
289.6836, 2056.420
290.1657, 2055.860
290.6478, 2051.959
291.1299, 2044.348
291.6120, 2037.287
292.0941, 2038.510
292.5763, 2045.362
293.0584, 2043.801
293.5405, 2022.544
294.0226, 1993.025
294.5047, 1981.943
294.9868, 1989.952
295.4690, 2002.730
295.9511, 2010.285
296.4332, 2012.351
296.9153, 2007.418
297.3974, 1988.655
297.8795, 1966.033
298.3617, 1957.446
298.8438, 1962.968
299.3259, 1972.217
299.8080, 1976.936
300.2901, 1978.413
300.7722, 1979.762
301.2544, 1981.609
301.7365, 1984.085
302.2186, 1986.839
302.7007, 1989.850
303.1828, 1994.906
303.6649, 2005.556
304.1471, 2019.042
304.6292, 2030.236
305.1113, 2033.726
305.5934, 2036.302
306.0755, 2045.190
306.5576, 2060.222
307.0398, 2076.545
307.5219, 2090.316
308.0040, 2103.434
308.4861, 2118.238
308.9682, 2137.869
309.4503, 2158.091
309.9325, 2174.617
310.4146, 2187.958
310.8967, 2204.113
311.3788, 2230.573
311.8609, 2260.436
312.3430, 2286.330
312.8252, 2298.090
313.3073, 2311.279
313.7894, 2338.771
314.2715, 2379.294
314.7536, 2412.042
315.2357, 2415.986
315.7179, 2412.336
316.2000, 2421.125
316.6821, 2464.515
317.1642, 2506.482
317.6463, 2529.888
318.1284, 2536.394
318.6106, 2544.677
319.0927, 2560.641
319.5748, 2581.015
320.0569, 2603.216
320.5390, 2631.990
321.0211, 2657.239
321.5033, 2675.420
321.9854, 2687.116
322.4675, 2697.219
322.9496, 2704.388
323.4317, 2711.676
323.9138, 2721.149
324.3960, 2734.807
324.8781, 2748.806
325.3602, 2767.364
325.8423, 2788.721
326.3244, 2796.558
326.8065, 2783.172
327.2887, 2760.315
327.7708, 2734.518
328.2529, 2695.873
328.7350, 2666.563
329.2171, 2649.369
329.6992, 2643.195
330.1814, 2641.613
330.6635, 2654.740
331.1456, 2662.386
331.6277, 2652.881
332.1098, 2618.848
332.5919, 2580.243
333.0741, 2533.636
333.5562, 2482.959
334.0383, 2443.900
334.5204, 2419.151
335.0025, 2401.197
335.4846, 2388.129
335.9668, 2384.027
336.4489, 2370.834
336.9310, 2344.045
337.4131, 2309.127
337.8952, 2282.871
338.3773, 2267.118
338.8595, 2254.520
339.3416, 2244.544
339.8237, 2238.892
340.3058, 2217.387
340.7879, 2172.439
341.2701, 2118.740
341.7522, 2088.898
342.2343, 2085.143
342.7164, 2085.072
343.1985, 2075.600
343.6806, 2057.829
344.1628, 2047.617
344.6449, 2047.395
345.1270, 2050.914
345.6091, 2050.291
346.0912, 2045.408
346.5733, 2034.334
347.0555, 2010.270
347.5376, 1978.604
348.0197, 1958.724
348.5018, 1953.133
348.9839, 1950.372
349.4660, 1933.068
349.9482, 1905.425
350.4303, 1883.876
350.9124, 1881.379
351.3945, 1888.126
351.8766, 1888.058
352.3587, 1879.991
352.8409, 1871.109
353.3230, 1871.793
353.8051, 1876.405
354.2872, 1873.788
354.7693, 1847.710
355.2514, 1819.357
355.7336, 1810.997
356.2157, 1823.172
356.6978, 1837.120
357.1799, 1842.507
357.6620, 1842.017
358.1441, 1839.314
358.6263, 1831.501
359.1084, 1825.384
359.5905, 1823.689
360.0726, 1826.544
360.5547, 1835.108
361.0368, 1862.683
361.5190, 1889.996
362.0011, 1900.676
362.4832, 1876.088
362.9653, 1848.750
363.4474, 1824.146
363.9295, 1803.132
364.4117, 1791.197
364.8938, 1797.382
365.3759, 1808.104
365.8580, 1814.975
366.3401, 1814.458
366.8222, 1813.114
367.3044, 1812.059
367.7865, 1810.815
368.2686, 1806.995
368.7507, 1789.361
369.2328, 1778.941
369.7149, 1786.147
370.1970, 1830.158
370.6791, 1858.600
371.1613, 1864.121
371.6434, 1855.845
372.1255, 1856.330
372.6076, 1868.833
373.0897, 1884.734
373.5718, 1901.872
374.0540, 1922.082
374.5361, 1935.356
375.0182, 1940.215
375.5003, 1939.652
375.9824, 1935.800
376.4645, 1925.426
376.9467, 1925.256
377.4288, 1947.710
377.9109, 1991.330
378.3930, 2016.196
378.8751, 2018.246
379.3572, 2013.112
379.8394, 2021.634
380.3215, 2043.291
380.8036, 2060.646
381.2857, 2063.360
381.7678, 2058.382
382.2499, 2071.373
382.7321, 2103.423
383.2142, 2134.162
383.6963, 2135.424
384.1784, 2118.006
384.6605, 2116.021
385.1426, 2146.200
385.6248, 2190.222
386.1069, 2223.490
386.5890, 2246.931
387.0711, 2268.819
387.5532, 2298.008
388.0353, 2327.971
388.5175, 2349.596
388.9996, 2356.899
389.4817, 2361.329
389.9638, 2369.830
390.4459, 2382.349
390.9280, 2398.413
391.4102, 2415.753
391.8923, 2437.776
392.3744, 2471.000
392.8565, 2526.794
393.3386, 2567.630
393.8207, 2571.150
394.3029, 2550.896
394.7850, 2531.667
395.2671, 2514.565
395.7492, 2504.523
396.2313, 2504.667
396.7134, 2517.349
397.1956, 2532.337
397.6777, 2558.400
398.1598, 2582.514
398.6419, 2588.473
399.1240, 2554.082
399.6061, 2526.075
400.0883, 2514.675
400.5704, 2521.100
401.0525, 2526.640
401.5346, 2532.866
402.0167, 2536.724
402.4988, 2535.338
402.9810, 2527.382
403.4631, 2517.416
403.9452, 2505.828
404.4273, 2492.799
404.9094, 2478.424
405.3915, 2461.274
405.8737, 2447.261
406.3558, 2441.236
406.8379, 2443.536
407.3200, 2448.224
407.8021, 2456.395
408.2842, 2464.262
408.7664, 2463.578
409.2485, 2454.299
409.7306, 2441.107
410.2127, 2424.266
410.6948, 2405.260
411.1769, 2386.570
411.6591, 2366.115
412.1412, 2355.698
412.6233, 2382.678
413.1054, 2433.635
413.5875, 2469.105
414.0696, 2455.364
414.5518, 2423.797
415.0339, 2411.241
415.5160, 2419.006
415.9981, 2431.260
416.4802, 2434.710
416.9623, 2436.328
417.4445, 2445.053
417.9266, 2471.181
418.4087, 2498.723
418.8908, 2520.937
419.3729, 2537.802
419.8550, 2550.869
420.3372, 2553.382
420.8193, 2556.679
421.3014, 2568.885
421.7835, 2602.927
422.2656, 2630.497
422.7477, 2640.473
423.2299, 2639.998
423.7120, 2649.518
424.1941, 2684.346
424.6762, 2717.652
425.1583, 2738.349
425.6404, 2737.998
426.1226, 2749.756
426.6047, 2784.675
427.0868, 2824.865
427.5689, 2840.854
428.0510, 2818.526
428.5331, 2803.923
429.0153, 2815.092
429.4974, 2850.880
429.9795, 2861.219
430.4616, 2838.833
430.9437, 2809.301
431.4258, 2798.585
431.9080, 2807.106
432.3901, 2819.185
432.8722, 2836.573
433.3543, 2851.401
433.8364, 2840.104
434.3185, 2803.356
434.8007, 2763.403
435.2828, 2735.668
435.7649, 2717.327
436.2470, 2700.661
436.7291, 2684.047
437.2112, 2671.115
437.6934, 2672.096
438.1755, 2681.093
438.6576, 2681.484
439.1397, 2653.891
439.6218, 2620.176
440.1039, 2602.315
440.5861, 2603.420
441.0682, 2604.063
441.5503, 2584.736
442.0324, 2561.540
442.5145, 2553.375
442.9966, 2585.071
443.4788, 2614.364
443.9609, 2621.050
444.4430, 2607.127
444.9251, 2604.138
445.4072, 2630.507
445.8893, 2661.404
446.3715, 2682.160
446.8536, 2672.461
447.3357, 2677.980
447.8178, 2707.864
448.2999, 2752.619
448.7820, 2785.889
449.2642, 2798.860
449.7463, 2813.878
450.2284, 2842.028
450.7105, 2887.239
451.1926, 2918.739
451.6747, 2929.474
452.1568, 2937.798
452.6389, 2971.933
453.1211, 3034.093
453.6032, 3094.703
454.0853, 3143.656
454.5674, 3184.882
455.0495, 3236.123
455.5316, 3298.223
456.0138, 3358.852
456.4959, 3402.339
456.9780, 3435.898
457.4601, 3483.818
457.9422, 3555.654
458.4243, 3634.389
458.9065, 3699.100
459.3886, 3752.663
459.8707, 3805.936
460.3528, 3853.479
460.8349, 3909.640
461.3170, 3992.911
461.7992, 4110.630
462.2813, 4224.090
462.7634, 4307.419
463.2455, 4376.042
463.7276, 4448.596
464.2097, 4531.649
464.6919, 4618.585
465.1740, 4711.351
465.6561, 4809.747
466.1382, 4897.468
466.6203, 4950.472
467.1024, 5008.605
467.5846, 5097.119
468.0667, 5240.940
468.5488, 5374.872
469.0309, 5493.199
469.5130, 5599.266
469.9951, 5698.708
470.4773, 5787.619
470.9594, 5879.211
471.4415, 5981.212
471.9236, 6095.645
472.4057, 6199.312
472.8878, 6289.456
473.3700, 6373.692
473.8521, 6461.730
474.3342, 6552.913
474.8163, 6638.685
475.2984, 6713.921
475.7805, 6784.064
476.2627, 6868.750
476.7448, 6964.975
477.2269, 7042.696
477.7090, 7076.121
478.1911, 7078.144
478.6732, 7066.264
479.1554, 7041.710
479.6375, 7009.430
480.1196, 6979.351
480.6017, 6944.045
481.0838, 6888.052
481.5659, 6804.083
482.0481, 6697.890
482.5302, 6563.692
483.0123, 6396.719
483.4944, 6241.281
483.9765, 6124.663
484.4586, 6017.375
484.9408, 5892.896
485.4229, 5727.002
485.9050, 5569.685
486.3871, 5425.746
486.8692, 5293.213
487.3513, 5162.613
487.8335, 5034.965
488.3156, 4909.778
488.7977, 4786.159
489.2798, 4665.899
489.7619, 4542.539
490.2440, 4412.145
490.7262, 4285.542
491.2083, 4174.480
491.6904, 4079.892
492.1725, 4001.623
492.6546, 3948.477
493.1367, 3909.305
493.6189, 3852.773
494.1010, 3779.741
494.5831, 3705.951
495.0652, 3646.165
495.5473, 3594.156
496.0294, 3541.170
496.5116, 3483.358
496.9937, 3426.283
497.4758, 3369.221
497.9579, 3315.501
498.4400, 3272.459
498.9221, 3257.938
499.4043, 3242.558
499.8864, 3204.741
500.3685, 3138.767
500.8506, 3085.804
501.3327, 3062.131
501.8148, 3051.636
502.2970, 3039.840
502.7791, 3027.774
503.2612, 3011.563
503.7433, 2990.394
504.2254, 2964.911
504.7076, 2937.728
505.1897, 2909.820
505.6718, 2878.758
506.1539, 2839.701
506.6360, 2788.869
507.1181, 2758.035
507.6003, 2751.171
508.0824, 2755.264
508.5645, 2755.351
509.0466, 2751.452
509.5287, 2743.475
510.0108, 2731.150
510.4930, 2714.779
510.9751, 2693.660
511.4572, 2667.979
511.9393, 2641.900
512.4214, 2615.464
512.9035, 2591.101
513.3856, 2573.034
513.8677, 2564.266
514.3499, 2554.971
514.8320, 2537.122
515.3141, 2514.880
515.7962, 2495.586
516.2783, 2482.518
516.7604, 2471.942
517.2426, 2463.058
517.7247, 2455.911
518.2068, 2448.981
518.6889, 2441.694
519.1710, 2434.985
519.6531, 2429.350
520.1353, 2425.024
520.6174, 2420.995
521.0995, 2414.875
521.5816, 2410.335
522.0637, 2418.588
522.5458, 2444.097
523.0280, 2463.396
523.5101, 2462.654
523.9922, 2445.666
524.4743, 2441.608
524.9564, 2451.298
525.4385, 2467.462
525.9207, 2484.823
526.4028, 2503.042
526.8849, 2520.447
527.3670, 2534.413
527.8491, 2550.694
528.3312, 2578.302
528.8134, 2613.580
529.2955, 2646.601
529.7776, 2679.125
530.2597, 2702.220
530.7418, 2704.849
531.2239, 2683.313
531.7061, 2666.240
532.1882, 2664.189
532.6703, 2670.301
533.1524, 2678.355
533.6345, 2695.400
534.1166, 2704.718
534.5988, 2702.666
535.0809, 2691.697
535.5630, 2679.982
536.0451, 2665.370
536.5272, 2653.784
537.0093, 2648.735
537.4915, 2650.988
537.9736, 2650.560
538.4557, 2647.245
538.9378, 2641.951
539.4199, 2638.362
539.9020, 2635.183
540.3842, 2621.188
540.8663, 2587.704
541.3484, 2549.611
541.8305, 2535.216
542.3126, 2539.506
542.7947, 2539.099
543.2769, 2514.673
543.7590, 2481.860
544.2411, 2454.687
544.7232, 2434.649
545.2053, 2419.991
545.6874, 2411.621
546.1696, 2407.300
546.6517, 2404.515
547.1338, 2406.980
547.6159, 2406.125
548.0980, 2399.712
548.5801, 2388.455
549.0623, 2375.064
549.5444, 2355.191
550.0265, 2339.187
550.5086, 2332.740
550.9907, 2338.468
551.4728, 2336.841
551.9550, 2324.451
552.4371, 2312.133
552.9192, 2315.319
553.4013, 2333.218
553.8834, 2347.815
554.3655, 2358.396
554.8477, 2359.025
555.3298, 2329.566
555.8119, 2275.890
556.2940, 2230.469
556.7761, 2217.557
557.2582, 2221.118
557.7404, 2224.787
558.2225, 2227.126
558.7046, 2228.507
559.1867, 2231.736
559.6688, 2232.945
560.1509, 2228.143
560.6331, 2212.192
561.1152, 2194.750
561.5973, 2175.522
562.0794, 2155.800
562.5615, 2140.704
563.0436, 2133.710
563.5258, 2126.785
564.0079, 2117.172
564.4900, 2104.564
564.9721, 2092.327
565.4542, 2081.086
565.9363, 2069.196
566.4185, 2054.533
566.9006, 2037.493
567.3827, 2020.967
567.8648, 2006.482
568.3469, 1991.367
568.8290, 1968.734
569.3112, 1940.758
569.7933, 1917.607
570.2754, 1904.057
570.7575, 1898.158
571.2396, 1902.751
571.7217, 1917.639
572.2039, 1923.224
572.6860, 1899.709
573.1681, 1867.475
573.6502, 1843.828
574.1323, 1833.450
574.6144, 1829.716
575.0966, 1840.235
575.5787, 1855.359
576.0608, 1855.342
576.5429, 1831.680
577.0250, 1806.609
577.5071, 1784.643
577.9893, 1765.964
578.4714, 1754.025
578.9535, 1749.321
579.4356, 1749.471
579.9177, 1756.076
580.3998, 1767.484
580.8820, 1771.744
581.3641, 1767.434
581.8462, 1756.060
582.3283, 1735.387
582.8104, 1708.926
583.2925, 1685.348
583.7747, 1664.765
584.2568, 1651.333
584.7389, 1653.098
585.2210, 1666.961
585.7031, 1676.102
586.1852, 1671.729
586.6674, 1661.908
587.1495, 1650.687
587.6316, 1637.888
588.1137, 1625.098
588.5958, 1608.504
589.0779, 1594.468
589.5601, 1590.693
590.0422, 1601.137
590.5243, 1611.572
591.0064, 1621.255
591.4885, 1628.467
591.9706, 1627.685
592.4528, 1618.638
592.9349, 1605.227
593.4170, 1583.086
593.8991, 1558.557
594.3812, 1551.432
594.8633, 1562.442
595.3455, 1577.404
595.8276, 1588.141
596.3097, 1594.360
596.7918, 1595.931
597.2739, 1593.170
597.7560, 1585.069
598.2382, 1561.813
598.7203, 1533.928
599.2024, 1521.392
599.6845, 1552.848
600.1666, 1574.528
600.6487, 1565.344
601.1309, 1526.472
601.6130, 1509.819
602.0951, 1525.496
602.5772, 1545.918
603.0593, 1553.076
603.5414, 1545.892
604.0236, 1541.343
604.5057, 1541.234
604.9878, 1540.894
605.4699, 1530.012
605.9520, 1512.342
606.4341, 1504.464
606.9163, 1518.346
607.3984, 1536.896
607.8805, 1537.064
608.3626, 1523.956
608.8447, 1515.708
609.3268, 1524.545
609.8090, 1539.179
610.2911, 1555.464
610.7732, 1574.563
611.2553, 1584.105
611.7374, 1575.086
612.2195, 1559.730
612.7017, 1546.810
613.1838, 1532.829
613.6659, 1529.148
614.1480, 1541.549
614.6301, 1559.937
615.1122, 1562.535
615.5944, 1547.635
616.0765, 1534.375
616.5586, 1531.145
617.0407, 1533.818
617.5228, 1528.620
618.0049, 1516.461
618.4871, 1509.569
618.9692, 1524.616
619.4513, 1546.204
619.9334, 1555.768
620.4155, 1550.430
620.8976, 1536.771
621.3798, 1507.509
621.8619, 1476.570
622.3440, 1459.001
622.8261, 1469.361
623.3082, 1479.868
623.7903, 1486.913
624.2725, 1491.440
624.7546, 1496.561
625.2367, 1505.192
625.7188, 1507.459
626.2009, 1496.128
626.6830, 1473.715
627.1652, 1467.269
627.6473, 1478.490
628.1294, 1491.531
628.6115, 1495.384
629.0936, 1490.948
629.5757, 1476.964
630.0579, 1449.936
630.5400, 1429.469
631.0221, 1440.484
631.5042, 1467.659
631.9863, 1487.885
632.4684, 1489.527
632.9506, 1486.028
633.4327, 1477.258
633.9148, 1466.159
634.3969, 1464.065
634.8790, 1483.421
635.3611, 1499.018
635.8433, 1501.061
636.3254, 1488.356
636.8075, 1484.984
637.2896, 1494.180
637.7717, 1503.633
638.2538, 1501.132
638.7360, 1488.270
639.2181, 1480.655
639.7002, 1480.971
640.1823, 1483.230
640.6644, 1479.700
641.1465, 1472.750
641.6287, 1467.314
642.1108, 1460.193
642.5929, 1460.409
643.0750, 1484.065
643.5571, 1521.764
644.0392, 1542.475
644.5214, 1514.073
645.0035, 1486.919
645.4856, 1485.880
645.9677, 1515.087
646.4498, 1528.142
646.9319, 1519.753
647.4141, 1503.135
647.8962, 1484.382
648.3783, 1462.329
648.8604, 1455.697
649.3425, 1468.983
649.8246, 1488.437
650.3068, 1494.160
650.7889, 1489.915
651.2710, 1489.336
651.7531, 1502.182
652.2352, 1514.352
652.7173, 1508.052
653.1995, 1489.236
653.6816, 1476.129
654.1637, 1479.388
654.6458, 1487.412
655.1279, 1496.048
655.6100, 1505.256
656.0921, 1511.200
656.5742, 1512.733
657.0563, 1512.143
657.5385, 1510.988
658.0206, 1509.839
658.5027, 1505.100
658.9848, 1495.573
659.4669, 1485.024
659.9490, 1476.117
660.4312, 1469.769
660.9133, 1472.961
661.3954, 1493.036
661.8775, 1514.557
662.3596, 1516.555
662.8417, 1504.601
663.3239, 1493.764
663.8060, 1492.323
664.2881, 1493.033
664.7702, 1491.869
665.2523, 1488.762
665.7344, 1487.308
666.2166, 1485.200
666.6987, 1487.507
667.1808, 1498.789
667.6629, 1523.764
668.1450, 1536.327
668.6271, 1535.087
669.1093, 1524.830
669.5914, 1504.454
670.0735, 1476.164
670.5556, 1463.970
671.0377, 1475.855
671.5198, 1496.511
672.0020, 1510.074
672.4841, 1517.589
672.9662, 1521.322
673.4483, 1518.818
673.9304, 1516.134
674.4125, 1517.585
674.8947, 1522.243
675.3768, 1524.966
675.8589, 1524.225
676.3410, 1521.564
676.8231, 1516.425
677.3052, 1508.004
677.7874, 1504.572
678.2695, 1506.855
678.7516, 1512.363
679.2337, 1519.826
679.7158, 1529.016
680.1979, 1538.948
680.6801, 1550.457
681.1622, 1558.633
681.6443, 1556.006
682.1264, 1546.222
682.6085, 1536.136
683.0906, 1525.000
683.5728, 1518.641
684.0549, 1524.444
684.5370, 1537.403
685.0191, 1546.070
685.5012, 1542.003
685.9833, 1539.447
686.4655, 1543.766
686.9476, 1553.797
687.4297, 1557.263
687.9118, 1550.204
688.3939, 1546.723
688.8760, 1560.143
689.3582, 1587.579
689.8403, 1594.114
690.3224, 1577.872
690.8045, 1558.394
691.2866, 1552.104
691.7687, 1555.031
692.2509, 1562.575
692.7330, 1577.069
693.2151, 1586.208
693.6972, 1574.958
694.1793, 1556.842
694.6614, 1549.925
695.1436, 1576.437
695.6257, 1590.852
696.1078, 1580.150
696.5899, 1555.503
697.0720, 1546.252
697.5541, 1555.122
698.0363, 1570.600
698.5184, 1593.805
699.0005, 1618.963
699.4826, 1620.817
699.9647, 1600.651
700.4468, 1581.047
700.9290, 1579.746
701.4111, 1586.483
701.8932, 1588.089
702.3753, 1583.176
702.8574, 1580.164
703.3395, 1585.553
703.8217, 1592.973
704.3038, 1597.767
704.7859, 1600.497
705.2680, 1597.787
705.7501, 1586.056
706.2322, 1572.039
706.7144, 1563.397
707.1965, 1560.352
707.6786, 1562.659
708.1607, 1573.385
708.6428, 1584.199
709.1249, 1574.036
709.6071, 1548.972
710.0892, 1532.810
710.5713, 1543.998
711.0534, 1563.039
711.5355, 1575.139
712.0176, 1580.885
712.4998, 1582.728
712.9819, 1577.984
713.4640, 1572.637
713.9461, 1570.779
714.4282, 1573.091
714.9103, 1568.124
715.3925, 1552.174
715.8746, 1535.619
716.3567, 1525.465
716.8388, 1521.749
717.3209, 1518.536
717.8030, 1515.489
718.2852, 1514.025
718.7673, 1515.814
719.2494, 1520.322
719.7315, 1527.284
720.2136, 1539.009
720.6957, 1547.678
721.1779, 1548.289
721.6600, 1542.899
722.1421, 1534.401
722.6242, 1510.204
723.1063, 1499.686
723.5884, 1513.552
724.0706, 1542.034
724.5527, 1558.486
725.0348, 1561.854
725.5169, 1556.638
725.9990, 1539.596
726.4811, 1517.177
726.9633, 1510.918
727.4454, 1519.347
727.9275, 1528.947
728.4096, 1535.419
728.8917, 1535.870
729.3738, 1522.605
729.8560, 1495.284
730.3381, 1477.199
730.8202, 1484.655
731.3023, 1498.970
731.7844, 1508.761
732.2665, 1514.046
732.7487, 1513.512
733.2308, 1504.160
733.7129, 1493.712
734.1950, 1489.831
734.6771, 1492.420
735.1592, 1497.397
735.6414, 1504.629
736.1235, 1512.648
736.6056, 1521.340
737.0877, 1529.166
737.5698, 1533.121
738.0519, 1534.838
738.5341, 1528.875
739.0162, 1501.264
739.4983, 1464.380
739.9804, 1446.684
740.4625, 1469.287
740.9446, 1492.340
741.4268, 1510.192
741.9089, 1522.706
742.3910, 1526.531
742.8731, 1519.760
743.3552, 1516.162
743.8373, 1527.072
744.3195, 1545.399
744.8016, 1550.444
745.2837, 1543.258
745.7658, 1534.012
746.2479, 1528.940
746.7300, 1525.317
747.2122, 1520.083
747.6943, 1512.242
748.1764, 1508.198
748.6585, 1513.567
749.1406, 1519.958
749.6227, 1520.947
750.1049, 1511.262
750.5870, 1514.460
751.0691, 1534.646
751.5512, 1558.206
752.0333, 1569.219
752.5154, 1569.495
752.9976, 1567.586
753.4797, 1564.371
753.9618, 1561.609
754.4439, 1560.297
754.9260, 1560.756
755.4081, 1563.496
755.8903, 1574.917
756.3724, 1581.512
756.8545, 1576.225
757.3366, 1563.834
757.8187, 1554.920
758.3008, 1548.456
758.7830, 1548.212
759.2651, 1557.720
759.7472, 1572.524
760.2293, 1576.484
760.7114, 1570.474
761.1935, 1568.168
761.6757, 1580.184
762.1578, 1598.003
762.6399, 1612.368
763.1220, 1623.208
763.6041, 1630.834
764.0862, 1635.425
764.5684, 1636.914
765.0505, 1632.105
765.5326, 1619.096
766.0147, 1619.170
766.4968, 1638.345
766.9789, 1660.793
767.4611, 1678.223
767.9432, 1690.697
768.4253, 1693.332
768.9074, 1684.924
769.3895, 1677.093
769.8716, 1679.274
770.3538, 1689.724
770.8359, 1707.953
771.3180, 1736.902
771.8001, 1760.418
772.2822, 1767.085
772.7643, 1765.909
773.2465, 1765.930
773.7286, 1770.582
774.2107, 1772.124
774.6928, 1766.935
775.1749, 1762.325
775.6570, 1770.375
776.1392, 1791.200
776.6213, 1808.589
777.1034, 1818.204
777.5855, 1825.214
778.0676, 1840.237
778.5497, 1858.103
779.0319, 1867.355
779.5140, 1847.607
779.9961, 1834.271
780.4782, 1852.442
780.9603, 1889.798
781.4424, 1908.507
781.9246, 1893.460
782.4067, 1880.907
782.8888, 1879.707
783.3709, 1886.764
783.8530, 1889.700
784.3351, 1888.272
784.8173, 1890.797
785.2994, 1908.017
785.7815, 1928.707
786.2636, 1932.057
786.7457, 1920.834
787.2278, 1908.485
787.7100, 1898.293
788.1921, 1892.415
788.6742, 1893.782
789.1563, 1903.145
789.6384, 1909.658
790.1205, 1909.712
790.6027, 1912.230
791.0848, 1924.456
791.5669, 1946.151
792.0490, 1955.579
792.5311, 1952.032
793.0132, 1946.481
793.4954, 1949.531
793.9775, 1955.831
794.4596, 1956.300
794.9417, 1949.138
795.4238, 1944.107
795.9059, 1949.252
796.3881, 1956.294
796.8702, 1957.818
797.3523, 1948.253
797.8344, 1946.596
798.3165, 1955.419
798.7986, 1967.988
799.2808, 1978.503
799.7629, 1986.914
800.2450, 1991.716
800.7271, 1991.443
801.2092, 1993.863
801.6913, 2011.594
802.1735, 2036.126
802.6556, 2054.323
803.1377, 2059.156
803.6198, 2063.825
804.1019, 2071.854
804.5840, 2082.638
805.0662, 2095.815
805.5483, 2114.246
806.0304, 2127.074
806.5125, 2131.465
806.9946, 2132.005
807.4767, 2136.020
807.9589, 2143.222
808.4410, 2151.175
808.9231, 2154.818
809.4052, 2165.868
809.8873, 2207.517
810.3694, 2263.315
810.8516, 2301.237
811.3337, 2286.680
811.8158, 2281.059
812.2979, 2302.864
812.7800, 2343.393
813.2621, 2383.111
813.7443, 2423.870
814.2264, 2457.148
814.7085, 2477.992
815.1906, 2492.778
815.6727, 2516.648
816.1548, 2548.004
816.6370, 2577.865
817.1191, 2600.127
817.6012, 2621.445
818.0833, 2643.951
818.5654, 2668.886
819.0475, 2700.750
819.5297, 2749.155
820.0118, 2795.190
820.4939, 2833.196
820.9760, 2864.343
821.4581, 2891.457
821.9402, 2913.457
822.4223, 2940.960
822.9044, 2985.315
823.3865, 3036.446
823.8687, 3074.661
824.3508, 3101.702
824.8329, 3132.443
825.3150, 3183.800
825.7971, 3232.604
826.2792, 3264.307
826.7614, 3277.108
827.2435, 3292.235
827.7256, 3308.750
828.2077, 3329.564
828.6898, 3358.772
829.1719, 3394.394
829.6541, 3425.017
830.1362, 3450.348
830.6183, 3466.405
831.1004, 3461.222
831.5825, 3450.406
832.0646, 3452.373
832.5468, 3468.212
833.0289, 3483.644
833.5110, 3496.803
833.9931, 3505.562
834.4752, 3508.575
834.9573, 3505.314
835.4395, 3501.774
835.9216, 3497.669
836.4037, 3494.703
836.8858, 3491.663
837.3679, 3490.967
837.8500, 3501.212
838.3322, 3522.727
838.8143, 3546.775
839.2964, 3573.487
839.7785, 3595.966
840.2606, 3605.650
840.7427, 3596.333
841.2249, 3599.899
841.7070, 3626.502
842.1891, 3654.939
842.6712, 3669.061
843.1533, 3668.125
843.6354, 3678.427
844.1176, 3700.463
844.5997, 3731.288
845.0818, 3771.076
845.5639, 3816.784
846.0460, 3866.397
846.5281, 3920.927
847.0103, 3969.229
847.4924, 4000.843
847.9745, 4029.660
848.4566, 4064.323
848.9387, 4103.456
849.4208, 4156.000
849.9030, 4225.532
850.3851, 4299.160
850.8672, 4359.824
851.3493, 4414.167
851.8314, 4487.454
852.3135, 4582.895
852.7957, 4684.570
853.2778, 4780.500
853.7599, 4875.828
854.2420, 4975.721
854.7241, 5082.617
855.2062, 5186.118
855.6884, 5283.061
856.1705, 5380.699
856.6526, 5484.408
857.1347, 5594.707
857.6168, 5700.562
858.0989, 5799.953
858.5811, 5903.572
859.0632, 6025.064
859.5453, 6155.252
860.0274, 6281.998
860.5095, 6402.071
860.9916, 6520.524
861.4738, 6627.848
861.9559, 6742.518
862.4380, 6879.381
862.9201, 7055.516
863.4022, 7192.173
863.8843, 7284.154
864.3665, 7357.380
864.8486, 7430.235
865.3307, 7504.861
865.8128, 7594.268
866.2949, 7701.974
866.7770, 7794.082
867.2592, 7855.225
867.7413, 7887.591
868.2234, 7888.930
868.7055, 7843.558
869.1876, 7814.408
869.6697, 7815.805
870.1519, 7811.649
870.6340, 7773.044
871.1161, 7702.444
871.5982, 7622.325
872.0803, 7534.437
872.5624, 7431.781
873.0446, 7303.440
873.5267, 7160.548
874.0088, 7011.271
874.4909, 6857.704
874.9730, 6696.581
875.4551, 6519.486
875.9373, 6340.756
876.4194, 6168.468
876.9015, 6003.433
877.3836, 5836.242
877.8657, 5666.665
878.3478, 5495.884
878.8300, 5316.423
879.3121, 5139.662
879.7942, 4988.928
880.2763, 4866.833
880.7584, 4744.095
881.2405, 4601.957
881.7227, 4460.045
882.2048, 4330.756
882.6869, 4214.852
883.1690, 4104.720
883.6511, 3999.079
884.1332, 3902.459
884.6154, 3818.968
885.0975, 3746.274
885.5796, 3676.068
886.0617, 3607.999
886.5438, 3540.440
887.0259, 3462.973
887.5081, 3393.140
887.9902, 3349.300
888.4723, 3336.470
888.9544, 3298.380
889.4365, 3218.808
889.9186, 3143.258
890.4008, 3096.685
890.8829, 3073.891
891.3650, 3044.109
891.8471, 3007.400
892.3292, 2968.295
892.8113, 2925.901
893.2935, 2885.396
893.7756, 2852.631
894.2577, 2827.292
894.7398, 2800.859
895.2219, 2763.404
895.7040, 2735.648
896.1862, 2731.037
896.6683, 2742.226
897.1504, 2723.330
897.6325, 2674.435
898.1146, 2624.066
898.5967, 2584.588
899.0789, 2554.796
899.5610, 2539.961
900.0431, 2535.401
900.5252, 2523.565
901.0073, 2481.873
901.4894, 2451.202
901.9716, 2450.667
902.4537, 2469.356
902.9358, 2466.455
903.4179, 2439.717
903.9000, 2411.134
904.3821, 2386.578
904.8643, 2367.009
905.3464, 2356.984
905.8285, 2353.073
906.3106, 2346.222
906.7927, 2333.305
907.2748, 2315.843
907.7570, 2286.133
908.2391, 2254.161
908.7212, 2242.661
909.2033, 2259.011
909.6854, 2263.631
910.1675, 2243.076
910.6497, 2217.418
911.1318, 2231.307
911.6139, 2266.166
912.0960, 2275.513
912.5781, 2226.734
913.0602, 2177.832
913.5424, 2158.178
914.0245, 2154.048
914.5066, 2145.277
914.9887, 2127.269
915.4708, 2117.223
915.9529, 2119.795
916.4351, 2122.834
916.9172, 2106.932
917.3993, 2078.341
917.8814, 2055.669
918.3635, 2043.573
918.8456, 2034.303
919.3278, 2021.639
919.8099, 2010.244
920.2920, 2004.782
920.7741, 2006.745
921.2562, 2012.373
921.7383, 2024.651
922.2205, 2034.247
922.7026, 2031.915
923.1847, 2019.604
923.6668, 2002.097
924.1489, 1979.571
924.6310, 1960.543
925.1132, 1952.434
925.5953, 1949.546
926.0774, 1947.943
926.5595, 1947.264
927.0416, 1948.882
927.5237, 1956.420
928.0059, 1958.992
928.4880, 1945.840
928.9701, 1921.802
929.4522, 1913.277
929.9343, 1919.356
930.4164, 1928.629
930.8986, 1939.119
931.3807, 1945.592
931.8628, 1942.401
932.3449, 1930.302
932.8270, 1919.442
933.3091, 1912.096
933.7913, 1902.564
934.2734, 1886.728
934.7555, 1868.609
935.2376, 1859.371
935.7197, 1858.871
936.2018, 1866.064
936.6840, 1891.057
937.1661, 1912.849
937.6482, 1910.346
938.1303, 1893.724
938.6124, 1887.429
939.0945, 1903.772
939.5767, 1914.637
940.0588, 1915.602
940.5409, 1910.237
941.0230, 1903.513
941.5051, 1895.922
941.9872, 1890.659
942.4694, 1890.207
942.9515, 1887.793
943.4336, 1876.322
943.9157, 1860.451
944.3978, 1845.464
944.8799, 1823.792
945.3621, 1819.569
945.8442, 1839.239
946.3263, 1865.654
946.8084, 1883.491
947.2905, 1892.870
947.7726, 1892.863
948.2548, 1882.868
948.7369, 1870.745
949.2190, 1862.335
949.7011, 1854.396
950.1832, 1841.844
950.6653, 1821.126
951.1475, 1816.168
951.6296, 1835.102
952.1117, 1854.128
952.5938, 1859.502
953.0759, 1853.409
953.5580, 1844.345
954.0402, 1832.518
954.5223, 1819.821
955.0044, 1797.223
955.4865, 1783.164
955.9686, 1798.963
956.4507, 1838.620
956.9329, 1858.289
957.4150, 1851.506
957.8971, 1836.183
958.3792, 1812.732
958.8613, 1788.817
959.3434, 1786.863
959.8256, 1801.518
960.3077, 1813.365
960.7898, 1813.016
961.2719, 1809.892
961.7540, 1810.965
962.2361, 1812.064
962.7183, 1805.042
963.2004, 1783.569
963.6825, 1770.984
964.1646, 1771.977
964.6467, 1776.353
965.1288, 1765.410
965.6110, 1747.705
966.0931, 1748.383
966.5752, 1776.584
967.0573, 1799.173
967.5394, 1793.798
968.0215, 1778.353
968.5037, 1767.036
968.9858, 1761.160
969.4679, 1753.693
969.9500, 1744.083
970.4321, 1734.942
970.9142, 1727.681
971.3964, 1722.416
971.8785, 1719.507
972.3606, 1718.810
972.8427, 1718.756
973.3248, 1713.168
973.8069, 1714.048
974.2891, 1733.065
974.7712, 1763.619
975.2533, 1773.052
975.7354, 1759.575
976.2175, 1741.872
976.6996, 1723.907
977.1818, 1709.913
977.6639, 1707.987
978.1460, 1714.655
978.6281, 1722.220
979.1102, 1738.767
979.5923, 1741.025
980.0745, 1712.413
980.5566, 1677.219
981.0387, 1671.997
981.5208, 1697.564
982.0029, 1713.990
982.4850, 1714.502
982.9672, 1711.423
983.4493, 1719.601
983.9314, 1729.735
984.4135, 1730.120
984.8956, 1715.513
985.3777, 1703.655
985.8598, 1695.380
986.3419, 1692.058
986.8240, 1696.807
987.3062, 1708.438
987.7883, 1714.275
988.2704, 1714.483
988.7525, 1712.202
989.2346, 1706.506
989.7167, 1701.721
990.1989, 1702.923
990.6810, 1708.706
991.1631, 1709.428
991.6452, 1702.314
992.1273, 1694.516
992.6094, 1685.295
993.0916, 1679.749
993.5737, 1698.944
994.0558, 1732.396
994.5379, 1743.799
995.0200, 1705.964
995.5021, 1670.017
995.9843, 1665.279
996.4664, 1676.363
996.9485, 1682.651
997.4306, 1680.934
997.9127, 1685.647
998.3948, 1699.237
998.8770, 1711.718
999.3591, 1710.117
999.8412, 1701.302
1000.323, 1697.948
1000.805, 1701.580
1001.288, 1702.909
1001.770, 1694.113
1002.252, 1686.323
1002.734, 1685.810
1003.216, 1691.425
1003.698, 1690.973
1004.180, 1684.295
1004.662, 1680.002
1005.144, 1687.566
1005.627, 1694.908
1006.109, 1683.240
1006.591, 1661.379
1007.073, 1650.580
1007.555, 1668.787
1008.037, 1682.163
1008.519, 1686.529
1009.001, 1685.238
1009.484, 1683.670
1009.966, 1681.140
1010.448, 1672.045
1010.930, 1653.400
1011.412, 1639.027
1011.894, 1643.636
1012.376, 1654.874
1012.858, 1660.913
1013.340, 1658.749
1013.823, 1663.370
1014.305, 1676.803
1014.787, 1690.472
1015.269, 1698.737
1015.751, 1703.149
1016.233, 1706.366
1016.715, 1708.753
1017.197, 1711.938
1017.680, 1719.204
1018.162, 1724.665
1018.644, 1727.597
1019.126, 1726.788
1019.608, 1715.582
1020.090, 1692.967
1020.572, 1681.714
1021.054, 1689.857
1021.536, 1703.857
1022.019, 1710.857
1022.501, 1712.962
1022.983, 1712.696
1023.465, 1708.975
1023.947, 1706.778
1024.429, 1706.968
1024.911, 1707.883
1025.393, 1706.895
1025.875, 1705.100
1026.358, 1710.489
1026.840, 1722.778
1027.322, 1736.030
1027.804, 1753.047
1028.286, 1763.729
1028.768, 1755.809
1029.250, 1733.913
1029.732, 1726.207
1030.215, 1738.014
1030.697, 1743.135
1031.179, 1732.225
1031.661, 1714.931
1032.143, 1706.979
1032.625, 1704.331
1033.107, 1698.835
1033.589, 1687.994
1034.072, 1673.812
1034.554, 1647.746
1035.036, 1626.885
1035.518, 1629.418
1036.000, 1655.541
1036.482, 1666.487
1036.964, 1660.772
1037.446, 1655.268
1037.928, 1671.972
1038.411, 1687.554
1038.893, 1677.002
1039.375, 1641.952
1039.857, 1622.032
1040.339, 1625.810
1040.821, 1628.178
1041.303, 1619.331
1041.785, 1607.589
1042.267, 1613.815
1042.750, 1630.887
1043.232, 1639.014
1043.714, 1626.563
1044.196, 1613.408
1044.678, 1610.521
1045.160, 1608.012
1045.642, 1594.531
1046.124, 1567.983
1046.607, 1554.227
1047.089, 1554.953
1047.571, 1557.453
1048.053, 1547.853
1048.535, 1537.049
1049.017, 1540.793
1049.499, 1557.966
1049.981, 1560.946
1050.464, 1537.762
1050.946, 1518.915
1051.428, 1513.904
1051.910, 1517.182
1052.392, 1517.088
1052.874, 1514.204
1053.356, 1510.496
1053.838, 1507.346
1054.320, 1501.997
1054.802, 1486.674
1055.285, 1473.050
1055.767, 1474.276
1056.249, 1494.680
1056.731, 1502.365
1057.213, 1495.955
1057.695, 1487.834
1058.177, 1487.992
1058.659, 1491.748
1059.142, 1495.961
1059.624, 1499.791
1060.106, 1497.371
1060.588, 1479.151
1061.070, 1471.553
1061.552, 1485.573
1062.034, 1508.141
1062.516, 1508.085
1062.999, 1492.610
1063.481, 1487.028
1063.963, 1504.714
1064.445, 1516.883
1064.927, 1499.430
1065.409, 1477.256
1065.891, 1473.434
1066.373, 1491.820
1066.855, 1499.425
1067.338, 1495.530
1067.820, 1491.843
1068.302, 1499.500
1068.784, 1509.784
1069.266, 1512.382
1069.748, 1509.041
1070.230, 1509.027
1070.712, 1517.478
1071.194, 1507.996
1071.677, 1524.202
1072.159, 1532.536
1072.641, 1533.418
1073.123, 1504.528
1073.605, 1514.083
1074.087, 1508.230
1074.569, 1501.747
1075.051, 1516.712
1075.533, 1492.152
1076.016, 1506.774
1076.498, 1505.757
1076.980, 1511.899
1077.462, 1502.539
1077.944, 1497.968
1078.426, 1508.903
1078.908, 1511.252
1079.390, 1500.107
1079.873, 1506.701
1080.355, 1481.600
1080.837, 1498.559
1081.319, 1505.428
1081.801, 1502.677
1082.283, 1495.974
1082.765, 1492.333
1083.247, 1489.986
1083.729, 1483.270
1084.212, 1470.662
1084.694, 1466.132
1085.176, 1490.602
1085.658, 1506.979
1086.140, 1495.556
1086.622, 1463.670
1087.104, 1447.224
1087.586, 1444.982
1088.068, 1447.271
1088.551, 1452.444
1089.033, 1457.084
1089.515, 1458.235
1089.997, 1457.660
1090.479, 1457.836
1090.961, 1458.901
1091.443, 1460.069
1091.925, 1460.943
1092.408, 1464.047
1092.890, 1476.300
1093.372, 1489.320
1093.854, 1486.078
1094.336, 1452.522
1094.818, 1471.790
1095.300, 1483.183
1095.782, 1487.124
1096.265, 1461.296
1096.747, 1473.909
1097.229, 1471.115
1097.711, 1467.691
1098.193, 1485.714
1098.675, 1464.214
1099.157, 1481.897
1099.639, 1483.940
1100.121, 1479.515
1100.604, 1475.465
1101.086, 1470.796
1101.568, 1469.624
1102.050, 1471.894
1102.532, 1474.207
1103.014, 1474.270
1103.496, 1473.604
1103.978, 1474.978
1104.460, 1476.422
1104.943, 1471.582
1105.425, 1455.119
1105.907, 1449.414
1106.389, 1459.343
1106.871, 1473.044
1107.353, 1476.609
1107.835, 1474.360
1108.317, 1472.237
1108.800, 1470.893
1109.282, 1471.149
1109.764, 1475.485
1110.246, 1477.995
1110.728, 1476.380
1111.210, 1471.513
1111.692, 1463.050
1112.174, 1453.399
1112.656, 1452.433
1113.139, 1472.703
1113.621, 1485.571
1114.103, 1472.259
1114.585, 1449.974
1115.067, 1433.322
1115.549, 1422.310
1116.031, 1417.547
1116.513, 1419.067
1116.995, 1425.247
1117.478, 1440.741
1117.960, 1455.300
1118.442, 1458.985
1118.924, 1454.353
1119.406, 1452.854
1119.888, 1455.675
1120.370, 1458.548
1120.852, 1461.053
1121.335, 1462.334
1121.817, 1459.390
1122.299, 1455.370
1122.781, 1456.534
1123.263, 1465.283
1123.745, 1465.551
1124.227, 1451.023
1124.709, 1436.820
1125.192, 1430.493
1125.674, 1428.162
1126.156, 1415.851
1126.638, 1398.271
1127.120, 1389.804
1127.602, 1401.322
1128.084, 1414.629
1128.566, 1428.726
1129.048, 1438.548
1129.531, 1436.837
1130.013, 1424.545
1130.495, 1420.853
1130.977, 1425.871
1131.459, 1430.224
1131.941, 1430.093
1132.423, 1425.024
1132.905, 1407.642
1133.387, 1386.199
1133.870, 1384.142
1134.352, 1404.118
1134.834, 1419.359
1135.316, 1425.335
1135.798, 1424.990
1136.280, 1416.193
1136.762, 1405.983
1137.244, 1401.630
1137.727, 1404.665
1138.209, 1411.964
1138.691, 1426.687
1139.173, 1433.964
1139.655, 1423.500
1140.137, 1407.075
1140.619, 1407.773
1141.101, 1416.922
1141.583, 1417.355
1142.066, 1392.749
1142.548, 1380.473
1143.030, 1387.224
1143.512, 1398.774
1143.994, 1406.542
1144.476, 1409.499
1144.958, 1399.025
1145.440, 1378.515
1145.922, 1368.099
1146.405, 1390.076
1146.887, 1407.229
1147.369, 1407.833
1147.851, 1398.980
1148.333, 1390.580
1148.815, 1382.934
1149.297, 1378.182
1149.779, 1359.624
1150.262, 1377.446
1150.744, 1387.392
1151.226, 1389.887
1151.708, 1362.609
1152.190, 1373.776
1152.672, 1369.537
1153.154, 1364.665
1153.636, 1381.243
1154.119, 1358.296
1154.601, 1374.533
1155.083, 1375.129
1155.565, 1382.884
1156.047, 1375.136
1156.529, 1372.177
1157.011, 1384.725
1157.493, 1388.686
1157.975, 1379.155
1158.458, 1387.364
1158.940, 1363.876
1159.422, 1368.203
1159.904, 1384.531
1160.386, 1375.779
1160.868, 1384.272
1161.350, 1386.197
1161.832, 1385.413
1162.314, 1399.164
1162.797, 1400.782
1163.279, 1395.563
1163.761, 1391.812
1164.243, 1389.694
1164.725, 1383.925
1165.207, 1368.379
1165.689, 1357.001
1166.171, 1352.767
1166.654, 1354.085
1167.136, 1359.300
1167.618, 1367.577
1168.100, 1377.951
1168.582, 1391.047
1169.064, 1401.386
1169.546, 1410.775
1170.028, 1412.029
1170.510, 1398.473
1170.993, 1375.881
1171.475, 1364.080
1171.957, 1361.742
1172.439, 1363.672
1172.921, 1370.574
1173.403, 1376.713
1173.885, 1377.292
1174.367, 1378.320
1174.849, 1386.307
1175.332, 1400.573
1175.814, 1405.375
1176.296, 1401.388
1176.778, 1396.676
1177.260, 1397.268
1177.742, 1397.175
1178.224, 1389.038
1178.706, 1380.566
1179.189, 1386.877
1179.671, 1408.576
1180.153, 1413.296
1180.635, 1396.934
1181.117, 1382.075
1181.599, 1391.968
1182.081, 1404.780
1182.563, 1400.904
1183.046, 1385.891
1183.528, 1386.112
1184.010, 1403.487
1184.492, 1410.689
1184.974, 1398.910
1185.456, 1384.523
1185.938, 1382.490
1186.420, 1386.182
1186.902, 1389.178
1187.385, 1390.814
1187.867, 1394.365
1188.349, 1400.126
1188.831, 1405.264
1189.313, 1409.297
1189.795, 1410.947
1190.277, 1407.052
1190.759, 1400.448
1191.241, 1395.134
1191.724, 1391.181
1192.206, 1390.804
1192.688, 1394.941
1193.170, 1398.203
1193.652, 1394.262
1194.134, 1389.228
1194.616, 1392.385
1195.098, 1401.050
1195.581, 1408.077
1196.063, 1412.375
1196.545, 1415.573
1197.027, 1418.556
1197.509, 1417.713
1197.991, 1405.910
1198.473, 1389.964
1198.955, 1378.190
1199.438, 1371.420
1199.920, 1371.006
1200.402, 1379.664
1200.884, 1389.663
1201.366, 1401.210
1201.848, 1409.974
1202.330, 1405.563
1202.812, 1395.868
1203.294, 1395.438
1203.776, 1406.928
1204.259, 1413.766
1204.741, 1412.376
1205.223, 1408.230
1205.705, 1402.927
1206.187, 1396.043
1206.669, 1383.080
1207.151, 1368.974
1207.633, 1364.854
1208.116, 1376.430
1208.598, 1386.913
1209.080, 1394.335
1209.562, 1399.435
1210.044, 1401.608
1210.526, 1402.504
1211.008, 1409.068
1211.490, 1417.807
1211.973, 1419.364
1212.455, 1401.387
1212.937, 1392.318
1213.419, 1400.253
1213.901, 1408.567
1214.383, 1400.402
1214.865, 1383.065
1215.347, 1378.930
1215.829, 1385.948
1216.312, 1394.785
1216.794, 1407.472
1217.276, 1412.451
1217.758, 1405.345
1218.240, 1394.919
1218.722, 1390.594
1219.204, 1409.880
1219.686, 1421.291
1220.168, 1425.249
1220.651, 1399.438
1221.133, 1412.070
1221.615, 1409.294
1222.097, 1405.886
1222.579, 1423.928
1223.061, 1402.445
1223.543, 1420.147
1224.025, 1422.207
1224.508, 1431.428
1224.990, 1425.145
1225.472, 1423.650
1225.954, 1437.662
1226.436, 1443.087
1226.918, 1417.247
1227.400, 1417.213
1227.882, 1411.258
1228.365, 1401.806
1228.847, 1387.339
1229.329, 1379.710
1229.811, 1387.632
1230.293, 1396.013
1230.775, 1398.112
1231.257, 1396.122
1231.739, 1395.740
1232.221, 1396.432
1232.703, 1396.672
1233.186, 1395.784
1233.668, 1394.849
1234.150, 1394.052
1234.632, 1393.325
1235.114, 1393.325
1235.596, 1393.104
1236.078, 1386.933
1236.560, 1377.689
1237.042, 1374.651
1237.525, 1384.199
1238.007, 1397.144
1238.489, 1415.352
1238.971, 1430.664
1239.453, 1431.967
1239.935, 1425.465
1240.417, 1430.274
1240.899, 1443.544
1241.382, 1451.190
1241.864, 1445.836
1242.346, 1435.499
1242.828, 1406.401
1243.310, 1424.735
1243.792, 1435.193
1244.274, 1438.199
1244.756, 1411.434
1245.239, 1423.113
1245.721, 1419.385
1246.203, 1415.025
1246.685, 1432.114
1247.167, 1409.678
1247.649, 1426.428
1248.131, 1427.535
1248.613, 1435.801
1249.095, 1428.566
1249.578, 1426.119
1250.060, 1439.178
1250.542, 1443.651
1251.024, 1434.631
1251.506, 1443.352
1251.988, 1420.375
1252.470, 1425.214
1252.952, 1442.054
1253.434, 1433.813
1253.917, 1442.819
1254.399, 1445.255
1254.881, 1417.843
1255.363, 1436.764
1255.845, 1430.908
1256.327, 1420.085
1256.809, 1420.072
1257.291, 1426.456
1257.774, 1433.583
1258.256, 1441.480
1258.738, 1443.339
1259.220, 1436.934
1259.702, 1433.668
1260.184, 1441.405
1260.666, 1450.934
1261.148, 1449.123
1261.630, 1441.445
1262.113, 1436.250
1262.595, 1435.744
1263.077, 1432.000
1263.559, 1423.949
1264.041, 1420.191
1264.523, 1430.960
1265.005, 1442.680
1265.487, 1437.754
1265.969, 1425.651
1266.452, 1422.678
1266.934, 1432.857
1267.416, 1438.486
1267.898, 1439.449
1268.380, 1437.167
1268.862, 1429.285
1269.344, 1421.875
1269.826, 1417.677
1270.309, 1418.424
1270.791, 1428.436
1271.273, 1450.430
1271.755, 1455.489
1272.237, 1442.682
1272.719, 1427.431
1273.201, 1414.921
1273.683, 1409.430
1274.166, 1421.157
1274.648, 1438.138
1275.130, 1438.644
1275.612, 1423.700
1276.094, 1423.714
1276.576, 1440.520
1277.058, 1454.217
1277.540, 1449.131
1278.022, 1441.400
1278.505, 1437.358
1278.987, 1436.166
1279.469, 1437.718
1279.951, 1441.045
1280.433, 1439.705
1280.915, 1433.096
1281.397, 1429.073
1281.879, 1433.760
1282.361, 1439.620
##END=



