##NAMES=Agardite-(Y)
##RRUFFID=R070357
##IDEAL CHEMISTRY=Cu^2+^_6_Y^3+^(As^5+^O_4_)_3_(OH)_6_&#183;3H_2_O
##LOCALITY=Hayashi, Setoda, Ikuchi Island, Hiroshima Prefecture, Chugoku Region, Honshu Island, Japan
##OWNER=Michael Scott
##SOURCE=Michael Scott
##DESCRIPTION=Green acicular to fibrous in spherical aggregates
##STATUS=The identification of this mineral is confirmed by single-crystal X-ray diffraction and chemical analysis.
##URL=rruff.info/R070357
##MEASURED CHEMISTRY=(Cu_5.59_Ca_0.28_Zn_0.03_Fe_0.01_)_Σ=5.91_(Y_0.35_La_0.08_Nd_0.06_Gd_0.03_Ce_0.02_Sm_0.01_Pr_0.01_Al_0.50_)_Σ=1.05_[(AsO_4_)_0.80_(SiO_4_)_0.14_(PO_4_)_0.02_]_3_(OH)_6_·3.51H_2_O
192.8548, 6250.270
193.3369, 6265.895
193.8190, 6284.963
194.3011, 6302.779
194.7832, 6317.522
195.2654, 6329.158
195.7475, 6336.152
196.2296, 6331.062
196.7117, 6336.084
197.1938, 6361.729
197.6759, 6392.742
198.1581, 6416.257
198.6402, 6427.972
199.1223, 6431.773
199.6044, 6434.970
200.0865, 6439.723
200.5686, 6439.002
201.0508, 6427.763
201.5329, 6414.614
202.0150, 6404.138
202.4971, 6398.171
202.9792, 6399.084
203.4613, 6413.015
203.9435, 6450.806
204.4256, 6476.821
204.9077, 6486.712
205.3898, 6488.369
205.8719, 6484.973
206.3540, 6478.068
206.8362, 6470.067
207.3183, 6463.031
207.8004, 6453.717
208.2825, 6454.575
208.7646, 6479.976
209.2467, 6503.355
209.7289, 6504.944
210.2110, 6485.033
210.6931, 6461.692
211.1752, 6457.994
211.6573, 6482.657
212.1395, 6494.808
212.6216, 6483.096
213.1037, 6469.467
213.5858, 6463.594
214.0679, 6466.032
214.5500, 6472.357
215.0322, 6477.785
215.5143, 6481.197
215.9964, 6491.386
216.4785, 6523.448
216.9606, 6548.300
217.4427, 6546.449
217.9249, 6526.038
218.4070, 6512.422
218.8891, 6530.537
219.3712, 6581.952
219.8533, 6607.803
220.3354, 6562.337
220.8176, 6535.109
221.2997, 6568.908
221.7818, 6639.832
222.2639, 6697.431
222.7460, 6704.142
223.2281, 6665.464
223.7103, 6640.023
224.1924, 6630.658
224.6745, 6633.447
225.1566, 6658.622
225.6387, 6693.213
226.1208, 6718.011
226.6030, 6721.026
227.0851, 6707.888
227.5672, 6702.756
228.0493, 6717.701
228.5314, 6724.142
229.0135, 6703.232
229.4957, 6676.862
229.9778, 6674.438
230.4599, 6710.096
230.9420, 6764.507
231.4241, 6788.466
231.9062, 6759.478
232.3884, 6737.255
232.8705, 6731.583
233.3526, 6733.777
233.8347, 6739.845
234.3168, 6747.838
234.7989, 6750.923
235.2811, 6732.669
235.7632, 6673.152
236.2453, 6640.538
236.7274, 6657.608
237.2095, 6687.701
237.6916, 6707.150
238.1738, 6711.331
238.6559, 6710.774
239.1380, 6719.714
239.6201, 6742.438
240.1022, 6758.719
240.5843, 6765.539
241.0665, 6767.676
241.5486, 6765.837
242.0307, 6760.848
242.5128, 6754.563
242.9949, 6747.147
243.4770, 6737.895
243.9592, 6736.223
244.4413, 6753.172
244.9234, 6767.482
245.4055, 6771.180
245.8876, 6765.654
246.3697, 6755.302
246.8519, 6739.954
247.3340, 6721.439
247.8161, 6718.440
248.2982, 6748.044
248.7803, 6770.415
249.2624, 6765.553
249.7446, 6746.057
250.2267, 6733.222
250.7088, 6740.397
251.1909, 6759.408
251.6730, 6766.649
252.1551, 6758.759
252.6373, 6745.259
253.1194, 6722.304
253.6015, 6698.821
254.0836, 6684.985
254.5657, 6685.082
255.0478, 6693.714
255.5300, 6702.562
256.0121, 6710.927
256.4942, 6722.147
256.9763, 6743.958
257.4584, 6765.058
257.9406, 6775.091
258.4227, 6771.522
258.9048, 6766.009
259.3869, 6772.784
259.8690, 6792.625
260.3511, 6806.728
260.8333, 6808.110
261.3154, 6805.480
261.7975, 6805.188
262.2796, 6807.360
262.7617, 6808.948
263.2438, 6807.205
263.7260, 6802.750
264.2081, 6799.487
264.6902, 6799.001
265.1723, 6797.856
265.6544, 6789.451
266.1365, 6777.271
266.6187, 6773.702
267.1008, 6791.339
267.5829, 6820.313
268.0650, 6840.454
268.5471, 6850.825
269.0292, 6853.839
269.5114, 6847.291
269.9935, 6834.699
270.4756, 6820.704
270.9577, 6798.970
271.4398, 6782.487
271.9219, 6790.699
272.4041, 6824.407
272.8862, 6856.676
273.3683, 6876.000
273.8504, 6884.026
274.3325, 6885.131
274.8146, 6876.187
275.2968, 6866.309
275.7789, 6863.100
276.2610, 6864.574
276.7431, 6861.728
277.2252, 6849.442
277.7073, 6834.075
278.1895, 6825.011
278.6716, 6821.222
279.1537, 6825.205
279.6358, 6843.392
280.1179, 6868.766
280.6000, 6890.027
281.0822, 6904.987
281.5643, 6914.384
282.0464, 6919.301
282.5285, 6920.001
283.0106, 6912.566
283.4927, 6880.681
283.9749, 6850.499
284.4570, 6850.019
284.9391, 6879.706
285.4212, 6915.551
285.9033, 6940.887
286.3854, 6954.698
286.8676, 6954.271
287.3497, 6917.977
287.8318, 6889.652
288.3139, 6899.493
288.7960, 6935.492
289.2781, 6962.944
289.7603, 6961.094
290.2424, 6938.750
290.7245, 6933.135
291.2066, 6960.794
291.6887, 6983.489
292.1708, 6996.508
292.6530, 7001.130
293.1351, 6997.610
293.6172, 6986.187
294.0993, 6970.104
294.5814, 6954.382
295.0635, 6932.648
295.5457, 6924.732
296.0278, 6939.864
296.5099, 6961.050
296.9920, 6980.211
297.4741, 6994.299
297.9562, 6999.202
298.4384, 6988.044
298.9205, 6956.092
299.4026, 6941.403
299.8847, 6958.290
300.3668, 6977.552
300.8489, 6989.410
301.3311, 6995.841
301.8131, 7003.517
302.2953, 7017.542
302.7774, 7035.605
303.2595, 7045.688
303.7416, 7043.774
304.2237, 7039.076
304.7058, 7031.349
305.1880, 7023.104
305.6701, 7016.305
306.1522, 7011.599
306.6343, 7010.135
307.1164, 7015.999
307.5985, 7033.069
308.0807, 7042.860
308.5628, 7035.947
309.0449, 7024.845
309.5270, 7011.844
310.0091, 6998.983
310.4912, 6996.716
310.9734, 7025.427
311.4555, 7080.323
311.9376, 7104.526
312.4197, 7075.101
312.9018, 7041.339
313.3839, 7036.594
313.8661, 7052.134
314.3482, 7065.419
314.8303, 7062.372
315.3124, 7052.592
315.7945, 7055.714
316.2766, 7074.744
316.7588, 7088.719
317.2409, 7079.781
317.7230, 7060.676
318.2051, 7052.697
318.6872, 7061.361
319.1693, 7076.176
319.6515, 7092.383
320.1336, 7109.014
320.6157, 7123.023
321.0978, 7135.300
321.5799, 7141.231
322.0620, 7129.333
322.5442, 7096.289
323.0263, 7070.386
323.5084, 7061.710
323.9905, 7063.634
324.4726, 7066.481
324.9547, 7068.674
325.4369, 7078.600
325.9190, 7110.126
326.4011, 7166.396
326.8832, 7188.750
327.3653, 7152.330
327.8474, 7106.394
328.3296, 7071.933
328.8117, 7050.431
329.2938, 7041.976
329.7759, 7047.956
330.2580, 7064.497
330.7401, 7073.853
331.2223, 7073.809
331.7044, 7069.250
332.1865, 7056.715
332.6686, 7041.682
333.1507, 7029.381
333.6328, 7021.586
334.1150, 7017.592
334.5971, 7016.975
335.0792, 7022.207
335.5613, 7024.034
336.0434, 7021.760
336.5255, 7017.172
337.0077, 7005.908
337.4898, 6992.173
337.9719, 6988.445
338.4540, 7009.036
338.9361, 7049.186
339.4182, 7063.843
339.9004, 7029.532
340.3825, 7004.002
340.8646, 7012.668
341.3467, 7035.707
341.8288, 7047.159
342.3109, 7036.191
342.7931, 7015.948
343.2752, 7004.454
343.7573, 7002.025
344.2394, 7006.632
344.7215, 7025.626
345.2036, 7045.366
345.6858, 7054.297
346.1679, 7052.068
346.6500, 7047.930
347.1321, 7045.901
347.6142, 7046.424
348.0963, 7051.849
348.5785, 7064.017
349.0606, 7076.069
349.5427, 7080.499
350.0248, 7080.219
350.5069, 7084.048
350.9890, 7105.276
351.4712, 7121.872
351.9533, 7107.247
352.4354, 7068.257
352.9175, 7042.036
353.3996, 7048.606
353.8817, 7075.768
354.3639, 7091.241
354.8460, 7087.757
355.3281, 7090.286
355.8102, 7114.056
356.2923, 7142.361
356.7744, 7152.894
357.2566, 7141.658
357.7387, 7123.734
358.2208, 7116.300
358.7029, 7122.327
359.1850, 7122.209
359.6671, 7108.373
360.1493, 7096.829
360.6314, 7096.980
361.1135, 7104.978
361.5956, 7111.285
362.0777, 7110.004
362.5598, 7103.915
363.0420, 7103.473
363.5241, 7113.649
364.0062, 7121.615
364.4883, 7123.289
364.9704, 7123.955
365.4525, 7131.612
365.9347, 7146.475
366.4168, 7156.193
366.8989, 7141.538
367.3810, 7100.065
367.8631, 7072.875
368.3452, 7061.321
368.8274, 7066.092
369.3095, 7098.921
369.7916, 7147.004
370.2737, 7179.060
370.7558, 7170.579
371.2379, 7145.881
371.7201, 7150.572
372.2022, 7188.522
372.6843, 7217.912
373.1664, 7214.842
373.6485, 7196.635
374.1306, 7191.573
374.6128, 7204.825
375.0949, 7215.512
375.5770, 7207.545
376.0591, 7190.231
376.5412, 7181.684
377.0233, 7185.645
377.5055, 7198.356
377.9876, 7219.314
378.4697, 7249.708
378.9518, 7268.442
379.4339, 7262.970
379.9160, 7256.767
380.3982, 7265.494
380.8803, 7285.285
381.3624, 7304.893
381.8445, 7318.953
382.3266, 7326.195
382.8087, 7322.384
383.2909, 7283.790
383.7730, 7265.990
384.2551, 7284.312
384.7372, 7314.320
385.2193, 7340.861
385.7014, 7358.929
386.1836, 7365.450
386.6657, 7353.039
387.1478, 7319.881
387.6299, 7303.947
388.1120, 7317.317
388.5941, 7335.070
389.0763, 7354.258
389.5584, 7371.102
390.0405, 7378.099
390.5226, 7369.303
391.0047, 7357.772
391.4868, 7368.119
391.9690, 7403.477
392.4511, 7430.792
392.9332, 7442.941
393.4153, 7441.259
393.8974, 7419.350
394.3795, 7377.912
394.8617, 7353.852
395.3438, 7383.022
395.8259, 7434.984
396.3080, 7455.944
396.7901, 7439.856
397.2722, 7418.132
397.7544, 7410.065
398.2365, 7414.943
398.7186, 7424.345
399.2007, 7445.927
399.6828, 7463.307
400.1649, 7469.407
400.6471, 7467.291
401.1292, 7460.102
401.6113, 7448.785
402.0934, 7438.521
402.5755, 7438.208
403.0576, 7455.683
403.5398, 7458.456
404.0219, 7437.304
404.5040, 7412.212
404.9861, 7385.688
405.4682, 7363.695
405.9503, 7359.145
406.4325, 7382.497
406.9146, 7423.979
407.3967, 7449.004
407.8788, 7454.166
408.3609, 7449.017
408.8430, 7425.820
409.3252, 7400.226
409.8073, 7384.364
410.2894, 7380.063
410.7715, 7381.180
411.2536, 7380.221
411.7357, 7379.443
412.2179, 7395.978
412.7000, 7443.053
413.1821, 7478.047
413.6642, 7453.141
414.1463, 7396.098
414.6284, 7362.407
415.1106, 7372.639
415.5927, 7396.087
416.0748, 7413.289
416.5569, 7425.714
417.0390, 7438.721
417.5211, 7454.907
418.0033, 7469.104
418.4854, 7472.015
418.9675, 7457.730
419.4496, 7452.642
419.9317, 7467.104
420.4138, 7483.271
420.8960, 7489.629
421.3781, 7486.864
421.8602, 7479.916
422.3423, 7471.202
422.8244, 7462.437
423.3065, 7461.363
423.7887, 7475.043
424.2708, 7485.561
424.7529, 7485.846
425.2350, 7485.986
425.7171, 7495.076
426.1992, 7513.899
426.6814, 7535.450
427.1635, 7559.790
427.6456, 7584.943
428.1277, 7580.869
428.6098, 7530.184
429.0919, 7483.668
429.5741, 7469.682
430.0562, 7475.605
430.5383, 7484.409
431.0204, 7492.109
431.5025, 7501.888
431.9846, 7523.327
432.4668, 7550.231
432.9489, 7556.637
433.4310, 7531.502
433.9131, 7499.339
434.3952, 7490.091
434.8773, 7506.567
435.3595, 7518.334
435.8416, 7522.268
436.3237, 7522.466
436.8058, 7518.609
437.2879, 7513.068
437.7701, 7513.448
438.2522, 7524.575
438.7343, 7537.692
439.2164, 7528.693
439.6985, 7473.080
440.1806, 7439.422
440.6628, 7443.548
441.1449, 7455.024
441.6270, 7451.648
442.1091, 7435.980
442.5912, 7426.679
443.0733, 7440.008
443.5555, 7469.797
444.0376, 7494.066
444.5197, 7515.285
445.0018, 7523.938
445.4839, 7502.464
445.9660, 7473.602
446.4482, 7459.613
446.9303, 7464.261
447.4124, 7475.817
447.8945, 7490.450
448.3766, 7506.301
448.8587, 7519.654
449.3409, 7530.094
449.8230, 7538.024
450.3051, 7544.748
450.7872, 7549.379
451.2693, 7545.940
451.7514, 7515.402
452.2336, 7499.409
452.7157, 7527.119
453.1978, 7572.044
453.6799, 7595.919
454.1620, 7588.210
454.6441, 7566.783
455.1263, 7553.075
455.6084, 7546.709
456.0905, 7550.261
456.5726, 7581.810
457.0547, 7604.772
457.5368, 7603.549
458.0190, 7587.377
458.5011, 7569.501
458.9832, 7554.016
459.4653, 7545.945
459.9474, 7555.312
460.4295, 7582.350
460.9117, 7609.333
461.3938, 7636.886
461.8759, 7657.783
462.3580, 7663.484
462.8401, 7656.468
463.3222, 7648.911
463.8044, 7637.016
464.2865, 7631.484
464.7686, 7646.167
465.2507, 7676.674
465.7328, 7706.548
466.2149, 7729.382
466.6971, 7745.191
467.1792, 7753.256
467.6613, 7748.825
468.1434, 7746.253
468.6255, 7745.184
469.1076, 7746.222
469.5898, 7748.079
470.0719, 7752.286
470.5540, 7763.794
471.0361, 7787.067
471.5182, 7816.234
472.0003, 7834.836
472.4825, 7841.526
472.9646, 7840.912
473.4467, 7821.674
473.9288, 7804.225
474.4109, 7805.395
474.8930, 7823.996
475.3752, 7840.885
475.8573, 7840.229
476.3394, 7832.809
476.8215, 7840.210
477.3036, 7863.040
477.7857, 7880.000
478.2679, 7877.528
478.7500, 7864.861
479.2321, 7866.498
479.7142, 7892.665
480.1963, 7905.723
480.6784, 7890.026
481.1606, 7863.884
481.6427, 7841.669
482.1248, 7825.444
482.6069, 7812.749
483.0890, 7801.626
483.5711, 7792.464
484.0533, 7788.002
484.5354, 7796.819
485.0175, 7795.778
485.4996, 7772.607
485.9817, 7745.881
486.4638, 7731.722
486.9460, 7730.947
487.4281, 7731.490
487.9102, 7722.008
488.3923, 7706.672
488.8744, 7700.474
489.3565, 7705.966
489.8387, 7705.941
490.3208, 7687.170
490.8029, 7659.729
491.2850, 7645.437
491.7671, 7649.110
492.2492, 7651.649
492.7314, 7646.150
493.2135, 7636.470
493.6956, 7626.914
494.1777, 7617.877
494.6598, 7606.912
495.1419, 7591.487
495.6241, 7573.002
496.1062, 7560.310
496.5883, 7559.710
497.0704, 7556.265
497.5525, 7539.333
498.0346, 7525.314
498.5168, 7535.695
498.9989, 7567.836
499.4810, 7591.130
499.9631, 7572.637
500.4452, 7525.387
500.9273, 7500.550
501.4095, 7502.768
501.8916, 7507.956
502.3737, 7507.041
502.8558, 7502.246
503.3379, 7497.588
503.8200, 7493.642
504.3022, 7487.729
504.7843, 7471.193
505.2664, 7456.566
505.7485, 7464.581
506.2306, 7492.884
506.7127, 7515.837
507.1949, 7515.949
507.6770, 7497.720
508.1591, 7480.475
508.6412, 7456.957
509.1233, 7445.752
509.6054, 7461.247
510.0876, 7478.459
510.5697, 7476.819
511.0518, 7457.814
511.5339, 7438.048
512.0161, 7428.000
512.4982, 7426.663
512.9803, 7433.285
513.4624, 7449.465
513.9445, 7463.998
514.4266, 7475.043
514.9088, 7480.506
515.3909, 7475.165
515.8730, 7457.570
516.3551, 7447.824
516.8372, 7460.646
517.3193, 7477.565
517.8015, 7478.806
518.2836, 7467.502
518.7657, 7460.917
519.2478, 7468.648
519.7299, 7484.589
520.2120, 7494.388
520.6942, 7496.624
521.1763, 7495.100
521.6584, 7487.975
522.1405, 7479.330
522.6226, 7469.807
523.1047, 7460.574
523.5869, 7453.639
524.0690, 7449.617
524.5511, 7449.250
525.0332, 7453.404
525.5153, 7462.086
525.9974, 7478.877
526.4796, 7512.718
526.9617, 7541.744
527.4438, 7533.837
527.9259, 7494.321
528.4080, 7469.988
528.8901, 7482.842
529.3723, 7497.265
529.8544, 7487.726
530.3365, 7465.364
530.8186, 7453.224
531.3007, 7459.032
531.7828, 7472.970
532.2650, 7481.038
532.7471, 7481.227
533.2292, 7488.721
533.7113, 7523.935
534.1934, 7542.352
534.6755, 7517.231
535.1577, 7472.734
535.6398, 7441.800
536.1219, 7434.360
536.6040, 7435.099
537.0861, 7429.843
537.5682, 7421.300
538.0504, 7421.141
538.5325, 7432.544
539.0146, 7437.271
539.4967, 7416.573
539.9788, 7378.901
540.4609, 7366.617
540.9431, 7404.827
541.4252, 7430.934
541.9073, 7423.390
542.3894, 7403.928
542.8715, 7391.685
543.3536, 7389.210
543.8358, 7390.517
544.3179, 7391.402
544.8000, 7391.642
545.2821, 7389.755
545.7642, 7384.237
546.2463, 7380.698
546.7285, 7379.813
547.2106, 7382.175
547.6927, 7393.151
548.1748, 7410.947
548.6569, 7417.383
549.1390, 7394.486
549.6211, 7363.292
550.1032, 7344.941
550.5853, 7338.603
551.0674, 7339.774
551.5496, 7347.413
552.0317, 7357.841
552.5138, 7365.069
552.9959, 7367.857
553.4780, 7371.686
553.9601, 7380.485
554.4423, 7386.012
554.9244, 7385.749
555.4065, 7379.792
555.8886, 7364.888
556.3707, 7339.291
556.8528, 7318.830
557.3350, 7331.488
557.8171, 7371.179
558.2992, 7385.216
558.7813, 7362.488
559.2634, 7333.816
559.7455, 7316.572
560.2277, 7309.407
560.7098, 7306.617
561.1919, 7312.144
561.6740, 7315.018
562.1561, 7308.150
562.6382, 7299.173
563.1204, 7298.196
563.6025, 7304.476
564.0846, 7307.008
564.5667, 7296.186
565.0488, 7278.183
565.5309, 7279.010
566.0131, 7308.279
566.4952, 7332.097
566.9773, 7347.367
567.4594, 7352.886
567.9415, 7342.108
568.4236, 7318.987
568.9058, 7300.721
569.3879, 7297.751
569.8700, 7299.828
570.3521, 7295.725
570.8342, 7287.735
571.3163, 7285.276
571.7985, 7291.876
572.2806, 7297.502
572.7627, 7287.519
573.2448, 7258.035
573.7269, 7249.963
574.2090, 7288.210
574.6912, 7316.935
575.1733, 7316.545
575.6554, 7302.386
576.1375, 7289.856
576.6196, 7283.147
577.1017, 7281.638
577.5839, 7291.465
578.0660, 7305.970
578.5481, 7296.940
579.0302, 7260.224
579.5123, 7235.104
579.9944, 7246.636
580.4766, 7273.935
580.9587, 7272.764
581.4408, 7233.581
581.9229, 7211.032
582.4050, 7225.006
582.8871, 7246.708
583.3693, 7257.419
583.8514, 7260.524
584.3335, 7269.411
584.8156, 7290.252
585.2977, 7310.304
585.7798, 7306.805
586.2620, 7277.420
586.7441, 7250.703
587.2262, 7223.343
587.7083, 7206.205
588.1904, 7213.526
588.6725, 7232.898
589.1547, 7245.461
589.6368, 7250.380
590.1189, 7244.056
590.6010, 7209.369
591.0831, 7170.770
591.5652, 7164.274
592.0474, 7188.538
592.5295, 7216.581
593.0116, 7232.137
593.4937, 7234.058
593.9758, 7214.066
594.4579, 7149.101
594.9401, 7117.370
595.4222, 7159.957
595.9043, 7206.142
596.3864, 7221.165
596.8685, 7211.631
597.3506, 7196.491
597.8328, 7175.438
598.3149, 7165.313
598.7970, 7196.833
599.2791, 7249.877
599.7612, 7267.005
600.2433, 7237.092
600.7255, 7200.438
601.2076, 7190.902
601.6897, 7205.087
602.1718, 7215.376
602.6539, 7225.551
603.1360, 7225.997
603.6182, 7207.828
604.1003, 7186.293
604.5824, 7169.099
605.0645, 7158.773
605.5466, 7159.515
606.0287, 7179.319
606.5109, 7203.843
606.9930, 7208.811
607.4751, 7196.921
607.9572, 7190.956
608.4393, 7198.226
608.9214, 7205.894
609.4036, 7199.940
609.8857, 7180.278
610.3678, 7166.888
610.8499, 7156.286
611.3320, 7155.663
611.8141, 7180.740
612.2963, 7207.800
612.7784, 7206.802
613.2605, 7179.323
613.7426, 7157.377
614.2247, 7170.023
614.7068, 7201.275
615.1890, 7208.006
615.6711, 7188.738
616.1532, 7180.045
616.6353, 7197.705
617.1174, 7220.115
617.5995, 7220.806
618.0817, 7199.232
618.5638, 7186.136
619.0459, 7198.007
619.5280, 7200.859
620.0101, 7165.373
620.4922, 7121.521
620.9744, 7112.400
621.4565, 7142.320
621.9386, 7175.368
622.4207, 7177.446
622.9028, 7157.605
623.3849, 7153.969
623.8671, 7170.923
624.3492, 7176.988
624.8313, 7153.817
625.3134, 7125.864
625.7955, 7127.729
626.2776, 7157.371
626.7598, 7174.213
627.2419, 7152.116
627.7240, 7138.198
628.2061, 7173.077
628.6882, 7224.358
629.1703, 7238.711
629.6525, 7207.259
630.1346, 7169.023
630.6167, 7163.731
631.0988, 7184.262
631.5809, 7189.536
632.0630, 7175.621
632.5452, 7161.610
633.0273, 7151.584
633.5094, 7145.479
633.9915, 7143.432
634.4736, 7145.279
634.9557, 7149.061
635.4379, 7162.313
635.9200, 7169.068
636.4021, 7148.466
636.8842, 7119.872
637.3663, 7119.909
637.8484, 7153.722
638.3306, 7185.879
638.8127, 7176.418
639.2948, 7135.364
639.7769, 7128.858
640.2590, 7169.772
640.7411, 7198.520
641.2233, 7186.386
641.7054, 7166.447
642.1875, 7178.500
642.6696, 7219.117
643.1517, 7244.447
643.6339, 7244.906
644.1160, 7228.483
644.5981, 7178.556
645.0802, 7122.858
645.5623, 7111.282
646.0444, 7149.357
646.5266, 7191.074
647.0087, 7191.778
647.4908, 7161.483
647.9729, 7148.738
648.4550, 7158.854
648.9371, 7165.434
649.4193, 7159.671
649.9014, 7150.370
650.3835, 7144.310
650.8656, 7141.621
651.3477, 7143.872
651.8298, 7157.603
652.3120, 7169.198
652.7941, 7172.728
653.2762, 7170.136
653.7583, 7160.187
654.2404, 7145.277
654.7225, 7136.788
655.2047, 7145.471
655.6868, 7165.459
656.1689, 7176.372
656.6510, 7176.244
657.1331, 7179.575
657.6152, 7191.772
658.0974, 7204.754
658.5795, 7212.139
659.0616, 7214.298
659.5437, 7211.964
660.0258, 7196.100
660.5079, 7187.075
660.9901, 7202.308
661.4722, 7221.104
661.9543, 7217.377
662.4364, 7193.456
662.9185, 7173.410
663.4006, 7174.282
663.8828, 7185.736
664.3649, 7183.489
664.8470, 7166.881
665.3291, 7159.313
665.8112, 7167.489
666.2933, 7177.853
666.7755, 7181.669
667.2576, 7179.312
667.7397, 7173.343
668.2218, 7161.529
668.7039, 7149.829
669.1860, 7139.459
669.6682, 7129.584
670.1503, 7118.023
670.6324, 7106.313
671.1145, 7097.478
671.5966, 7092.493
672.0787, 7094.530
672.5609, 7114.774
673.0430, 7148.910
673.5251, 7163.025
674.0072, 7150.913
674.4893, 7136.854
674.9714, 7135.600
675.4536, 7141.852
675.9357, 7141.600
676.4178, 7129.780
676.8999, 7122.554
677.3820, 7122.784
677.8641, 7125.188
678.3463, 7129.652
678.8284, 7133.525
679.3105, 7132.000
679.7926, 7123.564
680.2747, 7114.640
680.7568, 7112.128
681.2390, 7113.441
681.7211, 7111.105
682.2032, 7105.249
682.6853, 7104.250
683.1674, 7112.546
683.6495, 7125.005
684.1317, 7135.116
684.6138, 7145.021
685.0959, 7140.910
685.5780, 7096.282
686.0601, 7069.475
686.5422, 7097.284
687.0244, 7135.896
687.5065, 7131.554
687.9886, 7081.842
688.4707, 7042.677
688.9528, 7057.101
689.4349, 7089.529
689.9171, 7101.619
690.3992, 7097.891
690.8813, 7089.935
691.3634, 7081.245
691.8455, 7078.032
692.3276, 7088.165
692.8098, 7109.242
693.2919, 7119.287
693.7740, 7113.457
694.2561, 7107.350
694.7382, 7106.906
695.2203, 7104.121
695.7025, 7086.924
696.1846, 7061.703
696.6667, 7053.104
697.1488, 7080.129
697.6309, 7105.563
698.1130, 7104.277
698.5952, 7093.209
699.0773, 7096.994
699.5594, 7114.019
700.0415, 7122.026
700.5236, 7106.100
701.0057, 7079.759
701.4879, 7072.292
701.9700, 7084.743
702.4521, 7093.450
702.9342, 7095.626
703.4163, 7095.696
703.8984, 7094.875
704.3806, 7094.267
704.8627, 7097.481
705.3448, 7108.352
705.8269, 7111.881
706.3090, 7105.433
706.7911, 7091.708
707.2733, 7067.528
707.7554, 7038.794
708.2375, 7012.610
708.7196, 6991.555
709.2017, 6980.040
709.6838, 6989.453
710.1660, 7009.795
710.6481, 7011.172
711.1302, 6994.841
711.6123, 6990.719
712.0944, 7011.441
712.5765, 7039.835
713.0587, 7055.283
713.5408, 7057.383
714.0229, 7054.867
714.5050, 7038.452
714.9871, 7030.318
715.4692, 7044.245
715.9514, 7059.502
716.4335, 7057.692
716.9156, 7040.877
717.3977, 7024.497
717.8798, 7013.044
718.3619, 7006.554
718.8441, 7005.771
719.3262, 7009.664
719.8083, 7017.370
720.2904, 7028.219
720.7725, 7041.261
721.2546, 7056.716
721.7368, 7070.092
722.2189, 7066.969
722.7010, 7042.974
723.1831, 7034.402
723.6652, 7052.570
724.1473, 7069.345
724.6295, 7067.774
725.1116, 7054.615
725.5937, 7044.391
726.0758, 7038.787
726.5579, 7030.483
727.0400, 7016.696
727.5222, 7001.302
728.0043, 6978.099
728.4864, 6957.972
728.9685, 6963.547
729.4506, 6998.086
729.9327, 7030.842
730.4149, 7028.230
730.8970, 7006.339
731.3791, 7002.853
731.8612, 7015.828
732.3433, 7027.043
732.8254, 7031.322
733.3076, 7031.715
733.7897, 7030.590
734.2718, 7028.284
734.7539, 7029.868
735.2360, 7045.304
735.7181, 7047.703
736.2003, 7020.829
736.6824, 6992.803
737.1645, 6979.088
737.6466, 6978.322
738.1287, 6985.399
738.6108, 7002.596
739.0930, 7018.492
739.5751, 7026.435
740.0572, 7029.830
740.5393, 7034.544
741.0214, 7038.523
741.5035, 7031.228
741.9857, 7007.637
742.4678, 6982.721
742.9499, 6981.085
743.4320, 7000.565
743.9141, 7010.774
744.3962, 7010.845
744.8784, 7003.180
745.3605, 6983.447
745.8426, 6964.249
746.3247, 6964.225
746.8068, 6986.025
747.2889, 7002.769
747.7711, 7022.137
748.2532, 7027.084
748.7353, 6992.362
749.2174, 6957.384
749.6995, 6967.052
750.1816, 7012.426
750.6638, 7042.474
751.1459, 7028.411
751.6280, 6999.569
752.1101, 6972.084
752.5922, 6952.868
753.0743, 6966.302
753.5565, 7007.627
754.0386, 7029.942
754.5207, 7004.017
755.0028, 6955.917
755.4849, 6937.578
755.9670, 6952.730
756.4492, 6962.957
756.9313, 6965.494
757.4134, 6968.290
757.8955, 6974.780
758.3776, 6983.467
758.8597, 6993.770
759.3419, 7006.559
759.8240, 7012.213
760.3061, 7002.849
760.7882, 6994.739
761.2703, 6996.247
761.7524, 7000.604
762.2346, 7000.300
762.7167, 6995.023
763.1988, 6989.635
763.6809, 6988.286
764.1630, 6985.532
764.6451, 6968.164
765.1273, 6945.693
765.6094, 6946.461
766.0915, 6971.782
766.5736, 6996.284
767.0557, 7005.518
767.5378, 6998.752
768.0200, 6966.805
768.5021, 6899.743
768.9842, 6871.268
769.4663, 6898.973
769.9484, 6930.040
770.4305, 6940.255
770.9127, 6942.496
771.3948, 6960.213
771.8769, 6996.276
772.3590, 7010.057
772.8411, 6971.497
773.3232, 6940.229
773.8054, 6947.152
774.2875, 6967.658
774.7696, 6975.599
775.2517, 6969.508
775.7338, 6962.497
776.2159, 6961.592
776.6981, 6963.019
777.1802, 6962.192
777.6623, 6960.543
778.1444, 6961.638
778.6265, 6965.658
779.1086, 6970.513
779.5908, 6975.111
780.0729, 6979.213
780.5550, 6982.375
781.0371, 6984.565
781.5192, 6985.626
782.0013, 6984.325
782.4835, 6985.274
782.9656, 6991.168
783.4477, 6999.264
783.9298, 7006.492
784.4119, 7012.867
784.8940, 7017.977
785.3762, 7022.013
785.8583, 7024.481
786.3404, 7022.603
786.8225, 7021.184
787.3046, 7024.003
787.7867, 7031.095
788.2689, 7042.568
788.7510, 7061.888
789.2331, 7074.400
789.7152, 7060.024
790.1973, 7034.876
790.6794, 7026.396
791.1616, 7032.699
791.6437, 7033.973
792.1258, 7021.657
792.6079, 7009.664
793.0900, 7020.500
793.5721, 7050.465
794.0543, 7058.896
794.5364, 7040.893
795.0185, 7034.375
795.5006, 7056.327
795.9827, 7079.944
796.4648, 7077.553
796.9470, 7051.851
797.4291, 7032.074
797.9112, 7022.693
798.3933, 7013.042
798.8754, 6991.421
799.3575, 6980.562
799.8397, 7006.365
800.3218, 7048.632
800.8039, 7067.263
801.2860, 7050.064
801.7681, 7030.841
802.2502, 7022.666
802.7324, 7023.294
803.2145, 7033.098
803.6966, 7049.362
804.1787, 7070.643
804.6608, 7094.754
805.1429, 7112.107
805.6251, 7112.653
806.1072, 7103.795
806.5893, 7102.714
807.0714, 7107.746
807.5535, 7103.441
808.0356, 7086.249
808.5178, 7076.743
808.9999, 7091.345
809.4820, 7116.963
809.9641, 7118.392
810.4462, 7085.278
810.9283, 7064.949
811.4105, 7052.415
811.8926, 7061.146
812.3747, 7122.334
812.8568, 7190.327
813.3389, 7205.597
813.8210, 7168.015
814.3032, 7145.308
814.7853, 7160.108
815.2674, 7174.929
815.7495, 7167.364
816.2316, 7161.794
816.7137, 7193.032
817.1959, 7246.596
817.6780, 7271.463
818.1601, 7240.583
818.6422, 7203.890
819.1243, 7206.695
819.6064, 7229.206
820.0886, 7240.985
820.5707, 7243.786
821.0528, 7253.240
821.5349, 7274.612
822.0170, 7295.495
822.4991, 7300.794
822.9813, 7295.116
823.4634, 7299.683
823.9455, 7315.239
824.4276, 7326.271
824.9097, 7329.470
825.3918, 7327.146
825.8740, 7317.572
826.3561, 7306.414
826.8382, 7314.476
827.3203, 7358.070
827.8024, 7383.204
828.2845, 7382.899
828.7667, 7372.277
829.2488, 7343.733
829.7309, 7315.678
830.2130, 7312.623
830.6951, 7335.776
831.1772, 7358.933
831.6594, 7380.135
832.1415, 7394.897
832.6236, 7400.281
833.1057, 7399.107
833.5878, 7391.111
834.0699, 7379.291
834.5521, 7370.651
835.0342, 7368.261
835.5163, 7370.027
835.9984, 7376.109
836.4805, 7383.958
836.9626, 7389.376
837.4448, 7392.650
837.9269, 7397.731
838.4090, 7405.448
838.8911, 7406.593
839.3732, 7388.479
839.8553, 7358.580
840.3375, 7344.722
840.8196, 7347.146
841.3017, 7353.015
841.7838, 7359.699
842.2659, 7373.152
842.7480, 7401.572
843.2302, 7434.260
843.7123, 7443.224
844.1944, 7420.318
844.6765, 7400.677
845.1586, 7384.500
845.6407, 7371.310
846.1229, 7358.850
846.6050, 7350.788
847.0871, 7352.774
847.5692, 7363.954
848.0513, 7373.373
848.5334, 7375.297
849.0156, 7381.095
849.4977, 7398.346
849.9798, 7416.589
850.4619, 7428.935
850.9440, 7435.584
851.4261, 7437.101
851.9083, 7433.204
852.3904, 7431.578
852.8725, 7433.260
853.3546, 7443.105
853.8367, 7478.735
854.3188, 7522.784
854.8010, 7535.306
855.2831, 7512.805
855.7652, 7488.839
856.2473, 7486.940
856.7294, 7500.584
857.2115, 7521.790
857.6937, 7548.787
858.1758, 7579.895
858.6579, 7613.752
859.1400, 7619.039
859.6221, 7577.557
860.1042, 7527.347
860.5864, 7525.889
861.0685, 7570.832
861.5506, 7591.056
862.0327, 7573.505
862.5148, 7586.795
862.9969, 7665.745
863.4791, 7741.183
863.9612, 7758.694
864.4433, 7729.823
864.9254, 7694.516
865.4075, 7637.939
865.8896, 7605.930
866.3718, 7621.930
866.8539, 7633.264
867.3360, 7611.166
867.8181, 7581.499
868.3002, 7575.529
868.7823, 7593.757
869.2645, 7610.711
869.7466, 7628.606
870.2287, 7632.786
870.7108, 7615.282
871.1929, 7583.487
871.6750, 7531.815
872.1572, 7473.940
872.6393, 7441.341
873.1214, 7445.521
873.6035, 7448.836
874.0856, 7416.350
874.5677, 7375.117
875.0499, 7357.283
875.5320, 7353.783
876.0141, 7347.459
876.4962, 7333.223
876.9783, 7306.930
877.4604, 7263.419
877.9426, 7216.294
878.4247, 7185.273
878.9068, 7169.636
879.3889, 7173.603
879.8710, 7194.663
880.3531, 7202.708
880.8353, 7185.226
881.3174, 7155.803
881.7995, 7129.470
882.2816, 7105.925
882.7637, 7083.905
883.2458, 7064.049
883.7280, 7040.462
884.2101, 7010.136
884.6922, 6982.457
885.1743, 6961.342
885.6564, 6949.871
886.1385, 6957.294
886.6207, 6991.278
887.1028, 7009.330
887.5849, 7006.879
888.0670, 6995.550
888.5491, 6969.909
889.0313, 6943.977
889.5134, 6927.869
889.9955, 6921.430
890.4776, 6924.290
890.9597, 6946.207
891.4418, 6959.677
891.9240, 6963.301
892.4061, 6955.110
892.8882, 6926.993
893.3703, 6890.240
893.8524, 6855.960
894.3345, 6826.900
894.8167, 6811.821
895.2988, 6821.584
895.7809, 6837.367
896.2630, 6851.932
896.7451, 6865.400
897.2272, 6881.689
897.7094, 6896.424
898.1915, 6897.292
898.6736, 6879.804
899.1557, 6860.096
899.6378, 6852.115
900.1199, 6848.252
900.6021, 6840.643
901.0842, 6829.355
901.5663, 6812.052
902.0484, 6790.619
902.5305, 6775.832
903.0126, 6775.105
903.4948, 6780.167
903.9769, 6777.379
904.4590, 6770.749
904.9411, 6777.386
905.4232, 6794.806
905.9053, 6796.200
906.3875, 6773.065
906.8696, 6751.588
907.3517, 6758.513
907.8338, 6783.882
908.3159, 6797.508
908.7980, 6799.399
909.2802, 6784.923
909.7623, 6749.817
910.2444, 6728.356
910.7265, 6739.763
911.2086, 6765.182
911.6907, 6777.699
912.1729, 6777.485
912.6550, 6780.111
913.1371, 6787.702
913.6192, 6791.271
914.1013, 6788.193
914.5834, 6783.077
915.0656, 6780.452
915.5477, 6776.881
916.0298, 6763.325
916.5119, 6735.329
916.9940, 6713.863
917.4761, 6696.322
917.9583, 6689.080
918.4404, 6703.207
918.9225, 6719.819
919.4046, 6721.412
919.8867, 6712.790
920.3688, 6713.610
920.8510, 6736.491
921.3331, 6743.939
921.8152, 6711.125
922.2973, 6684.284
922.7794, 6689.540
923.2615, 6709.142
923.7437, 6726.710
924.2258, 6738.612
924.7079, 6737.462
925.1900, 6712.271
925.6721, 6688.241
926.1542, 6678.228
926.6364, 6671.000
927.1185, 6650.114
927.6006, 6628.639
928.0827, 6637.453
928.5648, 6679.406
929.0469, 6706.671
929.5291, 6674.988
930.0112, 6639.327
930.4933, 6647.135
930.9754, 6670.274
931.4575, 6672.633
931.9396, 6657.894
932.4218, 6647.084
932.9039, 6647.882
933.3860, 6654.976
933.8681, 6670.472
934.3502, 6684.311
934.8323, 6674.324
935.3145, 6655.803
935.7966, 6670.593
936.2787, 6713.678
936.7608, 6730.828
937.2429, 6691.772
937.7250, 6641.046
938.2072, 6635.668
938.6893, 6657.875
939.1714, 6672.530
939.6535, 6677.572
940.1356, 6662.834
940.6177, 6628.952
941.0999, 6602.937
941.5820, 6603.965
942.0641, 6622.817
942.5462, 6652.453
943.0283, 6686.457
943.5104, 6683.264
943.9926, 6644.815
944.4747, 6620.892
944.9568, 6627.109
945.4389, 6639.423
945.9210, 6636.250
946.4031, 6623.191
946.8853, 6615.642
947.3674, 6613.566
947.8495, 6611.554
948.3316, 6609.164
948.8137, 6608.396
949.2958, 6610.482
949.7780, 6611.807
950.2601, 6607.243
950.7422, 6599.172
951.2243, 6601.956
951.7064, 6618.203
952.1885, 6628.709
952.6707, 6631.941
953.1528, 6627.245
953.6349, 6611.383
954.1170, 6593.426
954.5991, 6585.175
955.0812, 6586.458
955.5634, 6593.574
956.0455, 6610.729
956.5276, 6620.444
957.0097, 6618.836
957.4918, 6613.381
957.9739, 6608.188
958.4561, 6600.984
958.9382, 6584.014
959.4203, 6554.431
959.9024, 6558.182
960.3845, 6628.438
960.8666, 6663.966
961.3488, 6623.131
961.8309, 6581.503
962.3130, 6591.810
962.7951, 6628.764
963.2772, 6641.676
963.7593, 6624.665
964.2415, 6615.078
964.7236, 6616.531
965.2057, 6620.162
965.6878, 6630.051
966.1699, 6636.274
966.6520, 6630.192
967.1342, 6616.302
967.6163, 6604.489
968.0984, 6594.945
968.5805, 6587.674
969.0626, 6581.102
969.5447, 6578.865
970.0269, 6588.716
970.5090, 6597.025
970.9911, 6588.146
971.4732, 6570.203
971.9553, 6566.539
972.4374, 6584.742
972.9196, 6597.621
973.4017, 6594.462
973.8838, 6594.441
974.3659, 6615.466
974.8480, 6633.094
975.3301, 6616.876
975.8123, 6579.201
976.2944, 6562.303
976.7765, 6579.591
977.2586, 6594.977
977.7407, 6598.044
978.2228, 6600.513
978.7050, 6610.621
979.1871, 6620.118
979.6692, 6617.348
980.1513, 6606.404
980.6334, 6605.587
981.1155, 6627.220
981.5977, 6632.510
982.0798, 6588.950
982.5619, 6550.851
983.0440, 6552.497
983.5261, 6569.205
984.0082, 6575.579
984.4904, 6570.551
984.9725, 6561.410
985.4546, 6546.776
985.9367, 6537.988
986.4188, 6543.328
986.9009, 6550.869
987.3831, 6561.129
987.8652, 6564.578
988.3473, 6540.774
988.8294, 6498.637
989.3115, 6479.147
989.7936, 6501.606
990.2758, 6526.808
990.7579, 6540.088
991.2400, 6549.416
991.7221, 6566.096
992.2042, 6577.689
992.6863, 6561.646
993.1685, 6524.262
993.6506, 6500.314
994.1327, 6504.910
994.6148, 6513.561
995.0969, 6515.987
995.5790, 6518.182
996.0612, 6524.395
996.5433, 6532.654
997.0254, 6545.742
997.5075, 6559.009
997.9896, 6551.683
998.4717, 6504.099
998.9539, 6473.585
999.4360, 6503.870
999.9181, 6541.876
1000.400, 6549.439
1000.882, 6543.292
1001.364, 6551.018
1001.847, 6569.314
1002.329, 6568.398
1002.811, 6529.869
1003.293, 6496.882
1003.775, 6489.749
1004.257, 6494.859
1004.739, 6508.805
1005.221, 6525.728
1005.703, 6544.161
1006.186, 6559.579
1006.668, 6556.929
1007.150, 6524.193
1007.632, 6496.707
1008.114, 6494.912
1008.596, 6498.880
1009.078, 6500.239
1009.560, 6496.823
1010.043, 6478.772
1010.525, 6453.893
1011.007, 6452.406
1011.489, 6490.903
1011.971, 6525.861
1012.453, 6539.516
1012.935, 6543.126
1013.417, 6540.398
1013.899, 6533.608
1014.382, 6521.659
1014.864, 6507.658
1015.346, 6500.603
1015.828, 6504.328
1016.310, 6509.217
1016.792, 6516.746
1017.274, 6518.377
1017.756, 6497.996
1018.239, 6478.405
1018.721, 6491.778
1019.203, 6525.915
1019.685, 6537.458
1020.167, 6510.961
1020.649, 6489.891
1021.131, 6495.776
1021.613, 6500.949
1022.095, 6485.322
1022.578, 6469.331
1023.060, 6477.608
1023.542, 6500.378
1024.024, 6508.221
1024.506, 6492.578
1024.988, 6483.092
1025.470, 6496.604
1025.952, 6505.553
1026.435, 6493.571
1026.917, 6478.662
1027.399, 6475.937
1027.881, 6481.435
1028.363, 6487.332
1028.845, 6494.154
1029.327, 6487.657
1029.809, 6441.530
1030.292, 6414.715
1030.774, 6441.358
1031.256, 6473.818
1031.738, 6478.404
1032.220, 6466.758
1032.702, 6458.783
1033.184, 6455.297
1033.666, 6465.172
1034.148, 6513.421
1034.630, 6539.717
1035.113, 6515.227
1035.595, 6487.153
1036.077, 6486.322
1036.559, 6495.457
1037.041, 6482.498
1037.523, 6445.708
1038.005, 6437.574
1038.487, 6494.479
1038.970, 6521.395
1039.452, 6488.146
1039.934, 6456.292
1040.416, 6453.230
1040.898, 6464.947
1041.380, 6478.709
1041.862, 6493.371
1042.344, 6495.179
1042.826, 6472.188
1043.309, 6463.236
1043.791, 6477.230
1044.273, 6491.721
1044.755, 6502.886
1045.237, 6504.858
1045.719, 6489.362
1046.201, 6460.184
1046.683, 6432.227
1047.166, 6396.167
1047.648, 6397.612
1048.130, 6456.149
1048.612, 6493.306
1049.094, 6479.408
1049.576, 6452.757
1050.058, 6444.514
1050.540, 6448.823
1051.022, 6450.135
1051.505, 6448.098
1051.987, 6446.999
1052.469, 6447.460
1052.951, 6445.222
1053.433, 6439.515
1053.915, 6427.148
1054.397, 6402.179
1054.879, 6381.919
1055.361, 6405.952
1055.844, 6467.641
1056.326, 6482.955
1056.808, 6452.204
1057.290, 6430.606
1057.772, 6427.620
1058.254, 6428.571
1058.736, 6425.668
1059.218, 6424.407
1059.701, 6432.732
1060.183, 6447.968
1060.665, 6466.378
1061.147, 6484.369
1061.629, 6474.265
1062.111, 6438.110
1062.593, 6418.679
1063.075, 6431.960
1063.557, 6451.412
1064.040, 6451.611
1064.522, 6441.772
1065.004, 6434.422
1065.486, 6431.793
1065.968, 6446.241
1066.450, 6470.575
1066.932, 6477.404
1067.414, 6461.169
1067.896, 6438.761
1068.379, 6419.027
1068.861, 6408.084
1069.343, 6426.484
1069.825, 6447.631
1070.307, 6424.896
1070.789, 6379.552
1071.271, 6349.079
1071.753, 6343.538
1072.236, 6372.521
1072.718, 6447.439
1073.200, 6506.563
1073.682, 6490.166
1074.164, 6455.697
1074.646, 6449.254
1075.128, 6454.377
1075.610, 6448.680
1076.093, 6434.918
1076.575, 6428.382
1077.057, 6433.377
1077.539, 6435.995
1078.021, 6423.155
1078.503, 6415.959
1078.985, 6431.886
1079.467, 6449.291
1079.949, 6448.057
1080.432, 6438.290
1080.914, 6438.474
1081.396, 6450.260
1081.878, 6461.434
1082.360, 6479.321
1082.842, 6481.901
1083.324, 6446.189
1083.806, 6418.050
1084.288, 6432.427
1084.771, 6454.024
1085.253, 6439.450
1085.735, 6397.369
1086.217, 6370.214
1086.699, 6359.301
1087.181, 6361.200
1087.663, 6386.329
1088.145, 6402.853
1088.628, 6400.071
1089.110, 6390.592
1089.592, 6380.429
1090.074, 6373.757
1090.556, 6381.430
1091.038, 6404.285
1091.520, 6416.439
1092.002, 6416.241
1092.484, 6415.267
1092.967, 6415.287
1093.449, 6415.328
1093.931, 6415.091
1094.413, 6413.234
1094.895, 6406.998
1095.377, 6398.990
1095.859, 6400.928
1096.341, 6410.958
1096.823, 6416.545
1097.306, 6415.942
1097.788, 6399.574
1098.270, 6366.150
1098.752, 6344.957
1099.234, 6362.608
1099.716, 6391.112
1100.198, 6386.728
1100.680, 6362.379
1101.163, 6336.125
1101.645, 6314.820
1102.127, 6316.348
1102.609, 6338.702
1103.091, 6362.313
1103.573, 6378.443
1104.055, 6384.278
1104.537, 6364.773
1105.020, 6347.398
1105.502, 6366.969
1105.984, 6396.136
1106.466, 6401.620
1106.948, 6388.328
1107.430, 6371.238
1107.912, 6354.695
1108.394, 6347.103
1108.876, 6352.976
1109.359, 6366.745
1109.841, 6403.438
1110.323, 6428.206
1110.805, 6412.118
1111.287, 6377.098
1111.769, 6341.759
1112.251, 6311.750
1112.733, 6306.219
1113.215, 6338.012
1113.698, 6367.204
1114.180, 6401.478
1114.662, 6418.538
1115.144, 6406.621
1115.626, 6384.894
1116.108, 6358.899
1116.590, 6339.155
1117.072, 6348.988
1117.555, 6388.638
1118.037, 6408.567
1118.519, 6406.349
1119.001, 6396.227
1119.483, 6378.132
1119.965, 6363.828
1120.447, 6358.674
1120.929, 6356.082
1121.411, 6349.036
1121.894, 6340.200
1122.376, 6336.772
1122.858, 6337.943
1123.340, 6339.926
1123.822, 6342.387
1124.304, 6343.965
1124.786, 6344.843
1125.268, 6349.494
1125.750, 6360.772
1126.233, 6371.216
1126.715, 6372.584
1127.197, 6367.861
1127.679, 6358.295
1128.161, 6347.300
1128.643, 6342.795
1129.125, 6341.100
1129.607, 6329.042
1130.090, 6304.654
1130.572, 6285.360
1131.054, 6280.654
1131.536, 6281.651
1132.018, 6284.129
1132.500, 6290.224
1132.982, 6302.045
1133.464, 6317.860
1133.947, 6342.826
1134.429, 6370.156
1134.911, 6373.844
1135.393, 6342.966
1135.875, 6315.479
1136.357, 6281.754
1136.839, 6271.967
1137.321, 6312.674
1137.803, 6346.277
1138.286, 6332.506
1138.768, 6302.445
1139.250, 6304.304
1139.732, 6333.175
1140.214, 6341.271
1140.696, 6325.672
1141.178, 6310.411
1141.660, 6296.433
1142.142, 6288.498
1142.625, 6287.936
1143.107, 6299.647
1143.589, 6330.051
1144.071, 6361.544
1144.553, 6358.813
1145.035, 6333.915
1145.517, 6325.675
1145.999, 6326.789
1146.482, 6306.854
1146.964, 6270.479
1147.446, 6255.047
1147.928, 6273.455
1148.410, 6297.109
1148.892, 6304.885
1149.374, 6309.364
1149.856, 6322.417
1150.339, 6336.737
1150.821, 6350.618
1151.303, 6357.385
1151.785, 6340.976
1152.267, 6308.081
1152.749, 6291.659
1153.231, 6304.095
1153.713, 6315.582
1154.195, 6319.124
1154.677, 6321.144
1155.160, 6333.602
1155.642, 6333.219
1156.124, 6286.891
1156.606, 6235.282
1157.088, 6245.702
1157.570, 6310.322
1158.052, 6334.922
1158.534, 6311.171
1159.017, 6283.099
1159.499, 6250.560
1159.981, 6227.582
1160.463, 6218.529
1160.945, 6218.718
1161.427, 6225.108
1161.909, 6236.764
1162.391, 6256.674
1162.874, 6278.897
1163.356, 6281.673
1163.838, 6269.901
1164.320, 6255.715
1164.802, 6242.823
1165.284, 6236.523
1165.766, 6238.548
1166.248, 6248.432
1166.730, 6269.569
1167.213, 6288.844
1167.695, 6295.204
1168.177, 6295.141
1168.659, 6295.949
1169.141, 6292.630
1169.623, 6270.889
1170.105, 6240.370
1170.587, 6231.491
1171.069, 6252.720
1171.552, 6268.821
1172.034, 6271.008
1172.516, 6272.001
1172.998, 6267.510
1173.480, 6272.009
1173.962, 6301.476
1174.444, 6328.300
1174.926, 6319.536
1175.409, 6288.099
1175.891, 6281.553
1176.373, 6302.864
1176.855, 6305.172
1177.337, 6288.046
1177.819, 6267.294
1178.301, 6246.433
1178.783, 6247.250
1179.266, 6280.441
1179.748, 6311.691
1180.230, 6300.863
1180.712, 6273.286
1181.194, 6271.575
1181.676, 6280.749
1182.158, 6275.675
1182.640, 6260.514
1183.122, 6245.388
1183.604, 6233.257
1184.087, 6224.035
1184.569, 6216.296
1185.051, 6222.739
1185.533, 6269.854
1186.015, 6304.082
1186.497, 6290.165
1186.979, 6269.195
1187.461, 6274.448
1187.944, 6287.068
1188.426, 6273.583
1188.908, 6240.729
1189.390, 6232.652
1189.872, 6259.928
1190.354, 6274.870
1190.836, 6276.834
1191.318, 6265.981
1191.801, 6238.906
1192.283, 6224.315
1192.765, 6239.732
1193.247, 6266.761
1193.729, 6286.049
1194.211, 6294.290
1194.693, 6276.264
1195.175, 6243.371
1195.657, 6223.063
1196.140, 6216.122
1196.622, 6222.903
1197.104, 6238.757
1197.586, 6244.672
1198.068, 6230.985
1198.550, 6220.287
1199.032, 6226.252
1199.514, 6239.888
1199.996, 6269.445
1200.479, 6290.881
1200.961, 6275.688
1201.443, 6246.314
1201.925, 6237.240
1202.407, 6247.354
1202.889, 6252.527
1203.371, 6251.341
1203.853, 6249.286
1204.336, 6245.759
1204.818, 6243.289
1205.300, 6242.364
1205.782, 6241.676
1206.264, 6239.676
1206.746, 6243.996
1207.228, 6267.494
1207.710, 6296.603
1208.193, 6293.184
1208.675, 6268.865
1209.157, 6253.968
1209.639, 6249.239
1210.121, 6257.374
1210.603, 6272.492
1211.085, 6269.850
1211.567, 6239.200
1212.049, 6212.271
1212.531, 6209.502
1213.014, 6214.283
1213.496, 6226.714
1213.978, 6233.778
1214.460, 6212.951
1214.942, 6191.430
1215.424, 6211.409
1215.906, 6259.541
1216.388, 6282.413
1216.871, 6275.134
1217.353, 6273.220
1217.835, 6280.048
1218.317, 6277.837
1218.799, 6263.771
1219.281, 6239.899
1219.763, 6205.604
1220.245, 6181.105
1220.728, 6186.967
1221.210, 6204.371
1221.692, 6193.703
1222.174, 6174.355
1222.656, 6195.179
1223.138, 6234.622
1223.620, 6245.562
1224.102, 6231.805
1224.584, 6220.989
1225.067, 6220.729
1225.549, 6225.380
1226.031, 6238.933
1226.513, 6244.433
1226.995, 6230.966
1227.477, 6215.069
1227.959, 6203.524
1228.441, 6192.510
1228.923, 6177.134
1229.406, 6161.899
1229.888, 6154.397
1230.370, 6154.301
1230.852, 6158.819
1231.334, 6168.038
1231.816, 6181.563
1232.298, 6198.875
1232.780, 6208.585
1233.263, 6208.455
1233.745, 6211.044
1234.227, 6223.988
1234.709, 6227.817
1235.191, 6190.481
1235.673, 6147.351
1236.155, 6137.611
1236.637, 6143.194
1237.120, 6147.726
1237.602, 6150.928
##END=



