##NAMES=Agardite-(Y)
##RRUFFID=R060711
##IDEAL CHEMISTRY=Cu^2+^_6_Y^3+^(As^5+^O_4_)_3_(OH)_6_&#183;3H_2_O
##LOCALITY=Brumado, Bahia, Brazil
##OWNER=RRUFF
##SOURCE=Bob Jenkins
##DESCRIPTION=Mass of pale green fibers
##STATUS=The identification of this mineral has been confirmed by X-ray diffraction and chemical analysis
##URL=rruff.info/R060711
##MEASURED CHEMISTRY=(Cu_5.73_Fe_0.04_)_Σ=5.77_(Y_0.32_Gd_0.10_Nd_0.03_Sm_0.08_Ca_0.39_)_Σ=0.92_[(AsO_4_)_0.79_(PO_4_)_0.06_(SiO_4_)_0.01_]_3_(OH)_6_·4.58H_2_O
162.507, 2514.083
162.990, 2541.891
163.472, 2552.056
163.954, 2568.532
164.436, 2596.433
164.918, 2628.542
165.400, 2658.485
165.882, 2685.052
166.364, 2710.530
166.846, 2739.074
167.329, 2772.165
167.811, 2796.186
168.293, 2802.627
168.775, 2802.691
169.257, 2808.635
169.739, 2822.959
170.221, 2840.022
170.703, 2854.376
171.185, 2866.333
171.668, 2873.666
172.150, 2875.410
172.632, 2872.628
173.114, 2864.780
173.596, 2850.995
174.078, 2837.314
174.560, 2831.313
175.042, 2832.772
175.525, 2837.064
176.007, 2845.553
176.489, 2855.656
176.971, 2863.813
177.453, 2869.353
177.935, 2873.116
178.417, 2874.542
178.899, 2873.562
179.381, 2876.142
179.863, 2882.943
180.346, 2894.369
180.828, 2913.687
181.310, 2943.574
181.792, 2973.177
182.274, 2969.447
182.756, 2934.512
183.238, 2930.573
183.721, 2951.753
184.203, 2966.835
184.685, 2976.146
185.167, 2962.406
185.649, 2978.433
186.131, 2982.532
186.613, 2986.140
187.095, 3006.357
187.577, 2995.969
188.059, 3014.293
188.542, 3007.127
189.024, 3003.683
189.506, 3002.555
189.988, 3002.688
190.470, 3003.928
190.952, 3006.219
191.434, 3013.428
191.917, 3020.848
192.399, 3019.094
192.881, 3005.015
193.363, 2987.484
193.845, 2974.989
194.327, 2966.632
194.809, 2959.591
195.291, 2950.944
195.773, 2943.523
196.255, 2943.897
196.738, 2954.963
197.220, 2966.834
197.702, 2968.689
198.184, 2962.770
198.666, 2957.063
199.148, 2954.677
199.630, 2953.792
200.112, 2950.854
200.595, 2944.725
201.077, 2939.392
201.559, 2941.748
202.041, 2949.091
202.523, 2950.874
203.005, 2940.828
203.487, 2924.550
203.969, 2909.422
204.452, 2895.755
204.934, 2884.446
205.416, 2874.302
205.898, 2866.455
206.380, 2867.377
206.862, 2882.440
207.344, 2905.671
207.826, 2931.279
208.308, 2960.003
208.790, 2984.528
209.273, 2992.496
209.755, 2990.371
210.237, 2998.828
210.719, 3027.290
211.201, 3065.876
211.683, 3103.195
212.165, 3138.364
212.648, 3175.724
213.130, 3222.971
213.612, 3274.910
214.094, 3315.351
214.576, 3336.481
215.058, 3348.188
215.540, 3358.816
216.022, 3368.418
216.504, 3379.536
216.986, 3398.598
217.469, 3419.870
217.951, 3427.473
218.433, 3410.387
218.915, 3386.001
219.397, 3371.240
219.879, 3365.488
220.361, 3353.313
220.844, 3323.140
221.326, 3279.997
221.808, 3240.740
222.290, 3203.690
222.772, 3172.508
223.254, 3152.862
223.736, 3143.246
224.218, 3132.859
224.700, 3115.672
225.182, 3094.174
225.665, 3076.002
226.147, 3061.146
226.629, 3049.271
227.111, 3041.994
227.593, 3038.073
228.075, 3031.730
228.557, 3018.101
229.039, 3002.848
229.522, 3000.298
230.004, 3019.033
230.486, 3033.318
230.968, 3030.767
231.450, 3014.946
231.932, 2992.043
232.414, 2960.047
232.896, 2929.567
233.378, 2927.337
233.861, 2967.737
234.343, 2993.593
234.825, 2975.278
235.307, 2932.084
235.789, 2898.596
236.271, 2885.658
236.753, 2884.634
237.235, 2882.772
237.717, 2881.688
238.200, 2875.072
238.682, 2851.158
239.164, 2824.733
239.646, 2819.994
240.128, 2844.003
240.610, 2873.496
241.092, 2876.200
241.574, 2844.072
242.057, 2815.372
242.539, 2789.087
243.021, 2769.632
243.503, 2764.839
243.985, 2775.109
244.467, 2788.305
244.949, 2791.720
245.431, 2783.077
245.913, 2772.412
246.396, 2757.257
246.878, 2741.983
247.360, 2728.409
247.842, 2717.221
248.324, 2710.445
248.806, 2710.248
249.288, 2717.280
249.770, 2724.317
250.253, 2732.629
250.735, 2739.740
251.217, 2717.793
251.699, 2710.195
252.181, 2738.128
252.663, 2757.438
253.145, 2768.585
253.627, 2747.125
254.109, 2767.770
254.592, 2771.542
255.074, 2774.621
255.556, 2801.194
256.038, 2784.477
256.520, 2810.675
257.002, 2816.605
257.484, 2810.928
257.966, 2811.176
258.449, 2809.386
258.931, 2800.435
259.413, 2790.455
259.895, 2786.878
260.377, 2792.931
260.859, 2806.279
261.341, 2821.982
261.823, 2845.854
262.306, 2862.893
262.788, 2870.156
263.270, 2872.357
263.752, 2871.952
264.234, 2870.150
264.716, 2869.130
265.198, 2872.363
265.680, 2881.195
266.162, 2891.377
266.645, 2908.832
267.127, 2922.935
267.609, 2920.406
268.091, 2903.970
268.573, 2893.690
269.055, 2918.426
269.537, 2988.527
270.019, 3029.910
270.501, 3003.888
270.984, 2980.994
271.466, 2990.158
271.948, 3026.210
272.430, 3066.695
272.912, 3095.127
273.394, 3112.583
273.876, 3131.880
274.358, 3153.641
274.841, 3176.365
275.323, 3194.020
275.805, 3212.482
276.287, 3240.545
276.769, 3277.901
277.251, 3287.310
277.733, 3312.703
278.215, 3334.221
278.698, 3352.063
279.180, 3355.237
279.662, 3377.352
280.144, 3391.876
280.626, 3406.089
281.108, 3430.873
281.590, 3436.181
282.072, 3460.794
282.554, 3477.701
283.036, 3498.135
283.519, 3509.353
284.001, 3505.796
284.483, 3502.083
284.965, 3490.700
285.447, 3459.681
285.929, 3413.560
286.411, 3377.678
286.893, 3362.099
287.376, 3353.290
287.858, 3335.264
288.340, 3308.125
288.822, 3279.685
289.304, 3252.275
289.786, 3225.946
290.268, 3198.773
290.750, 3169.495
291.233, 3145.500
291.715, 3139.314
292.197, 3149.418
292.679, 3147.946
293.161, 3125.462
293.643, 3093.641
294.125, 3059.257
294.607, 3023.622
295.089, 2992.308
295.572, 2969.300
296.054, 2954.640
296.536, 2944.181
297.018, 2940.864
297.500, 2938.196
297.982, 2936.377
298.464, 2933.058
298.946, 2921.606
299.428, 2897.456
299.911, 2865.613
300.393, 2842.518
300.875, 2830.876
301.357, 2824.450
301.839, 2827.223
302.321, 2832.982
302.803, 2833.416
303.285, 2826.050
303.767, 2816.991
304.250, 2816.829
304.732, 2833.302
305.214, 2842.865
305.696, 2843.403
306.178, 2839.749
306.660, 2833.675
307.142, 2826.196
307.625, 2818.731
308.107, 2812.321
308.589, 2806.706
309.071, 2804.662
309.553, 2812.113
310.035, 2817.535
310.517, 2813.704
310.999, 2805.203
311.481, 2801.990
311.964, 2811.772
312.446, 2830.574
312.928, 2842.385
313.410, 2844.328
313.892, 2843.990
314.374, 2838.873
314.856, 2834.929
315.338, 2841.435
315.820, 2863.631
316.303, 2887.353
316.785, 2890.564
317.267, 2870.183
317.749, 2851.780
318.231, 2838.006
318.713, 2832.130
319.195, 2840.383
319.677, 2863.639
320.159, 2884.779
320.642, 2888.431
321.124, 2879.428
321.606, 2877.898
322.088, 2891.302
322.570, 2903.325
323.052, 2891.169
323.534, 2860.681
324.016, 2843.784
324.499, 2864.716
324.981, 2895.635
325.463, 2901.205
325.945, 2879.675
326.427, 2854.999
326.909, 2844.452
327.391, 2844.429
327.873, 2833.522
328.355, 2796.560
328.838, 2764.544
329.320, 2755.421
329.802, 2762.208
330.284, 2769.694
330.766, 2771.813
331.248, 2768.775
331.730, 2760.646
332.212, 2742.177
332.694, 2726.930
333.177, 2717.198
333.659, 2710.315
334.141, 2704.733
334.623, 2699.734
335.105, 2693.656
335.587, 2684.052
336.069, 2669.523
336.552, 2657.565
337.034, 2641.633
337.516, 2634.032
337.998, 2650.001
338.480, 2679.550
338.962, 2697.630
339.444, 2684.677
339.926, 2646.671
340.408, 2619.049
340.891, 2602.202
341.373, 2596.176
341.855, 2608.434
342.337, 2626.813
342.819, 2637.481
343.301, 2635.175
343.783, 2626.696
344.265, 2620.797
344.747, 2617.501
345.230, 2616.550
345.712, 2619.465
346.194, 2623.501
346.676, 2627.935
347.158, 2632.460
347.640, 2633.286
348.122, 2622.988
348.604, 2607.143
349.086, 2604.416
349.569, 2621.233
350.051, 2636.659
350.533, 2626.693
351.015, 2600.235
351.497, 2587.747
351.979, 2613.671
352.461, 2641.028
352.944, 2633.281
353.426, 2596.416
353.908, 2565.831
354.390, 2561.681
354.872, 2574.665
355.354, 2574.791
355.836, 2549.284
356.318, 2533.598
356.800, 2544.084
357.283, 2565.447
357.765, 2578.302
358.247, 2577.685
358.729, 2571.545
359.211, 2570.371
359.693, 2576.469
360.175, 2579.900
360.657, 2576.865
361.139, 2575.036
361.622, 2579.996
362.104, 2589.825
362.586, 2598.656
363.068, 2602.414
363.550, 2601.552
364.032, 2598.343
364.514, 2587.847
364.996, 2582.593
365.478, 2588.596
365.961, 2598.983
366.443, 2605.935
366.925, 2606.770
367.407, 2606.599
367.889, 2612.316
368.371, 2624.334
368.853, 2637.464
369.335, 2653.124
369.818, 2667.318
370.300, 2677.441
370.782, 2683.591
371.264, 2686.764
371.746, 2682.804
372.228, 2677.475
372.710, 2684.221
373.192, 2705.669
373.674, 2725.321
374.157, 2729.784
374.639, 2723.763
375.121, 2725.323
375.603, 2742.610
376.085, 2759.631
376.567, 2765.048
377.049, 2763.853
377.531, 2768.701
378.013, 2784.978
378.496, 2806.228
378.978, 2820.906
379.460, 2825.490
379.942, 2829.803
380.424, 2834.540
380.906, 2838.616
381.388, 2839.985
381.871, 2839.370
382.353, 2839.989
382.835, 2844.272
383.317, 2852.279
383.799, 2865.624
384.281, 2895.446
384.763, 2918.060
385.245, 2921.894
385.727, 2918.106
386.210, 2922.669
386.692, 2942.568
387.174, 2966.909
387.656, 2975.567
388.138, 2964.551
388.620, 2960.624
389.102, 2970.236
389.584, 2987.480
390.066, 3009.078
390.549, 3034.785
391.031, 3063.419
391.513, 3102.433
391.995, 3142.356
392.477, 3159.565
392.959, 3149.554
393.441, 3136.753
393.923, 3135.860
394.405, 3144.811
394.888, 3155.121
395.370, 3173.560
395.852, 3185.009
396.334, 3177.955
396.816, 3158.306
397.298, 3137.021
397.780, 3117.309
398.262, 3101.776
398.745, 3095.094
399.227, 3102.552
399.709, 3106.769
400.191, 3107.308
400.673, 3105.109
401.155, 3101.983
401.637, 3096.930
402.119, 3086.030
402.602, 3065.514
403.084, 3037.188
403.566, 3013.905
404.048, 2996.748
404.530, 2983.331
405.012, 2976.122
405.494, 2970.458
405.976, 2961.324
406.458, 2947.294
406.940, 2931.981
407.423, 2919.866
407.905, 2910.859
408.387, 2899.784
408.869, 2883.451
409.351, 2868.799
409.833, 2861.622
410.315, 2860.457
410.797, 2860.338
411.280, 2858.360
411.762, 2857.376
412.244, 2860.661
412.726, 2868.009
413.208, 2878.322
413.690, 2893.091
414.172, 2908.355
414.654, 2911.730
415.137, 2894.246
415.619, 2884.500
416.101, 2894.192
416.583, 2910.606
417.065, 2919.051
417.547, 2918.048
418.029, 2918.594
418.511, 2933.140
418.993, 2963.167
419.476, 2981.271
419.958, 2970.372
420.440, 2966.067
420.922, 2982.435
421.404, 3009.056
421.886, 3030.272
422.368, 3039.445
422.850, 3044.236
423.332, 3059.997
423.815, 3089.965
424.297, 3107.516
424.779, 3101.264
425.261, 3087.644
425.743, 3074.907
426.225, 3064.330
426.707, 3061.495
427.189, 3072.024
427.672, 3090.489
428.154, 3114.099
428.636, 3142.790
429.118, 3156.439
429.600, 3139.334
430.082, 3101.828
430.564, 3075.548
431.046, 3064.450
431.529, 3056.148
432.011, 3048.937
432.493, 3041.995
432.975, 3033.092
433.457, 3022.332
433.939, 3014.260
434.421, 3014.845
434.903, 3025.712
435.385, 3028.398
435.867, 3012.828
436.350, 3000.037
436.832, 3002.381
437.314, 3009.175
437.796, 3002.303
438.278, 2973.208
438.760, 2937.083
439.242, 2920.398
439.724, 2926.045
440.207, 2926.569
440.689, 2911.752
441.171, 2896.667
441.653, 2891.433
442.135, 2895.496
442.617, 2905.135
443.099, 2927.210
443.581, 2949.326
444.064, 2952.669
444.546, 2938.091
445.028, 2922.586
445.510, 2913.417
445.992, 2910.199
446.474, 2913.498
446.956, 2930.464
447.438, 2939.460
447.920, 2928.616
448.403, 2913.378
448.885, 2909.862
449.367, 2919.060
449.849, 2930.129
450.331, 2932.652
450.813, 2927.186
451.295, 2929.259
451.777, 2940.574
452.259, 2958.210
452.742, 2991.315
453.224, 3025.451
453.706, 3042.801
454.188, 3037.669
454.670, 3026.489
455.152, 3029.993
455.634, 3046.167
456.116, 3049.719
456.599, 3030.386
457.081, 3011.466
457.563, 3013.835
458.045, 3031.689
458.527, 3049.571
459.009, 3064.203
459.491, 3077.985
459.973, 3092.630
460.456, 3107.729
460.938, 3121.959
461.420, 3134.518
461.902, 3147.244
462.384, 3162.861
462.866, 3181.319
463.348, 3203.322
463.830, 3235.298
464.312, 3264.674
464.795, 3281.545
465.277, 3289.860
465.759, 3300.252
466.241, 3319.285
466.723, 3344.304
467.205, 3368.290
467.687, 3390.739
468.169, 3413.884
468.651, 3441.328
469.134, 3467.236
469.616, 3486.853
470.098, 3500.075
470.580, 3511.807
471.062, 3516.920
471.544, 3525.264
472.026, 3560.355
472.508, 3622.864
472.991, 3675.451
473.473, 3692.547
473.955, 3686.667
474.437, 3700.615
474.919, 3749.030
475.401, 3789.233
475.883, 3811.728
476.365, 3823.931
476.848, 3830.885
477.330, 3834.552
477.812, 3838.548
478.294, 3847.994
478.776, 3861.477
479.258, 3856.500
479.740, 3816.393
480.222, 3782.564
480.704, 3776.284
481.186, 3774.781
481.669, 3752.742
482.151, 3704.158
482.633, 3649.019
483.115, 3602.922
483.597, 3564.528
484.079, 3527.271
484.561, 3489.610
485.043, 3457.982
485.526, 3441.344
486.008, 3435.462
486.490, 3418.771
486.972, 3384.192
487.454, 3346.412
487.936, 3308.051
488.418, 3271.038
488.900, 3237.414
489.383, 3207.913
489.865, 3184.159
490.347, 3169.292
490.829, 3165.049
491.311, 3153.734
491.793, 3122.447
492.275, 3098.359
492.757, 3096.879
493.239, 3103.517
493.722, 3097.176
494.204, 3069.887
494.686, 3036.565
495.168, 3013.024
495.650, 2998.365
496.132, 2985.521
496.614, 2973.888
497.096, 2963.107
497.578, 2952.748
498.061, 2942.983
498.543, 2934.937
499.025, 2931.292
499.507, 2926.707
499.989, 2918.066
500.471, 2906.697
500.953, 2895.005
501.435, 2883.751
501.918, 2872.237
502.400, 2859.191
502.882, 2843.673
503.364, 2831.763
503.846, 2824.472
504.328, 2819.961
504.810, 2817.670
505.292, 2817.908
505.775, 2822.760
506.257, 2833.997
506.739, 2843.758
507.221, 2841.599
507.703, 2828.622
508.185, 2815.361
508.667, 2804.734
509.149, 2790.763
509.631, 2759.790
510.113, 2717.661
510.596, 2701.106
511.078, 2741.185
511.560, 2778.281
512.042, 2776.339
512.524, 2752.462
513.006, 2736.650
513.488, 2738.126
513.971, 2746.056
514.453, 2743.910
514.935, 2726.593
515.417, 2731.910
515.899, 2700.970
516.381, 2742.785
516.863, 2766.939
517.345, 2774.382
517.827, 2715.061
518.310, 2741.952
518.792, 2734.293
519.274, 2725.217
519.756, 2745.218
520.238, 2739.842
520.720, 2743.321
521.202, 2750.128
521.684, 2758.626
522.166, 2767.285
522.649, 2765.572
523.131, 2744.032
523.613, 2723.135
524.095, 2708.967
524.577, 2700.203
525.059, 2693.111
525.541, 2687.606
526.023, 2688.916
526.505, 2698.698
526.988, 2716.423
527.470, 2679.187
527.952, 2721.098
528.434, 2743.795
528.916, 2748.314
529.398, 2680.203
529.880, 2705.878
530.362, 2693.968
530.844, 2680.516
531.327, 2698.696
531.809, 2694.060
532.291, 2710.436
532.773, 2749.598
533.255, 2777.177
533.737, 2764.725
534.219, 2721.996
534.701, 2702.127
535.184, 2722.744
535.666, 2740.638
536.148, 2754.966
536.630, 2761.610
537.112, 2750.632
537.594, 2725.676
538.076, 2706.234
538.558, 2710.110
539.041, 2730.673
539.523, 2741.914
540.005, 2743.260
540.487, 2736.709
540.969, 2716.415
541.451, 2693.073
541.933, 2679.333
542.415, 2676.085
542.898, 2670.426
543.380, 2647.755
543.862, 2627.448
544.344, 2637.031
544.826, 2669.397
545.308, 2689.087
545.790, 2676.919
546.272, 2647.147
546.754, 2632.564
547.237, 2647.037
547.719, 2647.784
548.201, 2619.706
548.683, 2593.614
549.165, 2588.948
549.647, 2598.079
550.129, 2600.346
550.611, 2582.838
551.093, 2561.973
551.576, 2561.834
552.058, 2579.937
552.540, 2596.533
553.022, 2607.937
553.504, 2614.547
553.986, 2616.192
554.468, 2612.563
554.950, 2607.319
555.432, 2596.312
555.915, 2588.375
556.397, 2588.131
556.879, 2592.520
557.361, 2599.388
557.843, 2607.293
558.325, 2611.451
558.807, 2604.454
559.289, 2586.777
559.771, 2577.079
560.254, 2580.878
560.736, 2581.702
561.218, 2564.564
561.700, 2544.337
562.182, 2540.014
562.664, 2556.519
563.146, 2572.527
563.628, 2578.341
564.111, 2577.232
564.593, 2573.743
565.075, 2567.792
565.557, 2554.570
566.039, 2529.395
566.521, 2498.867
567.003, 2483.727
567.485, 2493.854
567.968, 2501.611
568.450, 2504.609
568.932, 2506.593
569.414, 2507.159
569.896, 2508.475
570.378, 2517.332
570.860, 2543.701
571.342, 2567.996
571.825, 2554.785
572.307, 2511.308
572.789, 2487.677
573.271, 2500.136
573.753, 2522.348
574.235, 2526.510
574.717, 2511.293
575.199, 2505.139
575.681, 2519.171
576.164, 2528.692
576.646, 2521.931
577.128, 2508.029
577.610, 2496.045
578.092, 2489.107
578.574, 2488.743
579.056, 2500.172
579.538, 2520.558
580.020, 2529.269
580.503, 2522.781
580.985, 2516.900
581.467, 2520.375
581.949, 2526.814
582.431, 2525.063
582.913, 2512.589
583.395, 2504.802
583.877, 2511.748
584.359, 2520.622
584.842, 2518.493
585.324, 2508.384
585.806, 2501.788
586.288, 2504.642
586.770, 2512.648
587.252, 2518.973
587.734, 2525.806
588.216, 2520.986
588.698, 2488.652
589.181, 2462.845
589.663, 2463.413
590.145, 2481.404
590.627, 2500.612
591.109, 2520.584
591.591, 2532.471
592.073, 2523.825
592.555, 2504.871
593.038, 2493.231
593.520, 2491.682
594.002, 2496.613
594.484, 2506.616
594.966, 2519.625
595.448, 2522.906
595.930, 2506.848
596.412, 2496.588
596.894, 2496.525
597.377, 2500.794
597.859, 2508.079
598.341, 2516.458
598.823, 2520.442
599.305, 2516.315
599.787, 2507.184
600.269, 2492.141
600.752, 2474.145
601.234, 2470.863
601.716, 2489.635
602.198, 2512.182
602.680, 2517.266
603.162, 2503.260
603.644, 2494.016
604.126, 2496.109
604.608, 2494.588
605.091, 2480.979
605.573, 2464.666
606.055, 2457.677
606.537, 2461.224
607.019, 2463.336
607.501, 2447.705
607.983, 2424.082
608.465, 2424.442
608.947, 2450.081
609.430, 2462.537
609.912, 2439.632
610.394, 2405.912
610.876, 2403.569
611.358, 2445.791
611.840, 2468.604
612.322, 2456.171
612.804, 2438.979
613.286, 2430.367
613.769, 2427.371
614.251, 2423.682
614.733, 2417.123
615.215, 2409.754
615.697, 2402.865
616.179, 2396.914
616.661, 2395.854
617.143, 2400.943
617.625, 2405.750
618.108, 2404.609
618.590, 2402.458
619.072, 2411.912
619.554, 2439.014
620.036, 2458.735
620.518, 2468.577
621.000, 2468.385
621.482, 2451.797
621.965, 2425.490
622.447, 2403.049
622.929, 2390.762
623.411, 2386.442
623.893, 2389.012
624.375, 2398.424
624.857, 2404.025
625.339, 2404.172
625.821, 2402.486
626.304, 2401.589
626.786, 2400.327
627.268, 2395.118
627.750, 2380.914
628.232, 2373.222
628.714, 2384.639
629.196, 2397.897
629.679, 2394.491
630.161, 2378.134
630.643, 2365.954
631.125, 2367.930
631.607, 2377.440
632.089, 2381.742
632.571, 2380.505
633.053, 2378.992
633.535, 2379.622
634.018, 2376.487
634.500, 2357.181
634.982, 2331.211
635.464, 2327.355
635.946, 2367.654
636.428, 2396.429
636.910, 2381.904
637.392, 2356.258
637.875, 2354.800
638.357, 2375.489
638.839, 2392.414
639.321, 2388.199
639.803, 2373.040
640.285, 2371.530
640.767, 2385.588
641.249, 2395.541
641.731, 2398.241
642.214, 2396.984
642.696, 2393.978
643.178, 2388.991
643.660, 2380.808
644.142, 2363.580
644.624, 2351.529
645.106, 2356.229
645.588, 2364.122
646.070, 2355.434
646.553, 2333.999
647.035, 2325.175
647.517, 2348.636
647.999, 2387.480
648.481, 2401.092
648.963, 2387.130
649.445, 2371.459
649.927, 2353.616
650.409, 2343.180
650.892, 2355.443
651.374, 2382.785
651.856, 2392.658
652.338, 2363.002
652.820, 2343.287
653.302, 2360.031
653.784, 2385.464
654.266, 2388.818
654.748, 2372.184
655.231, 2360.025
655.713, 2369.541
656.195, 2389.190
656.677, 2393.282
657.159, 2381.128
657.641, 2374.647
658.123, 2379.702
658.606, 2385.605
659.088, 2381.622
659.570, 2370.868
660.052, 2370.651
660.534, 2393.806
661.016, 2409.765
661.498, 2406.693
661.980, 2398.192
662.462, 2374.278
662.945, 2354.034
663.427, 2339.400
663.909, 2360.294
664.391, 2372.564
664.873, 2376.674
665.355, 2348.180
665.837, 2361.786
666.319, 2358.521
666.802, 2354.563
667.284, 2374.095
667.766, 2366.002
668.248, 2373.120
668.730, 2366.771
669.212, 2364.820
669.694, 2375.730
670.176, 2385.386
670.658, 2380.807
671.141, 2366.609
671.623, 2355.384
672.105, 2352.267
672.587, 2357.384
673.069, 2376.647
673.551, 2404.833
674.033, 2421.260
674.515, 2423.041
674.997, 2419.243
675.480, 2415.475
675.962, 2410.848
676.444, 2402.263
676.926, 2383.589
677.408, 2371.579
677.890, 2367.823
678.372, 2368.588
678.854, 2374.821
679.336, 2383.548
679.819, 2389.119
680.301, 2388.982
680.783, 2389.319
681.265, 2399.647
681.747, 2412.193
682.229, 2410.414
682.711, 2394.600
683.193, 2377.073
683.675, 2363.499
684.158, 2356.698
684.640, 2365.437
685.122, 2399.768
685.604, 2415.048
686.086, 2398.400
686.568, 2378.520
687.050, 2361.533
687.532, 2350.288
688.015, 2350.573
688.497, 2364.867
688.979, 2378.140
689.461, 2383.692
689.943, 2384.807
690.425, 2382.447
690.907, 2378.599
691.389, 2377.894
691.872, 2382.113
692.354, 2389.313
692.836, 2397.829
693.318, 2407.586
693.800, 2413.142
694.282, 2412.901
694.764, 2412.967
695.246, 2417.413
695.729, 2421.848
696.211, 2419.703
696.693, 2410.563
697.175, 2402.481
697.657, 2396.783
698.139, 2392.321
698.621, 2389.953
699.103, 2387.790
699.585, 2381.010
700.068, 2370.016
700.550, 2364.321
701.032, 2377.025
701.514, 2397.724
701.996, 2395.494
702.478, 2370.810
702.960, 2354.421
703.442, 2355.889
703.924, 2364.666
704.407, 2372.385
704.889, 2378.830
705.371, 2375.377
705.853, 2343.837
706.335, 2327.133
706.817, 2346.047
707.299, 2369.424
707.781, 2370.808
708.263, 2353.532
708.746, 2338.240
709.228, 2334.519
709.710, 2335.935
710.192, 2334.903
710.674, 2334.472
711.156, 2344.299
711.638, 2364.510
712.120, 2381.970
712.602, 2387.463
713.085, 2383.819
713.567, 2378.951
714.049, 2372.455
714.531, 2366.122
715.013, 2360.258
715.495, 2354.368
715.977, 2343.753
716.459, 2334.142
716.942, 2338.880
717.424, 2367.611
717.906, 2383.925
718.388, 2361.941
718.870, 2333.372
719.352, 2323.163
719.834, 2328.709
720.316, 2342.707
720.799, 2361.739
721.281, 2374.330
721.763, 2358.776
722.245, 2322.295
722.727, 2310.188
723.209, 2325.449
723.691, 2341.413
724.173, 2348.150
724.656, 2350.006
725.138, 2353.889
725.620, 2361.555
726.102, 2358.795
726.584, 2329.739
727.066, 2311.189
727.548, 2321.628
728.030, 2340.665
728.512, 2348.663
728.995, 2344.442
729.477, 2338.539
729.959, 2336.146
730.441, 2335.127
730.923, 2335.454
731.405, 2335.038
731.887, 2325.043
732.369, 2305.426
732.851, 2294.217
733.334, 2307.339
733.816, 2335.900
734.298, 2349.442
734.780, 2344.810
735.262, 2336.949
735.744, 2322.263
736.226, 2312.469
736.708, 2319.164
737.190, 2335.748
737.673, 2348.073
738.155, 2359.722
738.637, 2356.883
739.119, 2313.535
739.601, 2275.662
740.083, 2288.017
740.565, 2327.982
741.047, 2343.547
741.529, 2316.903
742.012, 2286.998
742.494, 2302.356
742.976, 2341.802
743.458, 2349.378
743.940, 2325.955
744.422, 2298.484
744.904, 2275.387
745.386, 2261.656
745.869, 2265.448
746.351, 2287.423
746.833, 2304.399
747.315, 2313.798
747.797, 2322.183
748.279, 2334.867
748.761, 2343.853
749.243, 2341.127
749.726, 2328.449
750.208, 2315.847
750.690, 2298.608
751.172, 2291.833
751.654, 2311.281
752.136, 2340.145
752.618, 2361.007
753.100, 2371.633
753.583, 2374.690
754.065, 2371.078
754.547, 2364.442
755.029, 2359.581
755.511, 2356.670
755.993, 2358.141
756.475, 2364.806
756.957, 2369.647
757.439, 2368.906
757.922, 2364.226
758.404, 2358.410
758.886, 2350.414
759.368, 2345.110
759.850, 2344.120
760.332, 2344.032
760.814, 2344.891
761.296, 2345.648
761.778, 2344.121
762.261, 2340.447
762.743, 2339.978
763.225, 2344.859
763.707, 2353.696
764.189, 2371.079
764.671, 2389.387
765.153, 2395.582
765.635, 2388.655
766.117, 2376.391
766.600, 2362.166
767.082, 2352.187
767.564, 2364.726
768.046, 2398.135
768.528, 2423.240
769.010, 2436.221
769.492, 2438.906
769.974, 2430.083
770.456, 2414.154
770.939, 2402.998
771.421, 2398.261
771.903, 2394.415
772.385, 2386.779
772.867, 2385.424
773.349, 2400.577
773.831, 2420.660
774.313, 2430.182
774.796, 2426.776
775.278, 2423.156
775.760, 2424.038
776.242, 2427.448
776.724, 2436.368
777.206, 2445.058
777.688, 2439.796
778.170, 2420.894
778.653, 2407.954
779.135, 2418.811
779.617, 2405.563
780.099, 2430.538
780.581, 2446.235
781.063, 2453.152
781.545, 2424.991
782.027, 2442.125
782.510, 2441.109
782.992, 2439.346
783.474, 2452.861
783.956, 2468.848
784.438, 2478.567
784.920, 2470.432
785.402, 2469.598
785.884, 2495.419
786.366, 2528.521
786.849, 2541.195
787.331, 2529.143
787.813, 2520.169
788.295, 2526.154
788.777, 2535.110
789.259, 2541.197
789.741, 2544.498
790.223, 2545.707
790.705, 2544.851
791.188, 2540.782
791.670, 2531.283
792.152, 2520.757
792.634, 2516.396
793.116, 2517.406
793.598, 2521.457
794.080, 2528.180
794.562, 2532.661
795.044, 2530.705
795.527, 2527.593
796.009, 2538.314
796.491, 2570.915
796.973, 2583.761
797.455, 2565.976
797.937, 2547.621
798.419, 2540.578
798.901, 2539.862
799.383, 2538.503
799.866, 2536.225
800.348, 2537.306
800.830, 2548.574
801.312, 2555.587
801.794, 2545.425
802.276, 2533.542
802.758, 2538.327
803.240, 2557.551
803.723, 2573.728
804.205, 2575.563
804.687, 2577.199
805.169, 2597.240
805.651, 2624.540
806.133, 2635.695
806.615, 2632.435
807.097, 2636.190
807.580, 2657.870
808.062, 2685.090
808.544, 2696.047
809.026, 2692.138
809.508, 2704.829
809.990, 2737.521
810.472, 2766.217
810.954, 2782.948
811.437, 2791.876
811.919, 2793.264
812.401, 2787.677
812.883, 2803.456
813.365, 2791.584
813.847, 2845.334
814.329, 2883.161
814.811, 2905.908
815.293, 2868.436
815.776, 2908.727
816.258, 2917.854
816.740, 2925.701
817.222, 2976.942
817.704, 2948.226
818.186, 2994.519
818.668, 3020.115
819.150, 3055.451
819.632, 3086.052
820.115, 3107.741
820.597, 3124.336
821.079, 3135.852
821.561, 3146.570
822.043, 3166.111
822.525, 3191.854
823.007, 3210.013
823.489, 3218.481
823.972, 3236.552
824.454, 3282.104
824.936, 3338.998
825.418, 3357.555
825.900, 3329.584
826.382, 3322.860
826.864, 3349.277
827.346, 3377.113
827.828, 3393.948
828.311, 3400.208
828.793, 3393.246
829.275, 3367.432
829.757, 3357.674
830.239, 3377.520
830.721, 3395.225
831.203, 3404.145
831.685, 3406.970
832.167, 3404.949
832.650, 3398.983
833.132, 3391.045
833.614, 3378.202
834.096, 3370.050
834.578, 3377.156
835.060, 3387.056
835.542, 3390.720
836.024, 3385.682
836.507, 3365.525
836.989, 3328.425
837.471, 3294.863
837.953, 3291.905
838.435, 3303.472
838.917, 3293.431
839.399, 3266.941
839.881, 3250.371
840.364, 3250.430
840.846, 3253.358
841.328, 3246.933
841.810, 3234.681
842.292, 3228.573
842.774, 3229.402
843.256, 3229.321
843.738, 3227.154
844.221, 3225.354
844.703, 3225.836
845.185, 3226.832
845.667, 3223.944
846.149, 3214.110
846.631, 3213.406
847.113, 3232.415
847.595, 3246.881
848.077, 3247.123
848.560, 3244.022
849.042, 3245.466
849.524, 3252.035
850.006, 3263.826
850.488, 3284.618
850.970, 3304.604
851.452, 3325.405
851.934, 3339.489
852.416, 3328.843
852.899, 3309.253
853.381, 3314.924
853.863, 3356.740
854.345, 3408.757
854.827, 3461.673
855.309, 3505.569
855.791, 3519.431
856.273, 3514.677
856.755, 3518.039
857.238, 3535.374
857.720, 3559.530
858.202, 3585.888
858.684, 3613.825
859.166, 3643.020
859.648, 3672.916
860.130, 3699.354
860.612, 3721.629
861.094, 3747.119
861.577, 3780.427
862.059, 3815.260
862.541, 3844.349
863.023, 3867.898
863.505, 3869.827
863.987, 3840.327
864.469, 3815.947
864.951, 3806.078
865.434, 3802.566
865.916, 3803.497
866.398, 3805.675
866.880, 3793.700
867.362, 3760.832
867.844, 3726.599
868.326, 3690.292
868.808, 3654.477
869.291, 3624.809
869.773, 3593.865
870.255, 3547.998
870.737, 3486.403
871.219, 3435.500
871.701, 3417.444
872.183, 3396.801
872.665, 3350.230
873.148, 3294.819
873.630, 3248.297
874.112, 3210.940
874.594, 3175.699
875.076, 3139.380
875.558, 3105.106
876.040, 3077.397
876.522, 3052.293
877.004, 3024.472
877.487, 2993.948
877.969, 2961.415
878.451, 2927.122
878.933, 2890.397
879.415, 2848.156
879.897, 2807.425
880.379, 2788.313
880.861, 2787.130
881.343, 2778.382
881.826, 2758.927
882.308, 2744.305
882.790, 2745.014
883.272, 2745.292
883.754, 2713.439
884.236, 2648.713
884.718, 2616.433
885.200, 2624.883
885.682, 2633.846
886.165, 2634.859
886.647, 2628.699
887.129, 2614.227
887.611, 2593.319
888.093, 2575.124
888.575, 2555.533
889.057, 2547.028
889.539, 2569.210
890.021, 2578.493
890.504, 2542.979
890.986, 2493.540
891.468, 2470.143
891.950, 2474.517
892.432, 2478.503
892.914, 2452.424
893.396, 2473.374
893.878, 2482.909
894.361, 2481.641
894.843, 2437.215
895.325, 2448.518
895.807, 2437.488
896.289, 2425.541
896.771, 2444.689
897.253, 2406.540
897.735, 2425.194
898.218, 2421.173
898.700, 2411.897
899.182, 2404.887
899.664, 2414.888
900.146, 2429.593
900.628, 2445.923
901.110, 2454.085
901.592, 2433.469
902.075, 2402.903
902.557, 2400.167
903.039, 2417.990
903.521, 2416.845
904.003, 2383.334
904.485, 2352.261
904.967, 2364.986
905.449, 2402.358
905.931, 2419.194
906.414, 2418.100
906.896, 2410.031
907.378, 2397.317
907.860, 2385.288
908.342, 2377.201
908.824, 2371.792
909.306, 2367.537
909.788, 2364.376
910.270, 2357.464
910.753, 2345.940
911.235, 2338.567
911.717, 2338.248
912.199, 2341.687
912.681, 2346.085
913.163, 2351.485
913.645, 2360.104
914.127, 2377.841
914.609, 2375.322
915.092, 2336.071
915.574, 2309.691
916.056, 2328.568
916.538, 2360.563
917.020, 2358.927
917.502, 2321.673
917.984, 2297.331
918.466, 2297.946
918.948, 2292.827
919.431, 2264.923
919.913, 2244.179
920.395, 2256.911
920.877, 2286.008
921.359, 2295.710
921.841, 2278.459
922.323, 2266.866
922.805, 2268.596
923.288, 2272.744
923.770, 2279.007
924.252, 2283.122
924.734, 2278.500
925.216, 2268.216
925.698, 2263.654
926.180, 2269.121
926.662, 2276.916
927.144, 2287.516
927.627, 2295.720
928.109, 2293.641
928.591, 2289.046
929.073, 2296.563
929.555, 2315.753
930.037, 2327.348
930.519, 2315.687
931.002, 2303.638
931.484, 2312.980
931.966, 2327.375
932.448, 2324.805
932.930, 2311.452
933.412, 2308.137
933.894, 2320.591
934.376, 2330.488
934.858, 2320.710
935.341, 2302.954
935.823, 2289.601
936.305, 2279.921
936.787, 2273.377
937.269, 2269.123
937.751, 2264.210
938.233, 2257.156
938.715, 2250.746
939.197, 2249.313
939.680, 2250.478
940.162, 2250.939
940.644, 2249.293
941.126, 2236.653
941.608, 2213.089
942.090, 2197.461
942.572, 2203.617
943.054, 2219.823
943.536, 2225.350
944.019, 2222.334
944.501, 2222.241
944.983, 2225.152
945.465, 2225.716
945.947, 2222.214
946.429, 2216.120
946.911, 2207.994
947.393, 2199.853
947.875, 2198.655
948.358, 2204.358
948.840, 2210.874
949.322, 2218.626
949.804, 2213.909
950.286, 2187.607
950.768, 2162.161
951.250, 2166.825
951.732, 2196.365
952.215, 2213.427
952.697, 2216.303
953.179, 2215.800
953.661, 2211.801
954.143, 2210.903
954.625, 2219.923
955.107, 2227.098
955.589, 2209.282
956.071, 2165.116
956.554, 2153.449
957.036, 2189.364
957.518, 2212.953
958.000, 2210.726
958.482, 2200.154
958.964, 2189.452
959.446, 2180.662
959.929, 2178.835
960.411, 2185.431
960.893, 2191.652
961.375, 2198.085
961.857, 2203.033
962.339, 2206.173
962.821, 2207.580
963.303, 2207.236
963.785, 2205.205
964.268, 2201.893
964.750, 2198.672
965.232, 2190.335
965.714, 2163.503
966.196, 2149.625
966.678, 2170.158
967.160, 2196.759
967.642, 2204.020
968.125, 2195.582
968.607, 2188.842
969.089, 2180.933
969.571, 2181.111
970.053, 2202.390
970.535, 2216.656
971.017, 2206.980
971.499, 2189.610
971.981, 2183.029
972.464, 2185.962
972.946, 2182.806
973.428, 2159.772
973.910, 2149.895
974.392, 2172.115
974.874, 2192.300
975.356, 2188.377
975.838, 2175.635
976.320, 2175.961
976.803, 2189.668
977.285, 2196.489
977.767, 2180.365
978.249, 2174.311
978.731, 2197.083
979.213, 2220.294
979.695, 2226.817
980.177, 2221.976
980.659, 2213.699
981.142, 2203.216
981.624, 2193.444
982.106, 2181.948
982.588, 2175.715
983.070, 2179.110
983.552, 2186.541
984.034, 2197.658
984.516, 2208.353
984.998, 2213.068
985.481, 2210.892
985.963, 2201.100
986.445, 2166.611
986.927, 2146.413
987.409, 2175.208
987.891, 2207.797
988.373, 2198.226
988.856, 2165.622
989.338, 2157.864
989.820, 2186.218
990.302, 2199.337
990.784, 2155.595
991.266, 2119.244
991.748, 2133.912
992.230, 2159.659
992.712, 2157.905
993.195, 2136.851
993.677, 2121.976
994.159, 2119.548
994.641, 2121.356
995.123, 2126.292
995.605, 2131.736
996.087, 2132.282
996.569, 2135.829
997.052, 2158.781
997.534, 2189.771
998.016, 2197.425
998.498, 2170.831
998.980, 2147.136
999.462, 2143.934
999.944, 2147.082
1000.426, 2146.648
1000.908, 2149.830
1001.391, 2173.875
1001.873, 2206.852
1002.355, 2214.299
1002.837, 2183.257
1003.319, 2153.175
1003.801, 2143.073
1004.283, 2138.264
1004.765, 2129.437
1005.247, 2121.971
1005.730, 2121.791
1006.212, 2128.341
1006.694, 2140.602
1007.176, 2160.535
1007.658, 2170.263
1008.140, 2148.468
1008.622, 2129.557
1009.104, 2141.341
1009.586, 2160.684
1010.069, 2159.977
1010.551, 2144.599
1011.033, 2138.666
1011.515, 2150.746
1011.997, 2159.744
1012.479, 2156.141
1012.961, 2147.372
1013.443, 2127.027
1013.926, 2111.844
1014.408, 2095.623
1014.890, 2116.654
1015.372, 2128.642
1015.854, 2132.073
1016.336, 2101.321
1016.818, 2114.710
1017.300, 2110.409
1017.782, 2105.383
1018.265, 2124.986
1018.747, 2099.205
1019.229, 2116.001
1019.711, 2120.095
1020.193, 2147.978
1020.675, 2166.036
1021.157, 2151.572
1021.639, 2138.879
1022.122, 2154.434
1022.604, 2170.362
1023.086, 2153.587
1023.568, 2116.597
1024.050, 2096.224
1024.532, 2101.721
1025.014, 2111.553
1025.496, 2122.752
1025.978, 2133.510
1026.461, 2152.252
1026.943, 2162.037
1027.425, 2136.955
1027.907, 2094.232
1028.389, 2077.071
1028.871, 2097.028
1029.353, 2110.753
1029.835, 2101.455
1030.318, 2095.679
1030.800, 2108.469
1031.282, 2121.384
1031.764, 2116.703
1032.246, 2102.594
1032.728, 2096.949
1033.210, 2101.493
1033.692, 2113.529
1034.174, 2151.386
1034.656, 2170.659
1035.139, 2146.280
1035.621, 2115.323
1036.103, 2100.301
1036.585, 2096.251
1037.067, 2090.980
1037.549, 2081.839
1038.031, 2088.689
1038.513, 2135.423
1038.996, 2163.863
1039.478, 2154.767
1039.960, 2139.178
1040.442, 2126.772
1040.924, 2122.173
1041.406, 2111.188
1041.888, 2123.946
1042.370, 2130.941
1042.853, 2132.481
1043.335, 2112.235
1043.817, 2120.122
1044.299, 2116.735
1044.781, 2118.930
1045.263, 2146.481
1045.745, 2155.313
1046.227, 2146.038
1046.709, 2134.397
1047.192, 2119.625
1047.674, 2103.782
1048.156, 2082.507
1048.638, 2072.136
1049.120, 2082.153
1049.602, 2102.980
1050.084, 2126.840
1050.566, 2150.515
1051.048, 2150.214
1051.531, 2120.163
1052.013, 2096.716
1052.495, 2081.328
1052.977, 2077.446
1053.459, 2088.648
1053.941, 2102.846
1054.423, 2107.930
1054.905, 2106.096
1055.388, 2105.563
1055.870, 2106.491
1056.352, 2097.843
1056.834, 2078.004
1057.316, 2075.683
1057.798, 2101.183
1058.280, 2128.593
1058.762, 2136.879
1059.245, 2131.317
1059.727, 2118.716
1060.209, 2101.663
1060.691, 2102.530
1061.173, 2118.959
1061.655, 2120.920
1062.137, 2102.429
1062.619, 2087.100
1063.101, 2090.546
1063.583, 2078.295
1064.066, 2098.229
1064.548, 2110.348
1065.030, 2115.074
1065.512, 2090.268
1065.994, 2103.597
1066.476, 2101.643
1066.958, 2099.063
1067.440, 2109.344
1067.923, 2119.720
1068.405, 2132.022
1068.887, 2138.358
1069.369, 2118.925
1069.851, 2087.959
1070.333, 2070.523
1070.815, 2068.500
1071.297, 2077.885
1071.780, 2096.497
1072.262, 2112.713
1072.744, 2120.338
1073.226, 2118.862
1073.708, 2098.490
1074.190, 2075.906
1074.672, 2071.593
1075.154, 2081.258
1075.636, 2095.402
1076.119, 2110.295
1076.601, 2117.712
1077.083, 2109.036
1077.565, 2099.760
1078.047, 2096.729
1078.529, 2097.410
1079.011, 2100.442
1079.493, 2105.601
1079.976, 2115.400
1080.458, 2128.064
1080.940, 2133.098
1081.422, 2125.099
1081.904, 2115.666
1082.386, 2104.700
1082.868, 2096.554
1083.350, 2095.235
1083.833, 2096.022
1084.315, 2090.852
1084.797, 2083.883
1085.279, 2091.895
1085.761, 2126.003
1086.243, 2143.380
1086.725, 2133.319
1087.207, 2122.888
1087.689, 2115.616
1088.172, 2111.828
1088.654, 2112.514
1089.136, 2116.107
1089.618, 2119.375
1090.100, 2122.108
1090.582, 2128.173
1091.064, 2137.253
1091.546, 2153.719
1092.028, 2184.915
1092.511, 2196.917
1092.993, 2168.823
1093.475, 2126.343
1093.957, 2100.552
1094.439, 2090.327
1094.921, 2093.353
1095.403, 2109.454
1095.885, 2125.578
1096.368, 2140.569
1096.850, 2139.936
1097.332, 2118.674
1097.814, 2096.080
1098.296, 2088.094
1098.778, 2090.546
1099.260, 2099.873
1099.742, 2111.981
1100.224, 2113.067
1100.707, 2105.189
1101.189, 2095.177
1101.671, 2086.112
1102.153, 2086.068
1102.635, 2100.232
1103.117, 2115.100
1103.599, 2116.148
1104.081, 2110.799
1104.563, 2109.433
1105.046, 2107.683
1105.528, 2095.833
1106.010, 2077.272
1106.492, 2061.485
1106.974, 2051.798
1107.456, 2053.654
1107.938, 2084.855
1108.420, 2109.373
1108.903, 2099.413
1109.385, 2081.508
1109.867, 2076.910
1110.349, 2080.031
1110.831, 2079.295
1111.313, 2074.133
1111.795, 2072.993
1112.277, 2079.475
1112.760, 2086.572
1113.242, 2095.580
1113.724, 2101.941
1114.206, 2102.201
1114.688, 2100.442
1115.170, 2101.214
1115.652, 2102.754
1116.134, 2099.457
1116.616, 2090.246
1117.099, 2080.855
1117.581, 2068.449
1118.063, 2065.268
1118.545, 2078.741
1119.027, 2086.662
1119.509, 2073.614
1119.991, 2054.286
1120.473, 2050.665
1120.955, 2060.423
1121.438, 2068.384
1121.920, 2074.602
1122.402, 2081.630
1122.884, 2089.749
1123.366, 2100.717
1123.848, 2114.979
1124.330, 2122.171
1124.812, 2112.066
1125.295, 2093.920
1125.777, 2081.070
1126.259, 2073.586
1126.741, 2075.958
1127.223, 2082.779
1127.705, 2077.052
1128.187, 2059.201
1128.669, 2046.111
1129.151, 2045.751
1129.634, 2051.058
1130.116, 2060.640
1130.598, 2068.706
1131.080, 2071.647
1131.562, 2069.217
1132.044, 2055.799
1132.526, 2038.852
1133.008, 2035.041
1133.490, 2046.655
1133.973, 2054.589
1134.455, 2049.323
1134.937, 2044.938
1135.419, 2040.902
1135.901, 2043.305
1136.383, 2060.621
1136.865, 2081.752
1137.347, 2098.395
1137.830, 2108.346
1138.312, 2101.375
1138.794, 2068.339
1139.276, 2053.939
1139.758, 2065.922
1140.240, 2076.170
1140.722, 2080.179
1141.204, 2075.951
1141.687, 2058.366
1142.169, 2043.933
1142.651, 2062.660
1143.133, 2103.681
1143.615, 2103.847
1144.097, 2067.418
1144.579, 2042.539
1145.061, 2034.267
1145.543, 2047.683
1146.026, 2082.450
1146.508, 2108.019
1146.990, 2099.286
1147.472, 2076.101
1147.954, 2063.013
1148.436, 2054.943
1148.918, 2040.756
1149.400, 2026.647
1149.882, 2027.509
1150.365, 2040.806
1150.847, 2051.491
1151.329, 2054.310
1151.811, 2055.175
1152.293, 2056.730
1152.775, 2058.020
1153.257, 2064.724
1153.739, 2064.654
1154.222, 2033.543
1154.704, 1998.417
1155.186, 2008.072
1155.668, 2058.822
1156.150, 2080.688
1156.632, 2044.479
1157.114, 2027.405
1157.596, 2041.033
1158.078, 2052.386
1158.561, 2053.711
1159.043, 2048.057
1159.525, 2034.161
1160.007, 2020.800
1160.489, 2027.293
1160.971, 2050.685
1161.453, 2050.726
1161.935, 2028.185
1162.417, 2024.202
1162.900, 2042.903
1163.382, 2072.658
1163.864, 2108.093
1164.346, 2124.445
1164.828, 2095.567
1165.310, 2056.061
1165.792, 2063.559
1166.274, 2090.469
1166.757, 2090.459
1167.239, 2073.827
1167.721, 2065.663
1168.203, 2065.757
1168.685, 2054.850
1169.167, 2025.465
1169.649, 2009.725
1170.131, 2041.791
1170.614, 2067.896
1171.096, 2055.615
1171.578, 2036.183
1172.060, 2028.250
1172.542, 2043.633
1173.024, 2053.357
1173.506, 2057.724
1173.988, 2040.695
1174.470, 2051.295
1174.953, 2050.828
1175.435, 2055.838
1175.917, 2048.693
1176.399, 2019.093
1176.881, 1999.413
1177.363, 2012.218
1177.845, 2037.517
1178.327, 2045.346
1178.809, 2040.031
1179.292, 2039.132
1179.774, 2042.022
1180.256, 2046.659
1180.738, 2051.856
1181.220, 2053.994
1181.702, 2051.556
1182.184, 2039.927
1182.666, 2013.516
1183.149, 1993.378
1183.631, 2006.560
1184.113, 2029.687
1184.595, 2042.782
1185.077, 2049.214
1185.559, 2051.051
1186.041, 2051.515
1186.523, 2057.545
1187.005, 2069.973
1187.488, 2076.904
1187.970, 2080.620
1188.452, 2070.318
1188.934, 2025.917
1189.416, 1992.280
1189.898, 1986.696
1190.380, 1994.702
1190.862, 2008.926
1191.344, 2023.718
1191.827, 2024.860
1192.309, 2012.546
1192.791, 1990.184
1193.273, 1953.429
1193.755, 2001.676
1194.237, 2029.290
1194.719, 2037.378
1195.201, 1967.464
1195.684, 1998.277
1196.166, 1988.722
1196.648, 1977.511
1197.130, 2022.498
1197.612, 1963.930
1198.094, 2008.025
1198.576, 2011.140
1199.058, 2033.010
1199.541, 2014.268
1200.023, 2008.067
1200.505, 2042.496
1200.987, 2054.428
1201.469, 2031.007
1201.951, 2054.070
1202.433, 1994.083
1202.915, 2006.973
1203.397, 2014.843
1203.880, 2014.777
1204.362, 2015.416
1204.844, 2017.475
1205.326, 2025.040
1205.808, 2039.663
1206.290, 2029.863
1206.772, 1992.066
1207.254, 1976.517
1207.736, 1990.366
1208.219, 2009.351
1208.701, 2023.532
1209.183, 2026.005
1209.665, 2007.356
1210.147, 1984.983
1210.629, 1985.049
1211.111, 1997.858
1211.593, 2011.584
1212.076, 2024.420
1212.558, 2034.695
1213.040, 2042.301
1213.522, 2049.950
1214.004, 2058.218
1214.486, 2053.122
1214.968, 2007.617
1215.450, 1981.186
1215.932, 2003.245
1216.415, 2030.890
1216.897, 2055.291
1217.379, 2064.426
1217.861, 2037.504
1218.343, 1996.757
1218.825, 1999.906
1219.307, 2046.698
1219.789, 2059.246
1220.271, 2036.607
1220.754, 2019.396
1221.236, 2012.418
1221.718, 2010.029
1222.200, 2010.097
1222.682, 2013.559
1223.164, 2022.900
1223.646, 2027.226
1224.128, 2006.674
1224.611, 1980.119
1225.093, 1964.979
1225.575, 1962.852
1226.057, 1984.217
1226.539, 2016.253
1227.021, 2028.884
1227.503, 2018.083
1227.985, 2012.415
1228.468, 2027.642
1228.950, 2031.917
1229.432, 2008.893
1229.914, 1997.280
1230.396, 2014.593
1230.878, 2031.368
1231.360, 2025.727
1231.842, 2012.857
1232.324, 2020.294
1232.807, 2040.248
1233.289, 2027.953
1233.771, 1992.249
1234.253, 1991.600
1234.735, 2020.906
1235.217, 2036.100
1235.699, 2028.352
1236.181, 2015.987
1236.663, 2008.163
1237.146, 2001.050
1237.628, 1988.490
1238.110, 1979.706
1238.592, 1983.296
1239.074, 1991.008
1239.556, 1996.245
1240.038, 2000.898
1240.520, 2008.212
1241.003, 2018.150
1241.485, 2030.495
1241.967, 2049.696
1242.449, 2048.291
1242.931, 2018.013
1243.413, 2004.765
1243.895, 2018.620
1244.377, 2023.885
1244.859, 2003.834
1245.342, 1989.288
1245.824, 2012.624
1246.306, 2046.744
1246.788, 2043.566
1247.270, 2022.578
1247.752, 2020.690
1248.234, 2024.238
1248.716, 1999.035
1249.198, 1957.186
1249.681, 1938.719
1250.163, 1952.182
1250.645, 1974.122
1251.127, 2012.649
1251.609, 2031.835
1252.091, 2010.393
1252.573, 1989.668
1253.055, 1977.887
1253.538, 1976.813
1254.020, 1991.609
1254.502, 2009.554
1254.984, 2009.189
1255.466, 1996.241
1255.948, 1996.298
1256.430, 2006.848
1256.912, 2016.062
1257.395, 2022.319
1257.877, 2022.756
1258.359, 2017.355
1258.841, 2005.737
1259.323, 1987.388
1259.805, 1982.284
1260.287, 2021.372
1260.769, 2053.046
1261.251, 2037.856
1261.734, 2019.089
1262.216, 2029.681
1262.698, 2048.852
1263.180, 2051.721
1263.662, 2044.500
1264.144, 2043.646
1264.626, 2049.448
1265.108, 2046.479
1265.590, 2033.949
1266.073, 2025.475
1266.555, 2022.192
1267.037, 2013.708
1267.519, 1997.841
1268.001, 1988.942
1268.483, 1996.409
1268.965, 2012.802
1269.447, 2038.957
1269.930, 2060.632
1270.412, 2060.153
1270.894, 2051.444
##END=



