##NAMES=Agardite-(Y)
##RRUFFID=R060924
##IDEAL CHEMISTRY=Cu^2+^_6_Y^3+^(As^5+^O_4_)_3_(OH)_6_&#183;3H_2_O
##LOCALITY=Bou Skour mine, Djebel Sarhro, Morocco
##OWNER=RRUFF
##SOURCE=Bob Jenkins
##DESCRIPTION=Light bluish-green flexible fibers
##STATUS=The identification of this mineral has been confirmed by X-ray diffraction and chemical analysis
##URL=rruff.info/R060924
##MEASURED CHEMISTRY=(Cu_5.81_Ca_0.11_Fe_0.02_)_Σ=5.94_(Y_0.51_Nd_0.05_Gd_0.04_La_0.03_Sm_0.02_Pr_0.01_Ca_0.34_)_Σ=1.00_[(AsO_4_)_0.85_(PO_4_)_0.03_(SiO_4_)_0.01_]_3_(OH)_6_·4.04H_2_O
97.29694, 769.3470
97.77905, 770.8092
98.26117, 775.1752
98.74329, 784.0265
99.22540, 796.3958
99.70752, 805.2629
100.1896, 809.6826
100.6718, 812.3933
101.1539, 816.6961
101.6360, 822.8672
102.1181, 829.6807
102.6002, 836.5563
103.0823, 843.2665
103.5645, 851.3190
104.0466, 860.5178
104.5287, 871.2092
105.0108, 884.4810
105.4929, 901.3855
105.9750, 919.2823
106.4572, 937.8803
106.9393, 962.9059
107.4214, 978.4024
107.9035, 980.6208
108.3856, 973.0449
108.8677, 967.6637
109.3499, 966.5730
109.8320, 966.1253
110.3141, 964.7793
110.7962, 961.0807
111.2783, 958.1234
111.7604, 956.8447
112.2426, 956.8782
112.7247, 955.7480
113.2068, 951.0043
113.6889, 946.0476
114.1710, 943.2674
114.6531, 947.1088
115.1353, 949.4251
115.6174, 946.8539
116.0995, 939.3532
116.5816, 932.3964
117.0637, 929.8890
117.5458, 928.3690
118.0280, 924.0315
118.5101, 912.5289
118.9922, 899.7610
119.4743, 889.0518
119.9564, 880.6081
120.4385, 873.6169
120.9207, 866.4395
121.4028, 860.4193
121.8849, 857.9333
122.3670, 865.0587
122.8491, 874.0920
123.3312, 876.4211
123.8134, 870.0511
124.2955, 860.8362
124.7776, 852.5543
125.2597, 845.5343
125.7418, 840.8220
126.2239, 839.6161
126.7061, 841.1550
127.1882, 844.1965
127.6703, 848.9637
128.1524, 854.4391
128.6345, 858.9029
129.1166, 862.4937
129.5988, 866.6688
130.0809, 873.6130
130.5630, 882.3934
131.0451, 888.9150
131.5272, 891.5740
132.0093, 891.9850
132.4915, 893.6349
132.9736, 896.5322
133.4557, 900.6090
133.9378, 906.4711
134.4199, 914.0719
134.9020, 920.5131
135.3842, 924.8423
135.8663, 927.3303
136.3484, 929.7951
136.8305, 932.0974
137.3126, 934.6837
137.7947, 938.9993
138.2769, 946.0378
138.7590, 949.5866
139.2411, 947.5052
139.7232, 939.6526
140.2053, 930.1555
140.6874, 917.8181
141.1696, 905.2405
141.6517, 896.3800
142.1338, 892.8065
142.6159, 889.3636
143.0980, 884.2494
143.5801, 876.8348
144.0623, 871.1968
144.5444, 867.6723
145.0265, 865.7959
145.5086, 864.9471
145.9907, 865.9681
146.4728, 866.9500
146.9550, 867.3205
147.4371, 866.9887
147.9192, 866.2626
148.4013, 864.8971
148.8834, 863.1702
149.3655, 861.6467
149.8477, 859.4324
150.3298, 858.1953
150.8119, 858.6648
151.2940, 862.8982
151.7761, 865.7874
152.2583, 865.6502
152.7404, 863.8315
153.2225, 864.1645
153.7046, 869.4755
154.1867, 875.1954
154.6688, 879.2405
155.1510, 881.0446
155.6331, 881.6578
156.1152, 880.5491
156.5973, 878.1618
157.0794, 876.2487
157.5615, 875.2833
158.0437, 874.8386
158.5258, 874.6461
159.0079, 874.5662
159.4900, 874.8210
159.9721, 875.2448
160.4542, 875.9454
160.9364, 877.5457
161.4185, 881.0876
161.9006, 885.2289
162.3827, 888.8896
162.8648, 892.1332
163.3469, 894.4929
163.8291, 895.2294
164.3112, 894.5151
164.7933, 894.1815
165.2754, 894.9075
165.7575, 896.5453
166.2396, 898.9398
166.7218, 902.3082
167.2039, 906.2097
167.6860, 910.5027
168.1681, 915.1404
168.6502, 919.9084
169.1323, 924.4548
169.6145, 929.0479
170.0966, 934.0283
170.5787, 940.7023
171.0608, 947.1240
171.5429, 951.4052
172.0250, 953.4777
172.5072, 954.7595
172.9893, 956.2704
173.4714, 957.8170
173.9535, 959.0381
174.4356, 960.1182
174.9177, 960.6339
175.3999, 959.7117
175.8820, 957.1617
176.3641, 954.6525
176.8462, 953.5702
177.3283, 953.6685
177.8104, 954.3299
178.2926, 955.3675
178.7747, 956.7279
179.2568, 958.4220
179.7389, 960.4680
180.2210, 962.5664
180.7031, 964.1641
181.1853, 965.4297
181.6674, 966.9587
182.1495, 969.5468
182.6316, 972.5922
183.1137, 974.4584
183.5958, 974.9265
184.0780, 974.8858
184.5601, 975.6393
185.0422, 977.0435
185.5243, 978.1467
186.0064, 978.4850
186.4885, 978.1411
186.9707, 977.3157
187.4528, 975.9841
187.9349, 974.3006
188.4170, 972.4078
188.8991, 970.3149
189.3812, 968.1832
189.8634, 966.1043
190.3455, 964.0524
190.8276, 961.8121
191.3097, 959.2787
191.7918, 956.6539
192.2739, 954.5406
192.7561, 952.9408
193.2382, 950.7347
193.7203, 947.2658
194.2024, 942.5867
194.6845, 937.0270
195.1666, 930.4057
195.6488, 923.2938
196.1309, 916.7958
196.6130, 910.8675
197.0951, 905.2929
197.5772, 900.1205
198.0593, 895.3665
198.5415, 889.8441
199.0236, 883.1472
199.5057, 876.0487
199.9878, 870.5964
200.4699, 867.0414
200.9520, 863.8731
201.4342, 860.3499
201.9163, 856.4430
202.3984, 852.3655
202.8805, 848.1770
203.3626, 843.7819
203.8447, 838.6185
204.3269, 832.2746
204.8090, 826.6185
205.2911, 823.1691
205.7732, 822.3620
206.2553, 820.5628
206.7374, 817.1423
207.2196, 812.8665
207.7017, 809.9446
208.1838, 808.7602
208.6659, 807.8741
209.1480, 806.5937
209.6301, 804.9254
210.1123, 802.7129
210.5944, 799.6780
211.0765, 796.2206
211.5586, 793.4738
212.0407, 791.5222
212.5228, 790.0854
213.0050, 789.0383
213.4871, 788.3906
213.9692, 788.1561
214.4513, 788.5694
214.9334, 789.3016
215.4155, 789.3193
215.8977, 788.3278
216.3798, 787.1717
216.8619, 786.2512
217.3440, 785.5234
217.8261, 785.1095
218.3082, 784.9141
218.7904, 785.0541
219.2725, 785.9936
219.7546, 788.0341
220.2367, 790.3157
220.7188, 792.3593
221.2009, 794.0215
221.6831, 795.9365
222.1652, 798.2707
222.6473, 800.8533
223.1294, 802.9990
223.6115, 804.2867
224.0936, 805.9021
224.5758, 808.5250
225.0579, 812.6194
225.5400, 816.5645
226.0221, 820.2066
226.5042, 823.7385
226.9863, 827.6067
227.4685, 832.1200
227.9506, 836.5621
228.4327, 840.6324
228.9148, 844.4099
229.3969, 847.7043
229.8790, 850.4769
230.3612, 852.7620
230.8433, 854.7813
231.3254, 857.2176
231.8075, 858.3503
232.2896, 857.2834
232.7717, 853.1478
233.2539, 848.9153
233.7360, 844.7806
234.2181, 840.5405
234.7002, 835.7169
235.1823, 830.3961
235.6644, 824.3777
236.1466, 817.4169
236.6287, 808.9534
237.1108, 801.0626
237.5929, 793.8465
238.0750, 787.2715
238.5571, 781.4299
239.0393, 776.8087
239.5214, 772.1633
240.0035, 766.9589
240.4856, 760.7075
240.9677, 755.2802
241.4498, 750.8510
241.9320, 747.1879
242.4141, 743.8125
242.8962, 740.7815
243.3783, 737.9774
243.8604, 735.3547
244.3425, 732.8857
244.8247, 730.7342
245.3068, 728.8724
245.7889, 727.3546
246.2710, 726.3254
246.7531, 726.2615
247.2352, 725.8376
247.7174, 724.3899
248.1995, 721.4834
248.6816, 719.8298
249.1637, 719.9423
249.6458, 720.9037
250.1279, 721.4578
250.6101, 721.5307
251.0922, 721.3132
251.5743, 720.7450
252.0564, 719.7269
252.5385, 719.1174
253.0206, 719.1481
253.5028, 719.3719
253.9849, 719.2577
254.4670, 718.7432
254.9491, 718.0107
255.4312, 716.9025
255.9133, 715.3623
256.3955, 714.7582
256.8776, 715.5256
257.3597, 716.7454
257.8418, 717.4397
258.3239, 717.4122
258.8061, 717.3145
259.2882, 717.2159
259.7703, 717.1185
260.2524, 717.2918
260.7345, 717.9336
261.2166, 718.5714
261.6988, 718.8223
262.1809, 718.7023
262.6630, 718.1381
263.1451, 717.0544
263.6272, 715.4882
264.1093, 713.7546
264.5915, 711.5951
265.0736, 709.7111
265.5557, 708.7606
266.0378, 709.0890
266.5199, 709.1606
267.0020, 708.5693
267.4842, 707.5586
267.9663, 707.5857
268.4484, 709.1472
268.9305, 710.5936
269.4126, 710.5757
269.8947, 708.6296
270.3769, 707.2898
270.8590, 707.0417
271.3411, 707.4290
271.8232, 706.8683
272.3053, 705.0398
272.7874, 703.2302
273.2696, 702.3408
273.7517, 702.5892
274.2338, 702.1735
274.7159, 700.5982
275.1980, 698.6759
275.6801, 698.6510
276.1623, 700.9815
276.6444, 703.1829
277.1265, 703.7552
277.6086, 702.5443
278.0907, 702.0851
278.5728, 702.6973
279.0550, 703.6752
279.5371, 703.5460
280.0192, 702.1254
280.5013, 701.1006
280.9834, 701.4129
281.4655, 703.0193
281.9477, 704.3837
282.4298, 705.5219
282.9119, 706.3172
283.3940, 706.3483
283.8761, 705.5806
284.3582, 705.1588
284.8404, 705.7198
285.3225, 707.0449
285.8046, 707.9584
286.2867, 708.4891
286.7688, 708.4116
287.2509, 707.1100
287.7331, 704.6904
288.2152, 702.6808
288.6973, 701.9404
289.1794, 701.8652
289.6615, 700.2304
290.1436, 696.9109
290.6258, 693.4971
291.1079, 691.6395
291.5900, 691.0591
292.0721, 690.1971
292.5542, 688.6223
293.0363, 686.6114
293.5185, 684.5067
294.0006, 682.3071
294.4827, 680.5964
294.9648, 680.1847
295.4469, 680.6313
295.9290, 680.5052
296.4112, 679.3464
296.8933, 677.8220
297.3754, 676.8474
297.8575, 676.3976
298.3396, 676.3337
298.8217, 676.7373
299.3039, 677.4372
299.7860, 678.1426
300.2681, 678.8669
300.7502, 679.4241
301.2323, 679.3661
301.7144, 678.8867
302.1966, 678.6636
302.6787, 679.3967
303.1608, 680.4649
303.6429, 680.7303
304.1250, 679.9255
304.6071, 679.6406
305.0893, 681.7000
305.5714, 685.3674
306.0535, 689.0124
306.5356, 692.1198
307.0177, 694.7844
307.4998, 697.0089
307.9820, 698.8154
308.4641, 700.3158
308.9462, 701.0658
309.4283, 701.7015
309.9104, 703.0861
310.3925, 706.2939
310.8747, 709.7579
311.3568, 712.0781
311.8389, 713.4630
312.3210, 715.4283
312.8031, 719.1917
313.2852, 723.7869
313.7674, 728.2542
314.2495, 731.5229
314.7316, 735.5911
315.2137, 742.4894
315.6958, 751.2186
316.1779, 758.4259
316.6601, 760.9618
317.1422, 762.6277
317.6243, 765.7891
318.1064, 770.9083
318.5885, 777.3874
319.0706, 786.8088
319.5528, 797.3398
320.0349, 805.4355
320.5170, 807.9469
320.9991, 809.5624
321.4812, 812.3114
321.9633, 816.7342
322.4455, 821.0349
322.9276, 825.5266
323.4097, 829.5273
323.8918, 832.1995
324.3739, 833.0888
324.8560, 832.9741
325.3382, 832.1039
325.8203, 830.5259
326.3024, 827.8110
326.7845, 823.4776
327.2666, 818.2491
327.7487, 812.6756
328.2309, 807.1642
328.7130, 800.9188
329.1951, 793.6507
329.6772, 785.4531
330.1593, 777.2133
330.6414, 768.9041
331.1236, 760.6700
331.6057, 752.4680
332.0878, 743.7562
332.5699, 736.0240
333.0520, 729.6922
333.5341, 724.3292
334.0163, 718.7853
334.4984, 712.8263
334.9805, 707.1517
335.4626, 701.9384
335.9447, 697.0638
336.4268, 693.2268
336.9090, 690.9113
337.3911, 689.1019
337.8732, 686.0246
338.3553, 681.2034
338.8374, 676.8195
339.3195, 673.5978
339.8017, 671.5306
340.2838, 669.4705
340.7659, 667.3391
341.2480, 665.4211
341.7301, 664.0714
342.2122, 663.3361
342.6944, 662.6003
343.1765, 661.7672
343.6586, 660.8097
344.1407, 659.7023
344.6228, 658.4569
345.1049, 656.9496
345.5871, 654.9045
346.0692, 652.4083
346.5513, 650.3219
347.0334, 648.8506
347.5155, 647.6066
347.9977, 645.8395
348.4798, 643.6213
348.9619, 641.6898
349.4440, 640.8963
349.9261, 640.6466
350.4082, 639.4291
350.8904, 637.0345
351.3725, 634.4755
351.8546, 632.5472
352.3367, 631.2562
352.8188, 630.5872
353.3009, 631.2557
353.7831, 632.1634
354.2652, 631.9694
354.7473, 630.7004
355.2294, 629.0147
355.7115, 626.8084
356.1936, 624.6494
356.6758, 623.3441
357.1579, 623.6517
357.6400, 624.1909
358.1221, 623.8815
358.6042, 622.9479
359.0863, 622.1850
359.5685, 622.0148
360.0506, 622.1571
360.5327, 622.4281
361.0148, 622.8276
361.4969, 623.2779
361.9790, 623.8004
362.4612, 624.3447
362.9433, 624.8326
363.4254, 625.5311
363.9075, 625.9082
364.3896, 625.5397
364.8717, 624.2496
365.3539, 623.3801
365.8360, 623.6019
366.3181, 624.1622
366.8002, 624.3737
367.2823, 623.3925
367.7644, 622.8936
368.2466, 623.3239
368.7287, 624.6024
369.2108, 625.6924
369.6929, 626.5198
370.1750, 627.2382
370.6571, 627.8918
371.1393, 628.2258
371.6214, 628.9893
372.1035, 630.4666
372.5856, 632.3018
373.0677, 633.5787
373.5498, 633.8651
374.0320, 634.4615
374.5141, 636.0215
374.9962, 638.7316
375.4783, 640.6376
375.9604, 641.4708
376.4425, 641.9113
376.9247, 642.7150
377.4068, 643.8917
377.8889, 645.3338
378.3710, 647.0499
378.8531, 648.9847
379.3352, 650.9617
379.8174, 652.9594
380.2995, 655.0253
380.7816, 657.2994
381.2637, 659.7394
381.7458, 661.6787
382.2279, 662.8331
382.7101, 663.9191
383.1922, 666.2767
383.6743, 669.7783
384.1564, 673.3696
384.6385, 676.5811
385.1206, 679.4990
385.6028, 682.3052
386.0849, 685.0062
386.5670, 687.6150
387.0491, 690.0678
387.5312, 692.4610
388.0133, 695.0045
388.4955, 697.7379
388.9776, 700.6818
389.4597, 704.0956
389.9418, 707.8448
390.4239, 711.1292
390.9060, 712.9141
391.3882, 714.3021
391.8703, 716.4026
392.3524, 719.9538
392.8345, 723.2028
393.3166, 724.9118
393.7987, 725.7496
394.2809, 727.0284
394.7630, 729.6013
395.2451, 732.3492
395.7272, 734.9377
396.2093, 737.3712
396.6914, 739.2809
397.1736, 740.1906
397.6557, 740.7269
398.1378, 741.4688
398.6199, 743.1805
399.1020, 744.2755
399.5841, 744.7108
400.0663, 744.4342
400.5484, 743.0350
401.0305, 739.6923
401.5126, 736.1176
401.9947, 733.2049
402.4768, 731.5961
402.9590, 729.2043
403.4411, 725.8464
403.9232, 721.8637
404.4053, 717.7659
404.8874, 713.4350
405.3695, 709.3662
405.8517, 705.7733
406.3338, 702.6467
406.8159, 699.1301
407.2980, 695.0221
407.7801, 691.2230
408.2622, 688.8218
408.7444, 687.7431
409.2265, 686.5966
409.7086, 685.0386
410.1907, 683.3569
410.6728, 682.0996
411.1549, 681.2404
411.6371, 680.6485
412.1192, 680.0062
412.6013, 679.5994
413.0834, 680.2432
413.5655, 682.0899
414.0476, 684.2365
414.5298, 685.7391
415.0119, 686.9062
415.4940, 688.3949
415.9761, 690.1750
416.4582, 692.5980
416.9403, 696.1675
417.4225, 700.7604
417.9046, 705.5740
418.3867, 710.1342
418.8688, 714.6523
419.3509, 719.1713
419.8330, 723.5964
420.3152, 728.3651
420.7973, 733.9366
421.2794, 739.9749
421.7615, 745.9042
422.2436, 751.2158
422.7257, 756.7235
423.2079, 762.9024
423.6900, 769.8633
424.1721, 776.5027
424.6542, 783.0737
425.1363, 789.1222
425.6184, 794.3983
426.1006, 798.4609
426.5827, 802.2950
427.0648, 806.2328
427.5469, 809.9809
428.0290, 812.3522
428.5111, 812.9641
428.9933, 812.9081
429.4754, 812.6692
429.9575, 812.3021
430.4396, 811.2761
430.9217, 809.6536
431.4038, 807.2333
431.8860, 803.3898
432.3681, 798.0536
432.8502, 793.4156
433.3323, 790.6083
433.8144, 788.5309
434.2965, 783.8668
434.7787, 776.6647
435.2608, 769.1065
435.7429, 762.5635
436.2250, 756.8605
436.7071, 751.6866
437.1892, 747.1233
437.6714, 742.5828
438.1535, 736.9631
438.6356, 730.9159
439.1177, 725.9313
439.5998, 723.3895
440.0819, 721.6747
440.5641, 719.4202
441.0462, 716.6677
441.5283, 714.1118
442.0104, 711.9236
442.4925, 710.2113
442.9746, 709.0944
443.4568, 708.5914
443.9389, 708.6431
444.4210, 709.4460
444.9031, 710.7653
445.3852, 712.1635
445.8673, 713.3815
446.3495, 714.8220
446.8316, 716.6725
447.3137, 719.0057
447.7958, 721.3373
448.2779, 723.5390
448.7600, 725.8397
449.2422, 728.3406
449.7243, 730.7744
450.2064, 734.0925
450.6885, 738.7391
451.1706, 744.2090
451.6527, 748.8727
452.1349, 752.4101
452.6170, 756.3687
453.0991, 761.4191
453.5812, 767.5946
454.0633, 774.1324
454.5454, 781.1738
455.0276, 788.1988
455.5097, 794.3392
455.9918, 799.8312
456.4739, 805.7370
456.9560, 812.4061
457.4381, 819.5735
457.9203, 826.9156
458.4024, 834.4059
458.8845, 842.1314
459.3666, 850.1225
459.8488, 858.3261
460.3309, 866.4394
460.8130, 874.3648
461.2951, 882.8269
461.7772, 892.5281
462.2593, 902.8395
462.7415, 912.8399
463.2236, 921.7051
463.7057, 930.7611
464.1878, 940.5029
464.6699, 950.7670
465.1520, 961.2441
465.6342, 970.9517
466.1163, 981.3467
466.5984, 993.3332
467.0805, 1007.583
467.5626, 1021.465
468.0447, 1034.001
468.5269, 1046.641
469.0090, 1060.961
469.4911, 1076.981
469.9732, 1094.634
470.4553, 1114.362
470.9374, 1135.683
471.4196, 1156.978
471.9017, 1177.888
472.3838, 1199.483
472.8659, 1222.427
473.3480, 1246.808
473.8301, 1271.574
474.3123, 1296.870
474.7944, 1322.363
475.2765, 1348.168
475.7586, 1374.008
476.2407, 1398.506
476.7228, 1421.395
477.2050, 1442.655
477.6871, 1462.432
478.1692, 1480.572
478.6513, 1495.819
479.1334, 1508.313
479.6155, 1517.065
480.0977, 1521.073
480.5798, 1520.240
481.0619, 1514.734
481.5440, 1503.879
482.0261, 1488.783
482.5082, 1470.624
482.9904, 1450.570
483.4725, 1426.662
483.9546, 1396.700
484.4367, 1361.742
484.9188, 1327.274
485.4009, 1293.580
485.8831, 1260.684
486.3652, 1228.095
486.8473, 1195.956
487.3294, 1164.629
487.8115, 1133.566
488.2936, 1103.806
488.7758, 1075.952
489.2579, 1049.821
489.7400, 1025.930
490.2221, 1004.714
490.7042, 985.5123
491.1863, 967.0907
491.6685, 949.3608
492.1506, 932.4145
492.6327, 916.5114
493.1148, 901.4362
493.5969, 887.2383
494.0790, 873.7245
494.5612, 861.2588
495.0433, 850.3573
495.5254, 840.6716
496.0075, 831.0417
496.4896, 820.7845
496.9717, 811.2090
497.4539, 804.3627
497.9360, 799.3734
498.4181, 794.2662
498.9002, 787.6418
499.3823, 780.8557
499.8644, 774.6064
500.3466, 768.8741
500.8287, 763.8398
501.3108, 759.6801
501.7929, 756.1369
502.2750, 753.0262
502.7571, 750.5145
503.2393, 748.1328
503.7214, 745.8923
504.2035, 743.7590
504.6856, 741.6484
505.1677, 739.6371
505.6498, 737.5217
506.1320, 735.2090
506.6141, 732.6959
507.0962, 730.2741
507.5783, 727.9720
508.0604, 725.7115
508.5425, 723.4385
509.0247, 721.1630
509.5068, 718.9789
509.9889, 716.9895
510.4710, 714.8439
510.9531, 711.8293
511.4352, 708.1805
511.9174, 704.7560
512.3995, 702.2849
512.8816, 699.9861
513.3637, 696.6305
513.8458, 692.4274
514.3279, 688.6702
514.8101, 686.6892
515.2922, 685.0982
515.7743, 682.5369
516.2564, 678.2696
516.7385, 674.8786
517.2206, 673.9016
517.7028, 674.0364
518.1849, 673.8136
518.6670, 672.4352
519.1491, 671.3598
519.6312, 670.9732
520.1133, 671.0990
520.5955, 670.9041
521.0776, 670.0525
521.5597, 669.4766
522.0418, 669.5399
522.5239, 670.2657
523.0060, 671.6802
523.4882, 673.9937
523.9703, 676.4680
524.4524, 678.2458
524.9345, 679.3790
525.4166, 680.6949
525.8987, 682.3665
526.3809, 684.2631
526.8630, 686.1326
527.3451, 688.0481
527.8272, 690.2784
528.3093, 693.3182
528.7914, 696.5389
529.2736, 699.2289
529.7557, 701.4129
530.2378, 703.4548
530.7199, 705.7594
531.2020, 707.9164
531.6841, 709.5635
532.1663, 710.5941
532.6484, 711.2405
533.1305, 711.4410
533.6126, 711.3502
534.0947, 711.1993
534.5768, 711.5172
535.0590, 711.1661
535.5411, 709.9316
536.0232, 707.8812
536.5053, 705.3679
536.9874, 702.2598
537.4695, 699.0925
537.9517, 696.2935
538.4338, 693.8873
538.9159, 690.7736
539.3980, 686.7949
539.8801, 682.7681
540.3622, 679.8082
540.8444, 677.7054
541.3265, 675.3818
541.8086, 672.5847
542.2907, 669.4303
542.7728, 665.6632
543.2549, 661.5739
543.7371, 658.1091
544.2192, 656.3265
544.7013, 654.9117
545.1834, 652.7196
545.6655, 649.7711
546.1476, 647.1510
546.6298, 645.4238
547.1119, 644.1102
547.5940, 642.9130
548.0761, 641.8129
548.5582, 640.8039
549.0403, 639.9979
549.5225, 639.2217
550.0046, 638.2518
550.4867, 636.8956
550.9688, 635.7225
551.4509, 634.7899
551.9330, 634.1107
552.4152, 633.8734
552.8973, 634.1676
553.3794, 634.3098
553.8615, 633.7599
554.3436, 632.6947
554.8257, 632.3387
555.3079, 632.7545
555.7900, 632.7842
556.2721, 630.8145
556.7542, 627.8380
557.2363, 625.7689
557.7184, 625.2471
558.2006, 625.0130
558.6827, 624.2465
559.1648, 623.0778
559.6469, 621.7060
560.1290, 619.9129
560.6111, 618.2415
561.0933, 617.0056
561.5754, 616.1375
562.0575, 615.1921
562.5396, 614.0734
563.0217, 612.8984
563.5038, 611.6472
563.9860, 610.2255
564.4681, 609.1897
564.9502, 608.7361
565.4323, 608.3610
565.9144, 607.5540
566.3965, 606.2747
566.8787, 604.8772
567.3608, 603.1768
567.8429, 601.8660
568.3250, 603.1943
568.8071, 606.4876
569.2892, 607.9297
569.7714, 604.2621
570.2535, 598.8226
570.7356, 596.3015
571.2177, 596.2761
571.6998, 596.4748
572.1819, 595.9853
572.6641, 594.8760
573.1462, 592.8923
573.6283, 589.6801
574.1104, 587.2990
574.5925, 587.0409
575.0746, 587.5079
575.5568, 587.4211
576.0389, 586.1194
576.5210, 585.0417
577.0031, 584.4203
577.4852, 583.9756
577.9673, 583.0428
578.4495, 581.3748
578.9316, 579.9875
579.4137, 579.1546
579.8958, 578.8626
580.3779, 579.4073
580.8600, 580.8517
581.3422, 581.5839
581.8243, 579.7567
582.3064, 576.5197
582.7885, 574.5826
583.2706, 574.1796
583.7527, 574.3404
584.2349, 574.5558
584.7170, 574.7465
585.1991, 574.8039
585.6812, 574.6243
586.1633, 574.4214
586.6454, 574.3835
587.1276, 574.3586
587.6097, 574.0793
588.0918, 573.6953
588.5739, 572.7919
589.0560, 570.8276
589.5381, 568.0863
590.0203, 566.7717
590.5024, 567.5389
590.9845, 568.4412
591.4666, 568.4714
591.9487, 567.6237
592.4308, 567.1824
592.9130, 567.2440
593.3951, 567.2576
593.8772, 566.3962
594.3593, 565.0179
594.8414, 564.3375
595.3235, 564.6594
595.8057, 565.4455
596.2878, 566.6627
596.7699, 567.8941
597.2520, 568.3495
597.7341, 566.5250
598.2162, 564.9999
598.6984, 565.6428
599.1805, 567.7673
599.6626, 568.8339
600.1447, 567.1984
600.6268, 565.4192
601.1089, 564.4518
601.5911, 564.3615
602.0732, 564.1893
602.5553, 563.8104
603.0374, 563.5543
603.5195, 563.7318
604.0016, 564.3898
604.4838, 564.8846
604.9659, 565.1631
605.4480, 565.3364
605.9301, 565.4564
606.4122, 565.5713
606.8943, 565.8491
607.3765, 566.2654
607.8586, 566.9837
608.3407, 568.7840
608.8228, 571.0573
609.3049, 572.2609
609.7870, 570.9153
610.2692, 569.0110
610.7513, 567.4792
611.2334, 566.3421
611.7155, 565.3858
612.1976, 564.5172
612.6797, 563.8651
613.1619, 563.5162
613.6440, 563.5438
614.1261, 563.5353
614.6082, 563.4688
615.0903, 563.4086
615.5724, 563.4962
616.0546, 563.7512
616.5367, 563.5602
617.0188, 562.6890
617.5009, 561.7924
617.9830, 562.0901
618.4651, 563.2217
618.9473, 563.9259
619.4294, 563.4843
619.9115, 562.7258
620.3936, 562.4368
620.8757, 562.4872
621.3578, 562.4877
621.8400, 562.3078
622.3221, 561.9950
622.8042, 561.3916
623.2863, 560.4870
623.7684, 560.1699
624.2505, 561.1005
624.7327, 562.0795
625.2148, 562.4707
625.6969, 562.0611
626.1790, 561.9773
626.6611, 562.3310
627.1432, 562.7851
627.6254, 562.9780
628.1075, 562.9243
628.5896, 562.8072
629.0717, 562.5884
629.5538, 562.5057
630.0359, 562.9250
630.5181, 563.7322
631.0002, 564.6749
631.4823, 566.2689
631.9644, 567.3421
632.4465, 565.8066
632.9286, 562.8658
633.4108, 562.3116
633.8929, 569.4557
634.3750, 575.4138
634.8571, 575.6624
635.3392, 569.7590
635.8214, 566.2327
636.3035, 565.8273
636.7856, 566.7037
637.2677, 568.4255
637.7498, 571.4174
638.2319, 571.3661
638.7141, 567.5395
639.1962, 563.5038
639.6783, 563.4876
640.1604, 566.4982
640.6425, 568.6962
641.1246, 569.3180
641.6068, 569.2399
642.0889, 568.9503
642.5710, 568.6645
643.0531, 568.7582
643.5352, 570.1097
644.0173, 571.0958
644.4995, 570.8024
644.9816, 569.6055
645.4637, 568.5899
645.9458, 567.7966
646.4279, 567.3738
646.9100, 567.4985
647.3922, 568.1110
647.8743, 568.3807
648.3564, 568.1534
648.8385, 568.0407
649.3206, 568.5370
649.8027, 569.5453
650.2849, 570.2824
650.7670, 570.7654
651.2491, 570.6127
651.7312, 568.9398
652.2133, 566.5696
652.6954, 564.7920
653.1776, 563.8854
653.6597, 563.4280
654.1418, 563.2786
654.6239, 563.3701
655.1060, 563.6222
655.5881, 564.2431
656.0703, 564.7482
656.5524, 565.0865
657.0345, 565.2613
657.5166, 565.2413
657.9987, 564.9359
658.4808, 564.6508
658.9630, 564.4033
659.4451, 564.2480
659.9272, 564.5499
660.4093, 565.3121
660.8914, 565.7216
661.3735, 564.9708
661.8557, 563.7164
662.3378, 563.1507
662.8199, 563.2350
663.3020, 563.5455
663.7841, 564.0848
664.2662, 564.5603
664.7484, 564.5878
665.2305, 563.9901
665.7126, 563.8858
666.1947, 565.0074
666.6768, 566.4083
667.1589, 567.4014
667.6411, 567.7419
668.1232, 568.2127
668.6053, 568.9252
669.0874, 569.5993
669.5695, 569.9000
670.0516, 569.8256
670.5338, 569.3842
671.0159, 568.4102
671.4980, 567.4470
671.9801, 567.3164
672.4622, 567.8651
672.9443, 568.6840
673.4265, 570.0505
673.9086, 571.2057
674.3907, 571.4508
674.8728, 571.0565
675.3549, 570.8414
675.8370, 571.1476
676.3192, 571.5829
676.8013, 571.7385
677.2834, 571.7112
677.7655, 573.1396
678.2476, 577.0432
678.7297, 580.2701
679.2119, 580.9347
679.6940, 579.1822
680.1761, 577.6735
680.6582, 576.4040
681.1403, 575.4906
681.6224, 574.9362
682.1046, 574.8242
682.5867, 575.5463
683.0688, 577.2723
683.5509, 578.7737
684.0330, 578.8405
684.5151, 578.4477
684.9973, 578.6216
685.4794, 580.0568
685.9615, 581.2610
686.4436, 581.9720
686.9257, 582.3561
687.4078, 582.5753
687.8900, 582.5858
688.3721, 582.5024
688.8542, 582.1640
689.3363, 581.9680
689.8184, 583.1299
690.3005, 585.4953
690.7827, 587.1169
691.2648, 586.7161
691.7469, 585.7075
692.2290, 586.5403
692.7111, 588.5801
693.1932, 589.7485
693.6754, 588.2257
694.1575, 586.2078
694.6396, 584.6414
695.1217, 583.6002
695.6038, 583.2939
696.0859, 583.9291
696.5681, 585.1745
697.0502, 587.3506
697.5323, 590.5699
698.0144, 591.6581
698.4965, 590.2506
698.9786, 588.0359
699.4608, 585.8945
699.9429, 583.9461
700.4250, 582.9777
700.9071, 583.0829
701.3892, 583.2017
701.8713, 582.1436
702.3535, 580.6744
702.8356, 579.8086
703.3177, 579.9483
703.7998, 580.0483
704.2819, 579.5728
704.7640, 578.9119
705.2462, 578.4984
705.7283, 578.6912
706.2104, 578.5497
706.6925, 577.9570
707.1746, 577.0827
707.6567, 576.0585
708.1389, 574.8525
708.6210, 574.1322
709.1031, 574.1608
709.5852, 574.5343
710.0673, 574.7782
710.5494, 574.8316
711.0316, 574.5124
711.5137, 573.4227
711.9958, 572.2254
712.4779, 571.2892
712.9600, 570.5859
713.4421, 570.0408
713.9243, 569.7877
714.4064, 569.5182
714.8885, 569.1053
715.3706, 568.5771
715.8527, 568.2082
716.3348, 568.0488
716.8170, 567.8910
717.2991, 567.5820
717.7812, 567.1827
718.2633, 567.1381
718.7454, 567.4318
719.2275, 567.5544
719.7097, 566.9722
720.1918, 566.1114
720.6739, 565.4746
721.1560, 565.1108
721.6381, 564.7850
722.1202, 564.5061
722.6024, 564.1493
723.0845, 563.5494
723.5666, 562.4464
724.0487, 561.9535
724.5308, 562.3793
725.0129, 563.0075
725.4951, 563.1942
725.9772, 562.9057
726.4593, 562.8942
726.9414, 563.2756
727.4235, 563.6369
727.9056, 563.4173
728.3878, 562.8276
728.8699, 562.3354
729.3520, 562.0742
729.8341, 561.8213
730.3162, 561.1836
730.7983, 560.5569
731.2805, 560.4311
731.7626, 561.5482
732.2447, 562.3517
732.7268, 562.4759
733.2089, 562.3363
733.6910, 562.6842
734.1732, 563.6923
734.6553, 564.3896
735.1374, 564.4484
735.6195, 564.2798
736.1016, 564.9362
736.5837, 566.1487
737.0659, 566.7292
737.5480, 565.6808
738.0301, 564.3085
738.5122, 563.9382
738.9943, 564.1823
739.4764, 564.0570
739.9586, 562.1828
740.4407, 560.9779
740.9228, 561.7825
741.4049, 564.0403
741.8870, 565.3161
742.3691, 565.2828
742.8513, 565.0829
743.3334, 565.1290
743.8155, 565.3547
744.2976, 565.4665
744.7797, 565.4745
745.2618, 565.4804
745.7440, 565.5214
746.2261, 565.6146
746.7082, 565.8378
747.1903, 566.1658
747.6724, 566.3838
748.1545, 565.9086
748.6367, 565.7133
749.1188, 566.7316
749.6009, 569.2510
750.0830, 569.9354
750.5651, 567.7840
751.0472, 565.6323
751.5294, 565.3049
752.0115, 566.7341
752.4936, 567.8847
752.9757, 568.7576
753.4578, 569.4325
753.9399, 569.9785
754.4221, 570.3631
754.9042, 570.3964
755.3863, 570.0220
755.8684, 569.9198
756.3505, 570.4732
756.8326, 571.4255
757.3148, 572.6472
757.7969, 574.3666
758.2790, 575.7113
758.7611, 576.6721
759.2432, 577.2898
759.7253, 577.3845
760.2075, 576.9278
760.6896, 577.1972
761.1717, 578.3428
761.6538, 579.9373
762.1359, 582.0287
762.6180, 584.1304
763.1002, 585.1757
763.5823, 584.6275
764.0644, 584.1266
764.5465, 584.4967
765.0286, 585.4164
765.5107, 586.5441
765.9929, 588.3515
766.4750, 589.5690
766.9571, 589.9471
767.4392, 590.0096
767.9213, 590.3672
768.4034, 591.0233
768.8856, 591.9386
769.3677, 593.1012
769.8498, 594.4972
770.3319, 596.3351
770.8140, 598.3679
771.2961, 600.0555
771.7783, 600.9677
772.2604, 601.9747
772.7425, 603.9034
773.2246, 606.0958
773.7067, 607.5687
774.1888, 607.7419
774.6710, 607.8568
775.1531, 607.8542
775.6352, 607.9909
776.1173, 608.8340
776.5994, 610.4025
777.0815, 611.9882
777.5637, 613.5189
778.0458, 614.8038
778.5279, 615.5161
779.0100, 615.7698
779.4921, 615.8212
779.9742, 615.7052
780.4564, 615.4799
780.9385, 615.1195
781.4206, 614.6677
781.9027, 614.1866
782.3848, 613.2514
782.8669, 613.0905
783.3491, 614.3138
783.8312, 616.1346
784.3133, 616.4869
784.7954, 615.4095
785.2775, 614.3229
785.7596, 613.5862
786.2418, 613.2838
786.7239, 613.8300
787.2060, 614.9105
787.6881, 615.7698
788.1702, 615.9617
788.6523, 615.9713
789.1345, 615.9283
789.6166, 615.8419
790.0987, 615.7005
790.5808, 615.2877
791.0629, 615.2789
791.5450, 615.9728
792.0272, 617.0643
792.5093, 617.6414
792.9914, 617.7474
793.4735, 617.7889
793.9556, 617.7083
794.4377, 617.8912
794.9199, 619.1319
795.4020, 621.0334
795.8841, 622.4903
796.3662, 622.7997
796.8483, 622.9085
797.3304, 622.9540
797.8126, 623.0436
798.2947, 623.4988
798.7768, 624.3835
799.2589, 625.5068
799.7410, 626.9811
800.2231, 628.5167
800.7053, 629.0858
801.1874, 628.9008
801.6695, 629.1705
802.1516, 630.5428
802.6337, 632.5728
803.1158, 635.5506
803.5980, 638.8823
804.0801, 641.0593
804.5622, 640.0022
805.0443, 639.5406
805.5264, 640.5957
806.0085, 642.9386
806.4907, 646.0385
806.9728, 650.0933
807.4549, 653.9296
807.9370, 657.2549
808.4191, 660.0635
808.9012, 661.8575
809.3834, 663.0232
809.8655, 664.9460
810.3476, 668.9081
810.8297, 673.2870
811.3118, 677.1025
811.7939, 680.5278
812.2761, 684.0405
812.7582, 687.5532
813.2403, 691.3906
813.7224, 695.5859
814.2045, 700.1683
814.6866, 705.4187
815.1688, 711.2628
815.6509, 716.9106
816.1330, 721.7209
816.6151, 726.5938
817.0972, 732.9036
817.5793, 740.3184
818.0615, 748.1680
818.5436, 756.7034
819.0257, 764.9324
819.5078, 772.1083
819.9899, 778.6353
820.4720, 785.6345
820.9542, 793.3784
821.4363, 800.6893
821.9184, 807.0886
822.4005, 813.1764
822.8826, 820.4207
823.3647, 828.7256
823.8469, 837.2127
824.3290, 846.1215
824.8111, 854.4208
825.2932, 860.8566
825.7753, 866.1876
826.2574, 871.7131
826.7396, 878.8414
827.2217, 885.0474
827.7038, 890.0219
828.1859, 893.8761
828.6681, 896.7181
829.1502, 898.3701
829.6323, 900.1998
830.1144, 902.7219
830.5966, 905.0625
831.0787, 906.1562
831.5608, 906.0383
832.0429, 904.7570
832.5250, 901.8263
833.0071, 898.5645
833.4893, 895.9413
833.9714, 893.2971
834.4535, 889.4181
834.9356, 883.3274
835.4177, 877.8712
835.8998, 873.3484
836.3820, 869.5227
836.8641, 866.1324
837.3462, 863.1458
837.8283, 860.2007
838.3104, 857.3024
838.7925, 854.2463
839.2747, 850.4100
839.7568, 846.4191
840.2389, 843.0444
840.7210, 840.0443
841.2031, 838.5028
841.6852, 839.7534
842.1674, 841.7670
842.6495, 842.5459
843.1316, 841.7493
843.6137, 841.7477
844.0958, 842.7537
844.5779, 844.4462
845.0601, 846.4696
845.5422, 848.8974
846.0243, 851.8998
846.5064, 855.5104
846.9885, 859.7422
847.4706, 864.3199
847.9528, 869.7291
848.4349, 876.5469
848.9170, 885.3664
849.3991, 893.8176
849.8812, 901.6033
850.3633, 909.6617
850.8455, 918.6273
851.3276, 928.5523
851.8097, 939.6469
852.2918, 952.0297
852.7739, 964.8116
853.2560, 976.9617
853.7382, 989.5442
854.2203, 1003.947
854.7024, 1020.466
855.1845, 1037.077
855.6666, 1052.089
856.1487, 1068.349
856.6309, 1087.654
857.1130, 1109.656
857.5951, 1130.934
858.0772, 1151.442
858.5593, 1172.797
859.0414, 1196.589
859.5236, 1222.012
860.0057, 1247.585
860.4878, 1273.336
860.9699, 1299.663
861.4520, 1326.494
861.9341, 1354.431
862.4163, 1384.503
862.8984, 1416.480
863.3805, 1447.918
863.8626, 1479.292
864.3447, 1509.825
864.8268, 1539.618
865.3090, 1568.512
865.7911, 1595.253
866.2732, 1620.170
866.7553, 1643.562
867.2374, 1666.917
867.7195, 1687.933
868.2017, 1705.863
868.6838, 1720.374
869.1659, 1729.475
869.6480, 1732.447
870.1301, 1731.855
870.6122, 1728.407
871.0944, 1721.368
871.5765, 1708.901
872.0586, 1691.256
872.5407, 1670.066
873.0228, 1645.558
873.5049, 1618.479
873.9871, 1589.300
874.4692, 1557.865
874.9513, 1523.757
875.4334, 1484.495
875.9155, 1445.709
876.3976, 1407.596
876.8798, 1370.297
877.3619, 1333.224
877.8440, 1296.421
878.3261, 1261.792
878.8082, 1229.536
879.2903, 1198.871
879.7725, 1168.156
880.2546, 1138.315
880.7367, 1110.777
881.2188, 1085.951
881.7009, 1062.581
882.1830, 1040.151
882.6652, 1019.083
883.1473, 999.9149
883.6294, 982.7505
884.1115, 966.2328
884.5936, 950.2695
885.0757, 935.2396
885.5579, 921.1723
886.0400, 908.1651
886.5221, 896.7699
887.0042, 886.9720
887.4863, 877.1099
887.9684, 865.1744
888.4506, 853.9772
888.9327, 845.4744
889.4148, 839.4749
889.8969, 832.5905
890.3790, 824.2361
890.8611, 816.9343
891.3433, 812.0541
891.8254, 808.6638
892.3075, 804.0273
892.7896, 798.4734
893.2717, 793.5746
893.7538, 790.8270
894.2360, 788.1643
894.7181, 784.0450
895.2002, 779.1362
895.6823, 775.3204
896.1644, 773.2006
896.6465, 771.1649
897.1287, 769.0349
897.6108, 766.7993
898.0929, 764.5108
898.5750, 762.1494
899.0571, 759.4940
899.5392, 756.2257
900.0214, 753.3824
900.5035, 752.3373
900.9856, 751.9090
901.4677, 750.6700
901.9498, 747.7174
902.4319, 745.1102
902.9141, 742.9561
903.3962, 740.9957
903.8783, 738.8063
904.3604, 736.4818
904.8425, 735.0497
905.3246, 734.5915
905.8068, 734.2117
906.2889, 733.1389
906.7710, 731.8039
907.2531, 730.5881
907.7352, 729.5468
908.2173, 728.4415
908.6995, 727.2375
909.1816, 725.9705
909.6637, 724.7338
910.1458, 723.4731
910.6279, 721.7164
911.1100, 719.4957
911.5922, 717.4274
912.0743, 716.1248
912.5564, 714.9196
913.0385, 712.9270
913.5206, 710.4523
914.0027, 708.3720
914.4849, 707.6597
914.9670, 706.4149
915.4491, 704.0887
915.9312, 701.1897
916.4133, 698.6903
916.8954, 696.5806
917.3776, 694.8685
917.8597, 693.5719
918.3418, 692.5674
918.8239, 692.2516
919.3060, 691.9381
919.7881, 690.4935
920.2703, 686.3737
920.7524, 683.8340
921.2345, 684.8719
921.7166, 686.1905
922.1987, 684.7382
922.6808, 680.3679
923.1630, 677.4035
923.6451, 676.0672
924.1272, 675.1360
924.6093, 673.6415
925.0914, 671.9169
925.5735, 670.3648
926.0557, 669.0226
926.5378, 667.5615
927.0199, 665.4505
927.5020, 663.7086
927.9841, 662.8023
928.4662, 662.5705
928.9484, 662.0964
929.4305, 661.3801
929.9126, 660.2903
930.3947, 658.4336
930.8768, 656.5430
931.3589, 655.5797
931.8411, 655.2574
932.3232, 654.9656
932.8053, 654.7999
933.2874, 654.2462
933.7695, 652.9453
934.2516, 651.5018
934.7338, 650.9381
935.2159, 651.2469
935.6980, 651.4898
936.1801, 651.5738
936.6622, 651.2680
937.1443, 649.9074
937.6265, 648.2301
938.1086, 647.1622
938.5907, 646.9545
939.0728, 646.9344
939.5549, 647.3790
940.0370, 647.4689
940.5192, 646.4684
941.0013, 644.4729
941.4834, 643.6174
941.9655, 643.8734
942.4476, 644.2262
942.9297, 644.2392
943.4119, 643.8397
943.8940, 642.6906
944.3761, 640.9966
944.8582, 639.6620
945.3403, 639.1735
945.8224, 638.6882
946.3046, 638.0218
946.7867, 637.2902
947.2688, 636.7754
947.7509, 636.4615
948.2330, 636.2253
948.7151, 636.0666
949.1973, 635.8974
949.6794, 635.8959
950.1615, 635.7283
950.6436, 634.9093
951.1257, 632.5242
951.6078, 631.2701
952.0900, 631.6702
952.5721, 632.3938
953.0542, 632.2000
953.5363, 631.2911
954.0184, 631.0817
954.5005, 631.5891
954.9827, 631.8275
955.4648, 630.4082
955.9469, 629.0316
956.4290, 629.2039
956.9111, 630.8456
957.3932, 631.7857
957.8754, 631.7812
958.3575, 631.3875
958.8396, 630.5974
959.3217, 629.7003
959.8038, 629.6339
960.2859, 630.1135
960.7681, 630.1134
961.2502, 628.9346
961.7323, 627.7133
962.2144, 626.9108
962.6965, 626.5355
963.1786, 626.6877
963.6608, 627.8038
964.1429, 628.0572
964.6250, 627.1188
965.1071, 626.2343
965.5892, 627.2142
966.0714, 629.0316
966.5535, 629.2228
967.0356, 627.6391
967.5177, 626.2538
967.9998, 626.4659
968.4819, 626.7741
968.9641, 626.1221
969.4462, 624.7426
969.9283, 624.5117
970.4104, 625.5781
970.8925, 626.6628
971.3746, 627.4248
971.8568, 627.7135
972.3389, 626.8581
972.8210, 625.4109
973.3031, 624.5499
973.7852, 625.3195
974.2673, 625.8425
974.7495, 625.5067
975.2316, 624.9862
975.7137, 625.0319
976.1958, 625.6722
976.6779, 626.1917
977.1600, 626.5375
977.6422, 626.8397
978.1243, 627.4168
978.6064, 627.8988
979.0885, 627.6396
979.5706, 626.5850
980.0527, 626.3486
980.5349, 627.8029
981.0170, 629.1682
981.4991, 629.7986
981.9812, 629.9006
982.4633, 630.2250
982.9454, 630.7057
983.4276, 630.9387
983.9097, 630.5449
984.3918, 630.1473
984.8739, 630.0667
985.3560, 630.3078
985.8381, 630.9512
986.3203, 632.4678
986.8024, 633.1847
987.2845, 632.7294
987.7666, 632.2786
988.2487, 633.3533
988.7308, 635.3406
989.2130, 636.7328
989.6951, 637.3962
990.1772, 637.6200
990.6593, 636.9321
991.1414, 636.4352
991.6235, 636.9045
992.1057, 638.1241
992.5878, 639.0198
993.0699, 639.6104
993.5520, 639.6195
994.0341, 638.7606
994.5162, 637.5772
994.9984, 636.6773
995.4805, 636.0707
995.9626, 635.7946
996.4447, 636.2816
996.9268, 636.3974
997.4089, 635.7811
997.8911, 634.9856
998.3732, 634.5244
998.8553, 634.3956
999.3374, 634.1547
999.8195, 633.7889
1000.302, 633.4455
1000.784, 633.3414
1001.266, 633.2156
1001.748, 632.8074
1002.230, 632.1273
1002.712, 631.4747
1003.194, 630.8429
1003.676, 630.2664
1004.159, 629.7451
1004.641, 629.2652
1005.123, 628.8507
1005.605, 628.4498
1006.087, 627.9025
1006.569, 627.1238
1007.051, 626.2905
1007.533, 625.1638
1008.016, 624.2720
1008.498, 624.2247
1008.980, 625.3751
1009.462, 625.3156
1009.944, 623.9349
1010.426, 622.1913
1010.908, 620.4474
1011.390, 618.9986
1011.872, 618.3773
1012.355, 618.4430
1012.837, 618.5370
1013.319, 618.6961
1013.801, 618.4643
1014.283, 617.4886
1014.765, 616.3123
1015.247, 616.0601
1015.729, 616.5988
1016.211, 616.9498
1016.694, 616.9050
1017.176, 616.7313
1017.658, 616.7755
1018.140, 616.7168
1018.622, 616.1583
1019.104, 614.9511
1019.586, 614.2164
1020.068, 614.0956
1020.551, 614.0136
1021.033, 613.6358
1021.515, 613.1060
1021.997, 612.6130
1022.479, 612.2313
1022.961, 612.1915
1023.443, 613.0073
1023.925, 613.6610
1024.407, 613.9744
1024.890, 613.8936
1025.372, 613.0665
1025.854, 611.4490
1026.336, 610.9250
1026.818, 611.7654
1027.300, 612.6100
1027.782, 611.9123
1028.264, 610.8781
1028.746, 610.9275
1029.229, 612.1529
1029.711, 612.3071
1030.193, 610.6821
1030.675, 609.2551
1031.157, 608.6657
1031.639, 608.6930
1032.121, 609.1125
1032.603, 609.7286
1033.086, 609.8946
1033.568, 609.2547
1034.050, 608.4892
1034.532, 607.7986
1035.014, 607.2116
1035.496, 606.6799
1035.978, 606.1325
1036.460, 606.4441
1036.943, 607.6887
1037.425, 608.6063
1037.907, 607.7465
1038.389, 606.4689
1038.871, 606.1198
1039.353, 606.6366
1039.835, 607.6840
1040.317, 610.2822
1040.799, 611.4547
1041.281, 610.3853
1041.764, 608.2806
1042.246, 606.6328
1042.728, 605.5556
1043.210, 605.8017
1043.692, 607.7177
1044.174, 609.1143
1044.656, 607.5445
1045.138, 606.1732
1045.621, 607.6385
1046.103, 611.5917
1046.585, 612.6168
1047.067, 610.4847
1047.549, 608.5601
1048.031, 608.6277
1048.513, 609.2943
1048.995, 609.1338
1049.478, 608.3571
1049.960, 607.3227
1050.442, 605.7570
1050.924, 604.4553
1051.406, 603.2968
1051.888, 602.6277
1052.370, 603.1306
1052.852, 604.3543
1053.334, 604.6479
1053.817, 604.0334
1054.299, 603.3961
1054.781, 602.9650
1055.263, 602.9136
1055.745, 603.6744
1056.227, 604.7592
1056.709, 604.9155
1057.191, 604.0793
1057.673, 603.4411
1058.156, 603.1857
1058.638, 603.4375
1059.120, 605.2125
1059.602, 607.0284
1060.084, 606.9249
1060.566, 604.1053
1061.048, 602.7668
1061.530, 603.6751
1062.013, 604.5330
1062.495, 604.0681
1062.977, 602.9514
1063.459, 602.9791
1063.941, 603.7629
1064.423, 604.1812
1064.905, 603.5364
1065.387, 602.8174
1065.870, 601.9300
1066.352, 601.4281
1066.834, 602.1356
1067.316, 604.0643
1067.798, 604.8552
1068.280, 604.4288
1068.762, 603.6436
1069.244, 602.8000
1069.726, 602.1306
1070.208, 601.7723
1070.691, 601.7662
1071.173, 602.2939
1071.655, 603.7041
1072.137, 604.4484
1072.619, 604.0969
1073.101, 603.4299
1073.583, 603.4033
1074.065, 603.8113
1074.548, 604.4761
1075.030, 605.4467
1075.512, 605.8690
1075.994, 605.0169
1076.476, 604.2267
1076.958, 604.1201
1077.440, 604.4513
1077.922, 604.3226
1078.405, 603.7936
1078.887, 603.1292
1079.369, 602.3265
1079.851, 601.6014
1080.333, 601.1591
1080.815, 600.8077
1081.297, 600.2922
1081.779, 599.5015
1082.261, 599.1760
1082.744, 599.3242
1083.226, 599.7903
1083.708, 600.8170
1084.190, 601.8187
1084.672, 602.1631
1085.154, 601.9531
1085.636, 601.5588
1086.118, 600.8998
1086.601, 600.3416
1087.083, 599.9037
1087.565, 599.6317
1088.047, 599.6014
1088.529, 599.7736
1089.011, 600.2941
1089.493, 601.1669
1089.975, 601.3060
1090.458, 599.1035
1090.940, 597.4467
1091.422, 597.6672
1091.904, 599.0229
1092.386, 599.1447
1092.868, 598.2347
1093.350, 597.5334
1093.832, 597.3474
1094.314, 597.6113
1094.797, 598.8802
1095.279, 600.1569
1095.761, 600.4269
1096.243, 599.6193
1096.725, 599.0418
1097.207, 598.7172
1097.689, 598.4186
1098.171, 597.8705
1098.653, 597.4412
1099.136, 597.5197
1099.618, 598.0324
1100.100, 598.8705
1100.582, 600.6966
1101.064, 601.4264
1101.546, 600.6619
1102.028, 599.6545
1102.510, 599.5869
1102.993, 600.1047
1103.475, 600.4482
1103.957, 600.6281
1104.439, 600.9344
1104.921, 601.9319
1105.403, 602.4761
1105.885, 602.2240
1106.367, 601.4764
1106.849, 600.5750
1107.332, 599.6138
1107.814, 599.0916
1108.296, 599.0941
1108.778, 599.3762
1109.260, 599.7651
1109.742, 600.4102
1110.224, 601.6762
1110.706, 603.3082
1111.188, 604.0193
1111.671, 603.7963
1112.153, 603.1859
1112.635, 602.2162
1113.117, 601.2734
1113.599, 600.6045
1114.081, 600.2432
1114.563, 600.1879
1115.045, 600.3154
1115.528, 601.6503
1116.010, 604.6610
1116.492, 606.9299
1116.974, 606.8279
1117.456, 605.4131
1117.938, 603.9012
1118.420, 602.4796
1118.902, 601.5436
1119.385, 601.7572
1119.867, 601.6180
1120.349, 600.8417
1120.831, 600.1331
1121.313, 600.3129
1121.795, 601.0421
1122.277, 601.2436
1122.759, 600.9923
1123.241, 600.9395
1123.724, 601.5010
1124.206, 602.1689
1124.688, 602.8737
1125.170, 603.5125
1125.652, 603.8090
1126.134, 603.8431
1126.616, 604.3167
1127.098, 605.3295
1127.580, 606.0941
1128.063, 605.7656
1128.545, 605.3207
1129.027, 605.2914
1129.509, 605.6580
1129.991, 606.6201
1130.473, 608.2133
1130.955, 608.9874
1131.437, 608.4844
1131.920, 607.4429
1132.402, 606.1608
1132.884, 604.9542
1133.366, 604.1461
1133.848, 603.7803
1134.330, 603.5071
1134.812, 603.2971
1135.294, 603.3460
1135.776, 603.8613
1136.259, 604.4658
1136.741, 604.5507
1137.223, 604.4130
1137.705, 604.5558
1138.187, 605.4019
1138.669, 605.7565
1139.151, 605.5347
1139.633, 604.9952
1140.115, 604.0370
1140.598, 603.0248
1141.080, 602.8201
1141.562, 603.2097
1142.044, 603.5916
1142.526, 603.6666
1143.008, 603.8942
1143.490, 604.5400
1143.972, 605.0193
1144.455, 604.4711
1144.937, 603.3093
1145.419, 603.0090
1145.901, 603.5194
1146.383, 603.9645
1146.865, 603.9911
1147.347, 603.7516
1147.829, 603.0978
1148.312, 602.4188
1148.794, 602.3209
1149.276, 602.7549
1149.758, 603.5769
1150.240, 604.7767
1150.722, 605.5631
1151.204, 604.9786
1151.686, 604.2881
1152.168, 604.2527
1152.651, 604.6306
1153.133, 604.7092
1153.615, 604.5004
1154.097, 604.2596
1154.579, 603.9730
1155.061, 604.0533
1155.543, 605.5308
1156.025, 606.9749
1156.507, 606.8488
1156.990, 605.3691
1157.472, 604.6942
1157.954, 604.8563
1158.436, 605.4457
1158.918, 606.5375
1159.400, 607.4867
1159.882, 607.5356
1160.364, 607.1406
1160.847, 606.8093
1161.329, 606.6055
1161.811, 606.3293
1162.293, 605.9368
1162.775, 605.7504
1163.257, 605.9526
1163.739, 606.4224
1164.221, 607.3113
1164.703, 608.2587
1165.186, 608.6105
1165.668, 607.7436
1166.150, 607.5565
1166.632, 608.2970
1167.114, 608.7953
1167.596, 607.5711
1168.078, 605.9529
1168.560, 606.4370
1169.042, 608.3230
1169.525, 609.7297
1170.007, 610.1558
1170.489, 609.9780
1170.971, 608.9969
1171.453, 607.9675
1171.935, 607.5701
1172.417, 607.6523
1172.899, 607.9416
1173.382, 608.4306
1173.864, 609.1295
1174.346, 610.7123
1174.828, 611.4695
1175.310, 610.9383
1175.792, 609.9402
1176.274, 609.3829
1176.756, 609.2119
1177.239, 609.3195
1177.721, 609.6813
1178.203, 610.1640
1178.685, 611.1890
1179.167, 611.6066
1179.649, 610.8347
1180.131, 609.7285
1180.613, 609.8474
1181.095, 610.8958
1181.578, 612.1500
1182.060, 613.5312
1182.542, 614.6046
1183.024, 615.2459
1183.506, 615.4206
1183.988, 615.0160
1184.470, 614.2548
1184.952, 613.5625
1185.434, 612.9985
1185.917, 612.8068
1186.399, 613.1141
1186.881, 613.4398
1187.363, 613.2819
1187.845, 613.4283
1188.327, 614.4925
1188.809, 616.0441
1189.291, 616.1516
1189.774, 615.1909
1190.256, 615.0633
1190.738, 616.7975
1191.220, 618.1962
1191.702, 617.9898
1192.184, 617.2324
1192.666, 616.3746
1193.148, 615.5442
1193.630, 615.9541
1194.113, 617.3320
1194.595, 618.0252
1195.077, 616.8162
1195.559, 615.7831
1196.041, 616.1578
1196.523, 616.9904
1197.005, 617.5560
1197.487, 617.8802
1197.969, 618.5502
1198.452, 619.4580
1198.934, 619.7991
1199.416, 618.5911
1199.898, 617.4368
1200.380, 617.2108
1200.862, 617.3353
1201.344, 617.1209
1201.826, 616.5690
1202.309, 617.2653
1202.791, 619.0746
1203.273, 620.3215
1203.755, 619.3157
1204.237, 618.3224
1204.719, 618.6642
1205.201, 619.5466
1205.683, 620.0714
1206.166, 620.2338
1206.648, 620.3453
1207.130, 620.4139
1207.612, 620.4156
1208.094, 620.2446
1208.576, 620.0969
1209.058, 620.1476
1209.540, 620.2491
1210.022, 620.0782
1210.505, 619.6619
1210.987, 620.0149
1211.469, 621.1883
1211.951, 622.0815
1212.433, 621.6756
1212.915, 621.1034
1213.397, 621.1335
1213.879, 621.3495
1214.361, 620.7845
1214.844, 619.5502
1215.326, 619.6100
1215.808, 621.1970
1216.290, 622.6490
1216.772, 622.7159
1217.254, 622.4478
1217.736, 622.3837
1218.218, 622.3993
1218.701, 621.9412
1219.183, 621.1345
1219.665, 621.8222
1220.147, 624.3712
1220.629, 626.2940
1221.111, 625.3688
1221.593, 623.9760
1222.075, 623.1842
1222.557, 622.9779
1223.040, 623.5994
1223.522, 624.8881
1224.004, 625.5447
1224.486, 625.3141
1224.968, 624.7528
1225.450, 623.8353
1225.932, 623.0823
1226.414, 622.7049
1226.896, 622.6973
1227.379, 623.1132
1227.861, 623.8997
1228.343, 624.9114
1228.825, 626.2328
1229.307, 626.9831
1229.789, 626.0419
1230.271, 625.0703
1230.753, 624.9391
1231.236, 625.3754
1231.718, 625.3503
1232.200, 625.0687
1232.682, 625.5436
1233.164, 627.2688
1233.646, 628.5664
1234.128, 628.2383
1234.610, 627.6637
1235.093, 627.3150
1235.575, 627.3091
1236.057, 628.5354
1236.539, 630.4499
1237.021, 631.0693
1237.503, 629.4564
1237.985, 627.9989
1238.467, 627.6544
1238.949, 627.5881
1239.432, 627.4321
1239.914, 627.2991
1240.396, 627.7412
1240.878, 628.4807
1241.360, 628.6672
1241.842, 627.7834
1242.324, 627.2001
1242.806, 626.9531
1243.288, 627.5608
1243.771, 629.9387
1244.253, 632.8107
1244.735, 632.5060
1245.217, 630.1628
1245.699, 628.4494
1246.181, 628.1805
1246.663, 628.4433
1247.145, 629.2106
1247.628, 630.2185
1248.110, 631.6111
1248.592, 632.8701
1249.074, 632.5258
1249.556, 631.2875
1250.038, 630.5411
1250.520, 630.8620
1251.002, 631.1664
1251.484, 631.4080
1251.967, 631.6078
1252.449, 631.7551
1252.931, 631.8839
1253.413, 632.1625
1253.895, 632.4256
1254.377, 632.2994
1254.859, 631.2666
1255.341, 631.2814
1255.823, 632.5978
1256.306, 633.7435
1256.788, 633.8221
1257.270, 633.3054
1257.752, 632.0623
1258.234, 630.8937
1258.716, 631.3124
1259.198, 633.9681
1259.680, 635.8913
1260.163, 637.1116
1260.645, 637.4112
1261.127, 636.0625
1261.609, 634.5315
1262.091, 634.1877
1262.573, 634.4736
1263.055, 634.5788
1263.537, 634.3983
1264.020, 634.8050
1264.502, 635.7811
1264.984, 636.1260
1265.466, 634.0699
1265.948, 632.4858
1266.430, 633.9855
1266.912, 636.4880
1267.394, 637.6304
1267.876, 637.3769
1268.359, 636.9622
1268.841, 636.4219
1269.323, 636.0811
1269.805, 636.2278
1270.287, 636.4717
1270.769, 636.5278
1271.251, 636.7327
1271.733, 637.5399
1272.215, 638.8181
1272.698, 639.4485
1273.180, 639.4877
1273.662, 639.1493
1274.144, 637.9911
1274.626, 637.2678
1275.108, 637.2973
1275.590, 637.6915
1276.072, 638.1979
1276.555, 638.8202
1277.037, 639.7491
1277.519, 640.7905
1278.001, 641.3880
1278.483, 641.1263
1278.965, 640.6006
1279.447, 639.6719
1279.929, 638.9447
1280.411, 638.9650
1280.894, 639.4513
1281.376, 640.0013
1281.858, 640.5869
1282.340, 641.1589
1282.822, 641.7385
1283.304, 642.2732
1283.786, 642.7797
1284.268, 643.1833
1284.750, 643.5188
1285.233, 643.6574
1285.715, 643.1674
1286.197, 642.4806
1286.679, 642.4109
1287.161, 643.1894
1287.643, 643.7024
1288.125, 643.9423
1288.607, 643.9687
1289.090, 643.3942
1289.572, 643.0886
1290.054, 643.9830
1290.536, 645.3015
1291.018, 646.1251
1291.500, 646.4474
1291.982, 646.2714
1292.464, 645.6546
1292.947, 645.1047
1293.429, 645.0839
1293.911, 644.9307
1294.393, 644.3613
1294.875, 643.5603
1295.357, 642.3320
1295.839, 640.9410
1296.321, 640.9686
1296.803, 642.2576
1297.286, 644.2316
1297.768, 647.4187
1298.250, 650.0779
1298.732, 652.5052
1299.214, 653.4541
1299.696, 650.8470
1300.178, 646.8516
1300.660, 645.7487
##END=



