##NAMES=Agrellite
##RRUFFID=R060914
##IDEAL CHEMISTRY=NaCa_2_Si_4_O_10_F
##LOCALITY=Kipawa complex, Quebec, Canada
##OWNER=RRUFF
##SOURCE=Royal Ontario Museum
##DESCRIPTION=White platy aggregates
##STATUS=The identification of this mineral has been confirmed by X-ray diffraction and chemical analysis
##URL=rruff.info/R060914
##MEASURED CHEMISTRY=(Na_0.99_K_0.01_)_Σ=1_(Ca_1.79_Na_0.10_Y_0.04_Ce_0.04_La_0.01_Nd_0.01_Mn_0.01_)_Σ=2_Si_4.00_O_10_F_1.00_
154.3069, 16062.33
154.7890, 16084.15
155.2712, 16117.35
155.7533, 16175.50
156.2354, 16255.76
156.7175, 16329.04
157.1996, 16372.42
157.6817, 16415.72
158.1639, 16482.21
158.6460, 16595.86
159.1281, 16715.01
159.6102, 16830.72
160.0923, 16942.10
160.5744, 17039.22
161.0566, 17109.54
161.5387, 17164.75
162.0208, 17218.24
162.5029, 17275.68
162.9850, 17330.07
163.4671, 17378.98
163.9493, 17422.00
164.4314, 17455.80
164.9135, 17464.31
165.3956, 17463.92
165.8777, 17481.71
166.3598, 17556.94
166.8420, 17638.97
167.3241, 17686.81
167.8062, 17685.16
168.2883, 17682.54
168.7704, 17714.67
169.2525, 17771.65
169.7346, 17828.43
170.2168, 17873.45
170.6989, 17910.83
171.1810, 17942.77
171.6631, 17965.85
172.1452, 17991.61
172.6273, 18033.73
173.1095, 18088.61
173.5916, 18142.79
174.0737, 18188.20
174.5558, 18227.25
175.0379, 18262.03
175.5201, 18289.05
176.0022, 18316.62
176.4843, 18352.22
176.9664, 18395.63
177.4485, 18448.25
177.9306, 18527.77
178.4128, 18616.93
178.8949, 18678.92
179.3770, 18684.11
179.8591, 18666.21
180.3412, 18677.99
180.8233, 18719.67
181.3055, 18776.25
181.7876, 18842.72
182.2697, 18914.71
182.7518, 18979.99
183.2339, 19032.50
183.7160, 19074.77
184.1982, 19107.17
184.6803, 19127.91
185.1624, 19151.08
185.6445, 19201.55
186.1266, 19273.11
186.6087, 19331.88
187.0908, 19349.78
187.5730, 19339.92
188.0551, 19353.27
188.5372, 19393.03
189.0193, 19447.51
189.5014, 19515.10
189.9835, 19594.51
190.4657, 19646.56
190.9478, 19627.60
191.4299, 19552.32
191.9120, 19532.83
192.3941, 19584.82
192.8762, 19670.50
193.3584, 19727.09
193.8405, 19753.67
194.3226, 19774.48
194.8047, 19806.63
195.2868, 19849.24
195.7689, 19871.66
196.2511, 19863.04
196.7332, 19844.77
197.2153, 19870.28
197.6974, 19945.13
198.1795, 20026.92
198.6616, 20091.25
199.1438, 20138.49
199.6259, 20175.22
200.1080, 20199.03
200.5901, 20215.05
201.0722, 20237.21
201.5543, 20265.32
202.0364, 20299.61
202.5186, 20343.88
203.0007, 20400.15
203.4828, 20444.50
203.9649, 20467.83
204.4470, 20476.82
204.9291, 20500.84
205.4113, 20539.66
205.8934, 20591.88
206.3755, 20664.21
206.8576, 20764.99
207.3397, 20841.97
207.8218, 20883.19
208.3040, 20892.46
208.7861, 20895.67
209.2682, 20891.79
209.7503, 20885.53
210.2324, 20876.87
210.7145, 20859.83
211.1967, 20868.40
211.6788, 20923.37
212.1609, 21020.46
212.6430, 21063.99
213.1251, 21025.27
213.6072, 20978.03
214.0894, 21003.97
214.5715, 21134.82
215.0536, 21249.21
215.5357, 21314.43
216.0178, 21329.50
216.4999, 21353.37
216.9820, 21385.56
217.4642, 21424.80
217.9463, 21471.90
218.4284, 21530.41
218.9105, 21583.96
219.3926, 21623.93
219.8747, 21647.11
220.3569, 21692.10
220.8390, 21773.98
221.3211, 21863.06
221.8032, 21925.04
222.2853, 21952.38
222.7674, 21968.50
223.2496, 21976.97
223.7317, 21976.32
224.2138, 21982.49
224.6959, 21994.78
225.1780, 22015.56
225.6601, 22049.26
226.1423, 22099.49
226.6244, 22155.91
227.1065, 22217.70
227.5886, 22289.06
228.0707, 22345.09
228.5528, 22376.60
229.0350, 22398.62
229.5171, 22435.53
229.9992, 22498.78
230.4813, 22556.88
230.9634, 22598.08
231.4455, 22616.61
231.9276, 22640.60
232.4098, 22666.50
232.8919, 22700.23
233.3740, 22754.84
233.8561, 22853.82
234.3382, 22934.90
234.8203, 22970.22
235.3025, 22935.03
235.7846, 22942.63
236.2667, 23019.98
236.7488, 23127.09
237.2309, 23185.02
237.7130, 23159.65
238.1952, 23139.28
238.6773, 23158.27
239.1594, 23236.54
239.6415, 23292.31
240.1236, 23316.72
240.6057, 23323.35
241.0879, 23336.09
241.5700, 23344.36
242.0521, 23375.64
242.5342, 23448.89
243.0163, 23595.69
243.4984, 23689.42
243.9806, 23701.72
244.4627, 23671.92
244.9448, 23682.07
245.4269, 23753.84
245.9090, 23830.32
246.3911, 23891.95
246.8732, 23936.80
247.3554, 23967.67
247.8375, 23974.55
248.3196, 23970.76
248.8017, 23985.31
249.2838, 24026.55
249.7659, 24072.62
250.2481, 24119.34
250.7302, 24176.07
251.2123, 24207.49
251.6944, 24201.72
252.1765, 24178.34
252.6586, 24179.66
253.1408, 24226.78
253.6229, 24265.47
254.1050, 24270.26
254.5871, 24221.93
255.0692, 24205.05
255.5513, 24234.81
256.0334, 24288.58
256.5156, 24317.09
256.9977, 24301.16
257.4798, 24294.60
257.9619, 24319.83
258.4440, 24385.73
258.9261, 24452.87
259.4083, 24523.66
259.8904, 24593.37
260.3725, 24648.92
260.8546, 24679.39
261.3367, 24717.30
261.8188, 24778.67
262.3010, 24873.45
262.7831, 24952.05
263.2652, 25009.59
263.7473, 25054.45
264.2294, 25105.01
264.7115, 25164.82
265.1937, 25220.20
265.6758, 25263.57
266.1579, 25291.26
266.6400, 25324.50
267.1221, 25364.13
267.6042, 25409.01
268.0864, 25458.46
268.5685, 25517.80
269.0506, 25569.40
269.5327, 25605.70
270.0148, 25625.32
270.4969, 25642.58
270.9791, 25657.39
271.4612, 25671.04
271.9433, 25681.11
272.4254, 25682.65
272.9075, 25700.92
273.3896, 25751.73
273.8718, 25837.85
274.3539, 25912.78
274.8360, 25974.73
275.3181, 26029.41
275.8002, 26087.08
276.2823, 26149.09
276.7645, 26204.45
277.2466, 26244.54
277.7287, 26268.72
278.2108, 26310.73
278.6929, 26375.74
279.1750, 26446.45
279.6572, 26490.67
280.1393, 26503.19
280.6214, 26537.61
281.1035, 26627.46
281.5856, 26765.35
282.0677, 26853.25
282.5499, 26877.86
283.0320, 26891.60
283.5141, 26968.23
283.9962, 27109.55
284.4783, 27246.29
284.9604, 27363.55
285.4425, 27459.05
285.9247, 27500.15
286.4068, 27475.84
286.8889, 27451.29
287.3710, 27513.36
287.8531, 27656.07
288.3352, 27786.43
288.8174, 27865.96
289.2995, 27911.28
289.7816, 27983.69
290.2637, 28084.17
290.7458, 28190.06
291.2279, 28276.20
291.7101, 28345.58
292.1922, 28417.40
292.6743, 28494.63
293.1564, 28578.53
293.6385, 28677.81
294.1206, 28792.86
294.6028, 28902.54
295.0849, 28976.24
295.5670, 29027.65
296.0491, 29106.16
296.5312, 29240.04
297.0133, 29396.80
297.4955, 29505.19
297.9776, 29568.12
298.4597, 29654.14
298.9418, 29837.38
299.4239, 30083.45
299.9060, 30313.95
300.3882, 30504.10
300.8703, 30673.23
301.3524, 30834.28
301.8345, 30988.81
302.3166, 31151.60
302.7987, 31339.64
303.2809, 31540.22
303.7630, 31739.99
304.2451, 31938.75
304.7272, 32123.64
305.2093, 32271.39
305.6914, 32389.26
306.1736, 32499.36
306.6557, 32619.95
307.1378, 32741.05
307.6199, 32851.34
308.1020, 32949.37
308.5841, 33039.97
309.0663, 33144.93
309.5484, 33250.49
310.0305, 33314.03
310.5126, 33292.74
310.9947, 33234.15
311.4768, 33172.31
311.9590, 33106.74
312.4411, 33058.43
312.9232, 33058.45
313.4053, 33084.51
313.8874, 33093.82
314.3695, 33042.57
314.8517, 32987.54
315.3337, 32968.51
315.8159, 32996.39
316.2980, 33022.96
316.7801, 33019.87
317.2622, 33004.89
317.7443, 33003.04
318.2264, 33047.97
318.7086, 33087.27
319.1907, 33084.03
319.6728, 33027.94
320.1549, 33010.91
320.6370, 33088.80
321.1191, 33207.87
321.6013, 33313.16
322.0834, 33397.32
322.5655, 33458.92
323.0476, 33487.03
323.5297, 33480.42
324.0118, 33482.77
324.4940, 33498.35
324.9761, 33525.89
325.4582, 33564.41
325.9403, 33631.65
326.4224, 33689.66
326.9045, 33723.92
327.3867, 33737.00
327.8688, 33770.16
328.3509, 33847.57
328.8330, 33928.47
329.3151, 33991.64
329.7972, 34034.63
330.2794, 34063.45
330.7615, 34073.29
331.2436, 34068.83
331.7257, 34070.84
332.2078, 34100.56
332.6899, 34112.67
333.1721, 34079.84
333.6542, 33962.77
334.1363, 33888.52
334.6184, 33875.25
335.1005, 33899.08
335.5826, 33905.20
336.0648, 33892.38
336.5469, 33864.54
337.0290, 33820.11
337.5111, 33754.55
337.9932, 33688.00
338.4753, 33612.55
338.9575, 33544.27
339.4396, 33515.56
339.9217, 33537.31
340.4038, 33547.46
340.8859, 33517.11
341.3680, 33448.63
341.8502, 33406.39
342.3323, 33399.01
342.8144, 33396.19
343.2965, 33355.46
343.7786, 33276.52
344.2607, 33213.63
344.7429, 33176.88
345.2250, 33170.38
345.7071, 33219.32
346.1892, 33330.36
346.6713, 33446.24
347.1534, 33529.25
347.6355, 33577.68
348.1176, 33578.96
348.5998, 33506.95
349.0819, 33410.46
349.5640, 33375.85
350.0461, 33399.42
350.5282, 33450.51
351.0103, 33518.17
351.4925, 33594.79
351.9746, 33666.98
352.4567, 33730.40
352.9388, 33790.15
353.4209, 33851.73
353.9030, 33914.61
354.3852, 33976.95
354.8673, 34049.40
355.3494, 34116.68
355.8315, 34155.24
356.3136, 34156.98
356.7957, 34164.41
357.2779, 34225.62
357.7600, 34314.35
358.2421, 34381.95
358.7242, 34371.75
359.2063, 34361.27
359.6884, 34410.74
360.1706, 34526.29
360.6527, 34635.23
361.1348, 34696.57
361.6169, 34735.48
362.0990, 34778.43
362.5811, 34823.57
363.0633, 34882.61
363.5454, 34974.45
364.0275, 35093.56
364.5096, 35182.98
364.9917, 35179.80
365.4738, 35171.70
365.9560, 35215.88
366.4381, 35388.08
366.9202, 35536.25
367.4023, 35637.43
367.8844, 35701.72
368.3665, 35766.54
368.8487, 35835.40
369.3308, 35904.87
369.8129, 35971.73
370.2950, 36025.44
370.7771, 36098.62
371.2592, 36205.67
371.7414, 36326.55
372.2235, 36422.36
372.7056, 36458.42
373.1877, 36527.09
373.6698, 36674.25
374.1519, 36915.91
374.6341, 37071.04
375.1162, 37097.93
375.5983, 37091.42
376.0804, 37168.78
376.5625, 37351.83
377.0446, 37520.03
377.5267, 37640.44
378.0089, 37721.98
378.4910, 37811.16
378.9731, 37910.07
379.4552, 38009.15
379.9373, 38102.77
380.4194, 38192.05
380.9016, 38264.46
381.3837, 38311.78
381.8658, 38353.76
382.3479, 38438.54
382.8300, 38563.63
383.3121, 38686.52
383.7943, 38771.51
384.2764, 38832.80
384.7585, 38912.34
385.2406, 39016.84
385.7227, 39121.51
386.2048, 39184.67
386.6870, 39219.78
387.1691, 39265.91
387.6512, 39357.77
388.1333, 39459.18
388.6154, 39529.77
389.0975, 39566.58
389.5797, 39588.68
390.0618, 39598.90
390.5439, 39605.37
391.0260, 39618.35
391.5081, 39634.12
391.9902, 39665.73
392.4724, 39747.41
392.9545, 39864.91
393.4366, 39937.98
393.9187, 39872.63
394.4008, 39790.62
394.8829, 39779.37
395.3651, 39911.41
395.8472, 40022.71
396.3293, 40048.38
396.8114, 40025.81
397.2935, 40035.44
397.7756, 40115.30
398.2578, 40206.37
398.7399, 40294.43
399.2220, 40387.33
399.7041, 40444.41
400.1862, 40429.68
400.6683, 40396.50
401.1505, 40405.38
401.6326, 40489.15
402.1147, 40565.21
402.5968, 40625.98
403.0789, 40670.79
403.5610, 40675.11
404.0432, 40621.53
404.5253, 40557.14
405.0074, 40514.25
405.4895, 40493.92
405.9716, 40493.89
406.4537, 40520.37
406.9359, 40561.27
407.4180, 40580.19
407.9001, 40572.50
408.3822, 40577.16
408.8643, 40629.09
409.3464, 40719.47
409.8285, 40768.79
410.3106, 40766.34
410.7928, 40752.67
411.2749, 40787.02
411.7570, 40859.13
412.2391, 40916.13
412.7212, 40917.99
413.2033, 40901.90
413.6855, 40939.88
414.1676, 41028.72
414.6497, 41120.78
415.1318, 41172.71
415.6139, 41204.61
416.0960, 41247.61
416.5782, 41322.24
417.0603, 41388.65
417.5424, 41413.65
418.0245, 41404.04
418.5066, 41380.56
418.9887, 41322.62
419.4709, 41274.91
419.9530, 41276.83
420.4351, 41350.61
420.9172, 41405.43
421.3993, 41379.55
421.8814, 41326.75
422.3636, 41315.82
422.8457, 41418.25
423.3278, 41508.58
423.8099, 41559.09
424.2920, 41569.75
424.7741, 41546.29
425.2563, 41434.66
425.7384, 41330.21
426.2205, 41298.52
426.7026, 41414.37
427.1847, 41467.85
427.6668, 41412.89
428.1490, 41295.55
428.6311, 41247.55
429.1132, 41287.61
429.5953, 41354.03
430.0774, 41428.49
430.5595, 41513.69
431.0417, 41567.80
431.5238, 41583.25
432.0059, 41582.29
432.4880, 41582.58
432.9701, 41584.04
433.4522, 41622.11
433.9344, 41728.22
434.4165, 41868.75
434.8986, 41937.43
435.3807, 41935.32
435.8628, 41948.41
436.3449, 42078.20
436.8271, 42272.30
437.3092, 42396.18
437.7913, 42400.06
438.2734, 42396.68
438.7555, 42523.84
439.2376, 42739.93
439.7197, 42936.63
440.2018, 43033.45
440.6840, 43103.36
441.1661, 43201.02
441.6482, 43329.12
442.1303, 43482.60
442.6124, 43675.52
443.0945, 43885.63
443.5767, 44087.68
444.0588, 44254.77
444.5409, 44435.94
445.0230, 44673.89
445.5051, 44949.70
445.9872, 45163.41
446.4694, 45220.50
446.9515, 45276.84
447.4336, 45406.19
447.9157, 45657.83
448.3978, 45879.67
448.8799, 46040.35
449.3621, 46187.30
449.8442, 46394.86
450.3263, 46702.82
450.8084, 46981.41
451.2905, 47185.75
451.7726, 47321.44
452.2548, 47502.02
452.7369, 47741.47
453.2190, 47986.12
453.7011, 48187.88
454.1832, 48345.48
454.6653, 48527.86
455.1475, 48759.14
455.6296, 48995.16
456.1117, 49153.20
456.5938, 49238.86
457.0759, 49314.08
457.5580, 49416.49
458.0402, 49529.72
458.5223, 49626.20
459.0044, 49706.57
459.4865, 49762.66
459.9686, 49771.75
460.4507, 49756.57
460.9329, 49754.25
461.4150, 49804.95
461.8971, 49841.26
462.3792, 49815.61
462.8613, 49738.00
463.3434, 49644.16
463.8256, 49523.26
464.3077, 49410.87
464.7898, 49334.88
465.2719, 49321.38
465.7540, 49278.16
466.2361, 49135.54
466.7183, 48969.30
467.2004, 48878.22
467.6825, 48969.18
468.1646, 49017.46
468.6467, 48954.94
469.1288, 48791.46
469.6110, 48728.88
470.0930, 48819.75
470.5752, 48929.39
471.0573, 48968.90
471.5394, 48914.07
472.0215, 48889.68
472.5036, 48906.43
472.9857, 48949.02
473.4679, 48993.69
473.9500, 49040.14
474.4321, 49088.78
474.9142, 49152.22
475.3963, 49217.69
475.8784, 49236.94
476.3606, 49210.40
476.8427, 49167.44
477.3248, 49136.68
477.8069, 49110.07
478.2890, 49064.61
478.7711, 48981.33
479.2533, 48911.51
479.7354, 48925.34
480.2175, 48992.27
480.6996, 49036.29
481.1817, 48980.44
481.6638, 48917.30
482.1460, 48912.63
482.6281, 48974.57
483.1102, 49031.11
483.5923, 49054.22
484.0744, 49058.73
484.5565, 49057.12
485.0387, 49072.68
485.5208, 49053.14
486.0029, 48962.80
486.4850, 48828.29
486.9671, 48732.88
487.4492, 48694.28
487.9314, 48673.55
488.4135, 48659.98
488.8956, 48656.13
489.3777, 48658.11
489.8598, 48677.94
490.3419, 48687.88
490.8241, 48642.36
491.3062, 48535.18
491.7883, 48470.36
492.2704, 48479.13
492.7525, 48534.89
493.2346, 48574.56
493.7168, 48598.55
494.1989, 48627.99
494.6810, 48686.65
495.1631, 48756.21
495.6452, 48790.84
496.1273, 48780.59
496.6095, 48786.13
497.0916, 48883.11
497.5737, 49024.89
498.0558, 49142.46
498.5379, 49168.43
499.0201, 49204.57
499.5022, 49334.39
499.9843, 49531.30
500.4664, 49683.72
500.9485, 49705.35
501.4306, 49709.07
501.9127, 49752.29
502.3948, 49853.42
502.8770, 49958.94
503.3591, 50073.57
503.8412, 50185.21
504.3233, 50283.40
504.8054, 50374.86
505.2875, 50434.43
505.7697, 50445.08
506.2518, 50419.09
506.7339, 50416.14
507.2160, 50433.91
507.6981, 50479.70
508.1802, 50571.58
508.6624, 50707.06
509.1445, 50817.33
509.6266, 50899.52
510.1087, 50962.67
510.5908, 51008.01
511.0729, 51041.87
511.5551, 51088.46
512.0372, 51168.82
512.5193, 51254.16
513.0014, 51301.00
513.4835, 51317.55
513.9656, 51337.06
514.4478, 51367.82
514.9299, 51416.46
515.4120, 51503.68
515.8941, 51647.65
516.3762, 51746.22
516.8583, 51702.38
517.3405, 51610.99
517.8226, 51575.49
518.3047, 51674.34
518.7868, 51764.41
519.2689, 51831.73
519.7510, 51872.82
520.2332, 51864.16
520.7153, 51757.90
521.1974, 51670.16
521.6795, 51665.84
522.1616, 51770.73
522.6437, 51793.12
523.1259, 51707.28
523.6080, 51592.98
524.0901, 51545.73
524.5722, 51566.21
525.0543, 51584.16
525.5364, 51585.53
526.0186, 51574.11
526.5007, 51550.72
526.9828, 51517.79
527.4649, 51491.70
527.9470, 51491.80
528.4291, 51499.82
528.9113, 51489.25
529.3934, 51457.68
529.8755, 51423.28
530.3576, 51401.36
530.8397, 51381.72
531.3218, 51351.76
531.8040, 51283.80
532.2861, 51236.60
532.7682, 51238.70
533.2503, 51277.33
533.7324, 51319.65
534.2145, 51407.11
534.6967, 51452.79
535.1788, 51413.56
535.6609, 51274.90
536.1430, 51200.32
536.6251, 51215.96
537.1072, 51262.35
537.5894, 51296.15
538.0715, 51317.63
538.5536, 51322.13
539.0357, 51300.08
539.5178, 51274.73
539.9999, 51292.81
540.4821, 51351.33
540.9642, 51413.95
541.4463, 51452.78
541.9284, 51488.79
542.4105, 51583.18
542.8926, 51728.62
543.3748, 51847.43
543.8569, 51857.23
544.3390, 51818.07
544.8211, 51792.82
545.3032, 51787.30
545.7853, 51812.11
546.2675, 51906.84
546.7495, 52026.36
547.2316, 52106.34
547.7137, 52086.75
548.1959, 52073.66
548.6780, 52106.10
549.1601, 52177.66
549.6422, 52215.49
550.1243, 52194.30
550.6064, 52172.55
551.0886, 52178.97
551.5707, 52219.98
552.0528, 52260.09
552.5349, 52302.00
553.0170, 52336.82
553.4991, 52352.89
553.9813, 52350.39
554.4634, 52334.36
554.9455, 52294.40
555.4276, 52257.76
555.9097, 52276.04
556.3918, 52343.00
556.8740, 52429.95
557.3561, 52540.57
557.8382, 52652.43
558.3203, 52749.82
558.8024, 52832.45
559.2845, 52877.21
559.7667, 52820.00
560.2488, 52748.38
560.7309, 52739.21
561.2130, 52840.05
561.6951, 52955.69
562.1772, 53089.57
562.6594, 53223.35
563.1415, 53321.61
563.6236, 53356.41
564.1057, 53392.94
564.5878, 53450.35
565.0699, 53523.61
565.5521, 53566.03
566.0342, 53565.38
566.5163, 53569.33
566.9984, 53608.00
567.4805, 53680.27
567.9626, 53785.39
568.4448, 53935.10
568.9269, 54065.88
569.4090, 54078.28
569.8911, 54012.86
570.3732, 53979.99
570.8553, 54036.19
571.3375, 54112.39
571.8196, 54135.77
572.3017, 54124.76
572.7838, 54131.02
573.2659, 54191.46
573.7480, 54263.88
574.2302, 54335.67
574.7123, 54408.26
575.1944, 54446.16
575.6765, 54397.98
576.1586, 54345.91
576.6407, 54347.66
577.1229, 54453.03
577.6050, 54512.71
578.0871, 54506.28
578.5692, 54469.16
579.0513, 54455.77
579.5334, 54465.04
580.0156, 54513.19
580.4977, 54621.00
580.9798, 54762.92
581.4619, 54869.54
581.9440, 54941.05
582.4261, 54986.70
582.9083, 54976.10
583.3904, 54955.33
583.8725, 55014.45
584.3546, 55169.67
584.8367, 55294.97
585.3188, 55254.19
585.8010, 55159.82
586.2831, 55136.47
586.7652, 55276.32
587.2473, 55415.29
587.7294, 55508.59
588.2115, 55572.39
588.6937, 55646.63
589.1758, 55749.16
589.6579, 55841.78
590.1400, 55917.12
590.6221, 55975.34
591.1042, 56007.82
591.5864, 55999.89
592.0685, 56009.29
592.5506, 56085.42
593.0327, 56223.04
593.5148, 56355.04
593.9969, 56481.24
594.4791, 56587.41
594.9612, 56630.09
595.4433, 56641.59
595.9254, 56701.55
596.4075, 56861.81
596.8896, 57039.91
597.3718, 57161.90
597.8539, 57246.76
598.3360, 57339.52
598.8181, 57442.89
599.3002, 57573.00
599.7823, 57745.89
600.2645, 57964.24
600.7466, 58173.67
601.2287, 58333.27
601.7108, 58514.46
602.1929, 58760.73
602.6750, 59095.52
603.1572, 59418.66
603.6393, 59728.53
604.1214, 60033.81
604.6035, 60334.93
605.0856, 60634.01
605.5677, 61001.71
606.0499, 61493.61
606.5320, 62012.62
607.0141, 62394.77
607.4962, 62658.14
607.9783, 62882.29
608.4604, 63132.63
608.9425, 63344.39
609.4246, 63447.23
609.9067, 63442.91
610.3889, 63395.42
610.8710, 63314.49
611.3531, 63212.99
611.8352, 63103.76
612.3173, 63009.50
612.7994, 62857.72
613.2816, 62620.61
613.7637, 62343.80
614.2458, 62076.54
614.7279, 61825.43
615.2100, 61563.84
615.6921, 61277.85
616.1743, 60989.81
616.6564, 60760.12
617.1385, 60588.80
617.6206, 60454.23
618.1027, 60345.91
618.5848, 60266.66
619.0670, 60220.41
619.5491, 60206.00
620.0312, 60215.64
620.5133, 60257.27
620.9954, 60311.51
621.4775, 60359.42
621.9597, 60395.40
622.4418, 60433.12
622.9239, 60474.41
623.4060, 60520.05
623.8881, 60571.79
624.3702, 60646.64
624.8524, 60702.14
625.3345, 60730.74
625.8166, 60740.86
626.2987, 60746.54
626.7808, 60743.21
627.2629, 60756.94
627.7451, 60799.99
628.2272, 60865.89
628.7093, 60939.89
629.1914, 61021.57
629.6735, 61086.24
630.1556, 61107.12
630.6378, 61104.32
631.1199, 61098.19
631.6020, 61089.73
632.0841, 61104.63
632.5662, 61182.80
633.0483, 61280.92
633.5305, 61357.50
634.0126, 61385.38
634.4947, 61419.34
634.9768, 61479.89
635.4589, 61548.50
635.9410, 61592.74
636.4232, 61580.21
636.9053, 61609.19
637.3874, 61716.21
637.8695, 61869.54
638.3516, 61954.12
638.8337, 61963.74
639.3159, 61971.45
639.7980, 62017.37
640.2801, 62089.61
640.7622, 62149.46
641.2443, 62198.89
641.7264, 62262.27
642.2086, 62377.98
642.6907, 62509.09
643.1728, 62609.18
643.6549, 62664.40
644.1370, 62729.35
644.6191, 62843.83
645.1013, 62973.85
645.5834, 63083.95
646.0655, 63142.25
646.5476, 63216.07
647.0297, 63308.45
647.5118, 63415.96
647.9940, 63530.03
648.4761, 63649.87
648.9582, 63773.70
649.4403, 63905.17
649.9224, 64035.41
650.4045, 64142.53
650.8867, 64227.15
651.3688, 64304.13
651.8509, 64392.06
652.3330, 64474.26
652.8151, 64514.30
653.2972, 64511.77
653.7794, 64527.99
654.2615, 64602.00
654.7436, 64710.02
655.2257, 64839.83
655.7078, 65022.46
656.1899, 65159.92
656.6721, 65215.78
657.1542, 65234.61
657.6363, 65259.24
658.1184, 65290.88
658.6005, 65323.41
659.0826, 65355.32
659.5648, 65386.11
660.0469, 65418.37
660.5290, 65451.38
661.0111, 65470.55
661.4932, 65433.70
661.9753, 65406.96
662.4575, 65544.01
662.9396, 65810.97
663.4217, 66031.84
663.9038, 66061.54
664.3859, 66040.44
664.8680, 66071.97
665.3502, 66168.55
665.8323, 66262.46
666.3144, 66326.56
666.7965, 66389.65
667.2786, 66465.67
667.7607, 66542.13
668.2429, 66662.86
668.7250, 66854.73
669.2071, 67043.79
669.6892, 67125.66
670.1713, 67099.47
670.6534, 67096.95
671.1355, 67145.18
671.6176, 67217.58
672.0997, 67281.90
672.5818, 67339.05
673.0640, 67391.60
673.5461, 67453.84
674.0282, 67505.66
674.5103, 67535.79
674.9924, 67548.73
675.4745, 67553.55
675.9567, 67524.82
676.4388, 67522.19
676.9209, 67591.14
677.4030, 67734.10
677.8851, 67815.24
678.3672, 67797.34
678.8494, 67785.84
679.3315, 67841.14
679.8136, 67961.09
680.2957, 68131.10
680.7778, 68353.42
681.2599, 68571.81
681.7421, 68720.66
682.2242, 68818.82
682.7063, 68897.88
683.1884, 68952.90
683.6705, 69024.10
684.1526, 69167.20
684.6348, 69335.67
685.1169, 69468.38
685.5990, 69528.58
686.0811, 69574.65
686.5632, 69598.56
687.0453, 69621.76
687.5275, 69698.03
688.0096, 69859.85
688.4917, 70003.91
688.9738, 70095.34
689.4559, 70151.79
689.9380, 70246.38
690.4202, 70378.16
690.9023, 70522.39
691.3844, 70675.82
691.8665, 70823.44
692.3486, 70942.00
692.8307, 71031.22
693.3129, 71102.16
693.7950, 71136.19
694.2771, 71169.91
694.7592, 71227.66
695.2413, 71309.31
695.7234, 71427.98
696.2056, 71625.93
696.6877, 71831.03
697.1698, 71992.67
697.6519, 72114.03
698.1340, 72174.13
698.6161, 72145.62
699.0983, 72110.99
699.5804, 72209.83
700.0625, 72422.88
700.5446, 72622.60
701.0267, 72780.48
701.5089, 72901.52
701.9910, 72963.63
702.4731, 72993.55
702.9552, 73052.53
703.4373, 73190.27
703.9194, 73338.74
704.4016, 73482.45
704.8837, 73615.05
705.3658, 73707.21
705.8479, 73725.38
706.3300, 73742.59
706.8121, 73775.69
707.2943, 73825.34
707.7764, 73919.98
708.2585, 74073.66
708.7406, 74198.03
709.2227, 74180.94
709.7048, 74089.52
710.1870, 74150.28
710.6691, 74378.59
711.1512, 74599.41
711.6333, 74672.64
712.1154, 74676.89
712.5975, 74696.36
713.0797, 74761.06
713.5618, 74791.86
714.0439, 74748.80
714.5260, 74668.38
715.0081, 74585.21
715.4902, 74498.64
715.9724, 74404.64
716.4545, 74280.59
716.9366, 74177.10
717.4187, 74209.49
717.9008, 74370.07
718.3829, 74465.64
718.8651, 74423.99
719.3472, 74332.98
719.8293, 74303.69
720.3114, 74323.49
720.7935, 74358.48
721.2756, 74412.45
721.7578, 74459.88
722.2399, 74484.72
722.7220, 74490.86
723.2041, 74493.84
723.6862, 74487.72
724.1683, 74487.71
724.6505, 74491.77
725.1326, 74501.84
725.6147, 74564.30
726.0968, 74695.88
726.5789, 74794.80
727.0610, 74752.52
727.5432, 74629.56
728.0253, 74644.79
728.5074, 74797.89
728.9895, 74943.32
729.4716, 74954.70
729.9537, 74913.94
730.4359, 74900.09
730.9180, 74928.06
731.4001, 74965.05
731.8822, 75019.67
732.3643, 75068.82
732.8464, 75091.38
733.3285, 75060.34
733.8106, 75068.21
734.2927, 75124.48
734.7748, 75202.70
735.2570, 75272.34
735.7391, 75334.05
736.2212, 75403.04
736.7033, 75487.84
737.1854, 75562.83
737.6675, 75578.41
738.1497, 75567.15
738.6318, 75588.51
739.1139, 75694.72
739.5960, 75804.38
740.0781, 75890.41
740.5602, 75960.24
741.0424, 76028.04
741.5245, 76083.34
742.0066, 76159.95
742.4887, 76271.92
742.9708, 76405.48
743.4529, 76515.11
743.9351, 76597.57
744.4172, 76681.33
744.8993, 76766.91
745.3814, 76864.39
745.8635, 77014.66
746.3456, 77200.98
746.8278, 77352.61
747.3099, 77388.58
747.7920, 77406.63
748.2741, 77478.01
748.7562, 77606.16
749.2383, 77698.56
749.7205, 77718.41
750.2026, 77737.00
750.6847, 77801.22
751.1668, 77921.31
751.6489, 77933.13
752.1310, 77814.27
752.6132, 77720.18
753.0953, 77807.57
753.5774, 78015.40
754.0595, 78172.80
754.5416, 78266.77
755.0237, 78332.25
755.5059, 78352.63
755.9880, 78377.99
756.4701, 78459.39
756.9522, 78620.75
757.4343, 78786.76
757.9164, 78973.71
758.3986, 79134.38
758.8807, 79229.82
759.3628, 79249.71
759.8449, 79237.65
760.3270, 79184.29
760.8091, 79139.98
761.2913, 79181.15
761.7734, 79292.38
762.2555, 79414.18
762.7376, 79544.95
763.2197, 79663.18
763.7018, 79730.81
764.1840, 79780.45
764.6661, 79860.34
765.1482, 80008.23
765.6303, 80156.08
766.1124, 80266.89
766.5945, 80374.59
767.0767, 80540.99
767.5588, 80780.63
768.0409, 81016.08
768.5230, 81225.96
769.0051, 81421.25
769.4872, 81633.98
769.9694, 81859.91
770.4515, 82075.36
770.9336, 82270.76
771.4157, 82449.80
771.8978, 82626.94
772.3799, 82793.09
772.8621, 82918.48
773.3442, 82952.15
773.8263, 82993.44
774.3084, 83089.94
774.7905, 83226.44
775.2726, 83315.46
775.7548, 83335.31
776.2369, 83385.39
776.7190, 83510.43
777.2011, 83698.07
777.6832, 83916.13
778.1653, 84160.49
778.6475, 84383.48
779.1296, 84500.23
779.6117, 84619.13
780.0938, 84890.55
780.5759, 85293.13
781.0580, 85587.70
781.5402, 85579.63
782.0223, 85554.76
782.5044, 85650.87
782.9865, 85871.41
783.4686, 86027.41
783.9507, 86097.08
784.4329, 86169.45
784.9150, 86322.34
785.3971, 86530.66
785.8792, 86678.38
786.3613, 86766.66
786.8434, 86858.11
787.3256, 87021.89
787.8077, 87198.77
788.2898, 87326.57
788.7719, 87388.76
789.2540, 87475.71
789.7361, 87659.70
790.2183, 87830.41
790.7004, 87912.16
791.1825, 87875.87
791.6646, 87890.29
792.1467, 87956.11
792.6288, 88061.09
793.1110, 88229.87
793.5930, 88426.30
794.0751, 88540.23
794.5573, 88552.64
795.0394, 88543.90
795.5215, 88585.41
796.0036, 88631.21
796.4857, 88628.38
796.9678, 88523.95
797.4500, 88491.98
797.9321, 88609.30
798.4142, 88755.66
798.8963, 88834.00
799.3784, 88839.00
799.8605, 88818.48
800.3427, 88773.60
800.8248, 88714.55
801.3069, 88615.60
801.7890, 88515.28
802.2711, 88521.06
802.7532, 88686.49
803.2354, 88828.89
803.7175, 88815.59
804.1996, 88730.54
804.6817, 88662.96
805.1638, 88640.79
805.6459, 88618.12
806.1281, 88596.34
806.6102, 88572.03
807.0923, 88520.20
807.5744, 88439.82
808.0565, 88469.68
808.5386, 88653.38
809.0208, 88860.96
809.5029, 88938.54
809.9850, 88924.42
810.4671, 88884.20
810.9492, 88825.10
811.4313, 88765.59
811.9135, 88702.13
812.3956, 88646.16
812.8777, 88612.06
813.3598, 88597.34
813.8419, 88612.36
814.3240, 88675.04
814.8062, 88741.89
815.2883, 88729.05
815.7704, 88651.36
816.2525, 88620.17
816.7346, 88674.91
817.2167, 88743.88
817.6989, 88762.29
818.1810, 88744.42
818.6631, 88711.92
819.1452, 88626.27
819.6273, 88588.23
820.1094, 88696.70
820.5916, 88829.53
821.0737, 88807.75
821.5558, 88574.72
822.0379, 88423.44
822.5200, 88404.76
823.0021, 88471.02
823.4843, 88584.20
823.9664, 88723.04
824.4485, 88824.34
824.9306, 88854.61
825.4127, 88866.34
825.8948, 88884.21
826.3770, 88907.80
826.8591, 88937.55
827.3412, 88966.86
827.8233, 89010.67
828.3054, 89091.50
828.7875, 89165.66
829.2697, 89150.20
829.7518, 89042.72
830.2339, 88948.95
830.7160, 88890.97
831.1981, 88854.28
831.6802, 88835.11
832.1624, 88821.67
832.6445, 88788.60
833.1266, 88687.74
833.6087, 88627.46
834.0908, 88712.41
834.5729, 88836.70
835.0551, 88834.92
835.5372, 88635.00
836.0193, 88497.66
836.5014, 88465.73
836.9835, 88484.10
837.4656, 88467.68
837.9478, 88423.97
838.4299, 88386.46
838.9120, 88365.81
839.3941, 88347.03
839.8762, 88309.91
840.3583, 88269.36
840.8405, 88245.89
841.3226, 88250.67
841.8047, 88268.40
842.2868, 88316.22
842.7689, 88360.02
843.2510, 88340.61
843.7332, 88249.80
844.2153, 88194.51
844.6974, 88195.77
845.1795, 88220.55
845.6616, 88239.02
846.1437, 88246.72
846.6259, 88230.65
847.1080, 88165.01
847.5901, 88122.63
848.0722, 88172.00
848.5543, 88242.59
849.0364, 88247.66
849.5186, 88157.43
850.0007, 88074.85
850.4828, 88001.73
850.9649, 87949.64
851.4470, 87965.31
851.9291, 88022.22
852.4113, 87990.74
852.8934, 87830.15
853.3755, 87673.66
853.8576, 87636.30
854.3397, 87660.04
854.8218, 87679.49
855.3040, 87664.45
855.7860, 87684.03
856.2681, 87760.96
856.7502, 87850.72
857.2324, 87906.51
857.7145, 87925.12
858.1966, 87973.86
858.6787, 88061.86
859.1608, 88145.24
859.6429, 88166.60
860.1251, 88158.84
860.6072, 88174.59
861.0893, 88229.07
861.5714, 88267.66
862.0535, 88252.75
862.5356, 88225.91
863.0178, 88218.52
863.4999, 88235.35
863.9820, 88250.51
864.4641, 88260.65
864.9462, 88281.43
865.4283, 88343.12
865.9105, 88424.16
866.3926, 88471.90
866.8747, 88482.39
867.3568, 88464.64
867.8389, 88404.11
868.3210, 88335.88
868.8032, 88285.33
869.2853, 88260.32
869.7674, 88236.13
870.2495, 88202.57
870.7316, 88191.59
871.2137, 88230.12
871.6959, 88312.59
872.1780, 88402.27
872.6601, 88497.72
873.1422, 88550.64
873.6243, 88467.71
874.1064, 88366.38
874.5886, 88369.66
875.0707, 88476.96
875.5528, 88563.16
876.0349, 88575.23
876.5170, 88582.52
876.9991, 88600.16
877.4813, 88629.44
877.9634, 88689.30
878.4455, 88780.45
878.9276, 88888.64
879.4097, 89063.14
879.8918, 89216.42
880.3740, 89171.62
880.8561, 88984.29
881.3382, 88864.52
881.8203, 88945.48
882.3024, 89065.38
882.7845, 89199.82
883.2667, 89325.23
883.7488, 89345.98
884.2309, 89229.84
884.7130, 89162.89
885.1951, 89216.83
885.6772, 89336.20
886.1594, 89433.91
886.6415, 89511.11
887.1236, 89573.93
887.6057, 89582.39
888.0878, 89624.72
888.5699, 89796.10
889.0521, 90017.24
889.5342, 90122.27
890.0163, 90039.73
890.4984, 90010.58
890.9805, 90075.98
891.4626, 90193.70
891.9448, 90299.45
892.4269, 90395.76
892.9090, 90499.75
893.3911, 90618.61
893.8732, 90730.27
894.3553, 90813.46
894.8375, 90878.82
895.3196, 90937.88
895.8017, 90990.85
896.2838, 91033.09
896.7659, 91052.30
897.2480, 91079.20
897.7302, 91180.30
898.2123, 91334.34
898.6944, 91375.97
899.1765, 91284.21
899.6586, 91150.03
900.1407, 91000.70
900.6229, 90884.65
901.1050, 90872.25
901.5871, 91008.12
902.0692, 91087.30
902.5513, 91078.27
903.0334, 91026.37
903.5156, 90934.80
903.9977, 90804.27
904.4798, 90766.17
904.9619, 90819.88
905.4440, 90903.89
905.9261, 90984.07
906.4083, 91061.31
906.8904, 91145.30
907.3725, 91232.31
907.8546, 91291.50
908.3367, 91305.97
908.8188, 91296.52
909.3010, 91260.02
909.7831, 91205.70
910.2652, 91176.66
910.7473, 91172.95
911.2294, 91213.42
911.7115, 91355.05
912.1937, 91500.32
912.6758, 91464.73
913.1579, 91324.11
913.6400, 91274.44
914.1221, 91491.92
914.6042, 91681.91
915.0864, 91775.47
915.5685, 91795.96
916.0506, 91768.37
916.5327, 91684.38
917.0148, 91650.45
917.4969, 91701.89
917.9790, 91778.66
918.4611, 91788.53
918.9432, 91772.61
919.4254, 91805.17
919.9075, 91932.88
920.3896, 92058.63
920.8717, 92131.41
921.3538, 92201.47
921.8359, 92310.45
922.3181, 92460.48
922.8002, 92642.39
923.2823, 92865.45
923.7644, 93053.91
924.2465, 93074.65
924.7286, 93026.06
925.2108, 93085.69
925.6929, 93277.48
926.1750, 93432.52
926.6571, 93434.20
927.1392, 93419.88
927.6213, 93466.09
928.1035, 93573.04
928.5856, 93714.17
929.0677, 93907.32
929.5498, 94035.63
930.0319, 93983.59
930.5140, 93849.55
930.9962, 93813.20
931.4783, 93854.59
931.9604, 93885.45
932.4425, 93840.10
932.9246, 93807.27
933.4067, 93827.76
933.8889, 93883.95
934.3710, 93933.09
934.8531, 93971.98
935.3352, 94015.98
935.8173, 94068.16
936.2994, 94126.27
936.7816, 94183.67
937.2637, 94243.66
937.7458, 94315.04
938.2279, 94424.82
938.7100, 94503.23
939.1921, 94473.39
939.6743, 94432.68
940.1564, 94493.70
940.6385, 94688.01
941.1206, 94821.58
941.6027, 94883.70
942.0848, 94889.54
942.5670, 94795.22
943.0491, 94680.49
943.5312, 94685.06
944.0133, 94833.47
944.4954, 94978.98
944.9775, 95071.74
945.4597, 95137.91
945.9418, 95190.41
946.4239, 95230.04
946.9060, 95254.77
947.3881, 95261.84
947.8702, 95291.20
948.3524, 95399.66
948.8345, 95525.97
949.3166, 95556.05
949.7987, 95521.05
950.2808, 95529.27
950.7629, 95674.96
951.2451, 95807.11
951.7272, 95868.01
952.2093, 95893.66
952.6914, 95973.31
953.1735, 96110.36
953.6556, 96213.02
954.1378, 96247.49
954.6199, 96266.41
955.1020, 96324.22
955.5841, 96412.15
956.0662, 96521.74
956.5483, 96677.70
957.0305, 96797.68
957.5126, 96852.31
957.9947, 96884.74
958.4768, 96925.92
958.9589, 96976.75
959.4410, 97033.27
959.9232, 97094.67
960.4053, 97180.76
960.8874, 97357.95
961.3695, 97534.97
961.8516, 97592.10
962.3337, 97525.05
962.8159, 97494.85
963.2980, 97529.25
963.7801, 97609.43
964.2622, 97757.86
964.7443, 97940.48
965.2264, 97978.88
965.7086, 97894.13
966.1907, 97873.38
966.6728, 98050.38
967.1549, 98260.22
967.6370, 98373.02
968.1191, 98419.88
968.6013, 98454.14
969.0834, 98467.35
969.5655, 98502.99
970.0476, 98571.92
970.5297, 98652.49
971.0118, 98700.91
971.4940, 98734.48
971.9761, 98847.66
972.4582, 99067.50
972.9403, 99259.66
973.4224, 99285.29
973.9045, 99280.74
974.3867, 99355.31
974.8688, 99524.42
975.3509, 99747.29
975.8330, 100064.4
976.3151, 100310.2
976.7972, 100334.2
977.2794, 100231.2
977.7615, 100261.8
978.2436, 100399.8
978.7257, 100529.4
979.2078, 100563.0
979.6899, 100602.3
980.1720, 100701.4
980.6541, 100834.7
981.1362, 100945.6
981.6183, 101028.0
982.1005, 101123.3
982.5826, 101242.8
983.0647, 101371.3
983.5468, 101514.4
984.0289, 101644.6
984.5110, 101697.1
984.9932, 101622.9
985.4753, 101598.1
985.9574, 101725.9
986.4395, 101879.7
986.9216, 101980.6
987.4037, 102025.7
987.8859, 102089.5
988.3680, 102171.2
988.8501, 102274.8
989.3322, 102427.8
989.8143, 102584.5
990.2964, 102683.9
990.7786, 102738.4
991.2607, 102822.8
991.7428, 102965.2
992.2249, 103127.2
992.7070, 103327.2
993.1891, 103519.0
993.6713, 103554.8
994.1534, 103471.7
994.6355, 103471.3
995.1176, 103624.0
995.5997, 103834.7
996.0818, 104085.8
996.5640, 104327.1
997.0461, 104495.5
997.5282, 104555.2
998.0103, 104627.1
998.4924, 104709.6
998.9745, 104807.3
999.4567, 104918.0
999.9388, 105047.5
1000.421, 105226.6
1000.903, 105447.1
1001.385, 105640.5
1001.867, 105793.1
1002.349, 105882.1
1002.831, 105832.9
1003.314, 105716.5
1003.796, 105773.4
1004.278, 106026.5
1004.760, 106234.5
1005.242, 106325.0
1005.724, 106360.9
1006.206, 106409.9
1006.688, 106466.6
1007.171, 106526.8
1007.653, 106619.6
1008.135, 106650.5
1008.617, 106569.3
1009.099, 106480.1
1009.581, 106467.1
1010.063, 106525.3
1010.545, 106588.9
1011.027, 106655.4
1011.510, 106702.6
1011.992, 106675.7
1012.474, 106654.9
1012.956, 106729.0
1013.438, 106873.7
1013.920, 106923.9
1014.402, 106839.7
1014.884, 106752.2
1015.367, 106687.0
1015.849, 106644.7
1016.331, 106647.2
1016.813, 106672.1
1017.295, 106656.3
1017.777, 106552.7
1018.259, 106489.2
1018.741, 106557.9
1019.223, 106660.2
1019.706, 106722.3
1020.188, 106741.1
1020.670, 106734.5
1021.152, 106698.4
1021.634, 106694.3
1022.116, 106802.5
1022.598, 106941.5
1023.080, 107012.9
1023.563, 107027.4
1024.045, 107060.2
1024.527, 107153.4
1025.009, 107219.3
1025.491, 107229.4
1025.973, 107211.6
1026.455, 107224.9
1026.937, 107259.5
1027.419, 107274.5
1027.901, 107253.8
1028.384, 107235.9
1028.866, 107260.6
1029.348, 107291.9
1029.830, 107294.4
1030.312, 107263.5
1030.794, 107267.8
1031.276, 107325.1
1031.758, 107340.7
1032.241, 107196.6
1032.723, 107005.4
1033.205, 106945.2
1033.687, 106995.3
1034.169, 107073.7
1034.651, 107168.8
1035.133, 107263.5
1035.615, 107346.9
1036.098, 107429.7
1036.580, 107536.1
1037.062, 107659.5
1037.544, 107773.5
1038.026, 107874.3
1038.508, 107939.8
1038.990, 107915.5
1039.472, 107872.1
1039.954, 107889.1
1040.437, 107985.6
1040.919, 107984.8
1041.401, 107859.3
1041.883, 107747.2
1042.365, 107746.6
1042.847, 107784.8
1043.329, 107678.2
1043.811, 107488.9
1044.293, 107380.1
1044.776, 107487.8
1045.258, 107598.4
1045.740, 107696.9
1046.222, 107750.3
1046.704, 107673.5
1047.186, 107473.7
1047.668, 107455.2
1048.150, 107648.7
1048.633, 107841.8
1049.115, 107815.0
1049.597, 107747.0
1050.079, 107787.0
1050.561, 107945.2
1051.043, 108110.1
1051.525, 108292.3
1052.007, 108437.1
1052.490, 108518.1
1052.972, 108562.3
1053.454, 108618.9
1053.936, 108676.3
1054.418, 108701.2
1054.900, 108614.6
1055.382, 108627.2
1055.864, 108874.4
1056.346, 109160.4
1056.828, 109353.2
1057.311, 109451.6
1057.793, 109460.9
1058.275, 109383.1
1058.757, 109304.8
1059.239, 109294.2
1059.721, 109300.9
1060.203, 109316.0
1060.685, 109322.4
1061.168, 109243.3
1061.650, 109023.8
1062.132, 108913.0
1062.614, 108983.2
1063.096, 109113.1
1063.578, 109132.0
1064.060, 109091.5
1064.542, 109082.3
1065.025, 109124.6
1065.507, 109175.2
1065.989, 109247.4
1066.471, 109292.0
1066.953, 109273.5
1067.435, 109207.0
1067.917, 109172.0
1068.399, 109170.7
1068.881, 109221.6
1069.364, 109358.9
1069.846, 109520.4
1070.328, 109688.2
1070.810, 109844.3
1071.292, 109961.7
1071.774, 110040.5
1072.256, 110054.0
1072.738, 109980.3
1073.220, 109929.0
1073.703, 110052.3
1074.185, 110234.0
1074.667, 110312.1
1075.149, 110284.4
1075.631, 110247.0
1076.113, 110209.2
1076.595, 110193.7
1077.077, 110224.0
1077.559, 110267.9
1078.042, 110246.2
1078.524, 110178.1
1079.006, 110113.4
1079.488, 110052.1
1079.970, 110053.4
1080.452, 110229.7
1080.934, 110417.5
1081.416, 110473.2
1081.899, 110389.8
1082.381, 110423.4
1082.863, 110576.9
1083.345, 110723.0
1083.827, 110753.0
1084.309, 110762.5
1084.791, 110831.7
1085.273, 110949.4
1085.755, 111099.0
1086.238, 111328.9
1086.720, 111467.2
1087.202, 111482.5
1087.684, 111453.7
1088.166, 111451.0
1088.648, 111474.8
1089.130, 111546.9
1089.612, 111665.3
1090.094, 111733.4
1090.577, 111621.6
1091.059, 111570.5
1091.541, 111693.0
1092.023, 111913.6
1092.505, 111994.2
1092.987, 111963.7
1093.469, 112020.1
1093.951, 112242.8
1094.434, 112480.9
1094.916, 112623.3
1095.398, 112733.1
1095.880, 112867.8
1096.362, 113031.4
1096.844, 113190.9
1097.326, 113347.4
1097.808, 113485.8
1098.291, 113578.7
1098.773, 113665.0
1099.255, 113809.5
1099.737, 113981.6
1100.219, 114108.4
1100.701, 114134.3
1101.183, 114191.4
1101.665, 114291.7
1102.147, 114419.4
1102.630, 114560.5
1103.112, 114712.5
1103.594, 114882.7
1104.076, 115065.5
1104.558, 115215.4
1105.040, 115278.3
1105.522, 115335.6
1106.004, 115394.1
1106.486, 115475.5
1106.969, 115674.0
1107.451, 115960.2
1107.933, 116146.1
1108.415, 116172.6
1108.897, 116150.0
1109.379, 116154.3
1109.861, 116144.8
1110.343, 116078.7
1110.826, 115958.7
1111.308, 115874.2
1111.790, 115827.3
1112.272, 115823.0
1112.754, 115905.1
1113.236, 115982.4
1113.718, 115917.9
1114.200, 115786.6
1114.682, 115721.3
1115.165, 115755.1
1115.647, 115824.4
1116.129, 115930.8
1116.611, 116055.5
1117.093, 116214.9
1117.575, 116364.3
1118.057, 116382.3
1118.539, 116296.1
1119.021, 116278.4
1119.504, 116473.4
1119.986, 116636.5
1120.468, 116711.9
1120.950, 116748.8
1121.432, 116852.4
1121.914, 116992.7
1122.396, 117036.3
1122.878, 116957.3
1123.361, 116891.3
1123.843, 116949.3
1124.325, 117007.4
1124.807, 116991.4
1125.289, 116919.5
1125.771, 116863.4
1126.253, 116824.6
1126.735, 116859.4
1127.218, 117031.1
1127.700, 117171.1
1128.182, 117043.1
1128.664, 116863.6
1129.146, 116907.3
1129.628, 117234.6
1130.110, 117380.4
1130.592, 117325.3
1131.074, 117215.6
1131.557, 117088.0
1132.039, 116996.9
1132.521, 117042.1
1133.003, 117173.1
1133.485, 117281.4
1133.967, 117385.6
1134.449, 117389.4
1134.931, 117262.1
1135.413, 117125.6
1135.896, 117137.9
1136.378, 117216.6
1136.860, 117204.0
1137.342, 117103.8
1137.824, 117012.2
1138.306, 116921.9
1138.788, 116903.0
1139.270, 116991.0
1139.752, 117121.5
1140.235, 117173.5
1140.717, 117169.3
1141.199, 117185.3
1141.681, 117233.7
1142.163, 117281.7
1142.645, 117334.9
1143.127, 117353.4
1143.609, 117300.0
1144.092, 117205.0
1144.574, 117232.1
1145.056, 117358.0
1145.538, 117388.8
1146.020, 117219.4
1146.502, 117050.2
1146.984, 117005.3
1147.466, 117036.3
1147.948, 117101.3
1148.431, 117203.6
1148.913, 117294.4
1149.395, 117373.5
1149.877, 117476.8
1150.359, 117657.4
1150.841, 117832.6
1151.323, 117904.7
1151.805, 117932.4
1152.287, 118033.2
1152.770, 118244.3
1153.252, 118372.5
1153.734, 118395.4
1154.216, 118414.9
1154.698, 118544.4
1155.180, 118700.7
1155.662, 118783.8
1156.144, 118808.2
1156.627, 118857.1
1157.109, 118943.2
1157.591, 119058.1
1158.073, 119219.5
1158.555, 119361.7
1159.037, 119389.0
1159.519, 119352.3
1160.001, 119316.7
1160.484, 119289.2
1160.966, 119292.4
1161.448, 119343.9
1161.930, 119397.8
1162.412, 119452.0
1162.894, 119482.3
1163.376, 119418.4
1163.858, 119299.4
1164.340, 119210.0
1164.823, 119168.5
1165.305, 119170.2
1165.787, 119262.6
1166.269, 119336.6
1166.751, 119319.5
1167.233, 119259.6
1167.715, 119358.9
1168.197, 119565.0
1168.679, 119670.5
1169.162, 119473.8
1169.644, 119393.4
1170.126, 119679.7
1170.608, 120029.5
1171.090, 120232.3
1171.572, 120295.9
1172.054, 120322.9
1172.536, 120323.6
1173.019, 120393.3
1173.501, 120687.9
1173.983, 120938.2
1174.465, 120978.5
1174.947, 120937.1
1175.429, 120956.9
1175.911, 121037.8
1176.393, 121142.4
1176.875, 121267.3
1177.358, 121351.9
1177.840, 121285.9
1178.322, 121236.4
1178.804, 121344.5
1179.286, 121536.1
1179.768, 121640.1
1180.250, 121653.2
1180.732, 121659.7
1181.214, 121665.3
1181.697, 121727.1
1182.179, 121981.9
1182.661, 122235.7
1183.143, 122274.8
1183.625, 122155.1
1184.107, 122246.4
1184.589, 122576.8
1185.071, 122736.4
1185.554, 122584.6
1186.036, 122383.0
1186.518, 122411.6
1187.000, 122513.3
1187.482, 122517.1
1187.964, 122411.4
1188.446, 122374.9
1188.928, 122421.8
1189.411, 122439.4
1189.893, 122361.5
1190.375, 122286.1
1190.857, 122373.7
1191.339, 122511.3
1191.821, 122538.0
1192.303, 122400.3
1192.785, 122324.7
1193.267, 122310.7
1193.750, 122358.6
1194.232, 122497.6
1194.714, 122664.9
1195.196, 122822.3
1195.678, 122940.8
1196.160, 122957.3
1196.642, 122762.6
1197.124, 122708.1
1197.606, 122820.9
1198.089, 122946.7
1198.571, 122965.4
1199.053, 122928.8
1199.535, 122862.6
1200.017, 122801.1
1200.499, 122845.2
1200.981, 123117.3
1201.463, 123234.3
1201.945, 123133.5
1202.428, 123014.6
1202.910, 123101.2
1203.392, 123266.8
1203.874, 123313.4
1204.356, 123265.0
1204.838, 123304.8
1205.320, 123507.6
1205.802, 123696.6
1206.285, 123863.3
1206.767, 123955.9
1207.249, 123821.0
1207.731, 123619.6
1208.213, 123602.8
1208.695, 123782.7
1209.177, 123966.2
1209.659, 124185.3
1210.141, 124242.8
1210.624, 124034.6
1211.106, 123793.0
1211.588, 123911.4
1212.070, 124182.5
1212.552, 124263.9
1213.034, 124088.9
1213.516, 124040.3
1213.998, 124222.4
1214.480, 124355.5
1214.963, 124337.6
1215.445, 124252.4
1215.927, 124240.4
1216.409, 124259.2
1216.891, 124237.4
1217.373, 124155.1
1217.855, 124074.6
1218.337, 123988.3
1218.820, 123944.9
1219.302, 123976.3
1219.784, 124050.2
1220.266, 124125.8
1220.748, 124195.3
1221.230, 124241.0
1221.712, 124251.8
1222.194, 124254.6
1222.677, 124245.7
1223.159, 124239.4
1223.641, 124242.8
1224.123, 124250.8
1224.605, 124249.8
1225.087, 124247.0
1225.569, 124256.8
1226.051, 124266.0
1226.533, 124340.5
1227.016, 124520.7
1227.498, 124646.8
1227.980, 124538.2
1228.462, 124349.9
1228.944, 124353.2
1229.426, 124479.7
1229.908, 124566.3
1230.390, 124533.6
1230.872, 124549.4
1231.355, 124632.4
1231.837, 124716.9
1232.319, 124743.0
1232.801, 124741.3
1233.283, 124734.2
1233.765, 124735.1
1234.247, 124788.6
1234.729, 124946.3
1235.212, 125023.2
1235.694, 124984.3
1236.176, 124947.8
1236.658, 125065.7
1237.140, 125218.3
1237.622, 125263.1
1238.104, 125205.5
1238.586, 125095.3
1239.068, 124905.5
1239.551, 124784.2
1240.033, 124753.5
1240.515, 124781.2
1240.997, 124876.7
1241.479, 124987.9
1241.961, 125082.3
1242.443, 125144.9
1242.925, 125104.4
1243.407, 124925.3
1243.890, 124808.5
1244.372, 124789.0
1244.854, 124819.1
1245.336, 124840.8
1245.818, 124889.3
1246.300, 125031.0
1246.782, 125240.4
1247.264, 125325.4
1247.747, 125263.9
1248.229, 125205.8
1248.711, 125182.2
1249.193, 125162.7
1249.675, 125132.6
1250.157, 125085.1
1250.639, 125001.8
1251.121, 124897.4
1251.604, 124856.0
1252.086, 124888.4
1252.568, 124836.3
1253.050, 124639.3
1253.532, 124479.2
1254.014, 124564.5
1254.496, 124710.2
1254.978, 124755.9
1255.460, 124720.3
1255.943, 124733.2
1256.425, 124788.5
1256.907, 124819.4
1257.389, 124787.4
1257.871, 124790.1
1258.353, 124972.3
1258.835, 125137.6
1259.317, 125155.9
1259.799, 125039.2
1260.281, 124795.2
1260.764, 124462.0
1261.246, 124316.2
1261.728, 124518.6
1262.210, 124692.1
1262.692, 124645.1
1263.174, 124496.5
1263.656, 124279.3
1264.138, 124042.1
1264.621, 124017.9
1265.103, 124163.2
1265.585, 124309.4
1266.067, 124427.1
1266.549, 124468.2
1267.031, 124295.4
1267.513, 124188.8
1267.995, 124324.0
1268.478, 124615.3
1268.960, 124801.0
1269.442, 124911.2
1269.924, 125036.6
1270.406, 125207.0
1270.888, 125382.7
1271.370, 125581.7
1271.852, 125718.0
1272.334, 125696.8
1272.817, 125604.6
1273.299, 125658.4
1273.781, 125799.4
1274.263, 125902.2
1274.745, 125922.8
1275.227, 125922.2
1275.709, 125904.6
1276.191, 125883.2
1276.673, 125878.5
1277.156, 125871.4
1277.638, 125824.2
1278.120, 125755.7
1278.602, 125693.7
1279.084, 125630.3
1279.566, 125635.8
1280.048, 125727.6
1280.530, 125789.2
1281.013, 125678.0
1281.495, 125564.9
1281.977, 125654.7
1282.459, 125852.1
1282.941, 126003.8
1283.423, 126095.1
1283.905, 126144.6
1284.387, 126149.0
1284.870, 126181.3
1285.352, 126319.8
1285.834, 126464.0
1286.316, 126537.2
1286.798, 126579.8
##END=



