##NAMES=Ahlfeldite
##RRUFFID=R100210
##IDEAL CHEMISTRY=Ni^2+^Se^4+^O_3_&#183;2H_2_O
##LOCALITY=El Dragon mine, Potosi, Bolivia
##OWNER=RRUFF
##SOURCE=William W Pinch
##DESCRIPTION=Pink crystalline massive associated with blue chalcomenite
##STATUS=The identification of this mineral has been confirmed only by single crystal X-ray diffraction.
##URL=rruff.info/R100210
202.4042, 27.67492
202.8864, 25.11506
203.3685, 21.11738
203.8506, 18.91679
204.3327, 19.05804
204.8148, 18.87092
205.2969, 16.17448
205.7791, 10.25380
206.2612, 7.215233
206.7433, 8.085349
207.2254, 11.50319
207.7075, 14.21975
208.1896, 16.29550
208.6718, 17.52149
209.1539, 17.41402
209.6360, 15.48932
210.1181, 14.83330
210.6002, 16.12851
211.0823, 18.50414
211.5645, 19.33424
212.0466, 18.01152
212.5287, 16.58883
213.0108, 16.32717
213.4929, 17.68466
213.9750, 18.38987
214.4572, 18.23591
214.9393, 17.39023
215.4214, 16.18621
215.9035, 14.27043
216.3856, 12.70558
216.8678, 12.18624
217.3499, 13.05004
217.8320, 13.85379
218.3141, 14.64711
218.7962, 15.30195
219.2783, 15.30550
219.7605, 14.30970
220.2426, 13.29556
220.7247, 12.74450
221.2068, 12.65295
221.6889, 13.09198
222.1710, 14.36942
222.6532, 16.10802
223.1353, 16.95485
223.6174, 16.25689
224.0995, 15.77364
224.5816, 16.59421
225.0637, 19.71077
225.5459, 21.60030
226.0280, 21.89270
226.5101, 20.95526
226.9922, 19.71950
227.4743, 17.50435
227.9564, 16.03711
228.4386, 16.29316
228.9207, 19.09221
229.4028, 21.61954
229.8849, 23.82535
230.3670, 25.73783
230.8492, 27.65346
231.3313, 30.31733
231.8134, 31.83858
232.2955, 31.01179
232.7776, 26.05056
233.2597, 23.00147
233.7419, 22.61530
234.2240, 23.95956
234.7061, 24.65842
235.1882, 24.59627
235.6703, 24.07368
236.1524, 23.05872
236.6346, 20.88088
237.1167, 19.80335
237.5988, 20.17277
238.0809, 21.50106
238.5630, 22.64780
239.0451, 23.32334
239.5273, 24.24832
240.0094, 25.94060
240.4915, 29.33980
240.9736, 30.90166
241.4557, 29.51513
241.9378, 26.79469
242.4200, 26.27155
242.9021, 29.46546
243.3842, 32.48510
243.8663, 33.79057
244.3484, 32.73816
244.8306, 31.86337
245.3127, 31.09611
245.7948, 30.54864
246.2769, 30.47200
246.7590, 31.06724
247.2411, 31.79340
247.7233, 32.50368
248.2054, 33.24244
248.6875, 33.88377
249.1696, 34.83655
249.6517, 35.42018
250.1338, 34.16972
250.6160, 29.31872
251.0981, 25.81547
251.5802, 25.48477
252.0623, 28.96921
252.5444, 32.50591
253.0265, 37.05591
253.5087, 40.84728
253.9908, 40.69001
254.4729, 33.78526
254.9550, 28.68619
255.4371, 28.69513
255.9192, 34.85451
256.4014, 37.45666
256.8835, 35.20441
257.3656, 30.67543
257.8477, 26.61123
258.3298, 22.43829
258.8120, 20.08394
259.2941, 20.61595
259.7762, 24.30246
260.2583, 26.30463
260.7404, 26.22808
261.2225, 24.98043
261.7047, 23.24102
262.1868, 20.39433
262.6689, 18.71613
263.1510, 19.04696
263.6331, 21.30954
264.1152, 22.80920
264.5974, 23.46792
265.0795, 23.46271
265.5616, 22.66687
266.0437, 20.51062
266.5258, 19.48038
267.0079, 20.42536
267.4901, 23.04432
267.9722, 24.52240
268.4543, 24.58520
268.9364, 24.08940
269.4185, 23.76832
269.9006, 23.75803
270.3828, 23.28759
270.8649, 22.03788
271.3470, 20.25315
271.8291, 19.06881
272.3112, 18.55085
272.7933, 18.42799
273.2755, 18.62934
273.7576, 19.23989
274.2397, 19.53672
274.7218, 19.27166
275.2039, 18.73004
275.6860, 18.76940
276.1682, 19.43397
276.6503, 20.51378
277.1324, 22.51651
277.6145, 25.66935
278.0966, 26.18122
278.5787, 22.93653
279.0609, 17.88680
279.5430, 15.40398
280.0251, 15.82581
280.5072, 16.81954
280.9893, 16.99357
281.4715, 16.35430
281.9536, 16.79432
282.4357, 18.80329
282.9178, 21.11863
283.3999, 21.10378
283.8820, 18.59887
284.3642, 16.64147
284.8463, 17.19699
285.3284, 19.97244
285.8105, 21.31222
286.2926, 20.91688
286.7747, 20.00655
287.2569, 20.63059
287.7390, 22.70199
288.2211, 23.89825
288.7032, 22.77880
289.1853, 19.93523
289.6674, 17.92908
290.1496, 16.77989
290.6317, 16.24721
291.1138, 16.38208
291.5959, 17.05846
292.0780, 17.39405
292.5602, 17.03143
293.0423, 16.16230
293.5244, 14.89239
294.0065, 13.18083
294.4886, 12.21121
294.9707, 14.06306
295.4529, 17.78842
295.9350, 19.79467
296.4171, 18.44098
296.8992, 15.56037
297.3813, 14.25735
297.8634, 14.45671
298.3456, 15.31105
298.8277, 16.47114
299.3098, 17.79651
299.7919, 19.09815
300.2740, 20.60667
300.7561, 21.56974
301.2383, 20.40148
301.7204, 17.53862
302.2025, 15.04388
302.6846, 14.30293
303.1667, 14.71083
303.6488, 15.54778
304.1310, 16.92935
304.6131, 18.00403
305.0952, 17.57532
305.5773, 16.09600
306.0594, 14.79483
306.5415, 14.28904
307.0237, 14.29761
307.5058, 14.55924
307.9879, 15.06406
308.4700, 15.71977
308.9521, 17.15441
309.4343, 18.62451
309.9164, 18.87053
310.3985, 15.79888
310.8806, 12.35023
311.3627, 10.93862
311.8448, 11.67694
312.3270, 12.75033
312.8091, 13.42032
313.2912, 13.70250
313.7733, 13.61531
314.2554, 12.33902
314.7375, 11.40807
315.2197, 11.87959
315.7018, 13.60153
316.1839, 15.23110
316.6660, 16.15799
317.1481, 16.74362
317.6302, 17.27591
318.1124, 17.93044
318.5945, 18.41818
319.0766, 18.73283
319.5587, 18.82563
320.0408, 18.53990
320.5229, 17.44188
321.0051, 16.22162
321.4872, 15.15304
321.9693, 13.80819
322.4514, 13.52978
322.9335, 15.82150
323.4156, 19.26993
323.8978, 21.15054
324.3799, 19.48003
324.8620, 17.48496
325.3441, 16.42930
325.8262, 16.92941
326.3083, 16.72858
326.7905, 14.03716
327.2726, 11.07192
327.7547, 10.58635
328.2368, 17.03128
328.7189, 21.39746
329.2010, 20.95991
329.6832, 15.07414
330.1653, 11.65044
330.6474, 12.17381
331.1295, 14.09179
331.6116, 15.39084
332.0938, 15.95129
332.5759, 16.05096
333.0580, 15.42820
333.5401, 14.24896
334.0222, 13.92444
334.5043, 15.28224
334.9865, 16.35137
335.4686, 15.66977
335.9507, 12.01797
336.4328, 10.00128
336.9149, 10.29410
337.3970, 12.15206
337.8792, 13.61632
338.3613, 14.63800
338.8434, 15.47072
339.3255, 16.41352
339.8076, 17.62217
340.2898, 17.49165
340.7719, 15.48897
341.2540, 13.06236
341.7361, 12.57858
342.2182, 14.26527
342.7003, 15.78456
343.1825, 16.18464
343.6646, 15.67690
344.1467, 15.77524
344.6288, 16.61069
345.1109, 17.39439
345.5930, 17.18134
346.0752, 16.07412
346.5573, 15.06762
347.0394, 14.30894
347.5215, 13.86943
348.0036, 14.13585
348.4857, 15.08560
348.9679, 15.84562
349.4500, 15.23945
349.9321, 13.90147
350.4142, 13.90086
350.8963, 15.96381
351.3784, 18.39062
351.8606, 18.71449
352.3427, 17.40454
352.8248, 16.19284
353.3069, 16.50565
353.7890, 17.32975
354.2711, 16.88148
354.7533, 14.81953
355.2354, 13.37346
355.7175, 15.41771
356.1996, 19.29725
356.6817, 22.12565
357.1638, 21.33103
357.6460, 20.01267
358.1281, 21.08719
358.6102, 24.33153
359.0923, 26.67080
359.5744, 25.10179
360.0565, 22.31879
360.5387, 20.97168
361.0208, 22.69666
361.5029, 24.86138
361.9850, 26.50824
362.4671, 27.70611
362.9492, 28.63699
363.4314, 29.33979
363.9135, 29.81110
364.3956, 30.00329
364.8777, 29.76013
365.3598, 29.60205
365.8419, 29.65312
366.3241, 29.85120
366.8062, 30.10410
367.2883, 31.52534
367.7704, 31.91512
368.2526, 30.12385
368.7347, 25.49579
369.2168, 22.41330
369.6989, 22.14069
370.1810, 22.67532
370.6631, 22.28776
371.1453, 19.29231
371.6274, 17.95404
372.1095, 19.64401
372.5916, 23.71265
373.0737, 25.71719
373.5558, 24.84470
374.0380, 23.14525
374.5201, 21.62821
375.0022, 20.26555
375.4843, 19.21576
375.9664, 18.46430
376.4485, 18.04656
376.9307, 18.16585
377.4128, 19.00104
377.8949, 19.59777
378.3770, 19.37584
378.8591, 18.40387
379.3412, 18.17688
379.8234, 18.84549
380.3055, 19.73457
380.7876, 20.05466
381.2697, 19.83903
381.7518, 19.61899
382.2339, 19.50568
382.7161, 19.49884
383.1982, 19.63602
383.6803, 19.91180
384.1624, 20.20181
384.6445, 20.48615
385.1266, 20.71066
385.6088, 20.68040
386.0909, 20.28791
386.5730, 19.88426
387.0551, 19.88533
387.5372, 20.21255
388.0193, 20.64487
388.5015, 21.66792
388.9836, 22.41295
389.4657, 21.32346
389.9478, 18.23747
390.4299, 16.06085
390.9120, 17.82989
391.3942, 21.33012
391.8763, 23.81336
392.3584, 24.12145
392.8405, 23.38642
393.3226, 21.70111
393.8047, 19.28924
394.2869, 17.17429
394.7690, 15.39171
395.2511, 14.27649
395.7332, 14.08305
396.2154, 15.10358
396.6975, 16.50990
397.1796, 18.74717
397.6617, 21.17997
398.1438, 22.70943
398.6259, 22.49397
399.1081, 22.06030
399.5902, 21.74559
400.0723, 21.54304
400.5544, 21.57906
401.0365, 22.57965
401.5186, 23.27597
402.0008, 22.36322
402.4829, 17.74355
402.9650, 15.64332
403.4471, 18.01776
403.9292, 23.42315
404.4113, 25.54138
404.8935, 23.35178
405.3756, 20.27699
405.8577, 17.65384
406.3398, 15.31836
406.8219, 15.05777
407.3040, 17.40636
407.7862, 20.84895
408.2683, 23.51319
408.7504, 25.40681
409.2325, 26.27020
409.7146, 25.46500
410.1967, 23.68694
410.6789, 23.44909
411.1610, 24.80490
411.6431, 26.30343
412.1252, 26.71325
412.6073, 26.26793
413.0894, 25.48582
413.5716, 24.25534
414.0537, 23.22854
414.5358, 23.53900
415.0179, 24.81307
415.5000, 25.84169
415.9821, 25.62488
416.4643, 25.00260
416.9464, 24.68427
417.4285, 24.70815
417.9106, 25.37159
418.3927, 27.48211
418.8748, 30.13858
419.3570, 32.23355
419.8391, 33.21371
420.3212, 33.75979
420.8033, 34.13265
421.2854, 34.31126
421.7675, 34.20814
422.2497, 33.61201
422.7318, 32.86647
423.2139, 32.04891
423.6960, 30.73485
424.1781, 30.30567
424.6602, 31.13596
425.1424, 32.88722
425.6245, 35.13135
426.1066, 39.37939
426.5887, 42.10836
427.0709, 41.78524
427.5530, 38.41323
428.0351, 37.31200
428.5172, 39.44952
428.9993, 42.52169
429.4814, 45.11332
429.9636, 47.41203
430.4457, 48.36131
430.9278, 47.46125
431.4099, 45.57477
431.8920, 44.55005
432.3741, 44.44379
432.8563, 44.69446
433.3384, 45.05246
433.8205, 45.54755
434.3026, 46.58942
434.7847, 48.29152
435.2668, 49.68595
435.7490, 49.40768
436.2311, 47.91717
436.7132, 46.80651
437.1953, 46.35464
437.6774, 46.66965
438.1595, 48.59383
438.6417, 51.65680
439.1238, 53.91030
439.6059, 53.59662
440.0880, 52.17514
440.5701, 51.11373
441.0522, 50.58351
441.5344, 50.32235
442.0165, 50.50899
442.4986, 50.75719
442.9807, 50.59117
443.4628, 49.32688
443.9449, 48.13519
444.4271, 47.52239
444.9092, 47.40554
445.3913, 47.27762
445.8734, 47.05442
446.3555, 46.76247
446.8376, 46.36652
447.3198, 45.56731
447.8019, 45.28307
448.2840, 46.29452
448.7661, 47.50956
449.2482, 47.22779
449.7303, 43.80860
450.2125, 41.74376
450.6946, 42.49267
451.1767, 45.79271
451.6588, 47.67954
452.1409, 47.94756
452.6230, 47.32270
453.1052, 46.12999
453.5873, 44.30385
454.0694, 42.45745
454.5515, 40.35407
455.0337, 38.83463
455.5158, 40.14433
455.9979, 44.04432
456.4800, 46.80920
456.9621, 46.10526
457.4442, 43.40256
457.9264, 42.06960
458.4085, 42.07853
458.8906, 42.66188
459.3727, 43.65310
459.8548, 44.70153
460.3369, 45.15503
460.8191, 44.67920
461.3012, 44.06200
461.7833, 43.86994
462.2654, 44.00697
462.7475, 44.27219
463.2296, 44.48053
463.7118, 44.87651
464.1939, 45.73378
464.6760, 47.08181
465.1581, 48.20148
465.6402, 49.18552
466.1223, 49.66125
466.6045, 49.34491
467.0866, 46.67316
467.5687, 45.10258
468.0508, 45.46425
468.5329, 46.97689
469.0150, 47.95017
469.4972, 48.33671
469.9793, 48.21483
470.4614, 47.31123
470.9435, 45.53025
471.4256, 45.21774
471.9077, 47.22675
472.3899, 49.00497
472.8720, 47.57373
473.3541, 42.48008
473.8362, 39.58624
474.3183, 40.09652
474.8004, 42.52197
475.2826, 43.99305
475.7647, 44.58882
476.2468, 45.43325
476.7289, 47.44649
477.2110, 50.05250
477.6931, 52.07723
478.1753, 53.51877
478.6574, 54.27098
479.1395, 53.60283
479.6216, 52.36860
480.1037, 51.89872
480.5858, 52.89322
481.0680, 54.05128
481.5501, 54.42506
482.0322, 54.31067
482.5143, 54.32009
482.9964, 54.80917
483.4786, 55.37732
483.9607, 55.89165
484.4428, 56.34533
484.9249, 56.61310
485.4070, 56.46220
485.8892, 56.24473
486.3713, 56.19805
486.8534, 56.01778
487.3355, 56.45842
487.8176, 57.64016
488.2997, 59.41619
488.7819, 61.88584
489.2640, 66.30595
489.7461, 68.43095
490.2282, 65.86733
490.7103, 59.03465
491.1924, 55.93953
491.6746, 57.18737
492.1567, 59.57931
492.6388, 60.25506
493.1209, 59.46096
493.6030, 59.36681
494.0851, 60.39861
494.5673, 61.83743
495.0494, 62.87824
495.5315, 63.49522
496.0136, 63.55996
496.4957, 62.48115
496.9778, 61.14109
497.4600, 60.85180
497.9421, 61.45598
498.4242, 61.38335
498.9063, 58.74851
499.3884, 55.56211
499.8705, 53.59168
500.3527, 53.57097
500.8348, 53.85140
501.3169, 54.78674
501.7990, 55.43389
502.2811, 54.44740
502.7632, 48.55811
503.2454, 44.28018
503.7275, 43.87207
504.2096, 46.89061
504.6917, 48.46920
505.1738, 48.06779
505.6559, 46.94976
506.1381, 45.59967
506.6202, 43.78723
507.1023, 42.68117
507.5844, 42.32588
508.0665, 42.59365
508.5486, 43.55711
509.0308, 45.24349
509.5129, 46.64447
509.9950, 47.64241
510.4771, 48.06789
510.9592, 47.10587
511.4413, 44.92521
511.9235, 43.11425
512.4056, 43.48989
512.8877, 44.56481
513.3698, 43.75577
513.8519, 40.74196
514.3340, 37.88924
514.8162, 36.75959
515.2983, 36.84483
515.7804, 37.59829
516.2625, 39.79058
516.7446, 41.43347
517.2267, 41.09413
517.7089, 39.58824
518.1910, 38.92137
518.6731, 41.38522
519.1552, 43.00653
519.6373, 41.82020
520.1194, 37.43177
520.6016, 34.51299
521.0837, 33.67049
521.5658, 33.65039
522.0479, 33.57319
522.5300, 33.32022
523.0121, 33.58815
523.4943, 34.80394
523.9764, 36.04887
524.4585, 34.91506
524.9406, 31.32962
525.4227, 29.57509
525.9048, 32.13487
526.3870, 37.12073
526.8691, 40.00483
527.3513, 40.86530
527.8334, 40.77703
528.3155, 40.01163
528.7976, 38.97419
529.2797, 38.50408
529.7618, 38.90174
530.2440, 38.60543
530.7261, 35.45214
531.2082, 31.28105
531.6903, 28.50305
532.1724, 29.21845
532.6545, 30.01447
533.1367, 29.56639
533.6188, 28.26652
534.1009, 27.52045
534.5830, 27.63906
535.0651, 28.26661
535.5472, 29.42450
536.0294, 31.24946
536.5115, 32.77514
536.9936, 34.32331
537.4757, 35.12558
537.9578, 34.19644
538.4399, 31.11808
538.9221, 28.89409
539.4042, 27.82574
539.8863, 27.70058
540.3684, 28.58385
540.8505, 30.35125
541.3326, 31.48440
541.8148, 30.92881
542.2969, 29.62226
542.7790, 29.18507
543.2611, 29.55705
543.7432, 30.22507
544.2253, 31.66314
544.7075, 32.78510
545.1896, 32.15079
545.6717, 29.22815
546.1538, 26.48771
546.6359, 24.86998
547.1180, 24.17251
547.6002, 24.20618
548.0823, 25.59789
548.5644, 26.94450
549.0465, 28.29453
549.5286, 29.43751
550.0107, 29.69402
550.4929, 28.21569
550.9750, 27.14890
551.4571, 27.43170
551.9392, 29.07617
552.4213, 29.47876
552.9034, 28.24463
553.3856, 27.01179
553.8677, 27.51031
554.3498, 29.52235
554.8319, 30.05012
555.3140, 28.40121
555.7961, 26.69316
556.2783, 28.55023
556.7604, 32.67900
557.2425, 35.35548
557.7246, 34.39248
558.2067, 32.23687
558.6888, 31.02690
559.1710, 30.58274
559.6531, 30.31857
560.1352, 30.15920
560.6173, 29.93303
561.0994, 29.47311
561.5815, 28.71884
562.0637, 28.14722
562.5458, 27.91541
563.0279, 27.86145
563.5100, 27.84920
563.9921, 27.73230
564.4742, 27.95480
564.9564, 28.75507
565.4385, 29.71790
565.9206, 30.15915
566.4027, 30.04614
566.8848, 29.46285
567.3669, 28.05547
567.8491, 26.39223
568.3312, 26.65048
568.8133, 28.75851
569.2954, 30.93230
569.7775, 32.18221
570.2596, 32.66127
570.7418, 32.24285
571.2239, 30.87492
571.7060, 30.04223
572.1881, 31.80486
572.6702, 34.29986
573.1523, 35.31580
573.6345, 33.11922
574.1166, 31.52054
574.5987, 32.99257
575.0808, 35.77251
575.5629, 36.94986
576.0450, 33.59873
576.5272, 31.36176
577.0093, 31.72230
577.4914, 34.24079
577.9735, 36.18884
578.4556, 37.77883
578.9377, 38.31810
579.4199, 37.00622
579.9020, 33.80735
580.3841, 31.80075
580.8662, 31.06837
581.3483, 31.09401
581.8304, 31.68031
582.3126, 32.64897
582.7947, 33.29103
583.2768, 33.33013
583.7589, 33.45730
584.2410, 34.76973
584.7231, 36.68168
585.2053, 38.03378
585.6874, 38.35894
586.1696, 37.97129
586.6517, 36.59213
587.1338, 34.50156
587.6159, 32.91872
588.0980, 32.23060
588.5801, 32.05349
589.0623, 32.30564
589.5444, 33.02251
590.0265, 33.90071
590.5086, 35.37321
590.9907, 36.45459
591.4728, 36.36083
591.9550, 35.00394
592.4371, 32.68641
592.9192, 28.87014
593.4013, 25.47800
593.8834, 26.01177
594.3655, 29.87118
594.8477, 33.37303
595.3298, 35.60217
595.8119, 36.50790
596.2940, 35.20572
596.7761, 32.33073
597.2582, 29.97514
597.7404, 28.85963
598.2225, 28.95782
598.7046, 31.28819
599.1867, 35.80524
599.6688, 38.10353
600.1509, 34.42038
600.6331, 29.89977
601.1152, 27.84429
601.5973, 29.53384
602.0794, 30.91203
602.5615, 32.08868
603.0436, 32.83619
603.5258, 32.75433
604.0079, 31.66536
604.4900, 30.72768
604.9721, 30.17511
605.4542, 29.80860
605.9363, 29.03747
606.4185, 27.96350
606.9006, 27.46364
607.3827, 28.71483
607.8648, 30.29460
608.3469, 29.38305
608.8290, 26.52356
609.3112, 24.82341
609.7933, 27.61794
610.2754, 31.21457
610.7575, 32.80652
611.2396, 31.85971
611.7217, 30.44617
612.2039, 28.17291
612.6860, 26.25851
613.1681, 25.65498
613.6502, 27.07089
614.1323, 28.66324
614.6144, 30.88782
615.0966, 32.85208
615.5787, 32.98666
616.0608, 30.91448
616.5429, 29.44398
617.0250, 29.36358
617.5071, 30.10993
617.9893, 30.49670
618.4714, 30.55544
618.9535, 30.52174
619.4356, 30.28973
619.9177, 30.16295
620.3998, 30.70914
620.8820, 31.84497
621.3641, 32.79321
621.8462, 32.85380
622.3283, 32.75541
622.8104, 33.28547
623.2925, 35.01785
623.7747, 35.44466
624.2568, 32.67059
624.7389, 29.31380
625.2210, 27.43940
625.7031, 27.37432
626.1852, 28.23619
626.6674, 30.49734
627.1495, 33.05902
627.6316, 33.77863
628.1137, 32.55898
628.5958, 31.98233
629.0779, 33.17357
629.5601, 34.99742
630.0422, 35.17887
630.5243, 33.94847
631.0064, 32.40230
631.4885, 30.24980
631.9706, 28.67495
632.4528, 29.46780
632.9349, 32.39099
633.4170, 34.45597
633.8991, 33.80882
634.3812, 32.30964
634.8633, 31.02955
635.3455, 30.18054
635.8276, 29.23053
636.3097, 27.80961
636.7918, 26.60895
637.2739, 26.21098
637.7560, 26.70457
638.2382, 27.80842
638.7203, 29.79269
639.2024, 31.80303
639.6845, 32.36171
640.1666, 31.63601
640.6487, 30.98942
641.1309, 30.85291
641.6130, 30.95956
642.0951, 31.25106
642.5772, 31.52178
643.0594, 31.17542
643.5415, 28.62160
644.0236, 26.49621
644.5057, 27.02499
644.9879, 29.87898
645.4700, 31.55781
645.9521, 30.22708
646.4342, 28.47262
646.9163, 27.40213
647.3984, 27.09831
647.8806, 26.81743
648.3627, 26.37769
648.8448, 26.29527
649.3269, 27.63880
649.8090, 30.39557
650.2911, 30.31260
650.7733, 26.54983
651.2554, 22.27727
651.7375, 21.30053
652.2196, 22.73548
652.7017, 24.53046
653.1838, 26.51870
653.6660, 27.90174
654.1481, 27.47955
654.6302, 26.11602
655.1123, 25.33202
655.5944, 27.20188
656.0765, 28.06347
656.5587, 25.37356
657.0408, 20.35309
657.5229, 18.86063
658.0050, 23.16797
658.4871, 27.18040
658.9692, 28.62255
659.4514, 27.75979
659.9335, 27.63885
660.4156, 28.36433
660.8977, 28.97338
661.3798, 28.55990
661.8619, 27.51599
662.3441, 26.81957
662.8262, 26.52606
663.3083, 26.61382
663.7904, 27.58263
664.2725, 28.67465
664.7546, 29.08762
665.2368, 28.66232
665.7189, 27.53789
666.2010, 23.99714
666.6831, 20.55321
667.1652, 20.32235
667.6473, 27.01792
668.1295, 30.69358
668.6116, 29.31364
669.0937, 25.57551
669.5758, 25.18925
670.0579, 28.61247
670.5400, 30.80795
671.0222, 29.78570
671.5043, 27.18913
671.9864, 26.66626
672.4685, 27.78802
672.9506, 28.43007
673.4327, 26.30070
673.9149, 23.96676
674.3970, 24.17252
674.8791, 26.58788
675.3612, 28.47242
675.8433, 28.22179
676.3254, 27.61092
676.8076, 27.64940
677.2897, 28.58059
677.7718, 28.85617
678.2539, 27.96168
678.7360, 27.12672
679.2181, 27.39324
679.7003, 28.94839
680.1824, 29.47050
680.6645, 28.71403
681.1466, 27.67601
681.6287, 27.17646
682.1108, 27.26594
682.5930, 28.35165
683.0751, 30.90384
683.5572, 33.11985
684.0393, 33.17247
684.5214, 32.02647
685.0035, 31.06908
685.4857, 30.71878
685.9678, 30.62987
686.4499, 30.86673
686.9320, 31.29576
687.4141, 31.57986
687.8962, 31.38676
688.3784, 31.66720
688.8605, 32.60939
689.3426, 34.17967
689.8247, 36.66554
690.3068, 40.15399
690.7889, 42.76036
691.2711, 43.22279
691.7532, 42.35755
692.2353, 41.20971
692.7174, 39.97786
693.1995, 39.84620
693.6816, 42.70907
694.1638, 46.08240
694.6459, 48.21021
695.1280, 48.92921
695.6101, 48.82331
696.0922, 46.12537
696.5743, 44.27865
697.0565, 45.46894
697.5386, 50.88752
698.0207, 54.33794
698.5028, 55.44556
698.9849, 55.38407
699.4670, 54.91160
699.9492, 54.10292
700.4313, 53.68972
700.9135, 53.72804
701.3956, 54.32290
701.8777, 55.90570
702.3598, 58.05112
702.8419, 60.07381
703.3240, 61.89970
703.8062, 63.33607
704.2883, 64.05483
704.7704, 64.37717
705.2525, 64.75819
705.7346, 65.89653
706.2167, 66.30376
706.6989, 65.93761
707.1810, 64.71507
707.6631, 61.90813
708.1452, 57.04637
708.6273, 53.74964
709.1094, 53.42820
709.5916, 55.04334
710.0737, 56.87853
710.5558, 58.71681
711.0379, 59.51685
711.5200, 58.04353
712.0021, 55.78371
712.4843, 53.75605
712.9664, 52.01932
713.4485, 50.74556
713.9306, 49.79755
714.4127, 49.52526
714.8948, 50.62535
715.3770, 53.13158
715.8591, 54.01654
716.3412, 52.64986
716.8233, 50.90901
717.3054, 49.97632
717.7875, 49.78831
718.2697, 48.67466
718.7518, 46.54437
719.2339, 44.60332
719.7160, 43.84800
720.1981, 43.97141
720.6802, 44.84315
721.1624, 46.56752
721.6445, 47.50526
722.1266, 45.71919
722.6087, 43.27947
723.0908, 42.03965
723.5729, 43.16206
724.0551, 43.72881
724.5372, 43.36280
725.0193, 42.62793
725.5014, 42.12513
725.9835, 41.93940
726.4656, 41.35592
726.9478, 40.11552
727.4299, 38.94136
727.9120, 39.20841
728.3941, 40.43390
728.8762, 40.95931
729.3583, 39.89886
729.8405, 38.93158
730.3226, 39.44668
730.8047, 41.01172
731.2868, 42.89178
731.7689, 45.43922
732.2510, 47.62157
732.7332, 49.71325
733.2153, 51.18388
733.6974, 50.58540
734.1795, 46.83358
734.6616, 43.99991
735.1437, 43.22118
735.6259, 43.90126
736.1080, 44.82064
736.5901, 45.92574
737.0722, 46.74150
737.5543, 46.94213
738.0364, 46.80939
738.5186, 46.64337
739.0007, 46.42205
739.4828, 46.06264
739.9649, 44.32678
740.4470, 43.59771
740.9291, 45.84043
741.4113, 50.74197
741.8934, 53.44759
742.3755, 53.25997
742.8576, 52.05301
743.3397, 49.96745
743.8218, 47.34499
744.3040, 47.65266
744.7861, 50.96910
745.2682, 53.96997
745.7503, 54.21021
746.2324, 52.74879
746.7145, 50.96301
747.1967, 48.95625
747.6788, 47.31304
748.1609, 46.61295
748.6430, 46.19027
749.1251, 45.56825
749.6072, 44.60993
750.0894, 43.94889
750.5715, 43.59442
751.0536, 43.54734
751.5357, 44.12378
752.0178, 45.49650
752.4999, 44.94890
752.9821, 42.14732
753.4642, 39.58614
753.9463, 40.63325
754.4284, 43.40176
754.9105, 43.61396
755.3926, 40.43805
755.8748, 37.75383
756.3569, 39.20188
756.8390, 41.58595
757.3211, 41.95471
757.8032, 38.74259
758.2853, 35.86263
758.7675, 33.37466
759.2496, 31.47706
759.7318, 30.26671
760.2139, 29.70942
760.6960, 30.37826
761.1781, 32.56245
761.6602, 35.10329
762.1423, 36.73634
762.6245, 37.61454
763.1066, 38.12363
763.5887, 38.38732
764.0708, 38.16187
764.5529, 36.73228
765.0350, 34.93965
765.5172, 33.78152
765.9993, 34.42635
766.4814, 34.40565
766.9635, 33.17959
767.4456, 31.54664
767.9277, 30.59170
768.4099, 30.42173
768.8920, 30.00171
769.3741, 28.88100
769.8562, 28.17329
770.3383, 30.48701
770.8204, 34.55347
771.3026, 36.84099
771.7847, 35.62954
772.2668, 33.53388
772.7489, 31.43499
773.2310, 29.84274
773.7131, 29.57539
774.1953, 32.92418
774.6774, 34.76698
775.1595, 33.60933
775.6416, 31.24593
776.1237, 31.31764
776.6058, 34.26815
777.0880, 36.11320
777.5701, 35.53613
778.0522, 34.06111
778.5343, 34.25298
779.0164, 35.67455
779.4985, 37.09622
779.9807, 38.45004
780.4628, 39.10560
780.9449, 38.03883
781.4270, 36.06044
781.9091, 34.83681
782.3912, 35.23638
782.8734, 35.76304
783.3555, 36.13772
783.8376, 36.55757
784.3197, 37.66281
784.8018, 39.55135
785.2839, 41.04602
785.7661, 41.69915
786.2482, 41.88487
786.7303, 41.95555
787.2124, 42.04963
787.6945, 42.56228
788.1766, 44.72185
788.6588, 46.29393
789.1409, 44.94401
789.6230, 42.10310
790.1051, 41.98415
790.5872, 47.60443
791.0693, 51.79182
791.5515, 52.74851
792.0336, 51.54227
792.5157, 50.86920
792.9978, 50.72721
793.4799, 51.70279
793.9620, 54.55135
794.4442, 58.01093
794.9263, 60.08497
795.4084, 61.24856
795.8905, 62.85027
796.3726, 66.92552
796.8547, 70.06075
797.3369, 68.93916
797.8190, 65.59226
798.3011, 67.13667
798.7832, 76.58729
799.2653, 85.12940
799.7474, 90.54507
800.2296, 93.73360
800.7117, 96.71225
801.1938, 99.57012
801.6759, 103.3430
802.1580, 109.0975
802.6401, 115.2973
803.1223, 119.8636
803.6044, 123.4091
804.0865, 127.4479
804.5686, 133.0943
805.0507, 138.7475
805.5328, 143.9920
806.0150, 148.8947
806.4971, 153.6399
806.9792, 158.2011
807.4613, 162.6655
807.9434, 166.9657
808.4255, 171.2871
808.9077, 176.6095
809.3898, 182.5676
809.8719, 187.5166
810.3540, 190.4734
810.8361, 192.4079
811.3182, 194.2653
811.8004, 195.6663
812.2825, 195.7643
812.7646, 193.9073
813.2467, 191.1812
813.7288, 187.6980
814.2109, 183.5383
814.6931, 178.9652
815.1752, 173.9412
815.6573, 168.5288
816.1394, 162.7155
816.6215, 156.5008
817.1037, 150.0992
817.5858, 143.3266
818.0679, 135.5161
818.5500, 124.3190
819.0322, 114.2367
819.5143, 108.3780
819.9964, 105.1719
820.4785, 101.5392
820.9606, 97.38941
821.4427, 92.56813
821.9249, 86.59750
822.4070, 80.39249
822.8891, 76.10505
823.3712, 73.57711
823.8533, 71.06370
824.3354, 67.99176
824.8176, 64.85011
825.2997, 62.39730
825.7818, 60.23805
826.2639, 57.74819
826.7460, 54.02694
827.2281, 50.75928
827.7103, 48.48410
828.1924, 46.75855
828.6745, 45.05531
829.1566, 43.46511
829.6387, 41.44123
830.1208, 38.65808
830.6030, 36.03016
831.0851, 35.34369
831.5672, 36.00444
832.0493, 36.43970
832.5314, 36.30904
833.0135, 35.64999
833.4957, 33.69040
833.9778, 31.56930
834.4599, 30.60130
834.9420, 32.91909
835.4241, 33.54641
835.9063, 31.21641
836.3884, 28.70708
836.8705, 30.39205
837.3526, 36.06855
837.8347, 37.65266
838.3168, 33.59456
838.7990, 28.51522
839.2811, 27.08043
839.7632, 27.70574
840.2453, 28.30591
840.7274, 28.50498
841.2095, 28.52657
841.6917, 27.75623
842.1738, 27.35424
842.6559, 28.47405
843.1380, 32.15379
843.6201, 33.44165
844.1022, 31.90881
844.5844, 29.46067
845.0665, 27.42202
845.5486, 25.91629
846.0307, 25.62493
846.5128, 26.63147
846.9949, 27.36991
847.4771, 26.11811
847.9592, 24.66418
848.4413, 24.72692
848.9234, 27.05526
849.4055, 27.51530
849.8876, 24.77012
850.3698, 22.14748
850.8519, 21.93739
851.3340, 23.86968
851.8161, 24.43886
852.2982, 23.65163
852.7803, 22.47872
853.2625, 20.75775
853.7446, 19.59784
854.2267, 20.63634
854.7088, 23.71059
855.1909, 26.30204
855.6730, 27.82119
856.1552, 28.37719
856.6373, 27.79626
857.1194, 26.23712
857.6015, 24.88110
858.0836, 23.67669
858.5657, 23.01515
859.0479, 23.46933
859.5300, 24.30415
860.0121, 23.63396
860.4942, 22.00332
860.9763, 21.33866
861.4584, 24.05148
861.9406, 26.47688
862.4227, 26.41115
862.9048, 24.62782
863.3869, 24.12758
863.8690, 25.82354
864.3511, 26.33383
864.8333, 24.20109
865.3154, 21.29725
865.7975, 22.54635
866.2796, 26.78005
866.7617, 28.73661
867.2438, 25.19361
867.7260, 21.17306
868.2081, 20.57752
868.6902, 21.96930
869.1723, 23.06428
869.6544, 23.06236
870.1365, 23.27335
870.6187, 23.97049
871.1008, 24.67211
871.5829, 24.96840
872.0650, 24.81697
872.5471, 22.68901
873.0292, 17.76874
873.5114, 13.92319
873.9935, 16.60618
874.4756, 22.06471
874.9577, 25.56340
875.4399, 25.87641
875.9220, 25.25273
876.4041, 23.13355
876.8862, 21.18724
877.3683, 20.65646
877.8505, 21.84745
878.3326, 22.28823
878.8147, 21.89246
879.2968, 21.37420
879.7789, 21.64498
880.2610, 22.07917
880.7432, 21.40557
881.2253, 19.60094
881.7074, 18.15157
882.1895, 17.68019
882.6716, 17.83198
883.1537, 18.66563
883.6359, 20.10371
884.1180, 20.97159
884.6001, 21.13685
885.0822, 21.31003
885.5643, 21.85414
886.0464, 22.62927
886.5286, 23.63528
887.0107, 24.66168
887.4928, 24.83763
887.9749, 22.38777
888.4570, 20.30045
888.9391, 20.47757
889.4213, 22.26575
889.9034, 23.46369
890.3855, 23.97948
890.8676, 23.91298
891.3497, 23.08238
891.8318, 21.96307
892.3140, 21.34910
892.7961, 21.19874
893.2782, 21.42357
893.7603, 22.22027
894.2424, 22.85180
894.7245, 22.49401
895.2067, 21.76955
895.6888, 21.44598
896.1709, 22.19726
896.6530, 22.46386
897.1351, 22.17737
897.6172, 21.50894
898.0994, 20.26666
898.5815, 18.65073
899.0636, 18.39093
899.5457, 19.71483
900.0278, 21.24655
900.5099, 22.07812
900.9921, 22.45620
901.4742, 22.42391
901.9563, 21.86663
902.4384, 22.03322
902.9205, 23.73443
903.4026, 25.16075
903.8848, 25.36286
904.3669, 24.49412
904.8490, 23.72269
905.3311, 23.06210
905.8132, 22.75497
906.2953, 23.72799
906.7775, 24.52011
907.2596, 23.06604
907.7417, 20.09656
908.2238, 18.18405
908.7059, 18.88975
909.1880, 19.78742
909.6702, 20.73341
910.1523, 21.34885
910.6344, 20.12161
911.1165, 17.12092
911.5986, 15.89614
912.0807, 17.95022
912.5629, 20.80323
913.0450, 21.92927
913.5271, 21.88932
914.0092, 21.47144
914.4913, 20.46054
914.9734, 19.89217
915.4556, 20.36658
915.9377, 20.91061
916.4198, 20.34505
916.9019, 18.52728
917.3840, 18.43874
917.8661, 20.40197
918.3483, 22.49950
918.8304, 22.66916
919.3125, 22.16901
919.7946, 22.96494
920.2767, 25.26339
920.7589, 26.18705
921.2410, 24.00970
921.7231, 21.05782
922.2052, 17.68405
922.6873, 14.16525
923.1694, 13.26210
923.6516, 15.04027
924.1337, 17.39081
924.6158, 20.07015
925.0979, 22.03523
925.5800, 20.99269
926.0621, 18.13362
926.5443, 16.42004
927.0264, 17.88676
927.5085, 19.37875
927.9906, 20.55166
928.4727, 21.19865
928.9548, 20.68999
929.4370, 18.96655
929.9191, 17.73512
930.4012, 17.19509
930.8833, 17.67106
931.3654, 20.74995
931.8475, 24.54862
932.3297, 26.38984
932.8118, 25.22790
933.2939, 23.96587
933.7761, 23.15225
934.2582, 22.55343
934.7403, 21.97861
935.2224, 21.41061
935.7045, 21.52098
936.1866, 22.32371
936.6688, 23.44001
937.1509, 25.25495
937.6330, 26.79313
938.1151, 26.74271
938.5972, 25.32107
939.0793, 23.78226
939.5615, 22.37930
940.0436, 20.98634
940.5257, 19.31845
941.0078, 17.78101
941.4899, 17.73403
941.9720, 19.12207
942.4542, 20.49510
942.9363, 21.48447
943.4184, 22.22760
943.9005, 23.24857
944.3826, 23.97600
944.8647, 23.49805
945.3469, 20.11210
945.8290, 18.47674
946.3111, 19.82806
946.7932, 21.82402
947.2753, 22.25089
947.7574, 21.23049
948.2396, 21.63374
948.7217, 23.57276
949.2038, 24.81034
949.6859, 22.55974
950.1680, 19.60343
950.6501, 18.55532
951.1323, 19.45627
951.6144, 20.10232
952.0965, 20.38994
952.5786, 20.03706
953.0607, 18.54882
953.5428, 16.63143
954.0250, 16.82299
954.5071, 18.72718
954.9892, 19.95818
955.4713, 19.15704
955.9534, 18.11994
956.4355, 18.27255
956.9177, 19.00402
957.3998, 19.42894
957.8819, 19.28683
958.3640, 19.05964
958.8461, 18.58318
959.3282, 18.37571
959.8104, 19.47735
960.2925, 21.30809
960.7746, 21.50046
961.2567, 19.87593
961.7388, 18.58701
962.2209, 19.06219
962.7031, 20.30940
963.1852, 22.07845
963.6673, 24.23492
964.1494, 25.23650
964.6315, 24.95963
965.1136, 23.84354
965.5958, 21.66685
966.0779, 19.17485
966.5600, 17.80585
967.0421, 17.38371
967.5242, 17.47637
968.0063, 18.10661
968.4885, 18.94731
968.9706, 20.46851
969.4527, 21.79984
969.9348, 21.71889
970.4169, 19.74334
970.8990, 18.76853
971.3812, 19.03000
971.8633, 19.89771
972.3454, 21.66600
972.8275, 23.19466
973.3096, 22.03822
973.7917, 18.05892
974.2739, 15.64005
974.7560, 17.85540
975.2381, 20.32060
975.7202, 21.39570
976.2023, 21.33809
976.6844, 21.41708
977.1666, 21.63168
977.6487, 21.87675
978.1308, 22.29786
978.6129, 22.43176
979.0950, 21.36537
979.5771, 19.79150
980.0593, 18.84065
980.5414, 18.92078
981.0235, 19.57547
981.5056, 21.15802
981.9877, 22.75941
982.4698, 23.72367
982.9520, 23.97320
983.4341, 22.47578
983.9162, 19.19958
984.3983, 16.59617
984.8804, 17.05936
985.3625, 18.32701
985.8447, 18.90806
986.3268, 18.70792
986.8089, 18.19457
987.2910, 17.07928
987.7731, 16.49395
988.2552, 16.89070
988.7374, 17.91315
989.2195, 19.20015
989.7016, 20.49466
990.1837, 21.06227
990.6658, 20.31224
991.1479, 19.48705
991.6301, 19.27823
992.1122, 19.11442
992.5944, 18.27311
993.0765, 16.42686
993.5586, 16.01962
994.0407, 17.25408
994.5228, 18.48503
995.0049, 17.78863
995.4871, 16.63301
995.9692, 17.26126
996.4513, 19.46585
996.9334, 21.16566
997.4155, 21.15574
997.8976, 21.22187
998.3798, 21.74801
998.8619, 22.64165
999.3440, 24.30039
999.8261, 26.46499
1000.308, 26.25469
1000.790, 22.14834
1001.272, 18.11721
1001.755, 17.96259
1002.237, 19.35942
1002.719, 19.67016
1003.201, 17.72118
1003.683, 17.64582
1004.165, 20.09211
1004.647, 22.78370
1005.129, 24.71925
1005.612, 25.68663
1006.094, 24.21651
1006.576, 20.96822
1007.058, 18.97639
1007.540, 21.64005
1008.022, 23.85424
1008.504, 22.63140
1008.986, 19.94329
1009.468, 19.19813
1009.951, 20.62958
1010.433, 22.51837
1010.915, 24.94989
1011.397, 26.20123
1011.879, 22.42884
1012.361, 17.37226
1012.843, 16.19989
1013.325, 20.25973
1013.807, 23.00561
1014.290, 23.03873
1014.772, 21.96930
1015.254, 19.88299
1015.736, 17.39542
1016.218, 17.14043
1016.700, 18.87450
1017.182, 21.27764
1017.664, 25.24867
1018.147, 27.76497
1018.629, 24.98667
1019.111, 20.29691
1019.593, 19.09470
1020.075, 23.26771
1020.557, 25.62013
1021.039, 25.70953
1021.521, 24.55941
1022.003, 22.23846
1022.486, 19.72029
1022.968, 19.17660
1023.450, 20.50367
1023.932, 21.26352
1024.414, 19.49894
1024.896, 18.20367
1025.378, 18.50290
1025.860, 19.85046
1026.343, 20.84227
1026.825, 21.45979
1027.307, 21.61860
1027.789, 21.22372
1028.271, 20.58986
1028.753, 19.62452
1029.235, 18.77822
1029.717, 18.59313
1030.199, 19.29087
1030.682, 20.26349
1031.164, 21.79431
1031.646, 22.81976
1032.128, 22.11528
1032.610, 20.63412
1033.092, 21.15662
1033.574, 23.16034
1034.056, 24.70915
1034.539, 25.22189
1035.021, 24.75425
1035.503, 22.47564
1035.985, 19.77746
1036.467, 18.61432
1036.949, 19.04001
1037.431, 19.08118
1037.913, 18.46349
1038.396, 18.07241
1038.878, 18.83306
1039.360, 20.09739
1039.842, 21.43732
1040.324, 22.78657
1040.806, 23.63756
1041.288, 23.93233
1041.770, 23.81573
1042.252, 23.14627
1042.734, 22.35175
1043.217, 22.68695
1043.699, 23.59261
1044.181, 23.43780
1044.663, 20.93394
1045.145, 19.20921
1045.627, 20.15000
1046.109, 21.79902
1046.591, 22.74524
1047.074, 22.96093
1047.556, 23.24865
1048.038, 23.61163
1048.520, 23.69428
1049.002, 23.43784
1049.484, 22.64928
1049.966, 20.44662
1050.448, 17.58493
1050.931, 16.23723
1051.413, 17.10778
1051.895, 18.41632
1052.377, 20.28273
1052.859, 21.77194
1053.341, 21.05784
1053.823, 19.29971
1054.305, 19.36107
1054.787, 21.57740
1055.270, 23.45200
1055.752, 24.23390
1056.234, 23.91636
1056.716, 21.96277
1057.198, 19.12473
1057.680, 18.63151
1058.162, 20.33792
1058.644, 22.05170
1059.126, 23.21837
1059.609, 23.78355
1060.091, 23.75241
1060.573, 23.05278
1061.055, 21.18646
1061.537, 17.13593
1062.019, 16.32802
1062.501, 19.63392
1062.983, 22.98342
1063.466, 23.43588
1063.948, 22.26028
1064.430, 21.85922
1064.912, 21.86463
1065.394, 21.16865
1065.876, 17.74221
1066.358, 15.87164
1066.840, 16.88163
1067.323, 18.91052
1067.805, 19.66428
1068.287, 19.32977
1068.769, 19.17704
1069.251, 19.31048
1069.733, 19.46360
1070.215, 19.06731
1070.697, 18.97699
1071.179, 20.05816
1071.661, 21.97937
1072.144, 23.30245
1072.626, 23.94315
1073.108, 24.56894
1073.590, 25.49504
1074.072, 26.00674
1074.554, 24.98530
1075.036, 23.09723
1075.518, 20.92942
1076.001, 18.18429
1076.483, 17.37539
1076.965, 19.64429
1077.447, 21.76143
1077.929, 21.99357
1078.411, 20.91057
1078.893, 19.36092
1079.375, 17.85695
1079.858, 18.14086
1080.340, 23.19598
1080.822, 26.92220
1081.304, 25.75969
1081.786, 23.40123
1082.268, 23.43966
1082.750, 25.95127
1083.232, 26.29810
1083.714, 24.39240
1084.197, 22.07091
1084.679, 19.89925
1085.161, 18.50574
1085.643, 18.75122
1086.125, 20.19398
1086.607, 21.34624
1087.089, 22.19534
1087.571, 22.50772
1088.054, 22.04910
1088.536, 21.81356
1089.018, 23.46995
1089.500, 25.85488
1089.982, 27.46991
1090.464, 28.15228
1090.946, 27.64332
1091.428, 25.37748
1091.911, 22.65545
1092.393, 19.26631
1092.875, 16.31556
1093.357, 17.38759
1093.839, 21.16996
1094.321, 23.44677
1094.803, 22.57834
1095.285, 21.62726
1095.767, 22.39518
1096.250, 23.23463
1096.732, 22.95202
1097.214, 21.62583
1097.696, 20.65057
1098.178, 20.04030
1098.660, 20.12634
1099.142, 21.76149
1099.624, 23.34032
1100.106, 23.85991
1100.589, 23.41974
1101.071, 21.98660
1101.553, 18.70703
1102.035, 17.52101
1102.517, 18.72403
1102.999, 20.74265
1103.481, 22.91707
1103.963, 24.68753
1104.446, 24.86593
1104.928, 23.85726
1105.410, 23.43649
1105.892, 24.73279
1106.374, 25.40112
1106.856, 25.12602
1107.338, 24.13497
1107.820, 22.08239
1108.302, 19.70020
1108.785, 18.75487
1109.267, 19.45722
1109.749, 20.70303
1110.231, 22.49850
1110.713, 24.24519
1111.195, 25.99800
1111.677, 27.40676
1112.159, 27.11942
1112.641, 25.45782
1113.124, 24.52450
1113.606, 25.02431
1114.088, 25.52820
1114.570, 24.77397
1115.052, 23.88068
1115.534, 23.82157
1116.016, 24.55348
1116.498, 25.00766
1116.981, 25.18988
1117.463, 24.96267
1117.945, 23.92758
1118.427, 22.99998
1118.909, 23.78402
1119.391, 24.96260
1119.873, 24.41034
1120.355, 20.73134
1120.838, 19.24267
1121.320, 20.43463
1121.802, 21.70426
1122.284, 20.27672
1122.766, 18.42029
1123.248, 20.52093
1123.730, 25.04536
1124.212, 27.83630
1124.694, 26.93731
1125.177, 24.98416
1125.659, 21.50771
1126.141, 18.32345
1126.623, 17.52055
1127.105, 18.48245
1127.587, 19.89324
1128.069, 21.57010
1128.551, 22.83263
1129.033, 23.43987
1129.516, 23.45472
1129.998, 22.80055
1130.480, 21.74200
1130.962, 20.43895
1131.444, 19.06730
1131.926, 18.61328
1132.408, 19.24631
1132.890, 20.04227
1133.373, 20.22351
1133.855, 20.63448
1134.337, 22.19544
1134.819, 24.27987
1135.301, 24.35859
1135.783, 22.51418
1136.265, 21.05054
1136.747, 20.51416
1137.229, 20.69748
1137.712, 22.14095
1138.194, 23.69291
1138.676, 24.34180
1139.158, 24.08406
1139.640, 22.81690
1140.122, 20.29433
1140.604, 19.27238
1141.086, 21.88276
1141.569, 24.60584
1142.051, 22.19080
1142.533, 18.05699
1143.015, 17.06582
1143.497, 21.17756
1143.979, 24.29533
1144.461, 26.55001
1144.943, 27.14313
1145.426, 24.49928
1145.908, 20.78517
1146.390, 19.12120
1146.872, 19.17271
1147.354, 20.23089
1147.836, 23.92921
1148.318, 25.56489
1148.800, 24.34031
1149.282, 22.67958
1149.765, 22.72473
1150.247, 23.79816
1150.729, 24.61482
1151.211, 25.10181
1151.693, 25.13443
1152.175, 24.33511
1152.657, 23.50549
1153.139, 22.73627
1153.621, 22.05603
1154.104, 21.43363
1154.586, 20.93263
1155.068, 20.83831
1155.550, 21.13466
1156.032, 21.46153
1156.514, 21.30034
1156.996, 21.60692
1157.478, 22.81655
1157.961, 24.46906
1158.443, 25.82813
1158.925, 26.90502
1159.407, 27.88521
1159.889, 28.80275
1160.371, 29.03090
1160.853, 27.06618
1161.335, 25.52946
1161.818, 26.21343
1162.300, 25.35487
1162.782, 25.37853
1163.264, 26.40819
1163.746, 26.01796
1164.228, 27.92992
1164.710, 29.30191
1165.192, 27.27390
1165.674, 24.59300
1166.156, 23.12700
1166.639, 22.81341
1167.121, 23.65390
1167.603, 25.63153
1168.085, 26.48267
1168.567, 24.96750
1169.049, 23.68795
1169.531, 25.57343
1170.013, 28.33046
1170.496, 29.49622
1170.978, 28.98038
1171.460, 29.57720
1171.942, 31.42556
1172.424, 31.84366
1172.906, 28.86254
1173.388, 25.32157
1173.870, 23.40554
1174.353, 23.00627
1174.835, 24.40380
1175.317, 28.04400
1175.799, 30.40754
1176.281, 31.43396
1176.763, 31.81132
1177.245, 31.92184
1177.727, 31.60601
1178.209, 30.00350
1178.692, 28.07991
1179.174, 27.67359
1179.656, 30.21093
1180.138, 30.57105
1180.620, 28.33724
1181.102, 26.07719
1181.584, 25.42309
1182.066, 25.96071
1182.548, 28.19971
1183.031, 31.06323
1183.513, 31.95923
1183.995, 29.52241
1184.477, 27.21376
1184.959, 24.91709
1185.441, 23.69372
1185.923, 25.20686
1186.405, 27.86746
1186.888, 29.94592
1187.370, 31.26661
1187.852, 31.30359
1188.334, 29.00165
1188.816, 27.46107
1189.298, 26.95218
1189.780, 27.27690
1190.262, 29.17444
1190.745, 31.23952
1191.227, 30.71492
1191.709, 28.10491
1192.191, 26.86717
1192.673, 28.87295
1193.155, 29.83421
1193.637, 28.85604
1194.119, 27.57336
1194.601, 28.01993
1195.084, 29.42016
1195.566, 30.67038
1196.048, 31.67185
1196.530, 32.44577
1197.012, 33.24162
1197.494, 33.26098
1197.976, 32.09025
1198.458, 30.71239
1198.941, 30.67833
1199.423, 31.32670
1199.905, 31.40004
1200.387, 30.79305
1200.869, 30.87013
1201.351, 32.66121
1201.833, 33.43415
1202.315, 32.08086
1202.797, 30.32291
1203.280, 31.67025
1203.762, 34.27705
1204.244, 34.45418
1204.726, 31.49053
1205.208, 30.24160
1205.690, 32.96515
1206.172, 34.28354
1206.654, 31.84653
1207.136, 28.55849
1207.619, 30.47425
1208.101, 34.81255
1208.583, 36.57650
1209.065, 34.57837
1209.547, 32.38449
1210.029, 29.83451
1210.511, 28.69111
1210.993, 29.95912
1211.476, 32.36494
1211.958, 34.19958
1212.440, 35.27356
1212.922, 35.03984
1213.404, 33.12367
1213.886, 31.17841
1214.368, 28.64844
1214.850, 27.96482
1215.333, 30.85503
1215.815, 35.08141
1216.297, 36.91809
1216.779, 36.99969
1217.261, 36.31010
1217.743, 34.71796
1218.225, 33.78796
1218.707, 33.88937
1219.189, 33.94526
1219.672, 33.26036
1220.154, 32.48302
1220.636, 33.24808
1221.118, 34.64598
1221.600, 34.90533
1222.082, 32.90725
1222.564, 32.17162
1223.046, 33.26967
1223.528, 34.36951
1224.011, 34.51019
1224.493, 34.10509
1224.975, 33.66626
1225.457, 33.25611
1225.939, 32.96749
1226.421, 32.80302
1226.903, 32.98099
1227.385, 33.77048
1227.868, 33.89681
1228.350, 32.08033
1228.832, 29.82853
1229.314, 29.24360
1229.796, 29.94821
1230.278, 31.60173
1230.760, 35.50349
1231.242, 35.82734
1231.724, 31.78199
1232.207, 27.93210
1232.689, 26.96566
1233.171, 27.70030
1233.653, 29.58220
1234.135, 31.71890
1234.617, 32.49152
1235.099, 31.15851
1235.581, 30.36751
1236.063, 30.14691
1236.546, 30.31358
1237.028, 30.82514
1237.510, 31.59474
1237.992, 33.06541
1238.474, 34.53129
1238.956, 34.64442
1239.438, 32.93356
1239.920, 31.60167
1240.403, 30.60673
1240.885, 30.84734
1241.367, 34.86772
1241.849, 38.33381
1242.331, 35.94799
1242.813, 31.26793
1243.295, 29.80173
1243.777, 32.40493
1244.260, 34.02415
1244.742, 34.67933
1245.224, 34.94596
1245.706, 35.13836
1246.188, 35.12541
1246.670, 34.57761
1247.152, 33.91030
1247.634, 33.86483
1248.116, 34.57125
1248.599, 33.41236
1249.081, 30.58595
1249.563, 29.12359
1250.045, 32.14968
1250.527, 35.52049
1251.009, 37.95269
1251.491, 38.88573
1251.973, 37.19400
1252.455, 33.04747
1252.938, 30.12989
1253.420, 28.52786
1253.902, 28.45980
1254.384, 31.87317
1254.866, 34.49446
1255.348, 34.27989
1255.830, 33.13340
1256.313, 32.41189
1256.795, 32.16088
1257.277, 32.88235
1257.759, 34.41497
1258.241, 35.91488
1258.723, 38.50028
1259.205, 38.57204
1259.687, 33.83603
1260.169, 29.15861
1260.651, 29.96346
1261.134, 34.02116
1261.616, 33.29826
1262.098, 29.30760
1262.580, 27.54603
1263.062, 33.66124
1263.544, 36.28484
1264.026, 33.28047
1264.508, 29.50844
1264.991, 29.31102
1265.473, 30.99960
1265.955, 31.37485
1266.437, 30.89169
1266.919, 30.84636
1267.401, 32.31013
1267.883, 32.64994
1268.365, 31.45836
1268.848, 30.58626
1269.330, 32.01931
1269.812, 34.14751
1270.294, 35.14163
1270.776, 35.18630
1271.258, 34.58407
1271.740, 33.04750
1272.222, 32.04579
1272.704, 31.61167
1273.187, 31.63861
1273.669, 32.40028
1274.151, 33.24458
1274.633, 33.93701
1275.115, 34.14207
1275.597, 33.15023
1276.079, 30.56125
1276.561, 30.03707
1277.043, 31.52308
1277.526, 32.74536
1278.008, 31.62447
1278.490, 30.62266
1278.972, 31.78193
1279.454, 33.35233
1279.936, 33.34114
1280.418, 31.83171
1280.900, 31.26793
1281.383, 31.60837
1281.865, 32.56271
1282.347, 34.96059
1282.829, 36.57571
1283.311, 36.53061
1283.793, 35.60467
1284.275, 33.73211
1284.757, 31.50463
1285.240, 32.03026
1285.722, 34.42358
1286.204, 35.78403
1286.686, 34.42821
1287.168, 32.82916
1287.650, 30.75048
1288.132, 29.76113
1288.614, 31.99773
1289.096, 35.30667
1289.578, 34.59488
1290.061, 31.68770
1290.543, 30.41395
1291.025, 32.95404
1291.507, 34.07845
1291.989, 33.54644
1292.471, 32.70950
1292.953, 32.26734
1293.435, 32.01625
1293.918, 31.82230
1294.400, 31.60880
1294.882, 31.14481
1295.364, 31.27850
1295.846, 30.39137
1296.328, 31.38793
1296.810, 32.25386
1297.292, 32.27343
1297.775, 32.39473
1298.257, 34.03658
1298.739, 35.50713
1299.221, 34.95831
1299.703, 32.71806
1300.185, 32.25851
1300.667, 33.34056
1301.149, 34.64388
1301.631, 35.99211
1302.114, 36.60342
1302.596, 36.20369
##END=



