##NAMES=Akatoreite
##RRUFFID=R060230
##IDEAL CHEMISTRY=Mn^2+^_9_Al_2_Si_8_O_24_(OH)_8_
##LOCALITY=near mouth of Akatore Creek, Taieri, Otago Province, New Zealand
##OWNER=RRUFF
##SOURCE=Michael Scott
##DESCRIPTION=Orange-brown massive
##STATUS=The identification of this mineral is confirmed by single-crystal X-ray diffraction and chemical analysis.
##URL=rruff.info/R060230
##MEASURED CHEMISTRY=(Mn^2+^_8.66_Mg_0.12_Fe^2+^_0.09_Fe^3+^_0.09_Ca_0.04_)_Σ=9_(Al_1.87_Cr_0.13_)_Σ=2_(Si_7.91_Al_0.09_)_Σ=8_O_24_(OH)_8_ ; OH estimated by difference and stoichiometry ; Fe2 and Fe3 by charge balance
150.1633, 249.0067
150.6454, 250.2888
151.1275, 251.7373
151.6096, 252.7332
152.0917, 252.8180
152.5739, 252.5479
153.0560, 252.9061
153.5381, 254.1295
154.0202, 255.2259
154.5023, 255.2899
154.9844, 254.2811
155.4665, 253.1937
155.9487, 252.7523
156.4308, 252.1809
156.9129, 250.5335
157.3950, 247.3700
157.8771, 244.0747
158.3592, 242.9719
158.8414, 245.1699
159.3235, 246.8003
159.8056, 246.7527
160.2877, 245.8848
160.7698, 244.8229
161.2519, 243.8211
161.7341, 242.8980
162.2162, 242.1090
162.6983, 241.4052
163.1804, 240.9393
163.6625, 240.7829
164.1446, 240.8428
164.6268, 240.9887
165.1089, 241.1402
165.5910, 241.3379
166.0731, 241.8648
166.5552, 243.0768
167.0373, 244.2294
167.5195, 245.5096
168.0016, 246.6242
168.4837, 246.9371
168.9658, 245.9056
169.4479, 243.6702
169.9300, 242.4805
170.4122, 243.4082
170.8943, 244.1332
171.3764, 243.4028
171.8585, 241.4390
172.3406, 239.3775
172.8227, 237.9742
173.3049, 237.2479
173.7870, 236.6637
174.2691, 236.3883
174.7512, 236.1354
175.2333, 235.6943
175.7154, 235.0554
176.1976, 234.2541
176.6797, 232.9929
177.1618, 231.5924
177.6439, 230.8985
178.1260, 231.7050
178.6081, 233.0893
179.0903, 233.5296
179.5724, 232.6348
180.0545, 231.9509
180.5366, 232.7857
181.0187, 234.4309
181.5008, 235.7931
181.9830, 236.3633
182.4651, 236.2948
182.9472, 235.9968
183.4293, 235.2133
183.9114, 234.6131
184.3935, 234.6024
184.8757, 234.9343
185.3578, 235.1534
185.8399, 234.8383
186.3220, 234.0927
186.8041, 234.0613
187.2862, 235.8897
187.7684, 237.2384
188.2505, 237.0233
188.7326, 235.8047
189.2147, 234.7939
189.6968, 235.0608
190.1789, 236.6873
190.6611, 237.3084
191.1432, 235.6385
191.6253, 234.2088
192.1074, 233.9877
192.5895, 234.7434
193.0716, 235.6723
193.5538, 236.0605
194.0359, 235.8132
194.5180, 235.8231
195.0001, 236.5363
195.4822, 237.0498
195.9643, 236.6114
196.4465, 235.4344
196.9286, 234.5818
197.4107, 235.2478
197.8928, 237.7773
198.3749, 238.4301
198.8570, 235.6438
199.3392, 232.3691
199.8213, 230.5982
200.3034, 230.4418
200.7855, 230.6835
201.2676, 230.2511
201.7497, 229.0869
202.2319, 227.9675
202.7140, 226.8352
203.1961, 225.8066
203.6782, 224.8189
204.1603, 223.8367
204.6424, 223.4272
205.1246, 224.5376
205.6067, 226.8190
206.0888, 228.6267
206.5709, 229.6128
207.0530, 229.9614
207.5351, 229.9200
208.0173, 229.5171
208.4994, 228.6641
208.9815, 226.8353
209.4636, 224.4789
209.9457, 222.5557
210.4278, 221.5194
210.9100, 221.1373
211.3921, 220.9936
211.8742, 221.3010
212.3563, 221.3716
212.8384, 220.6767
213.3205, 219.4957
213.8027, 218.2890
214.2848, 217.0980
214.7669, 216.0672
215.2490, 215.8477
215.7311, 217.0704
216.2132, 218.1409
216.6954, 217.9573
217.1775, 217.2122
217.6596, 217.1551
218.1417, 218.7706
218.6238, 221.6958
219.1059, 223.7253
219.5881, 224.0363
220.0702, 224.3963
220.5523, 225.4754
221.0344, 226.9439
221.5165, 228.2418
221.9986, 228.9738
222.4808, 229.2058
222.9629, 229.5571
223.4450, 230.2836
223.9271, 230.8562
224.4092, 230.9063
224.8913, 230.7523
225.3735, 230.9739
225.8556, 232.0124
226.3377, 233.7547
226.8198, 234.9708
227.3019, 234.9395
227.7840, 235.1120
228.2662, 236.0738
228.7483, 237.4359
229.2304, 238.5108
229.7125, 238.8644
230.1946, 238.5332
230.6767, 237.8902
231.1589, 236.5993
231.6410, 235.3904
232.1231, 234.1787
232.6052, 233.1845
233.0873, 232.8698
233.5694, 233.5891
234.0516, 235.1562
234.5337, 236.2117
235.0158, 236.8957
235.4979, 237.0564
235.9800, 236.4288
236.4621, 235.2388
236.9443, 233.8640
237.4264, 232.4180
237.9085, 231.0498
238.3906, 230.4631
238.8727, 231.4616
239.3548, 232.1845
239.8370, 232.0321
240.3191, 231.1348
240.8012, 229.7201
241.2833, 227.7628
241.7654, 225.5022
242.2475, 223.5961
242.7297, 221.8991
243.2118, 220.6878
243.6939, 220.4610
244.1760, 220.8912
244.6581, 220.9631
245.1402, 220.1678
245.6224, 218.8826
246.1045, 217.9761
246.5866, 217.7379
247.0687, 217.0855
247.5508, 214.8692
248.0329, 211.6478
248.5151, 209.4771
248.9972, 209.3404
249.4793, 210.2418
249.9614, 210.6205
250.4435, 210.3892
250.9256, 210.2456
251.4078, 210.9116
251.8899, 212.0990
252.3720, 212.4475
252.8541, 211.1437
253.3362, 209.4586
253.8183, 208.9753
254.3005, 209.6817
254.7826, 210.1068
255.2647, 208.8403
255.7468, 206.3307
256.2289, 204.9676
256.7110, 205.7625
257.1931, 207.0458
257.6753, 207.4047
258.1574, 206.9510
258.6395, 206.3957
259.1216, 206.1045
259.6037, 206.0658
260.0858, 206.2518
260.5680, 206.8538
261.0501, 207.4239
261.5322, 207.6078
262.0143, 207.5214
262.4964, 207.5169
262.9785, 207.7223
263.4607, 208.1642
263.9428, 209.1204
264.4249, 211.2350
264.9070, 212.9009
265.3891, 213.2843
265.8712, 212.7295
266.3534, 211.8933
266.8355, 210.9869
267.3176, 210.1236
267.7997, 209.7696
268.2818, 209.9044
268.7639, 210.6777
269.2461, 212.8061
269.7282, 215.3667
270.2103, 216.9273
270.6924, 216.5461
271.1745, 214.8691
271.6566, 214.1326
272.1388, 215.3636
272.6209, 215.7644
273.1030, 213.8384
273.5851, 211.0890
274.0672, 209.3681
274.5493, 209.5791
275.0315, 210.8553
275.5136, 211.0197
275.9957, 209.4363
276.4778, 207.8868
276.9599, 206.7194
277.4420, 205.7191
277.9242, 204.5595
278.4063, 203.1281
278.8884, 201.8477
279.3705, 201.6548
279.8526, 203.4203
280.3347, 204.4081
280.8169, 203.6602
281.2990, 202.6109
281.7811, 202.3971
282.2632, 203.2601
282.7453, 204.5283
283.2274, 205.2854
283.7096, 205.5520
284.1917, 205.1913
284.6738, 203.2046
285.1559, 201.4350
285.6380, 201.2884
286.1201, 202.7260
286.6023, 204.4250
287.0844, 204.7015
287.5665, 202.8727
288.0486, 202.3669
288.5307, 204.7127
289.0128, 206.9043
289.4950, 207.3011
289.9771, 206.1730
290.4592, 204.9612
290.9413, 205.0569
291.4234, 206.6138
291.9055, 207.4225
292.3877, 206.8738
292.8698, 206.2011
293.3519, 205.6183
293.8340, 205.2212
294.3161, 205.1514
294.7982, 205.5634
295.2804, 206.3914
295.7625, 206.7544
296.2446, 206.0037
296.7267, 205.4686
297.2088, 205.5903
297.6909, 206.0484
298.1731, 206.3479
298.6552, 206.2124
299.1373, 205.7554
299.6194, 205.4020
300.1015, 205.0530
300.5836, 204.9612
301.0658, 205.3819
301.5479, 205.9704
302.0300, 206.3928
302.5121, 206.5122
302.9942, 206.3705
303.4763, 206.0325
303.9585, 205.2476
304.4406, 204.6473
304.9227, 203.9386
305.4048, 203.5783
305.8869, 204.1643
306.3690, 205.7307
306.8512, 207.5564
307.3333, 208.6329
307.8154, 208.6633
308.2975, 208.6687
308.7796, 208.7337
309.2617, 208.7135
309.7439, 208.4338
310.2260, 207.9437
310.7081, 207.4990
311.1902, 207.3815
311.6723, 207.6669
312.1544, 207.7113
312.6366, 207.4041
313.1187, 207.0057
313.6008, 206.3487
314.0829, 205.6637
314.5650, 205.5828
315.0471, 206.7145
315.5293, 208.8588
316.0114, 209.3319
316.4935, 206.7944
316.9756, 204.0748
317.4577, 201.3418
317.9398, 198.8755
318.4220, 197.1076
318.9041, 196.2813
319.3862, 196.0721
319.8683, 195.4279
320.3504, 193.4168
320.8326, 192.1764
321.3147, 192.3235
321.7968, 193.0238
322.2789, 193.5051
322.7610, 193.5028
323.2431, 193.2123
323.7253, 192.9437
324.2074, 192.6061
324.6895, 192.4914
325.1716, 192.7950
325.6537, 193.1444
326.1358, 193.2519
326.6180, 193.1076
327.1001, 192.9433
327.5822, 193.0515
328.0643, 193.5675
328.5464, 193.6387
329.0285, 192.9348
329.5107, 192.1676
329.9928, 191.4161
330.4749, 190.8327
330.9570, 190.7309
331.4391, 191.4055
331.9212, 192.7848
332.4034, 193.8003
332.8855, 194.3086
333.3676, 194.5885
333.8497, 194.5092
334.3318, 194.2745
334.8139, 194.1605
335.2961, 194.3077
335.7782, 194.6270
336.2603, 194.8509
336.7424, 194.8741
337.2245, 194.9601
337.7066, 195.2312
338.1888, 195.5111
338.6709, 195.5237
339.1530, 195.2395
339.6351, 195.0288
340.1172, 195.6531
340.5993, 198.0434
341.0815, 198.8272
341.5636, 196.4663
342.0457, 193.9993
342.5278, 193.2032
343.0099, 194.0032
343.4920, 195.1756
343.9742, 195.5939
344.4563, 195.2122
344.9384, 194.9323
345.4205, 195.0386
345.9026, 194.9641
346.3847, 194.0529
346.8669, 192.9044
347.3490, 192.6923
347.8311, 194.2699
348.3132, 197.0450
348.7953, 198.5825
349.2774, 198.0830
349.7596, 197.5310
350.2417, 197.3396
350.7238, 197.2672
351.2059, 197.0181
351.6880, 196.4951
352.1701, 195.9421
352.6523, 195.7467
353.1344, 195.9366
353.6165, 196.4148
354.0986, 197.6643
354.5807, 198.8138
355.0628, 199.2971
355.5450, 199.1120
356.0271, 198.6846
356.5092, 198.3902
356.9913, 198.2356
357.4734, 198.0818
357.9555, 198.1278
358.4377, 197.9304
358.9198, 197.2587
359.4019, 196.2272
359.8840, 195.0276
360.3661, 193.6290
360.8482, 192.2447
361.3304, 191.5721
361.8125, 191.9045
362.2946, 192.3244
362.7767, 193.0007
363.2588, 193.3843
363.7409, 192.6097
364.2231, 190.2500
364.7052, 187.7088
365.1873, 187.0984
365.6694, 188.6983
366.1515, 189.5785
366.6336, 188.2544
367.1158, 186.6476
367.5979, 186.1017
368.0800, 186.6603
368.5621, 187.7083
369.0442, 189.1660
369.5263, 190.8411
370.0085, 191.6926
370.4906, 191.2555
370.9727, 190.6799
371.4548, 190.7364
371.9369, 191.2437
372.4190, 191.8352
372.9012, 192.5082
373.3833, 193.1019
373.8654, 193.3411
374.3475, 193.1962
374.8296, 192.9308
375.3117, 192.5085
375.7939, 192.1256
376.2760, 192.0635
376.7581, 192.3913
377.2402, 192.9321
377.7223, 193.6311
378.2044, 194.4562
378.6866, 195.2737
379.1687, 196.0667
379.6508, 196.8114
380.1329, 197.5226
380.6150, 198.2059
381.0971, 198.6960
381.5793, 198.9312
382.0614, 198.9464
382.5435, 198.5928
383.0256, 197.8180
383.5077, 197.4265
383.9898, 198.3745
384.4720, 200.3833
384.9541, 201.3956
385.4362, 200.6944
385.9183, 199.5755
386.4004, 198.6508
386.8825, 197.9323
387.3647, 197.4751
387.8468, 197.4071
388.3289, 197.4561
388.8110, 196.8846
389.2931, 195.5827
389.7752, 194.0574
390.2574, 191.8796
390.7395, 189.7641
391.2216, 188.7633
391.7037, 189.0719
392.1858, 189.7473
392.6679, 189.7016
393.1501, 188.7513
393.6322, 187.9394
394.1143, 187.4747
394.5964, 186.9437
395.0785, 186.0719
395.5606, 184.9293
396.0428, 183.6978
396.5249, 182.4288
397.0070, 181.2515
397.4891, 180.8489
397.9712, 182.4897
398.4533, 183.3790
398.9355, 183.0067
399.4176, 181.8324
399.8997, 180.0467
400.3818, 177.8113
400.8639, 175.7762
401.3460, 174.9928
401.8282, 175.9630
402.3103, 176.8248
402.7924, 177.7972
403.2745, 178.4900
403.7566, 178.6225
404.2387, 178.2849
404.7209, 177.7496
405.2030, 177.1791
405.6851, 176.6026
406.1672, 176.2740
406.6493, 176.2447
407.1314, 176.4232
407.6136, 176.7703
408.0957, 177.2953
408.5778, 178.1569
409.0599, 179.4184
409.5420, 180.5788
410.0241, 180.7877
410.5063, 179.8405
410.9884, 179.0344
411.4705, 178.4268
411.9526, 178.1413
412.4347, 178.3822
412.9168, 179.0632
413.3990, 179.8042
413.8811, 180.3848
414.3632, 180.8196
414.8453, 181.1762
415.3274, 181.4905
415.8095, 181.6351
416.2917, 181.3969
416.7738, 180.9911
417.2559, 180.6600
417.7380, 180.3861
418.2201, 180.3629
418.7022, 181.0575
419.1844, 182.3507
419.6665, 183.0070
420.1486, 182.3208
420.6307, 181.2980
421.1128, 181.3120
421.5949, 182.3475
422.0771, 183.2244
422.5592, 183.3767
423.0413, 183.1881
423.5234, 183.1079
424.0055, 183.1809
424.4876, 183.5218
424.9698, 184.4309
425.4519, 185.7035
425.9340, 186.1461
426.4161, 184.7757
426.8982, 183.6399
427.3803, 184.0496
427.8625, 185.3272
428.3446, 186.0726
428.8267, 185.7623
429.3088, 184.7223
429.7909, 183.4163
430.2730, 181.3690
430.7552, 180.2409
431.2373, 180.7175
431.7194, 181.6160
432.2015, 182.1733
432.6836, 182.3225
433.1657, 182.2768
433.6479, 182.1535
434.1300, 181.9882
434.6121, 182.2725
435.0942, 183.4499
435.5763, 184.5807
436.0584, 185.7279
436.5406, 186.6619
437.0227, 186.9302
437.5048, 186.4286
437.9869, 185.8472
438.4690, 186.4389
438.9511, 188.8248
439.4333, 190.3577
439.9154, 190.0084
440.3975, 189.6849
440.8796, 190.3564
441.3617, 191.7915
441.8438, 193.1558
442.3260, 193.7790
442.8081, 194.0124
443.2902, 195.1762
443.7723, 197.8634
444.2544, 199.9973
444.7365, 200.0044
445.2187, 199.5932
445.7008, 200.4619
446.1829, 203.0034
446.6650, 205.7722
447.1471, 207.3822
447.6292, 208.0578
448.1114, 209.0303
448.5935, 210.4175
449.0756, 212.2444
449.5577, 214.9083
450.0398, 218.0810
450.5219, 220.7714
451.0041, 222.7669
451.4862, 224.1218
451.9683, 224.9476
452.4504, 225.2121
452.9325, 224.5949
453.4146, 222.7807
453.8968, 220.2099
454.3789, 217.7421
454.8610, 215.2916
455.3431, 213.1784
455.8252, 212.2668
456.3073, 211.3020
456.7895, 208.4106
457.2716, 203.5625
457.7537, 198.8887
458.2358, 196.2417
458.7179, 195.6215
459.2000, 195.1853
459.6822, 195.5466
460.1643, 195.3612
460.6464, 193.6476
461.1285, 191.3575
461.6106, 189.8373
462.0927, 189.5851
462.5748, 190.0993
463.0569, 190.6507
463.5391, 191.4873
464.0212, 191.6543
464.5033, 190.5326
464.9854, 189.3635
465.4675, 188.5596
465.9496, 188.1907
466.4318, 188.2948
466.9139, 188.9860
467.3960, 190.0567
467.8781, 190.8215
468.3602, 191.1185
468.8423, 191.5417
469.3245, 192.5841
469.8066, 193.6250
470.2887, 194.1045
470.7708, 193.9513
471.2529, 193.6574
471.7350, 193.6165
472.2172, 193.7484
472.6993, 193.8524
473.1814, 194.0675
473.6635, 193.8006
474.1456, 192.6559
474.6277, 190.6936
475.1099, 187.8544
475.5920, 183.1024
476.0741, 178.8120
476.5562, 176.8932
477.0383, 176.7973
477.5204, 177.0512
478.0026, 177.3188
478.4847, 177.2368
478.9668, 176.1174
479.4489, 173.6133
479.9310, 171.7937
480.4131, 171.3118
480.8953, 171.0945
481.3774, 170.2722
481.8595, 169.0512
482.3416, 168.2883
482.8237, 168.5340
483.3058, 169.4512
483.7880, 169.8840
484.2701, 169.5558
484.7522, 169.0981
485.2343, 168.5204
485.7164, 167.8365
486.1985, 166.9584
486.6807, 165.9412
487.1628, 165.0112
487.6449, 164.2908
488.1270, 163.8091
488.6091, 164.0406
489.0912, 165.7154
489.5734, 166.9326
490.0555, 166.8861
490.5376, 166.2532
491.0197, 165.7755
491.5018, 165.6602
491.9839, 165.6385
492.4661, 165.4153
492.9482, 165.0194
493.4303, 164.7312
493.9124, 164.6328
494.3945, 164.5623
494.8766, 164.3638
495.3588, 164.0872
495.8409, 163.8648
496.3230, 163.5770
496.8051, 163.4951
497.2872, 163.9869
497.7693, 164.9068
498.2515, 165.7362
498.7336, 166.2942
499.2157, 166.6408
499.6978, 166.8610
500.1799, 166.9467
500.6620, 166.9309
501.1442, 166.6374
501.6263, 166.3918
502.1084, 166.5147
502.5905, 166.9037
503.0726, 167.1505
503.5547, 166.9751
504.0369, 166.5816
504.5190, 166.7386
505.0011, 168.5418
505.4832, 169.1083
505.9653, 166.7660
506.4474, 164.3954
506.9296, 164.6684
507.4117, 167.2829
507.8938, 169.4736
508.3759, 168.5502
508.8580, 165.2579
509.3401, 164.1939
509.8223, 166.4114
510.3044, 168.5453
510.7865, 169.4776
511.2686, 169.6792
511.7507, 169.3665
512.2328, 168.5269
512.7150, 167.8772
513.1971, 168.2422
513.6792, 169.2127
514.1613, 169.5832
514.6434, 169.1630
515.1255, 168.3661
515.6077, 167.3777
516.0898, 166.2505
516.5719, 165.2305
517.0540, 164.4178
517.5361, 163.6074
518.0182, 162.5434
518.5004, 161.4630
518.9825, 160.9124
519.4646, 161.0243
519.9467, 161.1348
520.4288, 160.3432
520.9109, 158.3706
521.3931, 157.3985
521.8752, 158.4484
522.3573, 159.2042
522.8394, 158.5408
523.3215, 157.1573
523.8036, 156.1340
524.2858, 155.9088
524.7679, 156.1381
525.2500, 156.3129
525.7321, 156.4252
526.2142, 156.5025
526.6964, 156.1617
527.1785, 156.2202
527.6606, 157.6854
528.1427, 159.7838
528.6248, 160.6761
529.1069, 159.0018
529.5891, 156.7934
530.0712, 157.1841
530.5533, 159.9811
531.0354, 161.7214
531.5175, 160.9272
531.9996, 159.5574
532.4818, 160.4482
532.9639, 163.3792
533.4460, 165.0779
533.9281, 164.0463
534.4102, 162.2486
534.8923, 161.1770
535.3745, 160.6682
535.8566, 159.7641
536.3387, 157.9343
536.8208, 155.9516
537.3029, 155.5205
537.7850, 158.1620
538.2672, 159.1586
538.7493, 157.6059
539.2314, 155.3681
539.7135, 152.9206
540.1956, 150.6898
540.6777, 149.4154
541.1599, 149.6368
541.6420, 150.7254
542.1241, 150.9886
542.6062, 150.0240
543.0883, 149.5417
543.5704, 150.6594
544.0526, 151.6833
544.5347, 151.1961
545.0168, 149.5105
545.4989, 148.3535
545.9810, 149.3643
546.4631, 151.0224
546.9453, 150.5117
547.4274, 147.9086
547.9095, 146.1415
548.3916, 146.7044
548.8737, 148.3425
549.3558, 148.8073
549.8380, 147.9518
550.3201, 147.2754
550.8022, 147.3606
551.2843, 147.4937
551.7664, 147.0071
552.2485, 146.0136
552.7307, 144.9759
553.2128, 144.1104
553.6949, 143.5604
554.1770, 143.8387
554.6591, 146.2656
555.1412, 147.1028
555.6234, 144.6744
556.1055, 142.2392
556.5876, 141.9910
557.0697, 143.5226
557.5518, 145.0637
558.0339, 145.5336
558.5161, 145.3129
558.9982, 145.2295
559.4803, 145.2937
559.9624, 145.4489
560.4445, 145.7809
560.9266, 146.1013
561.4088, 146.2786
561.8909, 146.3071
562.3730, 146.1444
562.8551, 145.4988
563.3372, 144.8480
563.8193, 144.7290
564.3015, 145.0866
564.7836, 145.6402
565.2657, 146.3354
565.7478, 146.9463
566.2299, 146.9945
566.7120, 145.9961
567.1942, 145.6474
567.6763, 146.9324
568.1584, 147.9508
568.6405, 147.2155
569.1226, 145.3570
569.6047, 143.9516
570.0869, 143.8391
570.5690, 144.4675
571.0511, 144.6564
571.5332, 144.1892
572.0153, 144.1442
572.4974, 145.2928
572.9796, 146.2081
573.4617, 145.9544
573.9438, 144.8743
574.4259, 143.8775
574.9080, 143.2391
575.3901, 142.9755
575.8723, 143.2674
576.3544, 144.0130
576.8365, 144.7162
577.3186, 145.3354
577.8007, 145.5746
578.2828, 144.9278
578.7650, 143.3301
579.2471, 142.2087
579.7292, 141.9493
580.2113, 141.8077
580.6934, 141.5849
581.1755, 141.1973
581.6577, 140.3266
582.1398, 138.9277
582.6219, 137.7208
583.1040, 137.8529
583.5861, 139.6106
584.0682, 140.4216
584.5504, 139.4324
585.0325, 138.4970
585.5146, 138.1437
585.9967, 138.1770
586.4788, 138.3168
586.9609, 138.4816
587.4431, 138.8283
587.9252, 139.8801
588.4073, 141.2886
588.8894, 141.5378
589.3715, 140.2778
589.8536, 138.7887
590.3358, 137.7378
590.8179, 137.1535
591.3000, 137.0445
591.7821, 137.7849
592.2642, 138.3172
592.7463, 137.7833
593.2285, 137.1718
593.7106, 138.0638
594.1927, 140.2883
594.6748, 141.8524
595.1569, 141.0395
595.6390, 138.4149
596.1212, 137.0069
596.6033, 137.3937
597.0854, 138.0318
597.5675, 139.2878
598.0496, 140.2610
598.5317, 140.0222
599.0139, 138.7866
599.4960, 137.7610
599.9781, 137.9175
600.4602, 138.6059
600.9423, 138.5175
601.4244, 137.6425
601.9066, 136.8583
602.3887, 136.4641
602.8708, 136.2701
603.3529, 135.9863
603.8350, 135.5979
604.3171, 135.4775
604.7993, 136.0132
605.2814, 136.5103
605.7635, 136.2030
606.2456, 135.5658
606.7277, 135.7948
607.2098, 137.3191
607.6920, 139.2006
608.1741, 140.0493
608.6562, 139.7771
609.1383, 138.9276
609.6204, 136.4977
610.1025, 134.6605
610.5847, 134.1499
611.0668, 134.5977
611.5489, 135.7789
612.0310, 137.6917
612.5131, 139.1961
612.9952, 138.8278
613.4774, 137.2024
613.9595, 136.2975
614.4416, 136.3340
614.9237, 136.8250
615.4058, 137.7665
615.8879, 138.8270
616.3701, 138.8622
616.8522, 137.0072
617.3343, 135.9951
617.8164, 137.1469
618.2985, 138.8018
618.7806, 139.4305
619.2628, 139.1052
619.7449, 138.8363
620.2270, 139.3119
620.7091, 140.1145
621.1912, 139.9626
621.6733, 138.4299
622.1555, 137.2144
622.6376, 136.5803
623.1197, 136.2690
623.6018, 136.1296
624.0839, 136.2035
624.5660, 136.6733
625.0482, 137.8746
625.5303, 139.0704
626.0124, 139.2824
626.4945, 138.8399
626.9766, 139.0154
627.4587, 140.1864
627.9409, 141.2502
628.4230, 140.8925
628.9051, 139.1660
629.3872, 139.1867
629.8693, 142.3925
630.3514, 145.2328
630.8336, 146.9872
631.3157, 148.0169
631.7978, 148.6759
632.2799, 149.0430
632.7620, 148.9471
633.2441, 147.8530
633.7263, 146.4055
634.2084, 147.7028
634.6905, 152.7785
635.1726, 156.4420
635.6547, 156.2574
636.1368, 154.8081
636.6190, 154.6477
637.1011, 155.7162
637.5832, 156.9188
638.0653, 158.1161
638.5474, 159.1479
639.0295, 159.8316
639.5117, 160.2422
639.9938, 160.5000
640.4759, 160.6436
640.9580, 160.8982
641.4401, 161.5702
641.9222, 162.7020
642.4044, 163.8534
642.8865, 164.3941
643.3686, 165.7339
643.8507, 169.0642
644.3328, 172.8420
644.8149, 175.2061
645.2971, 175.9031
645.7792, 176.5564
646.2613, 178.5675
646.7434, 181.4728
647.2255, 184.2170
647.7076, 186.7755
648.1898, 189.0644
648.6719, 191.0154
649.1540, 192.7175
649.6361, 194.2453
650.1182, 195.5371
650.6003, 197.0192
651.0825, 198.8665
651.5646, 200.7808
652.0467, 203.0058
652.5288, 205.0658
653.0109, 206.0393
653.4930, 205.6310
653.9752, 204.6127
654.4573, 204.0011
654.9394, 203.8113
655.4215, 203.4426
655.9036, 203.0912
656.3857, 202.1776
656.8679, 200.2861
657.3500, 197.7514
657.8321, 194.6217
658.3142, 190.7671
658.7963, 187.5945
659.2784, 186.9563
659.7606, 186.5032
660.2427, 182.8722
660.7248, 176.7724
661.2069, 171.7791
661.6890, 169.6361
662.1711, 168.9896
662.6533, 167.3996
663.1354, 164.5096
663.6175, 161.9132
664.0996, 159.4742
664.5817, 157.4731
665.0638, 156.1814
665.5460, 155.3110
666.0281, 154.5758
666.5102, 153.9000
666.9923, 153.0209
667.4744, 151.5205
667.9565, 149.6897
668.4387, 148.1511
668.9208, 146.9425
669.4029, 146.2045
669.8850, 146.1697
670.3671, 146.4367
670.8492, 146.1798
671.3314, 145.2194
671.8135, 144.1731
672.2956, 142.7245
672.7777, 141.5226
673.2598, 141.0596
673.7419, 141.0453
674.2241, 140.9096
674.7062, 140.4530
675.1883, 140.0875
675.6704, 140.4989
676.1525, 141.5698
676.6346, 142.0168
677.1168, 141.5688
677.5989, 141.3555
678.0810, 142.3136
678.5631, 143.5961
679.0452, 143.5662
679.5273, 141.8927
680.0095, 140.6868
680.4916, 140.9815
680.9737, 141.4699
681.4558, 141.0947
681.9379, 140.1194
682.4200, 139.1174
682.9022, 138.3468
683.3843, 138.1826
683.8664, 139.4599
684.3485, 142.3458
684.8306, 144.0993
685.3127, 144.3568
685.7949, 144.1079
686.2770, 143.3530
686.7591, 142.5198
687.2412, 142.2674
687.7233, 142.7227
688.2054, 142.5870
688.6876, 140.2693
689.1697, 137.8400
689.6518, 137.6977
690.1339, 139.3946
690.6160, 141.3880
691.0981, 143.0864
691.5803, 144.1582
692.0624, 144.0123
692.5445, 142.4458
693.0266, 141.3822
693.5087, 141.2844
693.9908, 141.0743
694.4730, 139.9605
694.9551, 138.9104
695.4372, 139.2200
695.9193, 140.9526
696.4014, 142.3199
696.8835, 141.9567
697.3657, 140.8485
697.8478, 140.2934
698.3299, 140.1983
698.8120, 139.9550
699.2941, 139.3376
699.7762, 138.6543
700.2584, 138.3068
700.7405, 138.3245
701.2226, 138.3103
701.7047, 137.9890
702.1868, 137.9836
702.6689, 138.8425
703.1511, 139.7775
703.6332, 139.8417
704.1153, 139.1009
704.5974, 138.6783
705.0795, 139.8083
705.5616, 141.2464
706.0438, 140.3887
706.5259, 137.7519
707.0080, 136.9565
707.4901, 139.2835
707.9722, 142.2774
708.4543, 143.4639
708.9365, 142.8743
709.4186, 142.1565
709.9007, 140.6662
710.3828, 139.9021
710.8649, 140.6483
711.3470, 141.7906
711.8292, 142.3884
712.3113, 142.4648
712.7934, 142.5934
713.2755, 143.1773
713.7576, 143.8565
714.2397, 144.0763
714.7219, 143.8811
715.2040, 143.5346
715.6861, 143.0466
716.1682, 142.6192
716.6503, 142.3922
717.1324, 142.3653
717.6146, 142.5496
718.0967, 143.4014
718.5788, 143.8003
719.0609, 143.1260
719.5430, 142.4281
720.0251, 142.4473
720.5073, 143.0737
720.9894, 144.0522
721.4715, 145.3893
721.9536, 146.1637
722.4357, 144.6293
722.9178, 141.2635
723.4000, 138.9644
723.8821, 138.0827
724.3642, 137.8595
724.8463, 138.1197
725.3284, 138.5280
725.8105, 138.1406
726.2927, 136.3653
726.7748, 135.3040
727.2569, 135.6384
727.7390, 136.1318
728.2211, 136.2091
728.7032, 135.9389
729.1854, 135.3319
729.6675, 134.4371
730.1496, 133.9226
730.6317, 134.8999
731.1138, 136.8470
731.5959, 137.8546
732.0781, 137.8686
732.5602, 137.0924
733.0423, 135.1780
733.5244, 133.2490
734.0065, 133.2249
734.4886, 135.6734
734.9708, 136.4493
735.4529, 133.8274
735.9350, 131.6090
736.4171, 131.4099
736.8992, 132.1141
737.3813, 132.6404
737.8635, 132.6952
738.3456, 132.2112
738.8277, 130.8200
739.3098, 129.1767
739.7919, 128.7098
740.2740, 129.3498
740.7562, 130.1538
741.2383, 130.9986
741.7204, 131.5602
742.2025, 131.4819
742.6846, 130.8233
743.1667, 130.2150
743.6489, 129.3458
744.1310, 128.9589
744.6131, 129.8008
745.0952, 130.5923
745.5773, 130.1613
746.0594, 128.8624
746.5416, 127.8409
747.0237, 127.6542
747.5058, 127.8386
747.9879, 127.7688
748.4700, 127.5981
748.9521, 128.1670
749.4343, 129.6233
749.9164, 130.3506
750.3985, 129.1908
750.8806, 127.0564
751.3627, 126.0104
751.8448, 126.4495
752.3270, 127.0006
752.8091, 128.2050
753.2912, 128.9108
753.7733, 128.2607
754.2554, 127.0305
754.7375, 126.2395
755.2197, 126.1129
755.7018, 126.1947
756.1839, 126.0209
756.6660, 125.9081
757.1481, 126.6567
757.6302, 128.0563
758.1124, 128.8592
758.5945, 128.6390
759.0766, 127.8819
759.5587, 127.0053
760.0408, 126.0304
760.5229, 125.8450
761.0051, 127.3999
761.4872, 128.3083
761.9693, 127.9909
762.4514, 127.1866
762.9335, 126.1885
763.4156, 125.1509
763.8978, 124.3991
764.3799, 124.1370
764.8620, 124.0354
765.3441, 123.6705
765.8262, 123.3335
766.3083, 123.6834
766.7905, 124.7160
767.2726, 125.7799
767.7547, 126.4908
768.2368, 126.9381
768.7189, 127.3986
769.2010, 128.0950
769.6832, 127.8820
770.1653, 125.6304
770.6474, 124.0621
771.1295, 124.9810
771.6116, 126.8786
772.0938, 127.8643
772.5759, 127.6881
773.0580, 127.3966
773.5401, 127.3290
774.0222, 127.3522
774.5043, 127.6809
774.9865, 127.9370
775.4686, 127.0692
775.9507, 124.9649
776.4328, 123.1389
776.9149, 123.1350
777.3970, 124.5912
777.8792, 126.0773
778.3613, 127.8103
778.8434, 128.2986
779.3255, 126.4388
779.8076, 124.4647
780.2897, 124.4599
780.7719, 125.9867
781.2540, 127.1769
781.7361, 128.1233
782.2182, 128.4612
782.7003, 127.6665
783.1824, 126.5958
783.6646, 125.6843
784.1467, 125.1183
784.6288, 125.2837
785.1109, 126.3697
785.5930, 127.4712
786.0751, 127.1430
786.5573, 125.8747
787.0394, 125.8999
787.5215, 127.3690
788.0036, 128.5088
788.4857, 128.5192
788.9678, 127.9423
789.4500, 127.4739
789.9321, 127.0714
790.4142, 127.1192
790.8963, 128.0362
791.3784, 128.8418
791.8605, 129.6566
792.3427, 130.0406
792.8248, 129.0645
793.3069, 127.1655
793.7890, 126.4026
794.2711, 128.5175
794.7532, 130.7666
795.2354, 129.6843
795.7175, 126.9852
796.1996, 126.7054
796.6817, 129.1430
797.1638, 131.5291
797.6459, 132.1746
798.1281, 131.6709
798.6102, 131.3479
799.0923, 131.3475
799.5744, 130.8639
800.0565, 129.3039
800.5386, 128.2038
801.0208, 128.4664
801.5029, 129.4257
801.9850, 130.6200
802.4671, 132.0564
802.9492, 132.6642
803.4313, 131.1661
803.9135, 129.7878
804.3956, 130.1446
804.8777, 131.3607
805.3598, 132.3389
805.8419, 132.7697
806.3240, 132.4976
806.8062, 131.1361
807.2883, 129.5879
807.7704, 130.2171
808.2525, 132.8902
808.7346, 134.5524
809.2167, 134.6549
809.6989, 134.1373
810.1810, 133.4845
810.6631, 132.7519
811.1452, 132.1007
811.6273, 131.5542
812.1094, 131.0457
812.5916, 130.4246
813.0737, 130.0120
813.5558, 130.1924
814.0379, 130.5321
814.5200, 130.4007
815.0021, 129.7294
815.4843, 129.1268
815.9664, 129.0359
816.4485, 129.1519
816.9306, 129.0892
817.4127, 128.9574
817.8948, 129.0776
818.3770, 129.5020
818.8591, 130.0013
819.3412, 130.4196
819.8233, 130.7016
820.3054, 130.5152
820.7875, 129.5680
821.2697, 129.6076
821.7518, 131.6994
822.2339, 133.2367
822.7160, 132.3872
823.1981, 130.1516
823.6802, 128.1021
824.1624, 126.0755
824.6445, 125.2298
825.1266, 126.7687
825.6087, 128.5056
826.0908, 129.6822
826.5729, 130.0883
827.0551, 129.1711
827.5372, 127.1031
828.0193, 125.2270
828.5014, 124.4902
828.9835, 124.5815
829.4656, 125.1971
829.9478, 126.2181
830.4299, 126.8977
830.9120, 127.0821
831.3941, 127.9711
831.8762, 130.6793
832.3583, 134.1231
832.8404, 135.2819
833.3225, 133.1902
833.8046, 131.5528
834.2867, 130.3552
834.7689, 129.6604
835.2510, 129.7583
835.7331, 130.1812
836.2152, 130.2406
836.6973, 129.9008
837.1794, 130.1838
837.6616, 132.1050
838.1437, 133.9997
838.6258, 134.6512
839.1079, 134.7667
839.5900, 135.4593
840.0721, 136.7107
840.5543, 137.5231
841.0364, 137.1769
841.5185, 136.4807
842.0006, 136.9654
842.4827, 138.4016
842.9648, 139.2842
843.4470, 139.4554
843.9291, 139.1745
844.4112, 138.3058
844.8933, 137.6856
845.3754, 138.9958
845.8575, 142.8587
846.3397, 144.6942
846.8218, 142.4597
847.3039, 140.9575
847.7860, 141.4604
848.2681, 142.7466
848.7502, 144.0780
849.2324, 145.3011
849.7145, 146.1731
850.1966, 146.7031
850.6787, 146.7206
851.1608, 145.5457
851.6429, 144.2135
852.1251, 144.1389
852.6072, 144.9864
853.0893, 145.3959
853.5714, 144.7897
854.0535, 143.9153
854.5356, 143.8622
855.0178, 144.3490
855.4999, 144.0143
855.9820, 142.8394
856.4641, 141.5561
856.9462, 140.3850
857.4283, 139.1148
857.9105, 137.3508
858.3926, 135.2877
858.8747, 134.5480
859.3568, 136.8942
859.8389, 137.4699
860.3210, 134.6617
860.8032, 131.5082
861.2853, 128.8847
861.7674, 127.1133
862.2495, 126.9043
862.7316, 128.5649
863.2137, 129.9571
863.6959, 130.1502
864.1780, 129.7778
864.6601, 129.1035
865.1422, 128.2924
865.6243, 127.4359
866.1064, 126.6451
866.5886, 126.3302
867.0707, 126.8878
867.5528, 127.8395
868.0349, 128.3842
868.5170, 128.5433
868.9991, 128.4502
869.4813, 128.1198
869.9634, 127.5665
870.4455, 126.7817
870.9276, 125.7923
871.4097, 124.5777
871.8918, 123.0168
872.3740, 122.0814
872.8561, 122.1678
873.3382, 122.2339
873.8203, 121.7722
874.3024, 121.3798
874.7845, 121.8543
875.2667, 122.8901
875.7488, 123.0067
876.2309, 121.0000
876.7130, 119.6392
877.1951, 120.7265
877.6772, 122.1374
878.1594, 121.8130
878.6415, 120.4273
879.1236, 119.7633
879.6057, 120.3723
880.0878, 121.1455
880.5699, 120.8960
881.0521, 120.2369
881.5342, 120.4143
882.0163, 121.2037
882.4984, 121.6629
882.9805, 121.5781
883.4626, 121.3164
883.9448, 121.1523
884.4269, 121.0617
884.9090, 120.9375
885.3911, 120.7248
885.8732, 120.8591
886.3553, 121.6145
886.8375, 122.1202
887.3196, 121.8441
887.8017, 121.2133
888.2838, 120.8047
888.7659, 120.6196
889.2480, 120.6490
889.7302, 120.9640
890.2123, 121.3986
890.6944, 122.5136
891.1765, 123.2265
891.6586, 121.8782
892.1407, 119.4420
892.6229, 118.9047
893.1050, 121.7409
893.5871, 124.1944
894.0692, 123.0866
894.5513, 120.7918
895.0334, 120.0346
895.5156, 120.3947
895.9977, 120.5263
896.4798, 120.0319
896.9619, 119.1909
897.4440, 118.0221
897.9261, 117.0382
898.4083, 117.9445
898.8904, 120.5083
899.3725, 121.9776
899.8546, 121.8848
900.3367, 121.4457
900.8188, 121.3686
901.3010, 121.3762
901.7831, 120.8750
902.2652, 119.7097
902.7473, 118.9921
903.2294, 118.6685
903.7115, 118.9023
904.1937, 120.4681
904.6758, 121.9720
905.1579, 122.1123
905.6400, 121.1634
906.1221, 120.2785
906.6042, 119.5294
907.0864, 118.9742
907.5685, 118.4950
908.0506, 118.3527
908.5327, 119.0679
909.0148, 120.0982
909.4969, 120.5625
909.9791, 120.2822
910.4612, 119.8526
910.9433, 119.4924
911.4254, 119.3393
911.9075, 119.7249
912.3896, 120.3631
912.8718, 120.7719
913.3539, 120.8427
913.8360, 120.3588
914.3181, 119.1463
914.8002, 118.0875
915.2823, 118.8513
915.7645, 121.1493
916.2466, 122.9654
916.7287, 124.2838
917.2108, 124.6443
917.6929, 123.6594
918.1750, 122.7147
918.6572, 123.2619
919.1393, 125.0066
919.6214, 126.2844
920.1035, 127.1804
920.5856, 127.3744
921.0677, 126.4505
921.5499, 125.3649
922.0320, 124.3422
922.5141, 123.5348
922.9962, 123.1886
923.4783, 123.3261
923.9604, 123.6015
924.4426, 123.9482
924.9247, 124.4516
925.4068, 125.5128
925.8889, 126.4362
926.3710, 126.3051
926.8531, 125.5543
927.3353, 125.4508
927.8174, 126.4929
928.2995, 127.6231
928.7816, 128.0556
929.2637, 128.2706
929.7458, 128.7949
930.2280, 129.5160
930.7101, 130.0320
931.1922, 130.3482
931.6743, 131.0412
932.1564, 132.5934
932.6385, 134.5597
933.1207, 136.2140
933.6028, 137.6077
934.0849, 139.1163
934.5670, 140.7335
935.0491, 141.5277
935.5313, 140.9778
936.0134, 140.5129
936.4955, 142.0232
936.9776, 145.2915
937.4597, 148.2056
937.9418, 150.8551
938.4240, 152.7513
938.9061, 153.5476
939.3882, 154.1483
939.8703, 154.8697
940.3524, 155.9595
940.8345, 158.1023
941.3167, 161.8037
941.7988, 164.6595
942.2809, 166.2833
942.7630, 167.5947
943.2451, 168.7918
943.7272, 169.7709
944.2094, 170.1026
944.6915, 170.1248
945.1736, 171.0272
945.6557, 173.5488
946.1378, 175.6307
946.6199, 176.5677
947.1021, 176.7742
947.5842, 176.2803
948.0663, 175.3803
948.5484, 174.5205
949.0305, 173.7191
949.5126, 172.5274
949.9948, 170.6807
950.4769, 168.3535
950.9590, 165.6636
951.4411, 162.6084
951.9232, 158.8232
952.4053, 154.6382
952.8875, 151.1528
953.3696, 148.7837
953.8517, 147.0540
954.3338, 145.7267
954.8159, 144.4674
955.2980, 142.1457
955.7802, 138.9680
956.2623, 136.3227
956.7444, 134.4497
957.2265, 133.0438
957.7086, 131.9512
958.1907, 131.0469
958.6729, 130.0769
959.1550, 129.0305
959.6371, 128.3390
960.1192, 128.0719
960.6013, 127.8512
961.0834, 127.5428
961.5656, 127.3638
962.0477, 127.6414
962.5298, 128.1258
963.0119, 127.9314
963.4940, 126.7921
963.9761, 125.6427
964.4583, 124.5300
964.9404, 123.3456
965.4225, 121.4383
965.9046, 119.9149
966.3867, 120.3440
966.8688, 122.3017
967.3510, 123.1022
967.8331, 121.7020
968.3152, 120.3432
968.7973, 119.6169
969.2794, 118.9586
969.7615, 118.0641
970.2437, 117.0091
970.7258, 115.7801
971.2079, 114.4581
971.6900, 113.6004
972.1721, 113.8818
972.6542, 114.1285
973.1364, 113.1328
973.6185, 112.0638
974.1006, 112.2782
974.5827, 113.5368
975.0648, 115.2748
975.5469, 117.2104
976.0291, 118.2969
976.5112, 116.9307
976.9933, 114.9170
977.4754, 114.9517
977.9575, 116.1742
978.4396, 116.6600
978.9218, 116.2518
979.4039, 115.7701
979.8860, 115.6253
980.3681, 115.6652
980.8502, 115.5937
981.3323, 115.5613
981.8145, 116.3500
982.2966, 117.8056
982.7787, 118.4213
983.2608, 117.8630
983.7429, 117.7960
984.2250, 119.4314
984.7072, 121.9175
985.1893, 123.5483
985.6714, 124.2950
986.1535, 124.9456
986.6356, 125.4610
987.1177, 126.0513
987.5999, 126.6584
988.0820, 127.7911
988.5641, 130.1067
989.0462, 133.0948
989.5283, 134.8268
990.0104, 134.3804
990.4926, 135.7445
990.9747, 140.0711
991.4568, 144.0389
991.9389, 146.9787
992.4210, 148.6515
992.9031, 148.0260
993.3853, 145.6546
993.8674, 145.3421
994.3495, 148.4514
994.8316, 151.2964
995.3137, 154.0921
995.7958, 156.2905
996.2780, 156.8053
996.7601, 157.1852
997.2422, 159.6608
997.7243, 163.9339
998.2064, 166.7555
998.6885, 166.3899
999.1707, 166.2902
999.6528, 167.3611
1000.135, 168.9132
1000.617, 170.8535
1001.099, 172.8084
1001.581, 174.2153
1002.063, 175.0592
1002.545, 175.9050
1003.028, 176.7520
1003.510, 178.0027
1003.992, 181.3768
1004.474, 183.9669
1004.956, 181.8734
1005.438, 177.1750
1005.920, 174.3718
1006.402, 174.4622
1006.885, 174.8245
1007.367, 173.9520
1007.849, 172.4301
1008.331, 170.8608
1008.813, 168.9678
1009.295, 166.2131
1009.777, 162.7757
1010.259, 159.0996
1010.741, 155.4015
1011.224, 151.9966
1011.706, 149.3414
1012.188, 146.9515
1012.670, 143.9922
1013.152, 140.7301
1013.634, 137.9134
1014.116, 135.4718
1014.598, 132.4121
1015.081, 128.3429
1015.563, 124.6433
1016.045, 123.0900
1016.527, 122.8444
1017.009, 121.7741
1017.491, 120.0977
1017.973, 118.8288
1018.455, 118.1073
1018.937, 117.6800
1019.420, 117.4320
1019.902, 117.1513
1020.384, 116.5834
1020.866, 115.7207
1021.348, 114.2899
1021.830, 112.3330
1022.312, 111.2407
1022.794, 111.2826
1023.276, 111.3662
1023.759, 110.8883
1024.241, 110.0299
1024.723, 108.9570
1025.205, 107.7301
1025.687, 107.3612
1026.169, 107.9526
1026.651, 108.5813
1027.133, 109.1169
1027.616, 109.5294
1028.098, 109.8117
1028.580, 109.9202
1029.062, 109.6886
1029.544, 110.0303
1030.026, 109.2393
1030.508, 110.4688
1030.990, 111.3291
1031.473, 111.7413
1031.955, 111.2419
1032.437, 109.1636
1032.919, 106.4079
1033.401, 104.5887
1033.883, 103.7084
1034.365, 103.8915
1034.847, 105.8463
1035.329, 107.2839
1035.812, 107.6050
1036.294, 107.6535
1036.776, 107.9997
1037.258, 107.8866
1037.740, 108.2892
1038.222, 107.5777
1038.704, 107.0874
1039.186, 106.7287
1039.668, 106.7521
1040.151, 107.7892
1040.633, 108.5553
1041.115, 107.9719
1041.597, 106.6850
1042.079, 106.0162
1042.561, 106.1317
1043.043, 105.7406
1043.525, 103.9039
1044.008, 102.8585
1044.490, 103.4404
1044.972, 104.4362
1045.454, 105.3190
1045.936, 106.0303
1046.418, 106.5221
1046.900, 106.7950
1047.382, 106.7934
1047.865, 105.9546
1048.347, 105.6242
1048.829, 106.7659
1049.311, 107.8384
1049.793, 107.8025
1050.275, 107.0338
1050.757, 106.0472
1051.239, 104.8683
1051.721, 104.3582
1052.203, 105.6642
1052.686, 106.2965
1053.168, 104.7052
1053.650, 103.0695
1054.132, 102.9947
1054.614, 103.8439
1055.096, 104.5984
1055.578, 105.1092
1056.060, 105.1544
1056.543, 103.5722
1057.025, 103.0458
1057.507, 106.3328
1057.989, 109.0543
1058.471, 107.1843
1058.953, 103.0985
1059.435, 100.5637
1059.917, 100.0952
1060.400, 100.4745
1060.882, 102.2742
1061.364, 103.5122
1061.846, 102.9429
1062.328, 102.1179
1062.810, 102.4355
1063.292, 103.0987
1063.774, 102.4930
1064.256, 100.6394
1064.739, 99.67954
1065.221, 101.0706
1065.703, 102.2683
1066.185, 101.8384
1066.667, 101.2505
1067.149, 101.6836
1067.631, 102.5664
1068.113, 103.0065
1068.595, 102.9370
1069.078, 102.8684
1069.560, 103.0540
1070.042, 103.1003
1070.524, 102.6429
1071.006, 102.1850
1071.488, 102.1045
1071.970, 102.2246
1072.452, 102.3320
1072.935, 102.3793
1073.417, 102.3567
1073.899, 102.2845
1074.381, 102.0700
1074.863, 101.3276
1075.345, 100.8022
1075.827, 101.2096
1076.309, 101.9823
1076.792, 102.3508
1077.274, 102.3898
1077.756, 102.7361
1078.238, 103.6628
1078.720, 104.5513
1079.202, 105.3581
1079.684, 105.7525
1080.166, 105.2459
1080.648, 104.4339
1081.130, 103.9832
1081.613, 103.8119
1082.095, 103.3679
1082.577, 102.4214
1083.059, 101.9371
1083.541, 102.7202
1084.023, 103.6218
1084.505, 104.2029
1084.987, 104.4105
1085.469, 103.9243
1085.952, 103.1182
1086.434, 102.8749
1086.916, 103.4105
1087.398, 103.7378
1087.880, 103.0370
1088.362, 102.5631
1088.844, 103.4541
1089.326, 104.3323
1089.809, 103.6522
1090.291, 102.2332
1090.773, 101.7545
1091.255, 102.4477
1091.737, 102.9451
1092.219, 102.5437
1092.701, 102.1448
1093.183, 102.1358
1093.666, 102.2102
1094.148, 102.2385
1094.630, 102.1549
1095.112, 101.9176
1095.594, 101.5086
1096.076, 100.8283
1096.558, 99.42995
1097.040, 98.59422
1097.522, 99.23119
1098.005, 99.98839
1098.487, 99.75740
1098.969, 99.44534
1099.451, 100.6826
1099.933, 102.9341
1100.415, 103.4726
1100.897, 100.9034
1101.379, 99.03752
1101.861, 99.40601
1102.344, 99.97429
1102.826, 99.50124
1103.308, 99.15069
1103.790, 100.8580
1104.272, 103.4623
1104.754, 103.3143
1105.236, 99.04390
1105.718, 96.79769
1106.201, 99.34433
1106.683, 101.7397
1107.165, 102.8111
1107.647, 103.0180
1108.129, 102.2032
1108.611, 100.9567
1109.093, 100.3399
1109.575, 100.4620
1110.057, 100.5362
1110.540, 100.3684
1111.022, 100.3366
1111.504, 100.9661
1111.986, 101.2080
1112.468, 100.0231
1112.950, 98.47304
1113.432, 98.07364
1113.914, 98.75271
1114.396, 99.08470
1114.879, 98.71990
1115.361, 98.61470
1115.843, 99.08519
1116.325, 99.35928
1116.807, 98.74726
1117.289, 98.28106
1117.771, 99.05119
1118.253, 100.7617
1118.736, 102.3976
1119.218, 104.5270
1119.700, 104.5710
1120.182, 101.2061
1120.664, 98.53594
1121.146, 97.55468
1121.628, 97.51671
1122.110, 98.13367
1122.593, 99.08803
1123.075, 99.66255
1123.557, 99.80259
1124.039, 100.6034
1124.521, 102.5829
1125.003, 103.1600
1125.485, 101.4223
1125.967, 99.92036
1126.449, 99.96127
1126.932, 100.9476
1127.414, 102.2190
1127.896, 103.6493
1128.378, 104.4181
1128.860, 104.5178
1129.342, 103.8636
1129.824, 102.3223
1130.306, 101.0745
1130.788, 100.5385
1131.271, 100.6057
1131.753, 101.3249
1132.235, 102.1984
1132.717, 101.5861
1133.199, 99.68032
1133.681, 99.49915
1134.163, 101.0226
1134.645, 102.0742
1135.128, 102.1419
1135.610, 101.3937
1136.092, 99.83115
1136.574, 98.48363
1137.056, 99.25758
1137.538, 98.68575
1138.020, 101.4799
1138.502, 100.3814
1138.984, 101.3152
1139.467, 104.1996
1139.949, 105.4924
1140.431, 103.8311
1140.913, 101.5843
1141.395, 100.8813
1141.877, 101.1051
1142.359, 101.5532
1142.841, 102.0328
1143.323, 102.3153
1143.806, 102.2326
1144.288, 100.9561
1144.770, 98.67552
1145.252, 97.54065
1145.734, 99.07716
1146.216, 100.9329
1146.698, 100.5356
1147.180, 99.48931
1147.663, 99.78153
1148.145, 100.6496
1148.627, 100.6433
1149.109, 99.92371
1149.591, 99.74294
1150.073, 100.5377
1150.555, 101.0431
1151.037, 100.0566
1151.520, 99.08842
1152.002, 99.09824
1152.484, 99.58723
1152.966, 100.6451
1153.448, 101.5669
1153.930, 100.8511
1154.412, 98.57553
1154.894, 97.26168
1155.376, 98.22339
1155.859, 99.16985
1156.341, 99.55876
1156.823, 99.59012
1157.305, 98.77126
1157.787, 98.12312
1158.269, 99.19675
1158.751, 101.2931
1159.233, 101.9104
1159.715, 100.4061
1160.198, 99.16963
1160.680, 97.66515
1161.162, 97.46201
1161.644, 99.89221
1162.126, 102.3628
1162.608, 103.5575
1163.090, 103.8209
1163.572, 103.5269
1164.055, 102.7069
1164.537, 102.1061
1165.019, 101.7730
1165.501, 101.3993
1165.983, 100.6231
1166.465, 101.1816
1166.947, 104.4208
1167.429, 106.8442
1167.911, 104.9441
1168.394, 100.7534
1168.876, 99.65121
1169.358, 101.6581
1169.840, 102.3152
1170.322, 101.6046
1170.804, 100.5965
1171.286, 99.48390
1171.768, 99.31740
1172.250, 100.7087
1172.733, 102.2009
1173.215, 101.8118
1173.697, 102.8068
1174.179, 101.1933
1174.661, 103.0846
1175.143, 103.8842
1175.625, 103.5078
1176.107, 102.1744
1176.590, 100.1906
1177.072, 99.08454
1177.554, 99.96397
1178.036, 101.3678
1178.518, 101.5363
1179.000, 101.3673
1179.482, 102.0878
1179.964, 103.2883
1180.447, 104.4169
1180.929, 105.2954
1181.411, 105.8442
1181.893, 106.0236
1182.375, 105.4985
1182.857, 103.2850
1183.339, 101.3693
1183.821, 101.1704
1184.303, 101.4082
1184.786, 100.8260
1185.268, 100.1762
1185.750, 100.9276
1186.232, 102.8037
1186.714, 103.6961
1187.196, 102.6660
1187.678, 102.2651
1188.160, 103.8883
1188.642, 104.8783
1189.125, 103.5676
1189.607, 102.2858
1190.089, 103.1900
1190.571, 104.7642
1191.053, 104.1924
1191.535, 101.5065
1192.017, 100.0179
1192.499, 99.99438
1192.982, 100.4595
1193.464, 101.6041
1193.946, 102.4485
1194.428, 102.6945
1194.910, 102.2830
1195.392, 100.9733
1195.874, 99.40943
1196.356, 99.30583
1196.839, 100.5123
1197.321, 100.8307
1197.803, 100.3285
1198.285, 99.88445
1198.767, 99.69247
1199.249, 100.3223
1199.731, 102.0127
1200.213, 103.8096
1200.695, 104.8404
1201.177, 105.2273
1201.660, 104.9987
1202.142, 104.3767
1202.624, 103.8332
1203.106, 103.2654
1203.588, 102.0706
1204.070, 100.4413
1204.552, 99.64085
1205.034, 100.2746
1205.517, 101.2956
1205.999, 102.2011
1206.481, 102.9546
1206.963, 103.7461
1207.445, 104.1686
1207.927, 103.4759
1208.409, 102.3047
1208.891, 101.7804
1209.374, 101.9947
1209.856, 102.2718
1210.338, 102.6339
1210.820, 102.7065
1211.302, 102.3008
1211.784, 101.7636
1212.266, 100.4190
1212.748, 99.86471
1213.230, 102.1031
1213.713, 105.2877
1214.195, 105.5874
1214.677, 102.9659
1215.159, 101.7382
1215.641, 102.2880
1216.123, 102.5504
1216.605, 102.3152
1217.087, 101.9531
1217.569, 101.6104
1218.052, 101.0367
1218.534, 99.91894
1219.016, 98.83334
1219.498, 99.08678
1219.980, 100.3865
1220.462, 101.7795
1220.944, 103.0511
1221.426, 103.1428
1221.909, 102.1464
1222.391, 100.9890
1222.873, 100.1190
1223.355, 100.3125
1223.837, 102.6985
1224.319, 105.1161
1224.801, 105.2323
1225.283, 104.2940
1225.766, 103.2406
1226.248, 102.3963
1226.730, 102.2294
1227.212, 102.5721
1227.694, 102.6752
1228.176, 102.2808
1228.658, 102.5709
1229.140, 105.0573
1229.622, 106.6447
1230.104, 105.7858
1230.587, 104.4937
1231.069, 103.5994
1231.551, 103.0929
1232.033, 103.0074
1232.515, 103.2452
1232.997, 103.4602
1233.479, 103.7052
1233.961, 103.5268
1234.444, 102.5690
1234.926, 102.8350
1235.408, 105.0451
1235.890, 106.4986
1236.372, 105.7713
1236.854, 104.3477
1237.336, 103.8397
1237.818, 103.9916
1238.301, 104.2575
1238.783, 104.5993
1239.265, 105.0524
1239.747, 105.4441
1240.229, 104.9261
1240.711, 103.5962
1241.193, 102.6320
1241.675, 102.5527
1242.157, 102.8719
1242.640, 103.4762
1243.122, 103.9209
1243.604, 103.3333
1244.086, 102.8717
1244.568, 104.2759
1245.050, 106.1988
1245.532, 106.5062
1246.014, 105.3423
1246.496, 104.1465
1246.979, 103.0518
1247.461, 102.6677
1247.943, 103.8729
1248.425, 104.6177
1248.907, 104.3438
1249.389, 103.7821
1249.871, 103.1891
1250.353, 102.5334
1250.836, 101.5973
1251.318, 100.7038
1251.800, 101.2036
1252.282, 103.2324
1252.764, 104.6020
1253.246, 105.3090
1253.728, 105.0705
1254.210, 103.8877
1254.693, 103.2155
1255.175, 103.7076
1255.657, 104.3302
1256.139, 104.0615
1256.621, 104.2315
1257.103, 103.4501
1257.585, 103.5899
1258.067, 102.8623
1258.549, 101.8644
1259.031, 101.7727
1259.514, 102.5347
1259.996, 103.4774
1260.478, 104.3988
1260.960, 105.1742
1261.442, 106.2135
1261.924, 106.4122
1262.406, 104.2364
1262.888, 102.5131
1263.371, 103.3183
1263.853, 104.8143
1264.335, 105.2833
1264.817, 104.9457
1265.299, 104.2133
1265.781, 103.0073
1266.263, 102.8844
1266.745, 104.2221
1267.228, 104.5492
1267.710, 103.4477
1268.192, 102.8551
1268.674, 103.4885
1269.156, 104.0352
1269.638, 103.3862
1270.120, 104.1947
1270.602, 103.2825
1271.084, 104.8584
1271.567, 105.6989
1272.049, 105.9055
1272.531, 105.3089
1273.013, 104.3992
1273.495, 104.5701
1273.977, 105.9028
1274.459, 106.7507
1274.941, 106.3994
1275.423, 105.4357
1275.906, 103.1913
1276.388, 101.6378
1276.870, 102.2872
1277.352, 103.4116
1277.834, 103.5122
1278.316, 103.3420
1278.798, 104.4613
1279.280, 103.9544
1279.763, 106.6493
1280.245, 104.0802
1280.727, 103.1551
1281.209, 104.1190
1281.691, 105.6435
1282.173, 107.5646
1282.655, 108.5379
1283.137, 107.8559
1283.620, 106.6459
1284.102, 106.0527
1284.584, 105.8095
1285.066, 105.5312
##END=



