##NAMES=Alamosite
##RRUFFID=R060067
##IDEAL CHEMISTRY=Pb^2+^SiO_3_
##LOCALITY=Alamos, Sonora, Mexico
##OWNER=RRUFF
##SOURCE=University of Arizona Mineral Museum
##DESCRIPTION=Aggregate of transparent parallel acicular crystals
##STATUS=The identification of this mineral is confirmed by single-crystal X-ray diffraction and chemical analysis.
##URL=rruff.info/R060067
##MEASURED CHEMISTRY=Pb_1.00_Si_1.00_O_3_
130.6109, 1016.325
131.0930, 1017.864
131.5751, 1020.685
132.0572, 1024.080
132.5394, 1027.764
133.0215, 1032.107
133.5036, 1038.330
133.9857, 1046.141
134.4678, 1056.390
134.9499, 1069.256
135.4321, 1084.650
135.9142, 1102.670
136.3963, 1123.563
136.8784, 1147.017
137.3605, 1170.811
137.8426, 1195.405
138.3248, 1219.943
138.8069, 1245.371
139.2890, 1271.180
139.7711, 1294.415
140.2532, 1313.204
140.7353, 1327.450
141.2175, 1338.623
141.6996, 1350.620
142.1817, 1357.559
142.6638, 1353.027
143.1459, 1336.190
143.6280, 1311.334
144.1102, 1277.237
144.5923, 1237.529
145.0744, 1197.395
145.5565, 1157.011
146.0386, 1117.760
146.5207, 1083.691
147.0029, 1056.274
147.4850, 1032.589
147.9671, 1010.285
148.4492, 989.8959
148.9313, 972.5775
149.4134, 958.9455
149.8955, 948.9816
150.3777, 943.3159
150.8598, 944.5168
151.3419, 948.3431
151.8240, 953.4139
152.3061, 959.9133
152.7882, 968.8999
153.2704, 981.6882
153.7525, 999.1146
154.2346, 1017.868
154.7167, 1038.100
155.1988, 1059.380
155.6809, 1081.726
156.1631, 1105.115
156.6452, 1129.213
157.1273, 1153.987
157.6094, 1182.618
158.0915, 1204.076
158.5736, 1214.280
159.0558, 1219.416
159.5379, 1225.523
160.0200, 1234.409
160.5021, 1243.540
160.9842, 1247.781
161.4663, 1245.840
161.9485, 1244.405
162.4306, 1243.303
162.9127, 1243.804
163.3948, 1248.408
163.8769, 1258.178
164.3590, 1272.337
164.8412, 1289.377
165.3233, 1309.487
165.8054, 1331.000
166.2875, 1355.743
166.7696, 1382.670
167.2517, 1403.612
167.7339, 1417.597
168.2160, 1421.851
168.6981, 1413.958
169.1802, 1392.952
169.6623, 1364.181
170.1444, 1332.437
170.6266, 1297.823
171.1087, 1259.908
171.5908, 1214.314
172.0729, 1167.830
172.5550, 1123.945
173.0371, 1083.624
173.5193, 1047.890
174.0014, 1017.893
174.4835, 994.1707
174.9656, 976.1512
175.4477, 963.8812
175.9298, 955.8636
176.4120, 951.5265
176.8941, 950.6481
177.3762, 952.1498
177.8583, 953.0809
178.3404, 953.1543
178.8225, 952.9630
179.3047, 952.5897
179.7868, 952.0034
180.2689, 951.7468
180.7510, 952.2098
181.2331, 952.3973
181.7152, 947.6383
182.1974, 936.5616
182.6795, 922.1296
183.1616, 904.2412
183.6437, 883.2750
184.1258, 859.0687
184.6079, 831.0387
185.0900, 800.1724
185.5722, 773.6859
186.0543, 752.3395
186.5364, 733.3262
187.0185, 715.4551
187.5006, 699.0998
187.9827, 684.9818
188.4649, 673.3861
188.9470, 664.9088
189.4291, 660.2051
189.9112, 660.5597
190.3933, 663.2324
190.8754, 666.9823
191.3576, 671.7834
191.8397, 677.1058
192.3218, 683.0246
192.8039, 689.1758
193.2860, 694.8182
193.7681, 699.9437
194.2503, 704.4836
194.7324, 708.5110
195.2145, 712.1207
195.6966, 714.7027
196.1787, 714.9698
196.6608, 714.2119
197.1430, 713.8647
197.6251, 714.4468
198.1072, 715.5468
198.5893, 716.1891
199.0714, 715.6783
199.5535, 716.6262
200.0357, 720.8008
200.5178, 726.6682
200.9999, 732.4267
201.4820, 737.0152
201.9641, 741.3684
202.4462, 748.1395
202.9284, 758.3279
203.4105, 769.5738
203.8926, 781.7728
204.3747, 794.2907
204.8568, 805.9938
205.3389, 815.8375
205.8211, 824.9038
206.3032, 837.9056
206.7853, 857.3749
207.2674, 878.2694
207.7495, 900.4587
208.2316, 923.2504
208.7138, 945.9359
209.1959, 968.0687
209.6780, 989.7513
210.1601, 1011.026
210.6422, 1033.206
211.1243, 1053.525
211.6065, 1072.137
212.0886, 1088.511
212.5707, 1102.046
213.0528, 1112.463
213.5349, 1119.575
214.0170, 1120.704
214.4992, 1115.881
214.9813, 1105.869
215.4634, 1089.798
215.9455, 1068.614
216.4276, 1043.614
216.9097, 1015.455
217.3919, 984.3807
217.8740, 952.9347
218.3561, 919.8226
218.8382, 887.8507
219.3203, 858.8259
219.8024, 832.0255
220.2845, 805.2424
220.7667, 776.7921
221.2488, 747.2886
221.7309, 720.1805
222.2130, 695.2574
222.6951, 672.5973
223.1772, 652.6566
223.6594, 635.1408
224.1415, 618.7671
224.6236, 602.9285
225.1057, 587.6608
225.5878, 572.7692
226.0699, 557.7580
226.5521, 543.5611
227.0342, 531.2087
227.5163, 520.4925
227.9984, 509.3549
228.4805, 495.6594
228.9626, 481.4551
229.4448, 470.6616
229.9269, 465.0764
230.4090, 460.6241
230.8911, 453.5618
231.3732, 443.8983
231.8553, 434.7557
232.3375, 427.4240
232.8196, 421.5244
233.3017, 416.8953
233.7838, 413.9955
234.2659, 411.1690
234.7480, 406.2551
235.2302, 398.9432
235.7123, 392.5737
236.1944, 389.2277
236.6765, 386.9449
237.1586, 384.0909
237.6407, 380.2641
238.1229, 376.3216
238.6050, 373.1590
239.0871, 370.7863
239.5692, 369.2235
240.0513, 369.5230
240.5334, 370.0406
241.0156, 369.4478
241.4977, 367.4424
241.9798, 365.2102
242.4619, 364.3490
242.9440, 365.1634
243.4261, 366.1912
243.9083, 366.8871
244.3904, 367.9066
244.8725, 369.9301
245.3546, 373.0179
245.8367, 376.3290
246.3188, 378.6279
246.8010, 379.4971
247.2831, 380.6409
247.7652, 382.3695
248.2473, 384.2641
248.7294, 385.8581
249.2115, 387.1833
249.6937, 388.8481
250.1758, 391.8531
250.6579, 397.0707
251.1400, 401.3055
251.6221, 403.4084
252.1042, 405.5471
252.5864, 409.1091
253.0685, 414.1609
253.5506, 419.6212
254.0327, 424.1806
254.5148, 427.3606
254.9969, 431.1252
255.4790, 435.5523
255.9612, 440.4016
256.4433, 445.5329
256.9254, 450.9325
257.4075, 456.6865
257.8896, 462.8112
258.3718, 469.1781
258.8539, 476.5436
259.3360, 485.0896
259.8181, 494.2140
260.3002, 503.5435
260.7823, 513.1300
261.2645, 523.3564
261.7466, 534.6713
262.2287, 547.2770
262.7108, 559.4498
263.1929, 570.6063
263.6750, 581.9319
264.1572, 594.5472
264.6393, 608.0629
265.1214, 621.1807
265.6035, 633.1136
266.0856, 643.8436
266.5677, 651.9214
267.0499, 657.6207
267.5320, 661.1827
268.0141, 663.2057
268.4962, 663.2839
268.9783, 660.1512
269.4604, 652.7167
269.9426, 641.2208
270.4247, 629.2336
270.9068, 617.1609
271.3889, 604.2598
271.8710, 589.5792
272.3531, 573.7926
272.8352, 558.3812
273.3174, 544.0647
273.7995, 530.8902
274.2816, 519.1870
274.7637, 510.5098
275.2458, 501.2108
275.7279, 489.9529
276.2101, 477.2683
276.6922, 464.0512
277.1743, 450.3456
277.6564, 436.9305
278.1385, 426.1124
278.6206, 419.1588
279.1028, 411.8995
279.5849, 402.5551
280.0670, 392.2642
280.5491, 382.7247
281.0312, 374.3559
281.5133, 367.5560
281.9955, 363.7990
282.4776, 363.9641
282.9597, 363.2477
283.4418, 359.4274
283.9239, 354.2659
284.4060, 350.5521
284.8882, 349.0613
285.3703, 348.8012
285.8524, 348.5533
286.3345, 348.2836
286.8166, 348.2490
287.2987, 348.6638
287.7809, 349.2799
288.2630, 349.5970
288.7451, 349.4581
289.2272, 349.6802
289.7093, 351.3527
290.1914, 354.3935
290.6736, 357.3207
291.1557, 359.9221
291.6378, 362.3154
292.1199, 364.4677
292.6020, 366.3548
293.0841, 368.5096
293.5663, 371.3157
294.0484, 374.7895
294.5305, 378.8061
295.0126, 383.4887
295.4947, 388.6113
295.9768, 394.1903
296.4590, 400.1850
296.9411, 406.0367
297.4232, 411.6349
297.9053, 416.6619
298.3874, 420.5173
298.8695, 422.3096
299.3517, 423.8966
299.8338, 427.2773
300.3159, 432.0247
300.7980, 435.1707
301.2801, 435.3192
301.7622, 432.8651
302.2444, 428.7042
302.7265, 421.4245
303.2086, 415.7852
303.6907, 416.2506
304.1728, 420.9929
304.6549, 423.1362
305.1371, 419.7328
305.6192, 413.8322
306.1013, 409.6970
306.5834, 407.2799
307.0655, 406.0692
307.5476, 406.4903
308.0298, 407.9233
308.5119, 408.7648
308.9940, 408.3863
309.4761, 408.1134
309.9582, 409.4214
310.4403, 412.1132
310.9225, 415.6711
311.4046, 421.0773
311.8867, 426.8908
312.3688, 430.4470
312.8509, 431.1187
313.3330, 431.5546
313.8152, 434.5266
314.2973, 439.1921
314.7794, 442.7201
315.2615, 443.3504
315.7436, 443.3091
316.2257, 445.3781
316.7079, 449.7021
317.1900, 453.6506
317.6721, 455.6870
318.1542, 456.1015
318.6363, 455.9687
319.1184, 456.1419
319.6006, 454.8052
320.0827, 450.2381
320.5648, 442.6991
321.0469, 433.9884
321.5290, 424.2658
322.0111, 414.2112
322.4933, 404.7685
322.9754, 395.6122
323.4575, 387.9411
323.9396, 383.0309
324.4217, 380.1870
324.9038, 377.0798
325.3860, 372.5410
325.8681, 368.5177
326.3502, 367.9393
326.8323, 370.6627
327.3144, 374.0496
327.7965, 376.9523
328.2787, 379.9837
328.7608, 384.1899
329.2429, 389.7811
329.7250, 396.2473
330.2071, 403.3030
330.6892, 410.8807
331.1714, 418.7571
331.6535, 427.2511
332.1356, 435.8242
332.6177, 443.6596
333.0998, 450.7239
333.5819, 458.0571
334.0641, 466.4498
334.5462, 475.6848
335.0283, 484.8401
335.5104, 492.8520
335.9925, 501.7873
336.4746, 513.9169
336.9568, 528.5094
337.4389, 541.6319
337.9210, 550.8258
338.4031, 558.3614
338.8852, 569.7278
339.3673, 586.2599
339.8495, 602.6892
340.3316, 616.0160
340.8137, 627.7618
341.2958, 641.2006
341.7779, 657.4132
342.2600, 674.9057
342.7421, 691.4023
343.2242, 706.5524
343.7064, 723.3582
344.1885, 743.5276
344.6706, 765.0604
345.1527, 786.1337
345.6348, 806.5456
346.1169, 825.7437
346.5991, 843.2936
347.0812, 859.0150
347.5633, 873.1942
348.0454, 886.4798
348.5275, 897.8455
349.0096, 907.1147
349.4918, 914.0394
349.9739, 917.7925
350.4560, 918.3177
350.9381, 914.9568
351.4202, 904.7656
351.9023, 884.8880
352.3845, 862.8884
352.8666, 841.7777
353.3487, 819.9222
353.8308, 793.6952
354.3129, 761.2935
354.7950, 726.1176
355.2772, 694.5260
355.7593, 667.5392
356.2414, 642.1480
356.7235, 618.0814
357.2056, 595.5756
357.6877, 575.1929
358.1699, 556.9068
358.6520, 540.0336
359.1341, 523.6411
359.6162, 507.5515
360.0983, 493.7350
360.5804, 482.1417
361.0626, 472.5478
361.5447, 465.0901
362.0268, 459.5106
362.5089, 455.1890
362.9910, 451.7639
363.4731, 449.1660
363.9553, 446.9286
364.4374, 444.2894
364.9195, 442.8272
365.4016, 444.1124
365.8837, 446.4109
366.3658, 447.2042
366.8480, 445.4550
367.3301, 442.2785
367.8122, 440.0995
368.2943, 439.9503
368.7764, 439.2318
369.2585, 437.8001
369.7407, 435.9503
370.2228, 433.8712
370.7049, 431.6066
371.1870, 429.0803
371.6691, 426.0580
372.1512, 422.2787
372.6334, 419.7204
373.1155, 419.0212
373.5976, 418.8478
374.0797, 418.6581
374.5618, 418.6241
375.0439, 419.2310
375.5261, 420.8410
376.0082, 423.2884
376.4903, 425.7316
376.9724, 427.9879
377.4545, 430.5366
377.9366, 433.2368
378.4188, 436.3463
378.9009, 440.2789
379.3830, 445.1413
379.8651, 450.4201
380.3472, 455.3701
380.8293, 460.2179
381.3115, 464.0703
381.7936, 466.7134
382.2757, 468.4553
382.7578, 469.3387
383.2399, 469.4106
383.7220, 468.8150
384.2042, 467.8320
384.6863, 466.3957
385.1684, 463.4855
385.6505, 458.1342
386.1326, 452.5643
386.6147, 447.8471
387.0969, 443.4977
387.5790, 438.7823
388.0611, 433.3947
388.5432, 427.3506
389.0253, 420.3093
389.5074, 411.8181
389.9896, 404.1994
390.4717, 398.6416
390.9538, 394.0832
391.4359, 389.6519
391.9180, 385.2028
392.4001, 381.4848
392.8823, 379.3156
393.3644, 378.5095
393.8465, 377.9848
394.3286, 377.8216
394.8107, 377.5198
395.2928, 376.4388
395.7750, 374.8225
396.2571, 373.5766
396.7392, 373.9152
397.2213, 374.4278
397.7034, 372.4115
398.1855, 367.5765
398.6677, 363.7469
399.1498, 363.5780
399.6319, 365.8507
400.1140, 367.4668
400.5961, 367.8836
401.0782, 368.3559
401.5604, 369.7613
402.0425, 371.8186
402.5246, 373.7736
403.0067, 375.4438
403.4888, 376.7859
403.9709, 377.6104
404.4531, 377.8703
404.9352, 378.2042
405.4173, 378.8082
405.8994, 379.4872
406.3815, 380.0774
406.8636, 380.5557
407.3458, 380.9525
407.8279, 381.3710
408.3100, 381.7555
408.7921, 381.3716
409.2742, 379.6774
409.7563, 377.9314
410.2385, 376.7605
410.7206, 375.8323
411.2027, 374.5723
411.6848, 372.7441
412.1669, 370.4406
412.6490, 367.8742
413.1311, 365.4293
413.6133, 361.9400
414.0954, 356.3911
414.5775, 350.5876
415.0596, 345.6437
415.5417, 341.7749
416.0238, 338.8356
416.5060, 336.8466
416.9881, 335.8605
417.4702, 334.0623
417.9523, 330.7519
418.4344, 327.3367
418.9165, 323.5183
419.3987, 319.9692
419.8808, 317.7774
420.3629, 317.4897
420.8450, 318.1100
421.3271, 317.4054
421.8092, 314.5404
422.2914, 312.4753
422.7735, 312.0425
423.2556, 312.0615
423.7377, 311.6237
424.2198, 310.8027
424.7019, 310.5340
425.1841, 311.7338
425.6662, 314.2925
426.1483, 317.1208
426.6304, 320.5392
427.1125, 323.6743
427.5946, 325.9200
428.0768, 327.7315
428.5589, 329.7211
429.0410, 332.0831
429.5231, 334.7653
430.0052, 337.8484
430.4873, 341.3477
430.9695, 344.6123
431.4516, 347.3527
431.9337, 349.8683
432.4158, 352.4171
432.8979, 355.0027
433.3800, 357.7959
433.8622, 360.8337
434.3443, 364.1406
434.8264, 367.7466
435.3085, 371.6281
435.7906, 375.9488
436.2727, 380.7453
436.7549, 386.1610
437.2370, 392.4516
437.7191, 400.0823
438.2012, 408.1061
438.6833, 416.1279
439.1654, 424.1756
439.6476, 432.2207
440.1297, 440.1663
440.6118, 448.5157
441.0939, 458.3936
441.5760, 471.0458
442.0581, 481.7033
442.5403, 490.3002
443.0224, 496.7234
443.5045, 500.7997
443.9866, 502.5798
444.4687, 502.4063
444.9508, 500.7248
445.4330, 497.3237
445.9151, 489.5554
446.3972, 473.7218
446.8793, 457.8634
447.3614, 442.8682
447.8435, 428.5732
448.3257, 414.5671
448.8078, 400.7774
449.2899, 387.5601
449.7720, 375.3348
450.2541, 363.9445
450.7362, 354.2453
451.2184, 346.3242
451.7005, 340.0925
452.1826, 336.3969
452.6647, 334.4154
453.1468, 332.2348
453.6289, 328.5325
454.1111, 324.0808
454.5932, 320.9218
455.0753, 319.0704
455.5574, 318.3981
456.0395, 319.3874
456.5216, 321.2855
457.0038, 323.5876
457.4859, 326.2367
457.9680, 329.3649
458.4501, 333.2880
458.9322, 337.8154
459.4143, 341.9346
459.8965, 345.0933
460.3786, 349.0532
460.8607, 355.9012
461.3428, 364.6770
461.8249, 373.0206
462.3070, 380.5021
462.7892, 387.4445
463.2713, 394.5966
463.7534, 401.5239
464.2355, 406.6692
464.7176, 409.6122
465.1997, 410.1706
465.6819, 407.6962
466.1640, 401.8806
466.6461, 394.5834
467.1282, 385.2796
467.6103, 375.0793
468.0924, 364.5376
468.5746, 353.9111
469.0567, 343.4671
469.5388, 333.3464
470.0209, 323.7165
470.5030, 315.4979
470.9851, 308.6868
471.4673, 303.4489
471.9494, 300.5194
472.4315, 298.8059
472.9136, 297.2787
473.3957, 295.6751
473.8778, 294.3496
474.3600, 293.7832
474.8421, 294.0688
475.3242, 294.4216
475.8063, 294.7320
476.2884, 295.2451
476.7705, 295.8676
477.2527, 296.7808
477.7348, 298.3521
478.2169, 300.8423
478.6990, 303.7387
479.1811, 306.0672
479.6632, 307.7181
480.1454, 309.7933
480.6275, 312.5056
481.1096, 315.8258
481.5917, 319.8324
482.0738, 324.4526
482.5559, 329.1235
483.0380, 332.9344
483.5201, 336.9174
484.0023, 343.1749
484.4844, 351.8558
484.9665, 360.2012
485.4486, 366.1854
485.9307, 371.0531
486.4128, 378.2816
486.8950, 388.9969
487.3771, 399.4650
487.8592, 408.5986
488.3413, 416.6459
488.8234, 424.2560
489.3055, 431.5149
489.7877, 437.4271
490.2698, 441.0217
490.7519, 442.2766
491.2340, 441.6691
491.7161, 438.2422
492.1982, 434.3944
492.6804, 432.2297
493.1625, 429.6571
493.6446, 423.3644
494.1267, 412.1784
494.6088, 398.1553
495.0909, 384.4774
495.5731, 371.0547
496.0552, 358.2757
496.5373, 346.1514
497.0194, 334.6780
497.5015, 323.7656
497.9836, 313.5677
498.4658, 304.4321
498.9479, 296.6310
499.4300, 289.8460
499.9121, 283.3291
500.3942, 277.0228
500.8763, 271.6346
501.3585, 267.8564
501.8406, 264.7177
502.3227, 261.2285
502.8048, 257.3874
503.2869, 253.7985
503.7690, 250.8490
504.2512, 248.2779
504.7333, 245.7043
505.2154, 243.0871
505.6975, 240.6884
506.1796, 238.7640
506.6617, 237.1074
507.1439, 235.0704
507.6260, 232.5735
508.1081, 229.8815
508.5902, 226.7956
509.0723, 223.6921
509.5544, 220.8794
510.0366, 218.4708
510.5187, 216.6059
511.0008, 215.4859
511.4829, 215.1082
511.9650, 214.5797
512.4471, 213.8194
512.9293, 213.0046
513.4114, 212.0511
513.8935, 211.1164
514.3756, 210.3377
514.8577, 209.7654
515.3398, 209.4168
515.8220, 209.4332
516.3041, 209.8811
516.7862, 209.9716
517.2683, 209.6090
517.7504, 208.9732
518.2325, 207.8989
518.7147, 206.6915
519.1968, 205.8591
519.6789, 205.5761
520.1610, 205.7207
520.6431, 206.3121
521.1252, 207.2898
521.6074, 208.1669
522.0895, 208.8305
522.5716, 209.3513
523.0537, 209.7687
523.5358, 210.0959
524.0179, 210.4010
524.5001, 210.6348
524.9822, 210.9052
525.4643, 211.1136
525.9464, 211.4090
526.4285, 212.3895
526.9106, 214.4106
527.3928, 216.6588
527.8749, 217.5702
528.3570, 216.3259
528.8391, 215.6066
529.3212, 216.4804
529.8033, 216.8658
530.2855, 215.1212
530.7676, 211.9084
531.2497, 209.0446
531.7318, 207.6323
532.2139, 207.1082
532.6960, 205.9430
533.1782, 203.8023
533.6603, 201.9731
534.1424, 200.9481
534.6245, 200.0755
535.1066, 198.8638
535.5887, 197.4203
536.0709, 196.3046
536.5530, 195.9744
537.0351, 196.1224
537.5172, 196.0505
537.9993, 195.7226
538.4814, 196.0462
538.9636, 197.8523
539.4457, 200.0883
539.9278, 201.1203
540.4099, 200.9361
540.8920, 199.9408
541.3741, 197.1492
541.8563, 194.3192
542.3384, 193.5405
542.8205, 194.6137
543.3026, 195.6292
543.7847, 195.3370
544.2668, 194.1733
544.7490, 193.7254
545.2311, 194.4856
545.7132, 195.3356
546.1953, 196.9259
546.6774, 198.0877
547.1595, 197.5242
547.6417, 195.5500
548.1238, 193.8000
548.6059, 193.6081
549.0880, 194.5319
549.5701, 194.7028
550.0522, 193.7072
550.5344, 193.0251
551.0165, 193.3557
551.4986, 194.0210
551.9807, 194.6099
552.4628, 195.0726
552.9449, 195.3478
553.4271, 195.3485
553.9092, 195.1598
554.3913, 194.7992
554.8734, 194.2674
555.3555, 194.1358
555.8376, 194.9634
556.3198, 196.1916
556.8019, 196.2781
557.2840, 194.7691
557.7661, 193.4779
558.2482, 192.7467
558.7303, 192.3797
559.2125, 192.2410
559.6946, 192.2971
560.1767, 192.5381
560.6588, 192.9746
561.1409, 193.5583
561.6230, 194.0661
562.1052, 194.3076
562.5873, 194.8191
563.0694, 195.6212
563.5515, 196.6926
564.0336, 198.2605
564.5157, 200.1581
564.9979, 201.6911
565.4800, 202.0952
565.9621, 201.9529
566.4442, 202.8956
566.9263, 205.0948
567.4084, 207.2308
567.8906, 209.0353
568.3727, 210.3242
568.8548, 210.6340
569.3369, 209.8642
569.8190, 209.7790
570.3011, 211.5114
570.7833, 213.8382
571.2654, 215.5973
571.7475, 216.7845
572.2296, 217.6700
572.7117, 218.3288
573.1938, 219.0241
573.6760, 220.4298
574.1581, 223.0683
574.6402, 225.4732
575.1223, 227.3857
575.6044, 229.3188
576.0865, 231.5657
576.5687, 234.0991
577.0508, 236.6790
577.5329, 239.0866
578.0150, 241.7666
578.4971, 245.9464
578.9792, 251.9940
579.4614, 257.3046
579.9435, 260.5951
580.4256, 263.9176
580.9077, 269.1973
581.3898, 275.8450
581.8719, 281.6207
582.3541, 285.0855
582.8362, 287.9096
583.3183, 292.3582
583.8004, 297.6509
584.2825, 300.7458
584.7646, 300.6160
585.2468, 298.2613
585.7289, 294.8618
586.2110, 290.3861
586.6931, 284.7845
587.1752, 277.1617
587.6573, 269.5025
588.1394, 262.6303
588.6215, 256.2159
589.1036, 249.5917
589.5858, 242.5460
590.0679, 235.5434
590.5500, 229.0417
591.0321, 222.9733
591.5142, 218.1567
591.9963, 215.0034
592.4785, 212.5539
592.9606, 210.6890
593.4427, 209.0600
593.9248, 207.0520
594.4069, 204.3566
594.8890, 202.0565
595.3712, 201.5591
595.8533, 201.9382
596.3354, 200.7331
596.8175, 197.5453
597.2996, 194.4197
597.7817, 192.8229
598.2639, 192.5178
598.7460, 192.2900
599.2281, 192.3797
599.7102, 192.2148
600.1923, 191.4726
600.6744, 190.6082
601.1566, 190.0207
601.6387, 189.7379
602.1208, 189.5934
602.6029, 189.4905
603.0850, 189.3855
603.5671, 189.0383
604.0493, 188.2287
604.5314, 187.7675
605.0135, 188.1973
605.4956, 188.7552
605.9777, 188.8115
606.4598, 188.4560
606.9420, 188.3765
607.4241, 189.5205
607.9062, 190.6867
608.3883, 190.1243
608.8704, 188.1433
609.3525, 186.3395
609.8347, 185.1649
610.3168, 184.7957
610.7989, 185.6257
611.2810, 188.0082
611.7631, 189.8960
612.2452, 191.4406
612.7274, 192.3562
613.2095, 192.0015
613.6916, 191.1171
614.1737, 190.8587
614.6558, 191.5905
615.1379, 192.6331
615.6201, 193.0422
616.1022, 192.7859
616.5843, 192.9873
617.0664, 193.8849
617.5485, 194.8136
618.0306, 195.2255
618.5128, 195.5921
618.9949, 196.6631
619.4770, 198.7075
619.9591, 200.4740
620.4412, 200.9114
620.9233, 200.7858
621.4055, 201.1394
621.8876, 202.0832
622.3697, 203.6240
622.8518, 205.9010
623.3339, 208.5539
623.8160, 210.5182
624.2982, 211.3769
624.7803, 212.1843
625.2624, 212.7339
625.7445, 213.4212
626.2266, 214.2835
626.7087, 215.4955
627.1909, 217.4912
627.6730, 220.5914
628.1551, 224.0868
628.6372, 226.5816
629.1193, 228.0382
629.6014, 230.0725
630.0836, 233.1241
630.5657, 236.4390
631.0478, 239.1600
631.5299, 241.6636
632.0120, 245.0402
632.4941, 250.0566
632.9763, 255.0661
633.4584, 259.1476
633.9405, 262.7556
634.4226, 266.5011
634.9047, 270.4964
635.3868, 274.7291
635.8690, 279.4400
636.3511, 284.2324
636.8332, 286.2477
637.3153, 283.9248
637.7974, 281.3005
638.2795, 280.3110
638.7617, 278.0864
639.2438, 271.8165
639.7259, 262.1702
640.2080, 252.5852
640.6901, 244.9355
641.1722, 238.4126
641.6544, 231.5457
642.1365, 224.4676
642.6186, 218.7548
643.1007, 215.0375
643.5828, 212.3653
644.0649, 209.9116
644.5471, 207.6823
645.0292, 205.1262
645.5113, 201.4282
645.9934, 198.3558
646.4755, 197.3924
646.9576, 196.9988
647.4398, 194.8769
647.9219, 190.8018
648.4040, 186.7982
648.8861, 184.8016
649.3682, 184.5890
649.8503, 185.0322
650.3325, 186.7106
650.8146, 187.4122
651.2967, 185.5033
651.7788, 183.0616
652.2609, 182.0166
652.7430, 182.3499
653.2252, 182.6195
653.7073, 181.9774
654.1894, 181.3018
654.6715, 181.6513
655.1536, 182.6431
655.6357, 183.0525
656.1179, 182.4523
656.6000, 181.4885
657.0821, 180.9455
657.5642, 180.8341
658.0463, 181.0261
658.5284, 181.9764
659.0106, 182.6961
659.4927, 183.1044
659.9748, 183.1259
660.4569, 182.5060
660.9390, 181.2930
661.4211, 180.1615
661.9033, 179.8044
662.3854, 179.8416
662.8675, 179.1734
663.3496, 177.8020
663.8317, 177.4035
664.3138, 178.9230
664.7960, 181.1419
665.2781, 182.3861
665.7602, 182.5170
666.2423, 182.2495
666.7244, 180.4101
667.2065, 179.4637
667.6887, 181.5817
668.1708, 184.8683
668.6529, 186.2622
669.1350, 185.0639
669.6171, 183.5124
670.0992, 184.2745
670.5814, 186.9702
671.0635, 188.0981
671.5456, 187.0481
672.0277, 186.4377
672.5098, 187.7774
672.9919, 189.6195
673.4741, 190.1470
673.9562, 189.3062
674.4383, 188.4221
674.9204, 187.5017
675.4025, 186.9958
675.8846, 187.5489
676.3668, 188.7453
676.8489, 189.7212
677.3310, 190.1681
677.8131, 190.2173
678.2952, 190.0379
678.7773, 189.6370
679.2595, 188.7711
679.7416, 186.9447
680.2237, 185.4672
680.7058, 185.0457
681.1879, 184.8868
681.6700, 184.2389
682.1522, 183.0486
682.6343, 181.7968
683.1164, 180.6092
683.5985, 179.5926
684.0806, 178.9657
684.5627, 178.6490
685.0449, 178.3717
685.5270, 178.0562
686.0091, 177.5455
686.4912, 176.5076
686.9733, 174.8033
687.4554, 174.1853
687.9376, 175.9043
688.4197, 177.1875
688.9018, 177.3459
689.3839, 176.9411
689.8660, 176.4373
690.3481, 175.9394
690.8303, 175.4659
691.3124, 175.1192
691.7945, 174.7475
692.2766, 173.8345
692.7587, 172.4820
693.2408, 171.8913
693.7230, 172.5902
694.2051, 173.6679
694.6872, 174.0633
695.1693, 173.7309
695.6514, 173.6954
696.1335, 174.5355
696.6157, 174.9203
697.0978, 174.0004
697.5799, 172.7916
698.0620, 172.4234
698.5441, 172.9170
699.0262, 173.3763
699.5084, 173.0781
699.9905, 172.3939
700.4726, 172.1744
700.9547, 172.4271
701.4368, 172.8107
701.9189, 173.4775
702.4011, 173.7180
702.8832, 172.3280
703.3653, 169.5967
703.8474, 168.7165
704.3295, 171.5452
704.8116, 173.9409
705.2938, 174.3155
705.7759, 173.9755
706.2580, 174.2985
706.7401, 175.3042
707.2222, 176.1274
707.7043, 176.1587
708.1865, 175.7344
708.6686, 175.6255
709.1507, 175.8625
709.6328, 176.0410
710.1149, 176.1033
710.5970, 176.0838
711.0792, 175.8848
711.5613, 175.6268
712.0434, 175.7035
712.5255, 176.4736
713.0076, 176.9763
713.4897, 176.3385
713.9719, 175.6946
714.4540, 176.5043
714.9361, 178.4112
715.4182, 179.8038
715.9003, 179.7459
716.3824, 179.0161
716.8646, 179.1940
717.3467, 180.4095
717.8288, 181.0868
718.3109, 180.9169
718.7930, 180.5855
719.2751, 180.0497
719.7573, 179.7624
720.2394, 180.7334
720.7215, 183.5457
721.2036, 185.6014
721.6857, 185.1774
722.1678, 184.3300
722.6500, 184.9838
723.1321, 186.7491
723.6142, 188.2651
724.0963, 188.9588
724.5784, 189.3746
725.0605, 190.3783
725.5427, 192.0005
726.0248, 192.9508
726.5069, 192.9951
726.9890, 192.8902
727.4711, 192.9505
727.9532, 192.9918
728.4354, 192.9428
728.9175, 192.8120
729.3995, 192.0218
729.8817, 190.0604
730.3638, 187.7227
730.8459, 185.2108
731.3280, 182.8104
731.8101, 181.2001
732.2922, 180.4611
732.7744, 179.6774
733.2565, 177.8052
733.7386, 175.1315
734.2207, 173.5604
734.7028, 173.3344
735.1849, 173.4762
735.6671, 174.3307
736.1492, 174.8712
736.6313, 173.9333
737.1134, 171.8715
737.5955, 170.2511
738.0776, 169.3707
738.5598, 169.0203
739.0419, 169.4139
739.5240, 170.1179
740.0061, 170.7800
740.4882, 171.2276
740.9703, 171.0286
741.4525, 169.7945
741.9346, 168.1344
742.4167, 167.5782
742.8988, 168.2799
743.3809, 169.0352
743.8630, 170.0327
744.3452, 170.5478
744.8273, 169.6889
745.3094, 168.1548
745.7915, 167.2444
746.2736, 167.1482
746.7557, 167.3216
747.2379, 167.9620
747.7200, 168.4926
748.2021, 168.2777
748.6842, 167.5697
749.1663, 166.9498
749.6484, 166.6651
750.1306, 166.7337
750.6127, 167.4591
751.0948, 168.7325
751.5769, 168.6968
752.0590, 166.7861
752.5411, 165.6754
753.0233, 166.8685
753.5054, 168.8514
753.9875, 169.6562
754.4696, 169.3123
754.9517, 168.8374
755.4338, 168.3159
755.9160, 167.7398
756.3981, 166.5794
756.8802, 165.6463
757.3623, 166.2794
757.8444, 168.3768
758.3265, 170.3473
758.8087, 170.8968
759.2908, 170.7028
759.7729, 171.4230
760.2550, 173.0574
760.7371, 174.3596
761.2192, 175.1039
761.7014, 175.4479
762.1835, 175.2716
762.6656, 174.8033
763.1477, 175.0909
763.6298, 176.8323
764.1119, 178.0215
764.5941, 177.9856
765.0762, 177.7283
765.5583, 177.8146
766.0404, 178.2170
766.5225, 178.6763
767.0046, 179.0916
767.4868, 179.8575
767.9689, 181.5979
768.4510, 183.9976
768.9331, 186.1836
769.4152, 188.1182
769.8973, 189.6122
770.3795, 190.4249
770.8616, 191.2009
771.3437, 192.8293
771.8258, 195.3076
772.3079, 198.6231
772.7900, 204.7580
773.2722, 209.1484
773.7543, 209.5804
774.2364, 208.7543
774.7185, 209.4146
775.2006, 211.4244
775.6827, 212.5221
776.1649, 211.3235
776.6470, 209.0175
777.1291, 206.8875
777.6112, 204.7073
778.0933, 201.6003
778.5754, 197.4941
779.0576, 193.7951
779.5397, 191.5963
780.0218, 190.3150
780.5039, 188.1101
780.9860, 184.3294
781.4681, 181.3405
781.9503, 179.3989
782.4324, 178.0598
782.9145, 177.6120
783.3966, 177.4220
783.8787, 176.4703
784.3608, 174.5174
784.8430, 172.7477
785.3251, 171.5363
785.8072, 170.8914
786.2893, 171.3472
786.7714, 172.2863
787.2535, 172.0750
787.7357, 170.3457
788.2178, 168.7098
788.6999, 169.0504
789.1820, 170.8048
789.6641, 170.5948
790.1462, 167.8000
790.6284, 165.9411
791.1105, 166.2073
791.5926, 166.9762
792.0747, 166.7894
792.5568, 165.9364
793.0389, 165.5941
793.5211, 166.2132
794.0032, 166.6963
794.4853, 166.6674
794.9674, 166.4909
795.4495, 166.4041
795.9316, 166.4214
796.4138, 166.5415
796.8959, 166.7647
797.3780, 166.9072
797.8601, 166.4927
798.3422, 165.8346
798.8243, 166.3285
799.3065, 168.0279
799.7886, 168.9932
800.2707, 168.3475
800.7528, 167.0146
801.2349, 166.1360
801.7170, 165.7384
802.1992, 165.3840
802.6813, 165.0790
803.1634, 164.8096
803.6455, 164.2530
804.1276, 163.9923
804.6097, 164.9226
805.0919, 166.5834
805.5740, 167.3179
806.0561, 166.0894
806.5382, 164.7376
807.0203, 165.0886
807.5024, 166.1180
807.9846, 165.9634
808.4667, 164.7120
808.9488, 163.8210
809.4309, 164.0594
809.9130, 164.8435
810.3951, 165.1774
810.8773, 165.0138
811.3594, 165.1731
811.8415, 165.9708
812.3236, 166.2778
812.8057, 165.0594
813.2878, 163.7077
813.7700, 164.2272
814.2521, 166.4699
814.7342, 167.5305
815.2163, 166.0553
815.6984, 164.5234
816.1805, 163.4386
816.6627, 163.0359
817.1448, 164.1163
817.6269, 166.1501
818.1090, 167.3003
818.5911, 166.4738
819.0732, 164.9794
819.5554, 164.4785
820.0375, 164.8058
820.5196, 165.4566
821.0017, 166.3875
821.4838, 167.1676
821.9659, 167.6287
822.4481, 167.6700
822.9302, 167.0093
823.4123, 165.4296
823.8944, 164.6251
824.3765, 165.0977
824.8586, 165.6713
825.3408, 166.1230
825.8229, 166.5545
826.3050, 167.1525
826.7871, 167.8412
827.2692, 168.2288
827.7513, 167.9923
828.2335, 167.7274
828.7156, 167.8369
829.1977, 168.1129
829.6798, 168.2734
830.1619, 168.3265
830.6440, 168.4605
831.1262, 168.7749
831.6083, 169.1159
832.0904, 169.3006
832.5725, 169.3209
833.0546, 168.9260
833.5367, 167.9800
834.0189, 167.5122
834.5010, 168.1559
834.9831, 169.0154
835.4652, 168.8623
835.9473, 167.6419
836.4294, 167.1892
836.9116, 168.2020
837.3937, 168.9568
837.8758, 169.0068
838.3579, 168.8549
838.8400, 168.7068
839.3221, 168.6925
839.8043, 169.1291
840.2864, 170.2770
840.7685, 171.1932
841.2506, 170.6653
841.7327, 169.7515
842.2148, 170.3237
842.6970, 171.9877
843.1791, 172.7700
843.6612, 171.9570
844.1433, 170.8107
844.6254, 170.8990
845.1075, 172.0161
845.5897, 172.5991
846.0718, 172.5471
846.5539, 172.4008
847.0360, 172.1148
847.5181, 172.0521
848.0002, 172.5465
848.4824, 173.5249
848.9645, 174.6597
849.4466, 176.5238
849.9287, 177.4782
850.4108, 176.1483
850.8929, 175.0968
851.3751, 176.0977
851.8572, 178.2257
852.3393, 180.0111
852.8214, 181.0869
853.3035, 181.8417
853.7856, 182.3748
854.2678, 182.8540
854.7499, 183.1645
855.2320, 183.6315
855.7141, 185.5569
856.1962, 189.0163
856.6783, 191.7895
857.1605, 192.0793
857.6426, 190.8796
858.1247, 190.8349
858.6068, 192.0673
859.0889, 193.5506
859.5710, 195.3362
860.0532, 197.0624
860.5353, 198.5458
861.0174, 199.8604
861.4995, 201.1292
861.9816, 202.3744
862.4637, 203.4286
862.9459, 204.6567
863.4280, 205.2271
863.9101, 204.5482
864.3922, 203.3411
864.8743, 202.0868
865.3564, 200.9314
865.8386, 200.0139
866.3207, 199.3790
866.8028, 199.0438
867.2849, 199.5146
867.7670, 200.0302
868.2491, 199.0352
868.7313, 196.8543
869.2134, 195.1427
869.6955, 194.5792
870.1776, 194.8615
870.6597, 195.8015
871.1418, 197.2431
871.6239, 197.9350
872.1060, 197.7086
872.5881, 197.9566
873.0703, 199.1443
873.5524, 200.5408
874.0345, 201.4967
874.5166, 202.1669
874.9987, 203.2122
875.4808, 204.9220
875.9630, 206.5167
876.4451, 207.1753
876.9272, 208.6203
877.4093, 212.3390
877.8914, 216.9138
878.3735, 220.3594
878.8557, 222.4452
879.3378, 224.5373
879.8199, 226.9870
880.3020, 229.9980
880.7841, 233.8194
881.2662, 238.2336
881.7484, 243.1937
882.2305, 248.4537
882.7126, 253.2957
883.1947, 257.2780
883.6768, 260.7553
884.1589, 263.6263
884.6411, 266.3267
885.1232, 271.7564
885.6053, 280.1067
886.0874, 288.5586
886.5695, 296.1901
887.0516, 303.0623
887.5338, 309.2386
888.0159, 314.7681
888.4980, 319.9658
888.9801, 325.0814
889.4622, 329.3683
889.9443, 333.0588
890.4265, 335.4993
890.9086, 336.5091
891.3907, 335.9942
891.8728, 333.6381
892.3549, 329.1832
892.8370, 324.0873
893.3192, 318.4077
893.8013, 312.5786
894.2834, 306.9360
894.7655, 301.2524
895.2476, 294.9037
895.7297, 288.0654
896.2119, 281.8711
896.6940, 277.0215
897.1761, 272.8826
897.6582, 268.3445
898.1403, 264.0754
898.6224, 262.0964
899.1046, 262.1389
899.5867, 261.4399
900.0688, 258.7501
900.5509, 256.1037
901.0330, 256.4008
901.5151, 259.2445
901.9973, 261.2366
902.4794, 262.3239
902.9615, 262.6271
903.4436, 261.5234
903.9257, 261.2423
904.4078, 264.0325
904.8900, 268.7673
905.3721, 271.5987
905.8542, 270.7999
906.3363, 271.9065
906.8184, 276.1251
907.3005, 280.7170
907.7827, 284.8265
908.2648, 288.7669
908.7469, 292.3832
909.2290, 295.9683
909.7111, 301.2968
910.1932, 310.1033
910.6754, 319.2841
911.1575, 326.8975
911.6396, 334.3024
912.1217, 342.6516
912.6038, 352.0720
913.0859, 362.6544
913.5681, 374.3872
914.0502, 385.9578
914.5323, 395.0901
915.0144, 403.6311
915.4965, 416.2581
915.9786, 431.7956
916.4608, 445.4948
916.9429, 456.1942
917.4250, 464.7893
917.9071, 471.8958
918.3892, 477.2714
918.8713, 480.8195
919.3535, 482.7860
919.8356, 479.6814
920.3177, 470.3886
920.7998, 459.4117
921.2819, 447.9532
921.7640, 436.5455
922.2462, 425.8037
922.7283, 415.7451
923.2104, 405.2353
923.6925, 392.9860
924.1746, 382.2162
924.6567, 372.6489
925.1389, 365.0374
925.6210, 360.4140
926.1031, 357.7674
926.5852, 355.6284
927.0673, 353.8157
927.5494, 351.9304
928.0316, 348.3433
928.5137, 346.3187
928.9958, 348.5241
929.4779, 352.9177
929.9600, 357.0594
930.4421, 360.8633
930.9243, 365.5832
931.4064, 371.9240
931.8885, 378.5887
932.3706, 383.7250
932.8527, 388.5039
933.3348, 394.7261
933.8170, 402.4849
934.2991, 411.7267
934.7812, 422.4223
935.2633, 434.1763
935.7454, 446.9814
936.2275, 459.8932
936.7097, 470.1818
937.1918, 477.9492
937.6739, 486.0076
938.1560, 494.6490
938.6381, 503.9643
939.1202, 514.6499
939.6024, 524.4561
940.0845, 530.0070
940.5666, 531.2368
941.0487, 530.9956
941.5308, 529.9290
942.0129, 526.0111
942.4951, 518.8036
942.9772, 508.7925
943.4593, 494.9709
943.9414, 478.9409
944.4235, 463.7224
944.9056, 449.5593
945.3878, 435.8328
945.8699, 422.1388
946.3520, 409.2751
946.8341, 397.8575
947.3162, 387.1791
947.7983, 375.7352
948.2805, 364.3039
948.7626, 356.2269
949.2447, 353.7155
949.7268, 351.0628
950.2089, 344.4877
950.6910, 336.6016
951.1732, 329.2060
951.6553, 322.6926
952.1374, 317.9449
952.6195, 314.8474
953.1016, 311.6828
953.5837, 307.3348
954.0659, 302.0776
954.5480, 295.4627
955.0301, 288.4778
955.5122, 284.1428
955.9943, 282.1907
956.4764, 279.3936
956.9586, 274.3991
957.4407, 268.6566
957.9228, 263.5799
958.4049, 259.3854
958.8870, 257.3430
959.3691, 257.5042
959.8513, 256.4935
960.3334, 253.4746
960.8155, 251.2227
961.2976, 251.6023
961.7797, 253.2667
962.2618, 253.5409
962.7440, 252.1665
963.2261, 252.0429
963.7082, 253.5914
964.1903, 255.4268
964.6724, 257.4889
965.1545, 259.3724
965.6367, 260.0457
966.1188, 260.3656
966.6009, 263.4229
967.0830, 270.7875
967.5651, 276.5813
968.0472, 279.0191
968.5294, 281.8109
969.0115, 286.0831
969.4936, 291.3273
969.9757, 297.7022
970.4578, 304.6470
970.9399, 309.9295
971.4221, 311.8641
971.9042, 314.8189
972.3863, 320.7601
972.8684, 327.9694
973.3505, 335.7001
973.8326, 343.6843
974.3148, 351.5113
974.7969, 359.2259
975.2790, 367.5482
975.7611, 377.4202
976.2432, 387.0202
976.7253, 393.5953
977.2075, 399.7501
977.6896, 409.5067
978.1717, 421.9992
978.6538, 433.9443
979.1359, 444.3177
979.6180, 454.2852
980.1002, 465.4297
980.5823, 475.9799
981.0644, 482.9547
981.5465, 486.8576
982.0286, 489.5756
982.5107, 491.1669
982.9929, 490.3974
983.4750, 486.6857
983.9571, 480.2166
984.4392, 471.1978
984.9213, 459.6326
985.4034, 444.8642
985.8856, 426.8173
986.3677, 409.6949
986.8498, 394.2139
987.3319, 379.4688
987.8140, 364.8964
988.2961, 351.1324
988.7783, 339.6643
989.2604, 330.5607
989.7425, 320.7154
990.2246, 309.2758
990.7067, 300.1733
991.1888, 294.8871
991.6710, 290.9218
992.1531, 286.7304
992.6352, 282.4804
993.1173, 278.4641
993.5994, 274.3224
994.0815, 271.9762
994.5637, 273.0219
995.0458, 273.4330
995.5279, 271.2412
996.0100, 269.0532
996.4921, 269.2175
996.9742, 270.8860
997.4564, 271.7479
997.9385, 271.9501
998.4206, 270.5737
998.9027, 266.2318
999.3848, 261.8893
999.8669, 259.0476
1000.349, 256.4055
1000.831, 252.8573
1001.313, 248.3618
1001.795, 243.0930
1002.278, 236.7242
1002.760, 230.6926
1003.242, 225.4028
1003.724, 220.6971
1004.206, 217.1270
1004.688, 213.6593
1005.170, 208.1833
1005.652, 201.3911
1006.134, 197.2094
1006.617, 198.0798
1007.099, 199.2514
1007.581, 197.3436
1008.063, 194.4265
1008.545, 192.5031
1009.027, 191.1215
1009.509, 189.1176
1009.991, 186.4284
1010.474, 184.0478
1010.956, 182.6017
1011.438, 181.5672
1011.920, 180.5438
1012.402, 179.5014
1012.884, 178.3057
1013.366, 177.0649
1013.848, 176.1195
1014.330, 175.5229
1014.813, 175.0269
1015.295, 174.5016
1015.777, 173.8076
1016.259, 172.5140
1016.741, 170.9434
1017.223, 169.9011
1017.705, 169.4129
1018.187, 169.3638
1018.669, 169.6879
1019.152, 170.1023
1019.634, 170.4323
1020.116, 170.4864
1020.598, 169.5683
1021.080, 167.9224
1021.562, 167.1087
1022.044, 167.1890
1022.526, 167.1587
1023.008, 166.6508
1023.491, 166.2133
1023.973, 166.4505
1024.455, 167.0437
1024.937, 166.8100
1025.419, 165.7388
1025.901, 165.6251
1026.383, 166.7238
1026.865, 167.2181
1027.348, 166.2692
1027.830, 165.1402
1028.312, 165.1849
1028.794, 166.1485
1029.276, 166.9374
1029.758, 167.5373
1030.240, 168.0226
1030.722, 168.4183
1031.204, 168.5780
1031.687, 168.3354
1032.169, 168.1255
1032.651, 168.6019
1033.133, 169.4893
1033.615, 169.0167
1034.097, 166.4444
1034.579, 164.8481
1035.061, 164.4301
1035.544, 164.8908
1036.026, 166.6797
1036.508, 168.5268
1036.990, 168.9698
1037.472, 168.2033
1037.954, 167.5963
1038.436, 166.9803
1038.918, 166.8997
1039.401, 167.6681
1039.883, 168.5126
1040.365, 169.3491
1040.847, 169.9474
1041.329, 169.8227
1041.811, 169.1450
1042.293, 169.1960
1042.775, 170.8155
1043.257, 171.6968
1043.740, 171.3850
1044.222, 170.9053
1044.704, 170.2367
1045.186, 169.8357
1045.668, 170.4309
1046.150, 171.7793
1046.632, 172.4597
1047.114, 171.6680
1047.596, 171.6698
1048.079, 173.3199
1048.561, 174.9493
1049.043, 176.3138
1049.525, 177.0684
1050.007, 176.6152
1050.489, 175.2256
1050.971, 174.0435
1051.453, 173.1313
1051.936, 172.6346
1052.418, 173.4495
1052.900, 173.6177
1053.382, 171.8851
1053.864, 169.4559
1054.346, 167.5467
1054.828, 166.0272
1055.310, 163.9606
1055.792, 160.7240
1056.275, 158.4644
1056.757, 157.9721
1057.239, 158.2395
1057.721, 159.7353
1058.203, 161.0386
1058.685, 160.7118
1059.167, 159.0292
1059.649, 156.9007
1060.131, 154.2023
1060.614, 152.5515
1061.096, 153.0862
1061.578, 154.0041
1062.060, 154.7657
1062.542, 155.2538
1063.024, 155.3515
1063.506, 155.1203
1063.988, 154.6526
1064.471, 153.9203
1064.953, 153.3855
1065.435, 153.5004
1065.917, 153.5054
1066.399, 153.0434
1066.881, 152.2906
1067.363, 151.1358
1067.845, 149.9063
1068.328, 149.3009
1068.810, 149.4913
1069.292, 149.7120
1069.774, 149.6855
1070.256, 149.5809
1070.738, 149.6056
1071.220, 149.4757
1071.702, 148.5976
1072.184, 147.4938
1072.667, 147.4173
1073.149, 148.5433
1073.631, 149.0752
1074.113, 147.7056
1074.595, 146.2896
1075.077, 145.5067
1075.559, 145.2466
1076.041, 145.5880
1076.523, 146.3046
1077.006, 147.4061
1077.488, 148.6993
1077.970, 148.7797
1078.452, 145.8343
1078.934, 143.7085
1079.416, 145.3695
1079.898, 147.4358
1080.380, 147.2948
1080.863, 145.8200
1081.345, 144.1275
1081.827, 142.5999
1082.309, 141.8770
1082.791, 142.5005
1083.273, 143.1973
1083.755, 143.4551
1084.237, 143.4975
1084.719, 143.1384
1085.202, 142.8806
1085.684, 143.7906
1086.166, 145.4219
1086.648, 145.7473
1087.130, 143.7601
1087.612, 141.9495
1088.094, 141.6955
1088.576, 141.6071
1089.058, 140.6441
1089.541, 139.5675
1090.023, 139.3472
1090.505, 139.7494
1090.987, 139.8490
1091.469, 139.3542
1091.951, 139.0919
1092.433, 139.7066
1092.915, 140.2382
1093.397, 140.1604
1093.880, 139.8364
1094.362, 139.5556
1094.844, 139.3103
1095.326, 138.9418
1095.808, 138.4199
1096.290, 138.2086
1096.772, 138.6148
1097.254, 139.1518
1097.737, 140.0798
1098.219, 140.6245
1098.701, 139.7191
1099.183, 138.3015
1099.665, 138.0075
1100.147, 138.8904
1100.629, 139.2634
1101.111, 137.8495
1101.594, 137.2521
1102.076, 139.4103
1102.558, 141.2069
1103.040, 140.5633
1103.522, 138.7961
1104.004, 137.2079
1104.486, 136.0278
1104.968, 135.5974
1105.450, 136.3414
1105.932, 136.9095
1106.415, 136.5977
1106.897, 136.6071
1107.379, 137.8535
1107.861, 139.2570
1108.343, 140.1653
1108.825, 140.3787
1109.307, 139.1631
1109.789, 135.7225
1110.272, 134.1849
1110.754, 136.8145
1111.236, 138.9028
1111.718, 139.1980
1112.200, 138.7062
1112.682, 137.5089
1113.164, 136.2195
1113.646, 136.1148
1114.129, 137.3728
1114.611, 137.8008
1115.093, 136.3807
1115.575, 135.5987
1116.057, 136.0928
1116.539, 136.7107
1117.021, 137.1117
1117.503, 137.2438
1117.985, 136.8688
1118.468, 136.0961
1118.950, 135.9124
1119.432, 136.7287
1119.914, 137.2594
1120.396, 137.3612
1120.878, 137.4166
1121.360, 137.5240
1121.842, 137.6662
1122.324, 137.8942
1122.807, 138.1082
1123.289, 137.9707
1123.771, 137.3630
1124.253, 137.0329
1124.735, 136.9355
1125.217, 137.3822
1125.699, 138.8925
1126.181, 139.7240
1126.664, 138.5197
1127.146, 136.4953
1127.628, 135.7659
1128.110, 136.2390
1128.592, 135.7997
1129.074, 134.0163
1129.556, 134.3524
1130.038, 137.7272
1130.521, 140.2339
1131.003, 140.1048
1131.485, 138.7319
1131.967, 137.4796
1132.449, 136.4603
1132.931, 136.1323
1133.413, 136.4891
1133.895, 136.8924
1134.377, 137.3182
1134.859, 137.3398
1135.342, 136.8198
1135.824, 136.4962
1136.306, 136.9195
1136.788, 137.7802
1137.270, 138.8990
1137.752, 139.9687
1138.234, 138.9658
1138.716, 136.3646
1139.199, 135.1251
1139.681, 135.6218
1140.163, 136.5289
1140.645, 137.2142
1141.127, 137.7074
1141.609, 138.0194
1142.091, 138.1907
1142.573, 138.2153
1143.056, 138.1902
1143.538, 138.4585
1144.020, 138.9092
1144.502, 138.9791
1144.984, 138.5887
1145.466, 138.3641
1145.948, 138.7493
1146.430, 139.3815
1146.912, 139.9678
1147.395, 140.4664
1147.877, 141.0379
1148.359, 141.3784
1148.841, 140.7663
1149.323, 139.3643
1149.805, 137.9035
1150.287, 136.6538
1150.769, 136.0414
1151.251, 136.5848
1151.734, 137.6060
1152.216, 139.0970
1152.698, 140.3757
1153.180, 140.5258
1153.662, 139.9969
1154.144, 139.7544
1154.626, 139.9362
1155.108, 139.9547
1155.591, 139.3873
1156.073, 139.0197
1156.555, 139.3024
1157.037, 139.7068
1157.519, 140.0310
1158.001, 140.2247
1158.483, 140.2880
1158.965, 140.1881
1159.448, 139.6743
1159.930, 138.3695
1160.412, 138.1375
1160.894, 140.0676
1161.376, 141.8897
1161.858, 143.4188
1162.340, 144.3414
1162.822, 144.2955
1163.304, 143.6452
1163.786, 142.6676
1164.269, 141.4020
1164.751, 141.3427
1165.233, 143.5309
1165.715, 144.2888
1166.197, 142.7638
1166.679, 141.4456
1167.161, 141.2463
1167.643, 141.4070
1168.126, 141.2339
1168.608, 140.9890
1169.090, 141.5626
1169.572, 143.0574
1170.054, 142.6152
1170.536, 139.9634
1171.018, 138.5067
1171.500, 138.9304
1171.983, 139.4912
1172.465, 139.2914
1172.947, 138.8808
1173.429, 138.8890
1173.911, 139.2581
1174.393, 140.0359
1174.875, 141.0390
1175.357, 141.2685
1175.839, 140.7702
1176.322, 140.0384
1176.804, 139.2950
1177.286, 139.1838
1177.768, 140.2095
1178.250, 141.2029
1178.732, 140.1549
1179.214, 138.5580
1179.696, 139.1855
1180.178, 140.8914
1180.661, 141.5300
1181.143, 141.0985
1181.625, 140.4894
1182.107, 140.0144
1182.589, 139.6570
1183.071, 139.4058
1183.553, 139.2621
1184.035, 139.2389
1184.518, 139.3088
1185.000, 139.7219
1185.482, 140.0339
1185.964, 139.3297
1186.446, 137.9459
1186.928, 137.3586
1187.410, 138.0031
1187.892, 138.9522
1188.375, 140.5342
1188.857, 141.5777
1189.339, 141.2847
1189.821, 140.7646
1190.303, 140.8341
1190.785, 141.0953
1191.267, 140.7579
1191.749, 139.8974
1192.231, 139.6541
1192.714, 140.6234
1193.196, 140.7824
1193.678, 139.4107
1194.160, 138.8556
1194.642, 140.0074
1195.124, 141.7766
1195.606, 143.6938
1196.088, 145.0215
1196.570, 144.0314
1197.053, 140.9492
1197.535, 139.3913
1198.017, 139.3960
1198.499, 139.0085
1198.981, 138.0044
1199.463, 137.7304
1199.945, 138.7132
1200.427, 140.0026
1200.910, 140.7975
1201.392, 141.2713
1201.874, 141.8556
1202.356, 142.3168
1202.838, 141.6085
1203.320, 140.3609
1203.802, 140.7454
1204.284, 142.5487
1204.766, 143.2914
1205.249, 142.0491
1205.731, 140.8963
1206.213, 141.5472
1206.695, 142.6944
1207.177, 143.6599
1207.659, 144.1213
1208.141, 143.3886
1208.623, 142.1384
1209.105, 141.3622
1209.588, 141.1140
1210.070, 140.9634
1210.552, 140.8235
1211.034, 140.6583
1211.516, 139.9519
1211.998, 139.9261
1212.480, 141.5666
1212.962, 143.3919
1213.445, 144.6441
1213.927, 145.3712
1214.409, 145.6015
1214.891, 145.3941
1215.373, 145.2417
1215.855, 144.9602
1216.337, 145.3107
1216.819, 146.5295
1217.302, 147.7200
1217.784, 148.8246
1218.266, 149.1045
1218.748, 147.8754
1219.230, 146.2746
1219.712, 146.2253
1220.194, 147.2144
1220.676, 146.5171
1221.158, 144.5342
1221.641, 144.6046
1222.123, 146.6461
1222.605, 148.1731
1223.087, 148.5043
1223.569, 148.4424
1224.051, 148.4566
1224.533, 148.7403
1225.015, 150.1687
1225.497, 151.4101
1225.979, 150.0282
1226.462, 147.7135
1226.944, 147.1439
1227.426, 147.8435
1227.908, 147.9489
1228.390, 147.1859
1228.872, 147.0231
1229.354, 148.4720
1229.836, 149.5560
1230.319, 148.7614
1230.801, 148.2986
1231.283, 150.2254
1231.765, 152.0774
1232.247, 151.1166
1232.729, 148.6784
1233.211, 147.9233
1233.693, 148.9305
1234.176, 149.0553
1234.658, 147.5496
1235.140, 147.1694
1235.622, 148.4952
1236.104, 149.6643
1236.586, 150.0506
1237.068, 150.3464
1237.550, 151.2372
1238.032, 151.8096
1238.515, 149.8703
1238.997, 146.2676
1239.479, 146.1623
1239.961, 148.8661
1240.443, 150.3691
1240.925, 150.4081
1241.407, 150.2093
1241.889, 150.1418
1242.371, 149.6836
1242.854, 148.3730
1243.336, 147.3005
1243.818, 148.0985
1244.300, 149.2309
1244.782, 149.1897
1245.264, 148.3196
1245.746, 146.3408
1246.228, 144.2420
1246.711, 144.2185
1247.193, 146.3824
1247.675, 148.0409
1248.157, 148.3646
1248.639, 148.2361
1249.121, 147.5061
1249.603, 146.8207
1250.085, 146.0966
1250.568, 145.8685
1251.050, 146.8688
1251.532, 148.2558
1252.014, 148.5665
1252.496, 147.9230
1252.978, 147.7427
1253.460, 148.0735
1253.942, 148.6715
1254.424, 149.5948
1254.906, 149.7844
1255.389, 148.9415
1255.871, 147.9084
1256.353, 147.1919
1256.835, 146.7271
1257.317, 146.5052
1257.799, 146.3912
1258.281, 146.0371
1258.763, 145.6370
1259.246, 145.6126
1259.728, 145.8730
1260.210, 146.0721
1260.692, 146.2197
1261.174, 146.8243
1261.656, 148.2154
1262.138, 148.9500
1262.620, 147.7307
1263.103, 146.4069
1263.585, 145.6752
1264.067, 145.3475
1264.549, 145.2756
1265.031, 145.5331
1265.513, 146.4970
1265.995, 147.8965
1266.477, 148.5269
1266.959, 148.1212
1267.442, 148.3250
1267.924, 149.4773
1268.406, 149.9700
1268.888, 149.5092
1269.370, 148.4323
1269.852, 146.7407
1270.334, 145.7029
1270.816, 146.7067
1271.298, 148.5276
1271.781, 148.6850
1272.263, 147.6855
1272.745, 146.7056
1273.227, 145.8716
1273.709, 145.2802
1274.191, 145.0952
1274.673, 146.0649
1275.155, 148.1817
1275.638, 149.5628
1276.120, 148.9578
1276.602, 148.0310
1277.084, 147.1650
1277.566, 146.9581
1278.048, 148.6429
1278.530, 150.3232
1279.012, 150.0031
1279.495, 148.5980
1279.977, 147.9207
1280.459, 147.9743
1280.941, 148.4038
1281.423, 149.5343
1281.905, 150.0089
1282.387, 149.7138
1282.869, 149.0659
1283.351, 148.0798
1283.833, 147.3877
1284.316, 147.3594
1284.798, 147.6595
1285.280, 147.8948
1285.762, 148.1759
1286.244, 149.1874
1286.726, 150.1975
1287.208, 149.7930
1287.690, 147.8613
##END=



