##NAMES=Albite
##RRUFFID=R060054
##IDEAL CHEMISTRY=NaAlSi_3_O_8_
##LOCALITY=Mt. Erebus, Antarctica
##OWNER=RRUFF
##SOURCE=Marcus Origlieri
##DESCRIPTION=Dark gray bladed crystal
##STATUS=The identification of this mineral has been confirmed by X-ray diffraction and chemical analysis
##URL=rruff.info/R060054
##MEASURED CHEMISTRY=(Na_0.67_K_0.18_Ca_0.15_)_Σ=1_Al_1.00_(Si_2.85_Al_0.15_)_Σ=3_O_8_
123.0269, 881.2816
123.5090, 880.2222
123.9911, 879.7769
124.4732, 879.9503
124.9554, 880.5489
125.4375, 881.4467
125.9196, 882.6393
126.4017, 884.2512
126.8838, 886.4950
127.3659, 889.6255
127.8481, 892.7209
128.3302, 895.8848
128.8123, 898.9639
129.2944, 901.7523
129.7765, 904.1566
130.2586, 906.4410
130.7408, 909.2617
131.2229, 912.7557
131.7050, 915.4575
132.1871, 915.8665
132.6692, 914.7601
133.1513, 915.0921
133.6335, 918.1429
134.1156, 922.6815
134.5977, 927.3751
135.0798, 932.2185
135.5619, 936.9953
136.0440, 941.3277
136.5262, 945.0956
137.0083, 949.2908
137.4904, 954.1439
137.9725, 959.5469
138.4546, 965.7975
138.9367, 972.9853
139.4189, 980.2863
139.9010, 985.9211
140.3831, 988.2643
140.8652, 991.7899
141.3473, 997.3226
141.8294, 1004.059
142.3116, 1011.229
142.7937, 1018.496
143.2758, 1025.866
143.7579, 1033.614
144.2400, 1042.262
144.7221, 1050.703
145.2043, 1058.569
145.6864, 1066.155
146.1685, 1073.825
146.6506, 1081.822
147.1327, 1090.163
147.6148, 1099.236
148.0970, 1110.112
148.5791, 1120.537
149.0612, 1128.896
149.5433, 1135.587
150.0254, 1142.962
150.5075, 1153.033
150.9896, 1165.660
151.4718, 1177.277
151.9539, 1186.744
152.4360, 1195.851
152.9181, 1206.552
153.4002, 1219.076
153.8823, 1231.911
154.3645, 1243.495
154.8466, 1254.425
155.3287, 1265.655
155.8108, 1277.803
156.2929, 1290.473
156.7750, 1302.735
157.2572, 1314.294
157.7393, 1325.984
158.2214, 1338.651
158.7035, 1351.825
159.1856, 1364.435
159.6677, 1375.764
160.1499, 1385.832
160.6320, 1395.389
161.1141, 1404.347
161.5962, 1412.750
162.0783, 1420.895
162.5604, 1428.613
163.0426, 1435.345
163.5247, 1440.523
164.0068, 1443.952
164.4889, 1446.710
164.9710, 1448.610
165.4531, 1450.107
165.9353, 1451.560
166.4174, 1452.904
166.8995, 1453.746
167.3816, 1453.643
167.8637, 1452.657
168.3458, 1450.236
168.8280, 1445.480
169.3101, 1440.103
169.7922, 1435.598
170.2743, 1432.202
170.7564, 1428.783
171.2385, 1423.648
171.7207, 1416.451
172.2028, 1407.919
172.6849, 1397.038
173.1670, 1385.201
173.6491, 1374.063
174.1312, 1364.102
174.6133, 1354.643
175.0955, 1344.346
175.5776, 1332.842
176.0597, 1322.353
176.5418, 1314.146
177.0239, 1307.421
177.5060, 1300.134
177.9882, 1291.384
178.4703, 1282.347
178.9524, 1274.472
179.4345, 1267.768
179.9166, 1261.694
180.3987, 1256.268
180.8809, 1251.375
181.3630, 1246.221
181.8451, 1240.436
182.3272, 1234.439
182.8093, 1228.448
183.2914, 1222.474
183.7736, 1216.920
184.2557, 1212.409
184.7378, 1209.117
185.2199, 1205.486
185.7020, 1200.744
186.1841, 1195.797
186.6663, 1191.009
187.1484, 1186.477
187.6305, 1182.374
188.1126, 1179.017
188.5947, 1176.758
189.0768, 1174.386
189.5590, 1171.968
190.0411, 1169.280
190.5232, 1166.035
191.0053, 1162.173
191.4874, 1157.986
191.9695, 1153.940
192.4517, 1149.879
192.9338, 1146.336
193.4159, 1143.779
193.8980, 1141.439
194.3801, 1138.564
194.8622, 1134.876
195.3443, 1130.748
195.8265, 1127.036
196.3086, 1124.484
196.7907, 1121.462
197.2728, 1117.375
197.7549, 1113.006
198.2370, 1109.389
198.7192, 1106.988
199.2013, 1105.207
199.6834, 1102.438
200.1655, 1097.970
200.6476, 1093.599
201.1297, 1089.843
201.6119, 1086.331
202.0940, 1082.405
202.5761, 1077.711
203.0582, 1072.662
203.5403, 1068.416
204.0224, 1065.173
204.5046, 1062.084
204.9867, 1058.880
205.4688, 1055.620
205.9509, 1052.364
206.4330, 1049.033
206.9151, 1045.916
207.3973, 1043.608
207.8794, 1042.440
208.3615, 1041.160
208.8436, 1038.881
209.3257, 1035.785
209.8078, 1032.841
210.2900, 1030.320
210.7721, 1028.261
211.2542, 1026.762
211.7363, 1026.004
212.2184, 1025.110
212.7005, 1022.936
213.1827, 1019.467
213.6648, 1017.069
214.1469, 1017.721
214.6290, 1018.898
215.1111, 1018.057
215.5932, 1014.682
216.0754, 1011.304
216.5575, 1011.300
217.0396, 1015.445
217.5217, 1017.797
218.0038, 1014.910
218.4859, 1010.917
218.9680, 1008.203
219.4502, 1007.265
219.9323, 1007.139
220.4144, 1006.396
220.8965, 1004.465
221.3786, 1003.892
221.8607, 1006.200
222.3429, 1009.090
222.8250, 1011.352
223.3071, 1012.663
223.7892, 1013.164
224.2713, 1012.939
224.7534, 1011.559
225.2356, 1010.462
225.7177, 1009.405
226.1998, 1008.807
226.6819, 1009.129
227.1640, 1010.406
227.6461, 1012.144
228.1283, 1013.543
228.6104, 1014.192
229.0925, 1015.316
229.5746, 1017.127
230.0567, 1019.181
230.5388, 1021.273
231.0210, 1023.310
231.5031, 1025.201
231.9852, 1026.843
232.4673, 1028.191
232.9494, 1029.274
233.4315, 1029.573
233.9137, 1029.945
234.3958, 1031.004
234.8779, 1032.900
235.3600, 1035.478
235.8421, 1038.606
236.3242, 1042.806
236.8064, 1046.276
237.2885, 1048.488
237.7706, 1050.321
238.2527, 1052.503
238.7348, 1055.188
239.2169, 1058.118
239.6991, 1061.005
240.1812, 1063.955
240.6633, 1066.475
241.1454, 1067.442
241.6275, 1068.589
242.1096, 1072.018
242.5918, 1078.050
243.0739, 1084.607
243.5560, 1089.210
244.0381, 1091.657
244.5202, 1094.238
245.0023, 1097.014
245.4845, 1100.103
245.9666, 1103.716
246.4487, 1107.899
246.9308, 1112.258
247.4129, 1116.453
247.8950, 1120.508
248.3772, 1124.448
248.8593, 1127.751
249.3414, 1131.199
249.8235, 1136.017
250.3056, 1142.472
250.7877, 1148.797
251.2699, 1153.072
251.7520, 1155.914
252.2341, 1159.297
252.7162, 1164.036
253.1983, 1169.324
253.6804, 1173.879
254.1626, 1177.495
254.6447, 1181.519
255.1268, 1187.335
255.6089, 1194.187
256.0910, 1200.845
256.5731, 1206.926
257.0552, 1212.743
257.5374, 1218.824
258.0195, 1225.285
258.5016, 1231.439
258.9837, 1236.608
259.4658, 1241.341
259.9479, 1246.214
260.4301, 1251.266
260.9122, 1256.674
261.3943, 1262.892
261.8764, 1270.185
262.3585, 1277.156
262.8406, 1282.346
263.3228, 1287.243
263.8049, 1293.383
264.2870, 1301.420
264.7691, 1309.971
265.2512, 1316.969
265.7333, 1322.046
266.2155, 1327.480
266.6976, 1334.784
267.1797, 1342.328
267.6618, 1348.827
268.1439, 1353.929
268.6260, 1358.559
269.1082, 1363.735
269.5903, 1369.486
270.0724, 1375.705
270.5545, 1382.869
271.0366, 1390.170
271.5187, 1397.143
272.0009, 1403.713
272.4830, 1410.085
272.9651, 1416.627
273.4472, 1423.467
273.9293, 1429.718
274.4114, 1434.555
274.8936, 1439.329
275.3757, 1444.717
275.8578, 1450.718
276.3399, 1456.972
276.8220, 1463.171
277.3041, 1469.292
277.7863, 1475.346
278.2684, 1482.137
278.7505, 1488.158
279.2326, 1492.445
279.7147, 1495.299
280.1968, 1497.833
280.6790, 1501.088
281.1611, 1505.127
281.6432, 1508.234
282.1253, 1509.323
282.6074, 1510.478
283.0895, 1512.809
283.5717, 1515.710
284.0538, 1517.880
284.5359, 1518.404
285.0180, 1517.348
285.5001, 1515.469
285.9822, 1512.257
286.4644, 1508.706
286.9465, 1504.627
287.4286, 1500.441
287.9107, 1496.808
288.3928, 1494.129
288.8749, 1492.177
289.3571, 1489.971
289.8392, 1487.545
290.3213, 1484.750
290.8034, 1480.969
291.2855, 1477.034
291.7676, 1473.920
292.2498, 1472.090
292.7319, 1471.144
293.2140, 1470.182
293.6961, 1470.088
294.1782, 1468.425
294.6603, 1463.195
295.1425, 1457.454
295.6246, 1454.213
296.1067, 1454.313
296.5888, 1455.948
297.0709, 1455.940
297.5530, 1452.982
298.0351, 1450.846
298.5172, 1449.308
298.9994, 1448.643
299.4815, 1449.346
299.9636, 1451.339
300.4457, 1453.791
300.9278, 1455.717
301.4099, 1457.048
301.8921, 1458.037
302.3742, 1458.020
302.8563, 1458.293
303.3384, 1459.717
303.8205, 1462.151
304.3026, 1464.728
304.7848, 1466.528
305.2669, 1467.370
305.7490, 1469.543
306.2311, 1474.776
306.7132, 1479.523
307.1953, 1482.257
307.6775, 1483.538
308.1596, 1484.597
308.6417, 1486.193
309.1238, 1488.388
309.6059, 1491.878
310.0880, 1497.929
310.5702, 1503.965
311.0523, 1509.911
311.5344, 1515.463
312.0165, 1520.317
312.4986, 1524.318
312.9807, 1527.512
313.4629, 1530.072
313.9450, 1530.554
314.4271, 1532.300
314.9092, 1536.263
315.3913, 1541.177
315.8734, 1545.852
316.3556, 1549.876
316.8377, 1553.554
317.3198, 1557.454
317.8019, 1561.770
318.2840, 1565.935
318.7661, 1570.440
319.2483, 1574.478
319.7304, 1577.061
320.2125, 1578.282
320.6946, 1579.426
321.1767, 1582.050
321.6588, 1586.613
322.1410, 1590.930
322.6231, 1595.456
323.1052, 1599.396
323.5873, 1602.238
324.0694, 1604.135
324.5515, 1605.583
325.0337, 1607.011
325.5158, 1608.417
325.9979, 1609.396
326.4800, 1609.169
326.9621, 1609.359
327.4442, 1610.424
327.9264, 1612.184
328.4085, 1614.434
328.8906, 1617.114
329.3727, 1619.964
329.8548, 1621.895
330.3369, 1622.320
330.8191, 1622.469
331.3012, 1621.973
331.7833, 1621.492
332.2654, 1621.846
332.7475, 1623.301
333.2296, 1625.206
333.7118, 1626.431
334.1939, 1627.245
334.6760, 1626.689
335.1581, 1622.913
335.6402, 1619.297
336.1223, 1618.850
336.6045, 1621.552
337.0866, 1624.470
337.5687, 1624.077
338.0508, 1619.464
338.5329, 1615.856
339.0150, 1611.857
339.4972, 1610.119
339.9793, 1614.777
340.4614, 1622.962
340.9435, 1627.452
341.4256, 1621.932
341.9077, 1607.494
342.3898, 1597.688
342.8719, 1596.322
343.3541, 1595.550
343.8362, 1593.990
344.3183, 1591.958
344.8004, 1590.243
345.2825, 1589.299
345.7646, 1588.393
346.2468, 1585.409
346.7289, 1578.705
347.2110, 1572.968
347.6931, 1568.978
348.1752, 1565.914
348.6573, 1563.494
349.1395, 1561.508
349.6216, 1559.245
350.1037, 1555.360
350.5858, 1549.084
351.0679, 1544.278
351.5500, 1542.796
352.0322, 1541.462
352.5143, 1538.813
352.9964, 1534.923
353.4785, 1530.640
353.9606, 1526.588
354.4427, 1522.772
354.9249, 1519.092
355.4070, 1516.031
355.8891, 1512.474
356.3712, 1507.316
356.8533, 1501.584
357.3354, 1497.080
357.8176, 1495.051
358.2997, 1494.184
358.7818, 1491.041
359.2639, 1484.447
359.7460, 1478.432
360.2281, 1474.605
360.7103, 1471.542
361.1924, 1467.860
361.6745, 1463.189
362.1566, 1458.657
362.6387, 1456.065
363.1208, 1455.664
363.6030, 1454.094
364.0851, 1450.318
364.5672, 1445.561
365.0493, 1440.356
365.5314, 1434.839
366.0135, 1429.352
366.4957, 1424.076
366.9778, 1419.040
367.4599, 1414.173
367.9420, 1409.013
368.4241, 1404.997
368.9063, 1403.760
369.3884, 1404.016
369.8705, 1403.534
370.3526, 1401.268
370.8347, 1398.100
371.3168, 1395.303
371.7990, 1392.947
372.2811, 1390.412
372.7632, 1387.373
373.2453, 1384.033
373.7274, 1380.611
374.2095, 1377.080
374.6917, 1373.635
375.1738, 1370.680
375.6559, 1368.029
376.1380, 1364.548
376.6201, 1359.391
377.1022, 1354.295
377.5844, 1351.571
378.0665, 1350.915
378.5486, 1349.459
379.0307, 1345.481
379.5128, 1340.355
379.9949, 1336.012
380.4771, 1332.600
380.9592, 1329.819
381.4413, 1327.445
381.9234, 1325.571
382.4055, 1324.432
382.8876, 1325.108
383.3698, 1325.495
383.8519, 1324.162
384.3340, 1321.331
384.8161, 1317.648
385.2982, 1313.057
385.7803, 1308.275
386.2624, 1305.164
386.7445, 1304.143
387.2267, 1303.035
387.7088, 1301.155
388.1909, 1298.893
388.6730, 1296.661
389.1551, 1294.536
389.6372, 1292.760
390.1194, 1291.729
390.6015, 1291.641
391.0836, 1290.798
391.5657, 1288.491
392.0478, 1286.056
392.5299, 1284.332
393.0121, 1283.212
393.4942, 1282.073
393.9763, 1280.451
394.4584, 1278.561
394.9405, 1277.565
395.4226, 1277.264
395.9048, 1278.016
396.3869, 1281.310
396.8690, 1285.119
397.3511, 1286.781
397.8332, 1285.516
398.3153, 1282.953
398.7975, 1281.564
399.2796, 1281.781
399.7617, 1282.141
400.2438, 1282.703
400.7259, 1283.341
401.2080, 1284.476
401.6902, 1285.725
402.1723, 1285.905
402.6544, 1283.894
403.1365, 1279.943
403.6186, 1277.176
404.1007, 1276.723
404.5829, 1276.187
405.0650, 1275.183
405.5471, 1273.854
406.0292, 1272.440
406.5113, 1271.031
406.9934, 1269.431
407.4756, 1267.306
407.9577, 1264.666
408.4398, 1261.432
408.9219, 1257.254
409.4040, 1252.737
409.8861, 1248.257
410.3683, 1243.759
410.8504, 1238.842
411.3325, 1232.590
411.8146, 1225.391
412.2967, 1220.654
412.7788, 1219.896
413.2610, 1219.019
413.7431, 1216.034
414.2252, 1211.909
414.7073, 1207.928
415.1894, 1204.492
415.6715, 1201.395
416.1537, 1198.412
416.6358, 1195.549
417.1179, 1192.694
417.6000, 1189.792
418.0821, 1186.893
418.5642, 1184.010
419.0464, 1181.146
419.5285, 1178.334
420.0106, 1175.127
420.4927, 1172.054
420.9748, 1170.501
421.4569, 1170.827
421.9391, 1171.577
422.4212, 1172.123
422.9033, 1172.229
423.3854, 1171.130
423.8675, 1167.817
424.3496, 1164.162
424.8318, 1161.242
425.3139, 1159.016
425.7960, 1157.434
426.2781, 1156.577
426.7602, 1156.170
427.2423, 1155.708
427.7245, 1155.145
428.2066, 1154.677
428.6887, 1154.636
429.1708, 1154.531
429.6529, 1153.617
430.1350, 1151.914
430.6172, 1150.400
431.0992, 1150.009
431.5814, 1150.762
432.0635, 1150.894
432.5456, 1149.694
433.0277, 1148.801
433.5098, 1148.798
433.9919, 1149.428
434.4741, 1150.326
434.9562, 1151.339
435.4383, 1152.348
435.9204, 1153.113
436.4025, 1153.601
436.8846, 1153.892
437.3668, 1153.556
437.8489, 1153.403
438.3310, 1154.001
438.8131, 1155.284
439.2952, 1156.750
439.7773, 1157.918
440.2595, 1158.883
440.7416, 1160.762
441.2237, 1165.008
441.7058, 1167.976
442.1879, 1167.204
442.6700, 1165.468
443.1522, 1166.249
443.6343, 1170.749
444.1164, 1176.264
444.5985, 1179.004
445.0806, 1178.652
445.5627, 1179.531
446.0449, 1182.844
446.5270, 1186.953
447.0091, 1190.975
447.4912, 1194.868
447.9733, 1198.610
448.4554, 1201.754
448.9376, 1204.931
449.4197, 1209.449
449.9018, 1215.465
450.3839, 1221.617
450.8660, 1226.876
451.3481, 1232.109
451.8303, 1238.955
452.3124, 1248.179
452.7945, 1256.976
453.2766, 1263.637
453.7587, 1268.866
454.2408, 1273.768
454.7230, 1278.424
455.2051, 1283.996
455.6872, 1292.071
456.1693, 1302.881
456.6514, 1312.429
457.1335, 1319.323
457.6157, 1326.258
458.0978, 1334.462
458.5799, 1343.938
459.0620, 1354.641
459.5441, 1366.626
460.0262, 1379.282
460.5084, 1390.872
460.9905, 1401.087
461.4726, 1410.566
461.9547, 1418.218
462.4368, 1425.952
462.9189, 1435.081
463.4011, 1445.699
463.8832, 1457.279
464.3653, 1469.539
464.8474, 1482.391
465.3295, 1494.356
465.8116, 1504.497
466.2938, 1514.953
466.7759, 1526.251
467.2580, 1537.951
467.7401, 1549.881
468.2222, 1561.868
468.7043, 1573.342
469.1865, 1583.461
469.6686, 1592.158
470.1507, 1600.065
470.6328, 1606.597
471.1149, 1613.051
471.5970, 1621.294
472.0792, 1630.116
472.5613, 1636.374
473.0434, 1638.014
473.5255, 1637.010
474.0076, 1636.281
474.4897, 1635.854
474.9719, 1634.519
475.4540, 1632.009
475.9361, 1628.076
476.4182, 1622.649
476.9003, 1615.741
477.3824, 1607.488
477.8645, 1597.045
478.3466, 1585.642
478.8288, 1575.510
479.3109, 1566.780
479.7930, 1557.127
480.2751, 1544.344
480.7572, 1529.057
481.2393, 1515.639
481.7215, 1505.257
482.2036, 1495.208
482.6857, 1484.372
483.1678, 1473.548
483.6499, 1463.613
484.1320, 1454.881
484.6142, 1447.280
485.0963, 1440.718
485.5784, 1435.179
486.0605, 1430.814
486.5426, 1427.483
487.0247, 1425.309
487.5069, 1424.198
487.9890, 1424.309
488.4711, 1426.097
488.9532, 1429.838
489.4353, 1434.784
489.9174, 1439.036
490.3996, 1441.737
490.8817, 1446.644
491.3638, 1456.661
491.8459, 1467.267
492.3280, 1475.144
492.8102, 1481.006
493.2923, 1488.773
493.7744, 1501.782
494.2565, 1518.018
494.7386, 1533.072
495.2207, 1546.681
495.7029, 1560.550
496.1850, 1575.412
496.6671, 1591.108
497.1492, 1607.348
497.6313, 1624.051
498.1134, 1641.470
498.5956, 1659.544
499.0777, 1678.469
499.5598, 1698.638
500.0419, 1720.107
500.5240, 1742.441
501.0061, 1765.008
501.4883, 1787.943
501.9704, 1812.970
502.4525, 1841.755
502.9346, 1870.187
503.4167, 1896.518
503.8988, 1921.823
504.3810, 1947.359
504.8631, 1973.589
505.3452, 2000.435
505.8273, 2028.037
506.3094, 2056.731
506.7915, 2084.121
507.2737, 2112.702
507.7558, 2137.429
508.2379, 2156.539
508.7200, 2170.674
509.2021, 2181.058
509.6842, 2188.300
510.1664, 2191.898
510.6485, 2191.112
511.1306, 2185.960
511.6127, 2176.478
512.0948, 2163.334
512.5769, 2144.594
513.0590, 2118.429
513.5411, 2085.958
514.0233, 2051.146
514.5054, 2016.383
514.9875, 1979.875
515.4696, 1938.880
515.9517, 1893.695
516.4338, 1848.088
516.9160, 1803.264
517.3981, 1759.615
517.8802, 1717.189
518.3623, 1676.068
518.8444, 1636.151
519.3265, 1597.267
519.8087, 1559.746
520.2908, 1523.008
520.7729, 1487.550
521.2550, 1455.390
521.7371, 1428.111
522.2192, 1404.643
522.7014, 1380.724
523.1835, 1354.246
523.6656, 1330.221
524.1477, 1309.425
524.6298, 1290.689
525.1119, 1273.241
525.5941, 1256.779
526.0762, 1241.394
526.5583, 1227.134
527.0404, 1213.907
527.5225, 1200.748
528.0046, 1186.860
528.4868, 1174.585
528.9689, 1165.699
529.4510, 1158.043
529.9331, 1149.477
530.4152, 1139.661
530.8973, 1130.517
531.3795, 1124.105
531.8616, 1119.541
532.3437, 1114.278
532.8258, 1108.092
533.3079, 1101.304
533.7900, 1093.555
534.2722, 1085.424
534.7543, 1078.641
535.2364, 1073.675
535.7185, 1069.247
536.2006, 1064.873
536.6827, 1060.695
537.1649, 1057.036
537.6470, 1053.914
538.1291, 1050.966
538.6112, 1047.834
539.0933, 1044.520
539.5754, 1041.204
540.0576, 1037.358
540.5397, 1034.175
541.0218, 1032.733
541.5039, 1031.684
541.9860, 1029.330
542.4681, 1025.308
542.9503, 1020.826
543.4324, 1017.319
543.9145, 1014.814
544.3966, 1012.133
544.8787, 1008.763
545.3608, 1006.030
545.8430, 1004.997
546.3251, 1004.662
546.8072, 1003.647
547.2893, 1001.514
547.7714, 999.0345
548.2535, 996.5897
548.7357, 994.3213
549.2178, 992.8037
549.6999, 992.2822
550.1820, 991.8865
550.6641, 990.8478
551.1462, 989.2452
551.6284, 987.8953
552.1105, 987.1331
552.5926, 986.2486
553.0747, 984.5972
553.5568, 982.7677
554.0389, 981.8430
554.5211, 982.0317
555.0032, 982.3210
555.4853, 981.4760
555.9674, 979.3552
556.4495, 977.7606
556.9316, 977.3096
557.4138, 976.6884
557.8959, 975.4952
558.3780, 974.0207
558.8601, 972.6122
559.3422, 971.3752
559.8243, 970.2123
560.3065, 968.9528
560.7886, 967.6188
561.2707, 966.6198
561.7528, 966.0452
562.2349, 965.6686
562.7170, 965.6846
563.1992, 965.7366
563.6813, 965.1146
564.1634, 963.3068
564.6455, 961.7548
565.1276, 961.9806
565.6097, 962.9531
566.0919, 962.5345
566.5740, 960.3226
567.0561, 957.4840
567.5382, 954.8733
568.0203, 952.5075
568.5024, 950.7629
568.9846, 950.7151
569.4667, 949.8383
569.9488, 947.0964
570.4309, 943.5089
570.9130, 939.9480
571.3951, 936.7031
571.8773, 934.0448
572.3594, 932.4919
572.8415, 931.9026
573.3236, 929.9675
573.8057, 926.2527
574.2878, 921.9463
574.7700, 916.6947
575.2521, 911.4885
575.7342, 907.5051
576.2163, 904.9487
576.6984, 902.6871
577.1805, 900.0748
577.6627, 897.1886
578.1448, 893.9102
578.6269, 890.1963
579.1090, 887.2646
579.5911, 886.2917
580.0732, 886.3365
580.5554, 884.4348
581.0375, 879.6674
581.5196, 875.2285
582.0017, 871.4164
582.4838, 868.3963
582.9659, 866.7967
583.4481, 866.2881
583.9302, 865.6301
584.4123, 863.9491
584.8944, 861.4825
585.3765, 859.0709
585.8586, 856.7510
586.3408, 854.4231
586.8229, 851.3217
587.3050, 848.8466
587.7871, 848.5101
588.2692, 849.7615
588.7513, 850.3292
589.2334, 848.7575
589.7155, 845.9412
590.1976, 843.1933
590.6797, 840.5089
591.1619, 837.9760
591.6440, 835.6381
592.1261, 833.4571
592.6082, 831.2100
593.0903, 828.8562
593.5724, 827.4583
594.0546, 828.4982
594.5367, 829.2518
595.0188, 827.7023
595.5009, 824.5972
595.9830, 821.6298
596.4651, 819.4444
596.9473, 817.6252
597.4294, 815.4398
597.9115, 812.6135
598.3936, 810.7635
598.8757, 811.0153
599.3578, 811.0940
599.8400, 810.1844
600.3221, 808.7570
600.8042, 807.5050
601.2863, 806.6614
601.7684, 805.8860
602.2505, 805.0441
602.7327, 804.0231
603.2148, 802.0193
603.6969, 798.5859
604.1790, 795.7265
604.6611, 795.2941
605.1432, 796.3505
605.6254, 795.6636
606.1075, 792.0319
606.5896, 788.9055
607.0717, 787.5848
607.5538, 787.1781
608.0359, 787.1100
608.5181, 787.0865
609.0002, 786.3899
609.4823, 784.3714
609.9644, 781.4609
610.4465, 779.6255
610.9286, 779.9297
611.4108, 779.2188
611.8929, 775.6169
612.3750, 772.2545
612.8571, 771.6982
613.3392, 773.3211
613.8214, 774.3129
614.3035, 772.8483
614.7856, 770.2781
615.2677, 768.5500
615.7498, 767.6194
616.2319, 767.0825
616.7141, 767.0096
617.1962, 766.8632
617.6783, 765.8620
618.1604, 763.9834
618.6425, 762.6495
619.1246, 762.5325
619.6068, 762.3105
620.0889, 761.3368
620.5710, 759.8781
621.0531, 758.1560
621.5352, 756.3229
622.0173, 754.8994
622.4995, 754.6490
622.9816, 755.5729
623.4637, 755.8007
623.9458, 755.0074
624.4279, 754.0300
624.9100, 753.0322
625.3922, 752.0436
625.8743, 751.1492
626.3564, 750.3475
626.8385, 749.3804
627.3206, 747.7592
627.8027, 746.0089
628.2849, 745.2909
628.7670, 745.5363
629.2491, 745.1303
629.7312, 743.1689
630.2133, 740.3981
630.6954, 738.1638
631.1776, 736.3347
631.6597, 735.5643
632.1418, 737.2343
632.6239, 738.6152
633.1060, 737.7164
633.5881, 735.5683
634.0703, 734.4424
634.5524, 735.2845
635.0345, 736.3815
635.5166, 734.6808
635.9987, 730.0334
636.4808, 727.7717
636.9630, 729.4343
637.4451, 731.1033
637.9272, 730.2958
638.4093, 728.2247
638.8914, 726.5276
639.3735, 725.3721
639.8557, 724.6678
640.3378, 724.6423
640.8199, 724.8897
641.3020, 725.1356
641.7841, 725.2177
642.2662, 724.4267
642.7484, 722.2145
643.2305, 719.1223
643.7126, 716.6865
644.1947, 714.9696
644.6768, 713.8351
645.1589, 713.5332
645.6411, 713.4999
646.1232, 713.7929
646.6053, 714.0824
647.0874, 713.7471
647.5695, 712.4600
648.0516, 710.6964
648.5338, 708.8005
649.0159, 706.8611
649.4980, 705.4470
649.9801, 704.6677
650.4622, 704.2830
650.9443, 704.2830
651.4265, 704.5251
651.9086, 704.3718
652.3907, 703.8762
652.8728, 702.9318
653.3549, 700.9486
653.8370, 698.8994
654.3192, 697.8262
654.8013, 697.6077
655.2834, 697.3984
655.7655, 696.6567
656.2476, 695.5187
656.7297, 694.1348
657.2119, 692.2312
657.6940, 691.4150
658.1761, 692.8771
658.6582, 694.3621
659.1403, 694.1494
659.6224, 692.8444
660.1046, 692.0175
660.5867, 692.4739
661.0688, 692.7849
661.5509, 691.6254
662.0330, 689.7719
662.5151, 688.7584
662.9973, 688.7778
663.4794, 688.8281
663.9615, 688.1047
664.4436, 686.7753
664.9257, 685.6751
665.4078, 684.8855
665.8900, 684.2136
666.3721, 683.7379
666.8542, 683.2869
667.3363, 682.5212
667.8184, 681.6843
668.3005, 681.5187
668.7827, 682.6246
669.2648, 684.0162
669.7469, 684.6074
670.2290, 684.4155
670.7111, 683.2330
671.1932, 680.8011
671.6754, 678.5499
672.1575, 677.7737
672.6396, 678.2318
673.1217, 678.1414
673.6038, 677.2822
674.0859, 676.2422
674.5681, 674.6227
675.0502, 673.2098
675.5323, 672.8157
676.0144, 673.2941
676.4965, 674.0029
676.9786, 674.6514
677.4608, 674.9316
677.9428, 673.8273
678.4249, 671.1746
678.9070, 669.7609
679.3892, 670.6159
679.8713, 671.7462
680.3534, 671.2864
680.8355, 669.8961
681.3176, 669.4926
681.7997, 671.3048
682.2819, 672.3976
682.7640, 670.7707
683.2461, 668.3383
683.7282, 667.4420
684.2103, 668.0965
684.6924, 668.8131
685.1746, 668.5905
685.6567, 667.8261
686.1388, 667.6383
686.6209, 668.1961
687.1030, 668.7360
687.5851, 669.5059
688.0673, 669.8588
688.5494, 669.3663
689.0315, 668.2441
689.5136, 666.8195
689.9957, 664.8611
690.4778, 663.4391
690.9600, 663.8172
691.4421, 664.9221
691.9242, 664.9600
692.4063, 663.8533
692.8884, 662.6898
693.3705, 662.1140
693.8527, 662.0671
694.3348, 662.4543
694.8169, 663.6689
695.2990, 664.4318
695.7811, 664.3646
696.2632, 664.2261
696.7454, 664.4041
697.2275, 664.7112
697.7096, 664.6894
698.1917, 664.1113
698.6738, 663.8052
699.1559, 665.1807
699.6381, 667.1072
700.1202, 666.8514
700.6023, 664.3113
701.0844, 661.7632
701.5665, 660.3419
702.0486, 659.9346
702.5308, 660.3845
703.0129, 662.2776
703.4950, 663.5432
703.9771, 664.0907
704.4592, 664.1857
704.9413, 663.6525
705.4235, 662.8438
705.9056, 662.2509
706.3877, 662.0101
706.8698, 661.8723
707.3519, 661.4959
707.8340, 661.0762
708.3162, 661.2104
708.7983, 661.9213
709.2804, 662.5694
709.7625, 662.8819
710.2446, 662.9837
710.7267, 663.0948
711.2089, 663.2866
711.6910, 663.1474
712.1731, 662.6065
712.6552, 661.8364
713.1373, 660.7451
713.6194, 659.5350
714.1016, 658.2548
714.5837, 657.0089
715.0658, 656.2926
715.5479, 656.6456
716.0300, 657.7924
716.5121, 659.3344
716.9943, 661.2930
717.4764, 662.1479
717.9585, 661.1086
718.4406, 659.4975
718.9227, 658.8316
719.4048, 659.1674
719.8870, 659.3805
720.3691, 659.6326
720.8512, 659.5656
721.3333, 658.6935
721.8154, 657.7036
722.2975, 657.4785
722.7797, 657.9254
723.2618, 658.0607
723.7439, 657.0378
724.2260, 655.5765
724.7081, 655.2577
725.1902, 656.0481
725.6724, 656.7748
726.1545, 657.4246
726.6366, 657.2991
727.1187, 655.3783
727.6008, 652.1141
728.0829, 650.1356
728.5651, 650.1616
729.0472, 650.3102
729.5293, 650.2300
730.0114, 650.1898
730.4935, 650.6153
730.9756, 651.2624
731.4578, 651.4058
731.9399, 650.6505
732.4220, 649.5644
732.9041, 648.8577
733.3862, 648.5314
733.8683, 648.6797
734.3505, 649.4308
734.8326, 650.1497
735.3147, 650.6406
735.7968, 650.7597
736.2789, 650.0965
736.7610, 648.4904
737.2432, 646.7427
737.7253, 644.2265
738.2074, 642.2929
738.6895, 641.9958
739.1716, 642.6798
739.6537, 643.2799
740.1359, 643.4696
740.6180, 643.6111
741.1001, 644.3610
741.5822, 645.3492
742.0643, 644.8344
742.5464, 642.6608
743.0286, 641.4068
743.5107, 642.3684
743.9928, 643.8448
744.4749, 643.5463
744.9570, 641.2628
745.4391, 640.0958
745.9213, 640.4738
746.4034, 641.3740
746.8855, 643.3027
747.3676, 645.0850
747.8497, 645.2043
748.3318, 643.8793
748.8140, 642.8161
749.2961, 643.1868
749.7782, 644.2478
750.2603, 644.7605
750.7424, 644.8019
751.2245, 645.1285
751.7067, 645.9946
752.1888, 646.4658
752.6709, 645.7000
753.1530, 644.0398
753.6351, 642.8821
754.1172, 642.5076
754.5994, 642.2079
755.0815, 641.9998
755.5636, 641.8379
756.0457, 641.7560
756.5278, 641.6873
757.0099, 641.4450
757.4921, 640.9542
757.9742, 640.6201
758.4563, 640.7950
758.9384, 641.4199
759.4205, 642.8548
759.9026, 644.9797
760.3848, 645.4402
760.8669, 642.9182
761.3490, 639.4034
761.8311, 637.9613
762.3132, 638.9512
762.7953, 639.4291
763.2775, 638.8252
763.7596, 638.4111
764.2417, 638.9872
764.7238, 639.4816
765.2059, 638.4545
765.6880, 636.1706
766.1702, 634.6836
766.6523, 635.6565
767.1344, 637.1738
767.6165, 637.3119
768.0986, 636.3338
768.5807, 634.5460
769.0628, 632.0975
769.5449, 630.3525
770.0270, 630.5082
770.5092, 631.8904
770.9913, 632.0615
771.4734, 630.5207
771.9555, 628.9750
772.4376, 627.0056
772.9197, 625.6288
773.4019, 625.3339
773.8840, 625.8989
774.3661, 627.3796
774.8482, 630.1648
775.3303, 631.4552
775.8124, 628.1284
776.2946, 623.9148
776.7767, 623.1214
777.2588, 624.8422
777.7409, 626.0828
778.2230, 625.7449
778.7051, 624.4345
779.1873, 622.7023
779.6694, 620.6251
780.1515, 619.0575
780.6336, 618.1733
781.1157, 617.2457
781.5978, 615.9774
782.0800, 614.6990
782.5621, 613.6320
783.0442, 612.7966
783.5263, 612.3027
784.0084, 612.7762
784.4905, 612.8192
784.9727, 611.6816
785.4548, 610.0646
785.9369, 608.2608
786.4190, 606.6267
786.9011, 606.1303
787.3832, 607.4050
787.8654, 608.8831
788.3475, 607.8068
788.8296, 604.5646
789.3117, 602.5432
789.7938, 602.1113
790.2759, 601.8234
790.7581, 600.8893
791.2402, 599.8365
791.7223, 599.7624
792.2044, 601.1931
792.6865, 601.2139
793.1686, 598.3451
793.6508, 595.9181
794.1329, 595.5045
794.6150, 595.7312
795.0971, 595.0550
795.5792, 593.4239
796.0613, 591.8815
796.5435, 590.8997
797.0256, 590.5018
797.5077, 591.2670
797.9898, 592.6100
798.4719, 592.7130
798.9540, 591.2875
799.4362, 589.2174
799.9183, 587.0005
800.4004, 584.8625
800.8825, 583.4817
801.3646, 583.0563
801.8467, 582.8115
802.3289, 582.6882
802.8110, 582.8121
803.2931, 583.8174
803.7752, 584.7913
804.2573, 584.2395
804.7394, 581.8867
805.2216, 580.1179
805.7037, 580.7623
806.1858, 581.4077
806.6679, 579.5302
807.1500, 576.5880
807.6321, 575.4695
808.1143, 576.5895
808.5964, 577.8619
809.0785, 577.5102
809.5606, 576.1176
810.0427, 575.4714
810.5248, 575.6484
811.0070, 574.6624
811.4891, 571.6179
811.9712, 569.0554
812.4533, 569.1344
812.9354, 570.8557
813.4175, 571.0307
813.8997, 568.8824
814.3818, 567.0859
814.8639, 565.4597
815.3460, 564.5575
815.8281, 565.3031
816.3102, 566.6374
816.7924, 567.0597
817.2745, 566.2660
817.7566, 565.0999
818.2387, 563.7758
818.7208, 562.6799
819.2029, 562.5657
819.6851, 563.1716
820.1672, 563.7318
820.6493, 564.0481
821.1314, 563.8233
821.6135, 562.6768
822.0956, 560.9976
822.5778, 560.4443
823.0599, 561.6041
823.5420, 561.9931
824.0241, 560.9658
824.5062, 559.7423
824.9883, 559.0182
825.4705, 558.4919
825.9526, 557.5608
826.4347, 556.0128
826.9168, 555.0722
827.3989, 555.4608
827.8810, 556.1853
828.3632, 557.0615
828.8453, 557.6516
829.3274, 556.9657
829.8095, 555.0869
830.2916, 553.7234
830.7737, 554.4835
831.2559, 556.1730
831.7380, 556.2031
832.2201, 554.8032
832.7022, 553.9600
833.1843, 554.0452
833.6664, 554.2448
834.1486, 553.9241
834.6307, 553.4401
835.1128, 553.8512
835.5949, 555.8726
836.0770, 556.8871
836.5591, 556.4904
837.0413, 555.5228
837.5234, 553.4169
838.0055, 551.3625
838.4876, 551.0635
838.9697, 552.5408
839.4518, 553.3972
839.9340, 551.9103
840.4161, 550.2615
840.8982, 550.0351
841.3803, 550.6047
841.8624, 551.2008
842.3445, 551.6047
842.8267, 551.5379
843.3088, 550.7340
843.7909, 549.9266
844.2730, 550.8868
844.7551, 553.4072
845.2372, 554.2719
845.7194, 553.0681
846.2015, 551.5036
846.6836, 550.1717
847.1657, 549.2276
847.6478, 548.9930
848.1299, 549.5959
848.6121, 549.8957
849.0942, 549.7040
849.5763, 549.4678
850.0584, 549.4973
850.5405, 549.3254
851.0226, 548.2636
851.5048, 546.6530
851.9869, 545.6826
852.4690, 545.9679
852.9511, 546.4178
853.4332, 546.2875
853.9153, 545.9232
854.3975, 545.6591
854.8796, 545.5651
855.3617, 545.8956
855.8438, 546.7113
856.3259, 547.2003
856.8080, 546.0507
857.2901, 543.7651
857.7722, 543.2897
858.2543, 544.8359
858.7365, 545.5555
859.2186, 544.5236
859.7007, 543.0613
860.1828, 542.2233
860.6649, 541.9326
861.1470, 541.8184
861.6292, 541.9481
862.1113, 542.1450
862.5934, 542.5984
863.0755, 542.9063
863.5576, 542.8304
864.0397, 542.5150
864.5219, 542.1305
865.0040, 541.7145
865.4861, 541.3651
865.9682, 541.1857
866.4503, 541.0448
866.9324, 540.5013
867.4146, 540.0594
867.8967, 541.1074
868.3788, 543.4136
868.8609, 544.6561
869.3430, 543.1932
869.8251, 540.3741
870.3073, 538.4921
870.7894, 537.4903
871.2715, 536.9716
871.7536, 536.9454
872.2357, 537.0651
872.7178, 537.3042
873.2000, 537.2731
873.6821, 536.2521
874.1642, 534.1088
874.6463, 532.8944
875.1284, 533.3541
875.6105, 533.6262
876.0927, 533.1912
876.5748, 532.7098
877.0569, 532.8569
877.5390, 533.3067
878.0211, 533.0906
878.5032, 531.7510
878.9854, 530.5196
879.4675, 530.1411
879.9496, 529.8862
880.4317, 528.7767
880.9138, 527.4339
881.3959, 527.3785
881.8781, 528.8107
882.3602, 529.9794
882.8423, 529.1970
883.3244, 527.4845
883.8065, 526.7775
884.2886, 526.9098
884.7708, 527.1134
885.2529, 527.2572
885.7350, 527.3942
886.2171, 527.5902
886.6992, 527.6942
887.1813, 527.3293
887.6635, 526.3815
888.1456, 525.6989
888.6277, 525.4208
889.1098, 525.1539
889.5919, 524.9382
890.0740, 524.5346
890.5562, 523.4147
891.0383, 521.7498
891.5204, 520.8437
892.0025, 521.3766
892.4846, 521.8748
892.9667, 522.1443
893.4489, 522.1752
893.9310, 521.7206
894.4131, 521.0959
894.8952, 520.9592
895.3773, 521.4858
895.8594, 521.9099
896.3416, 521.5349
896.8237, 520.8907
897.3058, 520.5872
897.7879, 520.5138
898.2700, 520.5049
898.7521, 520.4643
899.2343, 520.0162
899.7164, 518.8160
900.1985, 517.4270
900.6806, 517.3676
901.1627, 518.5232
901.6448, 517.9944
902.1270, 515.3196
902.6091, 513.2076
903.0912, 512.9033
903.5733, 513.5009
904.0554, 513.9353
904.5375, 514.2084
905.0197, 514.0592
905.5018, 512.9532
905.9839, 512.3311
906.4660, 512.6948
906.9481, 513.2578
907.4302, 513.9866
907.9124, 514.5007
908.3945, 513.8343
908.8766, 511.4906
909.3587, 509.9516
909.8408, 510.6146
910.3229, 511.5668
910.8051, 511.7282
911.2872, 511.4460
911.7693, 511.1593
912.2514, 510.9658
912.7335, 510.8374
913.2156, 510.7518
913.6978, 510.7368
914.1799, 511.0988
914.6620, 511.4425
915.1441, 510.6116
915.6262, 508.8860
916.1083, 508.0005
916.5905, 508.6288
917.0726, 509.6733
917.5547, 509.8029
918.0368, 509.3062
918.5189, 509.8372
919.0010, 511.5406
919.4832, 512.0403
919.9653, 510.7029
920.4474, 508.8743
920.9295, 507.2711
921.4116, 506.0083
921.8937, 505.4049
922.3759, 505.6947
922.8580, 505.7424
923.3401, 504.9911
923.8222, 504.7911
924.3043, 505.9537
924.7864, 507.3987
925.2686, 508.4598
925.7507, 509.0370
926.2328, 508.8682
926.7149, 507.7914
927.1970, 506.2003
927.6791, 503.3449
928.1613, 500.8727
928.6434, 500.0597
929.1255, 500.3823
929.6076, 501.1537
930.0897, 502.0939
930.5718, 502.5723
931.0540, 501.8258
931.5361, 500.8778
932.0182, 501.1685
932.5003, 501.8708
932.9824, 501.0193
933.4645, 498.8975
933.9467, 497.8635
934.4288, 499.0637
934.9109, 501.0729
935.3930, 502.2196
935.8751, 502.5461
936.3572, 502.0460
936.8394, 500.7447
937.3215, 499.5278
937.8036, 498.5689
938.2857, 498.1502
938.7678, 498.6748
939.2499, 499.5901
939.7321, 499.0443
940.2142, 496.2706
940.6963, 495.2430
941.1784, 496.8030
941.6605, 498.3502
942.1426, 499.1257
942.6248, 499.2870
943.1069, 498.8550
943.5890, 497.8728
944.0711, 497.0024
944.5532, 496.0338
945.0353, 495.4937
945.5175, 495.8452
945.9996, 496.1933
946.4817, 495.8388
946.9637, 495.2757
947.4459, 495.3126
947.9280, 496.0508
948.4101, 496.7888
948.8922, 497.0000
949.3743, 497.4373
949.8564, 499.4283
950.3386, 501.2314
950.8207, 500.3303
951.3028, 497.5225
951.7849, 495.4592
952.2670, 495.1848
952.7491, 495.5682
953.2313, 495.8341
953.7134, 495.9811
954.1955, 495.9941
954.6776, 495.8871
955.1597, 495.5050
955.6418, 494.9379
956.1240, 495.0060
956.6061, 496.3246
957.0882, 498.0050
957.5703, 498.4539
958.0524, 497.8297
958.5345, 497.1647
959.0167, 496.4895
959.4988, 495.8909
959.9809, 495.4048
960.4630, 494.9084
960.9451, 494.2156
961.4272, 493.4906
961.9094, 493.4383
962.3915, 494.1710
962.8736, 495.2105
963.3557, 496.9497
963.8378, 497.9644
964.3199, 497.0799
964.8021, 495.8260
965.2842, 496.4772
965.7663, 499.0009
966.2484, 499.8826
966.7305, 497.4222
967.2126, 495.7985
967.6948, 495.6068
968.1769, 495.9344
968.6590, 496.7523
969.1411, 497.5890
969.6232, 497.6874
970.1053, 496.9488
970.5875, 496.2545
971.0696, 495.4474
971.5517, 495.1946
972.0338, 496.1408
972.5159, 497.4361
972.9980, 498.3804
973.4802, 499.0310
973.9623, 499.7602
974.4444, 500.6966
974.9265, 501.2763
975.4086, 500.7826
975.8907, 500.1461
976.3729, 500.0396
976.8550, 500.4405
977.3371, 501.5222
977.8192, 503.0713
978.3013, 504.3864
978.7834, 505.1253
979.2656, 505.3921
979.7477, 504.9253
980.2298, 504.2563
980.7119, 504.6991
981.1940, 505.8779
981.6761, 506.2990
982.1583, 505.6887
982.6404, 504.9594
983.1225, 504.7212
983.6046, 504.9036
984.0867, 505.4652
984.5688, 506.3531
985.0510, 507.0971
985.5331, 507.6873
986.0152, 508.7453
986.4973, 510.5545
986.9794, 512.0399
987.4615, 512.1219
987.9437, 511.2479
988.4258, 510.9708
988.9079, 511.3578
989.3900, 511.9267
989.8721, 512.7520
990.3542, 513.4203
990.8364, 513.7537
991.3185, 513.8702
991.8006, 513.7752
992.2827, 513.5588
992.7648, 514.0638
993.2469, 515.8652
993.7291, 517.1351
994.2112, 517.7504
994.6933, 517.8632
995.1754, 516.8490
995.6575, 515.8303
996.1396, 516.5449
996.6218, 518.9178
997.1039, 520.5045
997.5860, 520.5538
998.0681, 520.8048
998.5502, 521.9647
999.0323, 522.8562
999.5145, 522.2136
999.9966, 521.2257
1000.479, 521.7410
1000.961, 523.9076
1001.443, 526.0765
1001.925, 528.5001
1002.407, 529.9329
1002.889, 528.7208
1003.371, 527.4507
1003.854, 528.6256
1004.336, 531.1238
1004.818, 532.6083
1005.300, 532.5886
1005.782, 532.4973
1006.264, 532.8253
1006.746, 533.6061
1007.228, 535.5674
1007.710, 537.4724
1008.193, 537.5259
1008.675, 536.3396
1009.157, 535.6885
1009.639, 536.1484
1010.121, 537.0660
1010.603, 538.0676
1011.085, 539.1557
1011.567, 540.3755
1012.049, 541.6605
1012.532, 542.9504
1013.014, 544.1782
1013.496, 545.1013
1013.978, 545.6346
1014.460, 546.1488
1014.942, 546.9759
1015.424, 548.0676
1015.906, 549.4658
1016.389, 551.0314
1016.871, 552.2811
1017.353, 553.2281
1017.835, 554.4542
1018.317, 556.2492
1018.799, 558.1901
1019.281, 559.8102
1019.763, 561.1344
1020.245, 562.1633
1020.728, 562.9485
1021.210, 563.8839
1021.692, 565.0184
1022.174, 565.7711
1022.656, 565.7632
1023.138, 565.7695
1023.620, 567.0850
1024.102, 569.4623
1024.584, 571.1533
1025.067, 572.1445
1025.549, 573.0877
1026.031, 574.1016
1026.513, 574.9815
1026.995, 575.5439
1027.477, 576.1387
1027.959, 577.4825
1028.441, 577.9846
1028.924, 580.4714
1029.406, 579.9958
1029.888, 580.4404
1030.370, 582.3899
1030.852, 584.8184
1031.334, 587.3564
1031.816, 589.5555
1032.298, 590.4656
1032.781, 589.9860
1033.263, 590.5929
1033.745, 592.7602
1034.227, 594.6248
1034.709, 595.8349
1035.191, 596.7264
1035.673, 597.2800
1036.155, 597.8777
1036.637, 599.2776
1037.120, 601.5657
1037.602, 603.7892
1038.084, 606.0173
1038.566, 608.0549
1039.048, 609.9703
1039.530, 611.5433
1040.012, 612.4970
1040.494, 613.0994
1040.976, 613.6879
1041.459, 614.1516
1041.941, 615.5247
1042.423, 618.8281
1042.905, 621.4709
1043.387, 622.8165
1043.869, 623.7813
1044.351, 624.4926
1044.833, 625.3090
1045.316, 626.8203
1045.798, 629.0667
1046.280, 631.6666
1046.762, 635.3172
1047.244, 638.2948
1047.726, 640.3448
1048.208, 641.6528
1048.690, 641.8035
1049.172, 641.5230
1049.655, 641.7375
1050.137, 642.5092
1050.619, 644.0935
1051.101, 647.3953
1051.583, 650.2527
1052.065, 651.8603
1052.547, 653.2872
1053.029, 655.2836
1053.511, 657.4235
1053.994, 658.8497
1054.476, 659.5590
1054.958, 660.8535
1055.440, 663.3976
1055.922, 665.9987
1056.404, 668.2146
1056.886, 670.5538
1057.368, 673.7183
1057.851, 676.9849
1058.333, 679.1940
1058.815, 680.3630
1059.297, 681.7597
1059.779, 683.3722
1060.261, 685.8475
1060.743, 690.5407
1061.225, 694.9025
1061.708, 696.9725
1062.190, 697.9667
1062.672, 699.3107
1063.154, 701.2399
1063.636, 703.7941
1064.118, 707.2305
1064.600, 710.7326
1065.082, 714.5485
1065.564, 717.7384
1066.047, 718.9597
1066.529, 719.7004
1067.011, 721.6937
1067.493, 725.0245
1067.975, 729.2160
1068.457, 734.9259
1068.939, 738.9769
1069.421, 737.8149
1069.903, 737.1189
1070.386, 741.1982
1070.868, 747.2242
1071.350, 752.3867
1071.832, 756.2468
1072.314, 758.6463
1072.796, 759.0440
1073.278, 760.4373
1073.760, 765.0265
1074.243, 769.9835
1074.725, 773.8427
1075.207, 776.9476
1075.689, 778.8759
1076.171, 780.5807
1076.653, 784.6439
1077.135, 792.0134
1077.617, 798.8028
1078.099, 803.4437
1078.582, 806.7776
1079.064, 808.7523
1079.546, 810.1062
1080.028, 810.7383
1080.510, 811.5869
1080.992, 814.7993
1081.474, 820.8420
1081.956, 826.4172
1082.438, 829.7216
1082.921, 832.6101
1083.403, 835.8506
1083.885, 839.2217
1084.367, 842.4274
1084.849, 845.6100
1085.331, 849.1113
1085.813, 852.9503
1086.295, 856.7821
1086.777, 860.5276
1087.260, 864.1165
1087.742, 867.5201
1088.224, 870.7491
1088.706, 873.3733
1089.188, 876.0524
1089.670, 879.8480
1090.152, 884.7224
1090.634, 889.7601
1091.117, 895.0856
1091.599, 899.5074
1092.081, 901.4257
1092.563, 903.5385
1093.045, 907.3962
1093.527, 912.5814
1094.009, 919.6871
1094.491, 927.6038
1094.974, 932.3386
1095.456, 931.6859
1095.938, 932.4475
1096.420, 938.0531
1096.902, 944.5275
1097.384, 950.7261
1097.866, 956.0710
1098.348, 959.3763
1098.830, 961.5474
1099.313, 964.9703
1099.795, 970.2643
1100.277, 975.2690
1100.759, 978.6097
1101.241, 982.5151
1101.723, 988.3175
1102.205, 994.5184
1102.687, 1000.100
1103.169, 1005.188
1103.652, 1010.066
1104.134, 1014.769
1104.616, 1019.480
1105.098, 1023.961
1105.580, 1028.862
1106.062, 1035.170
1106.544, 1041.016
1107.026, 1044.653
1107.509, 1047.654
1107.991, 1052.110
1108.473, 1058.004
1108.955, 1064.038
1109.437, 1070.881
1109.919, 1076.291
1110.401, 1078.136
1110.883, 1080.785
1111.365, 1086.645
1111.848, 1093.553
1112.330, 1099.324
1112.812, 1104.367
1113.294, 1110.561
1113.776, 1119.029
1114.258, 1125.506
1114.740, 1126.977
1115.222, 1130.402
1115.704, 1139.088
1116.187, 1148.386
1116.669, 1155.136
1117.151, 1160.380
1117.633, 1166.058
1118.115, 1172.198
1118.597, 1178.489
1119.079, 1185.103
1119.561, 1191.465
1120.044, 1197.466
1120.526, 1203.213
1121.008, 1208.439
1121.490, 1213.735
1121.972, 1219.935
1122.454, 1226.944
1122.936, 1234.073
1123.418, 1241.333
1123.901, 1248.666
1124.383, 1256.259
1124.865, 1263.593
1125.347, 1270.343
1125.829, 1277.140
1126.311, 1284.736
1126.793, 1292.703
1127.275, 1299.659
1127.757, 1305.380
1128.240, 1311.925
1128.722, 1319.680
1129.204, 1326.175
1129.686, 1330.353
1130.168, 1335.598
1130.650, 1344.356
1131.132, 1354.367
1131.614, 1361.455
1132.096, 1366.133
1132.579, 1373.128
1133.061, 1382.509
1133.543, 1392.262
1134.025, 1402.205
1134.507, 1411.035
1134.989, 1418.103
1135.471, 1424.991
1135.953, 1433.557
1136.436, 1441.067
1136.918, 1450.900
1137.400, 1457.605
1137.882, 1465.377
1138.364, 1474.124
1138.846, 1481.620
1139.328, 1487.402
1139.810, 1493.698
1140.292, 1502.018
1140.775, 1511.742
1141.257, 1522.762
1141.739, 1534.122
1142.221, 1543.250
1142.703, 1550.682
1143.185, 1557.976
1143.667, 1565.526
1144.149, 1573.860
1144.631, 1583.196
1145.114, 1592.899
1145.596, 1602.669
1146.078, 1612.005
1146.560, 1619.299
1147.042, 1626.272
1147.524, 1636.144
1148.006, 1648.069
1148.488, 1659.871
1148.971, 1670.809
1149.453, 1680.450
1149.935, 1688.374
1150.417, 1695.629
1150.899, 1701.992
1151.381, 1709.123
1151.863, 1719.532
1152.345, 1731.097
1152.828, 1741.007
1153.310, 1749.294
1153.792, 1757.204
1154.274, 1765.087
1154.756, 1773.216
1155.238, 1781.078
1155.720, 1790.020
1156.202, 1801.729
1156.684, 1813.729
1157.167, 1823.796
1157.649, 1833.055
1158.131, 1843.952
1158.613, 1856.384
1159.095, 1866.879
1159.577, 1872.661
1160.059, 1880.531
1160.541, 1894.580
1161.023, 1907.113
1161.506, 1912.794
1161.988, 1917.784
1162.470, 1929.056
1162.952, 1935.835
1163.434, 1944.072
1163.916, 1955.491
1164.398, 1961.904
1164.880, 1974.617
1165.363, 1986.613
1165.845, 1997.162
1166.327, 2006.253
1166.809, 2013.087
1167.291, 2019.657
1167.773, 2028.578
1168.255, 2039.477
1168.737, 2050.492
1169.219, 2061.970
1169.702, 2070.798
1170.184, 2076.379
1170.666, 2082.506
1171.148, 2090.391
1171.630, 2098.245
1172.112, 2104.713
1172.594, 2110.298
1173.076, 2115.246
1173.558, 2120.125
1174.041, 2128.797
1174.523, 2140.668
1175.005, 2151.659
1175.487, 2161.241
1175.969, 2170.401
1176.451, 2179.514
1176.933, 2188.447
1177.415, 2197.401
1177.897, 2205.242
1178.380, 2208.617
1178.862, 2216.697
1179.344, 2222.857
1179.826, 2228.256
1180.308, 2236.018
1180.790, 2240.625
1181.272, 2246.227
1181.754, 2254.794
1182.237, 2263.442
1182.719, 2269.337
1183.201, 2275.185
1183.683, 2283.877
1184.165, 2293.287
1184.647, 2301.342
1185.129, 2308.044
1185.611, 2313.037
1186.094, 2316.740
1186.576, 2322.640
1187.058, 2333.801
1187.540, 2343.197
1188.022, 2346.747
1188.504, 2350.161
1188.986, 2356.613
1189.468, 2363.910
1189.950, 2369.742
1190.432, 2374.759
1190.915, 2380.870
1191.397, 2388.358
1191.879, 2396.033
1192.361, 2405.040
1192.843, 2412.133
1193.325, 2415.719
1193.807, 2419.778
1194.289, 2426.469
1194.772, 2433.595
1195.254, 2438.577
1195.736, 2442.152
1196.218, 2447.149
1196.700, 2453.716
1197.182, 2459.961
1197.664, 2465.824
1198.146, 2471.797
1198.629, 2477.986
1199.111, 2484.636
1199.593, 2491.969
1200.075, 2498.820
1200.557, 2503.355
1201.039, 2506.804
1201.521, 2512.459
1202.003, 2519.699
1202.485, 2526.105
1202.968, 2532.016
1203.450, 2540.384
1203.932, 2551.147
1204.414, 2559.366
1204.896, 2561.964
1205.378, 2563.519
1205.860, 2567.493
1206.342, 2573.511
1206.824, 2581.973
1207.307, 2591.628
1207.789, 2601.741
1208.271, 2611.346
1208.753, 2617.982
1209.235, 2621.651
1209.717, 2627.203
1210.199, 2637.389
1210.681, 2647.688
1211.164, 2657.974
1211.646, 2666.192
1212.128, 2667.984
1212.610, 2670.164
1213.092, 2680.428
1213.574, 2695.640
1214.056, 2707.267
1214.538, 2714.814
1215.021, 2722.788
1215.503, 2731.178
1215.985, 2740.253
1216.467, 2751.016
1216.949, 2759.477
1217.431, 2762.426
1217.913, 2767.300
1218.395, 2782.180
1218.877, 2801.777
1219.359, 2812.006
1219.842, 2813.494
1220.324, 2816.758
1220.806, 2821.968
1221.288, 2832.324
1221.770, 2847.841
1222.252, 2863.647
1222.734, 2877.629
1223.216, 2889.036
1223.699, 2896.416
1224.181, 2903.168
1224.663, 2914.453
1225.145, 2928.378
1225.627, 2942.285
1226.109, 2956.150
1226.591, 2970.665
1227.073, 2985.481
1227.556, 2998.365
1228.038, 3008.603
1228.520, 3020.870
1229.002, 3039.146
1229.484, 3057.932
1229.966, 3075.141
1230.448, 3091.010
1230.930, 3105.409
1231.412, 3118.640
1231.895, 3130.196
1232.377, 3140.836
1232.859, 3153.564
1233.341, 3169.096
1233.823, 3184.814
1234.305, 3201.026
1234.787, 3217.148
1235.269, 3233.854
1235.751, 3248.443
1236.234, 3258.384
1236.716, 3269.153
1237.198, 3287.510
1237.680, 3310.337
1238.162, 3327.777
1238.644, 3340.177
1239.126, 3354.100
1239.608, 3369.536
1240.091, 3386.101
1240.573, 3403.495
1241.055, 3421.160
1241.537, 3438.675
1242.019, 3454.867
1242.501, 3467.834
1242.983, 3480.740
1243.465, 3498.661
1243.948, 3518.290
1244.430, 3535.428
1244.912, 3550.657
1245.394, 3564.980
1245.876, 3579.121
1246.358, 3594.614
1246.840, 3611.987
1247.322, 3629.271
1247.804, 3646.614
1248.286, 3662.699
1248.769, 3675.632
1249.251, 3688.869
1249.733, 3705.083
1250.215, 3721.962
1250.697, 3737.235
1251.179, 3751.111
1251.661, 3763.814
1252.143, 3779.868
1252.626, 3789.948
1253.108, 3810.622
1253.590, 3829.193
1254.072, 3844.596
1254.554, 3857.820
1255.036, 3868.866
1255.518, 3882.676
1256.000, 3904.455
1256.483, 3915.665
1256.965, 3940.564
1257.447, 3946.519
1257.929, 3959.428
1258.411, 3977.590
1258.893, 3997.680
1259.375, 4017.799
1259.857, 4032.957
1260.339, 4042.429
1260.822, 4052.679
1261.304, 4067.723
1261.786, 4083.111
1262.268, 4095.406
1262.750, 4107.760
1263.232, 4123.702
1263.714, 4139.429
1264.196, 4149.603
1264.678, 4157.587
1265.161, 4171.125
1265.643, 4190.695
1266.125, 4207.233
1266.607, 4218.767
1267.089, 4231.770
1267.571, 4247.027
1268.053, 4261.982
1268.535, 4276.022
1269.017, 4288.927
1269.500, 4300.147
1269.982, 4311.851
1270.464, 4327.425
1270.946, 4345.439
1271.428, 4361.675
1271.910, 4376.521
1272.392, 4391.377
1272.874, 4406.617
1273.357, 4424.142
1273.839, 4443.452
1274.321, 4459.908
1274.803, 4471.528
1275.285, 4484.236
1275.767, 4504.180
1276.249, 4524.252
1276.731, 4539.272
1277.214, 4552.774
1277.696, 4566.860
1278.178, 4581.874
1278.660, 4597.894
1279.142, 4615.128
1279.624, 4634.837
1280.106, 4658.343
1280.588, 4677.419
1281.070, 4688.307
1281.552, 4704.457
1282.035, 4728.499
1282.517, 4752.386
1282.999, 4774.036
1283.481, 4794.112
1283.963, 4812.681
1284.445, 4831.750
1284.927, 4855.724
1285.409, 4883.211
1285.892, 4908.981
1286.374, 4932.917
1286.856, 4954.930
##END=



