##NAMES=Albite
##RRUFFID=R050402
##IDEAL CHEMISTRY=NaAlSi_3_O_8_
##LOCALITY=Urbano mine, Golconda District, Brazil
##OWNER=RRUFF
##SOURCE=Bob Downs
##DESCRIPTION=Colorless tabular single crystals associated with fluorapatite R050401
##STATUS=The identification of this mineral has been confirmed by X-ray diffraction and chemical analysis
##URL=rruff.info/R050402
##MEASURED CHEMISTRY=Na_1.00_Al_1.00_Si_3.00_O_8_
92.35352, 16.03212
92.83563, 15.82471
93.31775, 15.73679
93.79987, 15.74282
94.28198, 15.86508
94.76410, 16.19847
95.24622, 16.83217
95.72833, 17.61212
96.21045, 18.20393
96.69257, 18.60485
97.17468, 18.91627
97.65680, 19.11814
98.13892, 19.21760
98.62103, 19.58759
99.10315, 20.36045
99.58527, 21.49144
100.0674, 22.72166
100.5495, 24.12765
101.0316, 25.44040
101.5137, 26.18710
101.9958, 26.14755
102.4780, 26.33202
102.9601, 27.04323
103.4422, 28.31329
103.9243, 29.89508
104.4064, 31.81178
104.8885, 34.03223
105.3707, 36.62547
105.8528, 39.99921
106.3349, 43.13761
106.8170, 45.50912
107.2991, 46.07284
107.7813, 47.85777
108.2634, 51.36303
108.7455, 56.17670
109.2276, 60.77616
109.7097, 64.87964
110.1918, 69.01624
110.6740, 73.41195
111.1561, 78.32616
111.6382, 83.21471
112.1203, 88.20029
112.6024, 93.23975
113.0845, 97.78169
113.5667, 102.5242
114.0488, 106.2989
114.5309, 108.3609
115.0130, 106.6076
115.4951, 104.9131
115.9772, 104.6672
116.4594, 105.8411
116.9415, 106.6207
117.4236, 105.5985
117.9057, 104.0727
118.3878, 103.4347
118.8699, 104.7677
119.3521, 106.6866
119.8342, 108.3471
120.3163, 109.6439
120.7984, 111.2691
121.2805, 113.8260
121.7626, 116.9855
122.2448, 120.1851
122.7269, 123.0881
123.2090, 125.9390
123.6911, 128.9195
124.1732, 132.0086
124.6553, 135.3948
125.1375, 139.5336
125.6196, 144.1914
126.1017, 148.6282
126.5838, 151.7538
127.0659, 154.4683
127.5480, 158.5389
128.0302, 164.5460
128.5123, 171.3435
128.9944, 177.1783
129.4765, 182.1818
129.9586, 187.5823
130.4407, 194.4028
130.9229, 202.4038
131.4050, 210.6888
131.8871, 218.9316
132.3692, 227.2803
132.8513, 235.7645
133.3334, 243.9592
133.8156, 251.5836
134.2977, 259.1584
134.7798, 267.5355
135.2619, 276.5475
135.7440, 286.2036
136.2261, 296.3703
136.7083, 307.2337
137.1904, 318.7444
137.6725, 331.1696
138.1546, 344.8068
138.6367, 359.6261
139.1188, 375.9999
139.6010, 394.1645
140.0831, 414.0319
140.5652, 435.3766
141.0473, 457.9606
141.5294, 482.5846
142.0115, 510.0559
142.4937, 541.1161
142.9758, 573.7834
143.4579, 608.3620
143.9400, 645.4284
144.4221, 681.0576
144.9042, 716.6847
145.3864, 750.2117
145.8685, 777.2811
146.3506, 797.3455
146.8327, 812.2016
147.3148, 821.9233
147.7969, 823.3323
148.2791, 826.5805
148.7612, 830.4542
149.2433, 836.1730
149.7254, 846.8146
150.2075, 864.9208
150.6896, 885.6222
151.1718, 907.2657
151.6539, 933.4180
152.1360, 955.4453
152.6181, 971.1559
153.1002, 982.3713
153.5823, 994.4343
154.0645, 1005.089
154.5466, 1018.670
155.0287, 1037.049
155.5108, 1059.756
155.9929, 1088.328
156.4750, 1122.651
156.9572, 1162.771
157.4393, 1208.440
157.9214, 1261.081
158.4035, 1318.731
158.8856, 1380.275
159.3677, 1449.590
159.8499, 1518.910
160.3320, 1590.551
160.8141, 1662.407
161.2962, 1721.338
161.7783, 1768.348
162.2604, 1797.381
162.7426, 1803.465
163.2247, 1783.628
163.7068, 1742.192
164.1889, 1675.000
164.6710, 1583.999
165.1531, 1487.176
165.6353, 1383.886
166.1174, 1282.611
166.5995, 1192.490
167.0816, 1116.223
167.5637, 1052.406
168.0458, 1000.911
168.5280, 962.0998
169.0101, 932.4755
169.4922, 913.9771
169.9743, 902.8063
170.4564, 893.8256
170.9385, 886.7142
171.4207, 879.8270
171.9028, 871.4266
172.3849, 861.4248
172.8670, 851.4365
173.3491, 841.4510
173.8312, 832.3180
174.3134, 825.6456
174.7955, 822.3386
175.2776, 821.8488
175.7597, 823.4088
176.2418, 826.9324
176.7239, 833.1953
177.2061, 843.7205
177.6882, 857.7996
178.1703, 873.2517
178.6524, 889.3552
179.1345, 906.2635
179.6166, 924.0391
180.0988, 942.8948
180.5809, 962.4213
181.0630, 982.5247
181.5451, 1003.190
182.0272, 1023.491
182.5093, 1043.833
182.9915, 1063.669
183.4736, 1081.984
183.9557, 1099.417
184.4378, 1113.389
184.9199, 1120.891
185.4020, 1121.991
185.8842, 1118.037
186.3663, 1110.717
186.8484, 1099.084
187.3305, 1079.480
187.8126, 1050.758
188.2947, 1015.821
188.7769, 977.6191
189.2590, 936.2924
189.7411, 894.8511
190.2232, 853.7653
190.7053, 813.4658
191.1874, 775.5327
191.6696, 739.5350
192.1517, 706.1854
192.6338, 676.6492
193.1159, 650.9540
193.5980, 628.0537
194.0801, 607.6095
194.5623, 589.6381
195.0444, 573.3141
195.5265, 558.7089
196.0086, 545.7072
196.4907, 534.0862
196.9728, 523.8350
197.4550, 514.9896
197.9371, 507.3813
198.4192, 500.9912
198.9013, 496.8602
199.3834, 495.4306
199.8655, 495.9341
200.3477, 496.2202
200.8298, 495.9254
201.3119, 497.1166
201.7940, 501.1099
202.2761, 508.0108
202.7582, 516.4247
203.2404, 526.0662
203.7225, 537.2626
204.2046, 551.0214
204.6867, 567.5294
205.1688, 586.0364
205.6509, 606.3533
206.1331, 628.9317
206.6152, 651.3401
207.0973, 674.2492
207.5794, 696.4277
208.0615, 714.8210
208.5436, 730.4551
209.0258, 739.6645
209.5079, 740.7180
209.9900, 734.1745
210.4721, 716.8080
210.9542, 686.6405
211.4363, 646.0633
211.9185, 601.8945
212.4006, 551.9744
212.8827, 502.7328
213.3648, 458.9474
213.8469, 420.5902
214.3290, 385.7934
214.8112, 354.1888
215.2933, 326.1979
215.7754, 302.6011
216.2575, 284.3805
216.7396, 268.6272
217.2217, 253.5626
217.7038, 238.4522
218.1860, 226.6082
218.6681, 219.4993
219.1502, 215.6910
219.6323, 209.7953
220.1144, 200.5050
220.5965, 191.4599
221.0787, 184.9866
221.5608, 182.1555
222.0429, 178.9771
222.5250, 174.9587
223.0071, 170.4635
223.4892, 166.9833
223.9714, 164.6910
224.4535, 163.0900
224.9356, 162.0120
225.4177, 161.8594
225.8998, 161.2180
226.3819, 159.6770
226.8641, 157.6359
227.3462, 156.5273
227.8283, 156.5373
228.3104, 157.1869
228.7925, 158.2822
229.2746, 160.0291
229.7568, 161.7635
230.2389, 163.2995
230.7210, 164.8452
231.2031, 167.0137
231.6852, 169.8759
232.1673, 173.2437
232.6495, 177.0583
233.1316, 181.5334
233.6137, 185.9514
234.0958, 190.0915
234.5779, 194.1575
235.0600, 198.7143
235.5422, 204.1993
236.0243, 209.6196
236.5064, 214.5184
236.9885, 218.6069
237.4706, 222.8053
237.9527, 227.0628
238.4349, 231.3958
238.9170, 235.7727
239.3991, 240.0441
239.8812, 244.5794
240.3633, 249.4413
240.8454, 254.2802
241.3276, 260.3457
241.8097, 267.9279
242.2918, 276.5483
242.7739, 284.9984
243.2560, 292.5615
243.7381, 301.0560
244.2203, 311.0966
244.7024, 322.6385
245.1845, 335.8247
245.6666, 350.5619
246.1487, 366.9592
246.6308, 385.5156
247.1130, 406.1850
247.5951, 429.2113
248.0772, 454.7277
248.5593, 483.4956
249.0414, 512.6188
249.5235, 543.0450
250.0057, 573.1770
250.4878, 601.5822
250.9699, 630.8223
251.4520, 653.9513
251.9341, 669.7414
252.4162, 679.6717
252.8984, 675.0817
253.3805, 652.5511
253.8626, 617.8480
254.3447, 579.1348
254.8268, 532.6473
255.3089, 488.5822
255.7911, 449.7641
256.2732, 415.9424
256.7553, 387.7425
257.2374, 365.5368
257.7195, 348.5367
258.2017, 336.0003
258.6838, 328.7222
259.1659, 323.8568
259.6480, 320.7524
260.1301, 319.4256
260.6122, 319.9166
261.0944, 322.1962
261.5765, 326.3598
262.0586, 332.4837
262.5407, 340.4773
263.0228, 350.6429
263.5049, 363.2118
263.9871, 378.2289
264.4692, 393.7751
264.9513, 409.6136
265.4334, 426.5711
265.9155, 445.9994
266.3976, 468.1201
266.8798, 490.8682
267.3619, 514.0663
267.8440, 537.6824
268.3261, 560.1232
268.8082, 581.9745
269.2903, 601.3518
269.7725, 616.3887
270.2546, 626.4921
270.7367, 634.1824
271.2188, 639.5463
271.7009, 642.7157
272.1830, 643.8635
272.6652, 642.2828
273.1473, 640.5844
273.6294, 640.3004
274.1115, 641.4135
274.5936, 644.1364
275.0757, 648.4138
275.5579, 654.3661
276.0400, 662.4580
276.5221, 672.9621
277.0042, 684.4742
277.4863, 695.6721
277.9684, 706.3215
278.4506, 719.7611
278.9327, 736.1562
279.4148, 755.5143
279.8969, 777.8538
280.3790, 803.1731
280.8611, 831.4696
281.3433, 862.4344
281.8254, 896.2336
282.3075, 933.9029
282.7896, 975.4344
283.2717, 1021.387
283.7538, 1071.999
284.2360, 1127.185
284.7181, 1189.195
285.2002, 1259.164
285.6823, 1336.931
286.1644, 1422.514
286.6465, 1516.113
287.1287, 1613.774
287.6108, 1712.749
288.0929, 1812.647
288.5750, 1906.763
289.0571, 1997.296
289.5392, 2080.493
290.0214, 2142.594
290.5035, 2184.230
290.9856, 2199.386
291.4677, 2181.186
291.9498, 2130.186
292.4319, 2050.507
292.9141, 1936.565
293.3962, 1798.118
293.8783, 1651.624
294.3604, 1497.545
294.8425, 1348.498
295.3246, 1211.143
295.8068, 1085.525
296.2889, 974.8505
296.7710, 880.1611
297.2531, 798.4291
297.7352, 726.9467
298.2173, 665.7050
298.6995, 612.0856
299.1816, 566.2107
299.6637, 526.8183
300.1458, 492.6454
300.6279, 463.5388
301.1100, 438.5732
301.5922, 417.5099
302.0743, 400.0553
302.5564, 385.0966
303.0385, 371.9814
303.5206, 360.8548
304.0027, 351.8312
304.4849, 345.1688
304.9670, 339.9767
305.4491, 335.8322
305.9312, 332.6080
306.4133, 329.9992
306.8954, 327.7484
307.3776, 326.0953
307.8597, 325.4590
308.3418, 325.9152
308.8239, 326.7525
309.3060, 327.9169
309.7881, 329.0558
310.2703, 329.5758
310.7524, 329.1508
311.2345, 328.1077
311.7166, 326.7098
312.1987, 324.9536
312.6808, 322.6219
313.1630, 319.2194
313.6451, 315.2889
314.1272, 311.3804
314.6093, 307.5049
315.0914, 303.8931
315.5735, 300.6703
316.0557, 297.8324
316.5378, 295.3696
317.0199, 292.6317
317.5020, 290.6458
317.9841, 290.1890
318.4662, 291.9982
318.9484, 294.5481
319.4305, 297.0889
319.9126, 299.9668
320.3947, 304.0909
320.8768, 309.8147
321.3589, 316.7830
321.8411, 324.6225
322.3232, 332.4674
322.8053, 343.0118
323.2874, 356.9901
323.7695, 373.9285
324.2516, 393.0785
324.7338, 415.2140
325.2159, 438.7191
325.6980, 463.4441
326.1801, 489.8510
326.6622, 515.6649
327.1443, 543.4454
327.6265, 569.5792
328.1086, 590.5299
328.5907, 610.3137
329.0728, 620.1702
329.5549, 619.0687
330.0370, 606.9276
330.5192, 583.6071
331.0013, 542.5274
331.4834, 495.7220
331.9655, 450.5199
332.4476, 404.8359
332.9297, 364.1633
333.4119, 329.5213
333.8940, 300.4136
334.3761, 275.4164
334.8582, 255.5446
335.3403, 238.9736
335.8224, 225.1446
336.3046, 214.5667
336.7867, 205.1506
337.2688, 196.8164
337.7509, 189.5789
338.2330, 183.2812
338.7151, 177.9593
339.1973, 173.6208
339.6794, 170.4439
340.1615, 168.5148
340.6436, 166.4253
341.1257, 164.1221
341.6078, 161.8298
342.0899, 159.8282
342.5721, 158.1624
343.0542, 156.6314
343.5363, 155.0448
344.0184, 153.5748
344.5005, 153.1968
344.9826, 154.0557
345.4648, 154.9755
345.9469, 154.6008
346.4290, 153.1433
346.9111, 152.3887
347.3932, 152.9020
347.8753, 153.9708
348.3575, 154.3590
348.8396, 154.0787
349.3217, 153.2756
349.8038, 151.9343
350.2859, 150.1455
350.7680, 148.0528
351.2502, 145.6006
351.7323, 143.1223
352.2144, 141.0889
352.6965, 139.3546
353.1786, 137.5377
353.6607, 135.1655
354.1429, 132.7346
354.6250, 130.8923
355.1071, 129.6768
355.5892, 128.7403
356.0713, 127.8732
356.5534, 127.1018
357.0356, 126.4690
357.5177, 126.2983
357.9998, 126.0115
358.4819, 125.0320
358.9640, 123.4857
359.4461, 122.0987
359.9283, 121.2891
360.4104, 120.7796
360.8925, 120.3690
361.3746, 120.1421
361.8567, 119.7789
362.3388, 118.8774
362.8210, 117.7389
363.3031, 117.0271
363.7852, 117.4707
364.2673, 117.9700
364.7494, 117.9153
365.2315, 117.0041
365.7137, 116.4204
366.1958, 116.7264
366.6779, 117.3696
367.1600, 117.7027
367.6421, 117.3360
368.1242, 116.9827
368.6064, 116.8234
369.0885, 116.8737
369.5706, 116.8044
370.0527, 116.4778
370.5348, 116.1392
371.0169, 115.9607
371.4991, 116.1602
371.9812, 116.1380
372.4633, 115.6724
372.9454, 114.9637
373.4275, 114.7765
373.9096, 115.4321
374.3918, 116.0474
374.8739, 116.1400
375.3560, 115.5208
375.8381, 115.2335
376.3202, 115.3029
376.8023, 115.6730
377.2845, 116.3277
377.7666, 117.3147
378.2487, 118.2778
378.7308, 118.9623
379.2129, 119.4836
379.6950, 120.6992
380.1772, 122.7391
380.6593, 124.8528
381.1414, 126.3415
381.6235, 127.2495
382.1056, 128.0714
382.5877, 128.7963
383.0699, 129.6275
383.5520, 131.1452
384.0341, 133.2835
384.5162, 135.2245
384.9983, 136.1418
385.4804, 136.5448
385.9626, 137.5130
386.4447, 139.1596
386.9268, 141.3335
387.4089, 143.9444
387.8910, 146.9760
388.3731, 150.3342
388.8553, 153.7873
389.3374, 157.6733
389.8195, 162.2296
390.3016, 167.4053
390.7837, 173.3370
391.2658, 180.8438
391.7480, 188.7746
392.2301, 195.8959
392.7122, 201.3271
393.1943, 206.6348
393.6764, 212.2529
394.1585, 218.2779
394.6407, 224.8582
395.1228, 232.6201
395.6049, 240.5322
396.0870, 248.0327
396.5691, 254.6853
397.0512, 262.0083
397.5334, 271.2868
398.0155, 281.1086
398.4976, 289.5832
398.9797, 295.9482
399.4618, 301.6418
399.9439, 306.6918
400.4261, 311.0986
400.9082, 315.6923
401.3903, 319.3398
401.8724, 324.2404
402.3545, 331.7587
402.8366, 341.8374
403.3188, 354.5635
403.8009, 370.4987
404.2830, 388.8353
404.7651, 407.5728
405.2472, 426.2975
405.7293, 446.1211
406.2115, 468.5364
406.6936, 493.5345
407.1757, 515.9589
407.6578, 537.2800
408.1399, 552.1297
408.6220, 555.0479
409.1042, 546.0780
409.5863, 525.6887
410.0684, 490.0992
410.5505, 446.2448
411.0326, 406.8639
411.5147, 371.8898
411.9969, 343.5815
412.4790, 324.1478
412.9611, 312.1635
413.4432, 305.0198
413.9253, 302.7697
414.4074, 303.4117
414.8896, 306.0052
415.3717, 309.8585
415.8538, 313.3319
416.3359, 317.8142
416.8180, 320.1398
417.3001, 317.7068
417.7823, 310.3972
418.2644, 298.6537
418.7465, 279.4807
419.2286, 257.2936
419.7107, 236.4744
420.1928, 217.1465
420.6750, 200.3600
421.1571, 186.7905
421.6392, 175.9917
422.1213, 167.1826
422.6034, 160.8678
423.0855, 155.8947
423.5677, 151.9095
424.0498, 149.1490
424.5319, 146.5433
425.0140, 143.9041
425.4961, 141.4165
425.9782, 139.2568
426.4604, 137.4777
426.9425, 135.9462
427.4246, 134.5813
427.9067, 133.4194
428.3888, 132.8640
428.8709, 133.2220
429.3531, 133.6448
429.8352, 133.6074
430.3173, 132.9742
430.7994, 132.5993
431.2815, 132.5848
431.7636, 132.7026
432.2458, 132.5028
432.7279, 131.9519
433.2100, 131.6296
433.6921, 131.8088
434.1742, 132.3624
434.6563, 132.8507
435.1385, 133.2791
435.6206, 133.6497
436.1027, 133.7916
436.5848, 133.8725
437.0669, 134.4381
437.5490, 135.7612
438.0312, 137.1765
438.5133, 137.7791
438.9954, 137.8478
439.4775, 138.1540
439.9596, 139.1891
440.4417, 140.5818
440.9239, 142.0213
441.4060, 143.4906
441.8881, 145.0719
442.3702, 147.0288
442.8523, 149.0025
443.3344, 150.6531
443.8166, 151.4764
444.2987, 152.4467
444.7808, 153.9728
445.2629, 155.8861
445.7450, 157.7094
446.2271, 158.7548
446.7093, 160.1626
447.1914, 162.5001
447.6735, 166.2005
448.1556, 169.4515
448.6377, 171.7219
449.1198, 173.8670
449.6020, 176.7777
450.0841, 180.6532
450.5662, 184.7467
451.0483, 188.9357
451.5304, 193.2756
452.0125, 197.8537
452.4947, 202.6580
452.9768, 207.8539
453.4589, 213.7496
453.9410, 220.4171
454.4231, 226.6097
454.9052, 232.2448
455.3874, 237.8583
455.8695, 244.3451
456.3516, 251.6190
456.8337, 258.7788
457.3158, 265.4651
457.7979, 272.0275
458.2801, 278.8543
458.7622, 285.9970
459.2443, 294.1230
459.7264, 303.1198
460.2085, 313.5354
460.6906, 325.9301
461.1728, 340.3289
461.6549, 356.8317
462.1370, 375.5792
462.6191, 396.2394
463.1012, 417.9256
463.5833, 440.9150
464.0655, 464.3331
464.5476, 487.5529
465.0297, 510.5307
465.5118, 534.1021
465.9939, 558.1959
466.4760, 582.6647
466.9582, 607.1091
467.4403, 630.2322
467.9224, 656.0832
468.4045, 684.5442
468.8866, 715.6458
469.3687, 749.9074
469.8509, 786.0273
470.3330, 826.5750
470.8151, 871.8729
471.2972, 921.9835
471.7793, 977.1208
472.2614, 1037.448
472.7436, 1103.901
473.2257, 1177.955
473.7078, 1260.021
474.1899, 1345.755
474.6720, 1435.685
475.1541, 1528.289
475.6363, 1623.619
476.1184, 1720.700
476.6005, 1813.521
477.0826, 1903.087
477.5647, 1984.742
478.0468, 2057.642
478.5290, 2120.237
479.0111, 2158.358
479.4932, 2167.310
479.9753, 2143.935
480.4574, 2081.143
480.9395, 1972.085
481.4217, 1841.406
481.9038, 1693.475
482.3859, 1537.903
482.8680, 1390.635
483.3501, 1250.857
483.8322, 1126.136
484.3144, 1019.724
484.7965, 932.2048
485.2786, 856.8822
485.7607, 796.0469
486.2428, 745.8422
486.7249, 704.1425
487.2071, 671.8242
487.6892, 647.0892
488.1713, 630.3549
488.6534, 620.9476
489.1355, 617.9151
489.6176, 621.8253
490.0998, 630.7191
490.5819, 644.7199
491.0640, 663.4241
491.5461, 684.3489
492.0282, 707.5816
492.5103, 733.2133
492.9925, 761.7998
493.4746, 793.1729
493.9567, 823.8348
494.4388, 853.7366
494.9209, 884.1768
495.4030, 915.9271
495.8852, 949.5276
496.3673, 987.2443
496.8494, 1029.076
497.3315, 1075.748
497.8136, 1127.603
498.2957, 1185.039
498.7779, 1247.556
499.2600, 1312.289
499.7421, 1384.647
500.2242, 1468.381
500.7063, 1565.266
501.1884, 1671.510
501.6706, 1786.283
502.1527, 1909.107
502.6348, 2037.687
503.1169, 2173.995
503.5990, 2313.605
504.0811, 2458.857
504.5633, 2606.159
505.0454, 2747.453
505.5275, 2887.465
506.0096, 3009.611
506.4917, 3111.516
506.9738, 3196.198
507.4560, 3234.958
507.9381, 3228.719
508.4202, 3174.238
508.9023, 3060.912
509.3844, 2890.640
509.8665, 2692.016
510.3487, 2462.521
510.8308, 2221.476
511.3129, 1994.049
511.7950, 1781.315
512.2772, 1588.354
512.7593, 1418.388
513.2414, 1269.732
513.7235, 1138.940
514.2056, 1025.779
514.6877, 928.0742
515.1699, 849.0262
515.6520, 782.3951
516.1341, 722.7049
516.6162, 669.1459
517.0983, 621.4733
517.5804, 579.9779
518.0626, 543.8285
518.5447, 511.6633
519.0268, 484.3289
519.5089, 459.8388
519.9910, 438.4744
520.4731, 419.9933
520.9553, 401.8948
521.4374, 383.8195
521.9195, 366.9604
522.4016, 351.9936
522.8837, 339.1695
523.3658, 327.7847
523.8480, 318.1079
524.3301, 309.2555
524.8122, 300.0869
525.2943, 290.6898
525.7764, 281.7984
526.2585, 273.4669
526.7407, 265.9349
527.2228, 259.7568
527.7049, 254.7447
528.1870, 249.9829
528.6691, 244.7234
529.1512, 239.4373
529.6334, 234.6948
530.1155, 230.5016
530.5976, 226.5479
531.0797, 222.7720
531.5618, 219.0168
532.0439, 215.1418
532.5261, 210.5665
533.0082, 206.5825
533.4903, 203.9969
533.9724, 202.1473
534.4545, 199.5386
534.9366, 195.0427
535.4188, 190.9461
535.9009, 187.8307
536.3830, 185.6803
536.8651, 183.7383
537.3472, 182.0394
537.8293, 180.4937
538.3115, 179.2021
538.7936, 178.2292
539.2757, 176.5918
539.7578, 174.0713
540.2399, 171.4081
540.7220, 169.6275
541.2042, 168.6207
541.6863, 167.6258
542.1684, 166.3436
542.6505, 165.0167
543.1326, 164.1115
543.6147, 163.5008
544.0969, 162.6727
544.5790, 160.8821
545.0611, 159.0650
545.5432, 158.2714
546.0253, 158.6570
546.5074, 158.4998
546.9896, 156.4394
547.4717, 153.8941
547.9538, 152.0184
548.4359, 151.6842
548.9180, 151.0979
549.4001, 149.8168
549.8823, 148.2889
550.3644, 147.2762
550.8465, 146.9139
551.3286, 146.8373
551.8107, 147.1843
552.2928, 147.7975
552.7750, 147.3425
553.2571, 145.6082
553.7392, 143.8423
554.2213, 142.8446
554.7034, 142.5290
555.1855, 142.4184
555.6677, 142.5175
556.1498, 142.6139
556.6319, 142.5422
557.1140, 142.2961
557.5961, 141.8145
558.0782, 140.8736
558.5604, 140.0384
559.0425, 139.9119
559.5246, 140.2415
560.0067, 140.4690
560.4888, 140.1107
560.9709, 139.8303
561.4531, 140.0030
561.9352, 140.6387
562.4173, 141.1745
562.8994, 141.3273
563.3815, 141.5343
563.8636, 142.0732
564.3458, 143.2288
564.8279, 143.8959
565.3100, 143.8606
565.7921, 143.6178
566.2742, 143.7897
566.7563, 144.4023
567.2385, 145.1973
567.7206, 146.1650
568.2027, 147.2248
568.6848, 148.0624
569.1669, 148.7416
569.6490, 149.6596
570.1312, 151.2606
570.6133, 153.1378
571.0954, 154.5764
571.5775, 155.6189
572.0596, 156.8493
572.5417, 158.8079
573.0239, 161.0446
573.5060, 163.0723
573.9881, 164.5983
574.4702, 166.5412
574.9523, 169.5600
575.4344, 173.0368
575.9166, 176.1588
576.3987, 179.0285
576.8808, 181.3960
577.3629, 183.1947
577.8450, 184.4882
578.3271, 185.5477
578.8093, 186.4580
579.2914, 186.8880
579.7735, 186.8062
580.2556, 186.1584
580.7377, 184.3495
581.2198, 181.3316
581.7020, 177.6899
582.1841, 173.7399
582.6662, 169.5654
583.1483, 165.2392
583.6304, 160.8057
584.1125, 156.3974
584.5947, 151.8483
585.0768, 147.4914
585.5589, 143.8180
586.0410, 141.2868
586.5231, 139.1493
587.0052, 137.3060
587.4873, 135.6471
587.9694, 133.9093
588.4515, 131.5735
588.9337, 129.6344
589.4158, 128.5341
589.8979, 128.2796
590.3800, 127.5815
590.8621, 126.1325
591.3442, 124.7752
591.8264, 124.1071
592.3085, 124.1672
592.7906, 124.1869
593.2727, 124.1265
593.7548, 124.0696
594.2369, 124.2563
594.7191, 124.5586
595.2012, 124.3635
595.6833, 123.1624
596.1654, 122.1257
596.6475, 123.2011
597.1296, 125.4465
597.6118, 126.7038
598.0939, 125.0285
598.5760, 122.9638
599.0581, 121.8448
599.5402, 121.6528
600.0223, 121.6004
600.5045, 121.7240
600.9866, 121.7695
601.4687, 121.5430
601.9508, 120.8770
602.4329, 120.7312
602.9150, 121.3906
603.3972, 122.1765
603.8793, 122.4390
604.3614, 122.1223
604.8435, 121.8817
605.3256, 121.7926
605.8077, 121.8039
606.2899, 121.8383
606.7720, 121.9026
607.2541, 122.0346
607.7362, 122.2583
608.2183, 122.5435
608.7004, 122.8886
609.1826, 123.2725
609.6647, 123.6095
610.1468, 123.7905
610.6289, 123.9724
611.1110, 124.2079
611.5931, 124.5020
612.0753, 124.9810
612.5574, 125.9891
613.0395, 126.9463
613.5216, 127.4745
614.0037, 127.2431
614.4858, 127.4773
614.9680, 128.3399
615.4501, 129.4464
615.9322, 130.3366
616.4143, 130.9928
616.8964, 131.6740
617.3785, 132.3979
617.8607, 133.2100
618.3428, 134.2851
618.8249, 135.5480
619.3070, 136.6836
619.7891, 137.2084
620.2712, 137.7761
620.7534, 138.9981
621.2355, 140.8401
621.7176, 143.0939
622.1997, 146.5798
622.6818, 149.7047
623.1639, 151.3212
623.6461, 151.0406
624.1282, 151.3704
624.6103, 152.5294
625.0924, 154.3895
625.5745, 156.9791
626.0566, 160.7128
626.5388, 164.0312
627.0209, 166.7316
627.5030, 169.2372
627.9851, 172.1641
628.4672, 175.4620
628.9493, 178.6382
629.4315, 181.5497
629.9136, 184.3351
630.3957, 187.2877
630.8778, 190.2856
631.3599, 192.9245
631.8420, 195.0510
632.3242, 196.7126
632.8063, 198.1155
633.2884, 199.1493
633.7705, 199.2874
634.2526, 197.6525
634.7347, 195.6754
635.2169, 194.0507
635.6990, 192.9270
636.1811, 191.4821
636.6632, 189.4664
637.1453, 187.4361
637.6274, 185.7576
638.1096, 184.4075
638.5917, 183.4758
639.0738, 182.9715
639.5559, 182.8394
640.0380, 182.9852
640.5201, 183.4322
641.0023, 184.2985
641.4844, 185.7047
641.9665, 187.3762
642.4486, 189.0926
642.9307, 190.8850
643.4128, 192.7891
643.8950, 195.3958
644.3771, 197.5852
644.8592, 198.7581
645.3413, 199.0297
645.8234, 199.1242
646.3055, 199.6225
646.7877, 199.4469
647.2698, 198.1736
647.7519, 195.7617
648.2340, 193.1649
648.7161, 190.5234
649.1982, 187.3327
649.6804, 183.1252
650.1625, 177.9835
650.6446, 172.5281
651.1267, 166.7383
651.6088, 161.2094
652.0909, 156.7165
652.5731, 152.9672
653.0552, 149.3508
653.5373, 145.6177
654.0194, 142.3217
654.5015, 140.1206
654.9836, 138.4272
655.4658, 136.3637
655.9479, 132.7736
656.4300, 129.8829
656.9121, 128.4755
657.3942, 128.0480
657.8763, 127.2488
658.3585, 125.8797
658.8406, 124.5848
659.3227, 123.5601
659.8048, 122.7670
660.2869, 122.0577
660.7690, 121.4283
661.2512, 120.9219
661.7333, 120.6307
662.2154, 120.4635
662.6975, 120.3558
663.1796, 120.2908
663.6617, 119.9312
664.1439, 118.6536
664.6260, 117.2111
665.1081, 116.2406
665.5902, 115.8685
666.0723, 115.9345
666.5544, 117.2064
667.0366, 118.4336
667.5187, 118.4091
668.0008, 116.1799
668.4829, 114.7159
668.9650, 114.4005
669.4471, 114.6747
669.9293, 114.7006
670.4114, 114.4769
670.8935, 114.1758
671.3756, 113.8191
671.8577, 113.4435
672.3398, 113.0163
672.8220, 112.5967
673.3041, 112.3945
673.7862, 112.6702
674.2683, 113.0638
674.7504, 113.4325
675.2325, 113.7286
675.7147, 113.7459
676.1968, 113.1129
676.6789, 112.4709
677.1610, 112.1540
677.6431, 112.1823
678.1252, 111.9839
678.6074, 111.4069
679.0895, 110.8905
679.5716, 110.7425
680.0537, 110.9621
680.5358, 111.2402
681.0179, 111.5941
681.5001, 111.8299
681.9822, 111.6674
682.4643, 111.2593
682.9464, 110.8976
683.4285, 110.6141
683.9106, 110.4528
684.3928, 110.6887
684.8749, 110.9656
685.3570, 110.8572
685.8391, 109.5992
686.3212, 108.7562
686.8033, 108.8802
687.2855, 109.4584
687.7676, 109.6727
688.2497, 109.3311
688.7318, 109.1325
689.2139, 109.2784
689.6960, 109.6075
690.1782, 109.6440
690.6603, 109.4051
691.1424, 109.2164
691.6245, 109.3389
692.1066, 109.5272
692.5887, 109.2376
693.0709, 108.6160
693.5530, 108.3018
694.0351, 109.0753
694.5172, 109.9185
694.9993, 110.0988
695.4814, 109.5507
695.9636, 109.2499
696.4457, 109.5902
696.9278, 109.9624
697.4099, 110.0915
697.8920, 109.9466
698.3741, 109.7024
698.8563, 109.2758
699.3384, 109.0051
699.8205, 109.2992
700.3026, 110.0363
700.7847, 110.7164
701.2668, 111.3137
701.7490, 111.6597
702.2311, 111.3681
702.7132, 110.8053
703.1953, 110.4859
703.6774, 110.6177
704.1595, 110.8443
704.6417, 111.0713
705.1238, 111.2997
705.6059, 111.5307
706.0880, 111.8255
706.5701, 112.0168
707.0522, 112.0269
707.5344, 111.9701
708.0165, 112.0665
708.4986, 112.3158
708.9807, 112.7294
709.4628, 113.4115
709.9449, 114.1350
710.4271, 114.3449
710.9092, 114.1887
711.3913, 114.2213
711.8734, 114.8691
712.3555, 115.6888
712.8376, 116.4126
713.3198, 117.0497
713.8019, 117.6577
714.2840, 118.2479
714.7661, 118.8239
715.2482, 119.3484
715.7303, 119.8279
716.2125, 120.4638
716.6946, 121.2753
717.1767, 122.2025
717.6588, 123.3313
718.1409, 124.5982
718.6230, 125.4033
719.1052, 125.7485
719.5873, 125.8951
720.0694, 126.0118
720.5515, 126.0842
721.0336, 126.1536
721.5157, 126.2509
721.9979, 126.0673
722.4800, 125.1754
722.9621, 124.1196
723.4442, 123.3618
723.9263, 123.2253
724.4084, 122.7632
724.8906, 121.8535
725.3727, 120.7529
725.8548, 119.6101
726.3369, 118.3827
726.8190, 117.6662
727.3011, 117.6037
727.7833, 117.8158
728.2654, 117.9056
728.7475, 117.8869
729.2296, 117.7924
729.7117, 117.6343
730.1938, 117.3986
730.6760, 117.0319
731.1581, 116.5957
731.6402, 116.1790
732.1223, 115.5056
732.6044, 115.2473
733.0865, 115.7447
733.5687, 116.6096
734.0508, 116.9644
734.5329, 116.6396
735.0150, 116.5494
735.4971, 117.0397
735.9792, 117.7907
736.4614, 117.9476
736.9435, 117.6501
737.4256, 117.6171
737.9077, 118.5822
738.3898, 119.6820
738.8719, 120.0009
739.3541, 119.7520
739.8362, 119.6810
740.3183, 120.0116
740.8004, 120.6085
741.2825, 121.5414
741.7646, 122.7545
742.2468, 123.7841
742.7289, 124.5210
743.2110, 125.3304
743.6931, 126.3322
744.1752, 127.5411
744.6573, 129.1707
745.1395, 131.1940
745.6216, 133.1424
746.1037, 134.2228
746.5858, 135.2810
747.0679, 137.5262
747.5500, 140.9717
748.0322, 144.3299
748.5143, 146.8369
748.9964, 149.2134
749.4785, 151.8592
749.9606, 154.8030
750.4427, 158.1697
750.9249, 162.1319
751.4070, 166.3076
751.8891, 170.3477
752.3712, 174.2914
752.8533, 178.5526
753.3354, 183.1950
753.8176, 188.0104
754.2997, 192.4328
754.7818, 197.0306
755.2639, 202.9294
755.7460, 210.4163
756.2281, 218.0999
756.7103, 224.4123
757.1924, 231.0348
757.6745, 239.3874
758.1566, 250.3550
758.6387, 261.6772
759.1208, 273.3760
759.6030, 285.5635
760.0851, 298.8318
760.5672, 313.3740
761.0493, 326.2304
761.5314, 337.0371
762.0135, 346.2743
762.4957, 355.1253
762.9778, 362.6707
763.4599, 367.4044
763.9420, 369.1500
764.4241, 367.3180
764.9063, 361.3873
765.3884, 351.7770
765.8705, 338.9318
766.3526, 319.9604
766.8347, 301.9788
767.3168, 284.7124
767.7990, 268.8864
768.2811, 255.5925
768.7632, 244.8837
769.2453, 235.6235
769.7274, 227.7245
770.2095, 221.0745
770.6917, 215.7786
771.1738, 211.6510
771.6559, 208.1940
772.1380, 205.0438
772.6201, 202.8440
773.1022, 202.5679
773.5844, 203.3579
774.0665, 203.7221
774.5486, 203.7991
775.0307, 202.9322
775.5128, 200.8690
775.9949, 197.9210
776.4771, 194.8689
776.9592, 191.7077
777.4413, 187.8485
777.9234, 182.8932
778.4055, 177.4666
778.8876, 172.5094
779.3698, 167.8586
779.8519, 163.0751
780.3340, 157.2451
780.8161, 152.0482
781.2982, 148.5647
781.7803, 146.2804
782.2625, 143.7814
782.7446, 140.5688
783.2267, 137.8090
783.7088, 135.7733
784.1909, 134.3176
784.6730, 133.0677
785.1552, 132.0165
785.6373, 131.0370
786.1194, 130.0513
786.6015, 129.1542
787.0836, 128.6197
787.5657, 128.3113
788.0479, 127.8519
788.5300, 126.9040
789.0121, 125.9451
789.4942, 125.0666
789.9763, 124.3400
790.4584, 124.0409
790.9406, 124.4965
791.4227, 124.7251
791.9048, 124.3464
792.3869, 123.6148
792.8690, 123.3305
793.3511, 123.4774
793.8333, 123.8512
794.3154, 124.5930
794.7975, 125.3095
795.2796, 125.3518
795.7617, 124.9349
796.2438, 124.7411
796.7260, 125.0338
797.2081, 125.6144
797.6902, 126.4976
798.1723, 127.6187
798.6544, 128.7789
799.1365, 129.9804
799.6187, 131.1828
800.1008, 132.2920
800.5829, 133.4437
801.0650, 135.0647
801.5471, 137.1131
802.0292, 139.3875
802.5114, 142.0274
802.9935, 144.6326
803.4756, 146.7735
803.9577, 148.5467
804.4398, 150.2443
804.9219, 151.3820
805.4041, 153.1417
805.8862, 155.9933
806.3683, 159.7118
806.8504, 163.4318
807.3325, 167.1895
807.8146, 170.7743
808.2968, 173.8424
808.7789, 176.9519
809.2610, 181.6027
809.7431, 187.4872
810.2252, 193.3503
810.7073, 198.2905
811.1895, 203.2264
811.6716, 208.9078
812.1537, 215.1377
812.6358, 221.1722
813.1179, 227.4627
813.6000, 232.8209
814.0822, 237.1129
814.5643, 240.2514
815.0464, 242.0239
815.5285, 242.4463
816.0106, 240.8702
816.4927, 236.6878
816.9749, 230.7082
817.4570, 223.9098
817.9391, 216.3408
818.4212, 207.9280
818.9033, 197.4294
819.3854, 187.4387
819.8676, 179.1576
820.3497, 172.3338
820.8318, 166.0239
821.3139, 160.3180
821.7960, 155.0344
822.2781, 150.0366
822.7603, 145.5354
823.2424, 141.8013
823.7245, 138.8105
824.2066, 136.5268
824.6887, 135.1120
825.1708, 134.1336
825.6530, 133.4912
826.1351, 132.9392
826.6172, 131.9595
827.0993, 129.5818
827.5814, 127.7546
828.0635, 126.8193
828.5457, 126.6439
829.0278, 127.2391
829.5099, 128.8597
829.9920, 129.4562
830.4741, 128.3465
830.9562, 126.3445
831.4384, 124.2500
831.9205, 122.3091
832.4026, 121.1553
832.8847, 121.4139
833.3668, 121.9223
833.8489, 122.3393
834.3311, 122.5487
834.8132, 122.3094
835.2953, 121.3435
835.7774, 120.4747
836.2595, 119.7870
836.7416, 119.2345
837.2238, 118.7737
837.7059, 118.3905
838.1880, 118.0209
838.6701, 117.6595
839.1522, 117.2696
839.6343, 116.7266
840.1165, 116.1605
840.5986, 115.7795
841.0807, 115.8379
841.5628, 115.7507
842.0449, 115.2375
842.5270, 114.6437
843.0092, 114.3814
843.4913, 114.5737
843.9734, 114.3537
844.4555, 113.5751
844.9376, 112.6386
845.4197, 111.8903
845.9019, 111.3669
846.3840, 111.2475
846.8661, 111.7022
847.3482, 111.8910
847.8303, 110.7827
848.3124, 109.5307
848.7946, 109.2930
849.2767, 110.8174
849.7588, 111.5346
850.2409, 111.2232
850.7230, 110.5218
851.2051, 109.8682
851.6873, 109.2894
852.1694, 108.9730
852.6515, 108.9371
853.1336, 108.9641
853.6157, 108.9192
854.0978, 108.8186
854.5800, 108.6508
855.0621, 108.3992
855.5442, 108.2268
856.0263, 108.3124
856.5084, 108.3325
856.9905, 108.1212
857.4727, 107.6811
857.9548, 107.1418
858.4369, 106.4740
858.9190, 106.0299
859.4011, 106.1089
859.8832, 106.5403
860.3654, 107.2986
860.8475, 108.2780
861.3296, 108.7202
861.8117, 107.4932
862.2938, 106.3921
862.7759, 106.5967
863.2581, 107.8655
863.7402, 108.2708
864.2223, 107.5415
864.7044, 106.8558
865.1865, 106.7352
865.6686, 106.9729
866.1508, 107.1283
866.6329, 107.1906
867.1150, 107.1089
867.5971, 106.6540
868.0792, 106.2429
868.5613, 106.1354
869.0435, 106.2698
869.5256, 106.4650
870.0077, 106.7738
870.4898, 107.0106
870.9719, 107.1499
871.4540, 107.1934
871.9362, 107.0895
872.4183, 106.8664
872.9004, 106.7461
873.3825, 106.8114
873.8646, 106.9760
874.3467, 107.4054
874.8289, 107.8062
875.3110, 107.7252
875.7931, 106.4185
876.2752, 105.4609
876.7573, 105.0277
877.2394, 104.9427
877.7216, 105.0808
878.2037, 105.4635
878.6858, 105.6204
879.1679, 105.4442
879.6500, 105.3045
880.1321, 105.7904
880.6143, 106.4969
881.0964, 106.7868
881.5785, 106.4507
882.0606, 106.1393
882.5427, 105.9931
883.0248, 106.0326
883.5070, 106.3462
883.9891, 107.0608
884.4712, 107.2087
884.9533, 106.6964
885.4354, 106.0860
885.9175, 105.6888
886.3997, 105.5510
886.8818, 105.9281
887.3639, 106.7724
887.8460, 107.4459
888.3281, 107.6974
888.8102, 107.5876
889.2924, 106.8167
889.7745, 105.4936
890.2566, 105.2661
890.7387, 106.5710
891.2208, 107.6403
891.7029, 107.5884
892.1851, 106.9037
892.6672, 106.9148
893.1493, 107.4701
893.6314, 107.9110
894.1135, 107.8876
894.5956, 107.6741
895.0778, 107.2249
895.5599, 106.7159
896.0420, 106.6228
896.5241, 107.1685
897.0062, 107.6976
897.4883, 108.1291
897.9705, 108.4572
898.4526, 108.6953
898.9347, 108.8222
899.4168, 108.6846
899.8989, 108.1321
900.3810, 107.6497
900.8632, 107.5888
901.3453, 107.8270
901.8274, 108.2467
902.3095, 109.0977
902.7916, 109.6044
903.2737, 109.7122
903.7559, 109.5510
904.2380, 109.1094
904.7201, 108.4400
905.2022, 108.1334
905.6843, 108.2321
906.1664, 108.4178
906.6486, 108.4694
907.1307, 108.4634
907.6128, 108.4810
908.0949, 108.5347
908.5770, 108.5159
909.0591, 108.3553
909.5413, 108.1982
910.0234, 108.0754
910.5055, 108.0052
910.9876, 108.2225
911.4697, 108.7001
911.9518, 108.9092
912.4340, 108.0583
912.9161, 107.1877
913.3982, 107.6323
913.8803, 108.9329
914.3624, 109.8077
914.8445, 109.7858
915.3267, 109.3949
915.8088, 108.4838
916.2909, 107.4445
916.7730, 107.1308
917.2551, 107.5264
917.7372, 107.9792
918.2194, 108.4313
918.7015, 108.6055
919.1836, 107.8797
919.6657, 106.8142
920.1478, 106.1864
920.6299, 106.3344
921.1121, 106.6018
921.5942, 106.9688
922.0763, 107.3329
922.5584, 107.6077
923.0405, 107.7902
923.5226, 108.0351
924.0048, 108.3605
924.4869, 108.4857
924.9690, 107.9191
925.4511, 107.1912
925.9332, 107.0017
926.4153, 107.3575
926.8975, 107.5219
927.3796, 106.9169
927.8617, 106.5138
928.3438, 106.7186
928.8259, 107.3849
929.3080, 107.7564
929.7902, 107.8387
930.2723, 107.8504
930.7544, 107.9244
931.2365, 107.9325
931.7186, 107.6433
932.2007, 107.1881
932.6829, 106.8363
933.1650, 106.6941
933.6471, 106.6408
934.1292, 106.7548
934.6113, 106.8597
935.0934, 106.5717
935.5756, 105.8977
936.0577, 105.8009
936.5398, 106.4793
937.0219, 107.2979
937.5040, 107.6210
937.9861, 107.7318
938.4683, 107.9858
938.9504, 108.5030
939.4325, 108.8094
939.9146, 108.7014
940.3967, 108.5287
940.8788, 108.4657
941.3610, 108.5039
941.8431, 108.4504
942.3252, 108.3166
942.8073, 108.4401
943.2894, 109.4167
943.7715, 110.4340
944.2537, 110.7045
944.7358, 110.3681
945.2179, 109.9989
945.7000, 109.5471
946.1821, 109.3344
946.6642, 109.4902
947.1464, 109.8486
947.6285, 110.0934
948.1106, 110.2284
948.5927, 110.2327
949.0748, 110.0341
949.5569, 109.9251
950.0391, 110.1786
950.5212, 110.6612
951.0033, 111.2320
951.4854, 111.9412
951.9675, 112.5567
952.4496, 113.0108
952.9318, 113.4822
953.4139, 114.2775
953.8960, 115.2552
954.3781, 115.4524
954.8602, 114.8951
955.3423, 114.3171
955.8245, 114.1803
956.3066, 114.2206
956.7887, 114.2408
957.2708, 114.2609
957.7529, 114.4784
958.2350, 114.9586
958.7172, 115.4974
959.1993, 116.0621
959.6814, 116.6338
960.1635, 117.2265
960.6456, 117.7915
961.1277, 118.1283
961.6099, 118.0102
962.0920, 117.9851
962.5741, 118.3085
963.0562, 118.9263
963.5383, 119.7927
964.0204, 121.0336
964.5026, 122.0948
964.9847, 122.8863
965.4668, 123.7707
965.9489, 125.3222
966.4310, 127.1241
966.9131, 128.3488
967.3953, 128.9593
967.8774, 129.3484
968.3595, 129.0326
968.8416, 129.2275
969.3237, 130.7740
969.8058, 133.3351
970.2880, 135.3643
970.7701, 136.7829
971.2522, 138.5076
971.7343, 141.0349
972.2164, 143.7333
972.6985, 145.6492
973.1807, 147.1154
973.6628, 148.7489
974.1449, 150.7530
974.6270, 152.9737
975.1091, 155.6833
975.5912, 158.3463
976.0734, 160.4279
976.5555, 161.9093
977.0376, 163.6610
977.5197, 165.7476
978.0018, 167.1723
978.4839, 166.9799
978.9661, 165.8281
979.4482, 164.2624
979.9303, 162.3382
980.4124, 160.1777
980.8945, 157.9102
981.3766, 155.1717
981.8588, 151.6504
982.3409, 147.7086
982.8230, 144.1742
983.3051, 141.0942
983.7872, 138.7846
984.2693, 137.6716
984.7515, 136.7444
985.2336, 135.4186
985.7157, 133.8052
986.1978, 131.9942
986.6799, 129.6139
987.1620, 127.9986
987.6442, 127.3370
988.1263, 126.9089
988.6084, 125.9735
989.0905, 124.8002
989.5726, 124.0463
990.0547, 123.7315
990.5369, 123.7014
991.0190, 124.1606
991.5011, 124.5974
991.9832, 124.6451
992.4653, 124.4752
992.9474, 124.7068
993.4296, 125.3625
993.9117, 126.2222
994.3938, 127.2964
994.8759, 128.3775
995.3580, 129.0611
995.8401, 129.5970
996.3223, 130.4116
996.8044, 131.6740
997.2865, 133.1007
997.7686, 134.7127
998.2507, 136.3952
998.7328, 138.0155
999.2150, 139.5767
999.6971, 141.5460
1000.179, 143.8835
1000.661, 146.2405
1001.143, 148.0603
1001.626, 150.0650
1002.108, 153.0203
1002.590, 156.7216
1003.072, 160.1776
1003.554, 163.0390
1004.036, 166.2444
1004.518, 170.0949
1005.000, 174.1035
1005.482, 177.4128
1005.965, 180.1646
1006.447, 182.6575
1006.929, 184.9860
1007.411, 186.9601
1007.893, 188.5274
1008.375, 189.6651
1008.857, 190.3320
1009.339, 190.4942
1009.822, 190.6727
1010.304, 190.8341
1010.786, 191.3578
1011.268, 192.4354
1011.750, 194.0249
1012.232, 196.6277
1012.714, 199.7298
1013.196, 201.8889
1013.678, 202.3230
1014.161, 202.1670
1014.643, 201.5655
1015.125, 200.4969
1015.607, 198.8231
1016.089, 196.6260
1016.571, 194.3255
1017.053, 191.9893
1017.535, 189.6086
1018.018, 187.0496
1018.500, 184.5467
1018.982, 182.1143
1019.464, 179.7570
1019.946, 178.2594
1020.428, 177.6604
1020.910, 177.7979
1021.392, 178.6823
1021.874, 180.1802
1022.357, 182.2828
1022.839, 184.7566
1023.321, 187.0265
1023.803, 188.4288
1024.285, 190.2536
1024.767, 192.8018
1025.249, 195.9232
1025.731, 199.4898
1026.214, 203.5132
1026.696, 207.9866
1027.178, 212.9353
1027.660, 218.0959
1028.142, 223.0246
1028.624, 228.3357
1029.106, 235.1684
1029.588, 243.1700
1030.070, 249.5771
1030.553, 253.8529
1031.035, 257.6972
1031.517, 261.7441
1031.999, 265.1891
1032.481, 266.6913
1032.963, 266.4680
1033.445, 265.1890
1033.927, 263.1817
1034.410, 259.4934
1034.892, 252.7637
1035.374, 244.9397
1035.856, 237.5364
1036.338, 230.5523
1036.820, 222.3087
1037.302, 212.9028
1037.784, 203.9060
1038.266, 196.0204
1038.749, 189.3521
1039.231, 184.8226
1039.713, 181.5978
1040.195, 177.7578
1040.677, 172.0079
1041.159, 167.3303
1041.641, 164.0526
1042.123, 161.6725
1042.605, 159.8469
1043.088, 158.3672
1043.570, 156.4956
1044.052, 154.1568
1044.534, 152.4462
1045.016, 152.6823
1045.498, 152.9698
1045.980, 152.3048
1046.462, 150.8754
1046.945, 149.5434
1047.427, 148.3066
1047.909, 146.8960
1048.391, 145.1290
1048.873, 143.4149
1049.355, 142.3459
1049.837, 141.5243
1050.319, 140.3948
1050.802, 138.6682
1051.284, 137.0384
1051.766, 135.5579
1052.248, 134.1213
1052.730, 132.5706
1053.212, 131.0358
1053.694, 130.0696
1054.176, 129.5418
1054.658, 128.8494
1055.141, 127.3080
1055.623, 126.0029
1056.105, 125.4156
1056.587, 125.2287
1057.069, 124.8968
1057.551, 124.3966
1058.033, 124.8705
1058.515, 126.6269
1058.997, 127.8737
1059.480, 126.1557
1059.962, 123.7808
1060.444, 123.0810
1060.926, 124.2843
1061.408, 124.8324
1061.890, 124.3201
1062.372, 124.0300
1062.854, 124.4474
1063.337, 125.2503
1063.819, 125.9240
1064.301, 126.4844
1064.783, 126.9464
1065.265, 127.2672
1065.747, 127.6104
1066.229, 128.1678
1066.711, 128.6252
1067.193, 128.6765
1067.676, 128.3612
1068.158, 128.5436
1068.640, 129.1996
1069.122, 129.9458
1069.604, 130.7091
1070.086, 131.3293
1070.568, 131.4698
1071.050, 131.4581
1071.532, 132.0259
1072.015, 133.3840
1072.497, 134.6125
1072.979, 135.6016
1073.461, 136.5937
1073.943, 137.9300
1074.425, 139.3885
1074.907, 140.5143
1075.389, 141.3029
1075.872, 142.6778
1076.354, 145.3711
1076.836, 147.9464
1077.318, 149.9798
1077.800, 151.6698
1078.282, 153.3636
1078.764, 155.1494
1079.246, 157.4041
1079.729, 160.3292
1080.211, 163.4313
1080.693, 166.3540
1081.175, 169.4559
1081.657, 172.9849
1082.139, 176.9505
1082.621, 180.4421
1083.103, 183.4622
1083.585, 187.5247
1084.068, 194.2393
1084.550, 201.5565
1085.032, 206.9779
1085.514, 211.6949
1085.996, 217.7565
1086.478, 225.7608
1086.960, 234.3573
1087.442, 243.6362
1087.924, 253.0898
1088.406, 261.6848
1088.889, 270.3484
1089.371, 281.2664
1089.853, 294.2355
1090.335, 307.3358
1090.817, 319.2645
1091.299, 332.0452
1091.781, 346.0685
1092.263, 361.2787
1092.746, 377.4756
1093.228, 394.6374
1093.710, 412.3918
1094.192, 430.6831
1094.674, 449.4899
1095.156, 469.3344
1095.638, 489.2878
1096.120, 508.9268
1096.603, 528.0299
1097.085, 545.6487
1097.567, 561.7875
1098.049, 576.3889
1098.531, 590.3763
1099.013, 600.8380
1099.495, 603.8545
1099.977, 602.0963
1100.459, 599.1683
1100.942, 596.6871
1101.424, 589.3362
1101.906, 576.4669
1102.388, 560.7226
1102.870, 542.4587
1103.352, 523.0348
1103.834, 504.6063
1104.316, 487.0544
1104.798, 470.5825
1105.281, 455.3094
1105.763, 440.7735
1106.245, 426.5459
1106.727, 413.5827
1107.209, 403.8033
1107.691, 396.4449
1108.173, 388.6767
1108.655, 380.3724
1109.138, 373.2142
1109.620, 368.5098
1110.102, 364.7014
1110.584, 360.8846
1111.066, 357.4630
1111.548, 355.5251
1112.030, 355.0230
1112.512, 354.3256
1112.995, 353.1573
1113.477, 351.5565
1113.959, 349.3088
1114.441, 346.8256
1114.923, 344.5760
1115.405, 342.5412
1115.887, 339.9363
1116.369, 336.8212
1116.851, 332.6772
1117.333, 327.3712
1117.816, 320.8460
1118.298, 312.4403
1118.780, 303.0139
1119.262, 293.8424
1119.744, 285.4359
1120.226, 276.4375
1120.708, 266.5586
1121.190, 256.7516
1121.673, 247.3790
1122.155, 238.5016
1122.637, 229.9091
1123.119, 221.6735
1123.601, 213.9946
1124.083, 206.9383
1124.565, 200.5206
1125.047, 194.8293
1125.530, 189.5512
1126.012, 184.2583
1126.494, 179.0477
1126.976, 174.6100
1127.458, 170.8782
1127.940, 167.1219
1128.422, 162.5781
1128.904, 158.2937
1129.386, 154.5936
1129.869, 151.5076
1130.351, 149.3094
1130.833, 147.9827
1131.315, 146.6633
1131.797, 145.2544
1132.279, 143.6875
1132.761, 141.6668
1133.243, 139.6815
1133.725, 138.1968
1134.208, 137.1041
1134.690, 135.6389
1135.172, 133.6665
1135.654, 132.4329
1136.136, 132.4159
1136.618, 132.4843
1137.100, 131.1918
1137.582, 129.4261
1138.065, 128.1299
1138.547, 127.4989
1139.029, 127.0238
1139.511, 126.7444
1139.993, 126.4756
1140.475, 126.1737
1140.957, 125.7963
1141.439, 125.1660
1141.922, 124.4441
1142.404, 123.8906
1142.886, 123.5829
1143.368, 123.4497
1143.850, 123.5169
1144.332, 123.6716
1144.814, 123.9431
1145.296, 124.1987
1145.778, 123.9473
1146.260, 123.3823
1146.743, 123.0624
1147.225, 123.3810
1147.707, 123.7506
1148.189, 124.1477
1148.671, 124.4729
1149.153, 124.5639
1149.635, 124.4989
1150.117, 124.6663
1150.600, 125.0580
1151.082, 125.5349
1151.564, 126.4473
1152.046, 126.9087
1152.528, 126.3540
1153.010, 125.3834
1153.492, 124.8390
1153.974, 124.6611
1154.457, 124.1247
1154.939, 123.1745
1155.421, 122.0188
1155.903, 120.5060
1156.385, 119.1200
1156.867, 118.2447
1157.349, 117.6837
1157.831, 116.9803
1158.313, 116.1250
1158.796, 115.6816
1159.278, 115.8083
1159.760, 115.7793
1160.242, 114.7474
1160.724, 113.4949
1161.206, 112.5789
1161.688, 112.0208
1162.170, 111.9152
1162.652, 112.3462
1163.135, 112.2937
1163.617, 111.3770
1164.099, 110.2029
1164.581, 109.0638
1165.063, 108.2110
1165.545, 108.0218
1166.027, 108.5990
1166.509, 109.0335
1166.992, 109.3276
1167.474, 109.4942
1167.956, 109.6047
1168.438, 109.4690
1168.920, 108.6234
1169.402, 107.4680
1169.884, 106.5288
1170.366, 105.8684
1170.849, 105.6848
1171.331, 106.1128
1171.813, 106.5471
1172.295, 106.6000
1172.777, 106.5015
1173.259, 106.7031
1173.741, 107.0244
1174.223, 107.1010
1174.705, 106.6468
1175.188, 106.2763
1175.670, 106.0356
1176.152, 105.7725
1176.634, 105.3733
1177.116, 104.8682
1177.598, 104.1154
1178.080, 103.2889
1178.562, 102.9005
1179.044, 103.5874
1179.527, 103.9899
1180.009, 103.8843
1180.491, 103.7260
1180.973, 104.0136
1181.455, 104.5600
1181.937, 104.9755
1182.419, 105.2450
1182.901, 105.3888
1183.384, 104.8798
1183.866, 105.1538
1184.348, 106.9626
1184.830, 108.7055
1185.312, 107.8692
1185.794, 105.4776
1186.276, 104.0763
1186.758, 103.8415
1187.240, 104.4228
1187.723, 106.8424
1188.205, 108.4997
1188.687, 108.7250
1189.169, 107.9779
1189.651, 106.6755
1190.133, 105.0527
1190.615, 103.8356
1191.097, 103.1161
1191.579, 102.7926
1192.062, 103.2990
1192.544, 103.5727
1193.026, 103.1305
1193.508, 102.3950
1193.990, 102.3548
1194.472, 102.8205
1194.954, 103.1790
1195.436, 103.3401
1195.919, 103.2056
1196.401, 102.1912
1196.883, 101.5398
1197.365, 101.9597
1197.847, 102.9515
1198.329, 102.9429
1198.811, 102.2069
1199.293, 101.8601
1199.776, 102.2889
1200.258, 102.5921
1200.740, 102.1192
1201.222, 101.6681
1201.704, 101.7094
1202.186, 102.0572
1202.668, 101.9297
1203.150, 101.4385
1203.632, 101.0029
1204.115, 100.6968
1204.597, 100.6362
1205.079, 101.0772
1205.561, 101.5904
1206.043, 101.9002
1206.525, 102.0712
1207.007, 102.5739
1207.489, 103.2633
1207.971, 103.4808
1208.454, 102.7721
1208.936, 101.9454
1209.418, 101.0408
1209.900, 100.4438
1210.382, 100.5143
1210.864, 101.1401
1211.346, 101.6493
1211.828, 102.0203
1212.311, 102.1163
1212.793, 101.5865
1213.275, 101.2204
1213.757, 101.5552
1214.239, 101.9209
1214.721, 101.7528
1215.203, 101.1452
1215.685, 100.8163
1216.167, 100.7306
1216.650, 100.6875
1217.132, 100.7408
1217.614, 100.6049
1218.096, 99.82948
1218.578, 99.21200
1219.060, 99.65709
1219.542, 100.9560
1220.024, 101.7504
1220.506, 102.0459
1220.989, 102.0411
1221.471, 101.4802
1221.953, 101.1076
1222.435, 101.2428
1222.917, 101.5155
1223.399, 101.6007
1223.881, 101.4986
1224.363, 101.0537
1224.846, 100.3576
1225.328, 99.98962
1225.810, 100.6425
1226.292, 101.1008
1226.774, 100.9695
1227.256, 100.6695
1227.738, 100.6801
1228.220, 100.9398
1228.703, 101.2975
1229.185, 101.7126
1229.667, 101.9867
1230.149, 101.9286
1230.631, 101.8436
1231.113, 101.7865
1231.595, 101.7554
1232.077, 101.8048
1232.559, 101.8658
1233.042, 101.6955
1233.524, 101.3102
1234.006, 100.9755
1234.488, 100.7031
1234.970, 100.6600
1235.452, 100.9265
1235.934, 101.3340
1236.416, 101.7511
1236.898, 102.1045
1237.381, 102.1828
1237.863, 101.9945
1238.345, 101.7861
1238.827, 101.6609
1239.309, 101.4905
1239.791, 101.2552
1240.273, 100.9656
1240.755, 100.5201
1241.238, 100.0755
1241.720, 99.92443
1242.202, 100.0840
1242.684, 100.4339
1243.166, 101.1463
1243.648, 101.5992
1244.130, 101.5994
1244.612, 101.5160
1245.094, 102.1291
1245.577, 102.8175
1246.059, 102.4227
1246.541, 100.9473
1247.023, 100.0378
1247.505, 99.87804
1247.987, 100.1735
1248.469, 100.9623
1248.951, 101.8263
1249.433, 102.4305
1249.916, 102.6686
1250.398, 102.1077
1250.880, 100.8401
1251.362, 100.6023
1251.844, 101.7635
1252.326, 102.4954
1252.808, 102.3544
1253.290, 101.8562
1253.773, 101.1341
1254.255, 100.6603
1254.737, 101.2088
1255.219, 102.6283
1255.701, 103.1003
1256.183, 102.5290
1256.665, 101.7477
1257.147, 100.8583
1257.630, 100.3047
1258.112, 100.8797
1258.594, 101.6568
1259.076, 101.8132
1259.558, 101.4655
1260.040, 101.1260
1260.522, 100.7985
1261.004, 100.6687
1261.486, 100.8180
1261.969, 100.8868
1262.451, 100.3373
1262.933, 99.88136
1263.415, 100.0883
1263.897, 100.7254
1264.379, 101.0779
1264.861, 101.1555
1265.343, 100.9126
1265.825, 100.2717
1266.308, 99.88365
1266.790, 100.6078
1267.272, 101.1181
1267.754, 100.6178
1268.236, 99.60897
1268.718, 99.38544
1269.200, 99.79380
1269.682, 100.3392
1270.165, 100.9525
1270.647, 101.4445
1271.129, 101.8489
1271.611, 101.9327
1272.093, 101.5446
1272.575, 100.8971
1273.057, 100.2366
1273.539, 99.68812
1274.021, 99.63091
1274.504, 100.1780
1274.986, 100.5398
1275.468, 100.5702
1275.950, 100.3821
1276.432, 99.89523
1276.914, 99.44921
1277.396, 99.65353
1277.878, 100.2058
1278.360, 100.7545
1278.843, 101.2500
1279.325, 101.2159
1279.807, 100.4703
1280.289, 99.86630
1280.771, 99.66651
1281.253, 99.59007
1281.735, 99.10765
1282.217, 98.69199
1282.700, 99.02307
1283.182, 100.0717
1283.664, 100.6099
1284.146, 100.5986
1284.628, 100.4705
1285.110, 100.2835
1285.592, 100.2412
1286.074, 100.7739
1286.557, 101.2979
1287.039, 101.4094
1287.521, 101.1195
1288.003, 100.1132
1288.485, 98.52258
1288.967, 98.11158
1289.449, 99.40620
1289.931, 100.6581
1290.413, 100.7176
1290.896, 100.5136
1291.378, 100.5154
1291.860, 100.6019
1292.342, 100.3583
1292.824, 99.93700
1293.306, 99.96507
1293.788, 100.5924
1294.270, 100.9559
1294.752, 100.5820
1295.235, 99.97869
1295.717, 99.08190
1296.199, 98.35932
1296.681, 98.95943
1297.163, 100.1813
1297.645, 100.7173
1298.127, 100.4008
1298.609, 100.1060
1299.092, 99.88012
1299.574, 99.88128
1300.056, 100.2040
1300.538, 100.5760
1301.020, 100.7456
1301.502, 100.7320
1301.984, 100.4689
1302.466, 99.99765
1302.948, 99.71680
1303.431, 99.62385
1303.913, 99.77705
1304.395, 100.2015
1304.877, 100.8351
##END=



