##NAMES=Albite
##RRUFFID=R040129
##IDEAL CHEMISTRY=NaAlSi_3_O_8_
##LOCALITY=LaChance Quarry, Brunswick, Cumberland County, Maine, USA
##OWNER=RRUFF
##SOURCE=Bob Downs
##DESCRIPTION=Colorless fragment of a tabular single crystal
##STATUS=The identification of this mineral has been confirmed by X-ray diffraction and chemical analysis
##URL=rruff.info/R040129
##MEASURED CHEMISTRY=(Na_0.99_K_0.01_)Al_1.00_Si_3.00_O_8_
130.3772, 857.9589
130.8593, 911.2295
131.3414, 962.5072
131.8235, 1018.420
132.3056, 1078.751
132.7877, 1142.310
133.2699, 1205.990
133.7520, 1269.830
134.2341, 1340.041
134.7162, 1421.351
135.1983, 1514.111
135.6804, 1603.129
136.1626, 1685.232
136.6447, 1766.494
137.1268, 1859.438
137.6089, 1965.784
138.0910, 2075.377
138.5731, 2177.318
139.0553, 2267.440
139.5374, 2376.003
140.0195, 2509.127
140.5016, 2661.173
140.9837, 2802.499
141.4658, 2923.996
141.9480, 3051.283
142.4301, 3202.868
142.9122, 3391.870
143.3943, 3577.010
143.8764, 3757.750
144.3585, 3932.397
144.8407, 4093.698
145.3228, 4240.641
145.8049, 4373.862
146.2870, 4491.968
146.7691, 4584.885
147.2512, 4673.866
147.7334, 4758.616
148.2155, 4836.366
148.6976, 4926.399
149.1797, 5049.646
149.6618, 5179.397
150.1439, 5279.420
150.6261, 5345.881
151.1082, 5384.896
151.5903, 5391.608
152.0724, 5345.523
152.5545, 5313.545
153.0366, 5286.998
153.5188, 5278.379
154.0009, 5312.095
154.4830, 5411.585
154.9651, 5539.653
155.4472, 5680.385
155.9293, 5824.563
156.4115, 5991.080
156.8936, 6193.592
157.3757, 6424.370
157.8578, 6659.250
158.3399, 6913.616
158.8221, 7156.586
159.3042, 7370.680
159.7863, 7554.694
160.2684, 7706.028
160.7505, 7838.666
161.2326, 7947.872
161.7148, 7986.340
162.1969, 7911.463
162.6790, 7764.680
163.1611, 7587.523
163.6432, 7367.721
164.1253, 7140.334
164.6075, 6911.391
165.0896, 6680.666
165.5717, 6483.598
166.0538, 6327.275
166.5359, 6219.560
167.0180, 6170.311
167.5002, 6202.882
167.9823, 6282.466
168.4644, 6392.863
168.9465, 6537.234
169.4286, 6682.219
169.9107, 6820.620
170.3929, 6941.820
170.8750, 7026.989
171.3571, 7043.937
171.8392, 7028.598
172.3213, 7013.200
172.8034, 6996.884
173.2856, 6997.117
173.7677, 7026.458
174.2498, 7085.244
174.7319, 7173.526
175.2140, 7299.473
175.6961, 7452.819
176.1783, 7618.569
176.6604, 7792.955
177.1425, 7977.344
177.6246, 8174.705
178.1067, 8382.766
178.5888, 8600.387
179.0710, 8825.772
179.5531, 9056.831
180.0352, 9288.252
180.5173, 9525.596
180.9994, 9753.182
181.4815, 9936.781
181.9637, 10078.69
182.4458, 10200.24
182.9279, 10339.00
183.4100, 10478.75
183.8921, 10562.69
184.3742, 10580.19
184.8564, 10529.23
185.3385, 10395.69
185.8206, 10175.75
186.3027, 9905.810
186.7848, 9618.152
187.2669, 9311.292
187.7491, 8964.855
188.2312, 8552.576
188.7133, 8096.167
189.1954, 7658.432
189.6775, 7238.816
190.1596, 6853.254
190.6418, 6520.893
191.1239, 6242.682
191.6060, 5991.095
192.0881, 5749.469
192.5702, 5521.398
193.0524, 5341.803
193.5345, 5215.920
194.0166, 5125.646
194.4987, 5046.716
194.9808, 4978.588
195.4629, 4929.920
195.9451, 4913.086
196.4272, 4927.091
196.9093, 4927.621
197.3914, 4904.849
197.8735, 4881.864
198.3556, 4906.830
198.8378, 4985.086
199.3199, 5076.015
199.8020, 5148.372
200.2841, 5197.242
200.7662, 5294.729
201.2483, 5454.806
201.7305, 5656.723
202.2126, 5847.312
202.6947, 6020.294
203.1768, 6205.406
203.6589, 6427.694
204.1410, 6691.700
204.6232, 6947.933
205.1053, 7196.028
205.5874, 7431.767
206.0695, 7643.610
206.5516, 7834.562
207.0337, 7993.709
207.5159, 8130.890
207.9980, 8263.298
208.4801, 8280.729
208.9622, 8162.983
209.4443, 7919.973
209.9264, 7590.232
210.4086, 7154.716
210.8907, 6668.586
211.3728, 6168.476
211.8549, 5635.877
212.3370, 5136.529
212.8191, 4669.479
213.3013, 4241.010
213.7834, 3872.299
214.2655, 3572.341
214.7476, 3316.702
215.2297, 3089.303
215.7118, 2889.339
216.1940, 2713.984
216.6761, 2564.222
217.1582, 2439.057
217.6403, 2334.975
218.1224, 2260.845
218.6045, 2197.513
219.0867, 2124.657
219.5688, 2033.143
220.0509, 1955.243
220.5330, 1901.433
221.0151, 1871.488
221.4972, 1842.978
221.9794, 1817.774
222.4615, 1791.652
222.9436, 1757.990
223.4257, 1709.009
223.9078, 1668.369
224.3899, 1643.972
224.8721, 1637.015
225.3542, 1625.474
225.8363, 1604.307
226.3184, 1583.231
226.8005, 1575.375
227.2827, 1591.073
227.7648, 1600.132
228.2469, 1592.474
228.7290, 1564.938
229.2111, 1545.711
229.6932, 1537.662
230.1754, 1535.814
230.6575, 1533.841
231.1396, 1531.510
231.6217, 1529.479
232.1038, 1527.813
232.5859, 1526.395
233.0681, 1525.729
233.5502, 1524.471
234.0323, 1524.905
234.5144, 1530.534
234.9965, 1542.669
235.4786, 1557.827
235.9608, 1575.731
236.4429, 1597.031
236.9250, 1616.974
237.4071, 1635.149
237.8892, 1652.075
238.3713, 1667.472
238.8535, 1675.963
239.3356, 1692.055
239.8177, 1722.416
240.2998, 1772.524
240.7819, 1815.766
241.2640, 1849.310
241.7462, 1878.332
242.2283, 1911.446
242.7104, 1947.546
243.1925, 1989.611
243.6746, 2039.486
244.1567, 2099.759
244.6389, 2159.616
245.1210, 2217.076
245.6031, 2275.123
246.0852, 2337.704
246.5673, 2401.594
247.0494, 2475.745
247.5316, 2567.313
248.0137, 2686.945
248.4958, 2787.990
248.9779, 2865.596
249.4600, 2926.768
249.9421, 2984.757
250.4243, 3049.895
250.9064, 3094.320
251.3885, 3108.367
251.8706, 3090.655
252.3527, 3044.861
252.8348, 2964.588
253.3170, 2860.564
253.7991, 2749.710
254.2812, 2623.911
254.7633, 2508.926
255.2454, 2412.437
255.7275, 2333.594
256.2097, 2280.990
256.6918, 2261.927
257.1739, 2264.637
257.6560, 2266.877
258.1381, 2264.520
258.6202, 2270.303
259.1024, 2289.768
259.5845, 2324.750
260.0666, 2364.787
260.5487, 2409.416
261.0308, 2459.402
261.5129, 2519.842
261.9951, 2594.471
262.4772, 2669.377
262.9593, 2737.147
263.4414, 2795.647
263.9235, 2859.363
264.4056, 2927.885
264.8878, 3002.839
265.3699, 3091.753
265.8520, 3202.213
266.3341, 3307.183
266.8162, 3397.452
267.2983, 3471.054
267.7805, 3538.729
268.2626, 3603.158
268.7447, 3657.930
269.2268, 3689.322
269.7089, 3692.390
270.1910, 3689.733
270.6732, 3689.211
271.1553, 3691.058
271.6374, 3689.183
272.1195, 3676.036
272.6016, 3670.280
273.0837, 3703.108
273.5659, 3778.042
274.0480, 3873.128
274.5301, 3978.517
275.0122, 4093.175
275.4943, 4241.020
275.9764, 4426.985
276.4586, 4636.863
276.9407, 4849.273
277.4228, 5059.721
277.9049, 5287.234
278.3870, 5535.316
278.8691, 5804.136
279.3513, 6093.261
279.8334, 6397.485
280.3155, 6735.424
280.7976, 7144.453
281.2798, 7623.499
281.7619, 8115.098
282.2440, 8587.939
282.7261, 9049.878
283.2082, 9566.892
283.6903, 10146.27
284.1725, 10753.90
284.6546, 11354.04
285.1367, 11941.99
285.6188, 12530.31
286.1009, 13129.00
286.5830, 13731.56
287.0652, 14327.72
287.5473, 14920.18
288.0294, 15457.91
288.5115, 15919.00
288.9936, 16293.59
289.4757, 16492.19
289.9579, 16500.17
290.4400, 16309.73
290.9221, 15878.96
291.4042, 15201.96
291.8863, 14357.87
292.3684, 13353.76
292.8506, 12227.69
293.3327, 11127.66
293.8148, 10070.30
294.2969, 9077.529
294.7790, 8160.963
295.2611, 7317.289
295.7433, 6575.735
296.2254, 5970.399
296.7075, 5476.826
297.1896, 5048.514
297.6717, 4671.551
298.1538, 4340.412
298.6360, 4058.181
299.1181, 3820.988
299.6002, 3613.598
300.0823, 3423.622
300.5644, 3252.889
301.0465, 3104.103
301.5287, 2983.253
302.0108, 2878.063
302.4929, 2775.658
302.9750, 2676.838
303.4571, 2591.995
303.9392, 2532.136
304.4214, 2488.490
304.9035, 2447.666
305.3856, 2405.571
305.8677, 2368.600
306.3498, 2348.008
306.8319, 2339.441
307.3141, 2327.032
307.7962, 2293.951
308.2783, 2256.212
308.7604, 2230.297
309.2425, 2224.488
309.7246, 2221.174
310.2068, 2205.981
310.6889, 2184.079
311.1710, 2168.697
311.6531, 2171.560
312.1352, 2180.101
312.6173, 2183.936
313.0995, 2178.151
313.5816, 2177.058
314.0637, 2189.641
314.5458, 2211.475
315.0279, 2234.258
315.5100, 2250.452
315.9922, 2270.045
316.4743, 2298.035
316.9564, 2335.198
317.4385, 2379.950
317.9206, 2433.007
318.4027, 2493.061
318.8849, 2558.286
319.3670, 2622.459
319.8491, 2696.763
320.3312, 2787.155
320.8133, 2896.457
321.2954, 3009.308
321.7776, 3123.878
322.2597, 3240.853
322.7418, 3360.966
323.2239, 3478.762
323.7060, 3605.255
324.1881, 3745.864
324.6703, 3901.955
325.1524, 4056.777
325.6345, 4211.142
326.1166, 4361.015
326.5987, 4505.131
327.0808, 4688.412
327.5630, 4813.410
328.0451, 4876.909
328.5272, 4877.873
329.0093, 4790.164
329.4914, 4580.808
329.9735, 4315.574
330.4557, 4032.322
330.9378, 3700.635
331.4199, 3402.994
331.9020, 3145.867
332.3841, 2926.480
332.8662, 2730.529
333.3484, 2557.541
333.8305, 2411.617
334.3126, 2297.147
334.7947, 2224.692
335.2768, 2153.896
335.7589, 2079.532
336.2411, 2007.700
336.7232, 1952.397
337.2053, 1916.291
337.6874, 1890.161
338.1695, 1870.630
338.6516, 1858.295
339.1338, 1848.763
339.6159, 1841.964
340.0980, 1838.102
340.5801, 1839.590
341.0622, 1847.382
341.5443, 1851.713
342.0265, 1846.994
342.5086, 1834.385
342.9907, 1823.866
343.4728, 1815.390
343.9549, 1809.550
344.4370, 1807.178
344.9192, 1808.224
345.4013, 1812.621
345.8834, 1823.209
346.3655, 1836.315
346.8476, 1841.915
347.3297, 1839.934
347.8119, 1832.903
348.2940, 1822.487
348.7761, 1808.767
349.2582, 1792.499
349.7403, 1774.371
350.2225, 1752.913
350.7046, 1722.441
351.1867, 1684.201
351.6688, 1649.948
352.1509, 1630.825
352.6331, 1620.314
353.1152, 1608.628
353.5973, 1593.002
354.0794, 1576.807
354.5615, 1561.701
355.0436, 1548.210
355.5258, 1537.936
356.0079, 1534.878
356.4900, 1533.692
356.9721, 1529.131
357.4542, 1519.101
357.9363, 1510.080
358.4185, 1507.470
358.9006, 1508.143
359.3827, 1506.683
359.8648, 1497.603
360.3469, 1488.524
360.8290, 1484.092
361.3112, 1485.428
361.7933, 1485.942
362.2754, 1482.215
362.7575, 1477.075
363.2396, 1473.582
363.7217, 1474.214
364.2039, 1474.819
364.6860, 1473.678
365.1681, 1470.737
365.6502, 1469.814
366.1323, 1473.229
366.6144, 1477.638
367.0966, 1480.791
367.5787, 1486.488
368.0608, 1485.994
368.5429, 1474.379
369.0250, 1454.700
369.5071, 1442.803
369.9893, 1440.698
370.4714, 1443.996
370.9535, 1451.618
371.4356, 1467.616
371.9177, 1478.455
372.3998, 1482.969
372.8820, 1482.743
373.3641, 1480.926
373.8462, 1477.134
374.3283, 1472.684
374.8104, 1466.522
375.2925, 1457.772
375.7747, 1458.488
376.2568, 1471.382
376.7389, 1488.371
377.2210, 1499.002
377.7031, 1503.061
378.1852, 1503.532
378.6674, 1499.205
379.1495, 1492.139
379.6316, 1491.419
380.1137, 1497.402
380.5958, 1506.562
381.0779, 1517.226
381.5601, 1528.847
382.0422, 1537.584
382.5243, 1541.511
383.0064, 1543.809
383.4885, 1549.690
383.9706, 1558.927
384.4528, 1569.403
384.9349, 1577.586
385.4170, 1586.674
385.8991, 1603.822
386.3812, 1632.814
386.8633, 1661.560
387.3455, 1676.948
387.8276, 1683.364
388.3097, 1691.091
388.7918, 1699.756
389.2739, 1715.300
389.7560, 1744.668
390.2382, 1789.311
390.7203, 1836.598
391.2024, 1873.846
391.6845, 1911.764
392.1666, 1963.284
392.6487, 2057.383
393.1309, 2142.468
393.6130, 2192.522
394.0951, 2210.396
394.5772, 2229.321
395.0593, 2251.139
395.5414, 2280.881
396.0236, 2321.555
396.5057, 2383.010
396.9878, 2444.458
397.4699, 2511.930
397.9520, 2578.857
398.4341, 2623.982
398.9163, 2631.611
399.3984, 2633.614
399.8805, 2641.373
400.3626, 2657.994
400.8447, 2670.912
401.3268, 2677.896
401.8090, 2682.813
402.2911, 2688.977
402.7732, 2690.910
403.2553, 2708.659
403.7374, 2751.130
404.2195, 2816.856
404.7017, 2878.866
405.1838, 2936.087
405.6659, 2993.184
406.1480, 3063.426
406.6301, 3147.865
407.1122, 3200.443
407.5944, 3212.112
408.0765, 3187.849
408.5586, 3132.507
409.0407, 3046.349
409.5228, 2951.110
410.0049, 2850.393
410.4871, 2752.341
410.9692, 2678.820
411.4513, 2632.750
411.9334, 2608.067
412.4155, 2600.984
412.8976, 2609.737
413.3798, 2628.924
413.8619, 2662.583
414.3440, 2701.771
414.8261, 2746.611
415.3082, 2796.749
415.7903, 2822.534
416.2725, 2807.595
416.7546, 2756.925
417.2367, 2674.263
417.7188, 2535.142
418.2009, 2394.420
418.6830, 2273.270
419.1652, 2170.193
419.6473, 2084.481
420.1294, 2019.908
420.6115, 1968.693
421.0937, 1926.952
421.5758, 1899.536
422.0579, 1871.949
422.5400, 1837.912
423.0221, 1803.427
423.5042, 1777.692
423.9864, 1764.756
424.4685, 1756.653
424.9506, 1753.457
425.4327, 1755.934
425.9148, 1753.383
426.3969, 1741.875
426.8791, 1729.818
427.3612, 1724.794
427.8433, 1728.546
428.3254, 1734.167
428.8075, 1741.819
429.2896, 1750.278
429.7718, 1754.771
430.2539, 1754.696
430.7360, 1753.959
431.2181, 1752.936
431.7002, 1752.083
432.1823, 1759.647
432.6645, 1777.783
433.1466, 1798.571
433.6287, 1810.099
434.1108, 1814.049
434.5929, 1818.763
435.0750, 1826.710
435.5572, 1837.930
436.0393, 1854.030
436.5214, 1874.768
437.0035, 1895.086
437.4856, 1909.542
437.9677, 1921.374
438.4499, 1934.307
438.9320, 1946.690
439.4141, 1964.824
439.8962, 1994.279
440.3783, 2032.974
440.8604, 2076.435
441.3426, 2121.978
441.8247, 2171.686
442.3068, 2227.447
442.7889, 2290.480
443.2710, 2354.619
443.7531, 2415.380
444.2353, 2477.366
444.7174, 2546.738
445.1995, 2622.805
445.6816, 2707.039
446.1637, 2802.119
446.6458, 2906.382
447.1280, 3012.793
447.6101, 3126.219
448.0922, 3236.851
448.5743, 3335.418
449.0564, 3410.985
449.5385, 3508.416
450.0207, 3637.229
450.5028, 3780.313
450.9849, 3903.006
451.4670, 3999.929
451.9491, 4098.261
452.4312, 4210.909
452.9134, 4334.815
453.3955, 4449.027
453.8776, 4552.306
454.3597, 4651.998
454.8418, 4771.343
455.3239, 4897.387
455.8061, 4970.721
456.2882, 4974.300
456.7703, 4926.370
457.2524, 4841.478
457.7345, 4724.721
458.2166, 4594.250
458.6988, 4442.851
459.1809, 4293.452
459.6630, 4164.011
460.1451, 4050.861
460.6272, 3989.621
461.1093, 4038.757
461.5915, 4141.879
462.0736, 4228.170
462.5557, 4222.150
463.0378, 4246.347
463.5199, 4346.064
464.0020, 4516.743
464.4842, 4724.053
464.9663, 4963.941
465.4484, 5235.169
465.9305, 5539.060
466.4126, 5890.682
466.8947, 6254.132
467.3769, 6622.938
467.8590, 7004.696
468.3411, 7417.692
468.8232, 7863.833
469.3053, 8335.592
469.7874, 8839.715
470.2696, 9374.348
470.7517, 9904.350
471.2338, 10425.09
471.7159, 10950.83
472.1980, 11486.34
472.6801, 12033.93
473.1623, 12589.48
473.6444, 13153.64
474.1265, 13731.22
474.6086, 14342.85
475.0907, 14982.06
475.5728, 15606.91
476.0550, 16241.21
476.5371, 16833.14
477.0192, 17327.57
477.5013, 17727.25
477.9834, 17922.52
478.4655, 17830.97
478.9477, 17481.90
479.4298, 16912.32
479.9119, 16064.68
480.3940, 15078.21
480.8761, 13951.18
481.3582, 12735.97
481.8404, 11596.90
482.3225, 10568.12
482.8046, 9644.630
483.2867, 8814.000
483.7688, 8071.466
484.2509, 7436.179
484.7331, 6932.415
485.2152, 6528.445
485.6973, 6187.442
486.1794, 5913.030
486.6615, 5695.978
487.1436, 5539.597
487.6258, 5438.561
488.1079, 5366.044
488.5900, 5318.136
489.0721, 5311.442
489.5542, 5353.661
490.0363, 5444.733
490.5185, 5586.597
491.0006, 5780.622
491.4827, 6017.270
491.9648, 6270.162
492.4470, 6547.344
492.9291, 6892.757
493.4112, 7322.546
493.8933, 7820.048
494.3754, 8349.310
494.8575, 8916.420
495.3397, 9527.438
495.8218, 10198.21
496.3039, 10920.42
496.7860, 11675.56
497.2681, 12470.82
497.7502, 13303.30
498.2324, 14205.02
498.7145, 15138.39
499.1966, 16069.90
499.6787, 16964.46
500.1608, 17871.05
500.6429, 18808.18
501.1251, 19774.45
501.6072, 20737.77
502.0893, 21689.41
502.5714, 22656.06
503.0535, 23656.52
503.5356, 24712.54
504.0178, 25760.62
504.4999, 26869.71
504.9820, 27897.66
505.4641, 28686.07
505.9462, 29260.56
506.4283, 29460.01
506.9105, 29234.25
507.3926, 28594.85
507.8747, 27536.00
508.3568, 26041.51
508.8389, 24325.75
509.3210, 22395.79
509.8032, 20343.99
510.2853, 18381.99
510.7674, 16521.80
511.2495, 14814.02
511.7316, 13314.32
512.2137, 11999.96
512.6959, 10846.60
513.1780, 9848.456
513.6601, 8988.183
514.1422, 8283.609
514.6243, 7721.586
515.1064, 7215.744
515.5886, 6736.449
516.0707, 6298.274
516.5528, 5915.903
517.0349, 5596.574
517.5170, 5314.030
517.9991, 5083.146
518.4813, 4883.124
518.9634, 4689.557
519.4455, 4495.062
519.9276, 4319.774
520.4097, 4167.454
520.8918, 4039.204
521.3740, 3927.713
521.8561, 3836.385
522.3382, 3750.550
522.8203, 3658.435
523.3024, 3561.708
523.7845, 3476.793
524.2667, 3405.210
524.7488, 3341.455
525.2309, 3277.253
525.7130, 3213.177
526.1951, 3152.368
526.6772, 3093.421
527.1594, 3039.667
527.6415, 2997.058
528.1236, 2964.285
528.6057, 2934.601
529.0878, 2912.288
529.5699, 2886.601
530.0521, 2846.440
530.5342, 2785.052
531.0163, 2732.051
531.4984, 2700.907
531.9805, 2680.711
532.4626, 2659.672
532.9448, 2637.001
533.4269, 2612.454
533.9090, 2584.507
534.3911, 2554.503
534.8732, 2528.836
535.3553, 2508.309
535.8375, 2490.173
536.3196, 2475.195
536.8017, 2463.679
537.2838, 2443.027
537.7659, 2410.409
538.2480, 2377.347
538.7302, 2356.693
539.2123, 2346.969
539.6944, 2340.010
540.1765, 2335.701
540.6586, 2330.320
541.1407, 2316.088
541.6229, 2295.515
542.1050, 2277.416
542.5871, 2266.384
543.0692, 2260.009
543.5513, 2258.786
544.0334, 2262.618
544.5156, 2262.367
544.9977, 2252.318
545.4798, 2237.245
545.9619, 2220.610
546.4440, 2198.361
546.9261, 2181.575
547.4083, 2174.858
547.8904, 2173.959
548.3725, 2171.689
548.8546, 2169.908
549.3367, 2163.213
549.8188, 2146.672
550.3010, 2122.142
550.7831, 2113.185
551.2652, 2123.287
551.7473, 2137.369
552.2294, 2147.058
552.7115, 2152.133
553.1937, 2146.814
553.6758, 2128.063
554.1579, 2109.658
554.6400, 2114.235
555.1221, 2133.617
555.6042, 2143.586
556.0864, 2124.095
556.5685, 2103.157
557.0506, 2117.241
557.5327, 2155.564
558.0148, 2177.715
558.4969, 2146.033
558.9791, 2105.584
559.4612, 2083.416
559.9433, 2084.643
560.4254, 2092.494
560.9075, 2112.365
561.3896, 2132.840
561.8718, 2143.552
562.3539, 2133.106
562.8360, 2132.927
563.3181, 2150.092
563.8002, 2176.591
564.2823, 2191.430
564.7645, 2190.803
565.2466, 2195.222
565.7287, 2214.488
566.2108, 2245.496
566.6929, 2273.171
567.1750, 2297.195
567.6572, 2320.037
568.1393, 2341.380
568.6214, 2363.035
569.1035, 2387.686
569.5856, 2415.823
570.0677, 2447.638
570.5499, 2488.569
571.0320, 2532.546
571.5141, 2570.250
571.9962, 2593.419
572.4783, 2614.507
572.9604, 2635.977
573.4426, 2658.534
573.9247, 2686.021
574.4068, 2726.704
574.8889, 2765.158
575.3710, 2794.554
575.8531, 2812.386
576.3353, 2833.155
576.8174, 2859.660
577.2995, 2884.654
577.7816, 2903.516
578.2637, 2916.794
578.7458, 2916.648
579.2280, 2902.180
579.7101, 2873.370
580.1922, 2826.408
580.6743, 2763.368
581.1564, 2695.966
581.6385, 2625.965
582.1207, 2556.499
582.6028, 2491.266
583.0849, 2431.025
583.5670, 2377.182
584.0491, 2332.435
584.5313, 2293.400
585.0134, 2257.683
585.4955, 2225.212
585.9776, 2195.378
586.4597, 2169.852
586.9418, 2146.298
587.4240, 2122.003
587.9061, 2089.421
588.3882, 2067.762
588.8703, 2063.510
589.3524, 2070.292
589.8345, 2069.626
590.3167, 2060.600
590.7988, 2047.310
591.2809, 2029.427
591.7630, 2008.554
592.2451, 1993.651
592.7272, 1984.780
593.2094, 1980.388
593.6915, 1973.098
594.1736, 1970.596
594.6557, 1995.958
595.1378, 2062.043
595.6199, 2114.517
596.1021, 2101.444
596.5842, 2051.776
597.0663, 2006.623
597.5485, 1974.764
598.0306, 1955.458
598.5127, 1953.963
598.9948, 1966.447
599.4769, 1976.430
599.9590, 1982.716
600.4412, 1986.629
600.9233, 1987.719
601.4054, 1985.654
601.8875, 1987.205
602.3696, 1994.724
602.8517, 2000.029
603.3339, 1993.265
603.8160, 1975.687
604.2981, 1965.377
604.7802, 1965.629
605.2623, 1969.255
605.7444, 1965.421
606.2266, 1957.418
606.7087, 1954.243
607.1908, 1960.949
607.6729, 1971.820
608.1550, 1986.116
608.6371, 2001.491
609.1193, 2010.806
609.6014, 2003.462
610.0835, 1995.921
610.5656, 1997.633
611.0477, 2011.031
611.5298, 2018.502
612.0120, 2012.403
612.4941, 2007.216
612.9762, 2014.652
613.4583, 2041.465
613.9404, 2054.609
614.4225, 2047.948
614.9047, 2035.727
615.3868, 2040.327
615.8689, 2060.386
616.3510, 2076.738
616.8331, 2080.958
617.3152, 2082.286
617.7974, 2097.527
618.2795, 2123.075
618.7616, 2145.653
619.2437, 2152.965
619.7258, 2158.137
620.2079, 2170.837
620.6901, 2191.563
621.1722, 2215.502
621.6543, 2248.073
622.1364, 2278.448
622.6185, 2297.980
623.1006, 2297.276
623.5828, 2306.740
624.0649, 2332.604
624.5470, 2362.919
625.0291, 2380.611
625.5112, 2381.147
625.9933, 2395.004
626.4755, 2431.645
626.9576, 2478.846
627.4397, 2510.825
627.9218, 2529.161
628.4039, 2545.906
628.8860, 2568.505
629.3682, 2592.216
629.8503, 2607.124
630.3324, 2615.038
630.8145, 2629.283
631.2966, 2673.453
631.7787, 2715.515
632.2609, 2728.818
632.7430, 2700.959
633.2251, 2680.144
633.7072, 2683.573
634.1893, 2693.035
634.6714, 2693.323
635.1536, 2679.779
635.6357, 2666.979
636.1178, 2655.383
636.5999, 2645.750
637.0820, 2639.609
637.5641, 2637.038
638.0463, 2637.084
638.5284, 2639.462
639.0105, 2644.229
639.4926, 2652.567
639.9747, 2663.965
640.4568, 2675.188
640.9390, 2680.276
641.4211, 2687.045
641.9032, 2705.077
642.3853, 2734.922
642.8674, 2762.593
643.3495, 2782.023
643.8317, 2797.578
644.3138, 2813.410
644.7959, 2838.112
645.2780, 2845.918
645.7601, 2829.593
646.2422, 2802.792
646.7244, 2783.394
647.2065, 2775.623
647.6886, 2753.104
648.1707, 2708.229
648.6528, 2650.987
649.1349, 2598.760
649.6171, 2551.386
650.0992, 2506.099
650.5813, 2461.506
651.0634, 2418.360
651.5455, 2377.634
652.0276, 2338.979
652.5098, 2302.501
652.9919, 2263.306
653.4740, 2230.038
653.9561, 2211.954
654.4382, 2214.108
654.9203, 2205.332
655.4025, 2169.782
655.8846, 2131.929
656.3667, 2108.993
656.8488, 2106.884
657.3309, 2101.551
657.8130, 2090.948
658.2952, 2079.075
658.7773, 2072.108
659.2594, 2069.561
659.7415, 2066.225
660.2236, 2060.326
660.7057, 2053.676
661.1879, 2050.319
661.6700, 2048.547
662.1521, 2043.598
662.6342, 2026.667
663.1163, 2011.439
663.5984, 2008.953
664.0806, 2017.568
664.5627, 2022.516
665.0448, 2016.827
665.5269, 2009.682
666.0090, 2005.233
666.4911, 2004.153
666.9733, 2000.695
667.4554, 1993.576
667.9375, 1986.625
668.4196, 1983.859
668.9017, 1985.062
669.3839, 1983.419
669.8660, 1977.880
670.3481, 1971.587
670.8302, 1968.862
671.3123, 1968.097
671.7944, 1965.602
672.2766, 1958.841
672.7587, 1952.381
673.2408, 1948.367
673.7229, 1946.871
674.2050, 1947.934
674.6871, 1955.614
675.1693, 1961.496
675.6514, 1963.070
676.1335, 1960.926
676.6156, 1957.303
677.0977, 1950.273
677.5798, 1946.411
678.0620, 1951.973
678.5441, 1964.866
679.0262, 1959.477
679.5083, 1934.350
679.9904, 1914.147
680.4725, 1925.646
680.9547, 1953.348
681.4368, 1970.589
681.9189, 1973.764
682.4010, 1970.325
682.8831, 1960.271
683.3652, 1948.500
683.8474, 1940.218
684.3295, 1939.818
684.8116, 1937.786
685.2937, 1929.302
685.7758, 1919.986
686.2579, 1918.001
686.7401, 1926.902
687.2222, 1933.231
687.7043, 1933.933
688.1864, 1931.282
688.6685, 1930.827
689.1506, 1932.410
689.6328, 1933.440
690.1149, 1930.925
690.5970, 1928.382
691.0791, 1933.448
691.5612, 1944.269
692.0433, 1951.306
692.5255, 1946.453
693.0076, 1938.723
693.4897, 1931.799
693.9718, 1925.520
694.4539, 1927.118
694.9360, 1948.863
695.4182, 1968.151
695.9003, 1971.321
696.3824, 1952.666
696.8645, 1941.956
697.3466, 1940.128
697.8287, 1943.791
698.3109, 1952.408
698.7930, 1964.302
699.2751, 1969.995
699.7572, 1966.922
700.2393, 1960.587
700.7214, 1954.976
701.2036, 1950.390
701.6857, 1947.297
702.1678, 1944.486
702.6499, 1944.805
703.1320, 1950.717
703.6141, 1960.531
704.0963, 1970.185
704.5784, 1981.362
705.0605, 1989.659
705.5426, 1994.684
706.0247, 1996.067
706.5068, 1988.818
706.9890, 1970.910
707.4711, 1960.985
707.9532, 1974.426
708.4353, 2001.711
708.9174, 2018.550
709.3995, 2025.618
709.8817, 2028.588
710.3638, 2026.892
710.8459, 2025.669
711.3280, 2029.900
711.8101, 2040.629
712.2922, 2052.270
712.7744, 2065.676
713.2565, 2077.712
713.7386, 2086.243
714.2207, 2089.323
714.7028, 2094.170
715.1849, 2101.746
715.6671, 2109.504
716.1492, 2116.753
716.6313, 2122.877
717.1134, 2118.476
717.5955, 2098.359
718.0776, 2079.031
718.5598, 2084.915
719.0419, 2105.922
719.5240, 2122.521
720.0061, 2126.973
720.4882, 2126.590
720.9703, 2123.872
721.4525, 2118.849
721.9346, 2111.602
722.4167, 2102.396
722.8988, 2089.991
723.3809, 2070.257
723.8630, 2047.517
724.3452, 2040.220
724.8273, 2049.744
725.3094, 2064.981
725.7915, 2084.613
726.2736, 2104.796
726.7557, 2113.885
727.2379, 2113.032
727.7200, 2111.329
728.2021, 2116.275
728.6842, 2121.718
729.1663, 2123.067
729.6484, 2119.884
730.1306, 2113.155
730.6127, 2096.625
731.0948, 2082.110
731.5769, 2075.880
732.0590, 2079.144
732.5411, 2085.900
733.0233, 2096.875
733.5054, 2109.713
733.9875, 2125.999
734.4696, 2143.892
734.9517, 2146.029
735.4338, 2127.992
735.9160, 2109.533
736.3981, 2111.885
736.8802, 2126.407
737.3623, 2140.650
737.8444, 2151.734
738.3266, 2161.310
738.8087, 2168.526
739.2908, 2175.226
739.7729, 2183.793
740.2551, 2192.322
740.7372, 2206.646
741.2193, 2229.600
741.7014, 2256.887
742.1835, 2280.021
742.6656, 2298.878
743.1478, 2314.233
743.6299, 2322.870
744.1120, 2332.684
744.5941, 2358.917
745.0762, 2397.177
745.5583, 2434.696
746.0405, 2460.877
746.5226, 2488.184
747.0047, 2520.432
747.4868, 2558.650
747.9689, 2607.451
748.4510, 2667.886
748.9332, 2737.321
749.4153, 2815.703
749.8974, 2902.619
750.3795, 2997.325
750.8616, 3099.867
751.3438, 3206.631
751.8259, 3313.882
752.3080, 3423.415
752.7901, 3542.216
753.2722, 3669.952
753.7543, 3805.552
754.2365, 3953.572
754.7186, 4105.682
755.2007, 4252.648
755.6828, 4393.635
756.1649, 4536.077
756.6470, 4681.684
757.1292, 4830.733
757.6113, 4984.667
758.0934, 5145.141
758.5755, 5302.474
759.0576, 5457.756
759.5397, 5611.088
760.0219, 5772.660
760.5040, 5934.008
760.9861, 6066.131
761.4682, 6164.568
761.9503, 6226.868
762.4324, 6264.532
762.9146, 6259.247
763.3967, 6188.755
763.8788, 6028.819
764.3609, 5834.049
764.8430, 5596.941
765.3251, 5339.614
765.8073, 5079.263
766.2894, 4811.910
766.7715, 4558.905
767.2536, 4322.502
767.7357, 4106.649
768.2178, 3918.467
768.7000, 3756.160
769.1821, 3616.644
769.6642, 3500.050
770.1463, 3401.385
770.6284, 3320.516
771.1105, 3253.936
771.5927, 3194.858
772.0748, 3145.437
772.5569, 3098.366
773.0390, 3052.169
773.5211, 3007.270
774.0032, 2965.315
774.4854, 2926.411
774.9675, 2890.781
775.4496, 2861.405
775.9317, 2832.800
776.4138, 2785.676
776.8959, 2724.552
777.3781, 2671.718
777.8602, 2650.239
778.3423, 2632.987
778.8244, 2593.047
779.3065, 2536.025
779.7886, 2486.672
780.2708, 2453.170
780.7529, 2428.345
781.2350, 2411.063
781.7171, 2400.387
782.1992, 2387.705
782.6813, 2373.095
783.1635, 2356.512
783.6456, 2334.574
784.1277, 2311.225
784.6098, 2301.576
785.0919, 2304.304
785.5740, 2305.811
786.0562, 2291.829
786.5383, 2276.836
787.0204, 2274.905
787.5025, 2286.739
787.9846, 2296.021
788.4667, 2296.527
788.9489, 2295.838
789.4310, 2297.106
789.9131, 2300.468
790.3952, 2301.790
790.8773, 2299.745
791.3594, 2301.792
791.8416, 2319.110
792.3237, 2344.078
792.8058, 2352.309
793.2879, 2343.061
793.7700, 2339.210
794.2521, 2361.132
794.7343, 2392.157
795.2164, 2417.829
795.6985, 2434.429
796.1806, 2456.414
796.6627, 2488.794
797.1448, 2523.153
797.6270, 2551.466
798.1091, 2571.096
798.5912, 2606.545
799.0733, 2659.283
799.5554, 2722.838
800.0375, 2788.914
800.5197, 2861.025
801.0018, 2949.452
801.4839, 3056.859
801.9660, 3165.687
802.4481, 3249.915
802.9302, 3340.420
803.4124, 3465.754
803.8945, 3651.730
804.3766, 3823.335
804.8587, 3969.729
805.3408, 4115.876
805.8229, 4284.662
806.3051, 4475.995
806.7872, 4678.860
807.2693, 4895.749
807.7514, 5107.199
808.2335, 5288.891
808.7156, 5456.334
809.1978, 5633.067
809.6799, 5825.563
810.1620, 6022.159
810.6441, 6231.746
811.1262, 6435.845
811.6083, 6615.820
812.0905, 6778.006
812.5726, 6906.388
813.0547, 7001.708
813.5368, 7058.920
814.0189, 7076.565
814.5010, 7051.994
814.9832, 6969.482
815.4653, 6826.572
815.9474, 6626.508
816.4295, 6346.884
816.9116, 6021.077
817.3937, 5686.324
817.8759, 5340.822
818.3580, 5014.088
818.8401, 4717.148
819.3222, 4442.251
819.8043, 4177.085
820.2864, 3914.476
820.7686, 3696.929
821.2507, 3534.751
821.7328, 3403.979
822.2149, 3282.135
822.6970, 3169.336
823.1791, 3062.765
823.6613, 2960.905
824.1434, 2871.883
824.6255, 2805.570
825.1076, 2753.958
825.5897, 2709.270
826.0718, 2677.109
826.5540, 2640.177
827.0361, 2591.009
827.5182, 2544.918
828.0003, 2523.848
828.4824, 2527.593
828.9645, 2523.609
829.4467, 2506.868
829.9288, 2482.811
830.4109, 2449.325
830.8930, 2415.366
831.3751, 2396.217
831.8572, 2404.423
832.3394, 2408.378
832.8215, 2394.160
833.3036, 2371.575
833.7857, 2351.624
834.2678, 2335.377
834.7499, 2318.991
835.2321, 2301.589
835.7142, 2285.789
836.1963, 2275.457
836.6784, 2269.539
837.1605, 2264.823
837.6426, 2261.020
838.1248, 2257.077
838.6069, 2253.208
839.0890, 2248.267
839.5711, 2241.001
840.0532, 2230.561
840.5353, 2218.349
841.0175, 2200.538
841.4996, 2185.072
841.9817, 2182.196
842.4638, 2192.556
842.9459, 2199.001
843.4280, 2200.162
843.9102, 2196.030
844.3923, 2182.049
844.8744, 2164.206
845.3565, 2153.018
845.8386, 2152.310
846.3207, 2151.374
846.8029, 2146.445
847.2850, 2138.994
847.7671, 2129.515
848.2492, 2113.795
848.7313, 2109.462
849.2134, 2120.835
849.6956, 2132.647
850.1777, 2125.238
850.6598, 2105.283
851.1419, 2097.655
851.6240, 2106.285
852.1061, 2116.917
852.5883, 2120.689
853.0704, 2120.222
853.5525, 2117.535
854.0346, 2112.017
854.5167, 2107.232
854.9988, 2103.941
855.4810, 2100.708
855.9631, 2096.144
856.4452, 2090.191
856.9273, 2085.783
857.4094, 2083.057
857.8915, 2081.078
858.3737, 2078.420
858.8558, 2076.370
859.3379, 2076.676
859.8200, 2079.614
860.3021, 2083.847
860.7842, 2091.008
861.2664, 2097.379
861.7485, 2100.932
862.2306, 2101.566
862.7127, 2100.570
863.1948, 2097.867
863.6769, 2093.839
864.1591, 2088.339
864.6412, 2081.785
865.1233, 2073.709
865.6054, 2064.427
866.0875, 2058.673
866.5696, 2061.315
867.0518, 2066.595
867.5339, 2072.733
868.0160, 2079.652
868.4981, 2078.857
868.9802, 2066.480
869.4623, 2054.316
869.9445, 2045.801
870.4266, 2042.213
870.9087, 2055.194
871.3908, 2082.741
871.8729, 2102.118
872.3550, 2093.287
872.8372, 2075.742
873.3193, 2061.708
873.8014, 2052.361
874.2835, 2051.743
874.7656, 2073.209
875.2477, 2088.366
875.7299, 2087.450
876.2120, 2075.414
876.6941, 2071.562
877.1762, 2075.872
877.6583, 2082.671
878.1404, 2092.298
878.6226, 2100.139
879.1047, 2098.725
879.5869, 2090.566
880.0690, 2082.101
880.5511, 2071.899
881.0332, 2066.257
881.5153, 2069.095
881.9974, 2076.971
882.4796, 2084.327
882.9617, 2091.986
883.4438, 2093.496
883.9259, 2085.110
884.4080, 2074.425
884.8901, 2074.673
885.3723, 2082.008
885.8544, 2087.210
886.3365, 2084.225
886.8186, 2083.175
887.3007, 2093.237
887.7828, 2105.827
888.2650, 2108.086
888.7471, 2093.385
889.2292, 2086.214
889.7113, 2089.890
890.1934, 2098.563
890.6755, 2108.755
891.1577, 2117.749
891.6398, 2114.339
892.1219, 2093.315
892.6040, 2076.338
893.0861, 2084.687
893.5682, 2100.706
894.0504, 2107.419
894.5325, 2097.730
895.0146, 2090.363
895.4967, 2084.705
895.9788, 2082.495
896.4609, 2087.853
896.9431, 2098.860
897.4252, 2101.046
897.9073, 2093.525
898.3894, 2089.590
898.8715, 2105.430
899.3536, 2124.806
899.8358, 2133.146
900.3179, 2128.040
900.8000, 2124.538
901.2821, 2126.148
901.7642, 2126.698
902.2463, 2121.563
902.7285, 2112.466
903.2106, 2115.250
903.6927, 2129.284
904.1748, 2138.361
904.6569, 2124.646
905.1390, 2107.118
905.6212, 2106.173
906.1033, 2118.821
906.5854, 2130.362
907.0675, 2136.042
907.5496, 2140.942
908.0317, 2146.431
908.5139, 2151.896
908.9960, 2154.886
909.4781, 2155.377
909.9602, 2158.025
910.4423, 2167.959
910.9244, 2175.115
911.4066, 2160.121
911.8887, 2134.844
912.3708, 2120.973
912.8529, 2139.368
913.3350, 2152.629
913.8171, 2151.174
914.2993, 2143.517
914.7814, 2140.286
915.2635, 2141.663
915.7456, 2146.096
916.2277, 2154.420
916.7098, 2161.184
917.1920, 2159.853
917.6741, 2152.927
918.1562, 2142.821
918.6383, 2128.076
919.1204, 2117.723
919.6025, 2114.712
920.0847, 2117.119
920.5668, 2125.692
921.0489, 2142.602
921.5310, 2148.501
922.0131, 2142.162
922.4952, 2134.974
922.9774, 2137.782
923.4595, 2144.802
923.9416, 2147.504
924.4237, 2145.549
924.9058, 2142.621
925.3879, 2136.619
925.8701, 2133.818
926.3522, 2138.193
926.8343, 2148.452
927.3164, 2154.603
927.7985, 2156.781
928.2806, 2153.630
928.7628, 2140.642
929.2449, 2125.696
929.7270, 2121.956
930.2091, 2126.458
930.6912, 2131.067
931.1733, 2129.984
931.6555, 2131.473
932.1376, 2140.341
932.6197, 2152.282
933.1018, 2159.313
933.5839, 2160.310
934.0660, 2166.667
934.5482, 2182.740
935.0303, 2197.790
935.5124, 2194.609
935.9945, 2181.710
936.4766, 2174.377
936.9587, 2178.179
937.4409, 2181.848
937.9230, 2178.105
938.4051, 2175.768
938.8872, 2183.193
939.3693, 2203.673
939.8514, 2214.593
940.3336, 2215.250
940.8157, 2210.528
941.2978, 2199.340
941.7799, 2187.846
942.2620, 2186.043
942.7441, 2194.054
943.2263, 2203.151
943.7084, 2212.104
944.1905, 2218.938
944.6726, 2222.063
945.1547, 2222.328
945.6368, 2225.793
946.1190, 2232.790
946.6011, 2237.429
947.0832, 2233.163
947.5653, 2229.447
948.0474, 2243.566
948.5295, 2267.916
949.0117, 2284.804
949.4938, 2282.856
949.9759, 2279.115
950.4580, 2274.184
950.9401, 2271.257
951.4222, 2277.584
951.9044, 2293.460
952.3865, 2301.443
952.8686, 2297.571
953.3507, 2291.047
953.8328, 2289.869
954.3149, 2292.739
954.7971, 2298.422
955.2792, 2307.193
955.7613, 2316.703
956.2434, 2329.783
956.7255, 2339.557
957.2076, 2338.066
957.6898, 2326.082
958.1719, 2333.374
958.6540, 2359.757
959.1361, 2388.507
959.6182, 2410.035
960.1003, 2427.421
960.5825, 2442.910
961.0646, 2456.820
961.5467, 2470.288
962.0288, 2483.635
962.5109, 2495.880
962.9930, 2504.742
963.4752, 2513.779
963.9573, 2530.033
964.4394, 2553.795
964.9215, 2588.780
965.4036, 2640.692
965.8857, 2695.401
966.3679, 2738.562
966.8500, 2778.860
967.3321, 2828.821
967.8142, 2900.649
968.2963, 2960.500
968.7784, 3001.465
969.2606, 3043.171
969.7427, 3109.209
970.2248, 3192.229
970.7069, 3265.512
971.1890, 3326.826
971.6711, 3385.302
972.1533, 3441.135
972.6354, 3500.161
973.1175, 3570.814
973.5996, 3652.371
974.0817, 3714.984
974.5638, 3755.304
975.0460, 3788.488
975.5281, 3822.080
976.0102, 3851.824
976.4923, 3872.069
976.9744, 3881.284
977.4565, 3874.990
977.9387, 3854.907
978.4208, 3814.669
978.9029, 3744.605
979.3850, 3656.318
979.8671, 3561.333
980.3492, 3457.611
980.8314, 3362.970
981.3135, 3280.426
981.7956, 3201.049
982.2777, 3107.919
982.7598, 3013.585
983.2419, 2937.941
983.7241, 2885.853
984.2062, 2835.675
984.6883, 2781.084
985.1704, 2726.647
985.6525, 2670.083
986.1346, 2613.515
986.6168, 2583.904
987.0989, 2580.486
987.5810, 2579.337
988.0631, 2568.142
988.5452, 2551.676
989.0273, 2528.327
989.5095, 2503.557
989.9916, 2492.058
990.4737, 2511.549
990.9558, 2520.127
991.4379, 2508.613
991.9200, 2490.342
992.4022, 2485.848
992.8843, 2492.844
993.3664, 2501.159
993.8485, 2508.583
994.3306, 2518.965
994.8127, 2536.501
995.2949, 2557.169
995.7770, 2577.815
996.2591, 2598.311
996.7412, 2617.509
997.2233, 2635.007
997.7054, 2651.990
998.1876, 2664.014
998.6697, 2678.026
999.1518, 2719.615
999.6339, 2779.679
1000.116, 2822.452
1000.598, 2813.132
1001.080, 2805.844
1001.562, 2819.582
1002.044, 2846.962
1002.527, 2878.168
1003.009, 2913.621
1003.491, 2943.205
1003.973, 2964.229
1004.455, 2980.371
1004.937, 2996.197
1005.419, 3008.864
1005.901, 3013.769
1006.384, 3008.352
1006.866, 3002.843
1007.348, 3001.311
1007.830, 2995.718
1008.312, 2977.721
1008.794, 2951.284
1009.276, 2940.754
1009.758, 2944.910
1010.240, 2952.926
1010.723, 2963.525
1011.205, 2971.019
1011.687, 2970.937
1012.169, 2964.899
1012.651, 2957.874
1013.133, 2950.199
1013.615, 2940.968
1014.097, 2930.098
1014.580, 2917.422
1015.062, 2901.101
1015.544, 2883.457
1016.026, 2870.548
1016.508, 2865.398
1016.990, 2853.822
1017.472, 2814.202
1017.954, 2781.987
1018.436, 2781.067
1018.919, 2809.488
1019.401, 2820.350
1019.883, 2813.586
1020.365, 2813.938
1020.847, 2843.979
1021.329, 2881.032
1021.811, 2902.058
1022.293, 2912.282
1022.776, 2924.892
1023.258, 2937.326
1023.740, 2961.069
1024.222, 2998.348
1024.704, 3045.703
1025.186, 3101.353
1025.668, 3163.008
1026.150, 3222.026
1026.632, 3277.767
1027.115, 3327.333
1027.597, 3369.393
1028.079, 3404.046
1028.561, 3428.378
1029.043, 3443.379
1029.525, 3472.367
1030.007, 3517.973
1030.489, 3552.268
1030.972, 3562.795
1031.454, 3554.248
1031.936, 3525.833
1032.418, 3484.398
1032.900, 3445.134
1033.382, 3420.936
1033.864, 3386.951
1034.346, 3341.998
1034.828, 3285.634
1035.311, 3210.040
1035.793, 3120.036
1036.275, 3055.473
1036.757, 3019.116
1037.239, 2985.739
1037.721, 2937.576
1038.203, 2885.669
1038.685, 2834.011
1039.167, 2784.680
1039.650, 2753.053
1040.132, 2744.483
1040.614, 2729.966
1041.096, 2695.415
1041.578, 2658.067
1042.060, 2652.547
1042.542, 2663.467
1043.024, 2660.729
1043.507, 2623.321
1043.989, 2596.441
1044.471, 2593.464
1044.953, 2596.882
1045.435, 2594.366
1045.917, 2586.154
1046.399, 2574.333
1046.881, 2559.056
1047.364, 2541.923
1047.846, 2521.522
1048.328, 2501.941
1048.810, 2486.792
1049.292, 2475.084
1049.774, 2461.608
1050.256, 2445.406
1050.738, 2430.253
1051.220, 2416.165
1051.703, 2405.424
1052.185, 2404.757
1052.667, 2408.863
1053.149, 2408.997
1053.631, 2403.175
1054.113, 2394.498
1054.595, 2379.884
1055.077, 2367.205
1055.559, 2362.261
1056.042, 2363.115
1056.524, 2352.776
1057.006, 2333.196
1057.488, 2320.346
1057.970, 2330.336
1058.452, 2342.145
1058.934, 2342.069
1059.416, 2334.887
1059.899, 2329.301
1060.381, 2324.118
1060.863, 2326.876
1061.345, 2340.005
1061.827, 2353.418
1062.309, 2353.220
1062.791, 2348.472
1063.273, 2357.085
1063.755, 2379.886
1064.238, 2388.560
1064.720, 2357.887
1065.202, 2334.913
1065.684, 2335.435
1066.166, 2351.541
1066.648, 2363.881
1067.130, 2372.283
1067.612, 2376.196
1068.094, 2372.825
1068.577, 2371.212
1069.059, 2376.808
1069.541, 2386.917
1070.023, 2398.754
1070.505, 2412.171
1070.987, 2429.740
1071.469, 2452.555
1071.951, 2471.007
1072.434, 2477.376
1072.916, 2476.747
1073.398, 2472.025
1073.880, 2465.236
1074.362, 2462.853
1074.844, 2465.533
1075.326, 2474.224
1075.808, 2490.526
1076.291, 2510.505
1076.773, 2528.162
1077.255, 2545.161
1077.737, 2567.229
1078.219, 2595.282
1078.701, 2620.651
1079.183, 2635.406
1079.665, 2649.314
1080.147, 2666.523
1080.630, 2687.178
1081.112, 2712.563
1081.594, 2742.652
1082.076, 2776.837
1082.558, 2815.875
1083.040, 2857.024
1083.522, 2896.304
1084.004, 2936.887
1084.486, 2982.388
1084.969, 3030.011
1085.451, 3094.215
1085.933, 3178.034
1086.415, 3264.846
1086.897, 3335.986
1087.379, 3404.383
1087.861, 3493.796
1088.343, 3601.486
1088.826, 3714.172
1089.308, 3827.177
1089.790, 3942.852
1090.272, 4059.244
1090.754, 4180.885
1091.236, 4318.208
1091.718, 4467.676
1092.200, 4614.126
1092.682, 4754.146
1093.165, 4890.285
1093.647, 5030.420
1094.129, 5160.424
1094.611, 5268.591
1095.093, 5358.972
1095.575, 5465.841
1096.057, 5590.985
1096.539, 5688.217
1097.022, 5736.347
1097.504, 5753.960
1097.986, 5757.209
1098.468, 5742.231
1098.950, 5701.955
1099.432, 5626.305
1099.914, 5550.644
1100.396, 5481.152
1100.879, 5396.192
1101.361, 5268.657
1101.843, 5120.804
1102.325, 4991.260
1102.807, 4877.288
1103.289, 4769.703
1103.771, 4674.675
1104.253, 4569.507
1104.735, 4441.965
1105.218, 4311.292
1105.700, 4204.379
1106.182, 4118.433
1106.664, 4045.050
1107.146, 3982.423
1107.628, 3932.652
1108.110, 3905.272
1108.592, 3881.992
1109.074, 3852.332
1109.557, 3818.262
1110.039, 3791.674
1110.521, 3772.552
1111.003, 3742.712
1111.485, 3691.891
1111.967, 3644.980
1112.449, 3630.498
1112.931, 3630.839
1113.414, 3630.169
1113.896, 3630.515
1114.378, 3604.487
1114.860, 3546.024
1115.342, 3487.726
1115.824, 3450.885
1116.306, 3422.812
1116.788, 3384.074
1117.271, 3338.296
1117.753, 3292.898
1118.235, 3257.921
1118.717, 3210.439
1119.199, 3143.274
1119.681, 3074.143
1120.163, 3022.534
1120.645, 2982.770
1121.127, 2936.832
1121.609, 2884.692
1122.092, 2837.805
1122.574, 2805.571
1123.056, 2775.809
1123.538, 2743.036
1124.020, 2710.954
1124.502, 2691.604
1124.984, 2682.133
1125.466, 2653.715
1125.949, 2598.839
1126.431, 2549.950
1126.913, 2533.906
1127.395, 2529.081
1127.877, 2520.804
1128.359, 2509.256
1128.841, 2501.770
1129.323, 2498.880
1129.806, 2488.576
1130.288, 2462.870
1130.770, 2435.934
1131.252, 2419.729
1131.734, 2412.180
1132.216, 2413.616
1132.698, 2431.724
1133.180, 2425.485
1133.662, 2388.200
1134.145, 2355.019
1134.627, 2353.608
1135.109, 2366.339
1135.591, 2365.111
1136.073, 2355.419
1136.555, 2351.212
1137.037, 2361.807
1137.519, 2370.525
1138.001, 2376.842
1138.484, 2380.100
1138.966, 2377.655
1139.448, 2372.065
1139.930, 2369.443
1140.412, 2369.958
1140.894, 2371.822
1141.376, 2377.038
1141.858, 2379.383
1142.341, 2373.877
1142.823, 2368.299
1143.305, 2381.922
1143.787, 2408.995
1144.269, 2420.471
1144.751, 2409.561
1145.233, 2405.100
1145.715, 2435.340
1146.198, 2464.565
1146.680, 2471.426
1147.162, 2461.414
1147.644, 2458.166
1148.126, 2461.746
1148.608, 2474.133
1149.090, 2500.541
1149.572, 2523.948
1150.054, 2534.938
1150.536, 2534.090
1151.019, 2517.495
1151.501, 2482.968
1151.983, 2474.861
1152.465, 2494.455
1152.947, 2507.612
1153.429, 2491.234
1153.911, 2465.468
1154.393, 2446.657
1154.876, 2432.764
1155.358, 2420.827
1155.840, 2412.319
1156.322, 2400.035
1156.804, 2383.407
1157.286, 2365.399
1157.768, 2344.980
1158.250, 2326.949
1158.733, 2319.396
1159.215, 2319.875
1159.697, 2318.157
1160.179, 2309.411
1160.661, 2306.384
1161.143, 2312.513
1161.625, 2319.033
1162.107, 2314.099
1162.589, 2303.448
1163.072, 2295.340
1163.554, 2290.657
1164.036, 2291.706
1164.518, 2309.280
1165.000, 2314.020
1165.482, 2293.823
1165.964, 2265.513
1166.446, 2262.350
1166.928, 2274.303
1167.411, 2277.800
1167.893, 2266.827
1168.375, 2259.842
1168.857, 2266.468
1169.339, 2274.025
1169.821, 2279.493
1170.303, 2281.265
1170.785, 2270.875
1171.268, 2252.547
1171.750, 2240.416
1172.232, 2241.753
1172.714, 2242.639
1173.196, 2232.476
1173.678, 2225.559
1174.160, 2233.343
1174.642, 2252.429
1175.125, 2258.287
1175.607, 2253.221
1176.089, 2249.625
1176.571, 2255.349
1177.053, 2261.191
1177.535, 2263.170
1178.017, 2263.311
1178.499, 2264.230
1178.981, 2265.855
1179.464, 2259.604
1179.946, 2246.031
1180.428, 2235.523
1180.910, 2237.874
1181.392, 2241.458
1181.874, 2236.245
1182.356, 2230.356
1182.838, 2239.739
1183.320, 2265.462
1183.803, 2274.248
1184.285, 2263.126
1184.767, 2247.890
1185.249, 2237.485
1185.731, 2229.793
1186.213, 2222.085
1186.695, 2216.401
1187.177, 2220.354
1187.660, 2234.935
1188.142, 2243.258
1188.624, 2241.955
1189.106, 2238.831
1189.588, 2240.849
1190.070, 2243.810
1190.552, 2243.916
1191.034, 2241.543
1191.516, 2241.208
1191.999, 2243.442
1192.481, 2242.194
1192.963, 2235.497
1193.445, 2226.545
1193.927, 2212.178
1194.409, 2201.482
1194.891, 2208.914
1195.373, 2235.634
1195.855, 2239.699
1196.338, 2217.625
1196.820, 2204.067
1197.302, 2216.263
1197.784, 2234.784
1198.266, 2240.832
1198.748, 2239.306
1199.230, 2234.475
1199.712, 2225.061
1200.195, 2226.583
1200.677, 2240.930
1201.159, 2253.132
1201.641, 2255.948
1202.123, 2251.581
1202.605, 2235.393
1203.087, 2216.308
1203.569, 2209.703
1204.052, 2222.518
1204.534, 2229.733
1205.016, 2230.140
1205.498, 2232.522
1205.980, 2251.960
1206.462, 2269.430
1206.944, 2254.739
1207.426, 2222.420
1207.908, 2207.772
1208.391, 2222.655
1208.873, 2227.536
1209.355, 2218.834
1209.837, 2210.874
1210.319, 2220.164
1210.801, 2233.506
1211.283, 2233.656
1211.765, 2224.594
1212.247, 2222.411
1212.730, 2231.675
1213.212, 2237.225
1213.694, 2237.605
1214.176, 2233.507
1214.658, 2215.927
1215.140, 2201.145
1215.622, 2215.654
1216.104, 2253.202
1216.587, 2269.877
1217.069, 2257.555
1217.551, 2244.584
1218.033, 2235.409
1218.515, 2227.204
1218.997, 2211.732
1219.479, 2198.941
1219.961, 2203.816
1220.443, 2225.766
1220.926, 2238.986
1221.408, 2240.534
1221.890, 2240.818
1222.372, 2242.233
1222.854, 2243.187
1223.336, 2240.461
1223.818, 2237.036
1224.300, 2237.811
1224.782, 2243.383
1225.265, 2240.956
1225.747, 2228.262
1226.229, 2217.973
1226.711, 2213.354
1227.193, 2214.403
1227.675, 2226.321
1228.157, 2240.874
1228.639, 2247.196
1229.122, 2243.229
1229.604, 2243.560
1230.086, 2249.461
1230.568, 2250.229
1231.050, 2237.869
1231.532, 2226.801
1232.014, 2242.956
1232.496, 2264.881
1232.979, 2260.756
1233.461, 2223.316
1233.943, 2215.043
1234.425, 2239.268
1234.907, 2259.667
1235.389, 2256.679
1235.871, 2246.567
1236.353, 2244.747
1236.835, 2245.979
1237.318, 2241.698
1237.800, 2229.217
1238.282, 2232.856
1238.764, 2253.664
1239.246, 2268.196
1239.728, 2257.754
1240.210, 2242.697
1240.692, 2236.228
1241.175, 2237.893
1241.657, 2248.674
1242.139, 2271.662
1242.621, 2280.475
1243.103, 2275.078
1243.585, 2268.481
1244.067, 2276.126
1244.549, 2277.293
1245.031, 2243.051
1245.514, 2202.319
1245.996, 2197.019
1246.478, 2230.994
1246.960, 2254.238
1247.442, 2266.116
1247.924, 2270.950
1248.406, 2262.722
1248.888, 2257.780
1249.370, 2274.807
1249.853, 2294.555
1250.335, 2287.497
1250.817, 2255.065
1251.299, 2243.225
1251.781, 2252.378
1252.263, 2257.582
1252.745, 2231.276
1253.227, 2212.205
1253.710, 2224.042
1254.192, 2247.240
1254.674, 2257.079
1255.156, 2255.906
1255.638, 2263.268
1256.120, 2279.015
1256.602, 2287.252
1257.084, 2267.953
1257.567, 2254.225
1258.049, 2257.531
1258.531, 2269.802
1259.013, 2286.352
1259.495, 2302.239
1259.977, 2292.844
1260.459, 2259.402
1260.941, 2235.647
1261.423, 2242.804
1261.906, 2255.334
1262.388, 2270.838
1262.870, 2283.270
1263.352, 2280.757
1263.834, 2269.313
1264.316, 2262.847
1264.798, 2262.271
1265.280, 2261.097
1265.762, 2257.661
1266.245, 2251.948
1266.727, 2241.397
1267.209, 2234.451
1267.691, 2247.593
1268.173, 2269.895
1268.655, 2285.381
1269.137, 2292.448
1269.619, 2288.669
1270.102, 2268.071
1270.584, 2254.756
1271.066, 2254.490
1271.548, 2260.627
1272.030, 2268.488
1272.512, 2275.526
1272.994, 2278.155
1273.476, 2276.225
1273.958, 2274.422
1274.441, 2273.157
1274.923, 2270.569
1275.405, 2265.910
1275.887, 2261.467
1276.369, 2257.151
1276.851, 2256.120
1277.333, 2265.401
1277.815, 2281.910
1278.297, 2285.008
1278.780, 2273.869
1279.262, 2266.824
1279.744, 2268.526
1280.226, 2272.146
1280.708, 2272.097
1281.190, 2272.060
1281.672, 2276.645
1282.154, 2283.121
1282.637, 2278.223
1283.119, 2263.872
1283.601, 2259.588
1284.083, 2270.684
1284.565, 2282.862
1285.047, 2292.801
1285.529, 2294.853
1286.011, 2284.555
1286.494, 2266.807
1286.976, 2253.234
1287.458, 2244.439
1287.940, 2243.881
1288.422, 2253.158
1288.904, 2263.106
1289.386, 2273.513
1289.868, 2279.121
1290.350, 2276.280
1290.833, 2270.202
1291.315, 2273.005
1291.797, 2279.836
1292.279, 2280.487
1292.761, 2272.274
1293.243, 2264.957
1293.725, 2257.576
1294.207, 2257.656
1294.689, 2270.805
1295.172, 2285.071
1295.654, 2276.875
1296.136, 2262.466
1296.618, 2268.455
1297.100, 2301.184
1297.582, 2303.215
1298.064, 2267.867
1298.546, 2246.561
1299.029, 2259.987
##END=



