##NAMES=Albite
##RRUFFID=R050402
##IDEAL CHEMISTRY=NaAlSi_3_O_8_
##LOCALITY=Urbano mine, Golconda District, Brazil
##OWNER=RRUFF
##SOURCE=Bob Downs
##DESCRIPTION=Colorless tabular single crystals associated with fluorapatite R050401
##STATUS=The identification of this mineral has been confirmed by X-ray diffraction and chemical analysis
##URL=rruff.info/R050402
##MEASURED CHEMISTRY=Na_1.00_Al_1.00_Si_3.00_O_8_
93.48767, 127.3559
93.96979, 131.5773
94.45190, 134.9676
94.93402, 136.4323
95.41614, 135.3270
95.89825, 133.1878
96.38037, 131.5174
96.86249, 130.1605
97.34460, 128.7556
97.82672, 127.2415
98.30884, 126.0005
98.79095, 125.2777
99.27307, 124.7145
99.75519, 123.8196
100.2373, 122.6438
100.7194, 121.3940
101.2015, 120.5620
101.6837, 120.2024
102.1658, 120.0925
102.6479, 120.1077
103.1300, 120.2432
103.6121, 120.4249
104.0942, 120.3287
104.5764, 120.2221
105.0585, 120.6528
105.5406, 121.8929
106.0227, 123.8069
106.5048, 126.0671
106.9869, 129.0293
107.4691, 131.7565
107.9512, 133.6500
108.4333, 134.9605
108.9154, 136.2995
109.3975, 138.1439
109.8796, 140.5206
110.3618, 143.2091
110.8439, 146.3208
111.3260, 149.6372
111.8081, 153.6394
112.2902, 158.0629
112.7723, 161.8685
113.2544, 163.6179
113.7366, 162.9092
114.2187, 160.3518
114.7008, 155.3882
115.1829, 149.0490
115.6650, 142.0027
116.1471, 134.4519
116.6293, 126.7394
117.1114, 119.6376
117.5935, 112.8092
118.0756, 107.0245
118.5577, 102.7004
119.0398, 99.57542
119.5220, 96.98427
120.0041, 94.66402
120.4862, 92.76971
120.9683, 91.46247
121.4504, 90.85844
121.9325, 90.61456
122.4147, 90.41701
122.8968, 90.23736
123.3789, 90.44336
123.8610, 91.45824
124.3431, 92.89801
124.8252, 94.50385
125.3074, 96.29620
125.7895, 98.08978
126.2716, 99.42148
126.7537, 99.87187
127.2358, 100.6000
127.7179, 102.0535
128.2001, 103.9303
128.6822, 105.8584
129.1643, 107.5992
129.6464, 109.1778
130.1285, 110.8158
130.6107, 112.1617
131.0928, 113.9365
131.5749, 116.4975
132.0570, 119.6542
132.5391, 122.9779
133.0212, 126.0494
133.5033, 128.7883
133.9855, 131.9834
134.4676, 135.7816
134.9497, 139.8078
135.4318, 143.7104
135.9139, 147.5046
136.3960, 151.6554
136.8782, 156.6807
137.3603, 162.7352
137.8424, 169.2349
138.3245, 175.9939
138.8066, 183.2287
139.2887, 191.1010
139.7709, 199.5809
140.2530, 208.8241
140.7351, 219.0224
141.2172, 229.9725
141.6993, 241.9883
142.1814, 255.6075
142.6636, 270.4229
143.1457, 285.1309
143.6278, 299.5478
144.1099, 313.4987
144.5920, 327.5494
145.0741, 341.5857
145.5563, 354.2561
146.0384, 364.8533
146.5205, 373.5329
147.0026, 378.6927
147.4847, 377.5611
147.9668, 374.2750
148.4490, 369.9549
148.9311, 365.1142
149.4132, 361.0505
149.8953, 359.7620
150.3774, 361.9114
150.8595, 365.8924
151.3417, 372.3052
151.8238, 379.6492
152.3059, 386.8655
152.7880, 393.4879
153.2701, 399.7004
153.7522, 405.8549
154.2344, 410.4973
154.7165, 416.8449
155.1986, 424.8347
155.6807, 434.6291
156.1628, 446.3959
156.6449, 460.1733
157.1271, 476.0029
157.6092, 494.3663
158.0913, 515.6843
158.5734, 538.5430
159.0555, 562.9226
159.5376, 588.5699
160.0198, 615.2181
160.5019, 643.4891
160.9840, 672.1008
161.4661, 696.9918
161.9482, 720.8773
162.4303, 738.7693
162.9125, 747.8602
163.3946, 748.2208
163.8767, 739.7368
164.3588, 719.1175
164.8409, 689.7758
165.3230, 657.0590
165.8052, 619.6682
166.2873, 581.2969
166.7694, 546.7823
167.2515, 515.8446
167.7336, 489.5440
168.2157, 468.7123
168.6979, 452.2670
169.1800, 439.5348
169.6621, 430.7079
170.1442, 425.0909
170.6263, 420.7929
171.1084, 418.2222
171.5906, 416.5129
172.0727, 415.8474
172.5548, 415.6209
173.0369, 414.8373
173.5190, 412.6295
174.0011, 409.3637
174.4833, 408.1459
174.9654, 410.1979
175.4475, 413.3797
175.9296, 417.2573
176.4117, 421.9379
176.8938, 427.7698
177.3760, 435.0595
177.8581, 443.8333
178.3402, 453.1224
178.8223, 462.9469
179.3044, 473.1650
179.7865, 483.8755
180.2687, 494.9572
180.7508, 506.1166
181.2329, 517.0868
181.7150, 527.9059
182.1971, 538.2581
182.6792, 548.5302
183.1614, 558.1026
183.6435, 567.0414
184.1256, 575.1649
184.6077, 581.6882
185.0898, 586.1319
185.5719, 588.0974
186.0541, 586.9344
186.5362, 582.4285
187.0183, 574.8599
187.5004, 564.3102
187.9825, 550.7345
188.4646, 534.7879
188.9468, 516.1323
189.4289, 495.3015
189.9110, 473.7106
190.3931, 450.6000
190.8752, 427.2625
191.3573, 405.3229
191.8395, 384.7665
192.3216, 366.0614
192.8037, 350.0294
193.2858, 336.0744
193.7679, 323.0667
194.2500, 310.2720
194.7322, 298.0504
195.2143, 287.3701
195.6964, 278.4272
196.1785, 271.0553
196.6606, 265.0604
197.1427, 260.2378
197.6249, 256.2073
198.1070, 252.6458
198.5891, 249.6066
199.0712, 247.6558
199.5533, 247.1779
200.0354, 247.5307
200.5176, 248.4375
200.9997, 249.9278
201.4818, 252.1314
201.9639, 255.2240
202.4460, 259.2215
202.9281, 263.3596
203.4103, 266.7524
203.8924, 271.1200
204.3745, 277.3061
204.8566, 285.0049
205.3387, 293.2384
205.8208, 301.1388
206.3030, 308.6340
206.7851, 316.8271
207.2672, 327.6744
207.7493, 337.3693
208.2314, 345.0772
208.7135, 350.3459
209.1957, 352.6419
209.6778, 351.5107
210.1599, 346.8721
210.6420, 338.3270
211.1241, 325.8178
211.6062, 310.4174
212.0884, 291.4078
212.5705, 269.5508
213.0526, 247.1667
213.5347, 225.9485
214.0168, 206.0168
214.4989, 188.4839
214.9811, 173.6038
215.4632, 160.6081
215.9453, 149.1905
216.4274, 139.2539
216.9095, 130.5899
217.3916, 123.1073
217.8737, 116.9208
218.3559, 111.5574
218.8380, 107.1268
219.3201, 103.3929
219.8022, 100.2924
220.2843, 97.81918
220.7664, 95.55086
221.2486, 93.12269
221.7307, 90.60919
222.2128, 88.41726
222.6949, 86.63805
223.1770, 85.18674
223.6591, 84.02998
224.1413, 83.18775
224.6234, 82.47340
225.1055, 81.79916
225.5876, 81.16093
226.0697, 80.55525
226.5518, 79.89214
227.0340, 79.30921
227.5161, 79.03645
227.9982, 79.12466
228.4803, 79.35106
228.9624, 79.56182
229.4445, 79.82959
229.9267, 80.26343
230.4088, 80.85760
230.8909, 81.67397
231.3730, 82.87667
231.8551, 84.59558
232.3372, 86.37621
232.8194, 88.04454
233.3015, 89.66961
233.7836, 91.34487
234.2657, 93.11996
234.7478, 94.94969
235.2299, 96.74073
235.7121, 98.52850
236.1942, 100.2127
236.6763, 101.6121
237.1584, 102.9691
237.6405, 104.5100
238.1227, 106.3220
238.6048, 108.4408
239.0869, 110.9816
239.5690, 114.1911
240.0511, 117.4375
240.5332, 120.2595
241.0154, 123.1866
241.4975, 126.7539
241.9796, 131.1909
242.4617, 136.2505
242.9438, 141.2257
243.4259, 145.7234
243.9081, 150.8524
244.3902, 156.3942
244.8723, 162.6731
245.3544, 170.0766
245.8365, 178.7760
246.3186, 188.4072
246.8008, 198.2381
247.2829, 207.8756
247.7650, 218.3431
248.2471, 229.4035
248.7292, 241.3611
249.2113, 254.8708
249.6935, 270.0667
250.1756, 285.9929
250.6577, 300.9290
251.1398, 316.3405
251.6219, 328.0104
252.1040, 337.4117
252.5862, 342.4561
253.0683, 340.9569
253.5504, 332.3745
254.0325, 318.0725
254.5146, 299.9348
254.9967, 274.9073
255.4789, 251.6043
255.9610, 229.5726
256.4431, 209.5904
256.9252, 192.2537
257.4073, 177.6856
257.8894, 165.6684
258.3716, 155.9257
258.8537, 149.0193
259.3358, 143.7385
259.8179, 140.4414
260.3000, 138.5246
260.7821, 137.5910
261.2643, 137.5431
261.7464, 138.2405
262.2285, 139.4883
262.7106, 141.3192
263.1927, 144.2144
263.6748, 148.8119
264.1570, 154.0715
264.6391, 158.9390
265.1212, 163.3414
265.6033, 168.2006
266.0854, 174.3529
266.5675, 181.9169
267.0497, 189.8699
267.5318, 198.1975
268.0139, 206.8651
268.4960, 216.2680
268.9781, 226.3136
269.4602, 235.7537
269.9424, 243.7232
270.4245, 250.1116
270.9066, 255.5417
271.3887, 260.1411
271.8708, 263.7070
272.3529, 265.8165
272.8351, 266.5569
273.3172, 266.7548
273.7993, 266.5176
274.2814, 266.2298
274.7635, 266.8947
275.2456, 268.6797
275.7278, 271.2517
276.2099, 274.2471
276.6920, 277.7332
277.1741, 282.2377
277.6562, 287.8079
278.1383, 294.8694
278.6205, 303.4769
279.1026, 313.6898
279.5847, 325.4863
280.0668, 338.7935
280.5489, 353.6881
281.0310, 370.3135
281.5132, 388.7735
281.9953, 409.1660
282.4774, 430.9408
282.9595, 454.0124
283.4416, 478.7379
283.9237, 504.9767
284.4059, 532.8829
284.8880, 563.5670
285.3701, 597.5739
285.8522, 634.1279
286.3343, 672.4014
286.8164, 712.3010
287.2986, 752.9811
287.7807, 795.1241
288.2628, 837.9193
288.7449, 878.9907
289.2270, 919.8699
289.7091, 955.4629
290.1913, 985.0566
290.6734, 1007.779
291.1555, 1018.938
291.6376, 1017.589
292.1197, 1003.036
292.6018, 971.5521
293.0840, 919.4168
293.5661, 858.4959
294.0482, 792.8745
294.5303, 724.9619
295.0124, 657.9178
295.4945, 591.7654
295.9767, 528.4510
296.4588, 471.1454
296.9409, 419.6391
297.4230, 374.8803
297.9051, 339.0271
298.3872, 309.3123
298.8694, 283.4014
299.3515, 260.9899
299.8336, 241.4850
300.3157, 224.1374
300.7978, 208.9094
301.2799, 195.5050
301.7621, 184.1414
302.2442, 174.4652
302.7263, 166.4163
303.2084, 160.0849
303.6905, 154.7642
304.1726, 149.6498
304.6548, 144.7268
305.1369, 140.6855
305.6190, 138.0167
306.1011, 136.0935
306.5832, 134.4979
307.0653, 133.1929
307.5475, 132.1425
308.0296, 131.2477
308.5117, 130.5335
308.9938, 130.3365
309.4759, 130.9955
309.9580, 131.8685
310.4402, 132.6591
310.9223, 133.3162
311.4044, 133.6808
311.8865, 133.6042
312.3686, 133.1383
312.8507, 132.4852
313.3329, 131.5698
313.8150, 130.5909
314.2971, 129.5035
314.7792, 128.4388
315.2613, 127.6340
315.7434, 127.1735
316.2256, 127.0505
316.7077, 127.1997
317.1898, 127.5322
317.6719, 128.4151
318.1540, 130.1278
318.6361, 132.4093
319.1183, 135.0073
319.6004, 137.8229
320.0825, 141.0369
320.5646, 144.8572
321.0467, 149.2721
321.5288, 154.3652
322.0110, 160.2179
322.4931, 166.8002
322.9752, 173.9372
323.4573, 181.5620
323.9394, 190.3123
324.4215, 201.0557
324.9037, 213.6949
325.3858, 226.7381
325.8679, 239.9605
326.3500, 253.5097
326.8321, 268.0565
327.3142, 283.3100
327.7964, 297.4371
328.2785, 310.3143
328.7606, 321.3502
329.2427, 328.0824
329.7248, 331.1566
330.2069, 328.0643
330.6891, 316.6773
331.1712, 298.8664
331.6533, 278.0357
332.1354, 254.2153
332.6175, 229.0915
333.0996, 205.7207
333.5818, 183.6949
334.0639, 164.4285
334.5460, 149.6050
335.0281, 137.6685
335.5102, 127.3715
335.9923, 118.4369
336.4745, 110.8080
336.9566, 104.4863
337.4387, 99.53297
337.9208, 95.27327
338.4029, 91.79080
338.8850, 88.74687
339.3671, 85.70473
339.8492, 82.58311
340.3314, 79.98074
340.8135, 78.64339
341.2956, 78.34508
341.7777, 77.68748
342.2598, 76.15326
342.7419, 74.60160
343.2241, 73.80421
343.7062, 73.64287
344.1883, 73.57980
344.6704, 73.36540
345.1525, 73.07030
345.6346, 72.84238
346.1168, 72.69091
346.5989, 72.60122
347.0810, 72.64156
347.5631, 72.73189
348.0452, 72.72630
348.5273, 72.60072
349.0095, 72.35245
349.4916, 72.03960
349.9737, 71.66924
350.4558, 70.96268
350.9379, 69.60111
351.4200, 67.92516
351.9022, 66.51311
352.3843, 65.46887
352.8664, 64.48495
353.3485, 63.35181
353.8306, 62.11108
354.3127, 60.91114
354.7949, 59.74807
355.2770, 58.71077
355.7591, 57.93870
356.2412, 57.42308
356.7233, 56.92549
357.2054, 56.33709
357.6876, 55.72117
358.1697, 55.17244
358.6518, 54.70278
359.1339, 54.30076
359.6160, 53.97968
360.0981, 53.72678
360.5803, 53.48178
361.0624, 53.24125
361.5445, 53.00446
362.0266, 52.77567
362.5087, 52.55317
362.9908, 52.32862
363.4730, 52.10130
363.9551, 51.86580
364.4372, 51.59666
364.9193, 51.23176
365.4014, 50.93792
365.8835, 50.78348
366.3657, 50.74933
366.8478, 50.84984
367.3299, 51.12603
367.8120, 51.38721
368.2941, 51.29628
368.7762, 50.77902
369.2584, 50.27394
369.7405, 49.73690
370.2226, 49.29917
370.7047, 49.14648
371.1868, 49.28371
371.6689, 49.48007
372.1511, 49.52597
372.6332, 49.41274
373.1153, 49.37531
373.5974, 49.52848
374.0795, 49.63782
374.5616, 49.54012
375.0438, 49.30442
375.5259, 49.11988
376.0080, 49.09743
376.4901, 49.18308
376.9722, 49.18587
377.4543, 48.78724
377.9365, 48.71378
378.4186, 49.34352
378.9007, 50.19812
379.3828, 50.68604
379.8649, 50.66327
380.3470, 50.51791
380.8292, 50.81319
381.3113, 51.78273
381.7934, 52.50615
382.2755, 52.83050
382.7576, 53.07760
383.2397, 53.41969
383.7219, 53.85319
384.2040, 54.27352
384.6861, 54.58138
385.1682, 54.79513
385.6503, 55.20208
386.1324, 55.95775
386.6146, 56.74595
387.0967, 57.41649
387.5788, 58.11800
388.0609, 59.03580
388.5430, 60.24661
389.0251, 61.70989
389.5073, 63.39545
389.9894, 65.51681
390.4715, 67.41214
390.9536, 68.73416
391.4357, 70.08849
391.9178, 71.96084
392.4000, 74.32524
392.8821, 76.73318
393.3642, 78.66045
393.8463, 80.08176
394.3284, 82.00269
394.8105, 84.63460
395.2927, 87.59795
395.7748, 90.84158
396.2569, 94.29085
396.7390, 97.91336
397.2211, 101.7527
397.7032, 105.6247
398.1854, 109.1418
398.6675, 112.3759
399.1496, 115.0642
399.6317, 117.0804
400.1138, 118.5671
400.5959, 119.5944
401.0781, 120.1735
401.5602, 120.2360
402.0423, 119.2755
402.5244, 117.4566
403.0065, 116.5711
403.4886, 116.7327
403.9708, 118.0989
404.4529, 120.7478
404.9350, 124.5233
405.4171, 129.0960
405.8992, 134.4750
406.3813, 140.4751
406.8635, 147.1843
407.3456, 154.7632
407.8277, 161.7693
408.3098, 168.6131
408.7919, 173.7932
409.2740, 175.1464
409.7562, 172.2110
410.2383, 166.3672
410.7204, 157.0719
411.2025, 145.4050
411.6846, 134.1177
412.1667, 123.5041
412.6489, 114.4179
413.1310, 108.2044
413.6131, 104.6756
414.0952, 102.5645
414.5773, 102.2284
415.0594, 102.8329
415.5416, 103.9949
416.0237, 105.5517
416.5058, 106.8322
416.9879, 107.5625
417.4700, 107.5887
417.9521, 106.1053
418.4343, 102.8769
418.9164, 98.73145
419.3985, 93.30311
419.8806, 87.25745
420.3627, 81.48326
420.8448, 76.25362
421.3270, 71.58501
421.8091, 67.50240
422.2912, 64.09939
422.7733, 61.19278
423.2554, 58.73792
423.7375, 56.77494
424.2197, 55.58797
424.7018, 54.97589
425.1839, 54.35535
425.6660, 53.27934
426.1481, 51.86229
426.6302, 50.86233
427.1124, 50.52565
427.5945, 50.35851
428.0766, 50.46440
428.5587, 50.62685
429.0408, 50.61895
429.5229, 50.37861
430.0051, 50.03709
430.4872, 49.70533
430.9693, 49.28801
431.4514, 49.28351
431.9335, 50.45399
432.4156, 51.37618
432.8978, 51.32755
433.3799, 50.54891
433.8620, 49.69593
434.3441, 49.08218
434.8262, 48.75105
435.3083, 48.95370
435.7905, 49.97234
436.2726, 50.73837
436.7547, 50.59728
437.2368, 50.17512
437.7189, 50.01076
438.2010, 50.21282
438.6832, 50.52859
439.1653, 50.80505
439.6474, 51.02915
440.1295, 51.10966
440.6116, 50.97257
441.0938, 50.80397
441.5759, 50.65994
442.0580, 50.58901
442.5401, 50.80669
443.0222, 51.71314
443.5043, 52.69967
443.9865, 53.04707
444.4686, 52.82803
444.9507, 52.73016
445.4328, 53.08152
445.9149, 53.74656
446.3970, 54.41485
446.8792, 55.05623
447.3613, 55.77381
447.8434, 56.65467
448.3255, 57.60023
448.8076, 58.50565
449.2897, 59.35325
449.7719, 60.12840
450.2540, 60.78386
450.7361, 61.30862
451.2182, 62.07874
451.7003, 63.11086
452.1824, 64.32581
452.6646, 65.65237
453.1467, 67.15610
453.6288, 69.01866
454.1109, 71.32598
454.5930, 73.80034
455.0751, 75.90022
455.5573, 77.42891
456.0394, 78.94650
456.5215, 80.37920
457.0036, 81.86247
457.4857, 83.63846
457.9678, 85.57146
458.4500, 87.20885
458.9321, 88.08156
459.4142, 88.40959
459.8963, 89.51595
460.3784, 91.65083
460.8605, 94.15658
461.3427, 96.91518
461.8248, 99.89442
462.3069, 103.1686
462.7890, 106.7545
463.2711, 110.3226
463.7532, 113.3441
464.2354, 115.9024
464.7175, 118.9372
465.1996, 122.6202
465.6817, 126.7106
466.1638, 130.9241
466.6459, 135.3695
467.1281, 140.3915
467.6102, 146.1063
468.0923, 152.4239
468.5744, 159.1358
469.0565, 166.3172
469.5386, 174.1834
470.0208, 182.7974
470.5029, 192.1890
470.9850, 202.2771
471.4671, 212.9374
471.9492, 224.6521
472.4313, 237.3968
472.9135, 251.3962
473.3956, 266.9115
473.8777, 283.9278
474.3598, 302.4493
474.8419, 322.5137
475.3240, 344.0618
475.8062, 366.0817
476.2883, 389.0889
476.7704, 411.9774
477.2525, 435.7929
477.7346, 458.7791
478.2167, 479.7253
478.6989, 498.0407
479.1810, 511.8945
479.6631, 519.5125
480.1452, 521.3466
480.6273, 514.0626
481.1094, 493.3234
481.5916, 467.7661
482.0737, 437.5291
482.5558, 404.7778
483.0379, 372.0666
483.5200, 340.2109
484.0021, 310.2805
484.4843, 284.1837
484.9664, 261.9509
485.4485, 242.9539
485.9306, 227.7456
486.4127, 215.4585
486.8948, 205.8624
487.3770, 198.7390
487.8591, 193.3594
488.3412, 189.2085
488.8233, 186.5641
489.3054, 186.1671
489.7875, 188.1129
490.2697, 191.4039
490.7518, 195.8399
491.2339, 201.2271
491.7160, 207.0528
492.1981, 213.3090
492.6802, 219.9291
493.1624, 226.6560
493.6445, 233.7648
494.1266, 241.6151
494.6087, 250.3039
495.0908, 259.7336
495.5729, 269.8029
496.0551, 280.5217
496.5372, 292.7377
497.0193, 306.0454
497.5014, 321.0055
497.9835, 337.6469
498.4656, 356.1498
498.9478, 376.7108
499.4299, 399.4122
499.9120, 424.3956
500.3941, 451.5775
500.8762, 480.9529
501.3583, 513.3839
501.8405, 549.2091
502.3226, 587.6726
502.8047, 628.0222
503.2868, 670.9628
503.7689, 717.4431
504.2510, 768.5645
504.7331, 822.0826
505.2152, 875.4045
505.6974, 929.6876
506.1795, 977.7437
506.6616, 1020.593
507.1437, 1053.294
507.6258, 1075.258
508.1079, 1085.670
508.5901, 1079.668
509.0722, 1052.721
509.5543, 1009.168
510.0364, 952.2376
510.5185, 882.2894
511.0006, 807.5817
511.4828, 729.4625
511.9649, 651.4534
512.4470, 580.9525
512.9291, 517.3454
513.4113, 460.6124
513.8934, 412.2095
514.3755, 370.2595
514.8576, 333.7538
515.3397, 302.1611
515.8218, 274.9272
516.3040, 251.6973
516.7861, 232.1968
517.2682, 214.7756
517.7503, 199.9438
518.2324, 186.7188
518.7145, 175.2565
519.1967, 165.1118
519.6788, 155.8947
520.1609, 147.5025
520.6430, 139.9937
521.1251, 133.5407
521.6072, 128.0869
522.0894, 122.8576
522.5715, 117.7520
523.0536, 113.0363
523.5357, 108.7567
524.0178, 104.8728
524.4999, 101.3962
524.9821, 98.34379
525.4642, 95.48753
525.9463, 92.48909
526.4284, 89.47597
526.9105, 87.00185
527.3926, 85.27494
527.8748, 83.74693
528.3569, 82.00677
528.8390, 80.11855
529.3211, 78.27724
529.8032, 76.37852
530.2853, 74.67959
530.7675, 73.48395
531.2496, 72.56673
531.7317, 71.45082
532.2138, 69.98924
532.6959, 68.47185
533.1780, 67.27257
533.6602, 66.10139
534.1423, 65.72218
534.6244, 65.18787
535.1065, 64.50686
535.5886, 63.23983
536.0707, 62.72962
536.5529, 61.91586
537.0350, 61.08995
537.5171, 60.68615
537.9992, 59.50434
538.4813, 59.09384
538.9634, 58.37554
539.4456, 57.79787
539.9277, 56.91534
540.4098, 56.12696
540.8919, 55.38137
541.3740, 54.67765
541.8561, 54.06243
542.3383, 53.58083
542.8204, 53.38114
543.3025, 53.42375
543.7846, 53.30386
544.2667, 52.86265
544.7488, 52.34868
545.2310, 52.06215
545.7131, 51.97360
546.1952, 51.81215
546.6773, 51.52147
547.1594, 51.16280
547.6415, 50.75905
548.1237, 50.31948
548.6058, 49.82786
549.0879, 49.27499
549.5700, 48.75156
550.0521, 48.41621
550.5342, 48.33693
551.0164, 48.24912
551.4985, 48.19699
551.9806, 48.09450
552.4627, 47.82624
552.9448, 47.49272
553.4269, 47.28012
553.9091, 47.27969
554.3912, 47.40665
554.8733, 47.56997
555.3554, 47.80913
555.8375, 47.79549
556.3196, 47.26628
556.8018, 46.72631
557.2839, 46.49360
557.7660, 46.50236
558.2481, 46.57837
558.7302, 46.74836
559.2123, 46.85427
559.6945, 46.62419
560.1766, 46.15653
560.6587, 45.95614
561.1408, 46.24978
561.6229, 46.60449
562.1050, 46.41086
562.5872, 45.54013
563.0693, 45.07621
563.5514, 45.20112
564.0335, 45.56612
564.5156, 46.18185
564.9977, 46.87152
565.4799, 47.33755
565.9620, 47.46205
566.4441, 47.39846
566.9262, 47.37611
567.4083, 47.39486
567.8904, 47.45285
568.3726, 47.37167
568.8547, 47.52921
569.3368, 48.23692
569.8189, 49.22588
570.3010, 50.03811
570.7831, 50.49074
571.2653, 50.83792
571.7474, 51.43328
572.2295, 52.22814
572.7116, 52.77944
573.1937, 52.87321
573.6758, 53.07042
574.1580, 54.00700
574.6401, 55.46783
575.1222, 56.60537
575.6043, 56.98086
576.0864, 57.42621
576.5685, 58.46646
577.0507, 59.80759
577.5328, 60.98310
578.0149, 61.87292
578.4970, 62.60944
578.9791, 63.38079
579.4612, 64.21258
579.9434, 64.43449
580.4255, 63.49681
580.9076, 62.57859
581.3897, 62.17905
581.8718, 61.74994
582.3539, 60.61530
582.8361, 58.65561
583.3182, 56.42250
583.8003, 54.33870
584.2824, 52.41537
584.7645, 50.78664
585.2466, 49.49604
585.7288, 48.35526
586.2108, 47.24187
586.6929, 46.24353
587.1750, 45.55122
587.6572, 45.25790
588.1393, 44.91845
588.6214, 44.24078
589.1035, 43.44539
589.5856, 42.83680
590.0677, 42.43065
590.5499, 42.07738
591.0320, 41.69061
591.5141, 41.26450
591.9962, 40.77905
592.4783, 39.99603
592.9604, 39.50647
593.4426, 39.52477
593.9247, 39.66216
594.4068, 39.68401
594.8889, 39.57775
595.3710, 39.40826
595.8531, 39.19387
596.3353, 38.99294
596.8174, 38.95755
597.2995, 39.11384
597.7816, 39.29670
598.2637, 39.52971
598.7458, 39.71024
599.2280, 39.63012
599.7101, 39.37703
600.1922, 39.43320
600.6743, 40.44783
601.1564, 41.40120
601.6385, 41.25237
602.1207, 40.32820
602.6028, 39.60835
603.0849, 39.42462
603.5670, 39.48300
604.0491, 39.40252
604.5313, 39.13290
605.0134, 39.04211
605.4955, 39.34750
605.9776, 39.55720
606.4597, 39.42005
606.9418, 39.13919
607.4240, 38.97561
607.9061, 39.00527
608.3882, 39.13161
608.8703, 39.25985
609.3524, 39.39059
609.8345, 39.55777
610.3167, 39.82494
610.7988, 39.96749
611.2809, 39.69732
611.7630, 39.31706
612.2451, 39.26440
612.7272, 39.63506
613.2094, 40.04679
613.6915, 40.33529
614.1736, 40.56483
614.6557, 40.79015
615.1378, 41.02752
615.6199, 41.31751
616.1021, 41.68572
616.5842, 42.11718
617.0663, 42.56281
617.5484, 43.00809
618.0305, 43.50233
618.5126, 44.07811
618.9948, 44.66706
619.4769, 45.27451
619.9590, 45.85890
620.4411, 46.31262
620.9232, 46.55894
621.4053, 46.75133
621.8875, 47.10265
622.3696, 47.61193
622.8517, 48.31901
623.3338, 49.30034
623.8159, 50.34399
624.2980, 51.24736
624.7802, 52.06438
625.2623, 52.97406
625.7444, 53.96628
626.2265, 55.08956
626.7086, 56.39356
627.1907, 57.83503
627.6729, 59.44205
628.1550, 61.17955
628.6371, 62.75361
629.1192, 63.85195
629.6013, 64.57835
630.0834, 65.77338
630.5656, 67.83075
631.0477, 69.71439
631.5298, 71.44011
632.0119, 72.82623
632.4940, 73.67265
632.9761, 74.02594
633.4583, 74.17698
633.9404, 74.30389
634.4225, 74.32321
634.9046, 74.13797
635.3867, 73.74095
635.8688, 72.99006
636.3510, 71.73763
636.8331, 70.36319
637.3152, 69.32207
637.7973, 68.64742
638.2794, 67.94437
638.7615, 67.06938
639.2437, 66.31668
639.7258, 65.72523
640.2079, 65.36043
640.6900, 65.33068
641.1721, 65.64960
641.6542, 66.20799
642.1364, 66.93437
642.6185, 67.81079
643.1006, 68.56851
643.5827, 69.11665
644.0648, 69.74354
644.5469, 70.76422
645.0291, 71.77160
645.5112, 72.38692
645.9933, 72.58283
646.4754, 72.62062
646.9575, 72.76418
647.4396, 72.70320
647.9218, 72.03003
648.4039, 70.82578
648.8860, 69.51218
649.3681, 68.26970
649.8502, 66.84623
650.3323, 64.78643
650.8145, 61.86964
651.2966, 59.32810
651.7787, 57.39872
652.2608, 55.56025
652.7429, 53.71951
653.2250, 51.85859
653.7072, 49.90843
654.1893, 47.86327
654.6714, 46.00760
655.1535, 44.62759
655.6356, 43.64987
656.1177, 42.85107
656.5999, 42.24084
657.0820, 41.70157
657.5641, 41.21433
658.0462, 40.73603
658.5283, 40.13807
659.0104, 39.36608
659.4926, 38.76643
659.9747, 38.56453
660.4568, 38.38412
660.9389, 37.93914
661.4210, 37.34063
661.9031, 36.83725
662.3853, 36.52500
662.8674, 36.32958
663.3495, 36.14523
663.8316, 35.96777
664.3137, 35.88588
664.7958, 36.02169
665.2780, 36.02982
665.7601, 35.61934
666.2422, 35.06329
666.7243, 34.69685
667.2064, 34.58087
667.6885, 34.42789
668.1707, 33.89893
668.6528, 33.39902
669.1349, 33.58775
669.6170, 34.29264
670.0991, 34.62817
670.5812, 34.15462
671.0634, 33.35658
671.5455, 33.09298
672.0276, 33.53636
672.5097, 33.86524
672.9918, 34.14280
673.4739, 34.22677
673.9561, 33.93531
674.4382, 33.48219
674.9203, 33.10286
675.4024, 32.85862
675.8845, 32.77061
676.3666, 33.00576
676.8488, 33.36914
677.3309, 33.40025
677.8130, 33.08273
678.2951, 32.72894
678.7772, 32.48161
679.2593, 32.28155
679.7415, 31.99715
680.2236, 31.53071
680.7057, 31.30199
681.1878, 31.43338
681.6699, 31.66365
682.1520, 32.01740
682.6342, 32.34042
683.1163, 32.37447
683.5984, 32.05835
684.0805, 31.66710
684.5626, 31.45893
685.0447, 31.42431
685.5269, 31.58932
686.0090, 32.03653
686.4911, 32.17038
686.9732, 31.34970
687.4553, 30.42286
687.9374, 31.10119
688.4196, 33.64918
688.9017, 35.14729
689.3838, 34.41634
689.8659, 33.24820
690.3480, 32.55201
690.8301, 32.22069
691.3123, 31.96383
691.7944, 31.68596
692.2765, 31.46647
692.7586, 31.42594
693.2407, 31.54507
693.7228, 31.53930
694.2050, 31.35606
694.6871, 31.18510
695.1692, 31.02712
695.6513, 30.96514
696.1334, 31.15957
696.6155, 31.60580
697.0977, 31.87841
697.5798, 31.73101
698.0619, 31.48119
698.5440, 31.31351
699.0261, 31.22964
699.5082, 31.24574
699.9904, 31.35674
700.4725, 31.46613
700.9546, 31.46544
701.4367, 31.36252
701.9188, 31.27069
702.4009, 31.18070
702.8831, 31.12120
703.3652, 31.12218
703.8473, 31.13930
704.3294, 31.12291
704.8115, 31.08443
705.2936, 31.10330
705.7758, 31.30550
706.2579, 31.48458
706.7400, 31.37971
707.2221, 31.13782
707.7042, 31.11799
708.1863, 31.39442
708.6685, 31.72273
709.1506, 31.88001
709.6327, 31.88995
710.1148, 31.93053
710.5969, 32.04625
711.0790, 32.10976
711.5612, 32.11614
712.0433, 32.05852
712.5254, 31.85801
713.0075, 31.58459
713.4896, 31.44273
713.9717, 31.53268
714.4539, 31.73865
714.9360, 32.01264
715.4181, 32.31521
715.9002, 32.56686
716.3823, 32.75309
716.8644, 32.85786
717.3466, 32.86445
717.8287, 32.78766
718.3108, 32.65634
718.7929, 32.22051
719.2750, 32.21673
719.7571, 33.16265
720.2393, 34.02075
720.7214, 34.19198
721.2035, 33.91615
721.6856, 33.70426
722.1677, 33.73843
722.6498, 33.77335
723.1320, 33.48825
723.6141, 33.09286
724.0962, 33.14815
724.5783, 33.64473
725.0604, 33.85911
725.5425, 33.34978
726.0247, 32.48073
726.5068, 31.99099
726.9889, 31.98779
727.4710, 32.04247
727.9531, 32.28469
728.4352, 32.43592
728.9174, 32.33271
729.3995, 32.11871
729.8816, 31.97360
730.3637, 31.93655
730.8458, 31.93724
731.3279, 31.87826
731.8101, 31.85026
732.2922, 32.07499
732.7743, 32.50222
733.2564, 32.80741
733.7385, 32.87403
734.2206, 32.75438
734.7028, 32.46745
735.1849, 31.98300
735.6670, 31.79202
736.1491, 32.30588
736.6312, 32.58520
737.1133, 32.18785
737.5955, 31.71038
738.0776, 31.70880
738.5597, 32.16290
739.0418, 32.65355
739.5239, 33.00962
740.0060, 33.25025
740.4882, 33.34301
740.9703, 33.34037
741.4524, 33.42868
741.9345, 33.64566
742.4166, 33.80325
742.8987, 33.70138
743.3809, 33.44402
743.8630, 33.56783
744.3451, 34.35245
744.8272, 35.01096
745.3093, 35.47160
745.7914, 35.83041
746.2736, 36.05011
746.7557, 36.22159
747.2378, 36.52879
747.7199, 37.04916
748.2020, 37.62447
748.6841, 38.11287
749.1663, 38.58866
749.6484, 39.17087
750.1305, 39.86699
750.6126, 40.65952
751.0947, 41.54853
751.5768, 42.45966
752.0590, 43.25062
752.5411, 43.87788
753.0232, 44.59894
753.5053, 45.44423
753.9874, 46.34714
754.4695, 47.16931
754.9517, 48.10435
755.4338, 49.44119
755.9159, 51.18885
756.3980, 52.85514
756.8801, 54.03510
757.3622, 55.18830
757.8444, 56.68132
758.3265, 58.50591
758.8086, 60.65961
759.2907, 63.11510
759.7728, 65.75385
760.2549, 68.42030
760.7371, 71.15832
761.2192, 74.26005
761.7013, 78.07936
762.1834, 81.34492
762.6655, 83.91237
763.1476, 85.74309
763.6298, 86.80003
764.1119, 87.14815
764.5940, 87.01137
765.0761, 86.59921
765.5582, 85.36307
766.0403, 82.85435
766.5225, 79.50951
767.0046, 75.41490
767.4867, 70.89200
767.9688, 66.77612
768.4509, 63.47787
768.9330, 60.74595
769.4152, 58.17964
769.8973, 55.75409
770.3794, 53.78677
770.8615, 52.36428
771.3436, 51.20102
771.8257, 50.18588
772.3079, 49.36981
772.7900, 48.87747
773.2721, 48.73841
773.7542, 48.52616
774.2363, 48.06022
774.7184, 47.63010
775.2006, 47.49599
775.6827, 47.42904
776.1648, 47.10737
776.6469, 46.49476
777.1290, 45.79808
777.6111, 45.20565
778.0933, 44.59890
778.5754, 43.63521
779.0575, 42.33112
779.5396, 41.21255
780.0217, 40.39471
780.5038, 39.70062
780.9860, 38.97780
781.4681, 38.26491
781.9502, 37.72516
782.4323, 37.48011
782.9144, 37.20196
783.3965, 36.86188
783.8787, 36.50265
784.3608, 36.08749
784.8429, 35.68757
785.3250, 35.47505
785.8071, 35.50589
786.2892, 35.46062
786.7714, 34.89391
787.2535, 34.14290
787.7356, 33.89872
788.2177, 34.11245
788.6998, 34.27541
789.1819, 34.19671
789.6641, 34.07124
790.1462, 34.16753
790.6283, 34.48346
791.1104, 34.48751
791.5925, 33.82658
792.0746, 33.45313
792.5568, 33.77598
793.0389, 34.21767
793.5210, 34.37943
794.0031, 34.31516
794.4852, 34.26934
794.9673, 34.29215
795.4495, 34.39230
795.9316, 34.53888
796.4137, 34.78632
796.8958, 35.31838
797.3779, 36.04538
797.8600, 36.56031
798.3422, 36.64518
798.8243, 36.58484
799.3064, 36.87658
799.7885, 37.53705
800.2706, 38.07191
800.7527, 38.44508
801.2349, 38.77336
801.7170, 38.97034
802.1991, 39.26273
802.6812, 40.06606
803.1633, 41.37785
803.6454, 42.50728
804.1276, 43.21437
804.6097, 43.94112
805.0918, 44.80750
805.5739, 45.79209
806.0560, 46.84089
806.5381, 47.97527
807.0203, 49.32493
807.5024, 50.99998
807.9845, 52.80124
808.4666, 54.41539
808.9487, 55.91486
809.4308, 57.55249
809.9130, 59.36406
810.3951, 61.41623
810.8772, 63.79075
811.3593, 66.33839
811.8414, 68.77989
812.3235, 71.11823
812.8057, 73.38506
813.2878, 75.51321
813.7699, 77.66228
814.2520, 80.28743
814.7341, 82.69095
815.2162, 84.20993
815.6984, 84.78781
816.1805, 84.69018
816.6626, 84.17998
817.1447, 82.87395
817.6268, 80.23778
818.1089, 76.73302
818.5911, 72.91920
819.0732, 68.97736
819.5553, 65.07929
820.0374, 61.29470
820.5195, 57.74374
821.0016, 54.66477
821.4838, 52.06177
821.9659, 49.82648
822.4480, 48.03990
822.9301, 46.31195
823.4122, 44.33241
823.8943, 42.39480
824.3765, 41.04605
824.8586, 40.39766
825.3407, 39.74755
825.8228, 39.01679
826.3049, 38.35501
826.7870, 37.84858
827.2692, 37.40962
827.7513, 36.92350
828.2334, 36.40368
828.7155, 35.98749
829.1976, 35.79493
829.6797, 35.64663
830.1619, 35.24711
830.6440, 34.75761
831.1261, 34.65059
831.6082, 34.93293
832.0903, 35.11240
832.5724, 34.89463
833.0546, 34.47289
833.5367, 34.23233
834.0188, 34.20712
834.5009, 34.11288
834.9830, 33.89968
835.4651, 33.71083
835.9473, 33.44608
836.4294, 33.35444
836.9115, 33.80863
837.3936, 34.77349
837.8757, 35.54977
838.3578, 36.36372
838.8400, 36.55567
839.3221, 35.40945
839.8042, 33.86724
840.2863, 32.76641
840.7684, 32.16148
841.2505, 31.80853
841.7327, 31.59879
842.2148, 31.51595
842.6969, 31.61110
843.1790, 31.80593
843.6611, 31.92735
844.1432, 31.95221
844.6254, 31.69569
845.1075, 31.04086
845.5896, 30.30661
846.0717, 29.91008
846.5538, 29.85360
847.0359, 29.90425
847.5181, 30.14350
848.0002, 30.32980
848.4823, 30.42959
848.9644, 30.44724
849.4465, 30.32342
849.9286, 30.12141
850.4108, 30.03959
850.8929, 30.18902
851.3750, 30.27933
851.8571, 30.15792
852.3392, 29.98136
852.8214, 29.90116
853.3035, 29.86174
853.7856, 29.66407
854.2677, 29.27225
854.7498, 29.02069
855.2319, 29.39402
855.7141, 30.04837
856.1962, 30.16034
856.6783, 29.79550
857.1604, 29.38087
857.6425, 29.01208
858.1246, 28.75689
858.6068, 28.68282
859.0889, 28.75609
859.5710, 28.86256
860.0531, 29.05030
860.5352, 29.14138
861.0173, 29.06695
861.4995, 28.97713
861.9816, 28.98482
862.4637, 28.99258
862.9458, 28.79963
863.4279, 28.36847
863.9100, 28.19461
864.3922, 28.81486
864.8743, 29.25209
865.3564, 28.68235
865.8385, 27.83069
866.3206, 27.61973
866.8027, 28.04913
867.2849, 28.52947
867.7670, 28.75083
868.2491, 28.77585
868.7312, 28.59967
869.2133, 28.30303
869.6954, 28.11859
870.1776, 28.05989
870.6597, 28.04155
871.1418, 28.02752
871.6239, 28.01965
872.1060, 28.02767
872.5881, 28.05106
873.0703, 28.00016
873.5524, 27.81831
874.0345, 27.71392
874.5166, 27.82195
874.9987, 27.91890
875.4808, 27.76786
875.9630, 27.46168
876.4451, 27.27549
876.9272, 27.25304
877.4093, 27.29076
877.8914, 27.41722
878.3735, 27.54738
878.8557, 27.38708
879.3378, 27.30206
879.8199, 28.20551
880.3020, 30.11123
880.7841, 31.27591
881.2662, 29.89367
881.7484, 27.73746
882.2305, 27.01920
882.7126, 27.24707
883.1947, 27.24958
883.6768, 26.86300
884.1589, 26.57080
884.6411, 26.68977
885.1232, 27.04944
885.6053, 27.35782
886.0874, 27.61884
886.5695, 27.67822
887.0516, 27.48980
887.5338, 27.27386
888.0159, 27.11161
888.4980, 26.95921
888.9801, 26.73091
889.4622, 26.42745
889.9443, 26.32952
890.4265, 26.69310
890.9086, 26.89132
891.3907, 26.70353
891.8728, 26.49378
892.3549, 26.50319
892.8370, 26.65132
893.3192, 26.78159
893.8013, 26.87102
894.2834, 26.84795
894.7655, 26.50934
895.2476, 26.20376
895.7297, 26.34501
896.2119, 26.67714
896.6940, 26.70862
897.1761, 26.39437
897.6582, 26.10373
898.1403, 26.09809
898.6224, 26.23603
899.1046, 26.30764
899.5867, 26.32099
900.0688, 26.29749
900.5509, 26.24151
901.0330, 26.22770
901.5151, 26.29850
901.9973, 26.38439
902.4794, 26.36270
902.9615, 26.23313
903.4436, 26.32199
903.9257, 26.82897
904.4078, 27.00998
904.8900, 26.45789
905.3721, 25.86488
905.8542, 25.81318
906.3363, 26.13659
906.8184, 26.32747
907.3005, 26.34976
907.7827, 26.30760
908.2648, 26.17147
908.7469, 26.02098
909.2290, 25.79956
909.7111, 25.64134
910.1932, 25.78258
910.6754, 26.19459
911.1575, 26.50037
911.6396, 26.48508
912.1217, 26.34424
912.6038, 26.16731
913.0859, 26.00353
913.5681, 25.91390
914.0502, 25.90506
914.5323, 26.00481
915.0143, 26.22114
915.4965, 26.38849
915.9786, 26.22762
916.4607, 25.86978
916.9428, 25.83654
917.4249, 26.09857
917.9070, 26.26734
918.3892, 26.25206
918.8713, 26.07013
919.3534, 25.69864
919.8355, 25.23563
920.3176, 24.99158
920.7997, 25.01324
921.2819, 25.08521
921.7640, 25.26313
922.2461, 25.37585
922.7282, 25.32335
923.2103, 25.19931
923.6924, 25.09193
924.1746, 25.00303
924.6567, 24.99873
925.1388, 25.20763
925.6209, 25.32294
926.1030, 25.19680
926.5851, 25.04885
927.0673, 25.04860
927.5494, 25.12766
928.0315, 25.16308
928.5136, 25.12714
928.9957, 24.99427
929.4778, 24.59302
929.9600, 24.24819
930.4421, 24.21298
930.9242, 24.41425
931.4063, 24.86618
931.8884, 25.45081
932.3705, 25.75445
932.8527, 25.52149
933.3348, 25.10087
933.8169, 24.98925
934.2990, 25.03760
934.7811, 24.71231
935.2632, 24.08728
935.7454, 23.87785
936.2275, 24.32045
936.7096, 24.94005
937.1917, 25.29018
937.6738, 25.41397
938.1559, 25.47130
938.6381, 25.46174
939.1202, 25.36381
939.6023, 25.12918
940.0844, 24.96774
940.5665, 25.02530
941.0486, 25.16182
941.5308, 25.14491
942.0129, 24.95301
942.4950, 24.84344
942.9771, 24.83573
943.4592, 24.88144
943.9413, 25.03465
944.4235, 25.17775
944.9056, 25.19669
945.3877, 25.16140
945.8698, 25.25556
946.3519, 25.56202
946.8340, 25.72040
947.3162, 25.47229
947.7983, 25.24535
948.2804, 25.31567
948.7625, 25.49349
949.2446, 25.54732
949.7267, 25.47955
950.2089, 25.43082
950.6910, 25.45586
951.1731, 25.53901
951.6552, 25.76940
952.1373, 25.97730
952.6194, 25.87546
953.1016, 25.58287
953.5837, 25.40405
954.0658, 25.42681
954.5479, 25.57878
955.0300, 25.86101
955.5121, 26.11891
955.9943, 25.94596
956.4764, 25.49399
956.9585, 25.41634
957.4406, 25.75726
957.9227, 26.10716
958.4048, 26.27887
958.8870, 26.35838
959.3691, 26.44934
959.8512, 26.55372
960.3333, 26.70613
960.8154, 26.92409
961.2975, 27.04571
961.7797, 27.01728
962.2618, 26.96386
962.7439, 26.94036
963.2260, 26.97706
963.7081, 27.15182
964.1902, 27.50219
964.6724, 27.79643
965.1545, 28.06075
965.6366, 28.22029
966.1187, 28.08474
966.6008, 28.00389
967.0829, 28.30460
967.5651, 28.87112
968.0472, 29.34333
968.5293, 29.65775
969.0114, 29.99526
969.4935, 30.50236
969.9756, 30.89600
970.4578, 30.82392
970.9399, 30.73334
971.4220, 31.17626
971.9041, 32.09577
972.3862, 32.97925
972.8683, 33.67165
973.3505, 34.25150
973.8326, 34.70054
974.3147, 35.11104
974.7968, 35.52407
975.2789, 35.97413
975.7610, 36.55486
976.2432, 37.25179
976.7253, 37.86976
977.2074, 38.30215
977.6895, 38.55930
978.1716, 38.59790
978.6537, 38.49657
979.1359, 38.37416
979.6180, 38.24234
980.1001, 38.16052
980.5822, 38.12670
981.0643, 37.81065
981.5464, 36.74845
982.0286, 35.31420
982.5107, 34.43319
982.9928, 33.99497
983.4749, 33.50225
983.9570, 32.87827
984.4391, 32.03325
984.9213, 30.89759
985.4034, 29.78156
985.8855, 29.18070
986.3676, 29.02081
986.8497, 28.64733
987.3318, 28.03199
987.8140, 27.51687
988.2961, 27.14900
988.7782, 27.01149
989.2603, 27.24740
989.7424, 27.58352
990.2245, 27.39348
990.7067, 26.55732
991.1888, 26.22318
991.6709, 26.69279
992.1530, 26.90084
992.6351, 26.40559
993.1172, 25.86843
993.5994, 25.79479
994.0815, 26.07104
994.5636, 26.34764
995.0457, 26.58053
995.5278, 26.93766
996.0099, 27.57552
996.4921, 28.13485
996.9742, 28.55602
997.4563, 28.83736
997.9384, 28.89478
998.4205, 28.80874
998.9026, 28.83422
999.3848, 28.94700
999.8669, 29.31270
1000.349, 30.32465
1000.831, 31.17448
1001.313, 31.24378
1001.795, 31.11040
1002.277, 31.48809
1002.760, 32.30856
1003.242, 32.92871
1003.724, 32.96827
1004.206, 33.23088
1004.688, 34.33946
1005.170, 35.56229
1005.652, 36.35940
1006.134, 36.88626
1006.617, 37.39247
1007.099, 37.93591
1007.581, 38.51783
1008.063, 39.20448
1008.545, 39.77058
1009.027, 39.86868
1009.509, 39.87719
1009.991, 40.31628
1010.473, 41.01550
1010.956, 41.51571
1011.438, 41.73454
1011.920, 41.95597
1012.402, 42.37574
1012.884, 42.88432
1013.366, 43.42840
1013.848, 43.92616
1014.330, 44.23879
1014.813, 44.36001
1015.295, 44.28891
1015.777, 44.03667
1016.259, 43.68958
1016.741, 43.30778
1017.223, 42.90810
1017.705, 42.49827
1018.187, 42.09817
1018.669, 41.84032
1019.152, 41.69677
1019.634, 41.29072
1020.116, 40.49468
1020.598, 39.94680
1021.080, 40.36758
1021.562, 41.41381
1022.044, 42.08873
1022.526, 42.44117
1023.008, 42.97508
1023.491, 43.74098
1023.973, 44.57678
1024.455, 45.41396
1024.937, 46.28224
1025.419, 47.19394
1025.901, 48.18596
1026.383, 49.44912
1026.865, 50.99386
1027.348, 52.65256
1027.830, 54.41898
1028.312, 56.27836
1028.794, 58.22841
1029.276, 60.26923
1029.758, 62.40724
1030.240, 64.62861
1030.722, 66.79903
1031.204, 69.03026
1031.687, 70.66267
1032.169, 71.58739
1032.651, 72.06412
1033.133, 72.26954
1033.615, 71.97047
1034.097, 70.78055
1034.579, 68.75660
1035.061, 66.81250
1035.544, 65.10281
1036.026, 63.06730
1036.508, 60.54388
1036.990, 57.89848
1037.472, 55.19238
1037.954, 52.58131
1038.436, 50.31785
1038.918, 48.39040
1039.401, 46.31899
1039.883, 43.85581
1040.365, 41.73821
1040.847, 40.04201
1041.329, 38.65925
1041.811, 37.66727
1042.293, 36.86428
1042.775, 35.98657
1043.257, 35.04066
1043.740, 34.20695
1044.222, 33.59425
1044.704, 32.92570
1045.186, 31.99157
1045.668, 31.22247
1046.150, 30.98307
1046.632, 30.89660
1047.114, 30.47555
1047.596, 29.73652
1048.079, 29.11187
1048.561, 28.66433
1049.043, 28.29451
1049.525, 28.05463
1050.007, 27.81928
1050.489, 27.50824
1050.971, 27.18051
1051.453, 26.91786
1051.936, 26.71472
1052.418, 26.48670
1052.900, 26.15290
1053.382, 25.90830
1053.864, 25.93035
1054.346, 25.88803
1054.828, 25.50991
1055.310, 25.03805
1055.792, 24.77477
1056.275, 24.71191
1056.757, 24.64465
1057.239, 24.53939
1057.721, 24.40248
1058.203, 24.06409
1058.685, 23.88932
1059.167, 24.29969
1059.649, 24.83440
1060.131, 24.94227
1060.614, 24.64804
1061.096, 24.30832
1061.578, 23.92986
1062.060, 23.74458
1062.542, 24.01339
1063.024, 24.29036
1063.506, 24.35176
1063.988, 24.26224
1064.471, 24.04011
1064.953, 23.74853
1065.435, 23.55757
1065.917, 23.50953
1066.399, 23.57273
1066.881, 23.86805
1067.363, 24.11650
1067.845, 24.08926
1068.328, 23.97871
1068.810, 23.99424
1069.292, 24.12583
1069.774, 24.24609
1070.256, 24.29851
1070.738, 24.46414
1071.220, 24.99575
1071.702, 25.45548
1072.184, 25.46534
1072.667, 25.36953
1073.149, 25.58909
1073.631, 26.01189
1074.113, 26.23071
1074.595, 26.11945
1075.077, 26.04315
1075.559, 26.23537
1076.041, 26.42126
1076.523, 26.31149
1077.006, 26.23524
1077.488, 26.59480
1077.970, 27.22985
1078.452, 27.75396
1078.934, 28.07519
1079.416, 28.29339
1079.898, 28.35106
1080.380, 28.44739
1080.862, 28.69246
1081.345, 29.01771
1081.827, 29.38272
1082.309, 29.77113
1082.791, 30.10627
1083.273, 30.39695
1083.755, 30.91063
1084.237, 31.98935
1084.719, 32.99574
1085.202, 33.47747
1085.684, 33.90887
1086.166, 34.59190
1086.648, 35.52660
1087.130, 36.75948
1087.612, 38.23219
1088.094, 39.57336
1088.576, 40.53888
1089.058, 41.55001
1089.541, 42.73981
1090.023, 44.09694
1090.505, 45.80056
1090.987, 47.54913
1091.469, 48.70940
1091.951, 49.48997
1092.433, 51.10921
1092.915, 54.25956
1093.397, 57.31271
1093.880, 59.37840
1094.362, 61.44135
1094.844, 64.24638
1095.326, 67.20124
1095.808, 69.52464
1096.290, 71.38777
1096.772, 73.62926
1097.254, 76.57751
1097.737, 79.18005
1098.219, 80.94573
1098.701, 82.44348
1099.183, 84.24536
1099.665, 85.62300
1100.147, 85.77220
1100.629, 85.02339
1101.111, 84.22338
1101.594, 83.53851
1102.076, 82.37456
1102.558, 80.24456
1103.040, 78.06331
1103.522, 76.14188
1104.004, 74.24623
1104.486, 72.24785
1104.968, 70.14861
1105.450, 67.89189
1105.932, 65.49557
1106.415, 63.41322
1106.897, 61.85957
1107.379, 60.44370
1107.861, 59.08613
1108.343, 57.85572
1108.825, 56.70653
1109.307, 55.75239
1109.789, 55.23519
1110.272, 55.08356
1110.754, 54.73221
1111.236, 53.89576
1111.718, 53.31846
1112.200, 53.43805
1112.682, 53.34978
1113.164, 52.41883
1113.646, 51.41818
1114.129, 51.13742
1114.611, 51.35797
1115.093, 51.31761
1115.575, 50.90080
1116.057, 50.55123
1116.539, 50.47278
1117.021, 50.14953
1117.503, 49.34874
1117.985, 48.43511
1118.468, 47.69685
1118.950, 46.97629
1119.432, 45.95173
1119.914, 44.59521
1120.396, 43.27668
1120.878, 42.06614
1121.360, 40.72527
1121.842, 39.10517
1122.324, 37.58648
1122.807, 36.36171
1123.289, 35.32553
1123.771, 34.35021
1124.253, 33.43476
1124.735, 32.55695
1125.217, 31.70444
1125.699, 30.90915
1126.181, 30.17085
1126.664, 29.49199
1127.146, 28.86666
1127.628, 28.32827
1128.110, 27.93348
1128.592, 27.62017
1129.074, 27.17110
1129.556, 26.55231
1130.038, 26.21169
1130.521, 26.19124
1131.003, 26.19354
1131.485, 26.18512
1131.967, 25.93122
1132.449, 25.23369
1132.931, 24.39054
1133.413, 23.86197
1133.895, 23.63541
1134.377, 23.69325
1134.859, 24.02114
1135.342, 24.15199
1135.824, 24.02589
1136.306, 23.81770
1136.788, 23.60078
1137.270, 23.42131
1137.752, 23.32861
1138.234, 23.31046
1138.716, 23.39460
1139.199, 23.52705
1139.681, 23.44879
1140.163, 23.17581
1140.645, 22.86395
1141.127, 22.57171
1141.609, 22.37217
1142.091, 22.31575
1142.573, 22.37838
1143.056, 22.58161
1143.538, 22.84847
1144.020, 23.12299
1144.502, 23.30204
1144.984, 22.95499
1145.466, 22.21867
1145.948, 21.92014
1146.430, 22.40253
1146.912, 23.02892
1147.395, 23.26779
1147.877, 23.33007
1148.359, 23.33462
1148.841, 23.39789
1149.323, 23.85096
1149.805, 24.45224
1150.287, 24.55776
1150.769, 24.10612
1151.251, 23.76776
1151.734, 23.90858
1152.216, 24.20946
1152.698, 24.71902
1153.180, 25.03341
1153.662, 24.61581
1154.144, 23.93020
1154.626, 23.57494
1155.108, 23.53752
1155.591, 23.52267
1156.073, 23.46129
1156.555, 23.36464
1157.037, 23.18406
1157.519, 23.03934
1158.001, 23.03611
1158.483, 23.03090
1158.965, 22.94546
1159.448, 22.76655
1159.930, 22.45937
1160.412, 22.02434
1160.894, 21.61110
1161.376, 21.05145
1161.858, 20.80778
1162.340, 21.33099
1162.822, 21.64596
1163.304, 21.14779
1163.786, 20.53810
1164.269, 20.51379
1164.751, 20.89890
1165.233, 21.07500
1165.715, 20.96162
1166.197, 21.01465
1166.679, 21.35319
1167.161, 21.51884
1167.643, 21.39399
1168.126, 21.14280
1168.608, 20.82874
1169.090, 20.51676
1169.572, 20.30367
1170.054, 20.17928
1170.536, 20.05244
1171.018, 19.91500
1171.500, 20.01479
1171.983, 20.38628
1172.465, 20.56903
1172.947, 20.39559
1173.429, 20.18509
1173.911, 20.21230
1174.393, 20.33678
1174.875, 20.27259
1175.357, 20.08022
1175.839, 19.98873
1176.322, 19.98478
1176.804, 20.02131
1177.286, 20.07104
1177.768, 20.01896
1178.250, 19.81838
1178.732, 19.67591
1179.214, 19.85956
1179.696, 20.11183
1180.178, 20.07472
1180.661, 19.88581
1181.143, 19.66622
1181.625, 19.50686
1182.107, 19.63871
1182.589, 20.02758
1183.071, 20.26521
1183.553, 20.12140
1184.035, 19.94435
1184.518, 19.94637
1185.000, 20.00015
1185.482, 20.02430
1185.964, 20.04627
1186.446, 20.11682
1186.928, 20.20706
1187.410, 20.25813
1187.892, 20.26058
1188.375, 20.18558
1188.857, 19.91888
1189.339, 19.73567
1189.821, 19.68574
1190.303, 19.73939
1190.785, 19.99882
1191.267, 20.26251
1191.749, 20.32830
1192.231, 20.21814
1192.714, 19.99067
1193.196, 19.54778
1193.678, 19.38739
1194.160, 19.63831
1194.642, 19.81038
1195.124, 19.76899
1195.606, 19.76129
1196.088, 19.95851
1196.570, 20.17721
1197.053, 20.13840
1197.535, 19.91491
1198.017, 19.91065
1198.499, 20.11628
1198.981, 20.09656
1199.463, 19.83463
1199.945, 19.61823
1200.427, 19.53143
1200.910, 19.58344
1201.392, 19.79725
1201.874, 20.00031
1202.356, 19.90360
1202.838, 19.64344
1203.320, 19.46735
1203.802, 19.37961
1204.284, 19.39515
1204.766, 19.50318
1205.249, 19.73724
1205.731, 20.06847
1206.213, 20.17767
1206.695, 19.74570
1207.177, 19.32553
1207.659, 19.42282
1208.141, 19.63292
1208.623, 19.56991
1209.105, 19.42714
1209.588, 19.52554
1210.070, 19.77957
1210.552, 19.81927
1211.034, 19.53347
1211.516, 19.38231
1211.998, 19.63842
1212.480, 19.79764
1212.962, 19.58558
1213.445, 19.42634
1213.927, 19.66050
1214.409, 19.96553
1214.891, 19.97058
1215.373, 19.74700
1215.855, 19.62429
1216.337, 19.65472
1216.819, 19.51986
1217.302, 19.10555
1217.784, 19.03031
1218.266, 19.51769
1218.748, 19.86706
1219.230, 19.65742
1219.712, 19.30250
1220.194, 19.35925
1220.676, 19.66546
1221.158, 19.67761
1221.641, 19.45635
1222.123, 19.29396
1222.605, 19.21463
1223.087, 19.24463
1223.569, 19.37533
1224.051, 19.52971
1224.533, 19.66915
1225.015, 19.73387
1225.497, 19.58129
1225.980, 19.40320
1226.462, 19.50200
1226.944, 19.65270
1227.426, 19.43435
1227.908, 19.07725
1228.390, 19.16609
1228.872, 19.71192
1229.354, 20.08944
1229.837, 20.05022
1230.319, 19.93014
1230.801, 19.71228
1231.283, 19.60842
1231.765, 19.88069
1232.247, 20.13206
1232.729, 19.95675
1233.211, 19.59459
1233.693, 19.51127
1234.176, 19.69404
1234.658, 19.76245
1235.140, 19.69950
1235.622, 19.55260
1236.104, 19.26428
1236.586, 19.11435
1237.068, 19.20229
1237.550, 19.36778
1238.032, 19.50286
1238.515, 19.61290
1238.997, 19.70394
1239.479, 19.77845
1239.961, 19.83447
1240.443, 19.88434
1240.925, 20.05323
1241.407, 20.28249
1241.889, 20.22001
1242.372, 19.80933
1242.854, 19.40526
1243.336, 19.21258
1243.818, 19.18251
1244.300, 19.34447
1244.782, 19.56755
1245.264, 19.80710
1245.746, 19.96645
1246.229, 19.86781
1246.711, 19.62849
1247.193, 19.50795
1247.675, 19.53317
1248.157, 19.49407
1248.639, 19.36013
1249.121, 19.11598
1249.603, 18.44588
1250.085, 18.10398
1250.568, 18.55040
1251.050, 19.11323
1251.532, 19.37044
1252.014, 19.45846
1252.496, 19.62623
1252.978, 19.84742
1253.460, 19.79461
1253.942, 19.43399
1254.424, 19.15865
1254.907, 18.99286
1255.389, 18.93711
1255.871, 18.99016
1256.353, 19.06228
1256.835, 19.09626
1257.317, 19.11992
1257.799, 19.13717
1258.281, 19.20002
1258.764, 19.53625
1259.246, 19.90609
1259.728, 19.81059
1260.210, 19.40088
1260.692, 19.02273
1261.174, 18.79671
1261.656, 18.88771
1262.138, 19.46247
1262.620, 19.80830
1263.103, 19.36392
1263.585, 18.92956
1264.067, 18.85026
1264.549, 18.91832
1265.031, 19.02584
1265.513, 19.16018
1265.995, 19.35883
1266.477, 19.58084
1266.959, 19.59415
1267.442, 19.30652
1267.924, 19.19789
1268.406, 19.30057
1268.888, 19.46299
1269.370, 19.68268
1269.852, 19.73067
1270.334, 19.47544
1270.816, 19.18305
1271.299, 19.14787
1271.781, 19.23671
1272.263, 19.14184
1272.745, 18.97540
1273.227, 19.04669
1273.709, 19.26712
1274.191, 19.38993
1274.673, 19.41198
1275.156, 19.48206
1275.638, 19.64560
1276.120, 19.80158
1276.602, 19.95361
1277.084, 19.98163
1277.566, 19.69927
1278.048, 19.42614
1278.530, 19.41457
1279.012, 19.45254
1279.495, 19.26534
1279.977, 18.98099
1280.459, 18.92415
1280.941, 19.09705
1281.423, 19.29850
1281.905, 19.57456
1282.387, 19.67134
1282.869, 19.50563
1283.351, 19.61847
1283.834, 20.21745
1284.316, 20.60005
1284.798, 20.26748
1285.280, 19.65532
1285.762, 19.28992
1286.244, 19.17941
##END=



