##NAMES=Albite
##RRUFFID=R100169
##IDEAL CHEMISTRY=NaAlSi_3_O_8_
##LOCALITY=Rutherford#2 Mine, Amelia, Amelia county, Virginia, USA
##OWNER=RRUFF
##SOURCE=Mineralogical Museum, Harvard University
##DESCRIPTION=White to colorless tabular crystals
##STATUS=The identification of this mineral has been confirmed by single-crystal X-ray diffraction.
##URL=rruff.info/R100169
90.60547, 521.9231
91.08759, 535.7771
91.56970, 547.4579
92.05182, 545.6118
92.53394, 537.7969
93.01605, 527.7678
93.49817, 518.0710
93.98029, 509.1581
94.46240, 499.4773
94.94452, 487.9000
95.42664, 476.5063
95.90874, 466.7225
96.39086, 458.5749
96.87298, 451.2610
97.35509, 443.6230
97.83721, 434.8557
98.31933, 426.4826
98.80145, 417.9160
99.28356, 410.0470
99.76568, 403.6481
100.2478, 398.8900
100.7299, 395.2881
101.2120, 391.7617
101.6941, 386.6364
102.1763, 383.4988
102.6584, 383.1556
103.1405, 384.6857
103.6226, 386.7607
104.1047, 388.5676
104.5868, 390.3723
105.0690, 393.8687
105.5511, 399.6336
106.0332, 406.0385
106.5153, 411.6393
106.9974, 416.7032
107.4795, 423.7354
107.9617, 435.7327
108.4438, 451.3281
108.9259, 465.3674
109.4080, 477.2200
109.8901, 487.2272
110.3722, 496.5450
110.8544, 506.3130
111.3365, 512.1259
111.8186, 511.6357
112.3007, 505.7448
112.7828, 495.3548
113.2649, 479.9252
113.7471, 459.6976
114.2292, 438.6953
114.7113, 414.6174
115.1934, 391.7705
115.6755, 370.8644
116.1576, 352.3803
116.6397, 337.0421
117.1219, 326.0480
117.6040, 321.0174
118.0861, 315.5261
118.5682, 308.4056
119.0503, 301.7183
119.5324, 296.5916
120.0146, 293.3045
120.4967, 291.4830
120.9788, 290.5792
121.4609, 291.4938
121.9430, 292.0677
122.4251, 291.6898
122.9073, 291.1660
123.3894, 291.5106
123.8715, 293.1708
124.3536, 295.6895
124.8357, 297.8629
125.3178, 299.2733
125.8000, 301.2219
126.2821, 304.6177
126.7642, 309.0900
127.2463, 313.2359
127.7284, 316.5910
128.2105, 319.0494
128.6927, 320.4983
129.1748, 320.1406
129.6569, 320.1031
130.1390, 322.8510
130.6211, 328.8643
131.1032, 334.7847
131.5854, 338.4630
132.0675, 341.5387
132.5496, 345.4414
133.0317, 350.6544
133.5138, 357.0578
133.9959, 364.5172
134.4781, 373.6349
134.9602, 383.0156
135.4423, 391.4780
135.9244, 400.0748
136.4065, 410.1299
136.8886, 422.5165
137.3708, 437.2082
137.8529, 452.6933
138.3350, 466.9647
138.8171, 484.1918
139.2992, 505.4756
139.7813, 530.6298
140.2635, 559.1913
140.7456, 590.8074
141.2277, 625.9323
141.7098, 661.7737
142.1919, 701.6873
142.6740, 739.4212
143.1561, 773.9326
143.6383, 804.1406
144.1204, 826.4423
144.6025, 836.5966
145.0846, 832.5349
145.5667, 822.6400
146.0488, 803.2147
146.5310, 779.8574
147.0131, 757.3049
147.4952, 735.8336
147.9773, 717.8251
148.4594, 706.7179
148.9415, 701.3969
149.4237, 699.8076
149.9058, 702.9772
150.3879, 709.4847
150.8700, 715.1598
151.3521, 718.4737
151.8342, 722.1765
152.3164, 727.7291
152.7985, 735.1774
153.2806, 745.1902
153.7627, 757.6281
154.2448, 772.4601
154.7269, 791.9356
155.2091, 818.0500
155.6912, 848.1477
156.1733, 881.4172
156.6554, 917.7518
157.1375, 956.5959
157.6196, 998.0898
158.1018, 1043.878
158.5839, 1087.406
159.0660, 1132.976
159.5481, 1173.605
160.0302, 1205.738
160.5123, 1228.078
160.9945, 1240.190
161.4766, 1241.069
161.9587, 1226.531
162.4408, 1204.846
162.9229, 1172.423
163.4050, 1135.398
163.8871, 1097.757
164.3693, 1061.008
164.8514, 1027.275
165.3335, 1002.063
165.8156, 987.2335
166.2977, 978.4413
166.7798, 976.9828
167.2620, 981.0081
167.7441, 988.4453
168.2262, 998.9177
168.7083, 1011.099
169.1904, 1021.390
169.6725, 1030.992
170.1547, 1037.479
170.6368, 1038.471
171.1189, 1035.170
171.6010, 1031.347
172.0831, 1027.660
172.5652, 1025.482
173.0474, 1026.402
173.5295, 1030.222
174.0116, 1037.404
174.4937, 1048.440
174.9758, 1063.337
175.4579, 1081.224
175.9401, 1102.787
176.4222, 1126.982
176.9043, 1152.422
177.3864, 1178.770
177.8685, 1206.859
178.3506, 1238.369
178.8328, 1274.162
179.3149, 1310.613
179.7970, 1348.309
180.2791, 1385.356
180.7612, 1419.936
181.2433, 1451.670
181.7255, 1480.395
182.2076, 1506.506
182.6897, 1532.700
183.1718, 1550.159
183.6539, 1559.384
184.1360, 1560.068
184.6181, 1551.606
185.1003, 1533.659
185.5824, 1506.705
186.0645, 1472.633
186.5466, 1427.890
187.0287, 1379.023
187.5108, 1324.950
187.9930, 1268.234
188.4751, 1211.428
188.9572, 1156.122
189.4393, 1102.485
189.9214, 1052.196
190.4035, 1005.575
190.8857, 962.0730
191.3678, 921.6757
191.8499, 884.5734
192.3320, 850.9893
192.8141, 821.1376
193.2962, 794.9091
193.7784, 771.4500
194.2605, 750.1216
194.7426, 731.3757
195.2247, 715.3190
195.7068, 701.9286
196.1889, 691.1301
196.6711, 683.0839
197.1532, 677.7167
197.6353, 673.6397
198.1174, 669.5377
198.5995, 667.6782
199.0816, 669.3327
199.5638, 674.3806
200.0459, 681.9086
200.5280, 691.4777
201.0101, 703.5602
201.4922, 717.9139
201.9743, 733.7912
202.4565, 752.7831
202.9386, 776.6384
203.4207, 805.4615
203.9028, 836.9720
204.3849, 871.7850
204.8670, 907.9579
205.3492, 943.1064
205.8313, 978.9938
206.3134, 1010.854
206.7955, 1033.884
207.2776, 1048.749
207.7597, 1051.444
208.2419, 1038.186
208.7240, 1012.412
209.2061, 974.4307
209.6882, 922.5842
210.1703, 862.1601
210.6524, 800.7687
211.1346, 736.9684
211.6167, 677.1327
212.0988, 622.2371
212.5809, 572.3937
213.0630, 527.6613
213.5451, 488.3622
214.0273, 454.1349
214.5094, 424.6359
214.9915, 401.0698
215.4736, 380.6646
215.9557, 362.9400
216.4378, 347.3178
216.9200, 333.1178
217.4021, 320.1237
217.8842, 308.4131
218.3663, 298.4243
218.8484, 290.9891
219.3305, 284.3359
219.8127, 278.1414
220.2948, 272.5510
220.7769, 267.7814
221.2590, 263.9318
221.7411, 260.8178
222.2232, 257.9039
222.7054, 255.4250
223.1875, 252.8805
223.6696, 249.9099
224.1517, 246.9678
224.6338, 244.5217
225.1159, 242.7659
225.5980, 241.7035
226.0802, 241.3720
226.5623, 242.3971
227.0444, 243.4408
227.5265, 244.4040
228.0086, 245.3368
228.4907, 246.1893
228.9729, 246.9157
229.4550, 247.7552
229.9371, 249.3472
230.4192, 251.6451
230.9013, 254.6792
231.3834, 259.2912
231.8656, 264.4593
232.3477, 268.5695
232.8298, 270.9271
233.3119, 272.2739
233.7940, 274.1789
234.2761, 276.6961
234.7583, 279.4440
235.2404, 282.3797
235.7225, 285.4731
236.2046, 288.6469
236.6867, 291.8482
237.1688, 295.2428
237.6510, 299.2975
238.1331, 304.0624
238.6152, 308.7956
239.0973, 312.5560
239.5794, 316.1538
240.0615, 321.3083
240.5437, 328.6089
241.0258, 337.4476
241.5079, 347.1816
241.9900, 357.7618
242.4721, 368.8070
242.9542, 379.4005
243.4364, 390.2950
243.9185, 403.1739
244.4006, 417.8556
244.8827, 435.7383
245.3648, 457.9687
245.8469, 484.1551
246.3290, 513.1801
246.8112, 545.1393
247.2933, 579.4472
247.7754, 615.7284
248.2575, 655.7202
248.7396, 694.3859
249.2217, 731.0394
249.7039, 764.4039
250.1860, 788.6389
250.6681, 801.6699
251.1502, 803.2299
251.6323, 791.7048
252.1144, 764.0147
252.5966, 727.0166
253.0787, 681.8023
253.5608, 631.6949
254.0429, 583.4788
254.5250, 540.4069
255.0071, 502.4110
255.4893, 468.7728
255.9714, 439.2782
256.4535, 415.4715
256.9356, 397.9218
257.4177, 385.3835
257.8998, 375.8253
258.3820, 368.3955
258.8641, 363.1097
259.3462, 360.0883
259.8283, 359.6805
260.3104, 361.2822
260.7925, 364.8278
261.2747, 369.8155
261.7568, 375.4084
262.2389, 381.0290
262.7210, 387.3463
263.2031, 396.4625
263.6852, 409.1710
264.1674, 423.6851
264.6495, 439.4169
265.1316, 456.3979
265.6137, 474.7489
266.0958, 494.5402
266.5779, 515.3362
267.0601, 536.3264
267.5422, 558.7571
268.0243, 578.7850
268.5064, 595.9584
268.9885, 610.9324
269.4706, 624.1302
269.9528, 635.7238
270.4349, 645.6756
270.9170, 653.7900
271.3991, 659.2576
271.8812, 664.2350
272.3633, 667.8370
272.8455, 671.7382
273.3276, 677.1613
273.8097, 684.4178
274.2918, 693.0020
274.7739, 701.8026
275.2560, 708.8506
275.7382, 720.7793
276.2202, 738.2772
276.7024, 758.9913
277.1845, 781.4273
277.6666, 805.4825
278.1487, 831.9830
278.6308, 861.7779
279.1129, 894.3209
279.5951, 932.3722
280.0772, 974.4708
280.5593, 1022.150
281.0414, 1076.035
281.5235, 1136.289
282.0056, 1202.710
282.4878, 1274.519
282.9699, 1351.379
283.4520, 1440.537
283.9341, 1543.328
284.4162, 1655.280
284.8983, 1777.086
285.3805, 1906.947
285.8626, 2042.683
286.3447, 2184.424
286.8268, 2331.316
287.3089, 2462.577
287.7910, 2589.760
288.2732, 2690.714
288.7553, 2764.027
289.2374, 2805.239
289.7195, 2806.167
290.2016, 2761.487
290.6837, 2674.146
291.1659, 2555.263
291.6480, 2385.176
292.1301, 2207.642
292.6122, 2019.924
293.0943, 1831.273
293.5764, 1652.681
294.0586, 1488.201
294.5407, 1338.244
295.0228, 1203.330
295.5049, 1085.952
295.9870, 982.0690
296.4691, 894.3665
296.9513, 818.9333
297.4334, 752.2369
297.9155, 693.3187
298.3976, 641.6621
298.8797, 596.8006
299.3618, 561.3331
299.8440, 529.0961
300.3261, 500.1568
300.8082, 474.5262
301.2903, 452.2589
301.7724, 433.3789
302.2545, 417.1422
302.7367, 402.6518
303.2188, 390.1416
303.7009, 379.2946
304.1830, 370.1472
304.6651, 362.3828
305.1472, 355.9505
305.6294, 350.7554
306.1115, 346.5739
306.5936, 343.2829
307.0757, 340.9145
307.5578, 338.9251
308.0399, 336.7958
308.5221, 335.4565
309.0042, 335.8860
309.4863, 337.5052
309.9684, 338.9122
310.4505, 339.2581
310.9326, 338.5964
311.4148, 337.2080
311.8969, 334.2940
312.3790, 331.6884
312.8611, 329.6012
313.3432, 328.1514
313.8253, 327.5259
314.3075, 327.8321
314.7896, 328.9047
315.2717, 330.3532
315.7538, 332.0347
316.2359, 334.3253
316.7180, 336.9309
317.2001, 340.3066
317.6823, 344.7469
318.1644, 350.3866
318.6465, 357.5240
319.1286, 366.5366
319.6107, 377.1529
320.0928, 390.9963
320.5750, 408.8891
321.0571, 429.3616
321.5392, 450.7176
322.0213, 473.0028
322.5034, 498.4201
322.9855, 528.7810
323.4677, 564.5938
323.9498, 605.5311
324.4319, 654.6350
324.9140, 705.2543
325.3961, 758.3215
325.8782, 810.7815
326.3604, 856.8824
326.8425, 893.4484
327.3246, 919.8097
327.8067, 927.8454
328.2888, 917.0361
328.7709, 891.7151
329.2531, 847.3320
329.7352, 790.0676
330.2173, 727.6289
330.6994, 663.2485
331.1815, 599.3941
331.6636, 542.3232
332.1458, 492.7505
332.6279, 449.9724
333.1100, 415.8662
333.5921, 387.8363
334.0742, 363.7540
334.5563, 343.0640
335.0385, 325.2787
335.5206, 309.9686
336.0027, 297.6663
336.4848, 286.7889
336.9669, 277.2614
337.4490, 268.9303
337.9312, 261.7323
338.4133, 255.6024
338.8954, 250.5715
339.3775, 246.7740
339.8596, 244.3225
340.3417, 241.5968
340.8239, 237.6758
341.3060, 234.4616
341.7881, 232.8800
342.2702, 232.5112
342.7523, 232.4975
343.2344, 232.3281
343.7166, 232.0441
344.1987, 231.8489
344.6808, 231.4443
345.1629, 231.5092
345.6450, 232.7849
346.1271, 234.2872
346.6093, 235.0046
347.0914, 234.5525
347.5735, 233.1205
348.0556, 230.9887
348.5377, 227.4946
349.0198, 224.4764
349.5020, 222.6936
349.9841, 220.7675
350.4662, 217.4529
350.9483, 212.8346
351.4304, 208.1629
351.9125, 204.8268
352.3947, 203.0105
352.8768, 201.3484
353.3589, 200.1440
353.8410, 198.7955
354.3231, 196.8505
354.8052, 194.5998
355.2874, 192.6784
355.7695, 191.5736
356.2516, 191.1085
356.7337, 190.2229
357.2158, 188.3900
357.6979, 186.8498
358.1800, 185.9058
358.6621, 185.3115
359.1443, 184.9054
359.6264, 184.6191
360.1085, 184.2317
360.5906, 183.1558
361.0727, 180.7427
361.5548, 179.3739
362.0370, 180.5306
362.5191, 181.7970
363.0012, 181.3442
363.4833, 179.2099
363.9654, 177.0926
364.4475, 177.1389
364.9297, 179.5781
365.4118, 180.2475
365.8939, 177.4165
366.3760, 174.6238
366.8581, 173.1414
367.3402, 172.7636
367.8224, 173.0128
368.3045, 173.8472
368.7866, 174.9234
369.2687, 175.0706
369.7508, 173.6827
370.2329, 172.7167
370.7151, 173.2536
371.1972, 174.3011
371.6793, 175.0053
372.1614, 175.1445
372.6435, 174.7042
373.1256, 173.2861
373.6078, 170.7639
374.0899, 169.1414
374.5720, 169.3733
375.0541, 170.2190
375.5362, 170.8652
376.0183, 171.2778
376.5005, 171.5576
376.9826, 171.6938
377.4647, 171.7395
377.9468, 171.9210
378.4289, 172.3296
378.9110, 172.6971
379.3932, 172.5088
379.8753, 172.1675
380.3574, 172.5636
380.8395, 174.6030
381.3216, 176.9211
381.8037, 177.6318
382.2859, 176.7022
382.7680, 175.8537
383.2501, 175.6900
383.7322, 176.1742
384.2143, 177.1497
384.6964, 178.6789
385.1786, 180.4573
385.6607, 182.2853
386.1428, 184.2175
386.6249, 186.5052
387.1070, 189.3174
387.5891, 192.1572
388.0713, 194.2817
388.5534, 195.7677
389.0355, 197.6250
389.5176, 199.9740
389.9997, 202.8399
390.4818, 206.4089
390.9640, 210.6579
391.4461, 214.9505
391.9282, 218.6400
392.4103, 222.0708
392.8924, 226.9111
393.3745, 233.7199
393.8567, 241.1873
394.3388, 248.7346
394.8209, 256.5820
395.3030, 265.4211
395.7851, 275.7575
396.2672, 286.2072
396.7494, 294.4731
397.2315, 300.1622
397.7136, 304.2419
398.1957, 307.0677
398.6778, 308.1165
399.1599, 306.3954
399.6420, 302.1440
400.1241, 296.8999
400.6063, 291.7396
401.0884, 286.5760
401.5705, 284.0993
402.0526, 285.0426
402.5347, 287.4169
403.0168, 290.6099
403.4990, 294.8476
403.9811, 300.8574
404.4632, 308.9911
404.9453, 318.3270
405.4274, 326.7852
405.9095, 335.4951
406.3917, 341.0334
406.8738, 344.4577
407.3559, 344.2686
407.8380, 338.4271
408.3201, 327.3280
408.8022, 313.8754
409.2844, 300.2971
409.7665, 286.5084
410.2486, 274.9103
410.7307, 265.7811
411.2128, 258.8454
411.6949, 254.0155
412.1771, 251.3057
412.6592, 250.9158
413.1413, 253.1098
413.6234, 257.1086
414.1055, 261.6701
414.5876, 267.5568
415.0698, 271.7132
415.5519, 274.2129
416.0340, 274.1427
416.5161, 270.4886
416.9982, 263.1731
417.4803, 253.3136
417.9625, 240.1533
418.4446, 224.5491
418.9267, 212.1843
419.4088, 204.2930
419.8909, 198.3317
420.3730, 193.1073
420.8552, 188.4885
421.3373, 184.3356
421.8194, 180.7014
422.3015, 177.4096
422.7836, 174.0552
423.2657, 170.6575
423.7479, 168.1894
424.2300, 167.3403
424.7121, 167.4098
425.1942, 167.2766
425.6763, 166.9409
426.1584, 166.4297
426.6406, 165.5489
427.1227, 164.5574
427.6048, 163.8996
428.0869, 163.6506
428.5690, 163.6557
429.0511, 163.8130
429.5333, 164.1319
430.0154, 164.4797
430.4975, 165.0533
430.9796, 165.4700
431.4617, 165.5412
431.9438, 165.2839
432.4260, 164.5602
432.9081, 163.1882
433.3902, 161.7917
433.8723, 161.9336
434.3544, 165.3431
434.8365, 167.4258
435.3187, 166.8000
435.8008, 165.6111
436.2829, 165.7133
436.7650, 167.2318
437.2471, 169.0604
437.7292, 170.1737
438.2114, 170.5567
438.6935, 170.9792
439.1756, 171.2091
439.6577, 171.7458
440.1398, 173.0470
440.6219, 174.6152
441.1040, 175.6649
441.5862, 175.8663
442.0683, 175.8094
442.5504, 176.5948
443.0325, 178.4722
443.5146, 180.4419
443.9967, 182.6277
444.4789, 184.7090
444.9610, 186.4419
445.4431, 187.8814
445.9252, 189.3008
446.4073, 190.8514
446.8894, 192.5276
447.3716, 194.2542
447.8537, 195.8936
448.3358, 197.9276
448.8179, 200.6325
449.3000, 203.8258
449.7821, 207.3472
450.2643, 211.1433
450.7464, 215.3697
451.2285, 220.2565
451.7106, 225.7274
452.1927, 231.2407
452.6748, 236.5990
453.1570, 242.1089
453.6391, 248.4878
454.1212, 255.4613
454.6033, 261.5658
455.0854, 265.9629
455.5675, 269.6872
456.0497, 273.6757
456.5318, 277.8670
457.0139, 281.7221
457.4960, 284.7862
457.9781, 287.5626
458.4602, 291.4691
458.9424, 296.5483
459.4245, 302.3913
459.9066, 308.9664
460.3887, 316.2377
460.8708, 324.3051
461.3529, 333.1175
461.8351, 342.2862
462.3172, 351.5043
462.7993, 360.7064
463.2814, 370.3577
463.7635, 380.6137
464.2456, 391.0988
464.7278, 401.0770
465.2099, 411.5371
465.6920, 423.8014
466.1741, 438.4343
466.6562, 454.7868
467.1383, 471.4618
467.6205, 487.6821
468.1026, 507.1676
468.5847, 530.2717
469.0668, 556.5775
469.5489, 585.5493
470.0310, 617.6348
470.5132, 653.4724
470.9953, 692.9808
471.4774, 736.9993
471.9595, 787.7138
472.4416, 845.2385
472.9237, 908.7406
473.4059, 979.5137
473.8880, 1055.340
474.3701, 1136.282
474.8522, 1222.155
475.3343, 1306.255
475.8164, 1389.688
476.2986, 1467.076
476.7807, 1527.466
477.2628, 1570.102
477.7449, 1592.047
478.2270, 1590.566
478.7091, 1564.576
479.1913, 1516.584
479.6734, 1437.078
480.1555, 1346.389
480.6376, 1248.316
481.1197, 1147.315
481.6018, 1051.085
482.0839, 961.8450
482.5660, 881.4789
483.0482, 812.3076
483.5303, 756.2004
484.0124, 708.1138
484.4945, 668.3506
484.9766, 635.8355
485.4587, 610.8090
485.9409, 592.4307
486.4230, 579.1620
486.9051, 570.0980
487.3872, 565.2516
487.8693, 564.8105
488.3514, 569.7982
488.8336, 577.6270
489.3157, 588.5104
489.7978, 601.3337
490.2799, 615.6248
490.7620, 631.1747
491.2441, 647.6326
491.7263, 664.6995
492.2084, 682.3940
492.6905, 700.5241
493.1726, 718.2454
493.6547, 738.3555
494.1368, 761.3587
494.6190, 787.5059
495.1011, 817.0498
495.5832, 849.8151
496.0653, 887.3314
496.5474, 929.8923
497.0295, 977.8474
497.5117, 1031.550
497.9938, 1090.670
498.4759, 1157.296
498.9580, 1232.947
499.4401, 1318.736
499.9222, 1416.798
500.4044, 1526.667
500.8865, 1649.574
501.3686, 1789.943
501.8507, 1943.900
502.3328, 2107.990
502.8149, 2280.903
503.2971, 2457.095
503.7792, 2630.683
504.2613, 2810.165
504.7434, 2957.117
505.2255, 3084.506
505.7076, 3170.825
506.1898, 3209.119
506.6719, 3198.264
507.1540, 3134.703
507.6361, 3015.883
508.1182, 2851.250
508.6003, 2658.921
509.0825, 2425.586
509.5646, 2199.556
510.0467, 1977.766
510.5288, 1771.633
511.0109, 1586.221
511.4930, 1421.634
511.9752, 1276.156
512.4573, 1149.974
512.9394, 1041.311
513.4215, 946.7539
513.9036, 866.6453
514.3857, 796.4220
514.8679, 736.0804
515.3500, 683.7839
515.8321, 636.5024
516.3142, 594.1578
516.7963, 557.1225
517.2784, 526.7839
517.7606, 501.1162
518.2427, 477.7451
518.7248, 456.3531
519.2069, 436.2043
519.6890, 416.7586
520.1711, 398.1224
520.6533, 381.5864
521.1354, 367.3537
521.6175, 354.4350
522.0996, 343.1496
522.5817, 332.8754
523.0638, 322.9987
523.5460, 313.5011
524.0281, 304.8309
524.5102, 297.5818
524.9923, 291.7337
525.4744, 285.6125
525.9565, 278.5617
526.4387, 272.1977
526.9208, 266.8897
527.4029, 262.3375
527.8850, 258.4902
528.3671, 255.2711
528.8492, 251.9612
529.3314, 247.5758
529.8135, 242.2788
530.2956, 237.6090
530.7777, 233.7742
531.2598, 230.3474
531.7419, 227.1833
532.2241, 224.2352
532.7062, 221.3937
533.1883, 218.5981
533.6704, 216.0101
534.1525, 213.8520
534.6346, 211.9655
535.1168, 209.8996
535.5989, 207.5306
536.0810, 205.2244
536.5631, 203.4224
537.0452, 202.1488
537.5273, 200.5397
538.0095, 198.2448
538.4916, 196.0312
538.9737, 194.2982
539.4558, 192.7778
539.9379, 190.9273
540.4200, 188.6135
540.9022, 186.3851
541.3843, 185.1057
541.8664, 185.0060
542.3485, 184.5540
542.8306, 183.5573
543.3127, 182.3975
543.7948, 180.9742
544.2769, 179.5317
544.7590, 178.4590
545.2411, 177.9204
545.7233, 177.6006
546.2054, 177.1905
546.6875, 176.6825
547.1696, 175.9120
547.6517, 174.6164
548.1339, 173.5065
548.6160, 173.6637
549.0981, 174.5457
549.5802, 174.5302
550.0623, 172.3690
550.5444, 170.2414
551.0266, 169.7912
551.5087, 170.4094
551.9908, 170.7589
552.4729, 170.4431
552.9550, 169.6344
553.4371, 168.4339
553.9193, 166.6530
554.4014, 165.6579
554.8835, 165.9935
555.3656, 166.3921
555.8477, 166.5821
556.3298, 166.4822
556.8120, 165.8257
557.2941, 164.5546
557.7762, 163.3555
558.2583, 163.3803
558.7404, 164.8359
559.2225, 165.7472
559.7047, 165.6070
560.1868, 165.5006
560.6689, 166.1913
561.1510, 167.1915
561.6331, 167.6085
562.1152, 167.0008
562.5974, 166.2374
563.0795, 165.9782
563.5616, 166.2118
564.0437, 167.0706
564.5258, 168.7403
565.0079, 170.3045
565.4901, 170.8596
565.9722, 170.4329
566.4543, 170.2016
566.9364, 169.5390
567.4185, 169.7785
567.9006, 172.2195
568.3828, 175.5701
568.8649, 177.8960
569.3470, 178.7449
569.8291, 179.2622
570.3112, 180.7611
570.7933, 183.3074
571.2755, 185.7462
571.7576, 187.7263
572.2397, 190.0695
572.7218, 193.1662
573.2039, 196.6246
573.6860, 200.0852
574.1682, 203.4613
574.6503, 206.6310
575.1324, 209.2839
575.6145, 211.5970
576.0966, 214.7169
576.5787, 219.1958
577.0609, 222.5625
577.5430, 223.1145
578.0251, 221.4510
578.5072, 219.2778
578.9893, 216.6444
579.4714, 213.4632
579.9536, 209.4090
580.4357, 204.9445
580.9178, 200.6492
581.3999, 196.5761
581.8820, 192.2692
582.3641, 187.2935
582.8463, 181.8684
583.3284, 177.2246
583.8105, 173.6853
584.2926, 170.4981
584.7747, 167.5477
585.2568, 164.9352
585.7390, 162.8692
586.2211, 161.2549
586.7032, 159.6531
587.1853, 157.5748
587.6674, 155.4106
588.1495, 154.5207
588.6317, 155.2034
589.1138, 155.2711
589.5959, 153.7358
590.0780, 151.5254
590.5601, 149.6087
591.0422, 147.9781
591.5244, 146.8348
592.0065, 146.4689
592.4886, 146.4414
592.9707, 146.5701
593.4528, 146.7232
593.9349, 146.4406
594.4171, 145.4753
594.8992, 144.3232
595.3813, 143.8925
595.8634, 144.5628
596.3455, 144.8318
596.8276, 144.3937
597.3098, 143.9341
597.7919, 143.6867
598.2740, 143.6282
598.7561, 143.6600
599.2382, 143.7393
599.7203, 143.9612
600.2025, 144.6855
600.6846, 145.8821
601.1667, 146.2125
601.6488, 145.1769
602.1309, 144.0043
602.6130, 143.7034
603.0952, 143.8443
603.5773, 143.4927
604.0594, 142.0444
604.5415, 141.0130
605.0236, 141.5087
605.5057, 142.7800
605.9879, 143.6806
606.4700, 144.0314
606.9521, 144.2499
607.4342, 144.6393
607.9163, 145.2100
608.3984, 146.0776
608.8806, 148.0042
609.3627, 149.1411
609.8448, 148.8136
610.3269, 148.0535
610.8090, 147.4551
611.2911, 147.1800
611.7733, 147.3595
612.2554, 148.2639
612.7375, 149.5224
613.2196, 150.2324
613.7017, 150.3456
614.1838, 150.4244
614.6660, 150.4907
615.1481, 150.7722
615.6302, 151.6938
616.1123, 153.2036
616.5944, 154.4642
617.0765, 154.9475
617.5587, 155.4672
618.0408, 156.5408
618.5229, 158.0758
619.0050, 159.8779
619.4871, 161.8734
619.9692, 163.9896
620.4514, 166.1940
620.9335, 168.5865
621.4156, 170.3448
621.8977, 170.2914
622.3798, 171.0171
622.8619, 173.3634
623.3441, 176.7275
623.8262, 180.6223
624.3083, 184.8853
624.7904, 188.9605
625.2725, 192.0119
625.7546, 194.5326
626.2367, 197.8760
626.7188, 202.1452
627.2009, 206.9687
627.6830, 212.4856
628.1652, 218.1991
628.6473, 222.9608
629.1294, 226.5607
629.6115, 230.0663
630.0936, 234.3514
630.5757, 237.9958
631.0579, 239.8671
631.5400, 240.2266
632.0221, 239.9743
632.5042, 239.5681
632.9863, 238.7406
633.4684, 236.8918
633.9506, 233.8111
634.4327, 230.6928
634.9148, 227.5462
635.3969, 224.4500
635.8790, 221.0366
636.3611, 217.7962
636.8433, 215.6822
637.3254, 215.1880
637.8075, 215.0446
638.2896, 214.2382
638.7717, 213.1757
639.2538, 212.2991
639.7360, 211.7314
640.2181, 212.6949
640.7002, 216.4407
641.1823, 222.0518
641.6644, 225.8196
642.1465, 225.7013
642.6287, 226.4850
643.1108, 229.0576
643.5929, 231.8276
644.0750, 233.9861
644.5571, 235.4090
645.0392, 236.2336
645.5214, 236.6025
646.0035, 236.1765
646.4856, 234.3338
646.9677, 231.0765
647.4498, 226.8098
647.9319, 221.3329
648.4141, 215.4472
648.8962, 209.9805
649.3783, 204.6544
649.8604, 198.5625
650.3425, 190.4503
650.8246, 183.1734
651.3068, 178.1603
651.7889, 174.4619
652.2710, 171.2247
652.7531, 168.1734
653.2352, 164.9422
653.7173, 161.1410
654.1995, 157.1105
654.6816, 154.3447
655.1637, 153.4121
655.6458, 152.4044
656.1279, 151.0838
656.6100, 149.5520
657.0922, 147.6394
657.5743, 145.5269
658.0564, 143.8132
658.5385, 142.9010
659.0206, 142.2220
659.5027, 141.3015
659.9849, 140.1796
660.4670, 138.9225
660.9491, 137.5443
661.4312, 136.1228
661.9133, 134.6276
662.3954, 133.1134
662.8776, 132.3833
663.3597, 133.2239
663.8418, 133.8297
664.3239, 134.0495
664.8060, 133.9585
665.2881, 133.4127
665.7703, 132.5802
666.2524, 132.0496
666.7345, 132.3694
667.2166, 132.9312
667.6987, 132.4442
668.1808, 130.9441
668.6630, 129.7882
669.1451, 129.3605
669.6272, 129.2030
670.1093, 128.8586
670.5914, 128.3683
671.0735, 128.1947
671.5557, 128.5365
672.0378, 128.9586
672.5199, 129.7264
673.0020, 130.2639
673.4841, 129.5786
673.9662, 127.8300
674.4484, 126.4102
674.9305, 126.4515
675.4126, 127.5293
675.8947, 128.2937
676.3768, 128.7503
676.8589, 128.8541
677.3411, 128.4183
677.8232, 127.8171
678.3053, 127.4268
678.7874, 127.1459
679.2695, 126.5745
679.7516, 125.1323
680.2338, 123.9979
680.7159, 124.0387
681.1980, 124.7695
681.6801, 125.6426
682.1622, 126.4582
682.6443, 126.7496
683.1265, 126.0141
683.6086, 124.5847
684.0907, 124.1475
684.5728, 125.2741
685.0549, 126.1405
685.5370, 126.5227
686.0192, 126.5548
686.5013, 126.1445
686.9834, 125.4341
687.4655, 124.7876
687.9476, 124.3391
688.4297, 124.0024
688.9119, 123.7679
689.3940, 123.5779
689.8761, 123.2596
690.3582, 122.7866
690.8403, 122.3842
691.3224, 122.2518
691.8046, 122.3096
692.2867, 122.1504
692.7688, 121.2750
693.2509, 121.0076
693.7330, 121.7815
694.2151, 122.7841
694.6973, 123.7307
695.1794, 124.4967
695.6615, 124.9250
696.1436, 124.9559
696.6257, 124.6059
697.1078, 123.6217
697.5900, 122.2547
698.0721, 121.3801
698.5542, 121.1352
699.0363, 121.2534
699.5184, 121.6571
700.0005, 122.2157
700.4827, 122.4604
700.9648, 122.0982
701.4469, 121.8933
701.9290, 122.1129
702.4111, 122.2494
702.8932, 121.7528
703.3754, 120.9850
703.8575, 120.8172
704.3396, 121.6532
704.8217, 122.5717
705.3038, 122.1997
705.7859, 120.8839
706.2681, 120.3863
706.7502, 120.9486
707.2323, 121.6115
707.7144, 121.8535
708.1965, 121.8518
708.6786, 122.0402
709.1607, 122.5669
709.6428, 122.8397
710.1249, 122.6762
710.6071, 122.3926
711.0892, 121.9703
711.5713, 121.6144
712.0534, 121.6045
712.5355, 122.0406
713.0176, 122.8702
713.4998, 124.4289
713.9819, 126.4240
714.4640, 127.0729
714.9461, 126.1189
715.4282, 125.3237
715.9103, 125.4049
716.3925, 126.0517
716.8746, 126.9175
717.3567, 128.0561
717.8388, 128.9145
718.3209, 129.4495
718.8030, 129.6870
719.2852, 129.3652
719.7673, 128.8768
720.2494, 128.8543
720.7315, 129.3701
721.2136, 129.8076
721.6957, 129.5539
722.1779, 128.7947
722.6600, 128.1561
723.1421, 127.6271
723.6242, 127.3025
724.1063, 127.3098
724.5884, 127.3799
725.0706, 127.3348
725.5527, 127.1483
726.0348, 126.4870
726.5169, 124.5187
726.9990, 123.0732
727.4811, 123.0106
727.9633, 123.6192
728.4454, 124.4605
728.9275, 125.2539
729.4096, 125.3656
729.8917, 124.1792
730.3738, 122.5304
730.8560, 122.3593
731.3381, 123.7154
731.8202, 124.7796
732.3023, 125.1274
732.7844, 125.4956
733.2665, 126.6982
733.7487, 128.3319
734.2308, 128.8687
734.7129, 127.5222
735.1950, 126.5735
735.6771, 126.8796
736.1592, 127.4140
736.6414, 127.2717
737.1235, 126.6788
737.6056, 126.3314
738.0877, 126.5402
738.5698, 127.1688
739.0519, 128.2172
739.5341, 129.6003
740.0162, 130.5570
740.4983, 131.0182
740.9804, 131.1313
741.4625, 130.6821
741.9446, 130.1683
742.4268, 130.6086
742.9089, 132.1873
743.3910, 133.6434
743.8731, 134.8417
744.3552, 135.9320
744.8373, 136.6865
745.3195, 137.5117
745.8016, 139.1085
746.2837, 141.5415
746.7658, 144.0277
747.2479, 145.8155
747.7300, 147.1569
748.2122, 148.6839
748.6943, 150.4006
749.1764, 152.3302
749.6585, 154.5400
750.1406, 156.7937
750.6227, 158.8069
751.1049, 160.5918
751.5870, 162.7851
752.0691, 165.8130
752.5512, 168.6330
753.0333, 170.4807
753.5154, 172.5154
753.9976, 175.7744
754.4797, 180.1173
754.9618, 184.7044
755.4439, 189.0095
755.9260, 193.8156
756.4081, 200.4196
756.8903, 208.4509
757.3724, 216.0885
757.8545, 223.0703
758.3366, 230.7458
758.8187, 240.1078
759.3008, 250.5389
759.7830, 260.6336
760.2651, 271.0183
760.7472, 279.5745
761.2293, 286.6878
761.7114, 291.6632
762.1935, 294.4109
762.6757, 294.7652
763.1578, 292.3672
763.6399, 287.1708
764.1220, 279.9974
764.6041, 270.6053
765.0862, 260.0678
765.5684, 249.9746
766.0505, 240.1928
766.5326, 229.8632
767.0147, 218.5862
767.4968, 208.2191
767.9789, 201.0537
768.4611, 196.8956
768.9432, 192.2929
769.4253, 186.1536
769.9074, 181.4302
770.3895, 178.9482
770.8716, 177.6149
771.3538, 177.2643
771.8359, 177.5094
772.3180, 177.3410
772.8001, 176.3375
773.2822, 175.0594
773.7643, 173.7044
774.2465, 172.4082
774.7286, 171.7053
775.2107, 171.3772
775.6928, 170.1741
776.1749, 167.3486
776.6570, 163.6644
777.1392, 160.6340
777.6213, 158.3849
778.1034, 155.7936
778.5855, 152.6308
779.0676, 149.5344
779.5497, 146.3232
780.0319, 143.6309
780.5140, 142.6110
780.9961, 143.4141
781.4782, 143.6210
781.9603, 142.2282
782.4424, 140.5302
782.9246, 139.2112
783.4067, 138.0864
783.8888, 136.6961
784.3709, 135.0614
784.8530, 133.8540
785.3351, 133.7160
785.8173, 134.2052
786.2994, 134.2902
786.7815, 133.9704
787.2636, 133.2429
787.7457, 131.8509
788.2278, 130.9332
788.7100, 131.6249
789.1921, 133.4245
789.6742, 134.3081
790.1563, 133.5966
790.6384, 133.2704
791.1205, 133.4787
791.6026, 134.0538
792.0847, 135.2956
792.5668, 136.7029
793.0490, 137.4375
793.5311, 137.2604
794.0132, 136.8642
794.4953, 136.6758
794.9774, 136.7104
795.4595, 136.8926
795.9417, 137.2896
796.4238, 138.3641
796.9059, 140.2985
797.3880, 142.5259
797.8701, 144.4885
798.3522, 146.1787
798.8344, 147.2595
799.3165, 146.9962
799.7986, 147.5403
800.2807, 149.8570
800.7628, 152.5198
801.2449, 154.7544
801.7271, 156.6555
802.2092, 158.5229
802.6913, 160.3798
803.1734, 162.3183
803.6555, 163.9630
804.1376, 165.9978
804.6198, 169.4733
805.1019, 173.9951
805.5840, 178.2470
806.0661, 181.6491
806.5482, 185.1267
807.0303, 189.8596
807.5125, 195.7844
807.9946, 202.2500
808.4767, 209.2964
808.9588, 216.8675
809.4409, 225.0725
809.9230, 233.5280
810.4052, 241.6999
810.8873, 249.5950
811.3694, 258.1178
811.8515, 268.8766
812.3336, 278.0287
812.8157, 284.7095
813.2979, 289.5613
813.7800, 293.8593
814.2621, 296.6706
814.7442, 295.3283
815.2263, 288.4408
815.7084, 278.6562
816.1906, 267.7768
816.6727, 256.1830
817.1548, 244.4567
817.6369, 232.7227
818.1190, 221.4027
818.6011, 210.6842
819.0833, 200.4148
819.5654, 190.2075
820.0475, 179.9820
820.5296, 171.8189
821.0117, 166.2576
821.4938, 161.5262
821.9760, 157.0731
822.4581, 153.4192
822.9402, 151.4993
823.4223, 150.8774
823.9044, 149.5214
824.3865, 146.3695
824.8687, 143.4760
825.3508, 141.4516
825.8329, 140.1765
826.3150, 140.1286
826.7971, 140.6966
827.2792, 140.2847
827.7614, 138.1734
828.2435, 135.5729
828.7256, 133.6978
829.2077, 132.5692
829.6898, 132.6099
830.1719, 133.8202
830.6541, 134.4342
831.1362, 133.7094
831.6183, 132.4666
832.1004, 131.6498
832.5825, 131.2560
833.0646, 130.7831
833.5468, 129.8356
834.0289, 129.4450
834.5110, 130.5914
834.9931, 131.4979
835.4752, 130.8441
835.9573, 129.0806
836.4395, 127.3568
836.9216, 125.7911
837.4037, 124.8709
837.8858, 125.3259
838.3679, 126.1869
838.8500, 126.4710
839.3322, 126.2854
839.8143, 126.1283
840.2964, 126.1623
840.7785, 126.0893
841.2606, 125.4357
841.7427, 124.4656
842.2249, 124.3850
842.7070, 125.2423
843.1891, 125.8667
843.6712, 126.0561
844.1533, 125.6010
844.6354, 123.9467
845.1176, 121.5603
845.5997, 120.7812
846.0818, 123.3815
846.5639, 124.7842
847.0460, 124.2154
847.5281, 123.3320
848.0103, 122.8305
848.4924, 122.5463
848.9745, 122.2171
849.4566, 121.7912
849.9387, 121.1841
850.4208, 120.1308
850.9030, 119.0759
851.3851, 118.2492
851.8672, 117.7724
852.3493, 118.0634
852.8314, 119.0558
853.3135, 119.9544
853.7957, 120.1657
854.2778, 119.8443
854.7599, 119.2379
855.2420, 118.3530
855.7241, 117.5144
856.2062, 116.6974
856.6884, 116.2732
857.1705, 116.6189
857.6526, 117.2394
858.1347, 117.1063
858.6168, 115.8319
859.0989, 115.5711
859.5811, 117.4910
860.0632, 118.8867
860.5453, 118.8697
861.0274, 118.2842
861.5095, 117.8428
861.9916, 117.5516
862.4738, 117.0735
862.9559, 116.0625
863.4380, 115.2720
863.9201, 115.4319
864.4022, 115.9213
864.8843, 116.0163
865.3665, 115.7308
865.8486, 115.2435
866.3307, 114.6499
866.8128, 114.3642
867.2949, 115.1776
867.7770, 116.7283
868.2592, 117.4252
868.7413, 117.2594
869.2234, 116.5552
869.7055, 115.2480
870.1876, 114.0904
870.6697, 113.8720
871.1519, 114.3879
871.6340, 114.4602
872.1161, 113.5702
872.5981, 113.2322
873.0803, 114.0467
873.5624, 114.8470
874.0445, 115.2534
874.5266, 115.3019
875.0087, 114.9223
875.4908, 114.0677
875.9730, 113.5511
876.4551, 113.9503
876.9372, 114.4454
877.4193, 114.6276
877.9014, 114.5452
878.3835, 114.1821
878.8657, 113.6279
879.3478, 113.1483
879.8299, 112.8898
880.3120, 112.8253
880.7941, 113.0048
881.2762, 113.3407
881.7584, 113.5485
882.2405, 113.6119
882.7226, 113.6063
883.2047, 113.5534
883.6868, 113.5437
884.1689, 113.7423
884.6511, 114.1335
885.1332, 114.1720
885.6153, 113.7361
886.0974, 113.2369
886.5795, 112.3783
887.0616, 111.9686
887.5438, 113.2058
888.0259, 115.3464
888.5080, 116.0685
888.9901, 114.5620
889.4722, 113.4553
889.9543, 113.4703
890.4365, 113.5875
890.9186, 113.1668
891.4007, 112.5774
891.8828, 112.3575
892.3649, 112.5736
892.8470, 112.9328
893.3292, 113.4887
893.8113, 113.8423
894.2934, 113.2891
894.7755, 112.4051
895.2576, 112.3622
895.7397, 113.0986
896.2219, 113.5595
896.7040, 113.1825
897.1861, 112.5466
897.6682, 112.5980
898.1503, 113.2160
898.6324, 113.3901
899.1146, 113.0894
899.5967, 112.7439
900.0788, 112.4632
900.5609, 112.2410
901.0430, 112.0458
901.5251, 111.9073
902.0073, 112.0432
902.4894, 112.7847
902.9715, 113.1147
903.4536, 112.5987
903.9357, 112.1110
904.4178, 112.0941
904.9000, 112.3042
905.3821, 112.4624
905.8642, 112.5527
906.3463, 112.4262
906.8284, 111.7455
907.3105, 111.2037
907.7927, 110.9496
908.2748, 111.1197
908.7569, 112.2557
909.2390, 113.9411
909.7211, 114.8088
910.2032, 114.1031
910.6854, 113.3360
911.1675, 114.4147
911.6496, 116.0422
912.1317, 115.8568
912.6138, 114.2615
913.0959, 113.0941
913.5781, 112.8808
914.0602, 112.6355
914.5423, 111.3104
915.0244, 109.4612
915.5065, 108.7749
915.9886, 109.2585
916.4708, 110.2698
916.9529, 111.9429
917.4350, 112.9340
917.9171, 112.2838
918.3992, 110.9548
918.8813, 110.7329
919.3635, 111.8784
919.8456, 112.0845
920.3277, 110.5374
920.8098, 109.3896
921.2919, 109.0702
921.7740, 109.3267
922.2562, 110.3761
922.7383, 111.8573
923.2204, 112.7321
923.7025, 112.8307
924.1846, 112.4489
924.6667, 111.0780
925.1489, 109.8568
925.6310, 109.6156
926.1131, 109.8767
926.5952, 109.9810
927.0773, 109.8237
927.5594, 109.6439
928.0416, 109.4670
928.5237, 109.4940
929.0058, 110.3097
929.4879, 111.2390
929.9700, 110.9336
930.4521, 109.6659
930.9343, 108.8321
931.4164, 109.0203
931.8985, 109.7174
932.3806, 110.4178
932.8627, 111.1141
933.3448, 111.9292
933.8270, 112.8031
934.3091, 112.8704
934.7912, 111.8905
935.2733, 111.1007
935.7554, 111.4370
936.2375, 112.4074
936.7197, 112.8085
937.2018, 112.5237
937.6839, 112.3756
938.1660, 112.5355
938.6481, 112.3415
939.1302, 111.1059
939.6124, 110.0196
940.0945, 110.5999
940.5766, 112.5942
941.0587, 113.6252
941.5408, 112.8431
942.0229, 112.4386
942.5051, 112.7121
942.9872, 113.1624
943.4693, 113.5567
943.9514, 113.9735
944.4335, 114.7151
944.9156, 115.7740
945.3978, 116.2081
945.8799, 115.1732
946.3620, 114.0790
946.8441, 113.4615
947.3262, 113.2860
947.8083, 113.7183
948.2905, 114.5263
948.7726, 115.2326
949.2547, 115.6640
949.7368, 115.8245
950.2189, 115.4841
950.7010, 115.0498
951.1832, 115.1406
951.6653, 115.5692
952.1474, 115.8012
952.6295, 115.7910
953.1116, 116.0485
953.5938, 116.9624
954.0759, 117.9002
954.5580, 117.4570
955.0400, 116.0354
955.5222, 115.9844
956.0043, 117.3497
956.4864, 118.5122
956.9685, 118.9412
957.4506, 119.0788
957.9327, 119.3493
958.4149, 119.6887
958.8970, 119.7514
959.3791, 119.4039
959.8612, 119.4876
960.3433, 120.1885
960.8254, 120.9864
961.3076, 121.6862
961.7897, 122.2970
962.2718, 122.7591
962.7539, 123.0611
963.2360, 123.7657
963.7181, 125.5538
964.2003, 126.6820
964.6824, 126.3250
965.1645, 125.9934
965.6466, 126.4306
966.1287, 127.4470
966.6108, 128.9076
967.0930, 130.9186
967.5751, 132.1061
968.0572, 130.9649
968.5393, 130.4837
969.0214, 132.4721
969.5035, 135.1252
969.9857, 136.8083
970.4678, 137.6922
970.9499, 138.6297
971.4320, 139.8694
971.9141, 141.2903
972.3962, 142.9801
972.8784, 144.6685
973.3605, 145.8330
973.8426, 146.9648
974.3247, 149.0776
974.8068, 152.0397
975.2889, 154.7511
975.7711, 156.6550
976.2532, 157.7809
976.7353, 157.5990
977.2174, 156.9482
977.6995, 157.9760
978.1816, 159.9706
978.6638, 160.0506
979.1459, 157.5436
979.6280, 154.1480
980.1101, 151.1247
980.5922, 148.4581
981.0743, 146.4635
981.5565, 144.9288
982.0386, 142.1519
982.5207, 138.0842
983.0028, 135.0774
983.4849, 134.1302
983.9670, 133.7307
984.4492, 132.1504
984.9313, 131.3592
985.4134, 130.4353
985.8955, 128.9112
986.3776, 128.4590
986.8597, 126.7374
987.3419, 125.4873
987.8240, 125.7739
988.3061, 126.5345
988.7882, 126.1807
989.2703, 124.7223
989.7524, 123.9096
990.2346, 124.0370
990.7167, 124.1811
991.1988, 124.4833
991.6809, 124.4013
992.1630, 123.0115
992.6451, 121.3614
993.1273, 121.5509
993.6094, 123.9213
994.0915, 125.6106
994.5736, 126.2575
995.0557, 126.6818
995.5378, 126.8452
996.0200, 127.0151
996.5021, 127.1662
996.9842, 127.5114
997.4663, 128.5733
997.9484, 130.5481
998.4305, 132.2422
998.9127, 132.9864
999.3948, 133.8476
999.8769, 135.5239
1000.359, 137.3136
1000.841, 138.3996
1001.323, 139.0398
1001.805, 139.9873
1002.287, 141.4326
1002.770, 143.3711
1003.252, 146.1752
1003.734, 149.0638
1004.216, 151.6106
1004.698, 153.8307
1005.180, 155.8510
1005.662, 157.6297
1006.144, 158.9401
1006.627, 159.6521
1007.109, 160.1687
1007.591, 160.5927
1008.073, 161.1860
1008.555, 162.6532
1009.037, 164.3801
1009.519, 164.7530
1010.001, 163.9179
1010.483, 164.0672
1010.966, 166.6022
1011.448, 169.5079
1011.930, 170.0326
1012.412, 169.4142
1012.894, 170.3821
1013.376, 172.4009
1013.858, 173.3779
1014.340, 172.8810
1014.823, 171.7710
1015.305, 170.5881
1015.787, 169.4737
1016.269, 168.9412
1016.751, 168.6610
1017.233, 166.8957
1017.715, 163.9251
1018.197, 162.4834
1018.679, 163.3165
1019.162, 164.5886
1019.644, 164.7714
1020.126, 165.9123
1020.608, 165.4372
1021.090, 167.4253
1021.572, 168.6330
1022.054, 168.9424
1022.536, 170.4678
1023.018, 173.9620
1023.501, 178.2326
1023.983, 182.3406
1024.465, 186.1972
1024.947, 189.3596
1025.429, 191.7147
1025.911, 194.4731
1026.393, 197.5828
1026.875, 201.7925
1027.358, 207.6323
1027.840, 213.7952
1028.322, 218.9635
1028.804, 223.4201
1029.286, 228.2886
1029.768, 233.9861
1030.250, 238.4182
1030.732, 241.4457
1031.214, 243.5342
1031.697, 245.0396
1032.179, 245.3198
1032.661, 243.6486
1033.143, 240.2239
1033.625, 235.9927
1034.107, 230.9444
1034.589, 225.0556
1035.071, 217.9633
1035.553, 210.6644
1036.036, 203.2726
1036.518, 196.1650
1037.000, 189.7591
1037.482, 183.9987
1037.964, 178.4489
1038.446, 172.6755
1038.928, 168.0475
1039.410, 165.2877
1039.893, 162.7169
1040.375, 159.4509
1040.857, 156.3873
1041.339, 154.7868
1041.821, 154.2715
1042.303, 152.7849
1042.785, 149.4644
1043.267, 146.7733
1043.750, 144.8855
1044.232, 143.5478
1044.714, 143.2437
1045.196, 143.0157
1045.678, 141.7600
1046.160, 139.7241
1046.642, 138.1618
1047.124, 137.3147
1047.606, 136.6595
1048.089, 136.3987
1048.571, 135.9922
1049.053, 135.2119
1049.535, 134.1937
1050.017, 132.9637
1050.499, 131.6107
1050.981, 130.3573
1051.463, 129.0749
1051.945, 128.3556
1052.428, 129.0079
1052.910, 129.4233
1053.392, 128.6421
1053.874, 127.4608
1054.356, 126.5665
1054.838, 126.0063
1055.320, 125.7444
1055.802, 125.9258
1056.285, 125.8698
1056.767, 125.0060
1057.249, 124.3159
1057.731, 124.4830
1058.213, 124.8945
1058.695, 124.8214
1059.177, 124.4427
1059.659, 124.5659
1060.141, 125.5945
1060.624, 126.0775
1061.106, 124.8295
1061.588, 123.7388
1062.070, 123.9061
1062.552, 124.5844
1063.034, 125.2164
1063.516, 125.6504
1063.998, 125.5430
1064.480, 124.6418
1064.963, 124.5859
1065.445, 127.0231
1065.927, 129.2475
1066.409, 129.6438
1066.891, 129.3192
1067.373, 129.2942
1067.855, 129.4946
1068.337, 129.3320
1068.820, 128.6233
1069.302, 128.4475
1069.784, 129.5785
1070.266, 130.9658
1070.748, 132.2214
1071.230, 133.3423
1071.712, 134.5006
1072.194, 135.4923
1072.677, 135.7403
1073.159, 135.1463
1073.641, 134.9173
1074.123, 135.9034
1074.605, 136.9683
1075.087, 137.3515
1075.569, 137.7294
1076.051, 138.7797
1076.533, 140.2444
1077.016, 141.6539
1077.498, 142.8946
1077.980, 143.8560
1078.462, 144.2888
1078.944, 144.7360
1079.426, 145.4916
1079.908, 146.3415
1080.390, 146.7346
1080.872, 147.2974
1081.354, 149.2942
1081.837, 152.6728
1082.319, 155.6203
1082.801, 156.9508
1083.283, 158.7390
1083.765, 162.5949
1084.247, 166.5811
1084.729, 168.8138
1085.211, 170.5718
1085.694, 173.8155
1086.176, 178.4963
1086.658, 183.0619
1087.140, 186.9220
1087.622, 190.8518
1088.104, 194.9855
1088.586, 199.5641
1089.068, 204.5965
1089.551, 210.2496
1090.033, 216.8994
1090.515, 224.3301
1090.997, 231.6035
1091.479, 238.4164
1091.961, 245.4724
1092.443, 253.0019
1092.925, 260.8826
1093.407, 268.9748
1093.890, 277.3737
1094.372, 286.2256
1094.854, 295.4395
1095.336, 305.1456
1095.818, 315.5328
1096.300, 324.5203
1096.782, 331.5625
1097.264, 336.9337
1097.746, 340.5907
1098.229, 342.8390
1098.711, 344.3983
1099.193, 344.5363
1099.675, 341.4113
1100.157, 334.7778
1100.639, 328.4300
1101.121, 324.2233
1101.603, 319.1286
1102.086, 311.8510
1102.568, 303.9175
1103.050, 295.7110
1103.532, 287.7921
1104.014, 280.7193
1104.496, 274.5571
1104.978, 269.5132
1105.460, 266.5930
1105.943, 263.1861
1106.425, 257.7223
1106.907, 253.0831
1107.389, 251.1327
1107.871, 250.1895
1108.353, 248.5706
1108.835, 246.3409
1109.317, 244.1785
1109.799, 242.1061
1110.281, 240.1678
1110.764, 237.8385
1111.246, 236.3583
1111.728, 236.7729
1112.210, 237.5234
1112.692, 237.4098
1113.174, 236.6914
1113.656, 236.0248
1114.138, 235.3943
1114.621, 234.9105
1115.103, 235.1770
1115.585, 234.6025
1116.067, 232.8633
1116.549, 230.3165
1117.031, 227.0531
1117.513, 223.1865
1117.995, 218.7888
1118.478, 213.8752
1118.960, 209.1391
1119.442, 204.5041
1119.924, 200.2589
1120.406, 196.4734
1120.888, 192.9674
1121.370, 189.7046
1121.852, 186.5879
1122.334, 183.5002
1122.817, 180.4751
1123.299, 177.7061
1123.781, 175.2044
1124.263, 172.8433
1124.745, 170.5546
1125.227, 168.6614
1125.709, 167.3163
1126.191, 166.2316
1126.673, 165.1975
1127.156, 164.2224
1127.638, 163.3637
1128.120, 162.6363
1128.602, 161.5960
1129.084, 160.1843
1129.566, 159.1654
1130.048, 158.7332
1130.530, 158.3612
1131.013, 157.7479
1131.495, 157.0117
1131.977, 156.2668
1132.459, 155.5901
1132.941, 155.5217
1133.423, 155.0469
1133.905, 154.7564
1134.387, 154.8790
1134.870, 154.3847
1135.352, 154.7786
1135.834, 154.9926
1136.316, 153.8397
1136.798, 152.2741
1137.280, 152.5756
1137.762, 154.1611
1138.244, 155.0603
1138.726, 155.2323
1139.208, 154.8984
1139.691, 154.2226
1140.173, 153.8828
1140.655, 154.3240
1141.137, 155.0732
1141.619, 155.8726
1142.101, 156.3476
1142.583, 155.3517
1143.065, 153.6666
1143.548, 152.9558
1144.030, 153.3599
1144.512, 154.5703
1144.994, 156.4030
1145.476, 157.7011
1145.958, 156.9430
1146.440, 155.9964
1146.922, 157.0796
1147.405, 158.8308
1147.887, 159.8128
1148.369, 159.9505
1148.851, 158.8321
1149.333, 156.8546
1149.815, 156.6127
1150.297, 160.2700
1150.779, 163.3011
1151.261, 162.3612
1151.744, 160.5810
1152.226, 160.2193
1152.708, 160.3505
1153.190, 159.6553
1153.672, 158.3187
1154.154, 157.3793
1154.636, 157.1532
1155.118, 156.6906
1155.600, 155.4521
1156.083, 154.2907
1156.565, 153.4126
1157.047, 152.7983
1157.529, 152.5777
1158.011, 152.5250
1158.493, 152.2410
1158.975, 152.0804
1159.457, 151.9836
1159.940, 151.6588
1160.422, 151.7228
1160.904, 151.5049
1161.386, 151.2536
1161.868, 151.1119
1162.350, 150.8929
1162.832, 150.3314
1163.314, 149.5993
1163.796, 149.2015
1164.279, 149.0946
1164.761, 149.7085
1165.243, 151.4605
1165.725, 152.3897
1166.207, 151.9266
1166.689, 151.2839
1167.171, 151.1931
1167.653, 151.1793
1168.135, 150.5337
1168.618, 149.3763
1169.100, 148.2344
1169.582, 147.1212
1170.064, 146.8725
1170.546, 147.5448
1171.028, 148.4349
1171.510, 149.3096
1171.992, 149.9377
1172.474, 150.1285
1172.957, 149.9949
1173.439, 149.5795
1173.921, 149.0461
1174.403, 149.0982
1174.885, 149.4389
1175.367, 148.6958
1175.849, 147.0308
1176.331, 146.4338
1176.814, 147.7310
1177.296, 149.3467
1177.778, 150.1001
1178.260, 150.1670
1178.742, 149.2446
1179.224, 148.1378
1179.706, 148.1732
1180.188, 148.8186
1180.671, 148.6848
1181.153, 147.7239
1181.635, 147.2651
1182.117, 148.0506
1182.599, 148.8058
1183.081, 148.9036
1183.563, 148.6893
1184.045, 148.1333
1184.527, 147.5819
1185.010, 147.4865
1185.492, 147.6231
1185.974, 147.2722
1186.456, 146.2717
1186.938, 146.0609
1187.420, 147.9537
1187.902, 149.0054
1188.384, 147.5370
1188.866, 146.6527
1189.349, 148.3692
1189.831, 150.6402
1190.313, 151.3216
1190.795, 150.7851
1191.277, 150.5553
1191.759, 150.8748
1192.241, 150.2505
1192.723, 148.0999
1193.206, 147.2222
1193.688, 148.5233
1194.170, 149.8366
1194.652, 149.8629
1195.134, 149.3716
1195.616, 149.3962
1196.098, 149.8776
1196.580, 150.8404
1197.063, 152.1450
1197.545, 152.1951
1198.027, 151.0252
1198.509, 150.1032
1198.991, 149.8446
1199.473, 149.6681
1199.955, 149.1267
1200.437, 148.8828
1200.919, 150.2242
1201.401, 152.1533
1201.884, 153.1785
1202.366, 153.3450
1202.848, 152.2679
1203.330, 150.5443
1203.812, 149.9715
1204.294, 150.9594
1204.776, 151.7662
1205.258, 151.0767
1205.741, 150.5279
1206.223, 151.2966
1206.705, 152.4669
1207.187, 153.8660
1207.669, 154.8638
1208.151, 154.2887
1208.633, 152.7247
1209.115, 152.2505
1209.598, 153.4445
1210.080, 154.3506
1210.562, 154.7191
1211.044, 154.7165
1211.526, 153.7004
1212.008, 153.1643
1212.490, 153.9621
1212.972, 155.4462
1213.454, 157.1588
1213.937, 158.8320
1214.419, 158.9950
1214.901, 157.1866
1215.383, 156.1956
1215.865, 156.0954
1216.347, 156.5725
1216.829, 157.6640
1217.311, 158.2495
1217.793, 157.5736
1218.276, 156.8955
1218.758, 158.0907
1219.240, 160.3195
1219.722, 161.2846
1220.204, 161.2119
1220.686, 160.5972
1221.168, 159.7258
1221.650, 159.4782
1222.133, 159.9814
1222.615, 160.5593
1223.097, 160.8305
1223.579, 161.3878
1224.061, 161.6638
1224.543, 162.3133
1225.025, 162.7605
1225.507, 163.2066
1225.990, 164.0744
1226.472, 165.0563
1226.954, 165.5485
1227.436, 165.4606
1227.918, 165.0729
1228.400, 164.0918
1228.882, 163.6155
1229.364, 163.8952
1229.846, 164.7310
1230.328, 167.1199
1230.811, 168.9193
1231.293, 167.6859
1231.775, 165.3543
1232.257, 165.7367
1232.739, 168.8076
1233.221, 170.7121
1233.703, 171.1680
1234.185, 171.7541
1234.668, 172.6502
1235.150, 173.2318
1235.632, 173.2298
1236.114, 173.5155
1236.596, 174.8733
1237.078, 174.5338
1237.560, 176.1303
1238.042, 174.8027
1238.525, 174.3500
1239.007, 174.6986
1239.489, 176.0247
1239.971, 177.9023
1240.453, 178.6365
1240.935, 177.9395
1241.417, 177.8104
1241.899, 179.6996
1242.381, 181.7671
1242.864, 182.5896
1243.346, 182.9507
1243.828, 183.3360
1244.310, 183.7631
1244.792, 184.3104
1245.274, 184.8512
1245.756, 185.1554
1246.238, 185.1857
1246.720, 184.8936
1247.203, 183.6320
1247.685, 183.1129
1248.167, 184.2517
1248.649, 184.8579
1249.131, 183.6856
1249.613, 182.7701
1250.095, 183.8824
1250.577, 185.9375
1251.059, 186.7431
1251.542, 186.4460
1252.024, 186.9549
1252.506, 188.2619
1252.988, 188.8191
1253.470, 188.5179
1253.952, 188.0276
1254.434, 187.5999
1254.916, 187.7200
1255.399, 188.8233
1255.881, 189.7895
1256.363, 188.4689
1256.845, 189.8495
1257.327, 188.1086
1257.809, 190.6013
1258.291, 191.5999
1258.773, 191.3064
1259.255, 190.7280
1259.738, 190.1448
1260.220, 189.6092
1260.702, 188.9221
1261.184, 188.8976
1261.666, 190.2625
1262.148, 191.7174
1262.630, 193.5335
1263.112, 194.4115
1263.594, 192.5688
1264.077, 189.9354
1264.559, 189.5811
1265.041, 188.3947
1265.523, 187.9091
1266.005, 188.5279
1266.487, 188.1841
1266.969, 190.3555
1267.451, 191.4852
1267.934, 190.7041
1268.416, 189.8954
1268.898, 190.1247
1269.380, 190.5759
1269.862, 190.2791
1270.344, 189.5867
1270.826, 188.7962
1271.308, 188.2881
1271.791, 189.0882
1272.273, 190.6250
1272.755, 191.7515
1273.237, 192.2751
1273.719, 192.4174
1274.201, 192.2417
1274.683, 191.9273
1275.165, 191.3979
1275.647, 190.9697
1276.130, 190.8999
1276.612, 190.8010
1277.094, 190.0071
1277.576, 189.4632
1278.058, 190.5412
1278.540, 192.4836
1279.022, 193.1228
1279.504, 192.3445
1279.986, 191.8402
1280.469, 191.5125
1280.951, 192.5063
1281.433, 195.1147
1281.915, 196.0909
1282.397, 194.2520
1282.879, 192.5090
1283.361, 193.2233
1283.843, 194.7964
1284.326, 195.3398
1284.808, 194.8349
##END=



