##NAMES=Alforsite
##RRUFFID=R070356
##IDEAL CHEMISTRY=Ba_5_(PO_4_)_3_Cl
##LOCALITY=Madrelena mine, Tres Pozos, Baja California Norte, Mexico
##OWNER=Michael Scott
##SOURCE=Michael Scott
##DESCRIPTION=Colorless fragment
##STATUS=The identification of this mineral has been confirmed only by single crystal X-ray diffraction.
##URL=rruff.info/R070356
166.0538, 23614.90
166.5359, 23705.39
167.0180, 23808.89
167.5002, 23949.95
167.9823, 24098.25
168.4644, 24232.04
168.9465, 24349.29
169.4286, 24455.11
169.9107, 24544.71
170.3929, 24624.83
170.8750, 24712.00
171.3571, 24846.68
171.8392, 24977.85
172.3213, 25040.63
172.8034, 25011.54
173.2856, 24962.69
173.7677, 24945.48
174.2498, 24960.10
174.7319, 25006.89
175.2140, 25115.80
175.6961, 25250.10
176.1783, 25354.55
176.6604, 25418.07
177.1425, 25448.70
177.6246, 25435.22
178.1067, 25385.50
178.5888, 25350.01
179.0710, 25383.51
179.5531, 25458.43
180.0352, 25510.97
180.5173, 25513.29
180.9994, 25498.69
181.4815, 25520.57
181.9637, 25578.50
182.4458, 25652.44
182.9279, 25735.33
183.4100, 25823.01
183.8921, 25900.27
184.3742, 25955.43
184.8564, 26000.77
185.3385, 26067.37
185.8206, 26157.52
186.3027, 26248.26
186.7848, 26310.07
187.2669, 26347.64
187.7491, 26398.46
188.2312, 26476.84
188.7133, 26578.24
189.1954, 26695.98
189.6775, 26834.39
190.1596, 26966.31
190.6418, 27055.06
191.1239, 27101.08
191.6060, 27141.73
192.0881, 27181.47
192.5702, 27223.66
193.0524, 27304.46
193.5345, 27431.90
194.0166, 27576.37
194.4987, 27688.43
194.9808, 27766.05
195.4629, 27842.58
195.9451, 27933.88
196.4272, 28040.73
196.9093, 28142.55
197.3914, 28238.22
197.8735, 28329.64
198.3556, 28420.81
198.8378, 28511.86
199.3199, 28599.87
199.8020, 28688.46
200.2841, 28778.71
200.7662, 28839.20
201.2483, 28860.63
201.7305, 28858.17
202.2126, 28869.51
202.6947, 28897.97
203.1768, 28927.93
203.6589, 28950.01
204.1410, 28963.10
204.6232, 28977.45
205.1053, 29001.18
205.5874, 29023.61
206.0695, 29001.67
206.5516, 28919.99
207.0337, 28834.26
207.5159, 28784.36
207.9980, 28778.85
208.4801, 28771.75
208.9622, 28753.73
209.4443, 28729.96
209.9264, 28731.45
210.4086, 28772.59
210.8907, 28810.13
211.3728, 28800.46
211.8549, 28719.12
212.3370, 28676.51
212.8191, 28702.08
213.3013, 28784.90
213.7834, 28832.09
214.2655, 28829.87
214.7476, 28814.11
215.2297, 28811.38
215.7118, 28816.74
216.1940, 28851.89
216.6761, 28935.94
217.1582, 29065.03
217.6403, 29141.08
218.1224, 29148.02
218.6045, 29122.38
219.0867, 29092.45
219.5688, 29045.67
220.0509, 29026.90
220.5330, 29058.74
221.0151, 29143.56
221.4972, 29181.20
221.9794, 29148.56
222.4615, 29094.95
222.9436, 29072.35
223.4257, 29090.24
223.9078, 29121.11
224.3899, 29165.20
224.8721, 29226.04
225.3542, 29261.48
225.8363, 29269.34
226.3184, 29254.26
226.8005, 29215.49
227.2827, 29128.50
227.7648, 29065.44
228.2469, 29047.10
228.7290, 29078.14
229.2111, 29119.75
229.6932, 29183.87
230.1754, 29248.40
230.6575, 29285.28
231.1396, 29289.65
231.6217, 29273.39
232.1038, 29231.11
232.5859, 29151.86
233.0681, 29106.95
233.5502, 29108.25
234.0323, 29135.28
234.5144, 29158.81
234.9965, 29173.97
235.4786, 29193.75
235.9608, 29223.39
236.4429, 29265.22
236.9250, 29304.58
237.4071, 29342.10
237.8892, 29376.46
238.3713, 29403.22
238.8535, 29410.23
239.3356, 29430.33
239.8177, 29479.60
240.2998, 29572.35
240.7819, 29639.27
241.2640, 29675.36
241.7462, 29689.63
242.2283, 29696.57
242.7104, 29692.22
243.1925, 29686.86
243.6746, 29680.45
244.1567, 29665.65
244.6389, 29676.97
245.1210, 29724.62
245.6031, 29792.11
246.0852, 29851.80
246.5673, 29906.24
247.0494, 29948.38
247.5316, 29972.98
248.0137, 29972.61
248.4958, 29980.77
248.9779, 30003.46
249.4600, 30031.30
249.9421, 30042.73
250.4243, 30019.72
250.9064, 30012.91
251.3885, 30047.25
251.8706, 30143.59
252.3527, 30211.94
252.8348, 30247.39
253.3170, 30258.02
253.7991, 30252.57
254.2812, 30212.07
254.7633, 30192.12
255.2454, 30220.40
255.7275, 30315.41
256.2097, 30388.46
256.6918, 30432.43
257.1739, 30458.58
257.6560, 30490.85
258.1381, 30540.49
258.6202, 30572.71
259.1024, 30564.66
259.5845, 30496.05
260.0666, 30474.60
260.5487, 30516.41
261.0308, 30593.30
261.5129, 30659.14
261.9951, 30716.25
262.4772, 30755.11
262.9593, 30762.75
263.4414, 30725.38
263.9235, 30728.49
264.4056, 30793.30
264.8878, 30878.87
265.3699, 30904.14
265.8520, 30840.89
266.3341, 30798.76
266.8162, 30830.81
267.2983, 30953.22
267.7805, 31043.98
268.2626, 31097.07
268.7447, 31124.17
269.2268, 31140.49
269.7089, 31141.13
270.1910, 31148.79
270.6732, 31180.59
271.1553, 31242.17
271.6374, 31263.01
272.1195, 31225.62
272.6016, 31173.19
273.0837, 31185.99
273.5659, 31278.70
274.0480, 31361.23
274.5301, 31389.29
275.0122, 31359.75
275.4943, 31367.78
275.9764, 31423.67
276.4586, 31497.80
276.9407, 31547.86
277.4228, 31571.87
277.9049, 31584.06
278.3870, 31579.05
278.8691, 31558.93
279.3513, 31577.09
279.8334, 31640.95
280.3155, 31723.99
280.7976, 31799.90
281.2798, 31868.90
281.7619, 31910.90
282.2440, 31908.11
282.7261, 31867.26
283.2082, 31835.24
283.6903, 31809.68
284.1725, 31801.74
284.6546, 31837.23
285.1367, 31913.88
285.6188, 31979.28
286.1009, 32009.58
286.5830, 32013.08
287.0652, 32022.51
287.5473, 32037.03
288.0294, 32061.82
288.5115, 32111.74
288.9936, 32182.88
289.4757, 32240.59
289.9579, 32266.98
290.4400, 32273.48
290.9221, 32292.97
291.4042, 32326.18
291.8863, 32363.13
292.3684, 32393.46
292.8506, 32418.71
293.3327, 32446.87
293.8148, 32487.13
294.2969, 32528.18
294.7790, 32540.18
295.2611, 32523.09
295.7433, 32512.52
296.2254, 32558.54
296.7075, 32638.12
297.1896, 32681.71
297.6717, 32643.65
298.1538, 32582.76
298.6360, 32596.38
299.1181, 32679.24
299.6002, 32767.79
300.0823, 32811.94
300.5644, 32827.99
301.0465, 32848.28
301.5287, 32887.18
302.0108, 32926.26
302.4929, 32944.17
302.9750, 32942.92
303.4571, 32933.05
303.9392, 32901.94
304.4214, 32872.36
304.9035, 32878.27
305.3856, 32943.30
305.8677, 33020.66
306.3498, 33077.86
306.8319, 33114.82
307.3141, 33132.09
307.7962, 33101.71
308.2783, 33064.57
308.7604, 33064.79
309.2425, 33125.59
309.7246, 33193.34
310.2068, 33234.95
310.6889, 33257.05
311.1710, 33277.55
311.6531, 33305.90
312.1352, 33335.47
312.6173, 33360.02
313.0995, 33375.51
313.5816, 33394.12
314.0637, 33419.25
314.5458, 33451.73
315.0279, 33493.21
315.5100, 33567.18
315.9922, 33633.10
316.4743, 33663.59
316.9564, 33645.44
317.4385, 33633.59
317.9206, 33649.54
318.4027, 33681.85
318.8849, 33714.48
319.3670, 33740.24
319.8491, 33768.17
320.3312, 33805.55
320.8133, 33856.67
321.2954, 33894.54
321.7776, 33902.84
322.2597, 33899.89
322.7418, 33905.24
323.2239, 33937.44
323.7060, 33962.44
324.1881, 33958.85
324.6703, 33920.66
325.1524, 33925.75
325.6345, 34026.97
326.1166, 34148.34
326.5987, 34229.57
327.0808, 34236.83
327.5630, 34243.24
328.0451, 34258.32
328.5272, 34281.41
329.0093, 34297.73
329.4914, 34302.02
329.9735, 34303.95
330.4557, 34309.29
330.9378, 34316.68
331.4199, 34329.34
331.9020, 34342.95
332.3841, 34361.27
332.8662, 34407.96
333.3484, 34507.77
333.8305, 34597.75
334.3126, 34638.20
334.7947, 34606.36
335.2768, 34595.61
335.7589, 34618.85
336.2411, 34661.13
336.7232, 34679.88
337.2053, 34662.02
337.6874, 34658.60
338.1695, 34706.88
338.6516, 34817.20
339.1338, 34879.96
339.6159, 34880.05
340.0980, 34852.36
340.5801, 34854.51
341.0622, 34888.87
341.5443, 34932.29
342.0265, 34980.23
342.5086, 35031.09
342.9907, 35075.30
343.4728, 35113.16
343.9549, 35141.64
344.4370, 35146.60
344.9192, 35131.73
345.4013, 35134.16
345.8834, 35177.07
346.3655, 35243.77
346.8476, 35289.02
347.3297, 35312.32
347.8119, 35325.83
348.2940, 35334.52
348.7761, 35341.52
349.2582, 35355.45
349.7403, 35377.12
350.2225, 35408.77
350.7046, 35459.88
351.1867, 35528.23
351.6688, 35593.28
352.1509, 35645.82
352.6331, 35684.35
353.1152, 35704.55
353.5973, 35699.30
354.0794, 35687.20
354.5615, 35675.69
355.0436, 35669.04
355.5258, 35680.24
356.0079, 35733.59
356.4900, 35798.38
356.9721, 35848.79
357.4542, 35880.12
357.9363, 35899.70
358.4185, 35894.77
358.9006, 35882.63
359.3827, 35893.25
359.8648, 35967.51
360.3469, 36044.43
360.8290, 36090.26
361.3112, 36098.51
361.7933, 36102.95
362.2754, 36104.14
362.7575, 36110.96
363.2396, 36133.14
363.7217, 36190.92
364.2039, 36245.96
364.6860, 36291.48
365.1681, 36327.29
365.6502, 36348.21
366.1323, 36327.95
366.6144, 36308.32
367.0966, 36318.39
367.5787, 36381.00
368.0608, 36446.82
368.5429, 36528.89
369.0250, 36617.06
369.5071, 36654.36
369.9893, 36593.27
370.4714, 36536.46
370.9535, 36537.60
371.4356, 36632.07
371.9177, 36703.38
372.3998, 36743.91
372.8820, 36763.83
373.3641, 36783.07
373.8462, 36798.96
374.3283, 36820.96
374.8104, 36853.58
375.2925, 36897.97
375.7747, 36944.81
376.2568, 36997.46
376.7389, 37046.69
377.2210, 37075.17
377.7031, 37081.07
378.1852, 37092.18
378.6674, 37114.68
379.1495, 37149.27
379.6316, 37208.56
380.1137, 37295.43
380.5958, 37376.49
381.0779, 37413.80
381.5601, 37415.52
382.0422, 37418.61
382.5243, 37429.98
383.0064, 37448.86
383.4885, 37474.19
383.9706, 37506.13
384.4528, 37543.95
384.9349, 37601.32
385.4170, 37660.95
385.8991, 37691.45
386.3812, 37681.71
386.8633, 37664.54
387.3455, 37656.98
387.8276, 37664.64
388.3097, 37700.75
388.7918, 37799.01
389.2739, 37910.95
389.7560, 37993.68
390.2382, 38041.19
390.7203, 38092.50
391.2024, 38168.27
391.6845, 38259.18
392.1666, 38355.61
392.6487, 38461.40
393.1309, 38564.99
393.6130, 38654.92
394.0951, 38733.68
394.5772, 38826.09
395.0593, 38948.34
395.5414, 39080.10
396.0236, 39207.54
396.5057, 39319.17
396.9878, 39438.38
397.4699, 39568.10
397.9520, 39706.64
398.4341, 39846.77
398.9163, 39975.26
399.3984, 40118.97
399.8805, 40288.74
400.3626, 40491.10
400.8447, 40700.75
401.3268, 40921.31
401.8090, 41146.27
402.2911, 41369.59
402.7732, 41585.09
403.2553, 41809.09
403.7374, 42045.08
404.2195, 42293.02
404.7017, 42555.84
405.1838, 42839.89
405.6659, 43124.63
406.1480, 43400.50
406.6301, 43669.27
407.1122, 43893.90
407.5944, 44056.17
408.0765, 44183.12
408.5586, 44345.90
409.0407, 44544.15
409.5228, 44719.79
410.0049, 44840.61
410.4871, 44907.91
410.9692, 44921.87
411.4513, 44878.04
411.9334, 44797.99
412.4155, 44682.64
412.8976, 44546.12
413.3798, 44433.37
413.8619, 44372.53
414.3440, 44338.88
414.8261, 44308.62
415.3082, 44280.98
415.7903, 44257.18
416.2725, 44214.20
416.7546, 44184.13
417.2367, 44203.14
417.7188, 44300.00
418.2009, 44429.02
418.6830, 44570.48
419.1652, 44727.53
419.6473, 44906.35
420.1294, 45136.18
420.6115, 45369.70
421.0937, 45580.09
421.5758, 45734.57
422.0579, 45920.57
422.5400, 46195.80
423.0221, 46500.05
423.5042, 46740.17
423.9864, 46887.43
424.4685, 46997.50
424.9506, 47089.58
425.4327, 47166.11
425.9148, 47176.38
426.3969, 47111.45
426.8791, 46990.70
427.3612, 46831.36
427.8433, 46636.70
428.3254, 46392.65
428.8075, 46087.82
429.2896, 45735.95
429.7718, 45389.75
430.2539, 45050.59
430.7360, 44707.04
431.2181, 44338.45
431.7002, 43950.20
432.1823, 43626.97
432.6645, 43380.68
433.1466, 43172.71
433.6287, 42956.01
434.1108, 42734.36
434.5929, 42525.57
435.0750, 42341.17
435.5572, 42174.52
436.0393, 42009.87
436.5214, 41848.06
437.0035, 41706.42
437.4856, 41621.75
437.9677, 41560.18
438.4499, 41469.13
438.9320, 41305.63
439.4141, 41160.14
439.8962, 41113.96
440.3783, 41137.95
440.8604, 41155.64
441.3426, 41124.38
441.8247, 41083.96
442.3068, 41058.95
442.7889, 41056.80
443.2710, 41047.07
443.7531, 41014.43
444.2353, 40972.95
444.7174, 40937.60
445.1995, 40918.39
445.6816, 40897.24
446.1637, 40858.38
446.6458, 40806.88
447.1280, 40799.70
447.6101, 40879.85
448.0922, 40957.02
448.5743, 40976.02
449.0564, 40904.64
449.5385, 40862.66
450.0207, 40862.20
450.5028, 40884.25
450.9849, 40893.48
451.4670, 40887.64
451.9491, 40879.39
452.4312, 40865.52
452.9134, 40850.59
453.3955, 40879.07
453.8776, 40956.61
454.3597, 41036.36
454.8418, 41074.15
455.3239, 41075.15
455.8061, 41055.83
456.2882, 41010.27
456.7703, 40960.91
457.2524, 40939.07
457.7345, 40941.30
458.2166, 40953.27
458.6988, 40962.33
459.1809, 40978.86
459.6630, 41023.40
460.1451, 41104.46
460.6272, 41168.29
461.1093, 41158.60
461.5915, 41118.56
462.0736, 41101.98
462.5557, 41156.39
463.0378, 41208.14
463.5199, 41216.24
464.0020, 41189.27
464.4842, 41194.01
464.9663, 41288.70
465.4484, 41385.80
465.9305, 41436.61
466.4126, 41393.41
466.8947, 41387.05
467.3769, 41444.41
467.8590, 41526.72
468.3411, 41568.60
468.8232, 41546.77
469.3053, 41530.48
469.7874, 41540.92
470.2696, 41576.11
470.7517, 41597.83
471.2338, 41601.78
471.7159, 41605.26
472.1980, 41625.24
472.6801, 41661.36
473.1623, 41692.76
473.6444, 41715.42
474.1265, 41734.73
474.6086, 41761.26
475.0907, 41793.70
475.5728, 41823.52
476.0550, 41849.77
476.5371, 41869.34
477.0192, 41865.13
477.5013, 41835.89
477.9834, 41828.84
478.4655, 41905.38
478.9477, 42018.47
479.4298, 42105.56
479.9119, 42140.78
480.3940, 42156.38
480.8761, 42162.81
481.3582, 42161.87
481.8404, 42158.52
482.3225, 42133.89
482.8046, 42124.16
483.2867, 42149.18
483.7688, 42220.67
484.2509, 42292.07
484.7331, 42381.93
485.2152, 42457.96
485.6973, 42488.87
486.1794, 42446.10
486.6615, 42405.82
487.1436, 42372.89
487.6258, 42350.09
488.1079, 42353.24
488.5900, 42388.36
489.0721, 42432.90
489.5542, 42476.11
490.0363, 42518.17
490.5185, 42558.58
491.0006, 42596.46
491.4827, 42634.43
491.9648, 42682.72
492.4470, 42736.88
492.9291, 42770.28
493.4112, 42765.09
493.8933, 42741.12
494.3754, 42720.20
494.8575, 42704.13
495.3397, 42705.34
495.8218, 42744.72
496.3039, 42799.63
496.7860, 42851.82
497.2681, 42906.88
497.7502, 42929.27
498.2324, 42843.87
498.7145, 42730.45
499.1966, 42695.86
499.6787, 42871.42
500.1608, 43030.62
500.6429, 43094.22
501.1251, 43067.05
501.6072, 43051.06
502.0893, 43065.84
502.5714, 43082.13
503.0535, 43084.36
503.5356, 43058.47
504.0178, 43052.36
504.4999, 43069.61
504.9820, 43103.59
505.4641, 43146.48
505.9462, 43199.42
506.4283, 43254.74
506.9105, 43311.12
507.3926, 43367.63
507.8747, 43426.18
508.3568, 43488.00
508.8389, 43531.38
509.3210, 43522.45
509.8032, 43483.31
510.2853, 43478.44
510.7674, 43520.81
511.2495, 43576.36
511.7316, 43616.07
512.2137, 43642.97
512.6959, 43662.77
513.1780, 43674.02
513.6601, 43682.48
514.1422, 43686.70
514.6243, 43688.89
515.1064, 43703.45
515.5886, 43754.70
516.0707, 43807.10
516.5528, 43837.91
517.0349, 43835.80
517.5170, 43830.40
517.9991, 43799.37
518.4813, 43776.33
518.9634, 43808.59
519.4455, 43937.14
519.9276, 44051.42
520.4097, 44132.84
520.8918, 44181.57
521.3740, 44205.12
521.8561, 44200.76
522.3382, 44180.28
522.8203, 44134.07
523.3024, 44066.66
523.7845, 44059.28
524.2667, 44126.91
524.7488, 44215.04
525.2309, 44259.26
525.7130, 44269.10
526.1951, 44275.08
526.6772, 44271.09
527.1594, 44284.73
527.6415, 44378.21
528.1236, 44528.54
528.6057, 44636.41
529.0878, 44607.96
529.5699, 44538.55
530.0521, 44495.52
530.5342, 44488.45
531.0163, 44502.24
531.4984, 44551.77
531.9805, 44611.36
532.4626, 44653.94
532.9448, 44655.96
533.4269, 44664.53
533.9090, 44684.28
534.3911, 44714.32
534.8732, 44751.69
535.3553, 44802.57
535.8375, 44849.89
536.3196, 44882.09
536.8017, 44898.13
537.2838, 44933.91
537.7659, 44995.84
538.2480, 45057.40
538.7302, 45077.05
539.2123, 45064.21
539.6944, 45087.29
540.1765, 45174.04
540.6586, 45279.34
541.1407, 45341.33
541.6229, 45368.73
542.1050, 45394.09
542.5871, 45446.17
543.0692, 45496.68
543.5513, 45508.25
544.0334, 45479.52
544.5156, 45471.15
544.9977, 45501.95
545.4798, 45570.34
545.9619, 45678.56
546.4440, 45881.18
546.9261, 46042.98
547.4083, 46127.89
547.8904, 46163.85
548.3725, 46196.90
548.8546, 46206.64
549.3367, 46248.59
549.8188, 46347.95
550.3010, 46497.89
550.7831, 46614.95
551.2652, 46690.53
551.7473, 46762.21
552.2294, 46857.81
552.7115, 46975.02
553.1937, 47086.27
553.6758, 47188.22
554.1579, 47289.02
554.6400, 47390.51
555.1221, 47498.67
555.6042, 47629.54
556.0864, 47807.47
556.5685, 47993.74
557.0506, 48142.70
557.5327, 48265.18
558.0148, 48399.25
558.4969, 48560.21
558.9791, 48741.69
559.4612, 48936.64
559.9433, 49140.80
560.4254, 49372.77
560.9075, 49689.96
561.3896, 50004.87
561.8718, 50248.76
562.3539, 50430.21
562.8360, 50524.74
563.3181, 50523.45
563.8002, 50436.95
564.2823, 50271.30
564.7645, 50008.64
565.2466, 49752.97
565.7287, 49546.58
566.2108, 49382.15
566.6929, 49225.34
567.1750, 49076.67
567.6572, 48952.16
568.1393, 48855.80
568.6214, 48796.94
569.1035, 48813.39
569.5856, 48929.64
570.0677, 49044.52
570.5499, 49063.68
571.0320, 49029.03
571.5141, 49007.32
571.9962, 49026.11
572.4783, 49059.27
572.9604, 49127.80
573.4426, 49213.31
573.9247, 49224.48
574.4068, 49099.52
574.8889, 48938.34
575.3710, 48769.06
575.8531, 48584.98
576.3353, 48439.48
576.8174, 48341.31
577.2995, 48270.90
577.7816, 48207.27
578.2637, 48149.05
578.7458, 48118.63
579.2280, 48123.04
579.7101, 48149.74
580.1922, 48182.72
580.6743, 48220.40
581.1564, 48253.80
581.6385, 48264.59
582.1207, 48276.36
582.6028, 48320.70
583.0849, 48395.31
583.5670, 48484.73
584.0491, 48589.35
584.5313, 48698.96
585.0134, 48814.05
585.4955, 48950.54
585.9776, 49039.19
586.4597, 49006.51
586.9418, 48939.66
587.4240, 48938.12
587.9061, 49034.58
588.3882, 49154.14
588.8703, 49328.57
589.3524, 49510.24
589.8345, 49540.85
590.3167, 49384.15
590.7988, 49214.84
591.2809, 49117.56
591.7630, 49072.80
592.2451, 48979.66
592.7272, 48836.52
593.2094, 48684.27
593.6915, 48541.18
594.1736, 48416.40
594.6557, 48333.86
595.1378, 48307.37
595.6199, 48287.33
596.1021, 48241.93
596.5842, 48178.49
597.0663, 48107.09
597.5485, 48001.61
598.0306, 47920.94
598.5127, 47882.25
598.9948, 47883.80
599.4769, 47917.97
599.9590, 48033.94
600.4412, 48121.19
600.9233, 48129.14
601.4054, 48049.47
601.8875, 48029.79
602.3696, 48088.79
602.8517, 48162.36
603.3339, 48190.12
603.8160, 48176.73
604.2981, 48182.66
604.7802, 48218.38
605.2623, 48261.07
605.7444, 48270.14
606.2266, 48261.64
606.7087, 48279.13
607.1908, 48367.31
607.6729, 48458.09
608.1550, 48500.34
608.6371, 48501.13
609.1193, 48484.83
609.6014, 48449.92
610.0835, 48409.62
610.5656, 48356.23
611.0477, 48279.73
611.5298, 48272.47
612.0120, 48385.93
612.4941, 48519.73
612.9762, 48611.62
613.4583, 48660.59
613.9404, 48662.68
614.4225, 48598.64
614.9047, 48520.87
615.3868, 48501.57
615.8689, 48538.35
616.3510, 48606.43
616.8331, 48717.57
617.3152, 48831.14
617.7974, 48873.21
618.2795, 48859.70
618.7616, 48854.84
619.2437, 48888.85
619.7258, 48948.53
620.2079, 49033.69
620.6901, 49143.30
621.1722, 49244.78
621.6543, 49382.47
622.1364, 49469.46
622.6185, 49430.49
623.1006, 49148.04
623.5828, 49000.96
624.0649, 49057.45
624.5470, 49186.76
625.0291, 49224.44
625.5112, 49147.02
625.9933, 49107.49
626.4755, 49144.43
626.9576, 49219.34
627.4397, 49254.37
627.9218, 49253.30
628.4039, 49244.96
628.8860, 49217.86
629.3682, 49205.25
629.8503, 49286.11
630.3324, 49443.42
630.8145, 49547.48
631.2966, 49452.52
631.7787, 49325.14
632.2609, 49288.97
632.7430, 49383.35
633.2251, 49476.24
633.7072, 49553.12
634.1893, 49610.83
634.6714, 49647.16
635.1536, 49659.81
635.6357, 49651.11
636.1178, 49604.19
636.5999, 49553.88
637.0820, 49577.46
637.5641, 49678.52
638.0463, 49761.54
638.5284, 49784.61
639.0105, 49780.85
639.4926, 49826.59
639.9747, 49912.29
640.4568, 49981.30
640.9390, 49977.63
641.4211, 49956.36
641.9032, 49977.86
642.3853, 50046.15
642.8674, 50093.61
643.3495, 50083.96
643.8317, 50050.11
644.3138, 50010.79
644.7959, 49940.73
645.2780, 49922.65
645.7601, 49988.37
646.2422, 50078.01
646.7244, 50115.95
647.2065, 50088.16
647.6886, 50082.07
648.1707, 50120.07
648.6528, 50177.07
649.1349, 50197.47
649.6171, 50187.07
650.0992, 50187.44
650.5813, 50229.75
651.0634, 50286.11
651.5455, 50327.51
652.0276, 50354.20
652.5098, 50365.27
652.9919, 50350.49
653.4740, 50327.64
653.9561, 50297.01
654.4382, 50249.59
654.9203, 50252.38
655.4025, 50371.96
655.8846, 50496.57
656.3667, 50544.99
656.8488, 50480.63
657.3309, 50451.25
657.8130, 50467.55
658.2952, 50509.28
658.7773, 50548.43
659.2594, 50586.43
659.7415, 50641.16
660.2236, 50733.06
660.7057, 50817.71
661.1879, 50814.16
661.6700, 50748.87
662.1521, 50695.61
662.6342, 50688.86
663.1163, 50706.66
663.5984, 50752.75
664.0806, 50820.01
664.5627, 50856.85
665.0448, 50813.67
665.5269, 50770.47
666.0090, 50757.83
666.4911, 50776.36
666.9733, 50831.40
667.4554, 50952.24
667.9375, 51051.48
668.4196, 51033.76
668.9017, 50904.15
669.3839, 50827.43
669.8660, 50821.02
670.3481, 50855.70
670.8302, 50933.52
671.3123, 51024.09
671.7944, 51055.24
672.2766, 50962.09
672.7587, 50872.67
673.2408, 50890.75
673.7229, 50970.05
674.2050, 51020.23
674.6871, 50951.38
675.1693, 50921.56
675.6514, 51011.92
676.1335, 51188.11
676.6156, 51261.08
677.0977, 51186.54
677.5798, 51109.70
678.0620, 51100.30
678.5441, 51149.26
679.0262, 51165.43
679.5083, 51147.13
679.9904, 51125.84
680.4725, 51124.99
680.9547, 51138.83
681.4368, 51159.66
681.9189, 51187.30
682.4010, 51213.82
682.8831, 51233.38
683.3652, 51249.17
683.8474, 51263.61
684.3295, 51271.33
684.8116, 51287.36
685.2937, 51331.54
685.7758, 51377.32
686.2579, 51384.53
686.7401, 51331.49
687.2222, 51302.35
687.7043, 51322.98
688.1864, 51365.95
688.6685, 51354.50
689.1506, 51292.88
689.6328, 51249.27
690.1149, 51252.82
690.5970, 51292.86
691.0791, 51368.13
691.5612, 51471.41
692.0433, 51563.56
692.5255, 51634.16
693.0076, 51680.56
693.4897, 51694.13
693.9718, 51671.45
694.4539, 51654.23
694.9360, 51648.26
695.4182, 51649.09
695.9003, 51656.18
696.3824, 51672.48
696.8645, 51681.71
697.3466, 51682.65
697.8287, 51679.76
698.3109, 51672.46
698.7930, 51663.82
699.2751, 51670.20
699.7572, 51694.84
700.2393, 51733.25
700.7214, 51788.19
701.2036, 51852.13
701.6857, 51913.21
702.1678, 51998.06
702.6499, 52043.29
703.1320, 51987.83
703.6141, 51875.97
704.0963, 51820.13
704.5784, 51852.25
705.0605, 51900.23
705.5426, 51959.65
706.0247, 52022.61
706.5068, 52047.29
706.9890, 52029.44
707.4711, 52010.07
707.9532, 52010.65
708.4353, 52025.21
708.9174, 52038.09
709.3995, 52049.87
709.8817, 52066.10
710.3638, 52084.75
710.8459, 52113.25
711.3280, 52170.46
711.8101, 52265.97
712.2922, 52321.30
712.7744, 52289.96
713.2565, 52228.63
713.7386, 52172.39
714.2207, 52109.08
714.7028, 52088.66
715.1849, 52130.41
715.6671, 52181.22
716.1492, 52163.29
716.6313, 52086.25
717.1134, 52071.84
717.5955, 52152.83
718.0776, 52263.20
718.5598, 52331.23
719.0419, 52367.97
719.5240, 52394.71
720.0061, 52423.95
720.4882, 52439.37
720.9703, 52418.34
721.4525, 52379.12
721.9346, 52363.37
722.4167, 52399.53
722.8988, 52429.30
723.3809, 52439.18
723.8630, 52434.95
724.3452, 52436.39
724.8273, 52441.85
725.3094, 52465.16
725.7915, 52526.16
726.2736, 52604.79
726.7557, 52649.36
727.2379, 52662.10
727.7200, 52660.66
728.2021, 52642.38
728.6842, 52624.79
729.1663, 52622.90
729.6484, 52638.30
730.1306, 52658.88
730.6127, 52682.28
731.0948, 52709.32
731.5769, 52743.20
732.0590, 52790.61
732.5411, 52816.48
733.0233, 52816.30
733.5054, 52804.67
733.9875, 52790.77
734.4696, 52775.80
734.9517, 52764.51
735.4338, 52754.36
735.9160, 52765.79
736.3981, 52857.27
736.8802, 52971.89
737.3623, 53017.75
737.8444, 52920.47
738.3266, 52848.77
738.8087, 52906.37
739.2908, 53014.46
739.7729, 53052.91
740.2551, 52944.65
740.7372, 52903.87
741.2193, 52982.61
741.7014, 53118.43
742.1835, 53177.33
742.6656, 53158.25
743.1478, 53129.17
743.6299, 53107.16
744.1120, 53092.90
744.5941, 53082.66
745.0762, 53080.40
745.5583, 53098.15
746.0405, 53157.64
746.5226, 53224.07
747.0047, 53286.88
747.4868, 53342.74
747.9689, 53372.77
748.4510, 53345.68
748.9332, 53330.13
749.4153, 53350.58
749.8974, 53403.69
750.3795, 53460.99
750.8616, 53527.76
751.3438, 53557.57
751.8259, 53471.62
752.3080, 53337.14
752.7901, 53339.02
753.2722, 53473.68
753.7543, 53591.12
754.2365, 53576.32
754.7186, 53513.29
755.2007, 53459.17
755.6828, 53416.37
756.1649, 53408.02
756.6470, 53472.33
757.1292, 53541.80
757.6113, 53572.80
758.0934, 53552.14
758.5755, 53557.00
759.0576, 53595.33
759.5397, 53632.83
760.0219, 53617.53
760.5040, 53571.32
760.9861, 53572.25
761.4682, 53640.97
761.9503, 53709.47
762.4324, 53710.85
762.9146, 53687.43
763.3967, 53689.41
763.8788, 53740.61
764.3609, 53798.77
764.8430, 53871.38
765.3251, 53939.05
765.8073, 53979.67
766.2894, 53989.39
766.7715, 53984.06
767.2536, 53959.84
767.7357, 53932.55
768.2178, 53928.26
768.7000, 53944.13
769.1821, 53971.19
769.6642, 54021.97
770.1463, 54057.93
770.6284, 54021.16
771.1105, 53948.87
771.5927, 53913.00
772.0748, 53953.83
772.5569, 54014.25
773.0390, 54112.51
773.5211, 54214.79
774.0032, 54211.79
774.4854, 54056.81
774.9675, 53979.93
775.4496, 54085.46
775.9317, 54281.95
776.4138, 54320.85
776.8959, 54230.32
777.3781, 54164.90
777.8602, 54245.73
778.3423, 54353.59
778.8244, 54385.67
779.3065, 54356.62
779.7886, 54333.73
780.2708, 54329.56
780.7529, 54344.50
781.2350, 54391.27
781.7171, 54462.57
782.1992, 54483.06
782.6813, 54440.56
783.1635, 54395.02
783.6456, 54375.68
784.1277, 54377.05
784.6098, 54374.84
785.0919, 54371.78
785.5740, 54393.45
786.0562, 54498.54
786.5383, 54605.07
787.0204, 54626.66
787.5025, 54559.57
787.9846, 54525.49
788.4667, 54594.40
788.9489, 54662.96
789.4310, 54683.22
789.9131, 54650.98
790.3952, 54648.14
790.8773, 54678.57
791.3594, 54720.34
791.8416, 54769.09
792.3237, 54814.84
792.8058, 54821.64
793.2879, 54788.61
793.7700, 54761.92
794.2521, 54759.00
794.7343, 54785.79
795.2164, 54864.12
795.6985, 55022.41
796.1806, 55109.66
796.6627, 55067.23
797.1448, 55001.06
797.6270, 54978.84
798.1091, 55007.05
798.5912, 55027.10
799.0733, 55037.92
799.5554, 55045.08
800.0375, 55048.64
800.5197, 55053.70
801.0018, 55071.70
801.4839, 55105.20
801.9660, 55142.58
802.4481, 55182.09
802.9302, 55219.14
803.4124, 55252.06
803.8945, 55292.56
804.3766, 55295.45
804.8587, 55232.52
805.3408, 55169.27
805.8229, 55169.37
806.3051, 55232.46
806.7872, 55305.38
807.2693, 55387.46
807.7514, 55456.78
808.2335, 55486.21
808.7156, 55490.64
809.1978, 55489.71
809.6799, 55483.14
810.1620, 55486.24
810.6441, 55521.15
811.1262, 55559.76
811.6083, 55572.29
812.0905, 55537.46
812.5726, 55526.91
813.0547, 55550.03
813.5368, 55582.21
814.0189, 55589.63
814.5010, 55578.31
814.9832, 55582.06
815.4653, 55605.45
815.9474, 55648.82
816.4295, 55739.33
816.9116, 55839.01
817.3937, 55899.94
817.8759, 55898.02
818.3580, 55879.91
818.8401, 55831.59
819.3222, 55786.68
819.8043, 55776.24
820.2864, 55802.97
820.7686, 55860.18
821.2507, 55958.03
821.7328, 56052.44
822.2149, 56081.27
822.6970, 56060.84
823.1791, 56025.12
823.6613, 55970.69
824.1434, 55940.13
824.6255, 55984.68
825.1076, 56058.50
825.5897, 56109.97
826.0718, 56113.07
826.5540, 56115.64
827.0361, 56108.00
827.5182, 56111.31
828.0003, 56165.23
828.4824, 56268.34
828.9645, 56328.45
829.4467, 56325.02
829.9288, 56303.88
830.4109, 56316.71
830.8930, 56346.53
831.3751, 56364.14
831.8572, 56347.02
832.3394, 56351.51
832.8215, 56422.97
833.3036, 56512.25
833.7857, 56566.45
834.2678, 56579.52
834.7499, 56566.32
835.2321, 56513.28
835.7142, 56467.72
836.1963, 56504.45
836.6784, 56601.13
837.1605, 56673.02
837.6426, 56699.37
838.1248, 56718.07
838.6069, 56773.11
839.0890, 56829.54
839.5711, 56845.58
840.0532, 56777.73
840.5353, 56731.46
841.0175, 56700.15
841.4996, 56705.34
841.9817, 56791.30
842.4638, 56964.13
842.9459, 57062.00
843.4280, 57060.18
843.9102, 57032.06
844.3923, 57063.69
844.8744, 57121.30
845.3565, 57150.10
845.8386, 57135.86
846.3207, 57106.05
846.8029, 57039.14
847.2850, 56982.97
847.7671, 56978.85
848.2492, 57039.02
848.7313, 57128.01
849.2134, 57263.50
849.6956, 57380.91
850.1777, 57396.37
850.6598, 57339.27
851.1419, 57314.27
851.6240, 57335.99
852.1061, 57366.40
852.5883, 57380.98
853.0704, 57388.07
853.5525, 57395.08
854.0346, 57402.77
854.5167, 57409.63
854.9988, 57401.66
855.4810, 57410.46
855.9631, 57470.57
856.4452, 57583.54
856.9273, 57664.34
857.4094, 57711.72
857.8915, 57716.09
858.3737, 57616.63
858.8558, 57495.34
859.3379, 57468.76
859.8200, 57556.99
860.3021, 57641.88
860.7842, 57683.32
861.2664, 57703.21
861.7485, 57709.55
862.2306, 57699.47
862.7127, 57706.89
863.1948, 57734.08
863.6769, 57768.93
864.1591, 57799.59
864.6412, 57832.45
865.1233, 57890.62
865.6054, 57972.68
866.0875, 58045.78
866.5696, 58097.53
867.0518, 58128.96
867.5339, 58137.25
868.0160, 58120.96
868.4981, 58099.93
868.9802, 58069.92
869.4623, 58042.95
869.9445, 58013.20
870.4266, 57991.97
870.9087, 58052.58
871.3908, 58187.01
871.8729, 58302.33
872.3550, 58316.36
872.8372, 58309.49
873.3193, 58362.62
873.8014, 58462.21
874.2835, 58519.99
874.7656, 58458.11
875.2477, 58422.48
875.7299, 58459.71
876.2120, 58548.50
876.6941, 58603.84
877.1762, 58625.64
877.6583, 58655.47
878.1404, 58729.69
878.6226, 58801.71
879.1047, 58789.74
879.5869, 58725.42
880.0690, 58689.89
880.5511, 58731.05
881.0332, 58786.03
881.5153, 58853.82
881.9974, 58917.98
882.4796, 58933.67
882.9617, 58884.62
883.4438, 58889.18
883.9259, 58998.50
884.4080, 59126.03
884.8901, 59110.34
885.3723, 59006.45
885.8544, 58942.49
886.3365, 58970.84
886.8186, 59034.89
887.3007, 59168.22
887.7828, 59297.49
888.2650, 59311.07
888.7471, 59137.80
889.2292, 59039.34
889.7113, 59044.05
890.1934, 59112.64
890.6755, 59231.46
891.1577, 59372.47
891.6398, 59441.49
892.1219, 59408.56
892.6040, 59364.26
893.0861, 59353.38
893.5682, 59371.58
894.0504, 59422.21
894.5325, 59538.90
895.0146, 59596.61
895.4967, 59571.71
895.9788, 59531.49
896.4609, 59532.10
896.9431, 59567.77
897.4252, 59599.77
897.9073, 59626.02
898.3894, 59669.41
898.8715, 59781.43
899.3536, 59894.62
899.8358, 59952.65
900.3179, 59947.02
900.8000, 59911.98
901.2821, 59798.89
901.7642, 59738.02
902.2463, 59819.93
902.7285, 60013.51
903.2106, 60069.41
903.6927, 59992.81
904.1748, 59928.66
904.6569, 59979.57
905.1390, 60075.54
905.6212, 60161.84
906.1033, 60233.65
906.5854, 60282.77
907.0675, 60305.90
907.5496, 60301.65
908.0317, 60248.91
908.5139, 60177.12
908.9960, 60190.57
909.4781, 60289.72
909.9602, 60364.72
910.4423, 60349.44
910.9244, 60335.56
911.4066, 60465.25
911.8887, 60670.52
912.3708, 60828.08
912.8529, 60853.41
913.3350, 60881.19
913.8171, 60958.94
914.2993, 61034.28
914.7814, 61009.21
915.2635, 60868.40
915.7456, 60845.41
916.2277, 60990.31
916.7098, 61184.93
917.1920, 61290.89
917.6741, 61356.96
918.1562, 61460.00
918.6383, 61630.58
919.1204, 61780.09
919.6025, 61847.10
920.0847, 61912.29
920.5668, 62024.55
921.0489, 62185.00
921.5310, 62395.25
922.0131, 62656.93
922.4952, 62945.83
922.9774, 63238.84
923.4595, 63547.55
923.9416, 63873.29
924.4237, 64220.00
924.9058, 64647.46
925.3879, 65176.98
925.8701, 65803.44
926.3522, 66513.75
926.8343, 67315.63
927.3164, 68250.35
927.7985, 69327.38
928.2806, 70487.16
928.7628, 71684.58
929.2449, 72949.43
929.7270, 74367.51
930.2091, 75898.46
930.6912, 77474.55
931.1733, 79017.50
931.6555, 80641.48
932.1376, 82419.63
932.6197, 84271.98
933.1018, 86070.77
933.5839, 87829.30
934.0660, 89557.83
934.5482, 91300.04
935.0303, 92933.34
935.5124, 94366.52
935.9945, 95591.07
936.4766, 96621.72
936.9587, 97595.91
937.4409, 98056.76
937.9230, 97778.30
938.4051, 96969.49
938.8872, 95776.63
939.3693, 94168.98
939.8514, 92252.67
940.3336, 90026.70
940.8157, 87635.35
941.2978, 85051.99
941.7799, 82432.30
942.2620, 79961.82
942.7441, 77664.70
943.2263, 75521.21
943.7084, 73506.45
944.1905, 71738.08
944.6726, 70274.38
945.1547, 69090.65
945.6368, 68036.14
946.1190, 67100.53
946.6011, 66333.10
947.0832, 65797.48
947.5653, 65393.29
948.0474, 64984.35
948.5295, 64593.44
949.0117, 64273.54
949.4938, 64079.64
949.9759, 63914.39
950.4580, 63754.63
950.9401, 63613.35
951.4222, 63525.80
951.9044, 63493.08
952.3865, 63414.23
952.8686, 63260.64
953.3507, 63118.64
953.8328, 63081.84
954.3149, 63110.66
954.7971, 63162.72
955.2792, 63239.42
955.7613, 63300.21
956.2434, 63342.56
956.7255, 63363.70
957.2076, 63358.70
957.6898, 63328.02
958.1719, 63283.34
958.6540, 63224.76
959.1361, 63184.07
959.6182, 63209.95
960.1003, 63242.13
960.5825, 63197.54
961.0646, 63097.15
961.5467, 63077.90
962.0288, 63245.75
962.5109, 63372.28
962.9930, 63398.30
963.4752, 63353.58
963.9573, 63289.34
964.4394, 63213.27
964.9215, 63170.07
965.4036, 63178.87
965.8857, 63216.79
966.3679, 63285.61
966.8500, 63363.73
967.3321, 63423.86
967.8142, 63468.34
968.2963, 63478.30
968.7784, 63441.01
969.2606, 63394.61
969.7427, 63378.70
970.2248, 63386.27
970.7069, 63393.24
971.1890, 63397.73
971.6711, 63401.65
972.1533, 63381.90
972.6354, 63382.27
973.1175, 63448.35
973.5996, 63578.38
974.0817, 63671.17
974.5638, 63724.20
975.0460, 63746.18
975.5281, 63725.61
976.0102, 63690.59
976.4923, 63707.73
976.9744, 63761.46
977.4565, 63806.09
977.9387, 63828.44
978.4208, 63830.36
978.9029, 63793.75
979.3850, 63745.92
979.8671, 63723.45
980.3492, 63729.67
980.8314, 63739.17
981.3135, 63745.41
981.7956, 63772.32
982.2777, 63854.99
982.7598, 63971.29
983.2419, 64102.35
983.7241, 64252.42
984.2062, 64355.00
984.6883, 64364.06
985.1704, 64344.89
985.6525, 64319.46
986.1346, 64289.09
986.6168, 64252.59
987.0989, 64211.89
987.5810, 64226.86
988.0631, 64375.32
988.5452, 64559.27
989.0273, 64706.61
989.5095, 64814.49
989.9916, 64872.33
990.4737, 64822.68
990.9558, 64812.02
991.4379, 64867.12
991.9200, 64953.95
992.4022, 65022.82
992.8843, 65077.07
993.3664, 65136.15
993.8485, 65205.23
994.3306, 65265.28
994.8127, 65283.29
995.2949, 65299.95
995.7770, 65364.09
996.2591, 65492.88
996.7412, 65540.40
997.2233, 65480.49
997.7054, 65433.41
998.1876, 65498.65
998.6697, 65617.10
999.1518, 65642.26
999.6339, 65599.34
1000.116, 65589.59
1000.598, 65719.50
1001.080, 65818.79
1001.562, 65794.15
1002.044, 65718.63
1002.527, 65727.38
1003.009, 65826.38
1003.491, 65929.55
1003.973, 66026.66
1004.455, 66094.98
1004.937, 66075.62
1005.419, 66027.16
1005.901, 66028.46
1006.384, 66108.73
1006.866, 66172.30
1007.348, 66203.20
1007.830, 66222.59
1008.312, 66240.17
1008.794, 66256.13
1009.276, 66270.77
1009.758, 66284.58
1010.240, 66301.80
1010.723, 66319.89
1011.205, 66347.19
1011.687, 66387.38
1012.169, 66441.55
1012.651, 66512.00
1013.133, 66606.36
1013.615, 66697.57
1014.097, 66785.14
1014.580, 66859.27
1015.062, 66893.37
1015.544, 66906.91
1016.026, 66944.23
1016.508, 67021.33
1016.990, 67073.03
1017.472, 67033.13
1017.954, 66998.19
1018.436, 67030.12
1018.919, 67124.51
1019.401, 67190.70
1019.883, 67228.63
1020.365, 67248.88
1020.847, 67265.49
1021.329, 67260.70
1021.811, 67189.07
1022.293, 67084.09
1022.776, 67028.61
1023.258, 67098.08
1023.740, 67113.34
1024.222, 67035.50
1024.704, 66933.70
1025.186, 66921.19
1025.668, 66965.55
1026.150, 66943.25
1026.632, 66830.84
1027.115, 66738.09
1027.597, 66764.52
1028.079, 66805.29
1028.561, 66779.73
1029.043, 66691.33
1029.525, 66644.49
1030.007, 66644.02
1030.489, 66651.80
1030.972, 66651.76
1031.454, 66648.92
1031.936, 66670.30
1032.418, 66691.77
1032.900, 66661.78
1033.382, 66489.85
1033.864, 66368.49
1034.346, 66313.17
1034.828, 66316.69
1035.311, 66408.48
1035.793, 66565.41
1036.275, 66622.06
1036.757, 66565.26
1037.239, 66469.31
1037.721, 66338.47
1038.203, 66228.95
1038.685, 66193.88
1039.167, 66226.45
1039.650, 66247.51
1040.132, 66257.73
1040.614, 66251.65
1041.096, 66224.06
1041.578, 66185.18
1042.060, 66155.08
1042.542, 66125.39
1043.024, 66077.46
1043.507, 65984.63
1043.989, 65916.96
1044.471, 65892.16
1044.953, 65888.44
1045.435, 65890.87
1045.917, 65899.46
1046.399, 65921.42
1046.881, 65955.47
1047.364, 65975.47
1047.846, 65949.63
1048.328, 65916.73
1048.810, 65910.74
1049.292, 65921.41
1049.774, 65899.09
1050.256, 65828.99
1050.738, 65777.52
1051.220, 65759.45
1051.703, 65760.72
1052.185, 65767.02
1052.667, 65776.99
1053.149, 65790.04
1053.631, 65808.38
1054.113, 65818.20
1054.595, 65803.30
1055.077, 65794.16
1055.559, 65815.45
1056.042, 65857.63
1056.524, 65844.70
1057.006, 65783.85
1057.488, 65734.26
1057.970, 65738.27
1058.452, 65753.23
1058.934, 65739.13
1059.416, 65722.30
1059.899, 65757.22
1060.381, 65870.01
1060.863, 65940.24
1061.345, 65952.50
1061.827, 65946.35
1062.309, 65958.88
1062.791, 65981.66
1063.273, 66007.76
1063.755, 66035.93
1064.238, 66044.94
1064.720, 66009.09
1065.202, 65978.93
1065.684, 65970.14
1066.166, 65976.45
1066.648, 65992.38
1067.130, 66010.46
1067.612, 65988.41
1068.094, 65879.72
1068.577, 65807.78
1069.059, 65870.55
1069.541, 65991.02
1070.023, 66103.64
1070.505, 66218.59
1070.987, 66245.87
1071.469, 66177.80
1071.951, 66101.18
1072.434, 66079.63
1072.916, 66079.55
1073.398, 66054.68
1073.880, 66015.84
1074.362, 66003.66
1074.844, 66056.23
1075.326, 66080.88
1075.808, 66048.43
1076.291, 66016.27
1076.773, 66091.10
1077.255, 66229.58
1077.737, 66300.70
1078.219, 66282.69
1078.701, 66253.58
1079.183, 66221.06
1079.665, 66222.88
1080.147, 66300.44
1080.630, 66428.09
1081.112, 66434.16
1081.594, 66323.42
1082.076, 66243.17
1082.558, 66253.90
1083.040, 66306.05
1083.522, 66371.38
1084.004, 66444.03
1084.486, 66520.52
1084.969, 66626.42
1085.451, 66655.43
1085.933, 66587.33
1086.415, 66517.84
1086.897, 66532.27
1087.379, 66588.09
1087.861, 66611.80
1088.343, 66608.84
1088.826, 66609.52
1089.308, 66619.74
1089.790, 66643.16
1090.272, 66686.89
1090.754, 66735.52
1091.236, 66761.10
1091.718, 66769.48
1092.200, 66795.70
1092.682, 66847.75
1093.165, 66873.37
1093.647, 66789.25
1094.129, 66715.31
1094.611, 66748.29
1095.093, 66865.52
1095.575, 66890.40
1096.057, 66818.11
1096.539, 66774.48
1097.022, 66813.00
1097.504, 66886.20
1097.986, 66979.63
1098.468, 67062.93
1098.950, 67089.23
1099.432, 67026.53
1099.914, 66967.49
1100.396, 66902.23
1100.879, 66875.66
1101.361, 66966.48
1101.843, 67097.63
1102.325, 67100.73
1102.807, 66905.73
1103.289, 67052.72
1103.771, 67145.27
1104.253, 67186.30
1104.735, 67021.47
1105.218, 67122.50
1105.700, 67116.95
1106.182, 67107.05
1106.664, 67245.44
1107.146, 67110.55
1107.628, 67246.60
1108.110, 67274.49
1108.592, 67351.88
1109.074, 67322.09
1109.557, 67325.45
1110.039, 67435.97
1110.521, 67487.13
1111.003, 67438.56
1111.485, 67486.70
1111.967, 67525.74
1112.449, 67573.70
1112.931, 67613.23
1113.414, 67618.19
1113.896, 67573.71
1114.378, 67569.45
1114.860, 67617.02
1115.342, 67654.23
1115.824, 67645.95
1116.306, 67606.13
1116.788, 67516.04
1117.271, 67416.87
1117.753, 67399.88
1118.235, 67588.84
1118.717, 67721.94
1119.199, 67774.15
1119.681, 67785.48
1120.163, 67774.87
1120.645, 67758.23
1121.127, 67790.25
1121.609, 67868.66
1122.092, 67947.18
1122.574, 68045.70
1123.056, 68081.63
1123.538, 67994.23
1124.020, 67860.18
1124.502, 67840.49
1124.984, 67921.95
1125.466, 68001.11
1125.949, 68062.23
1126.431, 68086.06
1126.913, 68014.58
1127.395, 67938.09
1127.877, 67921.52
1128.359, 67960.17
1128.841, 68029.68
1129.323, 68133.06
1129.806, 68214.72
1130.288, 68244.92
1130.770, 68265.76
1131.252, 68346.46
1131.734, 68430.74
1132.216, 68428.88
1132.698, 68281.21
1133.180, 68255.02
1133.662, 68385.16
1134.145, 68490.12
1134.627, 68408.86
1135.109, 68261.80
1135.591, 68237.20
1136.073, 68301.88
1136.555, 68372.41
1137.037, 68446.02
1137.519, 68492.25
1138.001, 68506.32
1138.484, 68499.23
1138.966, 68458.95
1139.448, 68412.27
1139.930, 68447.98
1140.412, 68558.05
1140.894, 68627.02
1141.376, 68538.57
1141.858, 68495.74
1142.341, 68572.56
1142.823, 68699.37
1143.305, 68742.90
1143.787, 68722.30
1144.269, 68731.11
1144.751, 68788.87
1145.233, 68830.62
1145.715, 68790.31
1146.198, 68754.28
1146.680, 68780.17
1147.162, 68848.40
1147.644, 68848.66
1148.126, 68788.96
1148.608, 68780.84
1149.090, 68876.54
1149.572, 68987.78
1150.054, 69102.21
1150.536, 69160.31
1151.019, 69078.19
1151.501, 68839.29
1151.983, 68725.48
1152.465, 68739.20
1152.947, 68800.26
1153.429, 68893.06
1153.911, 68982.63
1154.393, 69037.55
1154.876, 69064.47
1155.358, 69066.51
1155.840, 69010.91
1156.322, 69046.95
1156.804, 69193.39
1157.286, 69343.16
1157.768, 69411.31
1158.250, 69432.23
1158.733, 69434.07
1159.215, 69424.91
1159.697, 69432.16
1160.179, 69485.96
1160.661, 69492.59
1161.143, 69426.47
1161.625, 69352.95
1162.107, 69367.02
1162.589, 69415.61
1163.072, 69395.60
1163.554, 69305.34
1164.036, 69254.44
1164.518, 69293.20
1165.000, 69335.08
1165.482, 69361.53
1165.964, 69378.78
1166.446, 69393.36
1166.928, 69408.22
1167.411, 69424.72
1167.893, 69439.14
1168.375, 69487.53
1168.857, 69632.38
1169.339, 69750.41
1169.821, 69792.26
1170.303, 69775.05
1170.785, 69726.34
1171.268, 69660.72
1171.750, 69629.77
1172.232, 69671.06
1172.714, 69693.57
1173.196, 69608.91
1173.678, 69547.48
1174.160, 69606.86
1174.642, 69761.76
1175.125, 69844.73
1175.607, 69863.54
1176.089, 69856.19
1176.571, 69813.03
1177.053, 69784.72
1177.535, 69820.77
1178.017, 69861.20
1178.499, 69837.10
1178.981, 69749.72
1179.464, 69735.39
1179.946, 69791.89
1180.428, 69857.26
1180.910, 69889.08
1181.392, 69922.96
1181.874, 70003.65
1182.356, 70085.84
1182.838, 70079.23
1183.320, 69977.85
1183.803, 69995.55
1184.285, 70153.33
1184.767, 70278.74
1185.249, 70186.71
1185.731, 70071.56
1186.213, 70079.49
1186.695, 70169.95
1187.177, 70225.23
1187.660, 70244.62
1188.142, 70235.58
1188.624, 70196.89
1189.106, 70150.48
1189.588, 70071.60
1190.070, 70029.48
1190.552, 70114.19
1191.034, 70301.94
1191.516, 70415.78
1191.999, 70451.23
1192.481, 70451.46
1192.963, 70418.24
1193.445, 70390.26
1193.927, 70429.29
1194.409, 70477.41
1194.891, 70461.37
1195.373, 70375.17
1195.855, 70358.36
1196.338, 70421.54
1196.820, 70456.92
1197.302, 70403.92
1197.784, 70344.59
1198.266, 70369.78
1198.748, 70441.48
1199.230, 70528.07
1199.712, 70642.11
1200.195, 70634.34
1200.677, 70482.23
1201.159, 70367.33
1201.641, 70403.85
1202.123, 70505.41
1202.605, 70605.48
1203.087, 70690.92
1203.569, 70744.01
1204.052, 70775.98
1204.534, 70721.43
1205.016, 70558.98
1205.498, 70435.74
1205.980, 70492.85
1206.462, 70610.77
1206.944, 70647.09
1207.426, 70637.56
1207.908, 70668.44
1208.391, 70770.83
1208.873, 70844.20
1209.355, 70881.46
1209.837, 70908.98
1210.319, 70949.41
1210.801, 70991.95
1211.283, 71034.77
1211.765, 71069.02
1212.247, 71059.17
1212.730, 70983.84
1213.212, 70928.99
1213.694, 70902.00
1214.176, 70904.38
1214.658, 70947.53
1215.140, 71013.30
1215.622, 71105.13
1216.104, 71206.91
1216.587, 71224.13
1217.069, 71115.20
1217.551, 71057.44
1218.033, 71084.59
1218.515, 71147.19
1218.997, 71202.37
1219.479, 71254.30
1219.961, 71302.08
1220.443, 71348.04
1220.926, 71423.30
1221.408, 71542.93
1221.890, 71634.08
1222.372, 71683.28
1222.854, 71686.17
1223.336, 71605.98
1223.818, 71496.54
1224.300, 71407.04
1224.782, 71346.15
1225.265, 71360.05
1225.747, 71469.59
1226.229, 71550.54
1226.711, 71560.19
1227.193, 71538.88
1227.675, 71504.37
1228.157, 71485.22
1228.639, 71525.07
1229.122, 71635.28
1229.604, 71732.88
1230.086, 71825.16
1230.568, 71849.95
1231.050, 71744.17
1231.532, 71643.33
1232.014, 71738.08
1232.496, 71909.65
1232.979, 72013.25
1233.461, 72032.59
1233.943, 72023.86
1234.425, 71982.19
1234.907, 71964.59
1235.389, 72018.77
1235.871, 72074.66
1236.353, 72032.08
1236.835, 71966.62
1237.318, 71997.55
1237.800, 72154.13
1238.282, 72173.84
1238.764, 72048.08
1239.246, 71960.94
1239.728, 72050.44
1240.210, 72175.68
1240.692, 72232.87
1241.175, 72244.90
1241.657, 72235.67
1242.139, 72195.18
1242.621, 72228.25
1243.103, 72336.11
1243.585, 72408.34
1244.067, 72317.96
1244.549, 72234.23
1245.031, 72301.44
1245.514, 72429.63
1245.996, 72478.35
1246.478, 72434.77
1246.960, 72511.00
1247.442, 72702.22
1247.924, 72835.04
1248.406, 72737.87
1248.888, 72615.55
1249.370, 72561.73
1249.853, 72563.68
1250.335, 72622.63
1250.817, 72734.40
1251.299, 72776.48
1251.781, 72747.48
1252.263, 72711.73
1252.745, 72703.14
1253.227, 72703.28
1253.710, 72699.70
1254.192, 72703.91
1254.674, 72735.73
1255.156, 72790.98
1255.638, 72837.72
1256.120, 72875.23
1256.602, 72919.08
1257.084, 73013.02
1257.567, 73066.03
1258.049, 73033.56
1258.531, 72970.49
1259.013, 72935.97
1259.495, 72935.99
1259.977, 73018.91
1260.459, 73177.06
1260.941, 73292.67
1261.423, 73280.22
1261.906, 73254.80
1262.388, 73229.37
1262.870, 73224.58
1263.352, 73280.81
1263.834, 73377.24
1264.316, 73493.65
1264.798, 73617.90
1265.280, 73645.26
1265.762, 73437.52
1266.245, 73305.77
1266.727, 73314.91
1267.209, 73395.45
1267.691, 73484.58
1268.173, 73564.59
1268.655, 73603.92
1269.137, 73601.66
1269.619, 73579.52
1270.102, 73510.30
1270.584, 73516.12
1271.066, 73642.91
1271.548, 73781.92
1272.030, 73774.77
1272.512, 73713.63
1272.994, 73696.05
1273.476, 73733.60
1273.958, 73814.82
1274.441, 73951.17
1274.923, 74072.17
1275.405, 74168.59
1275.887, 74213.32
1276.369, 74140.52
1276.851, 74031.66
1277.333, 73956.45
1277.815, 73917.81
1278.297, 73898.90
1278.780, 73898.98
1279.262, 73946.76
1279.744, 74057.90
1280.226, 74158.29
1280.708, 74159.09
1281.190, 74154.31
1281.672, 74220.68
1282.154, 74336.23
1282.637, 74433.77
1283.119, 74509.84
1283.601, 74512.63
1284.083, 74417.22
1284.565, 74356.41
1285.047, 74465.89
1285.529, 74568.05
1286.011, 74568.41
1286.494, 74505.76
1286.976, 74491.82
1287.458, 74508.95
1287.940, 74483.38
1288.422, 74388.05
1288.904, 74353.21
1289.386, 74346.04
1289.868, 74564.93
1290.350, 74702.15
1290.833, 74762.15
1291.315, 74513.30
1291.797, 74663.18
1292.279, 74653.27
1292.761, 74636.80
1293.243, 74842.80
1293.725, 74638.86
1294.207, 74841.33
1294.689, 74881.56
1295.172, 74996.11
1295.654, 74949.83
1296.136, 74953.19
1296.618, 75117.38
1297.100, 75192.52
1297.582, 75107.33
1298.064, 75012.55
1298.546, 74952.99
1299.029, 75017.51
1299.511, 75100.69
1299.993, 75068.77
1300.475, 75017.99
1300.957, 75060.59
1301.439, 75178.98
1301.921, 75257.23
1302.403, 75294.77
1302.885, 75261.24
1303.368, 75127.66
1303.850, 75012.83
1304.332, 75008.76
1304.814, 75045.37
1305.296, 75074.32
1305.778, 75105.02
1306.260, 75179.09
##END=



