##NAMES=Allanite-(Ce)
##RRUFFID=R060418
##IDEAL CHEMISTRY=CaCeAl_2_Fe^2+^(Si_2_O_7_)(SiO_4_)O(OH)
##LOCALITY=Aquarius Range, Mohave County, Arizona, USA
##OWNER=RRUFF
##SOURCE=John Weber
##DESCRIPTION=Dark brown partially metamict, note that a fragment of this sample was heated and is posted at R080044
##STATUS=The identification of this mineral has been confirmed by X-ray diffraction and chemical analysis
##URL=rruff.info/R060418
##MEASURED CHEMISTRY=Ca_1.00_(Ce^3+^_0.36_Nd_0.18_La_0.13_Y_0.09_Th_0.07_Mn_0.06_Ca_0.06_Ti_0.05_)_Σ=1_Fe^2+^_1.00_(Al_1.88_Fe^3+^_0.12_)_Σ=2_[Si_2.00_O_7_][Si_1.00_O_4_]O(OH)
152.8323, 1742.220
153.3145, 1741.781
153.7966, 1741.222
154.2787, 1740.143
154.7608, 1738.652
155.2429, 1736.933
155.7250, 1735.019
156.2072, 1732.811
156.6893, 1731.961
157.1714, 1733.554
157.6535, 1735.191
158.1356, 1736.345
158.6177, 1736.749
159.0999, 1735.917
159.5820, 1733.247
160.0641, 1728.351
160.5462, 1723.804
161.0283, 1718.049
161.5104, 1713.651
161.9926, 1713.422
162.4747, 1717.661
162.9568, 1722.908
163.4389, 1725.832
163.9210, 1726.512
164.4031, 1725.710
164.8853, 1722.665
165.3674, 1718.454
165.8495, 1714.229
166.3316, 1709.612
166.8137, 1706.542
167.2958, 1708.070
167.7780, 1713.042
168.2601, 1717.185
168.7422, 1718.186
169.2243, 1716.642
169.7064, 1714.787
170.1885, 1712.316
170.6707, 1710.297
171.1528, 1709.325
171.6349, 1709.319
172.1170, 1709.867
172.5991, 1711.206
173.0812, 1713.447
173.5634, 1714.089
174.0455, 1710.977
174.5276, 1707.752
175.0097, 1705.703
175.4918, 1704.948
175.9739, 1705.118
176.4561, 1706.126
176.9382, 1708.603
177.4203, 1709.709
177.9024, 1709.261
178.3845, 1707.771
178.8666, 1704.395
179.3488, 1699.620
179.8309, 1695.567
180.3130, 1695.494
180.7951, 1702.468
181.2772, 1706.510
181.7593, 1706.067
182.2415, 1704.127
182.7236, 1702.865
183.2057, 1702.795
183.6878, 1702.936
184.1699, 1701.649
184.6520, 1697.055
185.1342, 1695.034
185.6163, 1698.511
186.0984, 1703.440
186.5805, 1705.211
187.0626, 1702.364
187.5447, 1697.376
188.0269, 1694.336
188.5090, 1693.588
188.9911, 1692.866
189.4732, 1691.118
189.9553, 1689.157
190.4374, 1688.622
190.9196, 1690.309
191.4017, 1692.818
191.8838, 1694.297
192.3659, 1694.823
192.8480, 1694.516
193.3301, 1692.997
193.8123, 1690.565
194.2944, 1688.214
194.7765, 1685.755
195.2586, 1684.080
195.7407, 1684.280
196.2228, 1686.386
196.7050, 1688.382
197.1871, 1688.943
197.6692, 1688.101
198.1513, 1686.352
198.6334, 1682.238
199.1155, 1678.623
199.5977, 1677.830
200.0798, 1679.877
200.5619, 1682.504
201.0440, 1683.868
201.5261, 1684.014
202.0082, 1682.636
202.4904, 1676.043
202.9725, 1670.545
203.4546, 1670.555
203.9367, 1676.050
204.4188, 1682.619
204.9009, 1684.651
205.3831, 1680.635
205.8652, 1676.572
206.3473, 1672.107
206.8294, 1668.070
207.3115, 1664.860
207.7936, 1662.594
208.2758, 1661.254
208.7579, 1660.949
209.2400, 1662.300
209.7221, 1663.363
210.2042, 1664.673
210.6863, 1665.397
211.1685, 1664.512
211.6506, 1662.023
212.1327, 1659.260
212.6148, 1658.266
213.0969, 1660.788
213.5790, 1661.341
214.0612, 1658.237
214.5433, 1654.362
215.0254, 1651.940
215.5075, 1651.510
215.9896, 1652.173
216.4717, 1652.823
216.9539, 1653.914
217.4360, 1653.612
217.9181, 1650.031
218.4002, 1645.963
218.8823, 1644.662
219.3644, 1646.940
219.8466, 1650.081
220.3287, 1650.212
220.8108, 1646.742
221.2929, 1643.757
221.7750, 1642.316
222.2571, 1641.450
222.7393, 1639.760
223.2214, 1636.836
223.7035, 1633.848
224.1856, 1632.740
224.6677, 1633.366
225.1498, 1633.099
225.6320, 1630.197
226.1141, 1626.250
226.5962, 1624.091
227.0783, 1624.583
227.5604, 1625.673
228.0425, 1625.258
228.5247, 1623.665
229.0068, 1622.020
229.4889, 1620.684
229.9710, 1619.610
230.4531, 1618.689
230.9352, 1617.921
231.4174, 1617.306
231.8995, 1616.510
232.3816, 1615.770
232.8637, 1615.873
233.3458, 1618.548
233.8279, 1622.495
234.3101, 1623.062
234.7922, 1618.106
235.2743, 1613.148
235.7564, 1611.566
236.2385, 1612.262
236.7206, 1613.080
237.2028, 1613.035
237.6849, 1612.160
238.1670, 1610.568
238.6491, 1608.067
239.1312, 1605.046
239.6133, 1600.916
240.0955, 1596.532
240.5776, 1593.376
241.0597, 1592.711
241.5418, 1593.883
242.0239, 1593.611
242.5060, 1590.298
242.9882, 1587.724
243.4703, 1586.897
243.9524, 1587.442
244.4345, 1589.107
244.9166, 1592.105
245.3987, 1595.704
245.8809, 1596.225
246.3630, 1590.341
246.8451, 1585.536
247.3272, 1583.905
247.8093, 1584.020
248.2914, 1583.971
248.7736, 1582.697
249.2557, 1580.617
249.7378, 1579.485
250.2199, 1580.728
250.7020, 1581.158
251.1841, 1579.698
251.6663, 1577.445
252.1484, 1575.790
252.6305, 1575.408
253.1126, 1575.831
253.5947, 1575.547
254.0768, 1573.183
254.5590, 1571.795
255.0411, 1571.836
255.5232, 1572.828
256.0053, 1574.839
256.4874, 1577.867
256.9695, 1580.692
257.4517, 1580.359
257.9338, 1571.987
258.4159, 1566.170
258.8980, 1564.064
259.3801, 1564.054
259.8622, 1564.936
260.3444, 1566.236
260.8265, 1567.237
261.3086, 1566.503
261.7907, 1561.533
262.2728, 1558.814
262.7549, 1560.468
263.2371, 1563.398
263.7192, 1564.331
264.2013, 1562.430
264.6834, 1559.465
265.1655, 1558.073
265.6476, 1559.118
266.1298, 1559.799
266.6119, 1560.075
267.0940, 1559.969
267.5761, 1559.287
268.0582, 1558.033
268.5403, 1556.804
269.0225, 1556.245
269.5046, 1556.458
269.9867, 1557.309
270.4688, 1560.519
270.9509, 1563.308
271.4330, 1562.627
271.9152, 1558.286
272.3973, 1553.466
272.8794, 1551.401
273.3615, 1552.331
273.8436, 1551.772
274.3257, 1547.538
274.8079, 1543.269
275.2900, 1542.575
275.7721, 1545.382
276.2542, 1547.901
276.7363, 1547.096
277.2184, 1543.252
277.7006, 1540.395
278.1827, 1538.886
278.6648, 1538.098
279.1469, 1537.846
279.6290, 1538.056
280.1111, 1538.216
280.5933, 1537.904
281.0754, 1537.373
281.5575, 1537.449
282.0396, 1538.642
282.5217, 1539.828
283.0038, 1540.668
283.4860, 1541.053
283.9681, 1540.267
284.4502, 1537.511
284.9323, 1533.757
285.4144, 1530.945
285.8965, 1528.947
286.3787, 1528.070
286.8608, 1529.059
287.3429, 1531.447
287.8250, 1533.701
288.3071, 1535.669
288.7892, 1536.749
289.2714, 1535.767
289.7535, 1532.438
290.2356, 1529.638
290.7177, 1529.132
291.1998, 1530.182
291.6819, 1530.718
292.1641, 1530.016
292.6462, 1529.249
293.1283, 1530.552
293.6104, 1533.590
294.0925, 1534.673
294.5746, 1530.633
295.0568, 1523.932
295.5389, 1519.590
296.0210, 1518.582
296.5031, 1518.753
296.9852, 1518.572
297.4673, 1518.129
297.9495, 1517.632
298.4316, 1517.588
298.9137, 1517.363
299.3958, 1515.336
299.8779, 1510.853
300.3600, 1507.654
300.8422, 1510.290
301.3243, 1515.644
301.8064, 1518.173
302.2885, 1515.026
302.7706, 1510.189
303.2527, 1508.337
303.7349, 1509.653
304.2170, 1511.274
304.6991, 1512.375
305.1812, 1512.724
305.6633, 1511.981
306.1454, 1509.930
306.6276, 1507.208
307.1097, 1503.529
307.5918, 1499.059
308.0739, 1496.737
308.5560, 1498.511
309.0381, 1502.162
309.5203, 1505.313
310.0024, 1507.948
310.4845, 1509.724
310.9666, 1510.231
311.4487, 1509.613
311.9308, 1508.485
312.4130, 1506.668
312.8951, 1504.777
313.3772, 1503.738
313.8593, 1503.341
314.3414, 1502.171
314.8235, 1498.103
315.3057, 1492.785
315.7878, 1491.049
316.2699, 1494.752
316.7520, 1498.540
317.2341, 1497.743
317.7162, 1494.063
318.1984, 1491.047
318.6805, 1489.940
319.1626, 1490.248
319.6447, 1491.778
320.1268, 1494.986
320.6089, 1497.155
321.0911, 1496.250
321.5732, 1493.435
322.0553, 1489.978
322.5374, 1485.563
323.0195, 1481.482
323.5016, 1478.987
323.9838, 1478.063
324.4659, 1478.490
324.9480, 1481.662
325.4301, 1485.077
325.9122, 1485.293
326.3943, 1481.523
326.8765, 1477.788
327.3586, 1477.661
327.8407, 1480.379
328.3228, 1481.544
328.8049, 1479.440
329.2870, 1476.450
329.7692, 1475.013
330.2513, 1475.008
330.7334, 1475.285
331.2155, 1475.383
331.6976, 1475.359
332.1797, 1475.554
332.6619, 1476.315
333.1440, 1476.402
333.6261, 1474.211
334.1082, 1470.527
334.5903, 1467.075
335.0724, 1462.912
335.5546, 1460.000
336.0367, 1462.292
336.5188, 1470.409
337.0009, 1477.029
337.4830, 1476.531
337.9651, 1472.134
338.4473, 1470.109
338.9294, 1472.477
339.4115, 1475.183
339.8936, 1474.501
340.3757, 1470.919
340.8578, 1468.255
341.3400, 1468.510
341.8221, 1469.737
342.3042, 1468.827
342.7863, 1465.439
343.2684, 1461.985
343.7505, 1459.167
344.2327, 1457.162
344.7148, 1456.691
345.1969, 1458.296
345.6790, 1460.395
346.1611, 1461.105
346.6432, 1460.645
347.1254, 1460.111
347.6075, 1459.713
348.0896, 1459.424
348.5717, 1459.196
349.0538, 1459.022
349.5359, 1459.064
350.0181, 1459.892
350.5002, 1461.044
350.9823, 1460.660
351.4644, 1456.377
351.9465, 1452.473
352.4286, 1452.449
352.9108, 1455.583
353.3929, 1458.514
353.8750, 1459.843
354.3571, 1459.699
354.8392, 1458.387
355.3214, 1455.512
355.8035, 1452.574
356.2856, 1449.687
356.7677, 1447.180
357.2498, 1445.866
357.7319, 1446.109
358.2141, 1446.857
358.6962, 1446.477
359.1783, 1444.623
359.6604, 1443.864
360.1425, 1444.857
360.6246, 1446.850
361.1068, 1449.857
361.5889, 1453.669
362.0710, 1456.326
362.5531, 1455.877
363.0352, 1452.358
363.5173, 1450.163
363.9995, 1449.930
364.4816, 1450.234
364.9637, 1451.077
365.4458, 1451.963
365.9279, 1451.444
366.4100, 1448.507
366.8922, 1444.265
367.3743, 1442.472
367.8564, 1445.041
368.3385, 1447.148
368.8206, 1448.332
369.3027, 1448.669
369.7849, 1447.936
370.2670, 1446.135
370.7491, 1444.080
371.2312, 1442.922
371.7133, 1443.028
372.1954, 1443.003
372.6776, 1442.449
373.1597, 1442.104
373.6418, 1443.242
374.1239, 1445.265
374.6060, 1445.748
375.0881, 1442.389
375.5703, 1435.395
376.0524, 1431.534
376.5345, 1433.070
377.0166, 1435.038
377.4987, 1436.756
377.9808, 1438.122
378.4630, 1439.196
378.9451, 1440.007
379.4272, 1440.408
379.9093, 1440.060
380.3914, 1438.898
380.8735, 1436.967
381.3557, 1432.746
381.8378, 1428.897
382.3199, 1427.667
382.8020, 1429.169
383.2841, 1431.713
383.7662, 1433.721
384.2484, 1435.390
384.7305, 1435.131
385.2126, 1428.924
385.6947, 1424.638
386.1768, 1426.608
386.6589, 1432.329
387.1411, 1436.561
387.6232, 1435.959
388.1053, 1431.906
388.5874, 1429.544
389.0695, 1430.439
389.5516, 1430.035
390.0338, 1424.903
390.5159, 1419.464
390.9980, 1418.693
391.4801, 1423.892
391.9622, 1430.230
392.4443, 1431.043
392.9265, 1425.549
393.4086, 1422.235
393.8907, 1424.091
394.3728, 1426.613
394.8549, 1427.744
395.3370, 1427.378
395.8192, 1425.648
396.3013, 1421.573
396.7834, 1416.216
397.2655, 1413.361
397.7476, 1413.834
398.2297, 1414.686
398.7119, 1413.916
399.1940, 1412.720
399.6761, 1412.871
400.1582, 1415.341
400.6403, 1418.070
401.1224, 1418.746
401.6046, 1417.496
402.0867, 1416.435
402.5688, 1416.238
403.0509, 1416.445
403.5330, 1416.477
404.0151, 1416.329
404.4973, 1416.254
404.9794, 1416.542
405.4615, 1416.926
405.9436, 1416.786
406.4257, 1415.974
406.9078, 1415.317
407.3900, 1415.655
407.8721, 1416.787
408.3542, 1417.549
408.8363, 1417.915
409.3184, 1417.855
409.8005, 1417.185
410.2827, 1416.037
410.7648, 1414.841
411.2469, 1413.767
411.7290, 1412.787
412.2111, 1411.762
412.6932, 1410.318
413.1754, 1409.708
413.6575, 1410.490
414.1396, 1412.016
414.6217, 1413.929
415.1038, 1416.054
415.5859, 1417.794
416.0681, 1418.642
416.5502, 1418.609
417.0323, 1417.108
417.5144, 1412.867
417.9965, 1408.734
418.4786, 1405.829
418.9608, 1403.889
419.4429, 1402.169
419.9250, 1400.272
420.4071, 1398.516
420.8892, 1397.807
421.3713, 1399.021
421.8535, 1400.034
422.3356, 1401.190
422.8177, 1401.872
423.2998, 1401.357
423.7819, 1399.712
424.2640, 1397.821
424.7462, 1396.654
425.2283, 1396.283
425.7104, 1395.452
426.1925, 1393.716
426.6746, 1391.968
427.1567, 1389.920
427.6389, 1388.147
428.1210, 1387.724
428.6031, 1389.345
429.0852, 1391.832
429.5673, 1392.698
430.0494, 1391.486
430.5316, 1390.337
431.0137, 1390.150
431.4958, 1389.904
431.9779, 1389.179
432.4600, 1387.863
432.9421, 1385.607
433.4243, 1380.695
433.9064, 1374.318
434.3885, 1372.335
434.8706, 1377.006
435.3527, 1381.420
435.8348, 1380.605
436.3170, 1376.632
436.7991, 1372.518
437.2812, 1368.230
437.7633, 1365.109
438.2454, 1365.548
438.7275, 1368.879
439.2097, 1370.271
439.6918, 1367.497
440.1739, 1362.899
440.6560, 1359.605
441.1381, 1357.433
441.6202, 1356.816
442.1024, 1359.811
442.5845, 1363.370
443.0666, 1363.510
443.5487, 1360.057
444.0308, 1356.226
444.5129, 1354.354
444.9951, 1354.279
445.4772, 1354.188
445.9593, 1354.774
446.4414, 1354.563
446.9235, 1352.797
447.4056, 1350.045
447.8878, 1346.794
448.3699, 1343.254
448.8520, 1340.253
449.3341, 1339.200
449.8162, 1341.174
450.2983, 1342.066
450.7805, 1341.848
451.2626, 1340.760
451.7447, 1338.436
452.2268, 1335.320
452.7089, 1332.348
453.1910, 1330.137
453.6732, 1328.595
454.1553, 1327.380
454.6374, 1326.631
455.1195, 1325.989
455.6016, 1325.646
456.0837, 1325.209
456.5659, 1324.270
457.0480, 1322.781
457.5301, 1321.168
458.0122, 1319.952
458.4943, 1319.111
458.9764, 1317.906
459.4586, 1316.173
459.9407, 1314.271
460.4228, 1312.102
460.9049, 1309.963
461.3870, 1308.576
461.8691, 1308.805
462.3513, 1308.871
462.8334, 1305.796
463.3155, 1299.757
463.7976, 1295.542
464.2797, 1295.528
464.7618, 1296.920
465.2440, 1296.120
465.7261, 1293.128
466.2082, 1289.998
466.6903, 1286.982
467.1724, 1284.420
467.6545, 1283.051
468.1367, 1282.845
468.6188, 1282.447
469.1009, 1280.839
469.5830, 1278.343
470.0651, 1276.541
470.5472, 1275.836
471.0294, 1275.220
471.5115, 1274.802
471.9936, 1274.180
472.4757, 1272.578
472.9578, 1269.880
473.4399, 1267.102
473.9221, 1265.600
474.4042, 1265.816
474.8863, 1264.689
475.3684, 1260.305
475.8505, 1256.747
476.3326, 1256.415
476.8148, 1257.770
477.2969, 1258.221
477.7790, 1256.522
478.2611, 1253.226
478.7432, 1249.126
479.2253, 1243.318
479.7075, 1239.364
480.1896, 1239.681
480.6717, 1240.303
481.1538, 1238.699
481.6359, 1235.256
482.1180, 1232.303
482.6002, 1231.570
483.0823, 1232.420
483.5644, 1233.536
484.0465, 1235.519
484.5286, 1235.427
485.0107, 1229.524
485.4929, 1222.076
485.9750, 1218.341
486.4571, 1219.398
486.9392, 1221.403
487.4213, 1223.164
487.9034, 1224.039
488.3856, 1221.699
488.8677, 1215.285
489.3498, 1209.517
489.8319, 1209.136
490.3140, 1213.663
490.7961, 1215.466
491.2783, 1212.689
491.7604, 1209.202
492.2425, 1205.978
492.7246, 1203.421
493.2067, 1202.397
493.6888, 1203.214
494.1710, 1204.976
494.6531, 1206.420
495.1352, 1207.783
495.6173, 1207.957
496.0994, 1206.283
496.5815, 1204.246
497.0637, 1202.083
497.5458, 1200.161
498.0279, 1199.184
498.5100, 1199.625
498.9921, 1200.823
499.4742, 1201.241
499.9564, 1201.066
500.4385, 1199.557
500.9206, 1194.155
501.4027, 1189.317
501.8848, 1188.318
502.3669, 1190.813
502.8491, 1193.798
503.3312, 1195.515
503.8133, 1196.167
504.2954, 1196.416
504.7775, 1196.430
505.2596, 1195.153
505.7418, 1190.663
506.2239, 1185.404
506.7060, 1183.140
507.1881, 1184.810
507.6702, 1186.337
508.1523, 1185.891
508.6345, 1183.920
509.1166, 1180.188
509.5987, 1174.639
510.0808, 1171.001
510.5629, 1173.070
511.0450, 1180.152
511.5272, 1183.974
512.0093, 1182.313
512.4914, 1180.514
512.9735, 1180.734
513.4556, 1181.467
513.9377, 1180.422
514.4199, 1177.103
514.9020, 1173.122
515.3841, 1170.497
515.8662, 1169.377
516.3483, 1168.623
516.8304, 1169.026
517.3126, 1168.958
517.7947, 1167.701
518.2768, 1165.763
518.7589, 1163.942
519.2410, 1162.567
519.7231, 1161.192
520.2053, 1158.409
520.6874, 1153.920
521.1695, 1152.786
521.6516, 1158.167
522.1337, 1163.872
522.6158, 1165.990
523.0980, 1165.121
523.5801, 1162.833
524.0622, 1158.285
524.5443, 1153.930
525.0264, 1152.739
525.5085, 1154.260
525.9907, 1156.109
526.4728, 1157.839
526.9549, 1158.706
527.4370, 1156.903
527.9191, 1151.599
528.4012, 1149.010
528.8834, 1153.473
529.3655, 1157.654
529.8476, 1154.975
530.3297, 1147.516
530.8118, 1142.126
531.2939, 1142.574
531.7761, 1146.699
532.2582, 1149.033
532.7403, 1148.590
533.2224, 1148.058
533.7045, 1147.459
534.1866, 1146.799
534.6688, 1146.281
535.1509, 1145.715
535.6330, 1144.430
536.1151, 1141.559
536.5972, 1138.231
537.0793, 1138.188
537.5615, 1142.779
538.0436, 1145.061
538.5257, 1140.839
539.0078, 1135.169
539.4899, 1132.179
539.9720, 1131.982
540.4542, 1133.156
540.9363, 1137.043
541.4184, 1140.903
541.9005, 1139.543
542.3826, 1133.153
542.8647, 1128.486
543.3469, 1129.668
543.8290, 1134.176
544.3111, 1135.349
544.7932, 1131.744
545.2753, 1128.744
545.7574, 1126.796
546.2396, 1125.942
546.7217, 1127.068
547.2038, 1129.555
547.6859, 1130.891
548.1680, 1129.057
548.6501, 1125.167
549.1323, 1124.425
549.6144, 1129.858
550.0965, 1133.187
550.5786, 1132.559
551.0607, 1130.548
551.5428, 1128.764
552.0250, 1127.421
552.5071, 1126.097
552.9892, 1124.255
553.4713, 1122.278
553.9534, 1121.426
554.4355, 1121.935
554.9177, 1122.375
555.3998, 1122.120
555.8819, 1121.537
556.3640, 1121.100
556.8461, 1120.815
557.3282, 1120.675
557.8104, 1121.094
558.2925, 1121.413
558.7746, 1120.429
559.2567, 1118.314
559.7388, 1117.025
560.2209, 1118.023
560.7031, 1120.224
561.1852, 1120.171
561.6673, 1115.402
562.1494, 1111.775
562.6315, 1110.208
563.1136, 1109.145
563.5958, 1107.582
564.0779, 1105.443
564.5600, 1102.966
565.0421, 1100.144
565.5242, 1097.399
566.0063, 1096.622
566.4885, 1099.192
566.9706, 1099.698
567.4527, 1094.050
567.9348, 1088.004
568.4169, 1085.613
568.8990, 1086.776
569.3812, 1088.779
569.8633, 1091.369
570.3454, 1093.370
570.8275, 1092.653
571.3096, 1089.371
571.7917, 1085.758
572.2739, 1082.482
572.7560, 1079.755
573.2381, 1078.135
573.7202, 1078.013
574.2023, 1077.375
574.6844, 1075.386
575.1666, 1073.389
575.6487, 1072.735
576.1308, 1072.851
576.6129, 1071.809
577.0950, 1068.507
577.5771, 1064.537
578.0593, 1063.906
578.5414, 1068.932
579.0235, 1070.943
579.5056, 1067.253
579.9877, 1062.517
580.4698, 1057.724
580.9520, 1053.563
581.4341, 1051.443
581.9162, 1052.853
582.3983, 1054.760
582.8804, 1051.974
583.3625, 1045.129
583.8447, 1041.599
584.3268, 1044.194
584.8089, 1048.022
585.2910, 1047.813
585.7731, 1043.991
586.2552, 1040.914
586.7374, 1040.071
587.2195, 1038.903
587.7016, 1034.917
588.1837, 1030.018
588.6658, 1028.055
589.1479, 1030.041
589.6301, 1032.923
590.1122, 1032.744
590.5943, 1029.011
591.0764, 1026.931
591.5585, 1027.810
592.0406, 1028.882
592.5228, 1030.249
593.0049, 1031.098
593.4870, 1030.313
593.9691, 1027.641
594.4512, 1024.363
594.9333, 1021.332
595.4155, 1018.646
595.8976, 1016.879
596.3797, 1016.209
596.8618, 1015.828
597.3439, 1015.486
597.8260, 1015.034
598.3082, 1014.176
598.7903, 1012.869
599.2724, 1011.287
599.7545, 1009.191
600.2366, 1007.033
600.7188, 1005.615
601.2009, 1004.767
601.6830, 1003.139
602.1651, 999.6163
602.6472, 995.0894
603.1293, 993.0850
603.6115, 996.1807
604.0936, 997.0085
604.5757, 992.6894
605.0578, 988.2916
605.5399, 987.7355
606.0220, 989.9681
606.5042, 990.8391
606.9863, 987.5475
607.4684, 982.4222
607.9505, 978.9170
608.4326, 977.0183
608.9147, 976.5185
609.3969, 978.0323
609.8790, 979.7052
610.3611, 979.5274
610.8432, 977.6195
611.3253, 975.1009
611.8074, 971.3211
612.2896, 967.7579
612.7717, 964.8753
613.2538, 962.8217
613.7359, 962.2095
614.2180, 963.0895
614.7001, 963.9844
615.1823, 962.9101
615.6644, 959.6830
616.1465, 958.3568
616.6286, 961.1842
617.1107, 962.7973
617.5928, 961.3284
618.0750, 958.3607
618.5571, 955.2780
619.0392, 952.3972
619.5213, 949.8542
620.0034, 947.6240
620.4855, 945.8420
620.9677, 944.9949
621.4498, 945.1373
621.9319, 945.3078
622.4140, 945.1641
622.8961, 944.6348
623.3782, 943.4916
623.8604, 941.6432
624.3425, 939.5866
624.8246, 936.1338
625.3067, 933.5975
625.7888, 934.9220
626.2709, 938.3730
626.7531, 939.4590
627.2352, 935.9241
627.7173, 930.2335
628.1994, 926.8265
628.6815, 926.0219
629.1636, 925.7228
629.6458, 926.4328
630.1279, 926.8391
630.6100, 926.4874
631.0921, 925.3781
631.5742, 923.3013
632.0563, 919.7652
632.5385, 916.5985
633.0206, 915.8925
633.5027, 916.3008
633.9848, 914.4557
634.4669, 909.9653
634.9490, 906.7519
635.4312, 908.1762
635.9133, 912.8729
636.3954, 914.3422
636.8775, 908.7657
637.3596, 905.0164
637.8417, 904.6219
638.3239, 905.1248
638.8060, 904.9193
639.2881, 904.0035
639.7702, 903.0995
640.2523, 902.6527
640.7344, 902.4205
641.2166, 902.1603
641.6987, 901.9088
642.1808, 900.4606
642.6629, 896.6500
643.1450, 893.0823
643.6271, 893.2814
644.1093, 895.9315
644.5914, 896.0239
645.0735, 889.4414
645.5556, 884.1140
646.0377, 884.9056
646.5198, 888.7287
647.0020, 891.5036
647.4841, 892.3279
647.9662, 892.0675
648.4483, 891.4852
648.9304, 890.5003
649.4125, 888.3414
649.8947, 883.9964
650.3768, 880.4142
650.8589, 877.9265
651.3410, 876.4785
651.8231, 876.7518
652.3052, 878.2723
652.7874, 878.9548
653.2695, 877.4072
653.7516, 874.8372
654.2337, 872.5353
654.7158, 870.4781
655.1979, 868.5965
655.6801, 866.8896
656.1622, 865.2136
656.6443, 863.2796
657.1264, 861.0309
657.6085, 859.7830
658.0906, 859.9527
658.5728, 860.4521
659.0549, 861.3358
659.5370, 862.2387
660.0191, 862.8912
660.5012, 863.2057
660.9833, 863.1213
661.4655, 862.5822
661.9476, 861.6144
662.4297, 860.1965
662.9118, 858.2552
663.3939, 856.4606
663.8760, 855.0065
664.3582, 853.8095
664.8403, 852.6884
665.3224, 851.6536
665.8045, 851.1936
666.2866, 852.8780
666.7687, 853.5973
667.2509, 850.6076
667.7330, 845.8265
668.2151, 842.0632
668.6972, 840.1857
669.1793, 840.2462
669.6614, 842.9631
670.1436, 847.9010
670.6257, 848.4237
671.1078, 841.6862
671.5899, 836.4219
672.0720, 836.5198
672.5541, 837.9752
673.0363, 837.4753
673.5184, 835.0496
674.0005, 833.2323
674.4826, 833.8946
674.9647, 835.0020
675.4468, 834.2052
675.9290, 832.1412
676.4111, 830.9970
676.8932, 831.4747
677.3753, 832.0490
677.8574, 830.7770
678.3395, 827.5406
678.8217, 825.5625
679.3038, 826.3323
679.7859, 826.4846
680.2680, 824.3820
680.7501, 822.1649
681.2322, 822.5037
681.7144, 825.1517
682.1965, 826.6629
682.6786, 823.8458
683.1607, 819.1832
683.6428, 816.8498
684.1249, 816.5898
684.6071, 816.3844
685.0892, 815.7051
685.5713, 814.5112
686.0534, 812.4774
686.5355, 809.4875
687.0176, 807.9625
687.4998, 809.9147
687.9819, 810.6632
688.4640, 807.8139
688.9461, 803.9654
689.4282, 801.5418
689.9103, 800.9487
690.3925, 801.5498
690.8746, 803.5558
691.3567, 805.7582
691.8388, 804.6035
692.3209, 799.9232
692.8030, 796.5781
693.2852, 796.5926
693.7673, 796.9110
694.2494, 793.6467
694.7315, 787.1793
695.2136, 783.5184
695.6957, 785.4053
696.1779, 787.0563
696.6600, 786.3175
697.1421, 784.4149
697.6242, 782.4495
698.1063, 780.7526
698.5884, 779.5716
699.0706, 779.2779
699.5527, 779.3157
700.0348, 777.7579
700.5169, 774.1966
700.9990, 771.7264
701.4811, 771.3837
701.9633, 771.6601
702.4454, 771.6221
702.9275, 771.1976
703.4096, 769.9987
703.8917, 766.9589
704.3738, 764.5320
704.8560, 764.8002
705.3381, 765.6123
705.8202, 763.8853
706.3023, 759.7661
706.7844, 756.0138
707.2665, 754.5514
707.7487, 754.6569
708.2308, 754.4481
708.7129, 753.8382
709.1950, 753.3631
709.6771, 753.5129
710.1592, 753.2313
710.6414, 751.5826
711.1235, 749.0840
711.6056, 746.7414
712.0877, 744.5232
712.5698, 742.9496
713.0519, 742.8541
713.5341, 743.2102
714.0162, 743.1106
714.4983, 742.3179
714.9804, 740.2619
715.4625, 736.4800
715.9446, 732.1651
716.4268, 730.0470
716.9089, 730.7811
717.3910, 730.7385
717.8731, 729.5345
718.3552, 727.9023
718.8373, 725.6547
719.3195, 723.4221
719.8016, 722.2350
720.2837, 722.3878
720.7658, 722.6660
721.2479, 722.8339
721.7300, 722.5927
722.2122, 721.4832
722.6943, 719.6495
723.1764, 717.3929
723.6585, 714.8267
724.1406, 712.7274
724.6227, 712.5783
725.1049, 714.7419
725.5870, 715.2679
726.0691, 712.7916
726.5512, 710.8883
727.0333, 711.4969
727.5154, 712.7972
727.9976, 713.0709
728.4797, 712.1634
728.9618, 710.7122
729.4439, 708.7994
729.9260, 706.6135
730.4081, 703.6477
730.8903, 700.6352
731.3724, 699.6517
731.8545, 701.1898
732.3366, 703.2189
732.8187, 703.6361
733.3008, 702.5413
733.7830, 701.0589
734.2651, 698.7768
734.7472, 697.0130
735.2293, 696.9080
735.7114, 696.7218
736.1935, 694.7419
736.6757, 691.4638
737.1578, 689.2363
737.6399, 689.6044
738.1220, 690.1418
738.6041, 688.7181
739.0862, 686.6161
739.5684, 686.2877
740.0505, 687.7988
740.5326, 688.9032
741.0147, 687.9099
741.4968, 685.5095
741.9789, 683.7391
742.4611, 682.6407
742.9432, 682.0455
743.4253, 682.3266
743.9074, 682.6260
744.3895, 682.9968
744.8716, 682.9222
745.3538, 680.9840
745.8359, 675.9208
746.3180, 672.4403
746.8001, 674.2816
747.2822, 677.5768
747.7643, 678.3976
748.2465, 677.0043
748.7286, 675.4783
749.2107, 674.7687
749.6928, 673.9213
750.1749, 671.2955
750.6570, 666.7761
751.1392, 662.6560
751.6213, 658.4938
752.1034, 655.7181
752.5855, 655.1777
753.0676, 656.1694
753.5497, 658.4982
754.0319, 662.2322
754.5140, 663.9515
754.9961, 661.3674
755.4782, 658.0726
755.9603, 655.5784
756.4424, 654.0568
756.9246, 654.3475
757.4067, 656.1717
757.8888, 656.9362
758.3709, 653.9886
758.8530, 648.7394
759.3351, 646.0861
759.8173, 646.2996
760.2994, 646.9761
760.7815, 648.1445
761.2636, 648.7020
761.7457, 647.0906
762.2278, 643.9580
762.7100, 642.4883
763.1921, 644.5186
763.6742, 645.4757
764.1563, 643.2999
764.6384, 640.4815
765.1205, 638.9647
765.6027, 638.6071
766.0848, 638.3495
766.5669, 637.6786
767.0490, 637.2506
767.5311, 638.8309
768.0132, 641.6641
768.4954, 640.8726
768.9775, 635.6829
769.4596, 630.9887
769.9417, 629.0359
770.4238, 629.0413
770.9059, 629.9578
771.3881, 632.3826
771.8702, 633.1909
772.3523, 631.2654
772.8344, 629.1133
773.3165, 626.8762
773.7986, 625.2894
774.2808, 625.8640
774.7629, 628.3062
775.2450, 629.5460
775.7271, 626.3109
776.2092, 621.8973
776.6913, 622.0226
777.1735, 625.4299
777.6556, 626.6170
778.1377, 624.2591
778.6198, 621.4513
779.1019, 620.9908
779.5840, 622.2038
780.0662, 621.5582
780.5483, 617.6576
781.0304, 614.5402
781.5125, 611.6995
781.9946, 610.4432
782.4767, 613.0247
782.9589, 617.2521
783.4410, 618.7931
783.9231, 616.1494
784.4052, 613.1158
784.8873, 612.3387
785.3694, 612.1776
785.8516, 609.9638
786.3337, 606.4696
786.8158, 605.0254
787.2979, 606.9363
787.7800, 609.7900
788.2621, 610.4218
788.7443, 608.8983
789.2264, 607.1808
789.7085, 604.5646
790.1906, 603.8763
790.6727, 607.9293
791.1548, 612.3164
791.6370, 611.7830
792.1191, 607.1757
792.6012, 604.4977
793.0833, 606.0292
793.5654, 607.8629
794.0475, 608.9186
794.5297, 609.2910
795.0118, 608.7462
795.4939, 607.5897
795.9760, 606.7648
796.4581, 606.8357
796.9402, 607.1658
797.4224, 607.0829
797.9045, 606.4861
798.3866, 604.0735
798.8687, 599.3708
799.3508, 596.5126
799.8329, 598.3013
800.3151, 602.0878
800.7972, 602.8865
801.2793, 599.7522
801.7614, 597.3412
802.2435, 595.3123
802.7256, 594.3419
803.2078, 595.1730
803.6899, 596.8107
804.1720, 598.6487
804.6541, 600.3818
805.1362, 601.1712
805.6183, 600.0813
806.1005, 598.4213
806.5826, 597.1553
807.0647, 596.4495
807.5468, 597.1539
808.0289, 599.1926
808.5110, 600.4810
808.9932, 599.3823
809.4753, 597.0652
809.9574, 596.8986
810.4395, 599.6682
810.9216, 600.9618
811.4037, 599.7859
811.8859, 598.4130
812.3680, 598.1309
812.8501, 598.2547
813.3322, 597.6707
813.8143, 596.1676
814.2964, 595.1891
814.7786, 595.4518
815.2607, 595.9105
815.7428, 595.5133
816.2249, 595.1420
816.7070, 596.7382
817.1891, 600.1465
817.6713, 602.4025
818.1534, 600.6936
818.6355, 597.2738
819.1176, 596.9212
819.5997, 599.1517
820.0818, 599.9322
820.5640, 598.3954
821.0461, 596.8538
821.5282, 597.0591
822.0103, 598.3080
822.4924, 598.4120
822.9745, 596.4800
823.4567, 595.3906
823.9388, 595.1191
824.4209, 595.7084
824.9030, 598.5482
825.3851, 601.5607
825.8672, 601.4054
826.3494, 597.7256
826.8315, 595.3695
827.3136, 597.6882
827.7957, 601.2253
828.2778, 604.0811
828.7599, 605.7070
829.2421, 604.3424
829.7242, 600.2542
830.2063, 596.9775
830.6884, 597.3479
831.1705, 599.9327
831.6526, 601.4655
832.1348, 601.9447
832.6169, 600.6554
833.0990, 596.4811
833.5811, 594.0449
834.0632, 597.1020
834.5453, 602.8980
835.0275, 605.1927
835.5096, 602.1354
835.9917, 601.0339
836.4738, 603.7938
836.9559, 606.3024
837.4380, 606.9296
837.9202, 606.5889
838.4023, 606.2526
838.8844, 606.0954
839.3665, 605.9801
839.8486, 606.0042
840.3307, 605.8341
840.8129, 604.5928
841.2950, 603.0821
841.7771, 603.4102
842.2592, 605.5211
842.7413, 606.8018
843.2234, 605.4773
843.7056, 603.1556
844.1877, 603.4118
844.6698, 606.5427
845.1519, 608.4987
845.6340, 608.9776
846.1161, 608.7584
846.5983, 607.8906
847.0804, 606.7375
847.5625, 605.6058
848.0446, 604.4340
848.5267, 604.2188
849.0089, 605.6846
849.4910, 607.2224
849.9731, 608.7960
850.4552, 609.9388
850.9373, 610.2364
851.4194, 609.7364
851.9016, 608.4043
852.3837, 605.6822
852.8658, 604.1210
853.3479, 607.8920
853.8300, 613.5565
854.3121, 614.1813
854.7943, 610.4372
855.2764, 608.0192
855.7585, 609.3953
856.2406, 612.2453
856.7227, 613.6309
857.2048, 613.6447
857.6870, 613.6094
858.1691, 613.5914
858.6512, 613.2183
859.1333, 612.2539
859.6154, 611.1089
860.0975, 609.7651
860.5797, 608.4837
861.0618, 608.6892
861.5439, 612.2463
862.0260, 614.1439
862.5081, 611.7185
862.9902, 609.6637
863.4724, 612.0490
863.9545, 616.2178
864.4366, 617.2260
864.9187, 613.9604
865.4008, 610.8410
865.8829, 611.3600
866.3651, 613.0961
866.8472, 613.2136
867.3293, 612.3105
867.8114, 611.8060
868.2935, 612.0535
868.7756, 613.0714
869.2578, 615.0467
869.7399, 617.2230
870.2220, 617.7474
870.7041, 616.5830
871.1862, 613.9850
871.6683, 609.2751
872.1505, 605.6551
872.6326, 604.6961
873.1147, 605.8981
873.5968, 608.9220
874.0789, 614.5677
874.5610, 617.6346
875.0432, 616.8646
875.5253, 615.2864
876.0074, 612.2293
876.4895, 609.7106
876.9716, 609.6735
877.4537, 611.7208
877.9359, 614.0463
878.4180, 616.4794
878.9001, 618.0352
879.3822, 617.7826
879.8643, 616.5840
880.3464, 615.1028
880.8286, 613.5809
881.3107, 612.3834
881.7928, 611.6317
882.2749, 611.0310
882.7570, 610.1741
883.2391, 609.9681
883.7213, 609.1068
884.2034, 609.6370
884.6855, 610.0097
885.1676, 610.0413
885.6497, 609.7091
886.1318, 608.7839
886.6140, 607.7196
887.0961, 608.3119
887.5782, 612.1586
888.0603, 613.4270
888.5424, 609.6661
889.0245, 606.6645
889.5067, 607.3442
889.9888, 609.6215
890.4709, 611.6160
890.9530, 613.2145
891.4351, 613.2103
891.9172, 609.7525
892.3994, 606.6430
892.8815, 605.3315
893.3636, 605.1591
893.8457, 606.0417
894.3278, 607.4138
894.8099, 607.9128
895.2921, 606.8470
895.7742, 605.7805
896.2563, 606.7935
896.7384, 608.4799
897.2205, 608.3423
897.7026, 606.5957
898.1848, 604.0895
898.6669, 601.1889
899.1490, 599.5239
899.6311, 601.0129
900.1132, 604.5500
900.5953, 605.6599
901.0775, 604.0623
901.5596, 603.2955
902.0417, 604.0452
902.5238, 605.0052
903.0059, 605.5218
903.4880, 605.6298
903.9702, 605.4138
904.4523, 604.9075
904.9344, 603.9122
905.4165, 601.7665
905.8986, 599.9808
906.3807, 598.5678
906.8629, 597.8829
907.3450, 598.8989
907.8271, 601.0117
908.3092, 601.6960
908.7913, 599.1578
909.2734, 597.5113
909.7556, 600.2205
910.2377, 603.1983
910.7198, 601.7855
911.2019, 598.0704
911.6840, 597.0880
912.1661, 600.0739
912.6483, 603.0552
913.1304, 602.4586
913.6125, 600.0869
914.0946, 598.7487
914.5767, 598.1320
915.0588, 597.1816
915.5410, 595.7562
916.0231, 594.3920
916.5052, 593.3707
916.9873, 592.9055
917.4694, 593.8806
917.9515, 596.4197
918.4337, 596.5239
918.9158, 593.5024
919.3979, 591.0715
919.8800, 590.3245
920.3621, 591.0751
920.8442, 593.8239
921.3264, 598.1601
921.8085, 599.6000
922.2906, 595.7906
922.7727, 592.9305
923.2548, 591.8705
923.7369, 591.1420
924.2191, 590.0190
924.7012, 588.8211
925.1833, 587.9470
925.6654, 587.4252
926.1475, 587.6544
926.6296, 590.1412
927.1118, 591.7727
927.5939, 590.0613
928.0760, 587.3203
928.5581, 585.9833
929.0402, 586.0773
929.5223, 586.7640
930.0045, 587.8909
930.4866, 588.0164
930.9687, 584.5131
931.4508, 579.9572
931.9329, 578.9960
932.4150, 580.5809
932.8972, 580.5208
933.3793, 577.8477
933.8614, 575.5007
934.3435, 576.1413
934.8256, 578.6483
935.3077, 580.6321
935.7899, 582.0485
936.2720, 581.8337
936.7541, 579.6802
937.2362, 578.3568
937.7183, 579.4598
938.2004, 581.3720
938.6826, 581.6827
939.1647, 580.3620
939.6468, 578.6866
940.1289, 576.1135
940.6110, 574.5641
941.0931, 575.0762
941.5753, 575.8338
942.0574, 575.4978
942.5395, 574.4596
943.0216, 573.8358
943.5037, 573.9036
943.9858, 573.5527
944.4680, 571.3660
944.9501, 570.3693
945.4322, 573.5209
945.9143, 577.1046
946.3964, 576.6260
946.8785, 572.7244
947.3607, 570.0726
947.8428, 570.5333
948.3249, 571.7772
948.8070, 573.3692
949.2891, 574.4646
949.7712, 573.6234
950.2534, 571.8431
950.7355, 571.4804
951.2176, 572.9308
951.6997, 573.8419
952.1818, 572.0012
952.6639, 569.2285
953.1461, 568.3022
953.6282, 568.3057
954.1103, 566.6517
954.5924, 563.4645
955.0745, 561.4258
955.5566, 561.8740
956.0388, 563.2479
956.5209, 563.3666
957.0030, 562.5628
957.4851, 562.7217
957.9672, 563.8359
958.4493, 564.2152
958.9315, 563.4134
959.4136, 562.3510
959.8957, 561.6637
960.3778, 561.2688
960.8599, 561.0404
961.3420, 561.1367
961.8242, 560.5004
962.3063, 558.7190
962.7884, 557.2077
963.2705, 556.3763
963.7526, 556.0919
964.2347, 556.7118
964.7169, 557.9158
965.1990, 557.3323
965.6811, 553.2218
966.1632, 549.9827
966.6453, 547.7555
967.1274, 546.2506
967.6096, 545.3012
968.0917, 545.0266
968.5738, 545.9512
969.0559, 547.9871
969.5380, 549.2968
970.0201, 549.6202
970.5023, 548.9195
970.9844, 546.1308
971.4665, 543.2676
971.9486, 541.6262
972.4307, 541.2709
972.9128, 542.6483
973.3950, 545.7808
973.8771, 547.3580
974.3592, 544.0900
974.8413, 539.7715
975.3234, 537.5855
975.8055, 536.5775
976.2877, 535.3812
976.7698, 533.8783
977.2519, 532.4041
977.7340, 531.0968
978.2161, 530.3574
978.6982, 531.1743
979.1804, 532.5658
979.6625, 532.4150
980.1446, 531.1696
980.6267, 530.5031
981.1088, 530.7298
981.5909, 530.9686
982.0731, 530.5591
982.5552, 530.1584
983.0373, 531.5790
983.5194, 534.3140
984.0015, 534.5100
984.4836, 532.0572
984.9658, 528.5077
985.4479, 524.1093
985.9300, 521.1040
986.4121, 521.9279
986.8942, 525.2151
987.3763, 525.9073
987.8585, 523.5718
988.3406, 521.2733
988.8227, 518.8128
989.3048, 517.6805
989.7869, 518.8943
990.2690, 521.0168
990.7512, 522.5573
991.2333, 523.4807
991.7154, 523.2032
992.1975, 520.6844
992.6796, 519.2062
993.1617, 519.9081
993.6439, 520.4038
994.1260, 519.4570
994.6081, 517.7174
995.0902, 515.9067
995.5723, 514.0005
996.0544, 512.7797
996.5366, 511.8523
997.0187, 512.2117
997.5008, 516.5530
997.9829, 519.6447
998.4650, 516.9780
998.9471, 511.4339
999.4293, 507.8128
999.9114, 506.7563
1000.393, 507.1285
1000.876, 510.6063
1001.358, 512.9241
1001.840, 511.6180
1002.322, 508.9482
1002.804, 506.3746
1003.286, 504.2622
1003.768, 502.8711
1004.250, 502.2940
1004.733, 502.1869
1005.215, 503.0225
1005.697, 503.5636
1006.179, 502.6812
1006.661, 501.0794
1007.143, 498.9445
1007.625, 497.0158
1008.107, 497.4139
1008.589, 501.2205
1009.072, 504.8152
1009.554, 504.9930
1010.036, 503.4249
1010.518, 501.0472
1011.000, 498.8488
1011.482, 499.4385
1011.964, 502.3850
1012.446, 503.7271
1012.929, 501.1677
1013.411, 497.5599
1013.893, 496.1074
1014.375, 496.1802
1014.857, 496.8847
1015.339, 497.9512
1015.821, 498.5931
1016.303, 498.6733
1016.785, 498.7636
1017.268, 499.3143
1017.750, 499.6989
1018.232, 498.6526
1018.714, 496.5534
1019.196, 495.2099
1019.678, 494.4989
1020.160, 492.2141
1020.642, 487.7700
1021.125, 484.7367
1021.607, 486.1543
1022.089, 490.1746
1022.571, 492.8162
1023.053, 494.1311
1023.535, 494.8223
1024.017, 494.9247
1024.499, 493.8117
1024.981, 491.0449
1025.464, 488.8580
1025.946, 489.4739
1026.428, 491.8858
1026.910, 493.0406
1027.392, 492.9072
1027.874, 491.4682
1028.356, 488.2120
1028.838, 486.2497
1029.321, 486.9543
1029.803, 488.4651
1030.285, 489.0596
1030.767, 488.8706
1031.249, 488.4814
1031.731, 487.8511
1032.213, 487.1434
1032.695, 486.2979
1033.177, 485.5993
1033.660, 485.5101
1034.142, 484.9489
1034.624, 482.2891
1035.106, 478.1510
1035.588, 476.6835
1036.070, 479.8311
1036.552, 480.8223
1037.034, 477.4839
1037.516, 475.5849
1037.999, 478.2852
1038.481, 482.3607
1038.963, 484.8904
1039.445, 485.8304
1039.927, 484.7936
1040.409, 480.6327
1040.891, 476.4897
1041.373, 470.6031
1041.855, 467.0318
1042.338, 468.9024
1042.820, 472.6400
1043.302, 474.8840
1043.784, 475.7319
1044.266, 476.1400
1044.748, 477.1595
1045.230, 476.0093
1045.712, 468.9410
1046.195, 464.0225
1046.677, 466.5869
1047.159, 471.3639
1047.641, 472.3473
1048.123, 469.9769
1048.605, 468.9204
1049.087, 470.3214
1049.569, 471.8672
1050.052, 474.3667
1050.534, 475.6007
1051.016, 473.9472
1051.498, 470.9206
1051.980, 467.2122
1052.462, 463.4862
1052.944, 462.7512
1053.426, 467.9917
1053.908, 471.2246
1054.391, 469.0341
1054.873, 466.2894
1055.355, 465.3966
1055.837, 465.3123
1056.319, 464.5247
1056.801, 463.2091
1057.283, 462.8638
1057.765, 464.0927
1058.248, 465.7078
1058.730, 468.3896
1059.212, 470.2108
1059.694, 470.0233
1060.176, 468.4485
1060.658, 464.9879
1061.140, 460.7239
1061.622, 460.0150
1062.104, 466.1327
1062.587, 469.8432
1063.069, 465.8161
1063.551, 460.7287
1064.033, 457.4981
1064.515, 456.0096
1064.997, 456.5430
1065.479, 458.4604
1065.961, 459.7702
1066.443, 459.7203
1066.926, 459.6748
1067.408, 461.0072
1067.890, 461.5681
1068.372, 458.6857
1068.854, 455.3339
1069.336, 455.3351
1069.818, 458.0163
1070.300, 459.9489
1070.782, 460.0267
1071.265, 459.9616
1071.747, 460.3193
1072.229, 460.9833
1072.711, 462.7203
1073.193, 464.0953
1073.675, 462.8995
1074.157, 460.0305
1074.639, 458.3120
1075.122, 458.5946
1075.604, 459.5507
1076.086, 461.6554
1076.568, 462.9767
1077.050, 461.3868
1077.532, 459.2383
1078.014, 459.3503
1078.496, 460.9431
1078.979, 461.2532
1079.461, 459.4686
1079.943, 458.4956
1080.425, 460.6317
1080.907, 462.7459
1081.389, 462.8786
1081.871, 462.3725
1082.353, 462.7892
1082.835, 463.5432
1083.318, 462.7497
1083.800, 460.0284
1084.282, 458.4804
1084.764, 460.8350
1085.246, 462.9044
1085.728, 462.0610
1086.210, 460.5360
1086.692, 460.5242
1087.175, 461.1776
1087.657, 460.2448
1088.139, 457.5364
1088.621, 456.3237
1089.103, 459.4707
1089.585, 462.1687
1090.067, 461.9648
1090.549, 460.8981
1091.031, 459.7040
1091.514, 459.1309
1091.996, 460.5212
1092.478, 463.7288
1092.960, 466.3685
1093.442, 467.5493
1093.924, 468.2287
1094.406, 468.9733
1094.888, 469.1181
1095.370, 467.6927
1095.853, 465.7645
1096.335, 464.8228
1096.817, 464.7668
1097.299, 464.0919
1097.781, 461.3866
1098.263, 460.6784
1098.745, 465.7078
1099.227, 470.1505
1099.709, 470.5963
1100.192, 468.8387
1100.674, 465.4551
1101.156, 461.7479
1101.638, 461.4891
1102.120, 466.4787
1102.602, 470.7325
1103.084, 473.1918
1103.566, 474.1485
1104.049, 472.6892
1104.531, 470.6927
1105.013, 469.1869
1105.495, 468.5216
1105.977, 469.3929
1106.459, 472.1040
1106.941, 474.8147
1107.423, 477.9990
1107.906, 480.0677
1108.388, 480.2186
1108.870, 479.5108
1109.352, 477.9630
1109.834, 476.3235
1110.316, 476.2461
1110.798, 477.9568
1111.280, 477.9230
1111.762, 472.1281
1112.245, 470.2330
1112.727, 477.7116
1113.209, 484.4063
1113.691, 484.7589
1114.173, 481.9952
1114.655, 479.2567
1115.137, 476.7487
1115.619, 477.0605
1116.102, 482.3342
1116.584, 486.6629
1117.066, 490.3763
1117.548, 492.4951
1118.030, 491.9444
1118.512, 490.4236
1118.994, 489.2226
1119.476, 488.4405
1119.958, 488.4945
1120.441, 489.5060
1120.923, 490.9954
1121.405, 493.1002
1121.887, 495.4348
1122.369, 498.2409
1122.851, 500.6396
1123.333, 502.0933
1123.815, 502.5411
1124.297, 501.5407
1124.780, 498.8147
1125.262, 498.4689
1125.744, 501.3214
1126.226, 503.4095
1126.708, 503.6909
1127.190, 504.3786
1127.672, 506.7104
1128.154, 510.1270
1128.636, 514.1486
1129.119, 518.4613
1129.601, 520.3248
1130.083, 519.6234
1130.565, 517.0944
1131.047, 512.3143
1131.529, 510.7680
1132.011, 515.0352
1132.493, 520.6979
1132.976, 523.4511
1133.458, 523.8370
1133.940, 522.7031
1134.422, 520.3287
1134.904, 521.0119
1135.386, 524.7141
1135.868, 526.3334
1136.350, 524.5389
1136.833, 522.6928
1137.315, 523.0396
1137.797, 525.5956
1138.279, 531.6823
1138.761, 539.7230
1139.243, 544.5497
1139.725, 546.2919
1140.207, 544.9081
1140.689, 540.9302
1141.172, 536.9852
1141.654, 534.3329
1142.136, 533.3049
1142.618, 534.7298
1143.100, 537.4738
1143.582, 539.6443
1144.064, 541.6644
1144.546, 545.2810
1145.029, 549.5282
1145.511, 550.5487
1145.993, 547.6940
1146.475, 545.3419
1146.957, 546.5804
1147.439, 549.1980
1147.921, 551.2041
1148.403, 553.2045
1148.885, 556.3659
1149.368, 559.8271
1149.850, 561.9983
1150.332, 562.8158
1150.814, 563.0705
1151.296, 562.8268
1151.778, 563.6069
1152.260, 567.8288
1152.742, 571.6347
1153.224, 571.8950
1153.707, 570.8177
1154.189, 569.8249
1154.671, 569.8223
1155.153, 572.7402
1155.635, 579.0151
1156.117, 583.9945
1156.599, 586.4702
1157.081, 587.0800
1157.563, 583.3695
1158.046, 580.7511
1158.528, 584.2676
1159.010, 589.8035
1159.492, 591.5287
1159.974, 589.6581
1160.456, 588.8811
1160.938, 590.0907
1161.420, 591.3705
1161.903, 592.6273
1162.385, 593.9620
1162.867, 595.3436
1163.349, 596.9001
1163.831, 599.0000
1164.313, 601.1799
1164.795, 602.0262
1165.277, 601.1228
1165.760, 602.6152
1166.242, 607.4374
1166.724, 611.8982
1167.206, 615.9328
1167.688, 617.5406
1168.170, 614.8105
1168.652, 611.7398
1169.134, 613.9769
1169.616, 613.3146
1170.099, 613.4816
1170.581, 616.6911
1171.063, 615.5410
1171.545, 617.8414
1172.027, 620.8486
1172.509, 623.7525
1172.991, 626.9236
1173.473, 630.7664
1173.956, 634.3721
1174.438, 635.8268
1174.920, 635.8531
1175.402, 636.8268
1175.884, 638.4647
1176.366, 639.4949
1176.848, 639.9329
1177.330, 640.9500
1177.813, 643.0328
1178.295, 645.3917
1178.777, 647.4477
1179.259, 649.2734
1179.741, 650.9562
1180.223, 652.4669
1180.705, 653.9274
1181.187, 655.1082
1181.669, 655.0126
1182.151, 653.9412
1182.634, 654.1555
1183.116, 656.7943
1183.598, 660.4160
1184.080, 665.3259
1184.562, 669.5905
1185.044, 671.3656
1185.526, 672.2852
1186.008, 674.1689
1186.490, 676.6165
1186.973, 677.9640
1187.455, 677.7886
1187.937, 679.3088
1188.419, 686.2977
1188.901, 690.3473
1189.383, 686.6381
1189.865, 683.3846
1190.347, 685.7330
1190.830, 689.8419
1191.312, 691.7834
1191.794, 691.8820
1192.276, 691.7225
1192.758, 691.2010
1193.240, 690.6542
1193.722, 689.6282
1194.204, 690.0056
1194.687, 692.3985
1195.169, 695.9193
1195.651, 700.4797
1196.133, 704.4983
1196.615, 705.0515
1197.097, 702.9539
1197.579, 703.0377
1198.061, 705.2771
1198.543, 709.7685
1199.026, 716.2675
1199.508, 721.2204
1199.990, 723.4149
1200.472, 723.7642
1200.954, 722.6569
1201.436, 721.6316
1201.918, 723.8199
1202.400, 723.7268
1202.883, 724.6270
1203.365, 726.4929
1203.847, 726.7621
1204.329, 728.6675
1204.811, 730.2570
1205.293, 730.8778
1205.775, 732.8174
1206.257, 739.0214
1206.740, 745.1797
1207.222, 748.0793
1207.704, 749.6161
1208.186, 750.8990
1208.668, 752.3495
1209.150, 754.8754
1209.632, 758.0561
1210.114, 759.5198
1210.596, 757.8877
1211.078, 757.3676
1211.561, 760.5889
1212.043, 762.5416
1212.525, 759.0590
1213.007, 756.7496
1213.489, 761.1316
1213.971, 768.2845
1214.453, 772.1496
1214.935, 772.9005
1215.417, 773.7591
1215.900, 774.6244
1216.382, 775.9275
1216.864, 777.6390
1217.346, 780.3373
1217.828, 784.6591
1218.310, 787.3196
1218.792, 785.4510
1219.274, 781.9072
1219.757, 781.9062
1220.239, 784.8849
1220.721, 788.9468
1221.203, 793.5595
1221.685, 795.6301
1222.167, 795.2454
1222.649, 795.1008
1223.131, 796.1075
1223.614, 797.0078
1224.096, 796.8509
1224.578, 796.1718
1225.060, 794.5175
1225.542, 793.5964
1226.024, 796.3517
1226.506, 800.7262
1226.988, 803.7914
1227.470, 805.2973
1227.953, 806.0613
1228.435, 806.3069
1228.917, 805.4241
1229.399, 801.3840
1229.881, 798.7642
1230.363, 799.4738
1230.845, 801.5354
1231.327, 805.3187
1231.810, 808.6877
1232.292, 808.5443
1232.774, 805.8675
1233.256, 804.6292
1233.738, 805.3568
1234.220, 805.0359
1234.702, 802.7278
1235.184, 802.6467
1235.667, 806.1066
1236.149, 809.8949
1236.631, 812.5580
1237.113, 813.7063
1237.595, 812.4163
1238.077, 810.0667
1238.559, 811.6360
1239.041, 815.9464
1239.523, 816.4490
1240.005, 813.7235
1240.488, 811.8458
1240.970, 811.7002
1241.452, 812.7172
1241.934, 814.6358
1242.416, 816.1672
1242.898, 816.1768
1243.380, 815.1739
1243.862, 811.7043
1244.344, 809.1960
1244.827, 813.1874
1245.309, 820.0975
1245.791, 823.6364
1246.273, 823.4374
1246.755, 822.9219
1247.237, 822.9011
1247.719, 822.7794
1248.201, 821.6340
1248.684, 821.4798
1249.166, 824.1807
1249.648, 826.5611
1250.130, 826.5689
1250.612, 825.5214
1251.094, 825.0793
1251.576, 825.1868
1252.058, 825.3252
1252.541, 825.2957
1253.023, 827.1210
1253.505, 831.0992
1253.987, 833.9797
1254.469, 834.9993
1254.951, 835.5082
1255.433, 836.2780
1255.915, 836.9186
1256.397, 836.7523
1256.880, 837.7274
1257.362, 837.3727
1257.844, 839.0027
1258.326, 839.6742
1258.808, 840.1471
1259.290, 843.3480
1259.772, 848.7146
1260.254, 851.3474
1260.737, 848.8653
1261.219, 846.7322
1261.701, 849.3910
1262.183, 851.0124
1262.665, 846.7844
1263.147, 842.5982
1263.629, 842.9705
1264.111, 845.9092
1264.594, 849.1668
1265.076, 852.2934
1265.558, 853.3524
1266.040, 851.6727
1266.522, 850.2297
1267.004, 848.8057
1267.486, 848.4014
1267.968, 849.2927
1268.450, 851.0270
1268.932, 853.5667
1269.415, 855.5157
1269.897, 855.0974
1270.379, 853.4487
1270.861, 853.4420
1271.343, 854.4498
1271.825, 854.1060
1272.307, 853.1542
1272.789, 854.7356
1273.271, 858.4256
1273.754, 860.2007
1274.236, 858.6135
1274.718, 856.9161
1275.200, 857.9837
1275.682, 858.4525
1276.164, 854.7635
1276.646, 851.4974
1277.128, 852.1373
1277.611, 854.8983
1278.093, 858.6265
1278.575, 862.4462
1279.057, 863.9269
1279.539, 862.8679
1280.021, 861.0209
1280.503, 857.1425
1280.985, 855.8114
1281.468, 858.5640
1281.950, 860.4892
1282.432, 859.3616
1282.914, 859.3353
1283.396, 864.1827
1283.878, 871.0469
1284.360, 875.2088
1284.842, 876.5370
1285.324, 874.8160
##END=



