##NAMES=Allanite-(Ce)
##RRUFFID=R050043
##IDEAL CHEMISTRY=CaCeAl_2_Fe^2+^(Si_2_O_7_)(SiO_4_)O(OH)
##LOCALITY=Arendal, Norway
##OWNER=RRUFF
##SOURCE=University of Arizona Mineral Museum
##DESCRIPTION=Black patially metamict fragment, note that a fragment of this sample was heated and is posted at R080092
##STATUS=The identification of this mineral has been confirmed by X-ray diffraction and chemical analysis
##URL=rruff.info/R050043
##MEASURED CHEMISTRY=Ca_1.00_(Ce^3+^_0.22_Ca_0.21_La_0.11_Nd_0.11_Mn_0.08_Gd_0.07_Th_0.06_Y_0.06_Ti_0.05_Mg_0.03_)_Σ=1_(Al_1.82_Fe^3+^_0.40_Fe^2+^_0.78_)_Σ=3_[Si_2.00_O_7_][Si_1.00_O_4_]O(OH)
184.1767, 2418.102
184.6588, 2409.961
185.1409, 2407.081
185.6230, 2421.245
186.1051, 2441.629
186.5873, 2455.470
187.0694, 2456.261
187.5515, 2448.777
188.0336, 2444.886
188.5157, 2442.608
188.9978, 2448.493
189.4800, 2471.405
189.9621, 2498.599
190.4442, 2516.817
190.9263, 2519.784
191.4084, 2512.389
191.8905, 2505.467
192.3727, 2495.781
192.8548, 2493.007
193.3369, 2503.068
193.8190, 2517.513
194.3011, 2527.971
194.7832, 2531.078
195.2654, 2530.299
195.7475, 2532.696
196.2296, 2538.023
196.7117, 2547.617
197.1938, 2566.428
197.6759, 2586.246
198.1581, 2599.849
198.6402, 2604.874
199.1223, 2604.138
199.6044, 2601.791
200.0865, 2593.645
200.5686, 2592.855
201.0508, 2611.621
201.5329, 2630.129
202.0150, 2628.468
202.4971, 2602.585
202.9792, 2570.263
203.4613, 2562.765
203.9435, 2598.387
204.4256, 2617.528
204.9077, 2607.747
205.3898, 2590.109
205.8719, 2576.988
206.3540, 2571.581
206.8362, 2571.355
207.3183, 2573.543
207.8004, 2579.689
208.2825, 2584.254
208.7646, 2587.627
209.2467, 2589.353
209.7289, 2586.033
210.2110, 2579.028
210.6931, 2575.707
211.1752, 2588.064
211.6573, 2625.646
212.1395, 2642.888
212.6216, 2624.475
213.1037, 2600.360
213.5858, 2580.319
214.0679, 2567.298
214.5500, 2562.983
215.0322, 2571.280
215.5143, 2595.337
215.9964, 2610.759
216.4785, 2609.594
216.9606, 2607.372
217.4427, 2610.848
217.9249, 2618.603
218.4070, 2624.913
218.8891, 2624.545
219.3712, 2617.254
219.8533, 2612.239
220.3354, 2611.200
220.8176, 2610.937
221.2997, 2612.014
221.7818, 2613.210
222.2639, 2612.173
222.7460, 2606.852
223.2281, 2597.798
223.7103, 2591.333
224.1924, 2585.369
224.6745, 2584.919
225.1566, 2594.929
225.6387, 2610.303
226.1208, 2624.236
226.6030, 2633.034
227.0851, 2636.824
227.5672, 2635.658
228.0493, 2622.967
228.5314, 2614.161
229.0135, 2612.599
229.4957, 2615.762
229.9778, 2620.910
230.4599, 2626.833
230.9420, 2633.756
231.4241, 2642.851
231.9062, 2657.973
232.3884, 2668.235
232.8705, 2671.807
233.3526, 2671.010
233.8347, 2666.568
234.3168, 2658.946
234.7989, 2650.869
235.2811, 2647.059
235.7632, 2648.542
236.2453, 2652.127
236.7274, 2661.276
237.2095, 2669.634
237.6916, 2672.938
238.1738, 2670.399
238.6559, 2664.212
239.1380, 2654.442
239.6201, 2636.742
240.1022, 2632.016
240.5843, 2655.357
241.0665, 2680.056
241.5486, 2694.522
242.0307, 2697.903
242.5128, 2694.897
242.9949, 2687.857
243.4770, 2675.966
243.9592, 2669.944
244.4413, 2675.376
244.9234, 2681.774
245.4055, 2684.965
245.8876, 2685.859
246.3697, 2687.940
246.8519, 2696.020
247.3340, 2708.333
247.8161, 2707.286
248.2982, 2677.121
248.7803, 2654.717
249.2624, 2655.149
249.7446, 2670.554
250.2267, 2689.371
250.7088, 2708.131
251.1909, 2723.434
251.6730, 2722.760
252.1551, 2694.076
252.6373, 2674.084
253.1194, 2678.828
253.6015, 2695.478
254.0836, 2711.966
254.5657, 2724.774
255.0478, 2732.722
255.5300, 2732.723
256.0121, 2722.742
256.4942, 2712.494
256.9763, 2701.611
257.4584, 2693.370
257.9406, 2689.520
258.4227, 2690.383
258.9048, 2697.800
259.3869, 2719.057
259.8690, 2755.306
260.3511, 2778.745
260.8333, 2778.153
261.3154, 2767.582
261.7975, 2754.271
262.2796, 2739.294
262.7617, 2728.056
263.2438, 2725.253
263.7260, 2729.866
264.2081, 2736.790
264.6902, 2748.530
265.1723, 2757.681
265.6544, 2757.152
266.1365, 2749.511
266.6187, 2743.182
267.1008, 2740.197
267.5829, 2741.547
268.0650, 2751.693
268.5471, 2774.032
269.0292, 2794.330
269.5114, 2803.323
269.9935, 2803.435
270.4756, 2796.494
270.9577, 2774.920
271.4398, 2753.066
271.9219, 2749.751
272.4041, 2765.529
272.8862, 2781.130
273.3683, 2786.657
273.8504, 2786.073
274.3325, 2787.753
274.8146, 2793.740
275.2968, 2798.962
275.7789, 2799.888
276.2610, 2797.147
276.7431, 2792.552
277.2252, 2784.995
277.7073, 2778.329
278.1895, 2778.783
278.6716, 2786.397
279.1537, 2798.077
279.6358, 2818.301
280.1179, 2840.639
280.6000, 2852.753
281.0822, 2851.157
281.5643, 2844.156
282.0464, 2839.885
282.5285, 2838.133
283.0106, 2842.122
283.4927, 2862.234
283.9749, 2881.918
284.4570, 2882.032
284.9391, 2862.641
285.4212, 2844.153
285.9033, 2844.192
286.3854, 2862.554
286.8676, 2873.516
287.3497, 2873.410
287.8318, 2870.244
288.3139, 2867.077
288.7960, 2863.927
289.2781, 2859.691
289.7603, 2853.248
290.2424, 2846.091
290.7245, 2844.854
291.2066, 2856.477
291.6887, 2865.031
292.1708, 2867.585
292.6530, 2865.976
293.1351, 2861.254
293.6172, 2853.917
294.0993, 2846.648
294.5814, 2844.444
295.0635, 2851.382
295.5457, 2855.862
296.0278, 2856.250
296.5099, 2855.535
296.9920, 2855.183
297.4741, 2855.708
297.9562, 2857.812
298.4384, 2863.102
298.9205, 2873.049
299.4026, 2875.683
299.8847, 2865.285
300.3668, 2853.542
300.8489, 2839.325
301.3311, 2826.943
301.8131, 2824.936
302.2953, 2840.305
302.7774, 2869.053
303.2595, 2891.006
303.7416, 2905.634
304.2237, 2913.202
304.7058, 2910.395
305.1880, 2902.922
305.6701, 2897.078
306.1522, 2895.257
306.6343, 2894.423
307.1164, 2887.690
307.5985, 2871.258
308.0807, 2863.265
308.5628, 2875.406
309.0449, 2891.252
309.5270, 2902.589
310.0091, 2908.230
310.4912, 2909.471
310.9734, 2903.979
311.4555, 2892.948
311.9376, 2891.486
312.4197, 2910.021
312.9018, 2924.387
313.3839, 2914.107
313.8661, 2887.928
314.3482, 2868.962
314.8303, 2873.957
315.3124, 2889.725
315.7945, 2891.020
316.2766, 2875.013
316.7588, 2861.044
317.2409, 2859.388
317.7230, 2866.768
318.2051, 2878.943
318.6872, 2900.213
319.1693, 2917.713
319.6515, 2920.866
320.1336, 2911.613
320.6157, 2897.546
321.0978, 2878.959
321.5799, 2860.296
322.0620, 2846.914
322.5442, 2837.032
323.0263, 2838.252
323.5084, 2866.602
323.9905, 2901.396
324.4726, 2911.885
324.9547, 2893.073
325.4369, 2869.778
325.9190, 2867.164
326.4011, 2887.925
326.8832, 2896.130
327.3653, 2878.533
327.8474, 2861.058
328.3296, 2859.760
328.8117, 2871.147
329.2938, 2883.022
329.7759, 2888.477
330.2580, 2888.576
330.7401, 2887.944
331.2223, 2891.812
331.7044, 2888.376
332.1865, 2867.057
332.6686, 2842.075
333.1507, 2831.220
333.6328, 2839.084
334.1150, 2852.771
334.5971, 2851.782
335.0792, 2826.611
335.5613, 2812.719
336.0434, 2814.716
336.5255, 2822.415
337.0077, 2834.206
337.4898, 2847.627
337.9719, 2858.105
338.4540, 2861.518
338.9361, 2858.624
339.4182, 2856.129
339.9004, 2853.900
340.3825, 2852.370
340.8646, 2852.973
341.3467, 2853.793
341.8288, 2852.422
342.3109, 2847.893
342.7931, 2841.194
343.2752, 2832.176
343.7573, 2819.759
344.2394, 2812.979
344.7215, 2819.643
345.2036, 2828.296
345.6858, 2828.626
346.1679, 2820.384
346.6500, 2813.188
347.1321, 2815.872
347.6142, 2824.196
348.0963, 2825.203
348.5785, 2815.425
349.0606, 2805.205
349.5427, 2803.899
350.0248, 2808.840
350.5069, 2812.363
350.9890, 2814.623
351.4712, 2813.812
351.9533, 2804.754
352.4354, 2789.759
352.9175, 2782.336
353.3996, 2791.857
353.8817, 2809.400
354.3639, 2809.432
354.8460, 2781.591
355.3281, 2761.918
355.8102, 2760.527
356.2923, 2770.533
356.7744, 2788.403
357.2566, 2812.267
357.7387, 2831.277
358.2208, 2831.500
358.7029, 2807.219
359.1850, 2796.299
359.6671, 2810.645
360.1493, 2824.468
360.6314, 2824.452
361.1135, 2814.905
361.5956, 2807.258
362.0777, 2808.543
362.5598, 2815.564
363.0420, 2816.664
363.5241, 2809.729
364.0062, 2799.691
364.4883, 2783.260
364.9704, 2766.770
365.4525, 2754.648
365.9347, 2748.185
366.4168, 2747.188
366.8989, 2755.158
367.3810, 2773.339
367.8631, 2779.722
368.3452, 2763.325
368.8274, 2746.913
369.3095, 2742.708
369.7916, 2747.364
370.2737, 2752.892
370.7558, 2758.113
371.2379, 2759.986
371.7201, 2747.934
372.2022, 2719.189
372.6843, 2704.153
373.1664, 2725.450
373.6485, 2762.290
374.1306, 2782.889
374.6128, 2783.710
375.0949, 2777.681
375.5770, 2768.824
376.0591, 2758.251
376.5412, 2747.190
377.0233, 2735.465
377.5055, 2726.605
377.9876, 2724.766
378.4697, 2730.840
378.9518, 2737.115
379.4339, 2746.532
379.9160, 2753.400
380.3982, 2753.010
380.8803, 2747.073
381.3624, 2740.132
381.8445, 2734.406
382.3266, 2730.212
382.8087, 2728.556
383.2909, 2735.539
383.7730, 2736.849
384.2551, 2722.324
384.7372, 2708.480
385.2193, 2712.129
385.7014, 2733.823
386.1836, 2758.320
386.6657, 2769.829
387.1478, 2767.745
387.6299, 2763.585
388.1120, 2758.909
388.5941, 2749.843
389.0763, 2731.061
389.5584, 2708.217
390.0405, 2689.219
390.5226, 2676.323
391.0047, 2671.456
391.4868, 2683.294
391.9690, 2715.000
392.4511, 2731.913
392.9332, 2714.570
393.4153, 2687.751
393.8974, 2674.246
394.3795, 2674.334
394.8617, 2679.615
395.3438, 2690.535
395.8259, 2702.468
396.3080, 2706.546
396.7901, 2701.627
397.2722, 2695.210
397.7544, 2690.851
398.2365, 2689.528
398.7186, 2694.205
399.2007, 2717.911
399.6828, 2732.958
400.1649, 2722.050
400.6471, 2696.949
401.1292, 2675.770
401.6113, 2664.364
402.0934, 2661.225
402.5755, 2664.901
403.0576, 2679.140
403.5398, 2688.718
404.0219, 2697.047
404.5040, 2698.414
404.9861, 2682.450
405.4682, 2656.874
405.9503, 2640.633
406.4325, 2646.854
406.9146, 2668.597
407.3967, 2680.543
407.8788, 2676.020
408.3609, 2675.376
408.8430, 2689.492
409.3252, 2704.178
409.8073, 2706.256
410.2894, 2694.410
410.7715, 2681.221
411.2536, 2678.141
411.7357, 2683.237
412.2179, 2686.774
412.7000, 2687.815
413.1821, 2688.020
413.6642, 2687.407
414.1463, 2686.842
414.6284, 2688.583
415.1106, 2696.716
415.5927, 2702.782
416.0748, 2697.009
416.5569, 2683.676
417.0390, 2677.764
417.5211, 2685.942
418.0033, 2697.514
418.4854, 2695.820
418.9675, 2675.688
419.4496, 2659.354
419.9317, 2647.994
420.4138, 2640.376
420.8960, 2636.133
421.3781, 2634.899
421.8602, 2636.198
422.3423, 2639.915
422.8244, 2645.537
423.3065, 2651.081
423.7887, 2659.332
424.2708, 2662.846
424.7529, 2656.470
425.2350, 2648.468
425.7171, 2645.862
426.1992, 2649.433
426.6814, 2654.734
427.1635, 2658.241
427.6456, 2659.978
428.1277, 2660.432
428.6098, 2661.438
429.0919, 2657.494
429.5741, 2638.023
430.0562, 2613.918
430.5383, 2602.824
431.0204, 2612.998
431.5025, 2628.020
431.9846, 2634.811
432.4668, 2635.246
432.9489, 2636.249
433.4310, 2639.926
433.9131, 2643.439
434.3952, 2643.140
434.8773, 2638.592
435.3595, 2634.489
435.8416, 2632.181
436.3237, 2629.389
436.8058, 2625.393
437.2879, 2619.766
437.7701, 2609.907
438.2522, 2593.832
438.7343, 2577.121
439.2164, 2574.819
439.6985, 2599.001
440.1806, 2616.294
440.6628, 2625.559
441.1449, 2629.177
441.6270, 2627.344
442.1091, 2621.078
442.5912, 2612.583
443.0733, 2602.692
443.5555, 2592.207
444.0376, 2584.181
444.5197, 2578.746
445.0018, 2575.408
445.4839, 2574.419
445.9660, 2575.291
446.4482, 2578.831
446.9303, 2585.787
447.4124, 2590.125
447.8945, 2587.365
448.3766, 2579.506
448.8587, 2567.956
449.3409, 2552.117
449.8230, 2543.537
450.3051, 2554.993
450.7872, 2583.419
451.2693, 2597.146
451.7514, 2584.932
452.2336, 2572.335
452.7157, 2566.022
453.1978, 2564.958
453.6799, 2570.686
454.1620, 2582.672
454.6441, 2591.639
455.1263, 2583.458
455.6084, 2552.873
456.0905, 2535.020
456.5726, 2541.912
457.0547, 2549.957
457.5368, 2551.867
458.0190, 2550.336
458.5011, 2550.511
458.9832, 2554.767
459.4653, 2560.484
459.9474, 2565.348
460.4295, 2569.412
460.9117, 2567.078
461.3938, 2553.131
461.8759, 2538.100
462.3580, 2530.677
462.8401, 2530.064
463.3222, 2533.069
463.8044, 2545.898
464.2865, 2556.453
464.7686, 2548.736
465.2507, 2527.965
465.7328, 2516.315
466.2149, 2524.627
466.6971, 2542.708
467.1792, 2550.430
467.6613, 2540.047
468.1434, 2535.399
468.6255, 2543.666
469.1076, 2551.339
469.5898, 2546.775
470.0719, 2533.914
470.5540, 2526.585
471.0361, 2534.806
471.5182, 2550.869
472.0003, 2550.084
472.4825, 2523.584
472.9646, 2504.467
473.4467, 2507.555
473.9288, 2514.832
474.4109, 2514.351
474.8930, 2506.113
475.3752, 2498.584
475.8573, 2498.571
476.3394, 2501.581
476.8215, 2497.216
477.3036, 2485.172
477.7857, 2481.295
478.2679, 2498.018
478.7500, 2524.196
479.2321, 2531.405
479.7142, 2512.410
480.1963, 2495.974
480.6784, 2485.743
481.1606, 2481.599
481.6427, 2487.284
482.1248, 2500.355
482.6069, 2510.001
483.0890, 2507.432
483.5711, 2495.511
484.0533, 2490.562
484.5354, 2499.332
485.0175, 2503.987
485.4996, 2501.565
485.9817, 2494.908
486.4638, 2481.666
486.9460, 2463.935
487.4281, 2454.607
487.9102, 2472.697
488.3923, 2506.525
488.8744, 2517.804
489.3565, 2502.560
489.8387, 2486.243
490.3208, 2482.762
490.8029, 2485.577
491.2850, 2479.623
491.7671, 2459.515
492.2492, 2446.211
492.7314, 2451.954
493.2135, 2465.373
493.6956, 2474.139
494.1777, 2476.966
494.6598, 2478.680
495.1419, 2483.321
495.6241, 2489.733
496.1062, 2490.421
496.5883, 2481.394
497.0704, 2471.910
497.5525, 2463.377
498.0346, 2454.418
498.5168, 2439.497
498.9989, 2420.695
499.4810, 2411.616
499.9631, 2429.919
500.4452, 2466.693
500.9273, 2487.504
501.4095, 2490.013
501.8916, 2486.077
502.3737, 2477.309
502.8558, 2466.967
503.3379, 2460.229
503.8200, 2457.799
504.3022, 2456.497
504.7843, 2456.513
505.2664, 2456.262
505.7485, 2453.342
506.2306, 2447.950
506.7127, 2442.724
507.1949, 2439.408
507.6770, 2437.638
508.1591, 2435.787
508.6412, 2431.726
509.1233, 2430.879
509.6054, 2436.479
510.0876, 2442.954
510.5697, 2446.402
511.0518, 2446.663
511.5339, 2445.707
512.0161, 2445.084
512.4982, 2444.180
512.9803, 2439.463
513.4624, 2429.262
513.9445, 2426.313
514.4266, 2440.692
514.9088, 2459.674
515.3909, 2466.191
515.8730, 2459.420
516.3551, 2451.964
516.8372, 2449.421
517.3193, 2446.550
517.8015, 2434.121
518.2836, 2415.785
518.7657, 2407.635
519.2478, 2419.254
519.7299, 2441.568
520.2120, 2452.902
520.6942, 2447.871
521.1763, 2441.795
521.6584, 2431.401
522.1405, 2423.144
522.6226, 2421.521
523.1047, 2424.906
523.5869, 2428.902
524.0690, 2431.459
524.5511, 2432.908
525.0332, 2434.645
525.5153, 2436.640
525.9974, 2433.486
526.4796, 2420.553
526.9617, 2407.531
527.4438, 2407.443
527.9259, 2418.425
528.4080, 2424.194
528.8901, 2417.156
529.3723, 2409.576
529.8544, 2409.299
530.3365, 2413.606
530.8186, 2417.056
531.3007, 2417.778
531.7828, 2417.251
532.2650, 2417.905
532.7471, 2420.566
533.2292, 2419.197
533.7113, 2410.566
534.1934, 2401.411
534.6755, 2393.293
535.1577, 2386.070
535.6398, 2377.702
536.1219, 2366.829
536.6040, 2362.026
537.0861, 2377.329
537.5682, 2405.324
538.0504, 2420.948
538.5325, 2420.235
539.0146, 2414.898
539.4967, 2413.029
539.9788, 2413.256
540.4609, 2408.879
540.9431, 2395.880
541.4252, 2384.269
541.9073, 2374.080
542.3894, 2367.441
542.8715, 2368.597
543.3536, 2376.304
543.8358, 2382.994
544.3179, 2381.755
544.8000, 2375.499
545.2821, 2379.967
545.7642, 2404.815
546.2463, 2413.686
546.7285, 2379.357
547.2106, 2338.885
547.6927, 2321.697
548.1748, 2327.318
548.6569, 2334.708
549.1390, 2333.143
549.6211, 2329.969
550.1032, 2335.706
550.5853, 2347.758
551.0674, 2353.733
551.5496, 2348.236
552.0317, 2336.946
552.5138, 2328.896
552.9959, 2324.996
553.4780, 2321.275
553.9601, 2314.753
554.4423, 2311.518
554.9244, 2318.487
555.4065, 2328.972
555.8886, 2331.259
556.3707, 2320.828
556.8528, 2308.038
557.3350, 2305.950
557.8171, 2313.282
558.2992, 2320.340
558.7813, 2327.271
559.2634, 2330.526
559.7455, 2325.773
560.2277, 2315.659
560.7098, 2309.005
561.1919, 2306.781
561.6740, 2306.397
562.1561, 2309.953
562.6382, 2313.186
563.1204, 2309.428
563.6025, 2299.737
564.0846, 2293.110
564.5667, 2296.979
565.0488, 2307.378
565.5309, 2308.194
566.0131, 2295.770
566.4952, 2282.987
566.9773, 2266.143
567.4594, 2254.529
567.9415, 2258.885
568.4236, 2275.352
568.9058, 2285.772
569.3879, 2278.243
569.8700, 2265.199
570.3521, 2259.717
570.8342, 2259.425
571.3163, 2255.994
571.7985, 2246.717
572.2806, 2234.874
572.7627, 2223.038
573.2448, 2209.891
573.7269, 2209.303
574.2090, 2239.958
574.6912, 2260.229
575.1733, 2252.506
575.6554, 2232.794
576.1375, 2219.496
576.6196, 2216.446
577.1017, 2214.034
577.5839, 2199.893
578.0660, 2179.433
578.5481, 2172.036
579.0302, 2179.074
579.5123, 2190.240
579.9944, 2204.472
580.4766, 2216.939
580.9587, 2215.770
581.4408, 2196.819
581.9229, 2184.251
582.4050, 2187.953
582.8871, 2193.127
583.3693, 2191.232
583.8514, 2182.828
584.3335, 2168.329
584.8156, 2147.861
585.2977, 2129.976
585.7798, 2132.010
586.2620, 2156.610
586.7441, 2169.265
587.2262, 2162.959
587.7083, 2153.550
588.1904, 2149.522
588.6725, 2148.488
589.1547, 2146.674
589.6368, 2143.241
590.1189, 2139.882
590.6010, 2138.709
591.0831, 2137.357
591.5652, 2131.327
592.0474, 2121.363
592.5295, 2113.492
593.0116, 2111.829
593.4937, 2114.826
593.9758, 2118.406
594.4579, 2125.261
594.9401, 2126.246
595.4222, 2114.737
595.9043, 2102.451
596.3864, 2094.598
596.8685, 2090.661
597.3506, 2088.958
597.8328, 2090.381
598.3149, 2090.914
598.7970, 2085.499
599.2791, 2076.471
599.7612, 2067.834
600.2433, 2060.304
600.7255, 2061.698
601.2076, 2082.079
601.6897, 2117.078
602.1718, 2130.879
602.6539, 2107.268
603.1360, 2083.641
603.6182, 2054.805
604.1003, 2033.208
604.5824, 2032.962
605.0645, 2049.843
605.5466, 2065.016
606.0287, 2068.384
606.5109, 2063.315
606.9930, 2051.964
607.4751, 2035.448
607.9572, 2023.212
608.4393, 2018.050
608.9214, 2015.700
609.4036, 2011.875
609.8857, 2006.568
610.3678, 2003.530
610.8499, 2003.166
611.3320, 2004.318
611.8141, 2010.178
612.2963, 2015.262
612.7784, 2012.486
613.2605, 2002.316
613.7426, 1992.361
614.2247, 1988.155
614.7068, 1988.405
615.1890, 1991.595
615.6711, 1998.051
616.1532, 1999.394
616.6353, 1991.136
617.1174, 1980.572
617.5995, 1974.831
618.0817, 1974.030
618.5638, 1978.566
619.0459, 1998.702
619.5280, 2012.340
620.0101, 2009.542
620.4922, 1996.114
620.9744, 1974.849
621.4565, 1949.121
621.9386, 1930.329
622.4207, 1930.214
622.9028, 1944.586
623.3849, 1958.676
623.8671, 1973.378
624.3492, 1982.066
624.8313, 1979.805
625.3134, 1974.012
625.7955, 1975.493
626.2776, 1983.721
626.7598, 1984.285
627.2419, 1966.718
627.7240, 1950.224
628.2061, 1946.014
628.6882, 1948.445
629.1703, 1948.899
629.6525, 1945.471
630.1346, 1942.091
630.6167, 1942.755
631.0988, 1946.758
631.5809, 1951.405
632.0630, 1958.679
632.5452, 1957.984
633.0273, 1937.703
633.5094, 1916.219
633.9915, 1919.011
634.4736, 1944.356
634.9557, 1956.469
635.4379, 1937.882
635.9200, 1915.214
636.4021, 1901.559
636.8842, 1894.286
637.3663, 1887.843
637.8484, 1881.276
638.3306, 1879.335
638.8127, 1888.728
639.2948, 1906.530
639.7769, 1914.445
640.2590, 1911.015
640.7411, 1902.391
641.2233, 1884.697
641.7054, 1867.961
642.1875, 1864.611
642.6696, 1873.357
643.1517, 1878.256
643.6339, 1873.797
644.1160, 1867.070
644.5981, 1859.469
645.0802, 1853.100
645.5623, 1851.583
646.0444, 1855.324
646.5266, 1861.301
647.0087, 1867.333
647.4908, 1872.870
647.9729, 1875.225
648.4550, 1874.141
648.9371, 1870.494
649.4193, 1861.729
649.9014, 1853.502
650.3835, 1853.945
650.8656, 1861.168
651.3477, 1861.183
651.8298, 1840.505
652.3120, 1824.794
652.7941, 1830.166
653.2762, 1845.645
653.7583, 1857.433
654.2404, 1862.931
654.7225, 1866.513
655.2047, 1872.254
655.6868, 1878.036
656.1689, 1874.550
656.6510, 1859.101
657.1331, 1851.955
657.6152, 1862.678
658.0974, 1875.158
658.5795, 1873.853
659.0616, 1861.547
659.5437, 1850.132
660.0258, 1839.473
660.5079, 1831.309
660.9901, 1828.805
661.4722, 1827.458
661.9543, 1818.962
662.4364, 1805.798
662.9185, 1802.070
663.4006, 1819.548
663.8828, 1845.286
664.3649, 1848.000
664.8470, 1826.704
665.3291, 1815.622
665.8112, 1822.679
666.2933, 1834.480
666.7755, 1844.081
667.2576, 1850.225
667.7397, 1848.223
668.2218, 1828.837
668.7039, 1816.383
669.1860, 1823.538
669.6682, 1832.771
670.1503, 1828.157
670.6324, 1813.356
671.1145, 1801.885
671.5966, 1800.488
672.0787, 1804.385
672.5609, 1807.291
673.0430, 1809.492
673.5251, 1813.566
674.0072, 1820.320
674.4893, 1825.991
674.9714, 1829.309
675.4536, 1829.288
675.9357, 1822.677
676.4178, 1803.703
676.8999, 1790.756
677.3820, 1787.532
677.8641, 1787.130
678.3463, 1786.908
678.8284, 1786.738
679.3105, 1787.434
679.7926, 1789.252
680.2747, 1789.858
680.7568, 1785.955
681.2390, 1779.488
681.7211, 1776.737
682.2032, 1777.490
682.6853, 1771.996
683.1674, 1754.528
683.6495, 1733.610
684.1317, 1721.763
684.6138, 1719.142
685.0959, 1725.093
685.5780, 1753.766
686.0601, 1774.098
686.5422, 1776.251
687.0244, 1767.865
687.5065, 1752.095
687.9886, 1731.428
688.4707, 1720.341
688.9528, 1735.795
689.4349, 1758.300
689.9171, 1768.217
690.3992, 1766.655
690.8813, 1753.663
691.3634, 1729.744
691.8455, 1709.021
692.3276, 1707.226
692.8098, 1721.411
693.2919, 1724.630
693.7740, 1709.689
694.2561, 1699.743
694.7382, 1702.412
695.2203, 1708.413
695.7025, 1715.005
696.1846, 1720.042
696.6667, 1715.724
697.1488, 1691.188
697.6309, 1670.358
698.1130, 1668.636
698.5952, 1676.361
699.0773, 1683.361
699.5594, 1687.703
700.0415, 1689.418
700.5236, 1688.312
701.0057, 1685.786
701.4879, 1684.028
701.9700, 1682.896
702.4521, 1686.492
702.9342, 1698.362
703.4163, 1706.891
703.8984, 1705.632
704.3806, 1696.088
704.8627, 1680.369
705.3448, 1652.779
705.8269, 1635.618
706.3090, 1637.987
706.7911, 1645.459
707.2733, 1654.374
707.7554, 1660.723
708.2375, 1656.568
708.7196, 1640.235
709.2017, 1625.130
709.6838, 1627.942
710.1660, 1640.655
710.6481, 1640.717
711.1302, 1628.784
711.6123, 1622.604
712.0944, 1629.910
712.5765, 1638.921
713.0587, 1633.934
713.5408, 1613.952
714.0229, 1601.214
714.5050, 1597.183
714.9871, 1598.857
715.4692, 1614.903
715.9514, 1629.221
716.4335, 1625.035
716.9156, 1605.868
717.3977, 1591.869
717.8798, 1593.771
718.3619, 1599.735
718.8441, 1602.822
719.3262, 1602.597
719.8083, 1596.229
720.2904, 1584.736
720.7725, 1575.664
721.2546, 1574.426
721.7368, 1577.588
722.2189, 1576.544
722.7010, 1570.436
723.1831, 1565.824
723.6652, 1562.481
724.1473, 1562.171
724.6295, 1568.466
725.1116, 1577.479
725.5937, 1580.960
726.0758, 1577.044
726.5579, 1573.961
727.0400, 1574.014
727.5222, 1574.470
728.0043, 1574.492
728.4864, 1573.503
728.9685, 1570.523
729.4506, 1565.434
729.9327, 1559.623
730.4149, 1552.146
730.8970, 1545.762
731.3791, 1550.686
731.8612, 1564.955
732.3433, 1567.232
732.8254, 1549.419
733.3076, 1531.091
733.7897, 1534.478
734.2718, 1556.924
734.7539, 1562.898
735.2360, 1541.109
735.7181, 1521.586
736.2003, 1505.517
736.6824, 1494.549
737.1645, 1488.855
737.6466, 1489.090
738.1287, 1498.506
738.6108, 1524.259
739.0930, 1543.858
739.5751, 1538.440
740.0572, 1524.288
740.5393, 1520.904
741.0214, 1526.740
741.5035, 1530.056
741.9857, 1525.320
742.4678, 1517.788
742.9499, 1515.218
743.4320, 1517.173
743.9141, 1517.902
744.3962, 1517.720
744.8784, 1513.795
745.3605, 1503.406
745.8426, 1490.931
746.3247, 1480.490
746.8068, 1471.086
747.2889, 1474.465
747.7711, 1509.576
748.2532, 1532.270
748.7353, 1523.390
749.2174, 1504.375
749.6995, 1494.418
750.1816, 1493.238
750.6638, 1489.070
751.1459, 1472.545
751.6280, 1458.472
752.1101, 1465.131
752.5922, 1482.322
753.0743, 1490.787
753.5565, 1488.911
754.0386, 1484.718
754.5207, 1482.893
755.0028, 1481.569
755.4849, 1475.738
755.9670, 1464.203
756.4492, 1460.648
756.9313, 1469.234
757.4134, 1475.808
757.8955, 1473.083
758.3776, 1465.875
758.8597, 1461.671
759.3419, 1460.895
759.8240, 1458.376
760.3061, 1454.266
760.7882, 1447.663
761.2703, 1435.052
761.7524, 1421.869
762.2346, 1412.891
762.7167, 1409.063
763.1988, 1410.298
763.6809, 1418.601
764.1630, 1428.258
764.6451, 1433.653
765.1273, 1435.097
765.6094, 1431.470
766.0915, 1423.494
766.5736, 1419.002
767.0557, 1423.467
767.5378, 1431.435
768.0200, 1429.531
768.5021, 1414.854
768.9842, 1409.502
769.4663, 1421.801
769.9484, 1425.697
770.4305, 1399.123
770.9127, 1365.323
771.3948, 1361.446
771.8769, 1390.292
772.3590, 1409.177
772.8411, 1407.080
773.3232, 1401.583
773.8054, 1398.082
774.2875, 1395.484
774.7696, 1390.894
775.2517, 1385.356
775.7338, 1384.551
776.2159, 1393.455
776.6981, 1404.385
777.1802, 1408.927
777.6623, 1408.867
778.1444, 1409.241
778.6265, 1410.028
779.1086, 1404.754
779.5908, 1389.079
780.0729, 1370.598
780.5550, 1363.214
781.0371, 1367.565
781.5192, 1379.307
782.0013, 1405.592
782.4835, 1419.482
782.9656, 1402.386
783.4477, 1375.857
783.9298, 1368.930
784.4119, 1382.092
784.8940, 1390.005
785.3762, 1389.018
785.8583, 1386.032
786.3404, 1379.042
786.8225, 1373.845
787.3046, 1378.624
787.7867, 1389.813
788.2689, 1394.567
788.7510, 1385.934
789.2331, 1374.741
789.7152, 1370.441
790.1973, 1369.297
790.6794, 1363.434
791.1616, 1354.458
791.6437, 1351.954
792.1258, 1360.051
792.6079, 1372.345
793.0900, 1381.949
793.5721, 1388.316
794.0543, 1384.234
794.5364, 1367.722
795.0185, 1352.676
795.5006, 1341.955
795.9827, 1336.470
796.4648, 1338.728
796.9470, 1347.746
797.4291, 1352.864
797.9112, 1352.493
798.3933, 1350.353
798.8754, 1343.512
799.3575, 1338.000
799.8397, 1339.759
800.3218, 1344.623
800.8039, 1343.499
801.2860, 1333.138
801.7681, 1325.324
802.2502, 1327.439
802.7324, 1333.394
803.2145, 1336.819
803.6966, 1340.141
804.1787, 1352.969
804.6608, 1374.973
805.1429, 1387.009
805.6251, 1368.664
806.1072, 1335.555
806.5893, 1322.301
807.0714, 1326.285
807.5535, 1327.070
808.0356, 1320.783
808.5178, 1318.948
808.9999, 1330.554
809.4820, 1348.978
809.9641, 1357.233
810.4462, 1353.052
810.9283, 1346.614
811.4105, 1334.259
811.8926, 1325.580
812.3747, 1325.624
812.8568, 1330.399
813.3389, 1337.050
813.8210, 1345.442
814.3032, 1349.175
814.7853, 1341.639
815.2674, 1336.509
815.7495, 1341.273
816.2316, 1348.248
816.7137, 1352.540
817.1959, 1352.499
817.6780, 1344.709
818.1601, 1325.510
818.6422, 1308.988
819.1243, 1308.165
819.6064, 1316.988
820.0886, 1329.595
820.5707, 1343.322
821.0528, 1351.154
821.5349, 1350.780
822.0170, 1346.370
822.4991, 1341.309
822.9813, 1336.711
823.4634, 1339.237
823.9455, 1349.531
824.4276, 1352.143
824.9097, 1341.238
825.3918, 1333.410
825.8740, 1343.574
826.3561, 1364.559
826.8382, 1371.357
827.3203, 1354.107
827.8024, 1345.457
828.2845, 1350.375
828.7667, 1357.943
829.2488, 1370.248
829.7309, 1379.527
830.2130, 1372.327
830.6951, 1348.229
831.1772, 1334.226
831.6594, 1346.327
832.1415, 1358.068
832.6236, 1357.276
833.1057, 1351.097
833.5878, 1343.133
834.0699, 1336.850
834.5521, 1340.694
835.0342, 1360.469
835.5163, 1379.579
835.9984, 1380.498
836.4805, 1371.949
836.9626, 1368.738
837.4448, 1369.543
837.9269, 1365.442
838.4090, 1353.655
838.8911, 1340.004
839.3732, 1330.034
839.8553, 1323.678
840.3375, 1319.959
840.8196, 1318.814
841.3017, 1325.601
841.7838, 1343.431
842.2659, 1358.318
842.7480, 1359.784
843.2302, 1353.181
843.7123, 1352.346
844.1944, 1360.053
844.6765, 1364.148
845.1586, 1362.031
845.6407, 1360.172
846.1229, 1359.985
846.6050, 1361.584
847.0871, 1366.973
847.5692, 1375.443
848.0513, 1378.683
848.5334, 1372.887
849.0156, 1365.378
849.4977, 1353.797
849.9798, 1345.107
850.4619, 1348.756
850.9440, 1358.600
851.4261, 1359.665
851.9083, 1346.692
852.3904, 1335.558
852.8725, 1338.059
853.3546, 1346.376
853.8367, 1354.230
854.3188, 1360.839
854.8010, 1365.048
855.2831, 1366.907
855.7652, 1368.083
856.2473, 1369.872
856.7294, 1371.421
857.2115, 1370.938
857.6937, 1368.857
858.1758, 1366.435
858.6579, 1363.919
859.1400, 1363.642
859.6221, 1366.595
860.1042, 1373.247
860.5864, 1386.258
861.0685, 1404.895
861.5506, 1408.883
862.0327, 1393.334
862.5148, 1382.179
862.9969, 1380.851
863.4791, 1384.736
863.9612, 1391.911
864.4433, 1400.997
864.9254, 1406.922
865.4075, 1409.111
865.8896, 1409.325
866.3718, 1405.598
866.8539, 1402.324
867.3360, 1400.637
867.8181, 1400.440
868.3002, 1404.008
868.7823, 1410.526
869.2645, 1409.442
869.7466, 1383.269
870.2287, 1368.245
870.7108, 1391.394
871.1929, 1420.682
871.6750, 1427.104
872.1572, 1415.766
872.6393, 1403.181
873.1214, 1394.611
873.6035, 1390.246
874.0856, 1393.663
874.5677, 1398.461
875.0499, 1395.748
875.5320, 1389.301
876.0141, 1387.028
876.4962, 1390.391
876.9783, 1397.743
877.4604, 1409.312
877.9426, 1418.759
878.4247, 1412.126
878.9068, 1394.605
879.3889, 1386.138
879.8710, 1387.546
880.3531, 1390.879
880.8353, 1393.078
881.3174, 1393.805
881.7995, 1391.921
882.2816, 1388.481
882.7637, 1391.553
883.2458, 1402.662
883.7280, 1408.723
884.2101, 1407.214
884.6922, 1401.145
885.1743, 1390.206
885.6564, 1378.537
886.1385, 1375.329
886.6207, 1381.951
887.1028, 1391.174
887.5849, 1406.417
888.0670, 1418.664
888.5491, 1423.636
889.0313, 1426.347
889.5134, 1435.466
889.9955, 1447.010
890.4776, 1441.829
890.9597, 1400.359
891.4418, 1375.384
891.9240, 1386.572
892.4061, 1402.219
892.8882, 1405.107
893.3703, 1402.480
893.8524, 1407.466
894.3345, 1420.717
894.8167, 1426.664
895.2988, 1412.980
895.7809, 1397.853
896.2630, 1387.381
896.7451, 1383.023
897.2272, 1390.245
897.7094, 1404.324
898.1915, 1414.489
898.6736, 1416.907
899.1557, 1413.964
899.6378, 1403.726
900.1199, 1392.204
900.6021, 1385.173
901.0842, 1383.155
901.5663, 1389.881
902.0484, 1403.601
902.5305, 1413.142
903.0126, 1411.228
903.4948, 1403.622
903.9769, 1395.948
904.4590, 1389.853
904.9411, 1392.935
905.4232, 1403.950
905.9053, 1412.177
906.3875, 1414.104
906.8696, 1411.222
907.3517, 1404.003
907.8338, 1394.666
908.3159, 1388.737
908.7980, 1386.156
909.2802, 1397.679
909.7623, 1427.302
910.2444, 1448.328
910.7265, 1446.203
911.2086, 1433.920
911.6907, 1430.283
912.1729, 1435.133
912.6550, 1435.490
913.1371, 1431.000
913.6192, 1422.331
914.1013, 1405.318
914.5834, 1392.192
915.0656, 1391.455
915.5477, 1399.873
916.0298, 1410.975
916.5119, 1427.193
916.9940, 1437.046
917.4761, 1441.661
917.9583, 1438.267
918.4404, 1414.263
918.9225, 1392.311
919.4046, 1395.275
919.8867, 1415.679
920.3688, 1424.920
920.8510, 1415.571
921.3331, 1406.892
921.8152, 1399.228
922.2973, 1395.564
922.7794, 1396.981
923.2615, 1403.300
923.7437, 1419.003
924.2258, 1441.260
924.7079, 1451.493
925.1900, 1438.425
925.6721, 1421.993
926.1542, 1402.474
926.6364, 1390.122
927.1185, 1400.254
927.6006, 1420.692
928.0827, 1430.390
928.5648, 1425.039
929.0469, 1415.545
929.5291, 1401.833
930.0112, 1393.317
930.4933, 1400.538
930.9754, 1414.618
931.4575, 1427.670
931.9396, 1437.006
932.4218, 1438.785
932.9039, 1431.763
933.3860, 1421.996
933.8681, 1412.868
934.3502, 1405.409
934.8323, 1400.083
935.3145, 1397.798
935.7966, 1401.397
936.2787, 1410.345
936.7608, 1421.578
937.2429, 1433.691
937.7250, 1443.503
938.2072, 1447.579
938.6893, 1446.320
939.1714, 1437.634
939.6535, 1424.274
940.1356, 1416.305
940.6177, 1416.032
941.0999, 1421.973
941.5820, 1433.776
942.0641, 1447.441
942.5462, 1456.850
943.0283, 1461.836
943.5104, 1459.103
943.9926, 1449.432
944.4747, 1446.155
944.9568, 1453.597
945.4389, 1459.021
945.9210, 1449.855
946.4031, 1432.862
946.8853, 1428.334
947.3674, 1436.182
947.8495, 1437.547
948.3316, 1430.225
948.8137, 1430.084
949.2958, 1445.174
949.7780, 1459.839
950.2601, 1455.845
950.7422, 1436.720
951.2243, 1420.800
951.7064, 1408.306
952.1885, 1396.608
952.6707, 1383.390
953.1528, 1380.262
953.6349, 1396.122
954.1170, 1417.387
954.5991, 1425.415
955.0812, 1420.869
955.5634, 1419.213
956.0455, 1420.587
956.5276, 1425.073
957.0097, 1435.885
957.4918, 1443.123
957.9739, 1440.515
958.4561, 1432.151
958.9382, 1423.987
959.4203, 1415.781
959.9024, 1410.940
960.3845, 1410.409
960.8666, 1411.638
961.3488, 1417.910
961.8309, 1420.727
962.3130, 1411.763
962.7951, 1397.428
963.2772, 1389.816
963.7593, 1389.189
964.2415, 1394.014
964.7236, 1414.162
965.2057, 1425.403
965.6878, 1412.885
966.1699, 1400.793
966.6520, 1409.418
967.1342, 1428.733
967.6163, 1434.134
968.0984, 1419.283
968.5805, 1413.836
969.0626, 1427.442
969.5447, 1439.563
970.0269, 1446.857
970.5090, 1449.208
970.9911, 1445.640
971.4732, 1437.265
971.9553, 1425.420
972.4374, 1406.400
972.9196, 1397.677
973.4017, 1408.890
973.8838, 1421.401
974.3659, 1431.581
974.8480, 1437.852
975.3301, 1435.551
975.8123, 1428.478
976.2944, 1429.323
976.7765, 1444.909
977.2586, 1452.202
977.7407, 1434.146
978.2228, 1421.267
978.7050, 1436.366
979.1871, 1455.708
979.6692, 1450.739
980.1513, 1428.399
980.6334, 1420.338
981.1155, 1439.766
981.5977, 1453.394
982.0798, 1445.884
982.5619, 1436.574
983.0440, 1435.000
983.5261, 1437.056
984.0082, 1439.085
984.4904, 1440.106
984.9725, 1438.212
985.4546, 1430.710
985.9367, 1426.837
986.4188, 1434.698
986.9009, 1441.714
987.3831, 1438.038
987.8652, 1431.132
988.3473, 1429.941
988.8294, 1434.362
989.3115, 1439.457
989.7936, 1444.529
990.2758, 1447.812
990.7579, 1447.144
991.2400, 1446.002
991.7221, 1446.452
992.2042, 1447.833
992.6863, 1449.681
993.1685, 1451.578
993.6506, 1452.615
994.1327, 1453.001
994.6148, 1450.993
995.0969, 1442.696
995.5790, 1435.085
996.0612, 1432.432
996.5433, 1433.611
997.0254, 1439.961
997.5075, 1448.854
997.9896, 1449.635
998.4717, 1434.583
998.9539, 1423.527
999.4360, 1426.429
999.9181, 1435.617
1000.400, 1449.953
1000.882, 1464.650
1001.364, 1475.763
1001.847, 1481.945
1002.329, 1480.367
1002.811, 1467.479
1003.293, 1454.883
1003.775, 1444.851
1004.257, 1440.333
1004.739, 1445.641
1005.221, 1456.274
1005.703, 1469.493
1006.186, 1482.659
1006.668, 1489.098
1007.150, 1484.938
1007.632, 1479.232
1008.114, 1473.825
1008.596, 1470.753
1009.078, 1470.554
1009.560, 1474.007
1010.043, 1485.011
1010.525, 1500.635
1011.007, 1510.385
1011.489, 1510.524
1011.971, 1506.694
1012.453, 1494.870
1012.935, 1487.165
1013.417, 1493.160
1013.899, 1505.690
1014.382, 1522.257
1014.864, 1537.462
1015.346, 1535.999
1015.828, 1508.534
1016.310, 1486.764
1016.792, 1485.787
1017.274, 1490.196
1017.756, 1492.941
1018.239, 1495.797
1018.721, 1500.692
1019.203, 1507.691
1019.685, 1517.430
1020.167, 1531.788
1020.649, 1539.948
1021.131, 1533.349
1021.613, 1526.073
1022.095, 1525.671
1022.578, 1526.665
1023.060, 1522.051
1023.542, 1514.809
1024.024, 1514.426
1024.506, 1524.302
1024.988, 1529.979
1025.470, 1520.809
1025.952, 1515.850
1026.435, 1525.604
1026.917, 1539.195
1027.399, 1551.677
1027.881, 1559.983
1028.363, 1556.924
1028.845, 1539.519
1029.327, 1528.885
1029.809, 1532.596
1030.292, 1538.314
1030.774, 1544.427
1031.256, 1549.812
1031.738, 1550.449
1032.220, 1551.234
1032.702, 1564.201
1033.184, 1591.956
1033.666, 1605.690
1034.148, 1592.889
1034.630, 1579.917
1035.113, 1568.236
1035.595, 1560.419
1036.077, 1559.746
1036.559, 1562.832
1037.041, 1564.384
1037.523, 1564.209
1038.005, 1567.056
1038.487, 1576.861
1038.970, 1583.359
1039.452, 1585.122
1039.934, 1584.475
1040.416, 1578.687
1040.898, 1574.192
1041.380, 1580.259
1041.862, 1595.663
1042.344, 1607.250
1042.826, 1617.448
1043.309, 1616.983
1043.791, 1592.989
1044.273, 1582.826
1044.755, 1609.860
1045.237, 1642.435
1045.719, 1646.464
1046.201, 1629.184
1046.683, 1624.844
1047.166, 1638.601
1047.648, 1647.853
1048.130, 1652.177
1048.612, 1652.127
1049.094, 1645.899
1049.576, 1640.243
1050.058, 1640.636
1050.540, 1646.158
1051.022, 1655.751
1051.505, 1670.692
1051.987, 1674.668
1052.469, 1664.563
1052.951, 1664.483
1053.433, 1682.050
1053.915, 1699.862
1054.397, 1706.714
1054.879, 1705.474
1055.361, 1699.860
1055.844, 1690.694
1056.326, 1688.286
1056.808, 1692.597
1057.290, 1697.069
1057.772, 1700.592
1058.254, 1703.553
1058.736, 1706.163
1059.218, 1708.049
1059.701, 1707.909
1060.183, 1707.307
1060.665, 1712.169
1061.147, 1721.598
1061.629, 1732.278
1062.111, 1742.965
1062.593, 1746.903
1063.075, 1741.756
1063.557, 1735.000
1064.040, 1733.204
1064.522, 1735.613
1065.004, 1740.573
1065.486, 1748.755
1065.968, 1767.472
1066.450, 1790.870
1066.932, 1795.781
1067.414, 1778.620
1067.896, 1761.219
1068.379, 1758.334
1068.861, 1761.800
1069.343, 1761.591
1069.825, 1762.619
1070.307, 1777.090
1070.789, 1796.030
1071.271, 1798.208
1071.753, 1784.907
1072.236, 1777.202
1072.718, 1784.951
1073.200, 1796.847
1073.682, 1807.553
1074.164, 1815.906
1074.646, 1818.769
1075.128, 1820.356
1075.610, 1825.609
1076.093, 1834.213
1076.575, 1844.334
1077.057, 1855.613
1077.539, 1864.950
1078.021, 1871.109
1078.503, 1874.834
1078.985, 1873.020
1079.467, 1872.291
1079.949, 1880.909
1080.432, 1892.612
1080.914, 1895.331
1081.396, 1888.358
1081.878, 1885.737
1082.360, 1889.416
1082.842, 1898.481
1083.324, 1922.861
1083.806, 1940.533
1084.288, 1937.382
1084.771, 1925.624
1085.253, 1916.885
1085.735, 1911.063
1086.217, 1907.130
1086.699, 1904.477
1087.181, 1905.300
1087.663, 1909.065
1088.145, 1917.911
1088.628, 1935.452
1089.110, 1952.784
1089.592, 1964.459
1090.074, 1970.084
1090.556, 1966.573
1091.038, 1953.043
1091.520, 1958.293
1092.002, 1986.513
1092.484, 2007.064
1092.967, 2015.277
1093.449, 2011.217
1093.931, 1992.105
1094.413, 1976.883
1094.895, 1992.563
1095.377, 2028.322
1095.859, 2041.453
1096.341, 2035.875
1096.823, 2043.394
1097.306, 2065.092
1097.788, 2086.461
1098.270, 2102.139
1098.752, 2106.202
1099.234, 2092.125
1099.716, 2071.368
1100.198, 2059.258
1100.680, 2054.473
1101.163, 2055.458
1101.645, 2061.142
1102.127, 2070.588
1102.609, 2082.441
1103.091, 2093.632
1103.573, 2102.781
1104.055, 2108.398
1104.537, 2106.728
1105.020, 2103.603
1105.502, 2106.189
1105.984, 2109.053
1106.466, 2098.794
1106.948, 2085.316
1107.430, 2096.563
1107.912, 2136.189
1108.394, 2162.252
1108.876, 2143.328
1109.359, 2129.612
1109.841, 2145.130
1110.323, 2165.432
1110.805, 2179.923
1111.287, 2187.714
1111.769, 2185.674
1112.251, 2176.263
1112.733, 2171.377
1113.215, 2172.418
1113.698, 2177.304
1114.180, 2192.580
1114.662, 2200.639
1115.144, 2189.649
1115.626, 2182.044
1116.108, 2195.890
1116.590, 2219.834
1117.072, 2232.390
1117.555, 2233.502
1118.037, 2238.704
1118.519, 2249.515
1119.001, 2255.479
1119.483, 2254.836
1119.965, 2252.351
1120.447, 2249.574
1120.929, 2248.487
1121.411, 2250.669
1121.894, 2257.104
1122.376, 2273.509
1122.858, 2296.731
1123.340, 2311.639
1123.822, 2317.651
1124.304, 2313.672
1124.786, 2301.033
1125.268, 2290.157
1125.750, 2287.024
1126.233, 2287.124
1126.715, 2282.344
1127.197, 2280.508
1127.679, 2296.633
1128.161, 2320.638
1128.643, 2337.103
1129.125, 2346.639
1129.607, 2356.553
1130.090, 2368.466
1130.572, 2376.941
1131.054, 2378.085
1131.536, 2377.291
1132.018, 2375.985
1132.500, 2375.243
1132.982, 2374.350
1133.464, 2375.487
1133.947, 2382.182
1134.429, 2393.269
1134.911, 2404.644
1135.393, 2419.054
1135.875, 2422.576
1136.357, 2401.124
1136.839, 2388.041
1137.321, 2392.513
1137.803, 2401.445
1138.286, 2408.261
1138.768, 2414.325
1139.250, 2421.504
1139.732, 2429.799
1140.214, 2440.565
1140.696, 2455.125
1141.178, 2459.917
1141.660, 2452.558
1142.142, 2454.709
1142.625, 2474.013
1143.107, 2490.921
1143.589, 2489.384
1144.071, 2481.093
1144.553, 2487.905
1145.035, 2504.036
1145.517, 2513.705
1145.999, 2517.013
1146.482, 2510.403
1146.964, 2498.014
1147.446, 2499.204
1147.928, 2519.931
1148.410, 2536.061
1148.892, 2525.001
1149.374, 2510.293
1149.856, 2512.595
1150.339, 2521.603
1150.821, 2530.040
1151.303, 2536.378
1151.785, 2537.766
1152.267, 2535.954
1152.749, 2540.645
1153.231, 2559.519
1153.713, 2563.354
1154.195, 2521.720
1154.677, 2497.262
1155.160, 2526.207
1155.642, 2558.643
1156.124, 2561.341
1156.606, 2551.117
1157.088, 2552.410
1157.570, 2563.960
1158.052, 2570.630
1158.534, 2571.174
1159.017, 2572.531
1159.499, 2575.178
1159.981, 2578.090
1160.463, 2581.253
1160.945, 2581.198
1161.427, 2574.417
1161.909, 2568.220
1162.391, 2576.810
1162.874, 2595.370
1163.356, 2611.346
1163.838, 2622.669
1164.320, 2616.290
1164.802, 2597.677
1165.284, 2594.057
1165.766, 2612.437
1166.248, 2630.410
1166.730, 2632.049
1167.213, 2631.041
1167.695, 2643.143
1168.177, 2652.978
1168.659, 2640.302
1169.141, 2621.845
1169.623, 2618.534
1170.105, 2628.773
1170.587, 2643.267
1171.069, 2661.969
1171.552, 2671.376
1172.034, 2657.781
1172.516, 2652.524
1172.998, 2664.875
1173.480, 2679.920
1173.962, 2692.877
1174.444, 2703.756
1174.926, 2712.628
1175.409, 2719.391
1175.891, 2724.780
1176.373, 2729.521
1176.855, 2718.923
1177.337, 2692.377
1177.819, 2678.107
1178.301, 2681.086
1178.783, 2683.339
1179.266, 2676.030
1179.748, 2676.586
1180.230, 2710.211
1180.712, 2749.876
1181.194, 2746.724
1181.676, 2722.138
1182.158, 2707.193
1182.640, 2702.869
1183.122, 2706.153
1183.604, 2715.793
1184.087, 2732.534
1184.569, 2758.635
1185.051, 2775.965
1185.533, 2773.658
1186.015, 2764.366
1186.497, 2749.171
1186.979, 2733.341
1187.461, 2714.978
1187.944, 2701.726
1188.426, 2705.028
1188.908, 2722.866
1189.390, 2744.182
1189.872, 2774.046
1190.354, 2788.681
1190.836, 2785.226
1191.318, 2777.897
1191.801, 2768.470
1192.283, 2764.938
1192.765, 2772.170
1193.247, 2785.320
1193.729, 2800.038
1194.211, 2813.590
1194.693, 2818.020
1195.175, 2816.456
1195.657, 2816.379
1196.140, 2818.124
1196.622, 2824.019
1197.104, 2831.360
1197.586, 2824.430
1198.068, 2793.957
1198.550, 2773.527
1199.032, 2795.419
1199.514, 2818.776
1199.996, 2817.056
1200.479, 2810.993
1200.961, 2816.149
1201.443, 2828.234
1201.925, 2845.087
1202.407, 2863.072
1202.889, 2858.592
1203.371, 2815.706
1203.853, 2803.604
1204.336, 2833.909
1204.818, 2857.315
1205.300, 2863.362
1205.782, 2864.246
1206.264, 2865.877
1206.746, 2869.240
1207.228, 2876.787
1207.710, 2884.411
1208.193, 2877.167
1208.675, 2863.121
1209.157, 2869.750
1209.639, 2889.761
1210.121, 2898.481
1210.603, 2893.665
1211.085, 2886.552
1211.567, 2881.470
1212.049, 2880.844
1212.531, 2896.176
1213.014, 2902.713
1213.496, 2866.944
1213.978, 2840.393
1214.460, 2874.249
1214.942, 2926.834
1215.424, 2946.067
1215.906, 2937.552
1216.388, 2929.365
1216.871, 2921.679
1217.353, 2911.886
1217.835, 2896.307
1218.317, 2896.960
1218.799, 2920.156
1219.281, 2935.863
1219.763, 2931.240
1220.245, 2919.863
1220.728, 2912.023
1221.210, 2913.383
1221.692, 2947.329
1222.174, 2989.510
1222.656, 2978.778
1223.138, 2941.927
1223.620, 2938.682
1224.102, 2962.861
1224.584, 2971.621
1225.067, 2955.578
1225.549, 2948.107
1226.031, 2970.837
1226.513, 2989.519
1226.995, 2987.688
1227.477, 2985.955
1227.959, 2996.664
1228.441, 3007.348
1228.923, 3007.378
1229.406, 3002.486
1229.888, 3001.966
1230.370, 3005.797
1230.852, 3015.068
1231.334, 3030.192
1231.816, 3040.176
1232.298, 3044.439
1232.780, 3043.763
##END=



