##NAMES=Allactite
##RRUFFID=R070175
##IDEAL CHEMISTRY=Mn^2+^_7_(As^5+^O_4_)_2_(OH)_8_
##LOCALITY=Langban, Filipstad, Varmland, Sweden
##OWNER=Michael Scott
##SOURCE=Michael Scott
##DESCRIPTION=Brownish red vitreous massive
##STATUS=The identification of this mineral has been confirmed by X-ray diffraction and chemical analysis
##URL=rruff.info/R070175
##MEASURED CHEMISTRY=(Mn_6.85_Mg_0.10_Ca_0.05_)_Σ=7_(As_1.00_O_4_)_2_(OH)_8_ ;to (Mn_6.75_Mg_0.19_Ca_0.16_)_Σ=7_(As_1.00_O_4_)_2_(OH)_8_
103.8984, 32.37295
104.3806, 34.83994
104.8627, 36.93390
105.3448, 37.64180
105.8269, 39.29084
106.3090, 43.05745
106.7911, 52.03761
107.2733, 57.31363
107.7554, 55.50438
108.2375, 48.99262
108.7196, 47.82260
109.2017, 56.34758
109.6838, 67.22301
110.1659, 76.75266
110.6481, 83.91252
111.1302, 90.43161
111.6123, 96.15945
112.0944, 101.0645
112.5765, 106.3665
113.0586, 111.5162
113.5408, 117.4013
114.0229, 124.8838
114.5050, 136.9546
114.9871, 148.5312
115.4692, 156.7445
115.9513, 159.6520
116.4335, 164.8846
116.9156, 176.5531
117.3977, 192.7130
117.8798, 209.3259
118.3619, 225.1021
118.8440, 240.3233
119.3262, 255.2350
119.8083, 269.5869
120.2904, 284.2929
120.7725, 299.0946
121.2546, 314.3433
121.7367, 332.1634
122.2189, 354.5510
122.7010, 380.2281
123.1831, 407.6821
123.6652, 436.8323
124.1473, 467.2307
124.6294, 498.3659
125.1115, 530.2242
125.5937, 562.9600
126.0758, 597.8765
126.5579, 634.2857
127.0400, 669.0532
127.5221, 702.6832
128.0043, 733.8906
128.4864, 757.8082
128.9685, 772.4049
129.4506, 783.8965
129.9327, 802.8121
130.4148, 828.8951
130.8969, 854.8307
131.3791, 871.9090
131.8612, 882.0856
132.3433, 900.2500
132.8254, 930.1154
133.3075, 969.3397
133.7896, 1011.987
134.2718, 1058.410
134.7539, 1104.851
135.2360, 1145.426
135.7181, 1178.326
136.2002, 1217.283
136.6823, 1267.225
137.1645, 1328.344
137.6466, 1388.766
138.1287, 1445.909
138.6108, 1506.760
139.0929, 1583.806
139.5750, 1682.079
140.0572, 1782.204
140.5393, 1876.559
141.0214, 1962.543
141.5035, 2053.625
141.9856, 2159.327
142.4677, 2268.707
142.9499, 2350.350
143.4320, 2400.603
143.9141, 2425.888
144.3962, 2427.900
144.8783, 2398.137
145.3604, 2359.182
145.8425, 2304.633
146.3247, 2236.086
146.8068, 2188.399
147.2889, 2162.017
147.7710, 2156.745
148.2531, 2172.583
148.7352, 2220.668
149.2174, 2277.673
149.6995, 2338.739
150.1816, 2401.541
150.6637, 2476.738
151.1458, 2566.692
151.6279, 2667.569
152.1101, 2776.965
152.5922, 2907.466
153.0743, 3034.811
153.5564, 3150.894
154.0385, 3253.064
154.5206, 3350.865
155.0028, 3450.944
155.4849, 3547.997
155.9670, 3629.382
156.4491, 3699.945
156.9312, 3749.207
157.4133, 3772.339
157.8955, 3783.269
158.3776, 3750.979
158.8597, 3663.352
159.3418, 3522.757
159.8239, 3347.655
160.3060, 3109.107
160.7882, 2853.724
161.2703, 2620.110
161.7524, 2420.671
162.2345, 2244.578
162.7166, 2087.519
163.1987, 1948.784
163.6808, 1831.070
164.1630, 1742.129
164.6451, 1672.282
165.1272, 1608.951
165.6093, 1546.095
166.0914, 1488.707
166.5735, 1440.981
167.0557, 1404.223
167.5378, 1372.242
168.0199, 1342.107
168.5020, 1314.006
168.9841, 1288.635
169.4662, 1263.710
169.9484, 1242.944
170.4305, 1230.813
170.9126, 1230.820
171.3947, 1233.601
171.8768, 1231.452
172.3589, 1225.185
172.8411, 1218.051
173.3232, 1208.572
173.8053, 1200.226
174.2874, 1198.604
174.7695, 1208.046
175.2516, 1221.531
175.7338, 1231.893
176.2159, 1239.155
176.6980, 1244.273
177.1801, 1248.196
177.6622, 1250.597
178.1443, 1250.646
178.6264, 1246.948
179.1086, 1241.219
179.5907, 1235.576
180.0728, 1229.910
180.5549, 1226.144
181.0370, 1227.954
181.5191, 1233.813
182.0013, 1238.112
182.4834, 1235.132
182.9655, 1228.866
183.4476, 1230.711
183.9297, 1242.225
184.4118, 1256.730
184.8940, 1265.895
185.3761, 1270.198
185.8582, 1273.053
186.3403, 1275.209
186.8224, 1277.167
187.3046, 1281.604
187.7867, 1289.535
188.2688, 1298.540
188.7509, 1303.331
189.2330, 1303.876
189.7151, 1305.747
190.1973, 1314.299
190.6794, 1328.605
191.1615, 1339.720
191.6436, 1345.666
192.1257, 1348.435
192.6078, 1353.622
193.0900, 1361.675
193.5721, 1369.103
194.0542, 1375.163
194.5363, 1379.808
195.0184, 1375.377
195.5005, 1356.872
195.9826, 1328.484
196.4648, 1310.234
196.9469, 1304.811
197.4290, 1300.079
197.9111, 1280.520
198.3932, 1244.111
198.8753, 1215.339
199.3575, 1204.595
199.8396, 1209.811
200.3217, 1201.786
200.8038, 1176.215
201.2859, 1147.196
201.7680, 1134.500
202.2502, 1141.288
202.7323, 1147.332
203.2144, 1144.864
203.6965, 1133.226
204.1786, 1124.380
204.6607, 1118.573
205.1429, 1115.353
205.6250, 1114.503
206.1071, 1116.591
206.5892, 1119.071
207.0713, 1122.298
207.5534, 1127.762
208.0356, 1125.170
208.5177, 1111.447
208.9998, 1091.965
209.4819, 1078.268
209.9640, 1071.493
210.4461, 1067.668
210.9282, 1065.720
211.4104, 1066.848
211.8925, 1065.019
212.3746, 1058.894
212.8567, 1049.882
213.3388, 1042.087
213.8209, 1034.443
214.3031, 1029.956
214.7852, 1031.881
215.2673, 1043.909
215.7494, 1050.964
216.2315, 1049.951
216.7136, 1042.502
217.1958, 1037.453
217.6779, 1033.927
218.1600, 1034.072
218.6421, 1040.832
219.1242, 1059.046
219.6063, 1071.932
220.0885, 1075.970
220.5706, 1071.780
221.0527, 1069.396
221.5348, 1070.231
222.0169, 1071.102
222.4990, 1068.430
222.9812, 1058.844
223.4633, 1053.043
223.9454, 1053.534
224.4275, 1060.558
224.9096, 1068.424
225.3917, 1077.141
225.8739, 1086.858
226.3560, 1098.098
226.8381, 1112.684
227.3202, 1125.476
227.8023, 1135.112
228.2844, 1141.093
228.7665, 1147.551
229.2487, 1155.994
229.7308, 1163.569
230.2129, 1165.416
230.6950, 1154.585
231.1771, 1150.120
231.6592, 1159.034
232.1414, 1185.289
232.6235, 1206.088
233.1056, 1218.367
233.5877, 1227.003
234.0698, 1239.965
234.5519, 1262.595
235.0341, 1280.750
235.5162, 1288.562
235.9983, 1280.883
236.4804, 1280.067
236.9625, 1289.437
237.4446, 1304.088
237.9268, 1314.658
238.4089, 1317.115
238.8910, 1321.743
239.3731, 1332.620
239.8552, 1352.115
240.3373, 1371.789
240.8195, 1392.027
241.3016, 1412.263
241.7837, 1432.125
242.2658, 1453.864
242.7479, 1471.922
243.2300, 1483.216
243.7122, 1483.167
244.1943, 1486.555
244.6764, 1495.186
245.1585, 1506.886
245.6406, 1515.343
246.1227, 1516.834
246.6048, 1520.439
247.0870, 1531.648
247.5691, 1557.422
248.0512, 1574.986
248.5333, 1579.438
249.0154, 1575.487
249.4975, 1579.357
249.9797, 1593.312
250.4618, 1611.765
250.9439, 1632.318
251.4260, 1656.685
251.9081, 1679.141
252.3902, 1697.873
252.8724, 1714.588
253.3545, 1736.537
253.8366, 1765.778
254.3187, 1796.933
254.8008, 1826.846
255.2829, 1855.039
255.7651, 1883.144
256.2472, 1910.617
256.7293, 1938.250
257.2114, 1969.937
257.6935, 2008.022
258.1756, 2046.382
258.6577, 2079.489
259.1399, 2103.613
259.6220, 2133.905
260.1041, 2175.696
260.5862, 2225.773
261.0683, 2263.381
261.5504, 2282.809
262.0326, 2299.351
262.5147, 2323.844
262.9968, 2358.103
263.4789, 2394.128
263.9610, 2430.340
264.4431, 2467.440
264.9253, 2508.862
265.4074, 2557.715
265.8895, 2604.882
266.3716, 2644.110
266.8537, 2674.321
267.3358, 2698.983
267.8180, 2716.919
268.3001, 2729.508
268.7822, 2747.131
269.2643, 2772.938
269.7464, 2796.928
270.2285, 2812.625
270.7107, 2820.010
271.1928, 2817.975
271.6749, 2804.116
272.1570, 2780.466
272.6391, 2759.858
273.1212, 2743.721
273.6034, 2726.932
274.0855, 2706.663
274.5676, 2683.670
275.0497, 2650.823
275.5318, 2602.067
276.0139, 2542.540
276.4961, 2500.150
276.9782, 2476.336
277.4603, 2464.956
277.9424, 2462.443
278.4245, 2469.055
278.9066, 2480.529
279.3888, 2496.320
279.8709, 2516.364
280.3530, 2539.984
280.8351, 2567.336
281.3172, 2597.716
281.7993, 2631.553
282.2815, 2669.021
282.7636, 2704.288
283.2457, 2735.943
283.7278, 2764.692
284.2099, 2793.340
284.6920, 2822.181
285.1741, 2848.997
285.6563, 2871.650
286.1384, 2890.398
286.6205, 2905.626
287.1026, 2916.052
287.5847, 2924.110
288.0668, 2936.321
288.5490, 2952.834
289.0311, 2971.334
289.5132, 2991.032
289.9953, 3011.257
290.4774, 3030.319
290.9595, 3048.327
291.4417, 3064.486
291.9238, 3077.189
292.4059, 3086.329
292.8880, 3092.373
293.3701, 3098.663
293.8522, 3102.785
294.3344, 3095.161
294.8165, 3070.353
295.2986, 3036.498
295.7807, 3007.452
296.2628, 2982.815
296.7449, 2958.990
297.2271, 2932.257
297.7092, 2904.506
298.1913, 2881.005
298.6734, 2867.010
299.1555, 2852.277
299.6376, 2821.652
300.1198, 2776.644
300.6019, 2727.539
301.0840, 2680.561
301.5661, 2634.977
302.0482, 2590.174
302.5303, 2546.949
303.0125, 2502.221
303.4946, 2448.566
303.9767, 2388.737
304.4588, 2332.623
304.9409, 2285.201
305.4230, 2246.645
305.9052, 2216.550
306.3873, 2196.899
306.8694, 2182.429
307.3515, 2168.473
307.8336, 2156.109
308.3157, 2148.591
308.7979, 2150.837
309.2800, 2157.541
309.7621, 2162.832
310.2442, 2163.335
310.7263, 2167.430
311.2084, 2182.077
311.6906, 2204.753
312.1727, 2229.049
312.6548, 2250.638
313.1369, 2273.532
313.6190, 2298.876
314.1011, 2324.245
314.5833, 2359.361
315.0654, 2419.189
315.5475, 2492.113
316.0296, 2553.548
316.5117, 2578.201
316.9938, 2600.131
317.4760, 2639.300
317.9580, 2702.352
318.4402, 2769.129
318.9223, 2836.865
319.4044, 2903.933
319.8865, 2966.475
320.3686, 3025.009
320.8507, 3077.579
321.3329, 3123.300
321.8150, 3161.077
322.2971, 3193.983
322.7792, 3224.403
323.2613, 3249.762
323.7434, 3266.606
324.2256, 3273.620
324.7077, 3272.775
325.1898, 3262.953
325.6719, 3241.942
326.1540, 3221.798
326.6361, 3199.405
327.1183, 3179.573
327.6004, 3167.669
328.0825, 3170.538
328.5646, 3173.994
329.0467, 3177.802
329.5288, 3183.236
330.0110, 3177.811
330.4931, 3158.208
330.9752, 3129.983
331.4573, 3098.341
331.9394, 3061.570
332.4215, 3023.770
332.9037, 2984.687
333.3858, 2944.557
333.8679, 2905.619
334.3500, 2861.072
334.8321, 2825.940
335.3142, 2814.307
335.7964, 2834.291
336.2785, 2855.271
336.7606, 2871.163
337.2427, 2884.228
337.7248, 2908.225
338.2069, 2944.162
338.6891, 2988.400
339.1712, 3038.864
339.6533, 3094.934
340.1354, 3158.061
340.6175, 3226.277
341.0996, 3302.714
341.5818, 3398.564
342.0639, 3516.614
342.5460, 3635.631
343.0281, 3737.367
343.5102, 3822.935
343.9923, 3927.929
344.4745, 4057.904
344.9566, 4203.930
345.4387, 4348.594
345.9208, 4490.221
346.4029, 4634.087
346.8850, 4782.563
347.3672, 4935.173
347.8493, 5086.399
348.3314, 5236.167
348.8135, 5381.811
349.2956, 5514.907
349.7777, 5636.988
350.2599, 5759.342
350.7419, 5893.973
351.2241, 6031.524
351.7062, 6158.937
352.1883, 6275.373
352.6704, 6379.656
353.1525, 6461.227
353.6346, 6528.271
354.1168, 6599.720
354.5989, 6695.071
355.0810, 6791.743
355.5631, 6866.802
356.0452, 6919.781
356.5273, 6962.640
357.0095, 7014.013
357.4916, 7056.993
357.9737, 7069.772
358.4558, 7039.472
358.9379, 6981.940
359.4200, 6905.384
359.9022, 6809.375
360.3843, 6689.888
360.8664, 6538.016
361.3485, 6364.947
361.8306, 6181.329
362.3127, 5980.716
362.7949, 5778.365
363.2770, 5574.916
363.7591, 5372.105
364.2412, 5176.877
364.7233, 4984.350
365.2054, 4803.722
365.6876, 4641.632
366.1697, 4499.176
366.6518, 4371.861
367.1339, 4269.778
367.6160, 4183.393
368.0981, 4090.785
368.5803, 3972.811
369.0624, 3865.958
369.5445, 3784.963
370.0266, 3740.960
370.5087, 3692.271
370.9908, 3633.958
371.4730, 3573.703
371.9551, 3522.198
372.4372, 3482.550
372.9193, 3445.810
373.4014, 3409.081
373.8835, 3372.090
374.3657, 3342.237
374.8478, 3322.009
375.3299, 3305.488
375.8120, 3286.820
376.2941, 3265.662
376.7762, 3243.768
377.2584, 3222.693
377.7405, 3201.167
378.2226, 3172.502
378.7047, 3134.837
379.1868, 3097.514
379.6689, 3070.710
380.1511, 3053.455
380.6332, 3028.364
381.1153, 2989.276
381.5974, 2944.722
382.0795, 2915.778
382.5616, 2901.107
383.0438, 2886.444
383.5259, 2859.505
384.0080, 2825.337
384.4901, 2796.040
384.9722, 2772.656
385.4543, 2754.820
385.9364, 2743.208
386.4185, 2736.614
386.9007, 2731.142
387.3828, 2723.474
387.8649, 2716.456
388.3470, 2715.497
388.8291, 2721.936
389.3112, 2724.454
389.7934, 2709.098
390.2755, 2685.823
390.7576, 2669.036
391.2397, 2670.096
391.7218, 2674.193
392.2039, 2673.889
392.6861, 2669.037
393.1682, 2661.567
393.6503, 2654.411
394.1324, 2643.856
394.6145, 2626.874
395.0966, 2591.808
395.5788, 2562.076
396.0609, 2549.007
396.5430, 2547.652
397.0251, 2535.542
397.5072, 2497.048
397.9893, 2456.643
398.4715, 2425.656
398.9536, 2409.144
399.4357, 2394.160
399.9178, 2382.864
400.3999, 2372.594
400.8820, 2357.358
401.3642, 2330.840
401.8463, 2308.880
402.3284, 2298.102
402.8105, 2301.157
403.2926, 2296.889
403.7747, 2280.456
404.2569, 2263.016
404.7390, 2258.848
405.2211, 2270.468
405.7032, 2284.637
406.1853, 2298.451
406.6674, 2312.288
407.1496, 2328.452
407.6317, 2347.264
408.1138, 2367.059
408.5959, 2383.999
409.0780, 2399.286
409.5602, 2425.584
410.0423, 2468.924
410.5244, 2517.501
411.0065, 2547.995
411.4886, 2562.391
411.9707, 2576.703
412.4529, 2598.752
412.9350, 2628.446
413.4171, 2666.352
413.8992, 2714.405
414.3813, 2763.897
414.8634, 2803.948
415.3456, 2840.037
415.8277, 2883.031
416.3098, 2943.640
416.7919, 3009.466
417.2740, 3076.387
417.7561, 3143.004
418.2382, 3198.004
418.7203, 3225.657
419.2025, 3242.393
419.6846, 3263.778
420.1667, 3302.274
420.6488, 3337.990
421.1309, 3372.419
421.6130, 3401.678
422.0952, 3409.099
422.5773, 3377.709
423.0594, 3333.669
423.5415, 3288.947
424.0236, 3242.431
424.5057, 3198.988
424.9879, 3159.573
425.4700, 3123.575
425.9521, 3088.421
426.4342, 3053.041
426.9163, 3020.482
427.3984, 2991.692
427.8806, 2966.479
428.3627, 2944.356
428.8448, 2924.648
429.3269, 2909.058
429.8090, 2900.253
430.2911, 2899.126
430.7733, 2899.008
431.2554, 2897.472
431.7375, 2896.335
432.2196, 2902.771
432.7017, 2917.246
433.1838, 2934.678
433.6660, 2953.824
434.1481, 2973.344
434.6302, 2985.333
435.1123, 2986.360
435.5944, 2986.339
436.0765, 3001.835
436.5587, 3028.755
437.0408, 3051.904
437.5229, 3059.071
438.0050, 3059.967
438.4871, 3067.969
438.9692, 3084.246
439.4514, 3096.599
439.9335, 3085.520
440.4156, 3068.597
440.8977, 3068.364
441.3798, 3109.665
441.8619, 3153.745
442.3441, 3185.061
442.8262, 3204.429
443.3083, 3216.573
443.7904, 3210.346
444.2725, 3206.056
444.7546, 3216.859
445.2368, 3258.627
445.7189, 3291.097
446.2010, 3299.182
446.6831, 3296.766
447.1652, 3310.234
447.6473, 3357.843
448.1295, 3398.995
448.6116, 3421.340
449.0937, 3422.868
449.5758, 3424.619
450.0579, 3426.310
450.5400, 3428.592
451.0221, 3434.664
451.5042, 3447.775
451.9864, 3448.007
452.4685, 3428.624
452.9506, 3395.749
453.4327, 3371.753
453.9148, 3358.138
454.3969, 3336.190
454.8791, 3288.402
455.3612, 3220.800
455.8433, 3160.144
456.3254, 3109.561
456.8075, 3064.169
457.2896, 3020.409
457.7718, 2977.890
458.2539, 2937.455
458.7360, 2896.006
459.2181, 2858.294
459.7002, 2829.018
460.1823, 2807.927
460.6645, 2794.468
461.1466, 2792.826
461.6287, 2796.468
462.1108, 2798.912
462.5929, 2797.645
463.0750, 2796.333
463.5572, 2795.106
464.0393, 2794.840
464.5214, 2797.781
465.0035, 2814.559
465.4856, 2825.950
465.9677, 2822.525
466.4499, 2798.304
466.9320, 2777.697
467.4141, 2768.553
467.8962, 2758.854
468.3783, 2735.706
468.8604, 2692.652
469.3426, 2647.847
469.8247, 2601.703
470.3068, 2555.406
470.7889, 2517.657
471.2710, 2493.694
471.7531, 2463.417
472.2353, 2408.692
472.7174, 2328.703
473.1995, 2262.190
473.6816, 2213.444
474.1637, 2173.022
474.6458, 2127.645
475.1280, 2078.151
475.6101, 2030.632
476.0922, 1985.924
476.5743, 1945.363
477.0564, 1915.011
477.5385, 1894.155
478.0207, 1871.900
478.5028, 1837.944
478.9849, 1798.055
479.4670, 1759.210
479.9491, 1721.265
480.4312, 1687.923
480.9134, 1663.893
481.3955, 1646.421
481.8776, 1629.430
482.3597, 1612.749
482.8418, 1594.504
483.3239, 1572.692
483.8060, 1545.921
484.2881, 1522.453
484.7703, 1503.215
485.2524, 1488.473
485.7345, 1478.848
486.2166, 1481.166
486.6987, 1478.183
487.1808, 1464.972
487.6630, 1444.823
488.1451, 1433.237
488.6272, 1434.413
489.1093, 1434.970
489.5914, 1426.601
490.0735, 1408.290
490.5557, 1395.458
491.0378, 1389.340
491.5199, 1386.116
492.0020, 1380.715
492.4841, 1373.473
492.9662, 1367.566
493.4484, 1365.541
493.9305, 1364.258
494.4126, 1357.420
494.8947, 1345.496
495.3768, 1332.963
495.8589, 1320.604
496.3411, 1310.235
496.8232, 1304.662
497.3053, 1305.356
497.7874, 1307.250
498.2695, 1308.228
498.7516, 1308.142
499.2338, 1306.762
499.7159, 1302.073
500.1980, 1297.882
500.6801, 1295.975
501.1622, 1296.340
501.6443, 1296.733
502.1265, 1300.969
502.6086, 1302.066
503.0907, 1295.760
503.5728, 1274.727
504.0549, 1258.689
504.5370, 1247.889
505.0192, 1242.107
505.5013, 1242.270
505.9834, 1250.844
506.4655, 1257.234
506.9476, 1257.565
507.4297, 1252.455
507.9119, 1246.451
508.3940, 1239.258
508.8761, 1232.931
509.3582, 1230.583
509.8403, 1230.849
510.3224, 1227.259
510.8046, 1216.580
511.2867, 1206.825
511.7688, 1211.034
512.2509, 1224.753
512.7330, 1234.994
513.2151, 1234.856
513.6973, 1228.723
514.1794, 1216.408
514.6615, 1198.115
515.1436, 1187.198
515.6257, 1198.571
516.1078, 1215.526
516.5900, 1223.370
517.0721, 1202.290
517.5542, 1194.394
518.0363, 1222.447
518.5184, 1267.889
519.0005, 1284.235
519.4827, 1250.415
519.9648, 1213.949
520.4469, 1187.676
520.9290, 1171.453
521.4111, 1163.120
521.8932, 1164.359
522.3754, 1170.155
522.8575, 1176.460
523.3396, 1183.283
523.8217, 1191.960
524.3038, 1204.743
524.7859, 1216.010
525.2681, 1213.478
525.7502, 1198.914
526.2323, 1185.210
526.7144, 1181.165
527.1965, 1181.025
527.6786, 1173.482
528.1608, 1158.537
528.6429, 1148.572
529.1250, 1158.988
529.6071, 1176.418
530.0892, 1185.937
530.5714, 1179.735
531.0535, 1171.864
531.5356, 1167.493
532.0176, 1165.497
532.4998, 1163.481
532.9819, 1159.317
533.4640, 1156.663
533.9461, 1156.890
534.4282, 1160.174
534.9103, 1164.255
535.3925, 1171.703
535.8746, 1176.967
536.3567, 1174.534
536.8388, 1161.490
537.3209, 1153.551
537.8030, 1152.672
538.2852, 1156.699
538.7673, 1164.044
539.2494, 1174.630
539.7315, 1180.345
540.2136, 1174.307
540.6957, 1161.980
541.1779, 1156.236
541.6600, 1156.896
542.1421, 1160.120
542.6242, 1166.461
543.1063, 1172.285
543.5884, 1171.583
544.0706, 1160.068
544.5527, 1150.189
545.0348, 1150.908
545.5169, 1157.755
545.9990, 1163.560
546.4811, 1168.568
546.9633, 1169.840
547.4454, 1163.136
547.9275, 1148.840
548.4096, 1142.493
548.8917, 1151.298
549.3738, 1161.054
549.8560, 1164.414
550.3381, 1159.243
550.8202, 1153.131
551.3023, 1144.245
551.7844, 1137.017
552.2665, 1139.121
552.7487, 1151.003
553.2308, 1162.213
553.7129, 1170.935
554.1950, 1176.199
554.6771, 1173.175
555.1592, 1162.714
555.6414, 1154.027
556.1235, 1154.681
556.6056, 1160.086
557.0877, 1164.939
557.5698, 1168.899
558.0519, 1170.476
558.5341, 1167.645
559.0162, 1162.231
559.4983, 1156.487
559.9804, 1146.653
560.4625, 1141.283
560.9446, 1145.642
561.4268, 1156.794
561.9089, 1164.446
562.3910, 1167.880
562.8731, 1167.802
563.3552, 1163.119
563.8373, 1152.966
564.3195, 1146.952
564.8016, 1145.587
565.2837, 1147.473
565.7658, 1152.751
566.2479, 1161.568
566.7300, 1167.084
567.2122, 1167.605
567.6943, 1165.915
568.1764, 1166.940
568.6585, 1169.931
569.1406, 1171.442
569.6227, 1167.848
570.1049, 1163.078
570.5870, 1161.668
571.0691, 1163.488
571.5512, 1166.956
572.0333, 1173.213
572.5154, 1179.485
572.9976, 1182.918
573.4797, 1180.738
573.9618, 1181.680
574.4439, 1192.672
574.9260, 1206.240
575.4081, 1211.976
575.8903, 1202.677
576.3724, 1196.517
576.8545, 1198.344
577.3366, 1205.438
577.8187, 1204.479
578.3008, 1192.985
578.7830, 1181.887
579.2651, 1178.123
579.7472, 1180.754
580.2293, 1177.572
580.7114, 1167.445
581.1935, 1160.585
581.6757, 1169.996
582.1578, 1190.401
582.6399, 1210.395
583.1220, 1228.403
583.6041, 1242.208
584.0862, 1250.431
584.5684, 1252.783
585.0505, 1248.650
585.5326, 1225.271
586.0147, 1206.823
586.4968, 1208.347
586.9789, 1230.057
587.4611, 1244.245
587.9432, 1242.309
588.4253, 1236.390
588.9074, 1232.128
589.3895, 1230.512
589.8716, 1227.020
590.3538, 1219.039
590.8359, 1212.782
591.3180, 1218.275
591.8001, 1236.209
592.2822, 1251.664
592.7643, 1261.486
593.2465, 1266.260
593.7286, 1265.344
594.2107, 1259.504
594.6928, 1253.969
595.1749, 1251.039
595.6570, 1250.275
596.1392, 1251.517
596.6213, 1254.758
597.1034, 1258.846
597.5854, 1264.257
598.0676, 1269.664
598.5497, 1273.947
599.0318, 1277.099
599.5139, 1278.862
599.9960, 1278.503
600.4781, 1276.952
600.9603, 1275.427
601.4424, 1273.058
601.9245, 1272.229
602.4066, 1272.930
602.8887, 1275.590
603.3708, 1284.087
603.8530, 1299.644
604.3351, 1312.446
604.8172, 1313.410
605.2993, 1306.376
605.7814, 1307.329
606.2635, 1317.149
606.7457, 1327.313
607.2278, 1328.086
607.7099, 1324.736
608.1920, 1325.773
608.6741, 1336.502
609.1563, 1345.675
609.6384, 1344.707
610.1205, 1338.260
610.6026, 1334.568
611.0847, 1339.516
611.5668, 1343.379
612.0490, 1342.822
612.5311, 1338.451
613.0132, 1334.946
613.4953, 1331.010
613.9774, 1330.048
614.4595, 1334.718
614.9417, 1345.645
615.4238, 1353.860
615.9059, 1358.699
616.3880, 1363.474
616.8701, 1370.661
617.3522, 1380.639
617.8344, 1396.534
618.3165, 1422.733
618.7986, 1445.752
619.2807, 1448.336
619.7628, 1436.683
620.2449, 1424.151
620.7271, 1410.637
621.2092, 1403.153
621.6913, 1410.061
622.1734, 1428.979
622.6555, 1440.318
623.1376, 1430.298
623.6198, 1420.937
624.1019, 1422.615
624.5840, 1438.993
625.0661, 1449.234
625.5482, 1452.298
626.0303, 1450.945
626.5125, 1445.047
626.9946, 1434.438
627.4767, 1433.692
627.9588, 1447.681
628.4409, 1465.283
628.9230, 1467.738
629.4052, 1459.271
629.8873, 1453.993
630.3694, 1461.813
630.8515, 1472.302
631.3336, 1475.928
631.8157, 1474.129
632.2979, 1473.115
632.7800, 1477.211
633.2621, 1481.433
633.7442, 1483.746
634.2263, 1484.429
634.7084, 1480.358
635.1906, 1464.597
635.6727, 1450.864
636.1548, 1451.050
636.6369, 1471.337
637.1190, 1479.818
637.6011, 1471.037
638.0833, 1456.565
638.5654, 1456.790
639.0475, 1469.270
639.5296, 1472.742
640.0117, 1454.346
640.4938, 1431.124
640.9760, 1429.470
641.4581, 1443.922
641.9402, 1455.235
642.4223, 1452.969
642.9044, 1444.479
643.3865, 1432.694
643.8687, 1417.946
644.3508, 1404.986
644.8329, 1392.817
645.3150, 1384.753
645.7971, 1382.993
646.2792, 1390.708
646.7614, 1396.600
647.2435, 1401.677
647.7256, 1403.605
648.2077, 1397.414
648.6898, 1382.572
649.1719, 1373.732
649.6541, 1375.584
650.1362, 1380.509
650.6183, 1373.381
651.1004, 1357.940
651.5825, 1347.600
652.0646, 1354.871
652.5468, 1365.230
653.0289, 1365.642
653.5110, 1357.744
653.9931, 1351.189
654.4752, 1351.673
654.9573, 1352.694
655.4395, 1350.577
655.9216, 1344.052
656.4037, 1339.330
656.8858, 1336.782
657.3679, 1335.594
657.8500, 1336.083
658.3322, 1339.080
658.8143, 1336.955
659.2964, 1327.571
659.7785, 1317.208
660.2606, 1316.288
660.7427, 1322.461
661.2249, 1325.382
661.7070, 1319.351
662.1891, 1312.592
662.6712, 1313.780
663.1533, 1321.160
663.6354, 1330.212
664.1175, 1344.727
664.5996, 1355.135
665.0817, 1355.147
665.5638, 1345.074
666.0460, 1336.463
666.5281, 1329.073
667.0102, 1324.310
667.4923, 1322.470
667.9744, 1323.315
668.4565, 1331.261
668.9387, 1349.575
669.4208, 1364.774
669.9029, 1360.606
670.3850, 1341.209
670.8671, 1326.027
671.3492, 1317.840
671.8314, 1314.752
672.3135, 1317.326
672.7956, 1323.027
673.2777, 1327.653
673.7598, 1331.957
674.2419, 1332.272
674.7241, 1323.387
675.2062, 1309.209
675.6883, 1300.008
676.1704, 1295.787
676.6525, 1298.948
677.1346, 1313.870
677.6168, 1338.471
678.0989, 1351.060
678.5810, 1349.253
679.0631, 1344.859
679.5452, 1345.005
680.0273, 1348.608
680.5095, 1349.181
680.9916, 1346.506
681.4737, 1344.600
681.9558, 1347.936
682.4379, 1353.669
682.9200, 1358.117
683.4022, 1360.339
683.8843, 1362.012
684.3664, 1363.392
684.8485, 1364.892
685.3306, 1367.005
685.8127, 1370.598
686.2949, 1373.842
686.7770, 1377.338
687.2591, 1380.099
687.7412, 1378.720
688.2233, 1371.503
688.7054, 1369.784
689.1876, 1379.598
689.6697, 1395.114
690.1518, 1400.245
690.6339, 1396.228
691.1160, 1392.076
691.5981, 1394.707
692.0803, 1398.855
692.5624, 1397.582
693.0445, 1391.185
693.5266, 1388.223
694.0087, 1396.753
694.4908, 1406.555
694.9730, 1410.573
695.4551, 1404.985
695.9372, 1404.599
696.4193, 1412.680
696.9014, 1422.017
697.3835, 1425.265
697.8657, 1421.366
698.3478, 1422.326
698.8299, 1430.166
699.3120, 1440.501
699.7941, 1447.587
700.2762, 1452.168
700.7584, 1456.912
701.2405, 1465.654
701.7226, 1469.941
702.2047, 1457.041
702.6868, 1434.859
703.1689, 1420.049
703.6511, 1418.385
704.1332, 1424.237
704.6153, 1441.386
705.0974, 1466.182
705.5795, 1480.691
706.0616, 1479.956
706.5438, 1479.164
707.0259, 1485.324
707.5080, 1497.106
707.9901, 1502.730
708.4722, 1501.880
708.9543, 1501.946
709.4365, 1510.915
709.9186, 1523.667
710.4007, 1530.280
710.8828, 1529.600
711.3649, 1530.239
711.8470, 1540.502
712.3292, 1552.615
712.8113, 1559.634
713.2934, 1556.736
713.7755, 1556.062
714.2576, 1559.594
714.7397, 1564.986
715.2219, 1569.500
715.7040, 1572.118
716.1861, 1578.526
716.6682, 1590.581
717.1503, 1604.764
717.6324, 1615.282
718.1146, 1622.683
718.5967, 1629.973
719.0788, 1638.158
719.5609, 1646.783
720.0430, 1654.185
720.5251, 1661.484
721.0073, 1671.732
721.4894, 1690.671
721.9715, 1708.297
722.4536, 1718.067
722.9357, 1721.284
723.4178, 1730.656
723.9000, 1748.135
724.3821, 1768.291
724.8642, 1790.046
725.3463, 1812.945
725.8284, 1832.150
726.3105, 1847.818
726.7927, 1857.390
727.2748, 1850.224
727.7569, 1838.378
728.2390, 1846.027
728.7211, 1876.174
729.2032, 1907.820
729.6853, 1928.389
730.1674, 1944.266
730.6495, 1960.279
731.1317, 1974.628
731.6138, 1995.349
732.0959, 2028.786
732.5780, 2063.640
733.0601, 2087.866
733.5422, 2099.112
734.0244, 2111.797
734.5065, 2127.801
734.9886, 2145.630
735.4707, 2165.329
735.9528, 2185.404
736.4349, 2199.356
736.9171, 2199.751
737.3992, 2201.627
737.8813, 2220.254
738.3634, 2250.118
738.8455, 2279.443
739.3276, 2307.991
739.8098, 2331.882
740.2919, 2349.135
740.7740, 2360.832
741.2561, 2369.278
741.7382, 2372.530
742.2203, 2377.433
742.7025, 2386.542
743.1846, 2399.130
743.6667, 2412.888
744.1488, 2427.716
744.6309, 2441.850
745.1130, 2455.283
745.5952, 2466.431
746.0773, 2471.899
746.5594, 2471.972
747.0415, 2472.940
747.5236, 2481.341
748.0057, 2488.653
748.4879, 2488.692
748.9700, 2479.056
749.4521, 2472.677
749.9342, 2471.514
750.4163, 2470.489
750.8984, 2466.690
751.3806, 2460.140
751.8627, 2446.216
752.3448, 2423.344
752.8269, 2402.729
753.3090, 2398.093
753.7911, 2403.543
754.2733, 2410.079
754.7554, 2416.779
755.2375, 2421.413
755.7196, 2418.049
756.2017, 2414.154
756.6838, 2418.282
757.1660, 2443.316
757.6481, 2458.685
758.1302, 2456.852
758.6123, 2450.488
759.0944, 2459.461
759.5765, 2484.438
760.0587, 2513.425
760.5408, 2543.878
761.0229, 2576.450
761.5050, 2610.948
761.9871, 2649.019
762.4692, 2695.370
762.9514, 2756.383
763.4335, 2821.861
763.9156, 2878.589
764.3977, 2934.395
764.8798, 3012.211
765.3619, 3132.813
765.8441, 3256.042
766.3262, 3370.354
766.8083, 3481.594
767.2904, 3617.659
767.7725, 3780.560
768.2546, 3946.200
768.7368, 4090.101
769.2189, 4232.336
769.7010, 4418.869
770.1831, 4644.715
770.6652, 4881.389
771.1473, 5110.508
771.6295, 5346.775
772.1116, 5601.289
772.5937, 5875.037
773.0758, 6144.742
773.5579, 6395.538
774.0400, 6655.641
774.5222, 6944.677
775.0043, 7264.226
775.4864, 7552.270
775.9685, 7812.028
776.4506, 8025.909
776.9327, 8183.633
777.4149, 8287.195
777.8970, 8349.547
778.3791, 8371.549
778.8612, 8330.598
779.3433, 8190.701
779.8254, 7993.849
780.3076, 7770.661
780.7897, 7517.702
781.2718, 7260.525
781.7539, 6994.002
782.2360, 6730.410
782.7181, 6482.083
783.2003, 6248.413
783.6824, 6014.098
784.1645, 5774.720
784.6466, 5555.501
785.1287, 5387.006
785.6108, 5260.552
786.0930, 5158.266
786.5751, 5082.092
787.0572, 5006.297
787.5393, 4899.654
788.0214, 4791.726
788.5035, 4712.704
788.9857, 4688.458
789.4678, 4664.570
789.9499, 4635.901
790.4320, 4610.125
790.9141, 4594.912
791.3962, 4590.291
791.8784, 4599.371
792.3605, 4623.090
792.8426, 4659.350
793.3247, 4707.080
793.8068, 4765.171
794.2889, 4832.563
794.7711, 4908.817
795.2531, 4993.630
795.7352, 5081.383
796.2173, 5178.624
796.6995, 5298.358
797.1816, 5450.798
797.6637, 5607.977
798.1458, 5764.205
798.6279, 5928.536
799.1100, 6121.017
799.5922, 6340.785
800.0743, 6564.011
800.5564, 6779.287
801.0385, 6998.992
801.5206, 7240.335
802.0027, 7499.073
802.4849, 7765.671
802.9670, 8035.190
803.4491, 8312.969
803.9312, 8611.602
804.4133, 8919.419
804.8954, 9204.921
805.3776, 9456.266
805.8597, 9711.466
806.3418, 9986.964
806.8239, 10262.48
807.3060, 10476.91
807.7881, 10638.81
808.2703, 10823.53
808.7524, 11088.64
809.2345, 11367.77
809.7166, 11583.56
810.1987, 11754.46
810.6808, 11938.18
811.1630, 12143.49
811.6451, 12377.34
812.1272, 12629.11
812.6093, 12910.79
813.0914, 13271.98
813.5735, 13717.83
814.0557, 14225.73
814.5378, 14778.40
815.0199, 15390.64
815.5020, 16083.81
815.9841, 16858.27
816.4662, 17704.38
816.9484, 18604.59
817.4305, 19593.11
817.9126, 20680.66
818.3947, 21867.59
818.8768, 23124.74
819.3589, 24413.31
819.8411, 25799.79
820.3232, 27313.25
820.8053, 28946.00
821.2874, 30613.56
821.7695, 32314.59
822.2516, 34061.44
822.7338, 35885.81
823.2159, 37767.17
823.6980, 39690.64
824.1801, 41641.70
824.6622, 43476.93
825.1443, 45218.36
825.6265, 46765.80
826.1086, 48153.84
826.5907, 49341.43
827.0728, 50012.41
827.5549, 50143.58
828.0370, 49806.77
828.5192, 48985.17
829.0013, 47718.34
829.4834, 46178.13
829.9655, 44363.70
830.4476, 42488.63
830.9297, 40560.51
831.4119, 38688.57
831.8940, 36994.22
832.3761, 35447.37
832.8582, 33959.63
833.3403, 32487.38
833.8224, 31108.24
834.3046, 29870.41
834.7867, 28758.01
835.2688, 27668.03
835.7509, 26587.88
836.2330, 25545.75
836.7151, 24550.19
837.1973, 23607.26
837.6794, 22700.94
838.1615, 21830.88
838.6436, 20976.73
839.1257, 20104.97
839.6078, 19265.84
840.0900, 18482.54
840.5721, 17765.42
841.0542, 17097.68
841.5363, 16474.79
842.0184, 15910.66
842.5005, 15412.45
842.9827, 14975.85
843.4648, 14582.28
843.9469, 14231.96
844.4290, 13928.71
844.9111, 13685.16
845.3932, 13485.92
845.8754, 13311.96
846.3575, 13167.81
846.8396, 13070.46
847.3217, 13021.02
847.8038, 13027.23
848.2859, 13100.55
848.7681, 13229.64
849.2502, 13372.09
849.7323, 13521.58
850.2144, 13716.25
850.6965, 13973.03
851.1786, 14281.92
851.6608, 14634.63
852.1429, 15020.11
852.6250, 15420.52
853.1071, 15818.21
853.5892, 16236.83
854.0714, 16702.95
854.5535, 17200.60
855.0356, 17668.66
855.5177, 18116.73
855.9998, 18517.15
856.4819, 18874.61
856.9641, 19181.60
857.4462, 19453.31
857.9283, 19675.75
858.4104, 19702.46
858.8925, 19462.20
859.3746, 19017.29
859.8568, 18386.24
860.3389, 17600.11
860.8210, 16742.04
861.3030, 15758.34
861.7852, 14789.93
862.2673, 13836.06
862.7494, 12920.35
863.2315, 12059.78
863.7136, 11265.82
864.1957, 10551.85
864.6779, 9935.253
865.1600, 9389.764
865.6421, 8885.652
866.1242, 8428.253
866.6063, 8040.114
867.0884, 7755.779
867.5706, 7511.781
868.0527, 7294.953
868.5348, 7105.383
869.0169, 6936.167
869.4990, 6785.024
869.9811, 6664.468
870.4633, 6577.223
870.9454, 6516.200
871.4275, 6471.639
871.9096, 6444.091
872.3917, 6436.854
872.8738, 6453.003
873.3560, 6483.489
873.8381, 6521.480
874.3202, 6570.354
874.8023, 6633.404
875.2844, 6724.416
875.7665, 6811.514
876.2487, 6892.679
876.7308, 6972.516
877.2129, 7051.123
877.6950, 7130.013
878.1771, 7237.707
878.6592, 7381.517
879.1414, 7516.743
879.6235, 7598.095
880.1056, 7648.340
880.5877, 7695.338
881.0698, 7749.494
881.5519, 7779.935
882.0341, 7781.272
882.5162, 7755.683
882.9983, 7704.501
883.4804, 7628.465
883.9625, 7518.020
884.4446, 7371.613
884.9268, 7202.428
885.4089, 7021.220
885.8910, 6825.659
886.3731, 6597.027
886.8552, 6334.263
887.3373, 6084.455
887.8195, 5881.684
888.3016, 5685.338
888.7837, 5465.664
889.2658, 5221.246
889.7479, 5007.052
890.2300, 4830.382
890.7122, 4667.401
891.1943, 4501.969
891.6764, 4340.656
892.1585, 4207.275
892.6406, 4097.302
893.1227, 3986.798
893.6049, 3852.146
894.0870, 3725.750
894.5691, 3630.793
895.0512, 3563.751
895.5333, 3493.406
896.0154, 3418.349
896.4976, 3344.106
896.9797, 3268.975
897.4618, 3199.314
897.9439, 3163.139
898.4260, 3152.293
898.9081, 3134.599
899.3903, 3090.765
899.8724, 3038.899
900.3545, 2982.559
900.8366, 2926.545
901.3187, 2883.591
901.8008, 2857.166
902.2830, 2837.859
902.7651, 2828.304
903.2472, 2819.943
903.7293, 2793.197
904.2114, 2751.401
904.6935, 2717.744
905.1757, 2699.824
905.6578, 2686.125
906.1399, 2668.108
906.6220, 2648.064
907.1041, 2629.073
907.5862, 2614.956
908.0684, 2596.060
908.5505, 2569.342
909.0326, 2541.323
909.5147, 2519.060
909.9968, 2501.919
910.4789, 2483.224
910.9611, 2462.279
911.4432, 2440.571
911.9253, 2416.769
912.4074, 2394.512
912.8895, 2379.844
913.3716, 2376.569
913.8538, 2362.457
914.3359, 2321.680
914.8180, 2285.066
915.3001, 2274.625
915.7822, 2288.667
916.2643, 2273.728
916.7465, 2229.721
917.2286, 2186.613
917.7107, 2166.546
918.1928, 2157.241
918.6749, 2146.860
919.1570, 2135.139
919.6392, 2124.090
920.1213, 2121.488
920.6034, 2111.086
921.0855, 2086.383
921.5676, 2050.875
922.0497, 2014.796
922.5319, 1978.089
923.0140, 1949.756
923.4961, 1935.548
923.9782, 1929.092
924.4603, 1929.228
924.9424, 1930.395
925.4246, 1921.032
925.9067, 1881.235
926.3888, 1851.672
926.8708, 1845.655
927.3530, 1848.542
927.8351, 1837.204
928.3172, 1810.755
928.7993, 1788.768
929.2814, 1774.275
929.7635, 1764.536
930.2457, 1761.066
930.7278, 1758.595
931.2099, 1748.592
931.6920, 1725.402
932.1741, 1706.890
932.6563, 1703.764
933.1384, 1700.485
933.6205, 1684.755
934.1026, 1654.234
934.5847, 1635.583
935.0668, 1629.264
935.5490, 1628.858
936.0311, 1633.223
936.5132, 1638.219
936.9953, 1639.197
937.4774, 1635.893
937.9595, 1629.007
938.4417, 1616.101
938.9238, 1602.313
939.4059, 1588.309
939.8880, 1574.927
940.3701, 1568.605
940.8522, 1569.563
941.3344, 1564.888
941.8165, 1542.860
942.2986, 1518.946
942.7807, 1513.444
943.2628, 1520.358
943.7449, 1526.452
944.2271, 1530.485
944.7092, 1529.001
945.1913, 1517.319
945.6734, 1503.671
946.1555, 1504.335
946.6376, 1518.988
947.1198, 1521.897
947.6019, 1507.297
948.0840, 1487.247
948.5661, 1468.842
949.0482, 1455.046
949.5303, 1450.763
950.0125, 1460.706
950.4946, 1468.120
950.9767, 1473.104
951.4588, 1472.334
951.9409, 1461.510
952.4230, 1440.982
952.9052, 1423.821
953.3873, 1409.996
953.8694, 1402.222
954.3515, 1407.342
954.8336, 1415.484
955.3157, 1416.805
955.7979, 1412.021
956.2800, 1410.455
956.7621, 1421.470
957.2442, 1423.059
957.7263, 1404.487
958.2084, 1376.013
958.6906, 1368.677
959.1727, 1379.522
959.6548, 1388.573
960.1369, 1387.736
960.6190, 1383.462
961.1011, 1380.006
961.5833, 1376.759
962.0654, 1372.693
962.5475, 1363.271
963.0296, 1361.829
963.5117, 1372.885
963.9938, 1384.652
964.4760, 1381.437
964.9581, 1367.025
965.4402, 1357.226
965.9223, 1353.905
966.4044, 1351.436
966.8865, 1344.058
967.3687, 1337.524
967.8508, 1338.037
968.3329, 1346.866
968.8150, 1347.985
969.2971, 1338.915
969.7792, 1329.577
970.2614, 1323.942
970.7435, 1321.975
971.2256, 1326.100
971.7077, 1334.293
972.1898, 1338.859
972.6719, 1329.235
973.1541, 1322.391
973.6362, 1328.009
974.1183, 1340.741
974.6004, 1350.493
975.0825, 1357.995
975.5646, 1358.945
976.0468, 1351.670
976.5289, 1340.804
977.0110, 1329.146
977.4931, 1319.187
977.9752, 1316.077
978.4573, 1322.276
978.9395, 1328.962
979.4216, 1334.886
979.9037, 1338.530
980.3858, 1338.094
980.8679, 1333.316
981.3500, 1332.598
981.8322, 1336.135
982.3143, 1340.343
982.7964, 1344.295
983.2785, 1346.548
983.7606, 1343.028
984.2427, 1335.705
984.7249, 1332.952
985.2070, 1345.388
985.6891, 1351.167
986.1712, 1341.761
986.6533, 1327.063
987.1354, 1332.246
987.6176, 1354.169
988.0997, 1368.067
988.5818, 1365.455
989.0639, 1359.820
989.5460, 1365.389
990.0281, 1372.759
990.5103, 1369.931
990.9924, 1345.833
991.4745, 1336.345
991.9566, 1345.871
992.4387, 1359.668
992.9208, 1366.170
993.4029, 1367.608
993.8850, 1371.405
994.3671, 1377.598
994.8492, 1384.126
995.3314, 1392.036
995.8135, 1397.867
996.2956, 1399.328
996.7777, 1397.120
997.2598, 1391.625
997.7419, 1379.863
998.2241, 1381.979
998.7062, 1408.803
999.1883, 1440.553
999.6704, 1444.990
1000.153, 1433.623
1000.635, 1427.750
1001.117, 1436.042
1001.599, 1444.386
1002.081, 1450.456
1002.563, 1454.210
1003.045, 1454.593
1003.527, 1451.456
1004.009, 1452.067
1004.492, 1456.634
1004.974, 1459.737
1005.456, 1454.156
1005.938, 1447.693
1006.420, 1448.393
1006.902, 1455.571
1007.384, 1460.851
1007.866, 1463.025
1008.349, 1463.636
1008.831, 1462.573
1009.313, 1460.747
1009.795, 1461.313
1010.277, 1462.994
1010.759, 1460.781
1011.241, 1451.565
1011.723, 1442.323
1012.205, 1436.264
1012.688, 1432.554
1013.170, 1430.906
1013.652, 1432.985
1014.134, 1428.421
1014.616, 1415.526
1015.098, 1404.872
1015.580, 1409.987
1016.062, 1420.033
1016.544, 1415.443
1017.027, 1398.326
1017.509, 1385.393
1017.991, 1388.148
1018.473, 1389.371
1018.955, 1382.598
1019.437, 1372.416
1019.919, 1373.837
1020.401, 1385.182
1020.884, 1382.768
1021.366, 1356.204
1021.848, 1328.154
1022.330, 1317.678
1022.812, 1317.087
1023.294, 1318.748
1023.776, 1323.543
1024.258, 1324.101
1024.740, 1319.291
1025.223, 1313.274
1025.705, 1309.620
1026.187, 1306.826
1026.669, 1300.193
1027.151, 1290.299
1027.633, 1280.696
1028.115, 1271.940
1028.597, 1265.051
1029.079, 1259.887
1029.562, 1256.952
1030.044, 1258.588
1030.526, 1265.223
1031.008, 1269.635
1031.490, 1270.580
1031.972, 1268.207
1032.454, 1258.955
1032.936, 1248.485
1033.419, 1244.844
1033.901, 1252.296
1034.383, 1250.978
1034.865, 1232.047
1035.347, 1218.481
1035.829, 1227.251
1036.311, 1250.180
1036.793, 1255.339
1037.276, 1245.966
1037.758, 1237.065
1038.240, 1236.969
1038.722, 1238.273
1039.204, 1237.043
1039.686, 1235.246
1040.168, 1237.102
1040.650, 1244.201
1041.132, 1244.375
1041.615, 1235.121
1042.097, 1225.553
1042.579, 1227.310
1043.061, 1233.102
1043.543, 1233.130
1044.025, 1226.083
1044.507, 1220.803
1044.989, 1221.997
1045.471, 1219.815
1045.954, 1207.761
1046.436, 1191.536
1046.918, 1191.187
1047.400, 1203.544
1047.882, 1214.687
1048.364, 1219.761
1048.846, 1221.361
1049.328, 1219.158
1049.811, 1215.132
1050.293, 1211.042
1050.775, 1205.541
1051.257, 1208.150
1051.739, 1220.594
1052.221, 1230.228
1052.703, 1224.003
1053.185, 1210.393
1053.667, 1197.385
1054.150, 1186.280
1054.632, 1180.860
1055.114, 1185.813
1055.596, 1191.527
1056.078, 1196.426
1056.560, 1200.596
1057.042, 1206.321
1057.524, 1211.763
1058.006, 1207.027
1058.489, 1185.683
1058.971, 1171.893
1059.453, 1191.056
1059.935, 1214.966
1060.417, 1219.929
1060.899, 1204.410
1061.381, 1194.695
1061.863, 1191.220
1062.346, 1190.102
1062.828, 1187.916
1063.310, 1187.931
1063.792, 1198.302
1064.274, 1213.602
1064.756, 1221.156
1065.238, 1211.332
1065.720, 1202.406
1066.203, 1194.571
1066.685, 1189.572
1067.167, 1190.713
1067.649, 1196.350
1068.131, 1203.053
1068.613, 1210.369
1069.095, 1212.932
1069.577, 1200.500
1070.059, 1190.319
1070.542, 1193.439
1071.024, 1205.513
1071.506, 1208.911
1071.988, 1203.561
1072.470, 1195.004
1072.952, 1183.185
1073.434, 1173.609
1073.916, 1172.707
1074.398, 1177.045
1074.881, 1183.647
1075.363, 1196.768
1075.845, 1196.326
1076.327, 1177.841
1076.809, 1158.727
1077.291, 1151.294
1077.773, 1151.686
1078.255, 1152.237
1078.738, 1153.119
1079.220, 1155.150
1079.702, 1159.983
1080.184, 1164.335
1080.666, 1167.512
1081.148, 1169.879
1081.630, 1173.005
1082.112, 1176.308
1082.594, 1172.526
1083.077, 1160.237
1083.559, 1150.818
1084.041, 1154.661
1084.523, 1163.071
1085.005, 1173.486
1085.487, 1184.123
1085.969, 1179.535
1086.451, 1156.132
1086.933, 1139.835
1087.416, 1140.279
1087.898, 1149.793
1088.380, 1165.057
1088.862, 1180.031
1089.344, 1184.665
1089.826, 1170.060
1090.308, 1161.859
1090.790, 1165.125
1091.272, 1167.771
1091.755, 1158.630
1092.237, 1142.628
1092.719, 1137.344
1093.201, 1140.961
1093.683, 1145.248
1094.165, 1144.834
1094.647, 1146.352
1095.129, 1154.113
1095.612, 1163.400
1096.094, 1168.606
1096.576, 1169.696
1097.058, 1162.781
1097.540, 1146.786
1098.022, 1135.792
1098.504, 1146.777
1098.986, 1162.671
1099.469, 1170.099
1099.951, 1169.490
1100.433, 1173.529
1100.915, 1184.463
1101.397, 1188.026
1101.879, 1177.371
1102.361, 1163.775
1102.843, 1164.668
1103.325, 1171.412
1103.807, 1170.138
1104.290, 1153.235
1104.772, 1145.292
1105.254, 1151.391
1105.736, 1159.753
1106.218, 1165.108
1106.700, 1167.033
1107.182, 1161.251
1107.664, 1150.546
1108.147, 1144.406
1108.629, 1154.189
1109.111, 1160.021
1109.593, 1151.684
1110.075, 1140.994
1110.557, 1141.731
1111.039, 1152.938
1111.521, 1157.407
1112.004, 1154.256
1112.486, 1150.460
1112.968, 1149.986
1113.450, 1151.328
1113.932, 1154.820
1114.414, 1159.252
1114.896, 1160.597
1115.378, 1158.350
1115.860, 1157.123
1116.343, 1158.295
1116.825, 1158.532
1117.307, 1151.410
1117.789, 1143.081
1118.271, 1140.891
1118.753, 1146.443
1119.235, 1152.146
1119.717, 1159.355
1120.199, 1161.557
1120.682, 1153.560
1121.164, 1142.379
1121.646, 1142.543
1122.128, 1149.191
1122.610, 1152.188
1123.092, 1145.963
1123.574, 1141.696
1124.056, 1142.360
1124.539, 1143.233
1125.021, 1140.391
1125.503, 1134.881
1125.985, 1129.657
1126.467, 1125.822
1126.949, 1129.032
1127.431, 1157.332
1127.913, 1175.008
1128.396, 1159.615
1128.878, 1132.851
1129.360, 1120.213
1129.842, 1121.514
1130.324, 1128.686
1130.806, 1141.181
1131.288, 1152.583
1131.770, 1158.927
1132.252, 1161.520
1132.734, 1158.993
1133.217, 1153.366
1133.699, 1152.906
1134.181, 1158.811
1134.663, 1159.427
1135.145, 1150.971
1135.627, 1141.916
1136.109, 1139.333
1136.591, 1142.026
1137.074, 1151.192
1137.556, 1168.316
1138.038, 1174.730
1138.520, 1167.391
1139.002, 1159.151
1139.484, 1155.014
1139.966, 1153.226
1140.448, 1150.211
1140.931, 1147.796
1141.413, 1149.962
1141.895, 1162.040
1142.377, 1167.622
1142.859, 1163.211
1143.341, 1157.131
1143.823, 1155.095
1144.305, 1155.503
1144.787, 1152.623
1145.270, 1147.923
1145.752, 1146.492
1146.234, 1155.983
1146.716, 1161.156
1147.198, 1156.475
1147.680, 1149.878
1148.162, 1151.079
1148.644, 1158.043
1149.126, 1158.793
1149.609, 1153.115
1150.091, 1145.882
1150.573, 1136.641
1151.055, 1130.230
1151.537, 1130.149
1152.019, 1133.302
1152.501, 1132.693
1152.983, 1128.891
1153.466, 1134.765
1153.948, 1153.172
1154.430, 1167.023
1154.912, 1157.294
1155.394, 1143.938
1155.876, 1141.145
1156.358, 1147.135
1156.840, 1154.061
1157.322, 1162.160
1157.805, 1166.996
1158.287, 1167.513
1158.769, 1164.016
1159.251, 1150.576
1159.733, 1137.215
1160.215, 1135.984
1160.697, 1148.419
1161.179, 1161.219
1161.661, 1175.480
1162.144, 1182.270
1162.626, 1173.522
1163.108, 1161.362
1163.590, 1160.758
1164.072, 1166.881
1164.554, 1172.524
1165.036, 1177.534
1165.518, 1179.557
1166.000, 1178.940
1166.483, 1173.991
1166.965, 1156.316
1167.447, 1138.118
1167.929, 1145.170
1168.411, 1167.226
1168.893, 1178.668
1169.375, 1160.308
1169.857, 1151.603
1170.340, 1156.622
1170.822, 1165.225
1171.304, 1169.452
1171.786, 1169.495
1172.268, 1160.842
1172.750, 1146.787
1173.232, 1144.028
1173.714, 1175.120
1174.197, 1193.953
1174.679, 1191.400
1175.161, 1177.966
1175.643, 1163.642
1176.125, 1150.769
1176.607, 1146.309
1177.089, 1150.654
1177.571, 1155.909
1178.053, 1159.509
1178.536, 1162.715
1179.018, 1165.258
1179.500, 1168.281
1179.982, 1176.912
1180.464, 1187.828
1180.946, 1189.468
1181.428, 1178.485
1181.910, 1168.239
1182.392, 1165.364
1182.875, 1164.022
1183.357, 1162.423
1183.839, 1160.117
1184.321, 1151.441
1184.803, 1139.984
1185.285, 1143.524
1185.767, 1174.221
1186.249, 1197.385
1186.732, 1188.031
1187.214, 1172.973
1187.696, 1167.573
1188.178, 1170.609
1188.660, 1175.552
1189.142, 1181.851
1189.624, 1186.379
1190.106, 1188.954
1190.589, 1187.389
1191.071, 1174.852
1191.553, 1162.417
1192.035, 1160.216
1192.517, 1167.922
1192.999, 1170.977
1193.481, 1169.936
1193.963, 1170.334
1194.445, 1178.310
1194.927, 1184.997
1195.410, 1186.591
1195.892, 1183.815
1196.374, 1175.463
1196.856, 1161.274
1197.338, 1156.829
1197.820, 1162.305
1198.302, 1170.762
1198.784, 1182.723
1199.267, 1190.993
1199.749, 1188.617
1200.231, 1180.835
1200.713, 1175.729
1201.195, 1173.408
1201.677, 1170.851
1202.159, 1167.809
1202.641, 1164.594
1203.124, 1159.063
1203.606, 1155.819
1204.088, 1158.543
1204.570, 1165.783
1205.052, 1176.239
1205.534, 1190.236
1206.016, 1194.440
1206.498, 1186.391
1206.980, 1177.851
1207.463, 1179.191
1207.945, 1182.493
1208.427, 1181.085
1208.909, 1176.962
1209.391, 1177.702
1209.873, 1183.374
1210.355, 1184.999
1210.837, 1179.924
1211.319, 1175.693
1211.802, 1183.164
1212.284, 1190.193
1212.766, 1184.034
1213.248, 1168.464
1213.730, 1163.541
1214.212, 1169.299
1214.694, 1173.536
1215.176, 1173.135
1215.659, 1169.599
1216.141, 1157.297
1216.623, 1148.151
1217.105, 1155.723
1217.587, 1177.387
1218.069, 1186.224
1218.551, 1182.558
1219.033, 1180.661
1219.516, 1187.543
1219.998, 1192.923
1220.480, 1186.324
1220.962, 1176.365
1221.444, 1171.244
1221.926, 1170.878
1222.408, 1168.600
1222.890, 1164.476
1223.372, 1160.661
1223.854, 1157.637
1224.337, 1155.979
1224.819, 1155.418
1225.301, 1157.108
1225.783, 1162.535
1226.265, 1171.855
1226.747, 1180.003
1227.229, 1186.754
1227.711, 1187.823
1228.193, 1175.386
1228.676, 1164.350
1229.158, 1167.051
1229.640, 1173.342
1230.122, 1170.943
1230.604, 1159.326
1231.086, 1158.967
1231.568, 1169.046
1232.050, 1178.930
1232.533, 1183.827
1233.015, 1185.577
1233.497, 1182.563
1233.979, 1178.588
1234.461, 1178.602
1234.943, 1182.384
1235.425, 1180.360
1235.907, 1173.047
1236.390, 1167.739
1236.872, 1171.413
1237.354, 1174.884
1237.836, 1171.939
1238.318, 1168.258
1238.800, 1171.182
1239.282, 1179.717
1239.764, 1185.059
1240.246, 1186.700
1240.729, 1184.295
1241.211, 1170.776
1241.693, 1161.990
1242.175, 1165.532
1242.657, 1174.319
1243.139, 1181.699
1243.621, 1186.791
1244.103, 1181.465
1244.585, 1166.707
1245.068, 1157.318
1245.550, 1165.468
1246.032, 1174.513
1246.514, 1181.552
1246.996, 1184.824
1247.478, 1177.794
1247.960, 1165.283
1248.442, 1166.159
1248.925, 1180.280
1249.407, 1189.990
1249.889, 1182.252
1250.371, 1176.551
1250.853, 1176.918
1251.335, 1181.638
1251.817, 1193.604
1252.299, 1206.416
1252.781, 1199.918
1253.264, 1174.452
1253.746, 1161.656
1254.228, 1185.425
1254.710, 1198.312
1255.192, 1187.755
1255.674, 1171.060
1256.156, 1175.849
1256.638, 1190.682
1257.120, 1196.089
1257.603, 1190.456
1258.085, 1183.797
1258.567, 1174.325
1259.049, 1173.286
1259.531, 1185.707
1260.013, 1199.684
1260.495, 1195.983
1260.977, 1186.370
1261.460, 1188.720
1261.942, 1204.087
1262.424, 1209.698
1262.906, 1201.307
1263.388, 1196.372
1263.870, 1200.110
1264.352, 1203.900
1264.834, 1194.413
1265.317, 1182.031
1265.799, 1179.230
1266.281, 1186.191
1266.763, 1189.185
1267.245, 1187.754
1267.727, 1186.215
1268.209, 1185.470
1268.691, 1185.672
1269.173, 1189.401
1269.656, 1192.212
1270.138, 1187.445
1270.620, 1177.716
1271.102, 1177.351
1271.584, 1186.120
1272.066, 1193.200
1272.548, 1195.623
1273.030, 1197.361
1273.512, 1204.017
1273.995, 1208.031
1274.477, 1201.829
1274.959, 1190.065
1275.441, 1193.933
1275.923, 1209.636
1276.405, 1211.293
1276.887, 1189.878
1277.369, 1172.270
1277.852, 1175.166
1278.334, 1182.780
1278.816, 1189.365
1279.298, 1193.943
1279.780, 1190.913
1280.262, 1183.777
1280.744, 1185.011
1281.226, 1199.139
1281.708, 1208.726
1282.191, 1205.221
1282.673, 1201.239
1283.155, 1201.318
1283.637, 1203.018
1284.119, 1199.386
1284.601, 1194.475
1285.083, 1197.678
1285.565, 1212.836
1286.047, 1218.693
1286.530, 1210.180
1287.012, 1202.307
1287.494, 1201.065
1287.976, 1201.132
1288.458, 1190.294
1288.940, 1178.571
1289.422, 1182.888
1289.904, 1207.486
1290.386, 1213.370
1290.869, 1197.082
1291.351, 1184.615
1291.833, 1185.263
1292.315, 1189.888
1292.797, 1190.297
1293.279, 1189.367
1293.761, 1189.908
1294.243, 1191.823
1294.726, 1193.719
1295.208, 1195.638
1295.690, 1200.114
1296.172, 1209.970
1296.654, 1213.684
1297.136, 1191.583
1297.618, 1172.669
1298.100, 1178.000
1298.583, 1199.368
1299.065, 1206.521
1299.547, 1201.555
1300.029, 1191.597
1300.511, 1176.543
1300.993, 1166.944
1301.475, 1171.804
1301.957, 1178.358
1302.439, 1183.117
1302.922, 1185.482
1303.404, 1181.696
1303.886, 1175.244
1304.368, 1173.827
1304.850, 1179.511
1305.332, 1185.676
1305.814, 1191.209
1306.296, 1197.824
1306.778, 1207.561
1307.261, 1215.299
1307.743, 1211.954
1308.225, 1203.197
1308.707, 1195.606
1309.189, 1190.196
1309.671, 1186.560
1310.153, 1184.830
1310.635, 1184.555
1311.118, 1185.998
1311.600, 1187.349
1312.082, 1187.805
1312.564, 1186.626
##END=



