##NAMES=Allanpringite
##RRUFFID=R080147
##IDEAL CHEMISTRY=Fe^3+^_3_(PO_4_)_2_(OH)_3_&#183;5H_2_O
##LOCALITY=Mark mine, Essershausen, Weilburg, Wetzlar, Hesse, Germany
##OWNER=RRUFF
##SOURCE=Steffan Jahn
##DESCRIPTION=Bundles of acicular yellow crystals on matrix.
##STATUS=The identification of this mineral has been confirmed by single-crystal X-ray diffraction.
##URL=rruff.info/R080147
90.52570, 0.0000000E+00
91.00781, 35.66988
91.48993, 38.58820
91.97205, 39.75621
92.45416, 37.55609
92.93628, 33.67702
93.41840, 32.11034
93.90051, 34.14803
94.38263, 37.58032
94.86475, 38.53220
95.34686, 37.02907
95.82898, 35.50743
96.31110, 35.99133
96.79321, 38.32733
97.27533, 41.03829
97.75745, 44.13784
98.23956, 47.29930
98.72168, 48.76295
99.20380, 48.17941
99.68591, 46.95049
100.1680, 46.35159
100.6501, 46.31551
101.1323, 47.29538
101.6144, 49.71427
102.0965, 53.73435
102.5786, 57.12433
103.0607, 59.55782
103.5428, 61.67413
104.0250, 64.60165
104.5071, 68.54331
104.9892, 72.90925
105.4713, 77.28347
105.9534, 80.75938
106.4355, 86.22924
106.9177, 94.34197
107.3998, 104.4639
107.8819, 114.8912
108.3640, 124.5341
108.8461, 135.2326
109.3282, 148.0203
109.8104, 165.5217
110.2925, 181.8075
110.7746, 195.4597
111.2567, 206.9094
111.7388, 220.1427
112.2209, 236.9100
112.7031, 254.7139
113.1852, 272.0259
113.6673, 291.3241
114.1494, 307.2995
114.6315, 317.0597
115.1136, 320.4135
115.5958, 324.9862
116.0779, 333.1581
116.5600, 343.8262
117.0421, 355.7017
117.5242, 369.1017
118.0063, 383.1721
118.4885, 397.6460
118.9706, 412.5007
119.4527, 427.7198
119.9348, 443.0160
120.4169, 458.6055
120.8990, 475.1496
121.3812, 492.4567
121.8633, 511.0381
122.3454, 531.5618
122.8275, 554.9927
123.3096, 578.5233
123.7917, 600.2706
124.2739, 620.2252
124.7560, 638.3527
125.2381, 652.7145
125.7202, 665.5828
126.2023, 680.9132
126.6844, 700.9134
127.1666, 722.1871
127.6487, 739.0958
128.1308, 752.0076
128.6129, 765.5471
129.0950, 786.0975
129.5771, 811.2031
130.0593, 831.8195
130.5414, 843.0264
131.0235, 848.7649
131.5056, 858.5342
131.9877, 869.5541
132.4698, 877.4912
132.9520, 881.2601
133.4341, 881.2012
133.9162, 883.5289
134.3983, 891.1933
134.8804, 903.3617
135.3625, 913.9525
135.8447, 922.6269
136.3268, 930.8114
136.8089, 940.7645
137.2910, 952.8008
137.7731, 964.9555
138.2552, 976.0162
138.7374, 985.4416
139.2195, 998.1823
139.7016, 1015.752
140.1837, 1035.295
140.6658, 1049.984
141.1479, 1057.724
141.6301, 1065.760
142.1122, 1077.859
142.5943, 1096.098
143.0764, 1112.619
143.5585, 1126.346
144.0406, 1138.373
144.5228, 1153.401
145.0049, 1173.301
145.4870, 1193.670
145.9691, 1211.648
146.4512, 1224.512
146.9333, 1239.946
147.4155, 1259.872
147.8976, 1283.772
148.3797, 1304.715
148.8618, 1319.051
149.3439, 1333.301
149.8260, 1351.609
150.3082, 1378.225
150.7903, 1404.322
151.2724, 1428.951
151.7545, 1451.922
152.2366, 1476.390
152.7188, 1504.541
153.2009, 1533.212
153.6830, 1559.545
154.1651, 1581.868
154.6472, 1603.286
155.1293, 1624.410
155.6115, 1645.580
156.0936, 1664.712
156.5757, 1681.657
157.0578, 1696.431
157.5399, 1708.808
158.0220, 1717.832
158.5042, 1725.388
158.9863, 1732.048
159.4684, 1737.929
159.9505, 1743.003
160.4326, 1747.257
160.9147, 1750.717
161.3969, 1753.401
161.8790, 1756.212
162.3611, 1757.647
162.8432, 1756.549
163.3253, 1752.089
163.8074, 1747.248
164.2896, 1743.560
164.7717, 1740.418
165.2538, 1736.631
165.7359, 1731.126
166.2180, 1725.020
166.7001, 1718.977
167.1823, 1712.899
167.6644, 1707.467
168.1465, 1704.490
168.6286, 1702.777
169.1107, 1698.989
169.5928, 1689.268
170.0750, 1677.409
170.5571, 1667.245
171.0392, 1660.281
171.5213, 1654.367
172.0034, 1648.334
172.4855, 1642.045
172.9677, 1635.029
173.4498, 1626.162
173.9319, 1616.533
174.4140, 1607.761
174.8961, 1600.742
175.3782, 1594.196
175.8604, 1586.324
176.3425, 1577.238
176.8246, 1568.251
177.3067, 1560.100
177.7888, 1552.647
178.2709, 1545.811
178.7531, 1539.941
179.2352, 1534.279
179.7173, 1527.125
180.1994, 1518.529
180.6815, 1510.633
181.1636, 1505.197
181.6458, 1501.972
182.1279, 1500.461
182.6100, 1501.073
183.0921, 1503.021
183.5742, 1504.520
184.0563, 1505.488
184.5385, 1507.057
185.0206, 1510.373
185.5027, 1515.280
185.9848, 1520.910
186.4669, 1527.179
186.9490, 1533.914
187.4312, 1540.621
187.9133, 1547.057
188.3954, 1554.237
188.8775, 1563.757
189.3596, 1575.318
189.8417, 1586.558
190.3239, 1595.839
190.8060, 1603.860
191.2881, 1614.052
191.7702, 1626.677
192.2523, 1640.060
192.7344, 1652.339
193.2166, 1663.477
193.6987, 1674.037
194.1808, 1684.707
194.6629, 1695.307
195.1450, 1703.477
195.6271, 1708.369
196.1093, 1712.995
196.5914, 1722.171
197.0735, 1736.198
197.5556, 1750.899
198.0377, 1765.090
198.5198, 1778.894
199.0020, 1790.311
199.4841, 1798.962
199.9662, 1805.879
200.4483, 1812.581
200.9304, 1818.958
201.4125, 1825.713
201.8947, 1833.040
202.3768, 1840.907
202.8589, 1850.325
203.3410, 1862.588
203.8231, 1874.765
204.3052, 1880.418
204.7874, 1878.205
205.2695, 1875.385
205.7516, 1875.709
206.2337, 1879.985
206.7158, 1881.522
207.1979, 1879.009
207.6801, 1874.962
208.1622, 1875.414
208.6443, 1882.197
209.1264, 1887.837
209.6085, 1887.992
210.0906, 1880.779
210.5728, 1876.769
211.0549, 1876.594
211.5370, 1879.381
212.0191, 1883.446
212.5012, 1889.274
212.9833, 1895.302
213.4655, 1900.599
213.9476, 1904.765
214.4297, 1909.902
214.9118, 1916.380
215.3939, 1923.689
215.8760, 1930.537
216.3581, 1936.169
216.8403, 1942.764
217.3224, 1951.659
217.8045, 1964.116
218.2866, 1975.190
218.7687, 1984.900
219.2508, 1993.029
219.7330, 1998.310
220.2151, 1999.058
220.6972, 1999.934
221.1793, 2004.136
221.6614, 2015.477
222.1435, 2019.437
222.6257, 2013.496
223.1078, 2000.730
223.5899, 1989.745
224.0720, 1982.533
224.5541, 1973.885
225.0362, 1961.125
225.5184, 1943.319
226.0005, 1923.941
226.4826, 1902.289
226.9647, 1879.334
227.4468, 1857.115
227.9289, 1836.430
228.4111, 1815.590
228.8932, 1793.944
229.3753, 1771.847
229.8574, 1748.095
230.3395, 1721.361
230.8216, 1693.500
231.3038, 1669.313
231.7859, 1650.526
232.2680, 1633.100
232.7501, 1615.026
233.2322, 1594.807
233.7143, 1577.459
234.1965, 1564.018
234.6786, 1553.125
235.1607, 1540.615
235.6428, 1524.651
236.1249, 1509.687
236.6070, 1497.836
237.0892, 1490.521
237.5713, 1483.091
238.0534, 1475.200
238.5355, 1467.264
239.0176, 1460.360
239.4997, 1454.417
239.9819, 1449.474
240.4640, 1445.722
240.9461, 1443.755
241.4282, 1441.450
241.9103, 1438.291
242.3924, 1434.969
242.8746, 1433.420
243.3567, 1435.454
243.8388, 1436.529
244.3209, 1434.295
244.8030, 1426.366
245.2851, 1421.715
245.7673, 1421.471
246.2494, 1424.063
246.7315, 1426.237
247.2136, 1428.203
247.6957, 1429.434
248.1778, 1429.565
248.6600, 1428.069
249.1421, 1426.983
249.6242, 1425.870
250.1063, 1425.378
250.5884, 1426.813
251.0705, 1430.606
251.5527, 1435.602
252.0348, 1441.514
252.5169, 1448.720
252.9990, 1455.686
253.4811, 1462.703
253.9632, 1469.350
254.4454, 1474.578
254.9275, 1477.441
255.4096, 1480.737
255.8917, 1485.575
256.3738, 1492.363
256.8560, 1498.541
257.3381, 1503.440
257.8202, 1508.336
258.3023, 1515.458
258.7844, 1525.565
259.2665, 1536.122
259.7487, 1546.660
260.2308, 1557.305
260.7129, 1566.465
261.1950, 1573.228
261.6771, 1579.453
262.1592, 1587.277
262.6414, 1596.020
263.1235, 1608.004
263.6056, 1624.566
264.0877, 1646.254
264.5698, 1666.449
265.0519, 1684.732
265.5341, 1702.023
266.0162, 1719.351
266.4983, 1736.241
266.9804, 1754.275
267.4625, 1774.004
267.9446, 1795.255
268.4268, 1818.120
268.9089, 1842.515
269.3910, 1867.867
269.8731, 1893.714
270.3552, 1919.733
270.8373, 1946.936
271.3195, 1976.147
271.8016, 2007.021
272.2837, 2036.556
272.7658, 2063.876
273.2479, 2092.670
273.7300, 2127.977
274.2122, 2170.992
274.6943, 2212.208
275.1764, 2249.134
275.6585, 2282.579
276.1406, 2316.135
276.6227, 2349.289
277.1049, 2384.321
277.5870, 2424.022
278.0691, 2468.912
278.5512, 2512.641
279.0333, 2554.095
279.5154, 2593.772
279.9976, 2633.396
280.4797, 2673.269
280.9618, 2712.051
281.4439, 2749.153
281.9260, 2784.379
282.4081, 2820.759
282.8903, 2859.497
283.3724, 2898.662
283.8545, 2934.043
284.3366, 2965.623
284.8187, 2993.669
285.3008, 3017.978
285.7830, 3038.774
286.2651, 3055.894
286.7472, 3069.059
287.2293, 3079.336
287.7114, 3090.390
288.1935, 3102.151
288.6757, 3107.469
289.1578, 3099.524
289.6399, 3080.659
290.1220, 3064.146
290.6041, 3051.790
291.0862, 3038.095
291.5684, 3014.390
292.0505, 2981.258
292.5326, 2945.679
293.0147, 2911.138
293.4968, 2876.728
293.9789, 2838.530
294.4611, 2796.724
294.9432, 2751.767
295.4253, 2701.885
295.9074, 2648.386
296.3895, 2598.153
296.8716, 2555.980
297.3538, 2518.154
297.8359, 2476.938
298.3180, 2431.902
298.8001, 2385.460
299.2822, 2337.719
299.7643, 2289.544
300.2465, 2243.961
300.7286, 2202.938
301.2107, 2164.561
301.6928, 2125.709
302.1749, 2086.772
302.6570, 2048.353
303.1392, 2010.921
303.6213, 1974.602
304.1034, 1940.588
304.5855, 1909.487
305.0676, 1879.994
305.5497, 1849.900
306.0319, 1819.602
306.5140, 1789.587
306.9961, 1760.014
307.4782, 1731.397
307.9603, 1703.827
308.4424, 1677.091
308.9246, 1652.278
309.4067, 1631.110
309.8888, 1612.775
310.3709, 1594.567
310.8530, 1574.726
311.3351, 1554.746
311.8173, 1535.817
312.2994, 1517.804
312.7815, 1501.190
313.2636, 1487.994
313.7457, 1476.420
314.2278, 1463.110
314.7100, 1443.279
315.1921, 1423.891
315.6742, 1409.965
316.1563, 1402.973
316.6384, 1395.577
317.1205, 1383.461
317.6027, 1369.616
318.0848, 1357.896
318.5669, 1352.202
319.0490, 1346.445
319.5311, 1337.168
320.0132, 1324.004
320.4954, 1313.338
320.9775, 1309.289
321.4596, 1307.443
321.9417, 1304.126
322.4238, 1296.245
322.9059, 1289.244
323.3881, 1284.747
323.8702, 1282.602
324.3523, 1280.199
324.8344, 1276.136
325.3165, 1272.407
325.7986, 1270.155
326.2808, 1271.780
326.7629, 1272.185
327.2450, 1270.036
327.7271, 1266.169
328.2092, 1263.875
328.6913, 1264.579
329.1735, 1265.629
329.6556, 1265.934
330.1377, 1264.659
330.6198, 1264.205
331.1019, 1264.779
331.5840, 1266.089
332.0662, 1267.709
332.5483, 1270.316
333.0304, 1272.203
333.5125, 1272.480
333.9946, 1270.596
334.4767, 1269.949
334.9589, 1270.638
335.4410, 1272.455
335.9231, 1275.197
336.4052, 1278.916
336.8873, 1283.431
337.3694, 1288.973
337.8515, 1295.436
338.3336, 1301.369
338.8158, 1307.092
339.2979, 1311.683
339.7800, 1313.805
340.2621, 1312.944
340.7442, 1313.190
341.2263, 1315.255
341.7085, 1318.914
342.1906, 1323.348
342.6727, 1328.593
343.1548, 1334.638
343.6369, 1342.538
344.1190, 1351.970
344.6012, 1358.351
345.0833, 1360.289
345.5654, 1360.597
346.0475, 1364.012
346.5296, 1370.401
347.0117, 1378.309
347.4939, 1388.144
347.9760, 1398.876
348.4581, 1407.119
348.9402, 1412.431
349.4223, 1416.688
349.9044, 1422.661
350.3866, 1429.590
350.8687, 1434.914
351.3508, 1435.341
351.8329, 1434.585
352.3150, 1439.672
352.7971, 1450.443
353.2793, 1460.548
353.7614, 1464.117
354.2435, 1464.038
354.7256, 1465.148
355.2077, 1469.985
355.6898, 1475.052
356.1720, 1476.480
356.6541, 1475.171
357.1362, 1474.999
357.6183, 1479.867
358.1004, 1485.980
358.5826, 1489.945
359.0647, 1490.844
359.5468, 1490.277
360.0289, 1488.467
360.5110, 1485.833
360.9931, 1483.164
361.4753, 1482.027
361.9574, 1479.966
362.4395, 1475.542
362.9216, 1468.374
363.4037, 1460.524
363.8858, 1451.772
364.3680, 1442.990
364.8501, 1435.068
365.3322, 1431.351
365.8143, 1425.424
366.2964, 1414.993
366.7785, 1400.097
367.2607, 1385.481
367.7428, 1370.308
368.2249, 1356.313
368.7070, 1344.579
369.1891, 1338.767
369.6712, 1330.457
370.1534, 1318.504
370.6355, 1303.804
371.1176, 1289.009
371.5997, 1272.894
372.0818, 1258.182
372.5639, 1245.931
373.0461, 1236.578
373.5282, 1228.038
374.0103, 1220.363
374.4924, 1213.232
374.9745, 1206.370
375.4566, 1199.888
375.9388, 1193.110
376.4209, 1185.460
376.9030, 1177.040
377.3851, 1171.321
377.8672, 1168.939
378.3493, 1167.107
378.8315, 1162.943
379.3136, 1156.382
379.7957, 1150.381
380.2778, 1145.273
380.7599, 1141.222
381.2420, 1138.547
381.7242, 1137.287
382.2063, 1137.020
382.6884, 1137.360
383.1705, 1138.449
383.6526, 1141.338
384.1347, 1146.579
384.6169, 1151.639
385.0990, 1152.712
385.5811, 1150.726
386.0632, 1148.653
386.5453, 1146.636
387.0274, 1145.886
387.5096, 1149.051
387.9917, 1156.086
388.4738, 1162.917
388.9559, 1165.516
389.4380, 1166.151
389.9201, 1167.882
390.4023, 1172.557
390.8844, 1177.597
391.3665, 1181.185
391.8486, 1183.693
392.3307, 1186.342
392.8128, 1188.389
393.2950, 1191.647
393.7771, 1198.077
394.2592, 1209.943
394.7413, 1219.593
395.2234, 1222.754
395.7055, 1222.433
396.1877, 1223.287
396.6698, 1227.380
397.1519, 1231.794
397.6340, 1235.727
398.1161, 1239.107
398.5982, 1242.404
399.0804, 1246.789
399.5625, 1250.440
400.0446, 1251.907
400.5267, 1248.218
401.0088, 1246.831
401.4909, 1249.408
401.9731, 1254.875
402.4552, 1258.895
402.9373, 1261.372
403.4194, 1262.581
403.9015, 1262.348
404.3836, 1260.100
404.8658, 1258.773
405.3479, 1258.764
405.8300, 1259.121
406.3121, 1258.261
406.7942, 1255.964
407.2763, 1253.846
407.7585, 1252.437
408.2406, 1251.609
408.7227, 1250.844
409.2048, 1250.165
409.6869, 1249.287
410.1690, 1248.152
410.6512, 1246.670
411.1333, 1244.230
411.6154, 1240.450
412.0975, 1236.166
412.5796, 1232.648
413.0617, 1229.758
413.5439, 1226.719
414.0260, 1222.776
414.5081, 1218.510
414.9902, 1215.585
415.4723, 1214.420
415.9544, 1211.263
416.4366, 1200.910
416.9187, 1187.085
417.4008, 1175.403
417.8829, 1170.002
418.3650, 1165.509
418.8471, 1158.620
419.3293, 1149.731
419.8114, 1140.921
420.2935, 1134.288
420.7756, 1127.292
421.2577, 1118.048
421.7398, 1103.839
422.2220, 1091.805
422.7041, 1086.113
423.1862, 1083.134
423.6683, 1076.326
424.1504, 1061.076
424.6325, 1045.576
425.1147, 1032.060
425.5968, 1020.532
426.0789, 1009.344
426.5610, 998.0424
427.0431, 987.4825
427.5252, 978.6784
428.0074, 972.6939
428.4895, 965.9515
428.9716, 957.9539
429.4537, 949.0674
429.9358, 940.4373
430.4179, 932.0013
430.9001, 924.0938
431.3822, 917.2497
431.8643, 911.4946
432.3464, 904.8666
432.8285, 897.1234
433.3106, 889.2910
433.7928, 882.8486
434.2749, 877.6317
434.7570, 872.1849
435.2391, 865.6891
435.7212, 858.9879
436.2033, 853.7813
436.6855, 850.0309
437.1676, 846.8547
437.6497, 844.0430
438.1318, 841.3013
438.6139, 838.0247
439.0960, 833.9118
439.5782, 830.0240
440.0603, 827.2413
440.5424, 825.2920
441.0245, 823.7073
441.5066, 821.5802
441.9887, 820.3048
442.4709, 821.3351
442.9530, 824.5779
443.4351, 827.0735
443.9172, 827.5975
444.3993, 826.9763
444.8814, 825.7080
445.3636, 821.7403
445.8457, 819.9872
446.3278, 822.5892
446.8099, 827.8781
447.2920, 831.7900
447.7741, 833.8675
448.2563, 834.9725
448.7384, 834.9815
449.2205, 833.6199
449.7026, 833.4532
450.1847, 834.8992
450.6668, 837.0314
451.1490, 838.8373
451.6311, 839.9426
452.1132, 842.2773
452.5953, 846.3099
453.0774, 851.6254
453.5595, 857.7178
454.0417, 864.7594
454.5238, 871.1334
455.0059, 875.9241
455.4880, 879.2750
455.9701, 881.5324
456.4522, 882.3549
456.9344, 884.3350
457.4165, 891.6397
457.8986, 902.5052
458.3807, 911.6382
458.8628, 916.2449
459.3449, 919.7341
459.8271, 926.2026
460.3092, 935.1155
460.7913, 944.2617
461.2734, 953.2818
461.7555, 961.3835
462.2376, 967.5598
462.7198, 971.1083
463.2019, 975.1376
463.6840, 981.2289
464.1661, 988.5154
464.6482, 995.9484
465.1303, 1005.366
465.6125, 1012.676
466.0946, 1015.291
466.5767, 1013.913
467.0588, 1014.918
467.5409, 1021.059
468.0230, 1027.665
468.5052, 1032.634
468.9873, 1035.006
469.4694, 1038.235
469.9515, 1042.953
470.4336, 1047.986
470.9157, 1051.706
471.3979, 1053.859
471.8800, 1055.471
472.3621, 1056.549
472.8442, 1057.316
473.3263, 1058.701
473.8084, 1060.646
474.2906, 1063.641
474.7727, 1068.933
475.2548, 1075.833
475.7369, 1080.807
476.2190, 1083.233
476.7011, 1084.778
477.1833, 1087.519
477.6654, 1091.053
478.1475, 1094.263
478.6296, 1095.664
479.1117, 1097.230
479.5938, 1101.463
480.0760, 1108.014
480.5581, 1114.376
481.0402, 1118.740
481.5223, 1122.607
482.0044, 1127.344
482.4865, 1133.634
482.9687, 1139.488
483.4508, 1143.488
483.9329, 1146.860
484.4150, 1151.292
484.8971, 1159.161
485.3792, 1165.962
485.8614, 1169.923
486.3435, 1171.330
486.8256, 1174.436
487.3077, 1180.318
487.7898, 1186.582
488.2719, 1191.907
488.7541, 1195.710
489.2362, 1200.407
489.7183, 1206.875
490.2004, 1213.095
490.6825, 1215.482
491.1646, 1213.583
491.6468, 1212.620
492.1289, 1215.071
492.6110, 1219.043
493.0931, 1218.279
493.5752, 1212.829
494.0573, 1207.462
494.5395, 1206.246
495.0216, 1207.443
495.5037, 1207.376
495.9858, 1205.516
496.4679, 1202.992
496.9500, 1201.617
497.4322, 1200.165
497.9143, 1196.619
498.3964, 1188.266
498.8785, 1179.337
499.3606, 1172.645
499.8427, 1167.582
500.3249, 1161.727
500.8070, 1153.481
501.2891, 1144.753
501.7712, 1136.809
502.2533, 1130.602
502.7354, 1122.846
503.2176, 1111.104
503.6997, 1098.876
504.1818, 1089.844
504.6639, 1085.940
505.1460, 1081.619
505.6281, 1076.032
506.1103, 1069.415
506.5924, 1063.143
507.0745, 1057.606
507.5566, 1051.004
508.0387, 1041.735
508.5208, 1029.999
509.0030, 1019.977
509.4851, 1011.849
509.9672, 1004.460
510.4493, 996.3233
510.9314, 987.8726
511.4135, 980.5671
511.8957, 974.9988
512.3778, 970.5179
512.8599, 967.4983
513.3420, 965.1637
513.8242, 961.2306
514.3063, 951.7209
514.7884, 942.0712
515.2705, 937.4079
515.7526, 938.1133
516.2347, 937.8185
516.7169, 933.4824
517.1990, 927.4399
517.6811, 921.4238
518.1632, 915.2383
518.6453, 909.7153
519.1274, 905.1731
519.6096, 901.2667
520.0917, 897.4559
520.5738, 893.6823
521.0559, 890.0837
521.5380, 886.5432
522.0201, 883.1116
522.5023, 881.0463
522.9844, 881.0344
523.4665, 880.4212
523.9486, 876.5863
524.4307, 869.7427
524.9128, 864.6296
525.3950, 861.8000
525.8771, 860.2755
526.3592, 859.4959
526.8413, 859.1032
527.3234, 857.7137
527.8055, 854.2171
528.2877, 850.0701
528.7698, 846.9244
529.2519, 844.6060
529.7340, 842.2629
530.2161, 839.3013
530.6982, 836.2236
531.1804, 833.3433
531.6625, 830.7696
532.1446, 828.3255
532.6267, 825.3727
533.1088, 822.8495
533.5909, 821.6666
534.0731, 823.4916
534.5552, 824.7553
535.0373, 825.1394
535.5194, 824.8177
536.0015, 824.1614
536.4836, 822.9553
536.9658, 821.7919
537.4479, 820.3754
537.9300, 818.8198
538.4121, 820.8651
538.8942, 827.4408
539.3763, 833.6185
539.8585, 833.8448
540.3406, 829.4568
540.8227, 828.5363
541.3048, 832.6334
541.7869, 838.4198
542.2690, 842.8090
542.7512, 845.6806
543.2333, 846.6931
543.7154, 842.9370
544.1975, 839.5809
544.6796, 842.4088
545.1617, 849.8925
545.6439, 855.1863
546.1260, 852.3195
546.6081, 848.5089
547.0902, 848.1500
547.5723, 852.5267
548.0544, 856.9583
548.5366, 862.4069
549.0187, 866.7316
549.5008, 867.8525
549.9829, 862.7202
550.4650, 860.0695
550.9471, 861.6100
551.4293, 865.5211
551.9114, 867.4846
552.3935, 867.1502
552.8756, 866.5342
553.3577, 866.0310
553.8398, 865.8707
554.3220, 867.6508
554.8041, 871.4557
555.2862, 874.9262
555.7683, 876.1107
556.2504, 875.6816
556.7325, 875.0291
557.2147, 874.3766
557.6968, 873.2652
558.1789, 871.2817
558.6610, 868.5823
559.1431, 865.4215
559.6252, 860.9656
560.1074, 857.0134
560.5895, 854.5943
561.0716, 853.2930
561.5537, 851.7760
562.0358, 849.1360
562.5179, 846.8440
563.0001, 845.7719
563.4822, 846.1714
563.9643, 844.9709
564.4464, 840.9568
564.9285, 837.0563
565.4106, 835.7458
565.8928, 837.5511
566.3749, 838.4114
566.8570, 837.8363
567.3391, 836.6569
567.8212, 835.8934
568.3033, 835.5707
568.7855, 835.9678
569.2676, 837.5468
569.7497, 839.5191
570.2318, 840.7218
570.7139, 841.2659
571.1960, 841.7418
571.6782, 841.9504
572.1603, 842.5861
572.6424, 844.2169
573.1245, 846.9225
573.6066, 850.2897
574.0887, 854.4349
574.5709, 859.0477
575.0530, 863.9358
575.5351, 869.6952
576.0172, 874.9271
576.4993, 879.6565
576.9814, 883.8370
577.4636, 887.0260
577.9457, 888.3180
578.4278, 891.0740
578.9099, 896.3334
579.3920, 903.5000
579.8741, 910.2950
580.3563, 916.6115
580.8384, 923.6029
581.3205, 933.1602
581.8026, 943.9294
582.2847, 951.2331
582.7668, 954.9289
583.2490, 957.5685
583.7311, 960.5870
584.2131, 964.0746
584.6953, 968.2791
585.1774, 973.4871
585.6595, 978.8034
586.1416, 984.1747
586.6237, 989.2468
587.1058, 993.5726
587.5880, 995.8405
588.0701, 998.6776
588.5522, 1003.695
589.0343, 1010.065
589.5164, 1013.782
589.9985, 1013.803
590.4807, 1012.895
590.9628, 1012.016
591.4449, 1011.158
591.9270, 1010.477
592.4091, 1010.004
592.8912, 1009.531
593.3734, 1008.565
593.8555, 1007.347
594.3376, 1007.315
594.8197, 1008.969
595.3018, 1010.568
595.7839, 1010.574
596.2661, 1009.113
596.7482, 1006.356
597.2303, 999.6790
597.7124, 994.5131
598.1945, 995.7220
598.6766, 1001.183
599.1588, 1004.706
599.6409, 1004.076
600.1230, 1001.554
600.6051, 997.1276
601.0872, 990.6595
601.5693, 986.1025
602.0515, 984.3123
602.5336, 983.3073
603.0157, 982.0064
603.4978, 980.4184
603.9799, 978.2204
604.4620, 975.1918
604.9442, 972.0636
605.4263, 970.3568
605.9084, 969.6166
606.3905, 967.2299
606.8726, 962.0124
607.3547, 955.9355
607.8369, 951.7008
608.3190, 948.5496
608.8011, 944.4203
609.2832, 937.5382
609.7653, 930.0847
610.2474, 923.2243
610.7296, 916.9138
611.2117, 911.0281
611.6938, 907.1299
612.1759, 902.2025
612.6580, 894.1308
613.1401, 881.5213
613.6223, 871.8018
614.1044, 866.6275
614.5865, 862.2592
615.0686, 855.5484
615.5507, 846.3195
616.0328, 836.5247
616.5150, 826.2307
616.9971, 815.9102
617.4792, 806.5106
617.9613, 797.8012
618.4434, 788.6254
618.9255, 778.2644
619.4077, 767.7176
619.8898, 758.2081
620.3719, 749.4336
620.8540, 740.2696
621.3361, 728.5930
621.8182, 717.8314
622.3004, 710.7203
622.7825, 707.3235
623.2646, 702.6450
623.7467, 694.4755
624.2288, 685.8647
624.7109, 678.4695
625.1931, 672.9669
625.6752, 665.9606
626.1573, 656.3888
626.6394, 646.9706
627.1215, 641.0452
627.6036, 638.6702
628.0858, 635.3766
628.5679, 630.2712
629.0500, 624.5250
629.5321, 620.0535
630.0142, 616.4642
630.4963, 612.6456
630.9785, 607.7266
631.4606, 602.7785
631.9427, 599.3121
632.4248, 596.6981
632.9069, 592.8951
633.3890, 585.2766
633.8712, 577.9573
634.3533, 572.9149
634.8354, 570.4094
635.3175, 567.8666
635.7996, 565.2760
636.2817, 562.5219
636.7639, 559.4385
637.2460, 555.9184
637.7281, 552.7101
638.2102, 549.8944
638.6923, 547.0790
639.1744, 543.6406
639.6566, 539.7535
640.1387, 536.3195
640.6208, 533.6519
641.1029, 531.2448
641.5850, 528.2386
642.0671, 525.1262
642.5493, 522.8240
643.0314, 523.1411
643.5135, 523.0236
643.9956, 520.5743
644.4777, 516.3962
644.9598, 512.3488
645.4420, 508.5250
645.9241, 505.2655
646.4062, 502.6540
646.8883, 500.6996
647.3704, 499.4848
647.8525, 499.3688
648.3347, 499.2232
648.8168, 498.4257
649.2989, 496.9771
649.7810, 495.2343
650.2631, 493.2022
650.7452, 490.8819
651.2274, 487.8843
651.7095, 484.6916
652.1916, 482.2761
652.6737, 480.9204
653.1558, 480.1079
653.6379, 480.2061
654.1201, 480.3633
654.6022, 479.4641
655.0843, 475.5205
655.5664, 472.4032
656.0485, 471.2980
656.5306, 471.6245
657.0128, 472.0491
657.4949, 472.8756
657.9770, 473.2307
658.4591, 472.8979
658.9412, 471.9282
659.4233, 470.3574
659.9055, 468.1107
660.3876, 466.0483
660.8697, 464.8539
661.3518, 464.1388
661.8339, 462.9540
662.3160, 461.3121
662.7982, 459.4654
663.2803, 457.1140
663.7624, 454.9223
664.2445, 453.5617
664.7266, 453.1549
665.2087, 453.2807
665.6909, 454.6687
666.1730, 456.0150
666.6551, 456.1620
667.1372, 454.0524
667.6193, 452.5728
668.1014, 451.9346
668.5836, 451.7301
669.0657, 451.4385
669.5478, 451.0526
670.0299, 450.7469
670.5120, 450.7041
670.9941, 450.4999
671.4763, 449.0871
671.9584, 446.7803
672.4405, 444.7801
672.9226, 443.5142
673.4047, 442.8612
673.8868, 443.1839
674.3690, 444.1334
674.8511, 444.4785
675.3332, 442.9805
675.8153, 441.4869
676.2974, 440.9628
676.7795, 441.4810
677.2617, 441.2721
677.7438, 439.6191
678.2259, 438.3287
678.7080, 438.6820
679.1901, 440.8627
679.6722, 441.4856
680.1544, 440.4303
680.6365, 438.5992
681.1186, 436.1364
681.6007, 433.5955
682.0828, 432.5789
682.5649, 433.5438
683.0471, 434.7250
683.5292, 434.1581
684.0113, 433.1561
684.4934, 433.3891
684.9755, 436.6883
685.4576, 439.1077
685.9398, 439.1916
686.4219, 437.9341
686.9040, 437.1024
687.3861, 437.3662
687.8682, 436.5394
688.3503, 433.5298
688.8325, 429.7720
689.3146, 429.8601
689.7967, 433.8706
690.2788, 436.2938
690.7609, 433.5353
691.2430, 428.8309
691.7252, 428.3820
692.2073, 431.4026
692.6894, 434.3618
693.1715, 435.9532
693.6536, 436.1637
694.1357, 434.0997
694.6179, 429.9064
695.1000, 427.2568
695.5821, 427.8402
696.0642, 429.4976
696.5463, 431.3022
697.0284, 433.2643
697.5106, 435.5565
697.9927, 438.7780
698.4748, 440.9402
698.9569, 439.7835
699.4390, 435.7612
699.9211, 432.6548
700.4033, 430.8134
700.8854, 429.3050
701.3675, 426.9542
701.8496, 424.3891
702.3317, 422.5036
702.8138, 421.3629
703.2960, 421.3695
703.7781, 424.0648
704.2602, 427.5088
704.7423, 429.3255
705.2244, 427.8417
705.7065, 426.2701
706.1887, 424.4826
706.6708, 422.9134
707.1529, 422.4604
707.6350, 423.3185
708.1171, 424.1514
708.5992, 424.7888
709.0814, 424.9800
709.5635, 423.5101
710.0456, 420.8737
710.5277, 419.4419
711.0098, 422.1571
711.4919, 425.1945
711.9741, 424.5245
712.4562, 421.1025
712.9383, 418.7800
713.4204, 420.5177
713.9025, 422.1613
714.3846, 421.1946
714.8668, 417.8257
715.3489, 417.3159
715.8310, 421.2798
716.3131, 424.8647
716.7952, 425.2850
717.2773, 422.8034
717.7595, 421.1895
718.2416, 420.4799
718.7237, 420.1599
719.2058, 419.8211
719.6879, 419.5966
720.1700, 420.0783
720.6522, 421.4154
721.1343, 421.7249
721.6164, 418.2650
722.0985, 414.3623
722.5806, 412.8136
723.0627, 415.3628
723.5449, 417.2821
724.0270, 418.4643
724.5091, 418.8503
724.9912, 418.1205
725.4733, 415.9316
725.9554, 414.6584
726.4376, 414.6223
726.9197, 415.1661
727.4018, 415.6733
727.8839, 416.0479
728.3660, 415.8026
728.8481, 414.3291
729.3303, 413.3668
729.8124, 415.4913
730.2945, 418.8176
730.7766, 420.4478
731.2587, 417.3266
731.7408, 415.0112
732.2230, 415.7314
732.7051, 417.8109
733.1872, 417.9940
733.6693, 415.4264
734.1514, 413.4459
734.6335, 412.9613
735.1157, 413.4282
735.5978, 413.5459
736.0799, 413.3456
736.5620, 413.0774
737.0441, 412.8896
737.5262, 412.6719
738.0084, 412.3380
738.4905, 411.8732
738.9726, 411.2227
739.4547, 409.5807
739.9368, 408.4972
740.4189, 408.8432
740.9011, 410.5817
741.3832, 412.3983
741.8653, 415.1548
742.3474, 416.3427
742.8295, 414.0082
743.3116, 408.8927
743.7938, 407.7104
744.2759, 410.5748
744.7580, 413.5543
745.2401, 413.6806
745.7222, 412.2848
746.2043, 411.0712
746.6865, 410.1604
747.1686, 410.0540
747.6507, 412.1267
748.1328, 414.2654
748.6149, 414.8896
749.0970, 413.4044
749.5792, 412.5580
750.0613, 412.7679
750.5434, 413.2162
751.0255, 413.5449
751.5076, 413.8082
751.9897, 413.1026
752.4719, 411.2536
752.9540, 409.3129
753.4361, 408.1884
753.9182, 407.6722
754.4003, 407.2420
754.8824, 406.7759
755.3646, 406.8531
755.8467, 408.8023
756.3288, 410.9541
756.8109, 411.5736
757.2930, 409.1328
757.7751, 407.8268
758.2573, 408.4959
758.7394, 409.7850
759.2215, 410.4066
759.7036, 410.2653
760.1857, 410.1504
760.6678, 410.1144
761.1500, 410.1842
761.6321, 410.5202
762.1142, 410.9803
762.5963, 411.1899
763.0784, 410.9771
763.5605, 410.7173
764.0427, 410.7003
764.5248, 410.7787
765.0069, 410.7687
765.4890, 410.9918
765.9711, 410.5911
766.4532, 409.0002
766.9354, 407.1255
767.4175, 406.2639
767.8996, 406.5067
768.3817, 407.3402
768.8638, 408.8874
769.3459, 410.5090
769.8281, 411.1021
770.3102, 410.9041
770.7923, 410.6081
771.2744, 410.4827
771.7565, 410.2831
772.2386, 409.2366
772.7208, 408.1190
773.2029, 408.2820
773.6850, 412.0704
774.1671, 414.5736
774.6492, 414.8265
775.1313, 413.5543
775.6135, 412.1253
776.0956, 410.4933
776.5777, 409.0273
777.0598, 407.6096
777.5419, 406.7404
778.0240, 407.8127
778.5062, 410.2449
778.9883, 412.2343
779.4704, 413.0407
779.9525, 413.0601
780.4346, 411.9561
780.9167, 410.2549
781.3989, 409.2342
781.8810, 410.1057
782.3631, 410.4581
782.8452, 409.3908
783.3273, 407.6855
783.8094, 408.0314
784.2916, 410.7077
784.7737, 412.6149
785.2558, 412.4881
785.7379, 411.1667
786.2200, 409.8521
786.7021, 408.6178
787.1843, 407.7763
787.6664, 407.8654
788.1485, 407.9864
788.6306, 407.3300
789.1127, 406.2343
789.5948, 406.0538
790.0770, 407.7099
790.5591, 409.0840
791.0412, 409.5342
791.5233, 409.3849
792.0054, 410.0036
792.4875, 411.4074
792.9697, 412.3253
793.4518, 411.8556
793.9339, 410.8550
794.4160, 410.4467
794.8981, 410.6352
795.3802, 411.4385
795.8624, 414.5114
796.3445, 416.5655
796.8266, 415.2132
797.3087, 411.2231
797.7908, 408.7093
798.2729, 408.3501
798.7551, 408.3691
799.2372, 408.2463
799.7193, 408.1230
800.2014, 408.8663
800.6835, 410.3658
801.1656, 411.0210
801.6478, 409.0997
802.1299, 406.6000
802.6120, 405.8775
803.0941, 406.5516
803.5762, 407.4055
804.0583, 407.8116
804.5405, 408.4425
805.0226, 409.9307
805.5047, 411.9078
805.9868, 412.9169
806.4689, 412.8140
806.9510, 412.0807
807.4332, 410.5824
807.9153, 408.7711
808.3974, 408.1512
808.8795, 408.5314
809.3616, 408.8160
809.8438, 407.9002
810.3259, 407.1087
810.8080, 408.1664
811.2901, 410.3343
811.7722, 411.2057
812.2543, 407.5094
812.7365, 405.6363
813.2186, 408.2695
813.7007, 413.7121
814.1828, 415.6090
814.6649, 413.6129
815.1470, 410.7595
815.6292, 407.5772
816.1113, 404.8740
816.5934, 404.6068
817.0755, 406.2191
817.5576, 407.8649
818.0397, 408.9852
818.5219, 409.5633
819.0040, 409.5350
819.4861, 408.9485
819.9682, 407.8944
820.4503, 405.8050
820.9324, 404.2446
821.4146, 403.3998
821.8967, 403.4203
822.3788, 405.5461
822.8609, 409.5362
823.3430, 411.7433
823.8251, 409.8437
824.3073, 406.8531
824.7894, 406.7417
825.2715, 408.2758
825.7536, 408.7662
826.2357, 404.9143
826.7178, 402.5102
827.2000, 405.2144
827.6821, 409.9420
828.1642, 410.5101
828.6463, 405.2792
829.1284, 401.9002
829.6105, 402.3811
830.0927, 404.6419
830.5748, 404.9327
831.0569, 403.7614
831.5390, 402.8743
832.0211, 402.9046
832.5032, 403.3297
832.9854, 404.0347
833.4675, 404.8180
833.9496, 405.3575
834.4317, 405.0801
834.9138, 405.2871
835.3959, 406.2863
835.8781, 407.5828
836.3602, 408.5350
836.8423, 409.1279
837.3244, 409.1689
837.8065, 408.5030
838.2886, 407.6675
838.7708, 407.5724
839.2529, 407.6544
839.7350, 406.8822
840.2171, 404.2856
840.6992, 402.2104
841.1813, 401.7280
841.6635, 401.9680
842.1456, 402.0007
842.6277, 401.7220
843.1098, 401.4189
843.5919, 400.8809
844.0740, 400.9379
844.5562, 403.5546
845.0383, 407.5650
845.5204, 409.1324
846.0025, 407.3803
846.4846, 405.2954
846.9667, 404.9816
847.4489, 405.3884
847.9310, 405.5166
848.4131, 404.9981
848.8952, 404.8564
849.3773, 405.4007
849.8594, 405.9200
850.3416, 405.8177
850.8237, 405.1097
851.3058, 404.3121
851.7879, 403.3937
852.2700, 403.0727
852.7521, 404.6354
853.2343, 406.7309
853.7164, 407.6275
854.1985, 407.0993
854.6806, 406.7132
855.1627, 407.4366
855.6448, 408.0006
856.1270, 407.6925
856.6091, 406.4867
857.0912, 405.5239
857.5733, 404.8029
858.0554, 404.3568
858.5375, 404.2066
859.0197, 404.3472
859.5018, 404.9603
859.9839, 405.9356
860.4660, 406.6408
860.9481, 406.1302
861.4302, 405.8066
861.9124, 406.8242
862.3945, 408.9938
862.8766, 409.9182
863.3587, 408.8628
863.8408, 408.3541
864.3229, 409.8180
864.8051, 412.0718
865.2872, 410.7396
865.7693, 406.5020
866.2514, 403.4134
866.7335, 404.5308
867.2156, 406.5399
867.6978, 407.1789
868.1799, 406.7496
868.6620, 405.9451
869.1441, 403.9218
869.6262, 402.9488
870.1083, 403.9944
870.5905, 405.7266
871.0726, 404.8875
871.5547, 401.5756
872.0368, 400.2380
872.5189, 402.5089
873.0010, 405.6436
873.4832, 406.7379
873.9653, 406.4755
874.4474, 405.8858
874.9295, 404.4829
875.4116, 404.1336
875.8937, 406.3661
876.3759, 409.1198
876.8580, 410.3251
877.3401, 409.5920
877.8222, 409.8141
878.3043, 411.5532
878.7864, 412.6245
879.2686, 409.4049
879.7507, 404.2759
880.2328, 401.8499
880.7149, 403.0246
881.1970, 404.4232
881.6791, 404.1569
882.1613, 403.7023
882.6434, 404.1859
883.1255, 405.7835
883.6076, 407.2612
884.0897, 408.9107
884.5718, 409.5172
885.0540, 407.1299
885.5361, 403.1437
886.0182, 402.4619
886.5003, 404.7469
886.9824, 407.1477
887.4645, 408.4472
887.9467, 408.8587
888.4288, 407.8272
888.9109, 405.6501
889.3930, 405.2529
889.8751, 407.8138
890.3572, 409.6843
890.8394, 409.3799
891.3215, 407.8479
891.8036, 408.1008
892.2857, 409.7313
892.7678, 410.5132
893.2499, 408.8997
893.7321, 406.7677
894.2142, 404.5309
894.6963, 402.9419
895.1784, 403.5033
895.6605, 409.3505
896.1426, 413.0429
896.6248, 413.1658
897.1069, 411.8416
897.5890, 412.5836
898.0711, 415.0954
898.5532, 416.3156
899.0353, 415.5579
899.5175, 414.1090
899.9996, 412.8825
900.4817, 411.7956
900.9638, 410.5923
901.4459, 408.6353
901.9280, 408.3931
902.4102, 411.7345
902.8923, 414.8311
903.3744, 414.4492
903.8565, 410.4773
904.3386, 409.0031
904.8207, 410.1277
905.3029, 411.8195
905.7850, 412.6992
906.2671, 413.1562
906.7492, 413.4318
907.2313, 413.5952
907.7134, 414.1867
908.1956, 416.3708
908.6777, 417.8442
909.1598, 417.5611
909.6419, 415.9719
910.1240, 415.5066
910.6061, 416.1967
911.0883, 416.2650
911.5704, 414.2423
912.0525, 412.0589
912.5346, 412.5009
913.0167, 414.6564
913.4988, 416.5472
913.9810, 417.6960
914.4631, 418.2245
914.9452, 418.0584
915.4273, 417.3865
915.9094, 416.1853
916.3915, 414.3478
916.8737, 413.6972
917.3558, 414.6714
917.8379, 416.0381
918.3200, 416.4815
918.8021, 416.3776
919.2842, 416.0354
919.7664, 415.2204
920.2485, 415.5736
920.7306, 419.7203
921.2127, 423.3110
921.6948, 423.2668
922.1769, 419.2249
922.6591, 417.2431
923.1412, 417.4412
923.6233, 418.4752
924.1054, 419.6601
924.5875, 420.9574
925.0696, 422.8419
925.5518, 424.9986
926.0339, 425.7677
926.5160, 422.4638
926.9981, 419.9420
927.4802, 419.9474
927.9623, 421.8458
928.4445, 424.1597
928.9266, 427.0411
929.4087, 428.3445
929.8908, 426.9420
930.3729, 424.7138
930.8550, 424.0138
931.3372, 424.3702
931.8193, 425.0002
932.3014, 426.1113
932.7835, 426.7230
933.2656, 425.8049
933.7477, 424.9164
934.2299, 425.5942
934.7120, 428.0188
935.1941, 430.4986
935.6762, 433.0234
936.1583, 434.9309
936.6404, 435.1473
937.1226, 434.5880
937.6047, 434.3257
938.0868, 434.4669
938.5689, 434.9718
939.0510, 436.3787
939.5331, 437.5127
940.0153, 437.6152
940.4974, 436.9873
940.9795, 437.9097
941.4616, 440.4074
941.9437, 443.1133
942.4258, 445.4030
942.9080, 447.5405
943.3901, 450.1424
943.8722, 452.7656
944.3543, 454.4583
944.8364, 453.2793
945.3185, 453.4385
945.8007, 456.3240
946.2828, 460.0166
946.7649, 461.7001
947.2470, 461.4497
947.7291, 462.1762
948.2112, 464.3432
948.6934, 466.8996
949.1755, 468.9064
949.6576, 470.7427
950.1397, 472.8199
950.6218, 475.1825
951.1039, 477.8541
951.5861, 480.8100
952.0682, 484.0784
952.5503, 487.6823
953.0324, 491.6150
953.5145, 496.0849
953.9966, 501.0006
954.4788, 505.4498
954.9609, 508.4018
955.4430, 511.1906
955.9251, 515.4661
956.4072, 520.4108
956.8893, 523.6860
957.3715, 522.4916
957.8536, 524.1229
958.3357, 530.4364
958.8178, 538.5051
959.2999, 543.1157
959.7820, 545.2467
960.2642, 549.6092
960.7463, 557.5507
961.2284, 565.2896
961.7105, 569.8723
962.1926, 573.2274
962.6747, 576.9088
963.1569, 580.9611
963.6390, 586.0303
964.1211, 592.1824
964.6032, 599.2951
965.0853, 607.6006
965.5674, 616.6154
966.0496, 624.6441
966.5317, 631.8352
967.0138, 639.2487
967.4959, 646.7806
967.9780, 655.3135
968.4601, 666.0968
968.9423, 677.9550
969.4244, 687.5231
969.9065, 693.9125
970.3886, 702.1204
970.8707, 713.1329
971.3528, 726.0613
971.8350, 740.9636
972.3171, 756.7072
972.7992, 771.2264
973.2813, 783.7341
973.7634, 797.5000
974.2455, 814.5169
974.7277, 832.5342
975.2098, 849.7261
975.6919, 868.7542
976.1740, 885.2209
976.6561, 907.3591
977.1382, 929.4860
977.6204, 949.5426
978.1025, 968.9938
978.5846, 989.5648
979.0667, 1010.998
979.5488, 1032.989
980.0309, 1055.351
980.5131, 1077.755
980.9952, 1099.937
981.4773, 1122.282
981.9594, 1146.459
982.4415, 1171.807
982.9236, 1193.365
983.4058, 1209.523
983.8879, 1224.369
984.3700, 1241.937
984.8521, 1259.369
985.3342, 1273.710
985.8163, 1283.849
986.2985, 1294.541
986.7806, 1306.362
987.2627, 1317.658
987.7448, 1328.462
988.2269, 1337.880
988.7090, 1342.605
989.1912, 1343.299
989.6733, 1342.657
990.1554, 1341.631
990.6375, 1340.057
991.1196, 1337.584
991.6017, 1334.641
992.0839, 1332.159
992.5660, 1330.517
993.0481, 1327.219
993.5302, 1321.445
994.0123, 1316.050
994.4944, 1314.620
994.9766, 1315.501
995.4587, 1316.146
995.9408, 1316.132
996.4229, 1317.019
996.9050, 1319.948
997.3871, 1323.129
997.8693, 1325.039
998.3514, 1326.489
998.8335, 1333.065
999.3156, 1344.463
999.7977, 1355.784
1000.280, 1363.407
1000.762, 1371.847
1001.244, 1387.415
1001.726, 1406.124
1002.208, 1421.200
1002.690, 1426.813
1003.173, 1437.213
1003.655, 1454.577
1004.137, 1473.049
1004.619, 1486.087
1005.101, 1495.169
1005.583, 1504.564
1006.065, 1514.651
1006.547, 1524.686
1007.029, 1535.570
1007.512, 1545.111
1007.994, 1552.267
1008.476, 1557.033
1008.958, 1558.669
1009.440, 1557.000
1009.922, 1553.197
1010.404, 1547.769
1010.886, 1540.068
1011.369, 1528.270
1011.851, 1513.762
1012.333, 1498.920
1012.815, 1484.575
1013.297, 1468.885
1013.779, 1449.833
1014.261, 1431.324
1014.743, 1416.252
1015.225, 1404.369
1015.708, 1393.510
1016.190, 1383.566
1016.672, 1372.559
1017.154, 1357.777
1017.636, 1342.923
1018.118, 1331.147
1018.600, 1321.567
1019.082, 1310.697
1019.565, 1297.437
1020.047, 1285.469
1020.529, 1275.429
1021.011, 1266.603
1021.493, 1258.304
1021.975, 1250.240
1022.457, 1241.712
1022.939, 1232.526
1023.421, 1223.554
1023.904, 1215.480
1024.386, 1207.440
1024.868, 1199.068
1025.350, 1190.292
1025.832, 1179.385
1026.314, 1166.411
1026.796, 1156.299
1027.278, 1152.900
1027.760, 1151.328
1028.243, 1146.762
1028.725, 1140.618
1029.207, 1135.273
1029.689, 1131.678
1030.171, 1128.039
1030.653, 1124.167
1031.135, 1120.547
1031.617, 1116.996
1032.100, 1114.190
1032.582, 1114.153
1033.064, 1116.875
1033.546, 1120.818
1034.028, 1125.025
1034.510, 1130.473
1034.992, 1138.339
1035.474, 1147.674
1035.957, 1154.889
1036.439, 1159.802
1036.921, 1167.771
1037.403, 1180.900
1037.885, 1194.772
1038.367, 1204.056
1038.849, 1211.257
1039.331, 1218.753
1039.813, 1226.493
1040.296, 1237.594
1040.778, 1253.875
1041.260, 1269.866
1041.742, 1282.217
1042.224, 1291.970
1042.706, 1301.976
1043.188, 1312.083
1043.670, 1322.305
1044.152, 1332.713
1044.635, 1342.960
1045.117, 1352.247
1045.599, 1361.544
1046.081, 1372.839
1046.563, 1387.104
1047.045, 1395.888
1047.527, 1398.389
1048.009, 1399.061
1048.492, 1399.629
1048.974, 1401.958
1049.456, 1409.723
1049.938, 1422.366
1050.420, 1430.934
1050.902, 1432.636
1051.384, 1434.524
1051.866, 1438.494
1052.349, 1443.304
1052.831, 1447.098
1053.313, 1449.730
1053.795, 1450.489
1054.277, 1448.653
1054.759, 1447.128
1055.241, 1447.952
1055.723, 1448.880
1056.205, 1448.374
1056.688, 1446.466
1057.170, 1444.729
1057.652, 1443.158
1058.134, 1442.269
1058.616, 1442.945
1059.098, 1443.745
1059.580, 1444.420
1060.062, 1444.009
1060.544, 1440.450
1061.027, 1431.198
1061.509, 1423.535
1061.991, 1417.916
1062.473, 1413.438
1062.955, 1410.307
1063.437, 1407.349
1063.919, 1402.261
1064.401, 1394.926
1064.884, 1385.332
1065.366, 1370.196
1065.848, 1356.984
1066.330, 1349.322
1066.812, 1344.135
1067.294, 1335.305
1067.776, 1322.945
1068.258, 1306.338
1068.740, 1284.523
1069.223, 1263.747
1069.705, 1250.576
1070.187, 1239.275
1070.669, 1224.608
1071.151, 1206.072
1071.633, 1187.596
1072.115, 1168.942
1072.597, 1150.605
1073.079, 1132.047
1073.562, 1114.921
1074.044, 1103.488
1074.526, 1094.792
1075.008, 1082.967
1075.490, 1063.857
1075.972, 1046.000
1076.454, 1030.001
1076.936, 1015.610
1077.419, 1002.740
1077.901, 991.2435
1078.383, 980.3796
1078.865, 969.9952
1079.347, 959.7858
1079.829, 949.0507
1080.311, 938.9944
1080.793, 931.3811
1081.275, 924.2278
1081.758, 913.4980
1082.240, 898.6876
1082.722, 888.5135
1083.204, 884.3404
1083.686, 881.5121
1084.168, 877.2956
1084.650, 871.3005
1085.132, 861.8954
1085.615, 849.3680
1086.097, 840.7227
1086.579, 837.6196
1087.061, 833.6390
1087.543, 826.6135
1088.025, 818.7420
1088.507, 813.9250
1088.989, 810.8361
1089.471, 806.9720
1089.953, 801.3858
1090.436, 796.5338
1090.918, 793.0740
1091.400, 790.2850
1091.882, 788.0873
1092.364, 786.1774
1092.846, 782.3935
1093.328, 777.4101
1093.810, 774.3849
1094.293, 776.7086
1094.775, 778.6388
1095.257, 776.8962
1095.739, 773.7531
1096.221, 771.6866
1096.703, 770.8561
1097.185, 769.6325
1097.667, 767.9735
1098.150, 766.1713
1098.632, 763.5419
1099.114, 761.6746
1099.596, 763.3669
1100.078, 766.9463
1100.560, 766.8272
1101.042, 761.4280
1101.524, 756.5601
1102.006, 753.1572
1102.489, 749.6396
1102.971, 743.2145
1103.453, 735.8315
1103.935, 731.2084
1104.417, 729.5113
1104.899, 726.0377
1105.381, 717.3122
1105.863, 710.3608
1106.345, 708.0465
1106.828, 707.3008
1107.310, 700.9006
1107.792, 690.5876
1108.274, 681.8863
1108.756, 676.2224
1109.238, 671.1196
1109.720, 666.0023
1110.202, 660.5599
1110.685, 654.7862
1111.167, 648.5911
1111.649, 641.1307
1112.131, 632.6644
1112.613, 625.6349
1113.095, 622.3788
1113.577, 618.9022
1114.059, 611.4719
1114.542, 602.8294
1115.024, 596.3293
1115.506, 592.4999
1115.988, 588.2519
1116.470, 583.5750
1116.952, 578.5701
1117.434, 572.7563
1117.916, 567.0970
1118.398, 562.6990
1118.880, 559.2814
1119.363, 556.2278
1119.845, 553.9301
1120.327, 550.6717
1120.809, 546.0417
1121.291, 541.4851
1121.773, 538.9188
1122.255, 537.2143
1122.737, 534.4521
1123.220, 530.6121
1123.702, 526.3491
1124.184, 520.4827
1124.666, 516.4010
1125.148, 515.4155
1125.630, 515.4355
1126.112, 512.9343
1126.594, 508.6703
1127.077, 504.7657
1127.559, 501.4931
1128.041, 499.0941
1128.523, 498.4628
1129.005, 497.8790
1129.487, 496.7870
1129.969, 495.0997
1130.451, 491.9627
1130.933, 487.6764
1131.416, 484.9263
1131.898, 484.8462
1132.380, 484.4976
1132.862, 481.1762
1133.344, 477.3270
1133.826, 474.7943
1134.308, 473.5680
1134.790, 473.2092
1135.272, 473.7425
1135.755, 473.7124
1136.237, 472.2036
1136.719, 470.4637
1137.201, 470.2068
1137.683, 470.1636
1138.165, 468.3247
1138.647, 463.7356
1139.129, 461.5114
1139.612, 461.9355
1140.094, 462.8886
1140.576, 463.6715
1141.058, 463.7173
1141.540, 461.7169
1142.022, 458.5196
1142.504, 455.9093
1142.986, 454.2497
1143.469, 453.2193
1143.951, 452.8954
1144.433, 452.9167
1144.915, 453.4043
1145.397, 453.8034
1145.879, 452.7751
1146.361, 450.6666
1146.843, 449.0012
1147.325, 448.6805
1147.807, 448.1696
1148.290, 447.0318
1148.772, 446.1025
1149.254, 446.6603
1149.736, 448.1772
1150.218, 449.9830
1150.700, 451.8059
1151.182, 451.2751
1151.664, 444.3815
1152.147, 438.7032
1152.629, 436.1954
1153.111, 436.1625
1153.593, 438.3492
1154.075, 442.0123
1154.557, 444.1865
1155.039, 444.3832
1155.521, 443.7365
1156.004, 442.3842
1156.486, 440.8179
1156.968, 439.1017
1157.450, 437.4521
1157.932, 436.3170
1158.414, 435.7650
1158.896, 436.7749
1159.378, 440.2003
1159.860, 442.1392
1160.343, 437.8579
1160.825, 433.0833
1161.307, 432.2121
1161.789, 434.6061
1162.271, 434.8094
1162.753, 432.9553
1163.235, 432.3564
1163.717, 434.8701
1164.199, 437.2751
1164.682, 436.6905
1165.164, 434.8339
1165.646, 433.3261
1166.128, 432.2393
1166.610, 431.0620
1167.092, 429.7843
1167.574, 428.8279
1168.056, 428.2702
1168.539, 428.3301
1169.021, 430.4305
1169.503, 432.6969
1169.985, 432.0220
1170.467, 427.1519
1170.949, 425.1995
1171.431, 426.4839
1171.913, 427.9987
1172.396, 428.3890
1172.878, 427.5372
1173.360, 423.3378
1173.842, 418.3224
1174.324, 417.8235
1174.806, 424.6003
1175.288, 429.1292
1175.770, 431.1223
1176.252, 431.1699
1176.734, 428.1366
1177.217, 424.6004
1177.699, 424.4023
1178.181, 426.3656
1178.663, 426.8053
1179.145, 423.8539
1179.627, 422.9926
1180.109, 425.1001
1180.591, 427.3473
1181.074, 426.9636
1181.556, 425.0733
1182.038, 422.8978
1182.520, 420.5938
1183.002, 418.4659
1183.484, 415.8710
1183.966, 415.0714
1184.448, 416.7963
1184.931, 419.0072
1185.413, 419.4599
1185.895, 418.8231
1186.377, 417.9063
1186.859, 416.8538
1187.341, 416.2504
1187.823, 416.2671
1188.305, 416.7119
1188.787, 417.8818
1189.270, 418.6446
1189.752, 416.6186
1190.234, 413.4574
1190.716, 412.1164
1191.198, 412.8535
1191.680, 413.5662
1192.162, 413.6792
1192.644, 414.0375
1193.126, 415.0101
1193.609, 415.9982
1194.091, 415.9429
1194.573, 415.2351
1195.055, 414.5843
1195.537, 414.1085
1196.019, 413.4266
1196.501, 412.1132
1196.983, 411.2050
1197.466, 411.0515
1197.948, 411.3778
1198.430, 411.6171
1198.912, 411.9652
1199.394, 413.0367
1199.876, 415.1198
1200.358, 416.3471
1200.840, 415.9411
1201.323, 415.3803
1201.805, 415.1987
1202.287, 415.1730
1202.769, 414.9271
1203.251, 414.4675
1203.733, 413.7143
1204.215, 412.4810
1204.697, 411.8159
1205.179, 412.3508
1205.661, 412.5148
1206.144, 411.2406
1206.626, 409.6021
1207.108, 410.6137
1207.590, 413.0546
1208.072, 414.2042
1208.554, 412.9123
1209.036, 411.6347
1209.518, 410.5020
1210.001, 409.9048
1210.483, 410.0978
1210.965, 410.9086
1211.447, 412.6619
1211.929, 414.5566
1212.411, 414.7335
1212.893, 411.7700
1213.375, 409.2804
1213.858, 407.0602
1214.340, 406.6968
1214.822, 410.2185
1215.304, 415.3620
1215.786, 416.6013
1216.268, 415.1475
1216.750, 413.6224
1217.232, 412.9361
1217.714, 411.7336
1218.197, 409.1508
1218.679, 407.7465
1219.161, 410.0431
1219.643, 413.9883
1220.125, 415.5653
1220.607, 415.2310
1221.089, 413.9885
1221.571, 410.6052
1222.053, 409.5338
1222.536, 411.8888
1223.018, 414.1159
1223.500, 413.3272
1223.982, 411.1381
1224.464, 410.5114
1224.946, 411.0580
1225.428, 411.9037
1225.910, 413.8451
1226.393, 414.0932
1226.875, 412.1910
1227.357, 409.9109
1227.839, 408.4960
1228.321, 407.5697
1228.803, 406.0797
1229.285, 404.6129
1229.767, 404.6290
1230.250, 408.6680
1230.732, 409.2257
1231.214, 405.1285
1231.696, 401.7817
1232.178, 404.6470
1232.660, 409.7864
1233.142, 412.5222
1233.624, 413.1388
1234.106, 412.1454
1234.589, 408.5802
1235.071, 406.3994
1235.553, 405.8246
1236.035, 405.9425
1236.517, 406.5499
1236.999, 407.0627
1237.481, 405.9672
1237.963, 404.4222
1238.445, 405.4400
1238.928, 410.6724
1239.410, 412.7553
1239.892, 411.1264
1240.374, 409.2882
1240.856, 410.7626
1241.338, 412.4554
1241.820, 410.7523
1242.302, 407.4139
1242.785, 406.3486
1243.267, 408.3047
1243.749, 409.0065
1244.231, 408.2476
1244.713, 407.4169
1245.195, 407.8523
1245.677, 408.2686
1246.159, 407.4759
1246.641, 406.0851
1247.124, 405.2150
1247.606, 404.8881
1248.088, 404.8136
1248.570, 404.9800
1249.052, 405.4242
1249.534, 406.4662
1250.016, 407.4736
1250.498, 408.4204
1250.980, 408.8598
1251.463, 407.9709
1251.945, 405.7788
1252.427, 403.9197
1252.909, 402.5349
1253.391, 402.4591
1253.873, 405.8351
1254.355, 408.6934
1254.837, 409.0802
1255.320, 408.2769
1255.802, 407.6166
1256.284, 407.0001
1256.766, 405.3143
1257.248, 402.7970
1257.730, 401.3539
1258.212, 402.9531
1258.694, 404.4861
1259.177, 405.3047
1259.659, 405.4950
1260.141, 405.0555
1260.623, 404.0594
1261.105, 402.3886
1261.587, 400.3007
1262.069, 398.9599
1262.551, 399.1352
1263.033, 399.9394
1263.516, 401.8648
1263.998, 403.0296
1264.480, 400.5139
1264.962, 396.3919
1265.444, 394.9817
1265.926, 395.8735
1266.408, 397.0834
1266.890, 398.3233
1267.372, 399.5180
1267.855, 400.7650
1268.337, 401.6378
1268.819, 401.9480
1269.301, 401.5495
1269.783, 399.0598
1270.265, 395.7985
1270.747, 395.7419
1271.229, 400.7420
1271.712, 403.6855
1272.194, 404.1338
1272.676, 403.5396
1273.158, 402.0121
1273.640, 400.9113
1274.122, 402.4407
1274.604, 404.9606
1275.086, 405.1991
1275.568, 402.6876
1276.051, 400.6545
1276.533, 399.1724
1277.015, 397.7846
1277.497, 395.0416
1277.979, 393.5238
1278.461, 396.1951
1278.943, 400.1286
1279.425, 401.8310
1279.907, 401.3430
1280.390, 399.7277
1280.872, 397.1992
1281.354, 395.2710
1281.836, 394.8956
1282.318, 395.1251
1282.800, 395.5992
1283.282, 396.5888
1283.764, 398.7855
1284.247, 401.7635
1284.729, 403.4138
1285.211, 403.8197
1285.693, 403.3117
1286.175, 400.4148
1286.657, 399.1411
1287.139, 400.2433
1287.621, 402.2051
1288.104, 404.7600
1288.586, 406.8566
1289.068, 405.6397
1289.550, 402.3051
1290.032, 399.5860
1290.514, 397.8651
1290.996, 397.9411
1291.478, 400.4081
1291.960, 402.2343
1292.443, 401.3716
1292.925, 398.9846
1293.407, 395.0408
1293.889, 391.1410
1294.371, 390.4688
1294.853, 393.9125
1295.335, 395.4192
1295.817, 394.9625
1296.299, 393.8560
1296.782, 392.2488
1297.264, 391.0616
1297.746, 391.2655
1298.228, 392.0395
1298.710, 392.5970
1299.192, 392.9519
1299.674, 393.2046
1300.156, 392.8837
1300.639, 392.9150
1301.121, 391.6351
1301.603, 390.4032
1302.085, 389.2352
1302.567, 388.8563
1303.049, 389.6395
1303.531, 391.5146
##END=



