##NAMES=Alleghanyite
##RRUFFID=R060904
##IDEAL CHEMISTRY=Mn^2+^_5_(SiO_4_)_2_(OH)_2_
##LOCALITY=Near Bald Knob, Alleghany County, North Carolina, USA
##OWNER=Michael Scott
##SOURCE=Michael Scott
##DESCRIPTION=Pinkish-brown sub-rounded irregular grains
##STATUS=The identification of this mineral is confirmed by single-crystal X-ray diffraction and chemical analysis.
##URL=rruff.info/R060904
##MEASURED CHEMISTRY=(Mn^2+^_4.91_Mg_0.09_)_Σ=5.00_(Si_1.00_O_4_)_2_((OH)_1.57_F_0.43_)_Σ=2_ ; OH not measured but estimated by difference and stoichiometry
92.60040, 283.5889
93.08252, 280.4358
93.56464, 273.8438
94.04675, 268.3157
94.52887, 264.4522
95.01099, 260.8905
95.49310, 257.3783
95.97522, 253.6994
96.45734, 249.5390
96.93945, 244.4180
97.42157, 238.3884
97.90369, 233.6049
98.38580, 230.5499
98.86792, 228.4818
99.35004, 228.0118
99.83215, 228.5515
100.3143, 228.5747
100.7964, 226.1156
101.2785, 219.9586
101.7606, 217.0142
102.2427, 220.1300
102.7249, 223.7870
103.2070, 226.0338
103.6891, 226.2699
104.1712, 224.2816
104.6533, 219.3730
105.1354, 208.5076
105.6176, 201.2991
106.0997, 199.5458
106.5818, 199.8131
107.0639, 199.2432
107.5460, 197.1046
108.0281, 195.0300
108.5103, 196.1338
108.9924, 206.0508
109.4745, 211.2233
109.9566, 207.3779
110.4387, 199.9594
110.9208, 195.2514
111.4030, 195.7413
111.8851, 200.0739
112.3672, 204.9133
112.8493, 210.7883
113.3314, 216.3461
113.8135, 220.6476
114.2957, 224.4055
114.7778, 229.4444
115.2599, 237.0952
115.7420, 246.0687
116.2241, 251.7916
116.7062, 253.0554
117.1884, 253.0657
117.6705, 253.0222
118.1526, 252.8741
118.6347, 252.2592
119.1168, 250.4763
119.5989, 248.2669
120.0811, 247.7752
120.5632, 247.4599
121.0453, 250.0947
121.5274, 259.4646
122.0095, 275.6182
122.4916, 291.5121
122.9738, 301.3121
123.4559, 307.8376
123.9380, 317.4482
124.4201, 331.4525
124.9022, 348.9146
125.3843, 368.7240
125.8665, 390.7020
126.3486, 415.4251
126.8307, 443.7180
127.3128, 474.9953
127.7949, 508.8164
128.2770, 544.7941
128.7592, 583.2952
129.2413, 625.9037
129.7234, 673.9424
130.2055, 723.8283
130.6876, 776.0483
131.1697, 828.7340
131.6519, 877.0355
132.1340, 920.2293
132.6161, 957.5424
133.0982, 985.5223
133.5803, 1001.929
134.0624, 1010.670
134.5446, 1013.681
135.0267, 1011.720
135.5088, 1006.601
135.9909, 1000.968
136.4730, 994.6075
136.9551, 980.0377
137.4373, 950.2930
137.9194, 918.4261
138.4015, 887.1088
138.8836, 857.8727
139.3657, 834.2246
139.8478, 820.0258
140.3300, 816.2242
140.8121, 814.5622
141.2942, 816.6970
141.7763, 819.8326
142.2584, 820.3826
142.7405, 819.7244
143.2227, 823.8704
143.7048, 840.3871
144.1869, 872.4789
144.6690, 904.9441
145.1511, 934.6003
145.6333, 966.8742
146.1154, 1005.185
146.5975, 1049.607
147.0796, 1097.778
147.5617, 1145.981
148.0438, 1191.978
148.5260, 1244.424
149.0081, 1308.293
149.4902, 1374.265
149.9723, 1440.143
150.4544, 1504.030
150.9365, 1560.600
151.4187, 1601.153
151.9008, 1619.468
152.3829, 1632.527
152.8650, 1642.476
153.3471, 1646.984
153.8292, 1644.466
154.3114, 1634.522
154.7935, 1617.652
155.2756, 1594.713
155.7577, 1564.771
156.2398, 1528.959
156.7219, 1481.186
157.2041, 1431.380
157.6862, 1386.934
158.1683, 1350.370
158.6504, 1321.365
159.1325, 1299.566
159.6146, 1292.432
160.0968, 1282.786
160.5789, 1268.715
161.0610, 1253.081
161.5431, 1237.557
162.0252, 1222.804
162.5073, 1210.525
162.9895, 1204.348
163.4716, 1208.436
163.9537, 1213.673
164.4358, 1221.315
164.9179, 1229.425
165.4000, 1235.186
165.8822, 1237.440
166.3643, 1238.465
166.8464, 1243.728
167.3285, 1262.700
167.8106, 1272.170
168.2927, 1261.977
168.7749, 1243.451
169.2570, 1232.514
169.7391, 1235.995
170.2212, 1245.890
170.7033, 1242.630
171.1854, 1218.713
171.6676, 1194.422
172.1497, 1170.061
172.6318, 1147.800
173.1139, 1132.492
173.5960, 1126.833
174.0781, 1125.529
174.5603, 1114.956
175.0424, 1089.625
175.5245, 1065.588
176.0066, 1047.191
176.4887, 1031.869
176.9708, 1015.038
177.4530, 994.3634
177.9351, 972.4810
178.4172, 956.3384
178.8993, 947.9036
179.3814, 939.9440
179.8635, 930.3010
180.3457, 920.0018
180.8278, 910.9221
181.3099, 903.9859
181.7920, 898.2849
182.2741, 892.0269
182.7562, 886.5850
183.2384, 878.3217
183.7205, 862.4963
184.2026, 843.4994
184.6847, 829.0345
185.1668, 821.9088
185.6489, 821.3089
186.1311, 827.2928
186.6132, 843.0809
187.0953, 856.4212
187.5774, 861.4517
188.0595, 861.6326
188.5416, 864.2302
189.0238, 872.5295
189.5059, 883.0513
189.9880, 888.1163
190.4701, 886.0621
190.9522, 884.5742
191.4343, 885.9928
191.9165, 889.6489
192.3986, 894.4376
192.8807, 900.2453
193.3628, 906.5376
193.8449, 912.6814
194.3270, 919.5792
194.8092, 924.1758
195.2913, 925.6630
195.7734, 924.2050
196.2555, 919.1264
196.7376, 909.1234
197.2197, 898.0777
197.7019, 894.0481
198.1840, 898.6959
198.6661, 901.4498
199.1482, 898.8146
199.6303, 892.1885
200.1124, 883.5518
200.5946, 872.9220
201.0767, 861.9196
201.5588, 853.3210
202.0409, 847.0856
202.5230, 841.9212
203.0051, 838.1006
203.4873, 835.0087
203.9694, 831.3445
204.4515, 826.5085
204.9336, 821.9341
205.4157, 820.3971
205.8978, 822.2962
206.3800, 823.1683
206.8621, 821.6229
207.3442, 818.4524
207.8263, 814.7305
208.3084, 810.6326
208.7905, 806.3004
209.2727, 801.7412
209.7548, 796.8299
210.2369, 792.6715
210.7190, 789.3823
211.2011, 787.0221
211.6832, 786.0424
212.1654, 786.6651
212.6475, 787.5832
213.1296, 786.4072
213.6117, 782.7371
214.0938, 782.8863
214.5759, 793.9604
215.0581, 806.5045
215.5402, 807.5777
216.0223, 794.6543
216.5044, 780.0790
216.9865, 777.3382
217.4686, 787.1642
217.9508, 794.6466
218.4329, 797.5281
218.9150, 797.9390
219.3971, 796.8304
219.8792, 794.3961
220.3613, 793.2778
220.8435, 796.5576
221.3256, 804.5026
221.8077, 810.3040
222.2898, 811.0758
222.7719, 811.4948
223.2540, 816.6555
223.7362, 826.3751
224.2183, 834.4741
224.7004, 834.9402
225.1825, 827.8318
225.6646, 826.1976
226.1467, 837.0881
226.6289, 847.5345
227.1110, 847.2881
227.5931, 837.7236
228.0752, 828.6152
228.5573, 826.8751
229.0394, 832.0308
229.5216, 835.9890
230.0037, 838.5768
230.4858, 840.2745
230.9679, 841.4656
231.4500, 841.9948
231.9321, 841.0189
232.4143, 837.5371
232.8964, 832.3268
233.3785, 830.1796
233.8606, 833.3106
234.3427, 836.5029
234.8248, 837.7476
235.3070, 837.7264
235.7891, 837.5444
236.2712, 837.4045
236.7533, 838.1129
237.2354, 842.9365
237.7175, 856.2233
238.1997, 867.7817
238.6818, 875.5235
239.1639, 880.3766
239.6460, 883.6093
240.1281, 885.6951
240.6102, 886.8707
241.0924, 887.5873
241.5745, 883.3690
242.0566, 885.0732
242.5387, 897.8811
243.0208, 915.2525
243.5029, 930.1899
243.9851, 940.4260
244.4672, 947.7938
244.9493, 955.1913
245.4314, 961.4838
245.9135, 970.0815
246.3956, 981.5245
246.8778, 994.9029
247.3599, 1010.165
247.8420, 1027.049
248.3241, 1043.759
248.8062, 1057.915
249.2883, 1068.102
249.7705, 1079.577
250.2526, 1092.469
250.7347, 1106.333
251.2168, 1121.154
251.6989, 1136.812
252.1810, 1152.813
252.6632, 1168.935
253.1453, 1185.362
253.6274, 1200.250
254.1095, 1214.272
254.5916, 1226.280
255.0737, 1236.495
255.5559, 1244.367
256.0380, 1248.122
256.5201, 1245.223
257.0022, 1235.850
257.4843, 1234.577
257.9665, 1252.820
258.4486, 1267.907
258.9307, 1273.136
259.4128, 1271.648
259.8949, 1268.991
260.3770, 1268.246
260.8592, 1269.422
261.3413, 1272.576
261.8234, 1278.539
262.3055, 1285.626
262.7876, 1296.453
263.2697, 1307.132
263.7519, 1312.340
264.2340, 1309.477
264.7161, 1302.432
265.1982, 1300.284
265.6803, 1306.435
266.1624, 1310.164
266.6446, 1307.188
267.1267, 1302.754
267.6088, 1301.152
268.0909, 1303.554
268.5730, 1307.926
269.0551, 1313.483
269.5373, 1322.296
270.0194, 1322.575
270.5015, 1298.563
270.9836, 1274.937
271.4657, 1266.872
271.9478, 1275.273
272.4300, 1288.421
272.9121, 1296.721
273.3942, 1300.240
273.8763, 1303.269
274.3584, 1308.858
274.8405, 1310.462
275.3227, 1303.034
275.8048, 1288.119
276.2869, 1271.934
276.7690, 1254.940
277.2511, 1239.370
277.7332, 1234.133
278.2154, 1243.455
278.6975, 1254.583
279.1796, 1261.950
279.6617, 1265.103
280.1438, 1262.045
280.6259, 1247.092
281.1081, 1228.261
281.5902, 1218.302
282.0723, 1218.451
282.5544, 1217.165
283.0365, 1205.817
283.5186, 1189.241
284.0008, 1176.848
284.4829, 1171.270
284.9650, 1168.041
285.4471, 1166.320
285.9292, 1165.144
286.4113, 1157.299
286.8935, 1136.698
287.3756, 1110.607
287.8577, 1093.261
288.3398, 1085.207
288.8219, 1083.174
289.3040, 1091.030
289.7862, 1103.336
290.2683, 1108.098
290.7504, 1100.442
291.2325, 1089.434
291.7146, 1089.364
292.1967, 1102.860
292.6789, 1115.453
293.1610, 1127.582
293.6431, 1136.605
294.1252, 1138.475
294.6073, 1132.969
295.0894, 1125.008
295.5716, 1118.712
296.0537, 1113.778
296.5358, 1114.896
297.0179, 1125.971
297.5000, 1138.961
297.9821, 1151.274
298.4643, 1161.879
298.9464, 1168.834
299.4285, 1170.035
299.9106, 1166.289
300.3927, 1167.584
300.8748, 1175.362
301.3570, 1186.365
301.8391, 1204.375
302.3212, 1224.066
302.8033, 1238.198
303.2854, 1243.283
303.7675, 1241.424
304.2497, 1237.714
304.7318, 1228.557
305.2139, 1223.684
305.6960, 1229.526
306.1781, 1235.930
306.6602, 1233.317
307.1424, 1219.995
307.6245, 1203.193
308.1066, 1192.508
308.5887, 1189.633
309.0708, 1186.025
309.5529, 1180.673
310.0351, 1175.132
310.5172, 1171.598
310.9993, 1168.970
311.4814, 1163.273
311.9635, 1149.923
312.4456, 1130.124
312.9278, 1113.122
313.4099, 1099.627
313.8920, 1088.171
314.3741, 1080.138
314.8562, 1073.156
315.3383, 1062.516
315.8205, 1043.517
316.3026, 1022.795
316.7847, 1013.251
317.2668, 1017.333
317.7489, 1017.511
318.2310, 1003.424
318.7132, 982.4854
319.1953, 963.5770
319.6774, 947.3959
320.1595, 934.3633
320.6416, 926.9424
321.1237, 923.5880
321.6059, 917.3548
322.0880, 904.8738
322.5701, 890.9875
323.0522, 883.5371
323.5343, 883.1425
324.0164, 880.0472
324.4986, 868.3630
324.9807, 853.7731
325.4628, 843.9600
325.9449, 840.0574
326.4270, 837.7867
326.9091, 832.9484
327.3913, 825.2672
327.8734, 821.0624
328.3555, 824.5731
328.8376, 827.5798
329.3197, 825.5044
329.8018, 819.0634
330.2840, 810.2998
330.7661, 799.8367
331.2482, 788.9621
331.7303, 783.7365
332.2124, 791.4437
332.6945, 795.9644
333.1767, 792.5690
333.6588, 786.2439
334.1409, 782.9102
334.6230, 784.4825
335.1051, 788.1339
335.5872, 789.4148
336.0694, 787.8140
336.5515, 784.8245
337.0336, 779.7201
337.5157, 774.0560
337.9978, 767.6746
338.4799, 761.2342
338.9621, 756.5745
339.4442, 756.0255
339.9263, 759.2933
340.4084, 760.2684
340.8905, 757.3845
341.3727, 754.2396
341.8548, 752.9833
342.3369, 752.2536
342.8190, 749.6063
343.3011, 743.2565
343.7832, 735.5991
344.2654, 729.9321
344.7475, 726.0114
345.2296, 725.9207
345.7117, 735.5471
346.1938, 746.1248
346.6759, 746.4357
347.1581, 733.4755
347.6402, 721.7170
348.1223, 723.8336
348.6044, 734.9608
349.0865, 739.4695
349.5686, 733.0436
350.0508, 722.5703
350.5329, 714.1458
351.0150, 707.5909
351.4971, 705.0955
351.9792, 710.6832
352.4613, 718.0481
352.9435, 721.7484
353.4256, 721.6622
353.9077, 719.9353
354.3898, 717.7640
354.8719, 715.2286
355.3540, 713.0064
355.8362, 712.2019
356.3183, 710.3938
356.8004, 704.4621
357.2825, 697.8297
357.7646, 696.9515
358.2467, 704.2043
358.7289, 713.7803
359.2110, 714.3936
359.6931, 697.5993
360.1752, 688.3159
360.6573, 690.1075
361.1394, 695.3925
361.6216, 701.6378
362.1037, 707.3583
362.5858, 710.1044
363.0679, 706.9947
363.5500, 698.3587
364.0321, 691.1246
364.5143, 683.0690
364.9964, 679.8538
365.4785, 686.5303
365.9606, 697.7746
366.4427, 705.9076
366.9248, 707.4696
367.4070, 705.6301
367.8891, 705.0123
368.3712, 705.7700
368.8533, 705.9103
369.3354, 702.7848
369.8175, 700.6260
370.2997, 704.1436
370.7818, 713.8108
371.2639, 724.3763
371.7460, 734.8146
372.2281, 743.8558
372.7102, 748.0812
373.1924, 746.3285
373.6745, 743.7730
374.1566, 744.1550
374.6387, 747.7085
375.1208, 754.3165
375.6029, 766.4997
376.0851, 779.4423
376.5672, 790.0486
377.0493, 799.0794
377.5314, 809.0328
378.0135, 821.2599
378.4956, 834.8245
378.9778, 847.2009
379.4599, 856.7346
379.9420, 867.1015
380.4241, 875.6157
380.9062, 886.6861
381.3883, 907.0007
381.8705, 935.8828
382.3526, 963.8884
382.8347, 979.7132
383.3168, 981.8062
383.7989, 988.2061
384.2810, 1003.683
384.7632, 1018.809
385.2453, 1029.209
385.7274, 1037.564
386.2095, 1049.320
386.6916, 1068.439
387.1737, 1089.518
387.6559, 1101.291
388.1380, 1102.185
388.6201, 1102.074
389.1022, 1103.584
389.5843, 1105.382
390.0664, 1107.092
390.5486, 1108.812
391.0307, 1107.519
391.5128, 1099.019
391.9949, 1086.480
392.4770, 1078.177
392.9591, 1076.158
393.4413, 1072.806
393.9234, 1060.491
394.4055, 1040.098
394.8876, 1022.671
395.3697, 1011.219
395.8518, 1000.393
396.3340, 986.9055
396.8161, 971.7411
397.2982, 957.3187
397.7803, 944.6453
398.2624, 933.7484
398.7445, 924.7059
399.2267, 919.8407
399.7088, 913.2745
400.1909, 905.5817
400.6730, 895.8515
401.1551, 880.4188
401.6372, 861.1001
402.1194, 845.8214
402.6015, 843.1679
403.0836, 852.3270
403.5657, 855.2302
404.0478, 846.9655
404.5299, 839.0311
405.0121, 834.9751
405.4942, 833.1362
405.9763, 831.5396
406.4584, 829.6281
406.9405, 827.1438
407.4226, 823.6229
407.9048, 819.0818
408.3869, 814.1666
408.8690, 808.2467
409.3511, 803.0280
409.8332, 800.0928
410.3153, 799.3088
410.7975, 799.8185
411.2796, 802.1425
411.7617, 805.1367
412.2438, 806.6603
412.7259, 806.9058
413.2080, 809.6119
413.6902, 817.9313
414.1723, 830.1521
414.6544, 838.0765
415.1365, 837.1183
415.6186, 838.4321
416.1007, 846.4764
416.5829, 856.8045
417.0650, 863.8822
417.5471, 866.5791
418.0292, 868.4422
418.5113, 874.1295
418.9934, 884.7085
419.4756, 892.9407
419.9577, 894.4605
420.4398, 898.0933
420.9219, 910.5035
421.4040, 926.4833
421.8861, 935.9532
422.3683, 932.8669
422.8504, 924.1046
423.3325, 922.6866
423.8146, 929.6503
424.2967, 937.6636
424.7788, 947.0359
425.2610, 954.8327
425.7431, 957.1558
426.2252, 953.9801
426.7073, 952.7215
427.1894, 959.2494
427.6715, 969.0368
428.1537, 973.9728
428.6358, 973.3847
429.1179, 974.0258
429.6000, 981.8749
430.0821, 994.6392
430.5642, 999.6972
431.0464, 988.7458
431.5285, 980.9754
432.0106, 983.1292
432.4927, 991.0031
432.9748, 999.6197
433.4569, 1007.404
433.9391, 1015.268
434.4212, 1025.563
434.9033, 1041.158
435.3854, 1045.277
435.8675, 1025.188
436.3496, 1006.555
436.8318, 998.9952
437.3139, 999.1895
437.7960, 1000.266
438.2781, 999.1774
438.7602, 996.3428
439.2423, 992.4779
439.7245, 987.5936
440.2066, 981.5942
440.6887, 973.5923
441.1708, 965.1926
441.6529, 958.2623
442.1350, 952.7257
442.6172, 946.3708
443.0993, 938.3597
443.5814, 928.8871
444.0635, 917.3088
444.5456, 903.7930
445.0277, 891.6628
445.5099, 883.6735
445.9920, 878.3997
446.4741, 869.5983
446.9562, 851.7056
447.4383, 837.9933
447.9204, 834.6938
448.4026, 834.3647
448.8847, 827.6938
449.3668, 813.7377
449.8489, 800.6857
450.3310, 798.3420
450.8131, 807.5824
451.2953, 809.7485
451.7774, 798.9848
452.2595, 787.9041
452.7416, 781.3135
453.2237, 776.2688
453.7059, 767.8327
454.1880, 753.6685
454.6701, 739.2128
455.1522, 732.5685
455.6343, 732.9194
456.1165, 728.4709
456.5986, 713.8195
457.0807, 699.1539
457.5628, 697.6882
458.0449, 706.5759
458.5270, 709.3617
459.0092, 697.1333
459.4913, 682.4006
459.9734, 674.4717
460.4555, 672.1300
460.9376, 670.5525
461.4197, 667.6036
461.9019, 664.0062
462.3840, 661.4688
462.8661, 661.5859
463.3482, 659.7497
463.8303, 654.9056
464.3124, 649.1718
464.7946, 643.9395
465.2767, 639.0657
465.7588, 633.1509
466.2409, 624.2160
466.7230, 614.5944
467.2051, 613.5892
467.6873, 625.3772
468.1694, 633.2379
468.6515, 627.5995
469.1336, 618.5849
469.6157, 615.8560
470.0978, 620.5970
470.5800, 623.2742
471.0621, 616.0233
471.5442, 604.1753
472.0263, 597.4674
472.5084, 596.7518
472.9905, 595.4709
473.4727, 588.5029
473.9548, 577.4115
474.4369, 571.2116
474.9190, 573.8217
475.4011, 575.3623
475.8832, 573.0504
476.3654, 569.2491
476.8475, 567.0052
477.3296, 566.5794
477.8117, 565.1083
478.2938, 558.5554
478.7759, 546.9088
479.2581, 542.6396
479.7402, 551.9867
480.2223, 559.8964
480.7044, 560.4636
481.1865, 557.5588
481.6686, 556.0620
482.1508, 557.4942
482.6329, 558.9356
483.1150, 556.9757
483.5971, 552.6691
484.0792, 550.1188
484.5613, 550.0916
485.0435, 551.3867
485.5256, 553.2169
486.0077, 555.5992
486.4898, 558.3054
486.9719, 561.4240
487.4540, 564.7727
487.9362, 568.7524
488.4183, 572.7554
488.9004, 575.8743
489.3825, 577.8146
489.8646, 578.8149
490.3467, 579.1823
490.8289, 578.9110
491.3110, 577.9808
491.7931, 574.6760
492.2752, 572.5382
492.7573, 573.7833
493.2394, 576.6689
493.7216, 577.9364
494.2037, 575.8463
494.6858, 573.7710
495.1679, 576.9440
495.6500, 584.5414
496.1321, 588.8740
496.6143, 587.3101
497.0964, 584.7189
497.5785, 586.3834
498.0606, 591.8110
498.5427, 595.3801
499.0248, 595.1586
499.5070, 594.3477
499.9891, 593.9156
500.4712, 594.3118
500.9533, 596.9427
501.4354, 602.3007
501.9175, 607.9152
502.3997, 609.6877
502.8818, 606.3941
503.3639, 603.8849
503.8460, 599.6975
504.3281, 598.8927
504.8102, 604.7026
505.2924, 614.9893
505.7745, 626.4281
506.2566, 638.3534
506.7387, 648.7155
507.2208, 653.6873
507.7029, 653.9137
508.1851, 656.2068
508.6672, 662.2957
509.1493, 670.2413
509.6314, 678.9875
510.1135, 688.4089
510.5956, 695.6490
511.0778, 699.7298
511.5599, 702.3353
512.0420, 704.4638
512.5241, 705.7615
513.0062, 705.5387
513.4883, 703.5443
513.9705, 699.8876
514.4526, 694.4828
514.9347, 686.6975
515.4168, 679.8339
515.8989, 673.7113
516.3810, 668.8430
516.8632, 668.1308
517.3453, 668.1963
517.8274, 662.9461
518.3095, 649.2891
518.7916, 632.8146
519.2737, 618.7776
519.7559, 607.1379
520.2380, 597.3132
520.7201, 588.9338
521.2022, 583.5104
521.6843, 583.2009
522.1664, 588.0954
522.6486, 592.0085
523.1307, 598.7548
523.6128, 600.2966
524.0949, 587.9953
524.5770, 570.6043
525.0591, 561.2068
525.5413, 563.2946
526.0234, 569.8295
526.5055, 572.4722
526.9876, 570.9963
527.4697, 568.7988
527.9518, 563.8903
528.4340, 561.3218
528.9161, 565.6832
529.3982, 572.2872
529.8803, 574.2761
530.3624, 569.2279
530.8445, 563.4799
531.3267, 560.8048
531.8088, 560.9789
532.2909, 563.7122
532.7730, 568.9869
533.2551, 576.1504
533.7372, 585.5439
534.2194, 596.5424
534.7015, 603.0201
535.1836, 600.0898
535.6657, 599.3375
536.1478, 601.7950
536.6299, 607.6490
537.1121, 618.2413
537.5942, 632.9855
538.0763, 648.3326
538.5584, 661.4387
539.0405, 672.5737
539.5226, 683.3513
540.0048, 694.3613
540.4869, 703.1750
540.9690, 710.4728
541.4511, 713.8333
541.9332, 708.6584
542.4153, 693.1564
542.8975, 681.5255
543.3796, 682.0829
543.8617, 687.0283
544.3438, 689.2250
544.8259, 688.2161
545.3080, 685.7437
545.7902, 682.9931
546.2723, 678.7184
546.7544, 668.9609
547.2365, 647.9179
547.7186, 632.7536
548.2007, 627.0858
548.6829, 623.9477
549.1650, 620.6886
549.6471, 616.8073
550.1292, 611.7007
550.6113, 603.8046
551.0934, 596.5761
551.5756, 595.4518
552.0577, 599.8649
552.5398, 605.0458
553.0219, 610.0620
553.5040, 614.5725
553.9861, 618.1838
554.4683, 620.7903
554.9504, 623.0808
555.4325, 623.0145
555.9146, 624.8471
556.3967, 629.4944
556.8788, 637.4642
557.3610, 650.2388
557.8431, 667.9551
558.3252, 687.6467
558.8073, 706.8329
559.2894, 725.5520
559.7715, 738.6874
560.2537, 743.0408
560.7358, 747.8982
561.2179, 759.3580
561.7000, 773.2802
562.1821, 784.5733
562.6642, 792.4123
563.1464, 798.3951
563.6285, 804.5613
564.1106, 808.6590
564.5927, 806.6014
565.0748, 798.7172
565.5569, 789.6479
566.0391, 782.4830
566.5212, 776.4677
567.0033, 768.9613
567.4854, 761.6464
567.9675, 749.6033
568.4496, 726.3207
568.9318, 704.1293
569.4139, 691.6581
569.8960, 687.3572
570.3781, 684.1241
570.8602, 679.6566
571.3423, 672.6766
571.8245, 659.8363
572.3066, 642.1238
572.7887, 625.9989
573.2708, 613.0423
573.7529, 602.7077
574.2350, 594.2679
574.7172, 587.8093
575.1993, 583.7184
575.6814, 584.3205
576.1635, 584.4882
576.6456, 583.8546
577.1277, 581.0968
577.6099, 573.0928
578.0920, 559.6463
578.5741, 546.6003
579.0562, 541.0900
579.5383, 542.1431
580.0204, 541.9421
580.5026, 540.8340
580.9847, 537.1321
581.4668, 528.4265
581.9489, 517.4749
582.4310, 508.3153
582.9131, 499.6729
583.3953, 497.4405
583.8774, 510.6820
584.3595, 525.3742
584.8416, 529.0137
585.3237, 522.7216
585.8058, 512.8425
586.2880, 502.5625
586.7701, 493.2202
587.2522, 488.1643
587.7343, 488.4154
588.2164, 488.9882
588.6985, 491.4247
589.1807, 491.8615
589.6628, 485.1429
590.1449, 475.2924
590.6270, 472.1465
591.1091, 482.9561
591.5912, 492.5883
592.0734, 486.3316
592.5555, 472.7575
593.0376, 469.1266
593.5197, 477.9684
594.0018, 488.1375
594.4839, 490.2211
594.9661, 485.2086
595.4482, 480.5932
595.9303, 474.7939
596.4124, 471.9935
596.8945, 475.3074
597.3766, 479.4373
597.8588, 480.8168
598.3409, 479.2524
598.8230, 475.8857
599.3051, 468.9378
599.7872, 462.5488
600.2693, 463.8550
600.7515, 471.2767
601.2336, 476.3554
601.7157, 476.2721
602.1978, 473.7985
602.6799, 472.1940
603.1620, 471.6305
603.6442, 470.5582
604.1263, 466.1195
604.6084, 464.6183
605.0905, 470.1633
605.5726, 478.2565
606.0547, 483.9878
606.5369, 486.2507
607.0190, 487.2229
607.5011, 489.2197
607.9832, 491.2699
608.4653, 490.1044
608.9474, 485.5366
609.4296, 481.1492
609.9117, 478.1468
610.3938, 476.7309
610.8759, 477.8073
611.3580, 483.2289
611.8401, 485.0829
612.3223, 479.0501
612.8044, 473.6028
613.2865, 473.2201
613.7686, 476.3853
614.2507, 480.5667
614.7328, 484.8036
615.2150, 488.4065
615.6971, 490.7173
616.1792, 491.7066
616.6613, 490.6151
617.1434, 486.6721
617.6255, 483.9407
618.1077, 485.4247
618.5898, 489.2899
619.0719, 490.8781
619.5540, 489.4468
620.0361, 487.8918
620.5182, 485.8585
621.0004, 484.5529
621.4825, 486.0900
621.9646, 489.0503
622.4467, 489.1245
622.9288, 483.8587
623.4109, 478.2072
623.8931, 482.4937
624.3752, 496.6942
624.8573, 501.8175
625.3394, 492.0796
625.8215, 482.8612
626.3036, 486.1589
626.7858, 497.4581
627.2679, 502.2271
627.7500, 495.1228
628.2321, 490.9557
628.7142, 496.1090
629.1964, 504.0261
629.6785, 509.4679
630.1606, 511.9965
630.6427, 512.5555
631.1248, 511.3469
631.6069, 510.1456
632.0891, 513.0167
632.5712, 520.2747
633.0533, 527.7323
633.5354, 535.5002
634.0175, 542.1647
634.4996, 544.2523
634.9818, 544.2971
635.4639, 550.7732
635.9460, 566.3218
636.4281, 576.3762
636.9102, 584.4061
637.3923, 590.5196
637.8745, 588.9818
638.3566, 597.3254
638.8387, 601.7079
639.3208, 605.9286
639.8029, 615.6633
640.2850, 615.2368
640.7672, 624.8854
641.2493, 630.5117
641.7314, 637.9777
642.2135, 641.4594
642.6956, 646.1719
643.1777, 654.8701
643.6599, 661.3630
644.1420, 663.4589
644.6241, 670.1154
645.1062, 675.9017
645.5883, 680.0040
646.0704, 680.9595
646.5526, 679.1658
647.0347, 676.5532
647.5168, 674.2327
647.9989, 672.5887
648.4810, 673.3853
648.9631, 677.1234
649.4453, 677.9420
649.9274, 674.0650
650.4095, 668.3269
650.8916, 662.7961
651.3737, 657.3425
651.8558, 651.4190
652.3380, 642.9536
652.8201, 636.6058
653.3022, 634.0735
653.7843, 634.1288
654.2664, 637.5491
654.7485, 642.7802
655.2307, 644.5513
655.7128, 638.7415
656.1949, 628.6839
656.6770, 621.4765
657.1591, 617.1760
657.6412, 612.8297
658.1234, 607.0804
658.6055, 603.1292
659.0876, 604.4144
659.5697, 610.1265
660.0518, 614.0793
660.5339, 616.9257
661.0161, 617.2200
661.4982, 611.9476
661.9803, 605.9857
662.4624, 605.2083
662.9445, 608.1740
663.4266, 607.4009
663.9088, 596.9185
664.3909, 584.6589
664.8730, 586.5096
665.3551, 601.0758
665.8372, 610.8475
666.3193, 612.1611
666.8015, 611.5045
667.2836, 613.5060
667.7657, 617.7338
668.2478, 621.7933
668.7299, 629.8121
669.2120, 631.8824
669.6942, 621.1488
670.1763, 609.2306
670.6584, 604.2881
671.1405, 605.4775
671.6226, 608.5025
672.1047, 611.6255
672.5869, 614.6342
673.0690, 617.6851
673.5511, 620.4362
674.0332, 621.1599
674.5153, 619.5278
674.9974, 617.6983
675.4796, 617.0280
675.9617, 617.3694
676.4438, 618.2491
676.9259, 620.2135
677.4080, 621.8193
677.8901, 623.2709
678.3723, 624.1896
678.8544, 624.1973
679.3365, 623.5676
679.8186, 622.5983
680.3007, 621.1398
680.7828, 620.5541
681.2650, 623.2695
681.7471, 627.1434
682.2292, 628.0507
682.7113, 625.8336
683.1934, 622.1120
683.6755, 617.3764
684.1577, 613.4365
684.6398, 614.8574
685.1219, 624.4099
685.6040, 630.3500
686.0861, 629.9119
686.5682, 629.2443
687.0504, 632.0572
687.5325, 635.6493
688.0146, 635.5200
688.4967, 630.2762
688.9788, 626.0108
689.4609, 626.9448
689.9431, 629.1423
690.4252, 628.5024
690.9073, 625.6168
691.3894, 623.4365
691.8715, 623.0956
692.3536, 621.8640
692.8358, 615.2089
693.3179, 603.1576
693.8000, 593.4128
694.2821, 586.6309
694.7642, 580.4285
695.2463, 573.8784
695.7285, 567.5220
696.2106, 561.8768
696.6927, 556.8577
697.1748, 553.4647
697.6569, 554.6660
698.1390, 554.5005
698.6212, 547.6276
699.1033, 538.5129
699.5854, 533.0831
700.0675, 532.7553
700.5496, 535.7053
701.0317, 541.7736
701.5139, 549.1302
701.9960, 552.9998
702.4781, 553.4110
702.9602, 551.9301
703.4423, 548.9737
703.9244, 544.0103
704.4066, 534.8917
704.8887, 521.7584
705.3708, 517.5926
705.8529, 533.1070
706.3350, 543.1010
706.8171, 540.2194
707.2993, 533.8317
707.7814, 531.1694
708.2635, 532.0565
708.7456, 532.6437
709.2277, 531.1199
709.7098, 528.6705
710.1920, 525.2659
710.6741, 522.0769
711.1562, 522.9293
711.6383, 527.8817
712.1204, 531.4818
712.6025, 529.8387
713.0847, 524.1558
713.5668, 517.2700
714.0489, 507.3519
714.5310, 502.6923
715.0131, 507.5875
715.4952, 513.1062
715.9774, 513.9814
716.4595, 512.2471
716.9416, 511.5723
717.4237, 512.6602
717.9058, 513.9384
718.3879, 515.1086
718.8701, 516.0250
719.3522, 514.9971
719.8343, 513.8227
720.3164, 517.8317
720.7985, 528.9422
721.2806, 539.9423
721.7628, 539.5497
722.2449, 530.5187
722.7270, 530.0164
723.2091, 539.1898
723.6912, 548.3430
724.1733, 553.7584
724.6555, 557.0596
725.1376, 560.2980
725.6197, 563.3974
726.1018, 566.8705
726.5839, 570.2521
727.0660, 574.5386
727.5482, 581.3681
728.0303, 588.2825
728.5124, 591.4949
728.9945, 591.6572
729.4766, 594.7263
729.9587, 604.2905
730.4409, 617.8008
730.9230, 633.6221
731.4051, 651.1625
731.8872, 668.8579
732.3693, 686.5543
732.8514, 705.4946
733.3336, 726.8881
733.8157, 749.8784
734.2978, 770.9902
734.7799, 788.9773
735.2620, 810.2372
735.7441, 835.4405
736.2263, 864.1523
736.7084, 896.8790
737.1905, 933.0679
737.6726, 970.9379
738.1547, 1010.507
738.6368, 1051.426
739.1190, 1090.345
739.6011, 1133.352
740.0832, 1186.101
740.5653, 1245.971
741.0474, 1309.709
741.5295, 1375.869
742.0117, 1437.276
742.4938, 1485.927
742.9759, 1524.174
743.4580, 1557.747
743.9401, 1586.726
744.4222, 1610.787
744.9044, 1630.626
745.3865, 1641.546
745.8686, 1637.524
746.3507, 1618.426
746.8328, 1587.705
747.3149, 1537.615
747.7971, 1488.578
748.2792, 1447.576
748.7613, 1407.265
749.2434, 1363.960
749.7255, 1316.875
750.2076, 1263.558
750.6898, 1195.315
751.1719, 1131.426
751.6540, 1082.964
752.1361, 1042.862
752.6182, 1003.848
753.1003, 965.0768
753.5825, 928.4158
754.0646, 895.0172
754.5467, 863.9661
755.0288, 832.4156
755.5109, 801.5544
755.9930, 781.6173
756.4752, 774.4169
756.9573, 768.8162
757.4394, 759.5557
757.9215, 747.2924
758.4036, 733.0778
758.8857, 715.8832
759.3679, 700.3221
759.8500, 684.2982
760.3321, 672.5784
760.8142, 668.5875
761.2963, 668.3221
761.7784, 669.0135
762.2606, 669.9380
762.7427, 666.9642
763.2248, 653.8792
763.7069, 640.9178
764.1890, 635.3773
764.6711, 634.8602
765.1533, 637.7167
765.6354, 642.0974
766.1175, 641.5849
766.5996, 630.3314
767.0817, 614.1627
767.5638, 605.3811
768.0460, 603.7771
768.5281, 605.5900
769.0102, 610.9584
769.4923, 615.8589
769.9744, 616.7642
770.4565, 616.3420
770.9387, 622.4530
771.4208, 642.2137
771.9029, 651.7618
772.3850, 642.5645
772.8671, 633.1342
773.3492, 629.7580
773.8314, 630.0230
774.3135, 630.5250
774.7956, 630.7568
775.2777, 632.7647
775.7598, 639.0684
776.2419, 645.8646
776.7241, 650.2889
777.2062, 653.1716
777.6883, 655.9094
778.1704, 658.8583
778.6525, 662.1884
779.1346, 666.7004
779.6168, 670.4441
780.0989, 667.9691
780.5810, 659.8334
781.0631, 652.5224
781.5452, 646.7578
782.0273, 643.9451
782.5095, 644.8560
782.9916, 649.6807
783.4737, 659.9125
783.9558, 681.8823
784.4379, 694.1074
784.9200, 689.6005
785.4022, 683.1849
785.8843, 677.0992
786.3664, 673.8099
786.8485, 677.4062
787.3306, 688.6663
787.8127, 699.9129
788.2949, 708.9312
788.7770, 716.8175
789.2591, 724.8213
789.7412, 731.8736
790.2233, 735.2611
790.7054, 735.4509
791.1876, 736.9951
791.6697, 743.4589
792.1518, 752.4217
792.6339, 760.0989
793.1160, 766.8157
793.5981, 773.0081
794.0803, 778.8170
794.5624, 787.8576
795.0445, 802.8865
795.5266, 821.3185
796.0087, 837.5400
796.4908, 852.0128
796.9730, 862.4931
797.4551, 867.7623
797.9372, 870.9902
798.4193, 868.1453
798.9014, 867.4279
799.3835, 882.5466
799.8657, 914.8651
800.3478, 938.9551
800.8299, 941.5966
801.3120, 947.5054
801.7941, 963.8971
802.2762, 989.3325
802.7584, 1026.248
803.2405, 1070.872
803.7226, 1111.217
804.2047, 1138.962
804.6868, 1165.058
805.1689, 1198.447
805.6511, 1238.168
806.1332, 1283.807
806.6153, 1334.535
807.0974, 1387.253
807.5795, 1440.361
808.0616, 1496.280
808.5438, 1557.438
809.0259, 1624.094
809.5080, 1702.364
809.9901, 1793.633
810.4722, 1888.509
810.9543, 1982.929
811.4365, 2082.034
811.9186, 2188.383
812.4007, 2302.062
812.8828, 2437.565
813.3649, 2602.823
813.8470, 2777.648
814.3292, 2946.697
814.8113, 3137.167
815.2934, 3363.318
815.7755, 3624.212
816.2576, 3915.276
816.7397, 4229.781
817.2219, 4591.167
817.7040, 4989.048
818.1861, 5455.157
818.6682, 6016.678
819.1503, 6669.132
819.6324, 7399.698
820.1146, 8205.572
820.5967, 9083.818
821.0788, 10035.60
821.5609, 11057.41
822.0430, 12163.78
822.5251, 13335.18
823.0073, 14503.64
823.4894, 15652.55
823.9716, 16705.35
824.4537, 17613.36
824.9358, 18345.95
825.4179, 18830.05
825.9000, 19065.38
826.3821, 19030.42
826.8643, 18693.34
827.3464, 18155.21
827.8285, 17409.54
828.3106, 16542.86
828.7927, 15684.33
829.2748, 14841.90
829.7570, 13994.23
830.2391, 13102.13
830.7212, 12256.49
831.2033, 11476.95
831.6854, 10753.03
832.1675, 10076.88
832.6497, 9448.207
833.1318, 8881.524
833.6139, 8376.260
834.0960, 7931.715
834.5781, 7547.405
835.0602, 7222.637
835.5424, 6970.499
836.0245, 6776.361
836.5066, 6603.809
836.9887, 6439.677
837.4708, 6307.883
837.9529, 6243.751
838.4351, 6222.606
838.9172, 6193.351
839.3993, 6160.197
839.8814, 6144.838
840.3635, 6152.991
840.8456, 6181.708
841.3278, 6233.038
841.8099, 6294.434
842.2920, 6320.713
842.7741, 6306.883
843.2562, 6308.447
843.7383, 6341.712
844.2205, 6358.234
844.7026, 6335.409
845.1847, 6275.382
845.6668, 6179.342
846.1489, 6043.258
846.6310, 5889.340
847.1132, 5720.905
847.5953, 5529.742
848.0774, 5300.306
848.5595, 5057.145
849.0416, 4820.910
849.5237, 4590.568
850.0059, 4353.810
850.4880, 4095.382
850.9701, 3850.415
851.4522, 3633.741
851.9343, 3433.558
852.4164, 3244.485
852.8986, 3063.210
853.3807, 2887.971
853.8628, 2717.374
854.3449, 2557.571
854.8270, 2412.147
855.3091, 2280.596
855.7913, 2167.494
856.2734, 2068.703
856.7555, 1973.164
857.2376, 1879.190
857.7197, 1797.411
858.2018, 1736.807
858.6840, 1687.880
859.1661, 1630.497
859.6482, 1566.242
860.1303, 1504.709
860.6124, 1446.267
861.0945, 1398.671
861.5767, 1366.719
862.0588, 1343.304
862.5409, 1318.865
863.0230, 1293.586
863.5051, 1257.894
863.9872, 1205.387
864.4694, 1160.244
864.9515, 1128.777
865.4336, 1105.434
865.9157, 1088.472
866.3978, 1076.286
866.8799, 1061.485
867.3621, 1042.358
867.8442, 1023.855
868.3263, 1008.343
868.8084, 991.1758
869.2905, 966.9437
869.7726, 941.6159
870.2548, 924.3123
870.7369, 915.8289
871.2190, 905.2370
871.7011, 885.2684
872.1832, 866.4575
872.6653, 854.3211
873.1475, 845.9190
873.6296, 839.7175
874.1117, 834.0886
874.5938, 825.4393
875.0759, 811.6149
875.5580, 798.2306
876.0402, 790.4849
876.5223, 786.0803
877.0044, 783.3860
877.4865, 780.9503
877.9686, 774.1777
878.4507, 762.4078
878.9329, 752.0910
879.4150, 749.7966
879.8971, 751.0178
880.3792, 743.8999
880.8613, 730.3447
881.3434, 724.4224
881.8256, 727.8903
882.3077, 728.3507
882.7898, 718.5500
883.2719, 704.7107
883.7540, 697.1273
884.2361, 695.9062
884.7183, 695.6188
885.2004, 696.9256
885.6825, 696.5807
886.1646, 693.9291
886.6467, 688.5079
887.1288, 677.0713
887.6110, 662.8236
888.0931, 662.6708
888.5752, 690.8438
889.0573, 705.0370
889.5394, 692.7513
890.0215, 681.1201
890.5037, 683.5581
890.9858, 691.1505
891.4679, 691.9472
891.9500, 685.3538
892.4321, 682.1245
892.9142, 684.5981
893.3964, 689.4559
893.8785, 697.6190
894.3606, 706.1827
894.8427, 713.4360
895.3248, 719.1097
895.8069, 721.6505
896.2891, 718.9681
896.7712, 723.2379
897.2533, 747.5793
897.7354, 774.2548
898.2175, 789.5522
898.6996, 797.7247
899.1818, 804.3648
899.6639, 811.5515
900.1460, 821.3068
900.6281, 833.7537
901.1102, 851.7878
901.5923, 886.7504
902.0745, 925.1533
902.5566, 940.0204
903.0387, 936.6362
903.5208, 941.2518
904.0029, 963.1782
904.4850, 988.0150
904.9672, 1000.491
905.4493, 1004.965
905.9314, 1012.211
906.4135, 1021.132
906.8956, 1026.710
907.3777, 1027.957
907.8599, 1025.121
908.3420, 1018.527
908.8241, 1006.974
909.3062, 985.8139
909.7883, 955.3187
910.2704, 931.8337
910.7526, 916.1214
911.2347, 900.9747
911.7168, 884.7719
912.1989, 865.3213
912.6810, 838.5444
913.1631, 808.2233
913.6453, 792.5673
914.1274, 798.4619
914.6095, 793.8114
915.0916, 770.9343
915.5737, 750.3705
916.0558, 742.0052
916.5380, 739.8303
917.0201, 736.0947
917.5022, 730.7338
917.9843, 724.9649
918.4664, 718.1033
918.9485, 711.9136
919.4307, 704.3470
919.9128, 699.8046
920.3949, 702.4450
920.8770, 709.4066
921.3591, 715.2295
921.8412, 719.5399
922.3234, 722.8294
922.8055, 720.9017
923.2876, 723.2996
923.7697, 735.0501
924.2518, 751.4387
924.7339, 766.4577
925.2161, 781.9708
925.6982, 806.6412
926.1803, 846.7064
926.6624, 885.1055
927.1445, 908.7086
927.6266, 934.4785
928.1088, 973.8757
928.5909, 1023.716
929.0730, 1079.795
929.5551, 1140.605
930.0372, 1203.714
930.5193, 1269.224
931.0015, 1334.989
931.4836, 1404.943
931.9657, 1470.299
932.4478, 1527.588
932.9299, 1570.082
933.4120, 1582.345
933.8942, 1560.556
934.3763, 1524.591
934.8584, 1492.345
935.3405, 1452.702
935.8226, 1388.084
936.3047, 1307.343
936.7869, 1222.868
937.2690, 1139.082
937.7511, 1061.269
938.2332, 992.0184
938.7153, 928.9173
939.1974, 866.9460
939.6796, 809.7309
940.1617, 766.6155
940.6438, 735.6276
941.1259, 711.0000
941.6080, 690.8254
942.0901, 672.0397
942.5723, 652.7721
943.0544, 632.3507
943.5365, 606.7398
944.0186, 578.4529
944.5007, 562.2839
944.9828, 557.9703
945.4650, 555.1642
945.9471, 550.6641
946.4292, 543.7850
946.9113, 533.3271
947.3934, 521.0486
947.8755, 512.8497
948.3577, 508.6940
948.8398, 500.6976
949.3219, 487.5243
949.8040, 479.1038
950.2861, 480.1682
950.7682, 485.4586
951.2504, 489.3431
951.7325, 491.3531
952.2146, 486.0859
952.6967, 470.8796
953.1788, 466.4858
953.6609, 479.8809
954.1431, 486.9258
954.6252, 470.9453
955.1073, 448.4404
955.5894, 448.4188
956.0715, 472.0205
956.5536, 483.5235
957.0358, 479.6097
957.5179, 473.1854
958.0000, 465.0908
958.4821, 457.7297
958.9642, 451.7479
959.4464, 448.4751
959.9285, 451.8865
960.4106, 464.6919
960.8927, 470.5849
961.3748, 465.3714
961.8569, 461.1800
962.3391, 461.3341
962.8212, 462.8459
963.3033, 464.0468
963.7854, 464.6291
964.2675, 463.4814
964.7496, 460.0013
965.2318, 456.2726
965.7139, 449.5322
966.1960, 446.2545
966.6781, 449.7607
967.1602, 456.2921
967.6423, 465.0759
968.1245, 474.5515
968.6066, 476.6639
969.0887, 465.4435
969.5708, 457.5980
970.0529, 456.1266
970.5350, 455.5515
971.0172, 453.2814
971.4993, 451.1866
971.9814, 451.4445
972.4635, 453.9516
972.9456, 456.8022
973.4277, 435.8250
973.9099, 452.2275
974.3920, 575.2418
974.8741, 669.6635
975.3562, 645.6985
975.8383, 565.5950
976.3204, 505.1404
976.8026, 471.2186
977.2847, 450.5555
977.7668, 446.2952
978.2489, 447.0637
978.7310, 456.1413
979.2131, 463.3181
979.6953, 460.3874
980.1774, 452.1595
980.6595, 445.8298
981.1416, 442.3486
981.6237, 440.6886
982.1058, 440.5619
982.5880, 442.2296
983.0701, 445.1826
983.5522, 450.5371
984.0343, 463.6468
984.5164, 478.0449
984.9985, 481.1458
985.4807, 470.6519
985.9628, 460.1396
986.4449, 450.2062
986.9270, 446.1654
987.4091, 456.0573
987.8912, 467.5163
988.3734, 469.4644
988.8555, 464.9499
989.3376, 461.9019
989.8197, 462.1108
990.3018, 462.3176
990.7839, 460.3817
991.2661, 459.2561
991.7482, 462.5003
992.2303, 465.4832
992.7124, 462.9927
993.1945, 456.7910
993.6766, 450.8918
994.1588, 445.9240
994.6409, 445.5481
995.1230, 454.9356
995.6051, 464.9633
996.0872, 472.1557
996.5693, 476.1747
997.0515, 475.3681
997.5336, 471.5072
998.0157, 468.0198
998.4978, 465.3568
998.9799, 467.3652
999.4620, 482.5017
999.9442, 494.9120
1000.426, 493.5552
1000.908, 486.0516
1001.391, 479.2286
1001.873, 474.0286
1002.355, 469.2241
1002.837, 463.7413
1003.319, 463.5079
1003.801, 478.4185
1004.283, 491.0847
1004.765, 487.9061
1005.247, 479.3634
1005.730, 475.6472
1006.212, 477.5142
1006.694, 484.2713
1007.176, 497.6531
1007.658, 504.2709
1008.140, 491.3538
1008.622, 477.5481
1009.104, 474.0660
1009.586, 475.6804
1010.069, 477.6527
1010.551, 479.0066
1011.033, 479.0271
1011.515, 477.0172
1011.997, 476.3477
1012.479, 482.3871
1012.961, 485.6301
1013.443, 476.3532
1013.926, 464.5999
1014.408, 461.7138
1014.890, 466.1894
1015.372, 470.2594
1015.854, 472.0881
1016.336, 472.1194
1016.818, 468.6215
1017.300, 465.6210
1017.782, 466.2649
1018.265, 467.7126
1018.747, 467.8558
1019.229, 466.0724
1019.711, 461.2771
1020.193, 452.5974
1020.675, 443.8997
1021.157, 432.5870
1021.639, 426.3259
1022.122, 433.5691
1022.604, 443.8347
1023.086, 446.6105
1023.568, 443.8147
1024.050, 444.1660
1024.532, 451.4021
1025.014, 451.9438
1025.496, 433.3347
1025.978, 418.4284
1026.461, 417.0601
1026.943, 422.9979
1027.425, 436.9128
1027.907, 452.2394
1028.389, 451.0765
1028.871, 424.7999
1029.353, 412.4868
1029.835, 437.6293
1030.318, 457.1069
1030.800, 449.9550
1031.282, 437.9593
1031.764, 440.6408
1032.246, 451.4283
1032.728, 452.0563
1033.210, 437.9564
1033.692, 429.0185
1034.174, 429.9128
1034.656, 432.9155
1035.139, 439.7038
1035.621, 444.4941
1036.103, 440.6926
1036.585, 432.8698
1037.067, 430.9422
1037.549, 436.2920
1038.031, 441.3466
1038.513, 447.9049
1038.996, 451.2585
1039.478, 449.7144
1039.960, 445.8732
1040.442, 438.3694
1040.924, 431.0319
1041.406, 431.8277
1041.888, 441.9500
1042.370, 447.4283
1042.853, 446.0924
1043.335, 444.1827
1043.817, 441.7904
1044.299, 440.1928
1044.781, 441.7301
1045.263, 442.6037
1045.745, 434.9479
1046.227, 418.9037
1046.709, 417.0054
1047.192, 436.6451
1047.674, 449.2859
1048.156, 450.5691
1048.638, 447.7719
1049.120, 443.0376
1049.602, 438.2103
1050.084, 435.7683
1050.566, 435.4243
1051.048, 434.6693
1051.531, 433.5030
1052.013, 431.8835
1052.495, 429.7186
1052.977, 427.2265
1053.459, 424.1442
1053.941, 422.1808
1054.423, 423.6718
1054.905, 427.2503
1055.388, 426.7328
1055.870, 421.8943
1056.352, 420.9359
1056.834, 424.5145
1057.316, 428.7247
1057.798, 432.3638
1058.280, 435.2807
1058.762, 437.5941
1059.245, 438.3918
1059.727, 433.8694
1060.209, 425.3342
1060.691, 423.6816
1061.173, 428.3249
1061.655, 428.4325
1062.137, 421.4836
1062.619, 415.1643
1063.101, 414.7577
1063.583, 419.0452
1064.066, 429.1630
1064.548, 441.4513
1065.030, 443.4823
1065.512, 438.2431
1065.994, 438.1646
1066.476, 444.5928
1066.958, 450.0343
1067.440, 450.4111
1067.923, 447.3838
1068.405, 439.9960
1068.887, 432.4380
1069.369, 433.0510
1069.851, 437.8693
1070.333, 438.4920
1070.815, 435.1552
1071.297, 433.5265
1071.780, 435.8033
1072.262, 437.5686
1072.744, 432.9329
1073.226, 428.8230
1073.708, 435.6403
1074.190, 443.7873
1074.672, 437.3065
1075.154, 423.1232
1075.636, 420.6182
1076.119, 433.6372
1076.601, 444.6453
1077.083, 442.6764
1077.565, 439.2913
1078.047, 440.3581
1078.529, 442.6559
1079.011, 444.0612
1079.493, 444.7126
1079.976, 445.2555
1080.458, 445.6600
1080.940, 444.9954
1081.422, 441.5567
1081.904, 439.8099
1082.386, 443.3592
1082.868, 445.8419
1083.350, 442.9607
1083.833, 438.4937
1084.315, 436.0992
1084.797, 435.7338
1085.279, 436.3609
1085.761, 438.4152
1086.243, 440.2966
1086.725, 442.5654
1087.207, 443.7508
1087.689, 443.1848
1088.172, 441.8358
1088.654, 440.2231
1089.136, 438.4566
1089.618, 437.0274
1090.100, 436.2043
1090.582, 432.4554
1091.064, 424.2309
1091.546, 418.0337
1092.028, 413.8495
1092.511, 416.5346
1092.993, 430.6922
1093.475, 447.3122
1093.957, 453.2665
1094.439, 450.2563
1094.921, 448.1515
1095.403, 446.9380
1095.885, 444.4903
1096.368, 440.6179
1096.850, 438.5692
1097.332, 439.6079
1097.814, 440.1039
1098.296, 435.8809
1098.778, 431.0174
1099.260, 435.4596
1099.742, 445.9585
1100.224, 453.2395
1100.707, 456.7492
1101.189, 455.6696
1101.671, 450.6689
1102.153, 446.0995
1102.635, 444.3570
1103.117, 445.5995
1103.599, 453.7400
1104.081, 461.8039
1104.563, 458.3527
1105.046, 449.4197
1105.528, 444.6456
1106.010, 444.7096
1106.492, 446.2032
1106.974, 447.9300
1107.456, 452.7533
1107.938, 469.6156
1108.420, 480.9244
1108.903, 467.1728
1109.385, 451.6895
1109.867, 459.7067
1110.349, 479.3584
1110.831, 487.1472
1111.313, 480.5879
1111.795, 475.1127
1112.277, 473.5717
1112.760, 474.4085
1113.242, 480.4669
1113.724, 485.0790
1114.206, 485.4673
1114.688, 482.6785
1115.170, 475.1127
1115.652, 465.4756
1116.134, 465.0273
1116.616, 477.5178
1117.099, 486.6051
1117.581, 493.2599
1118.063, 493.0094
1118.545, 481.6195
1119.027, 471.9724
1119.509, 473.2197
1119.991, 479.7865
1120.473, 482.3914
1120.955, 481.2871
1121.438, 477.4156
1121.920, 470.8602
1122.402, 473.0294
1122.884, 484.9176
1123.366, 491.2749
1123.848, 485.7250
1124.330, 478.1182
1124.812, 477.7364
1125.295, 482.2017
1125.777, 489.7551
1126.259, 497.6300
1126.741, 497.6061
1127.223, 492.1242
1127.705, 487.7584
1128.187, 486.9719
1128.669, 493.9018
1129.151, 512.3172
1129.634, 527.9017
1130.116, 526.7843
1130.598, 519.1399
1131.080, 509.4884
1131.562, 502.2672
1132.044, 504.9474
1132.526, 513.7097
1133.008, 518.0777
1133.490, 515.6301
1133.973, 514.2570
1134.455, 517.3728
1134.937, 520.6513
1135.419, 524.4017
1135.901, 526.2457
1136.383, 523.5999
1136.865, 519.1265
1137.347, 516.2577
1137.830, 514.6530
1138.312, 511.8824
1138.794, 506.1068
1139.276, 504.3185
1139.758, 507.3445
1140.240, 512.8932
1140.722, 522.2621
1141.204, 528.1924
1141.687, 524.7051
1142.169, 517.1398
1142.651, 515.3376
1143.133, 518.3646
1143.615, 518.1422
1144.097, 515.0771
1144.579, 515.0215
1145.061, 518.4243
1145.543, 521.8440
1146.026, 523.9086
1146.508, 524.3457
1146.990, 522.1738
1147.472, 520.2417
1147.954, 525.4067
1148.436, 531.9042
1148.918, 527.2951
1149.400, 517.2296
1149.882, 514.8380
1150.365, 520.6921
1150.847, 526.8335
1151.329, 530.1990
1151.811, 532.6260
1152.293, 534.7349
1152.775, 536.7630
1153.257, 539.9799
1153.739, 542.0956
1154.222, 539.6225
1154.704, 535.3826
1155.186, 534.8290
1155.668, 538.3232
1156.150, 540.7255
1156.632, 541.2250
1157.114, 541.2593
1157.596, 540.8427
1158.078, 539.7437
1158.561, 536.5504
1159.043, 535.4217
1159.525, 541.1026
1160.007, 549.4653
1160.489, 550.5034
1160.971, 544.3332
1161.453, 538.2822
1161.935, 532.4108
1162.417, 532.9110
1162.900, 540.3741
1163.382, 546.7961
1163.864, 548.6016
1164.346, 545.4094
1164.828, 535.4255
1165.310, 523.3340
1165.792, 514.8180
1166.274, 510.8165
1166.757, 516.1491
1167.239, 526.1596
1167.721, 530.4579
1168.203, 528.4789
1168.685, 526.5814
1169.167, 527.0369
1169.649, 529.6433
1170.131, 538.8163
1170.614, 544.2494
1171.096, 537.5887
1171.578, 527.8812
1172.060, 522.0244
1172.542, 518.4807
1173.024, 512.1804
1173.506, 503.2973
1173.988, 503.9950
1174.470, 523.5688
1174.953, 531.5858
1175.435, 522.5820
1175.917, 513.6981
1176.399, 508.7648
1176.881, 509.0752
1177.363, 517.0035
1177.845, 526.7602
1178.327, 526.1421
1178.809, 517.6451
1179.292, 519.0109
1179.774, 527.8072
1180.256, 526.2539
1180.738, 515.0984
1181.220, 512.3284
1181.702, 523.3976
1182.184, 536.2189
1182.666, 542.5810
1183.149, 544.8352
1183.631, 543.1378
1184.113, 540.7043
1184.595, 541.7096
1185.077, 543.7595
1185.559, 542.0968
1186.041, 538.4503
1186.523, 540.2989
1187.005, 550.1190
1187.488, 553.4034
1187.970, 536.7393
1188.452, 528.0570
1188.934, 540.6878
1189.416, 552.8587
1189.898, 556.9638
1190.380, 554.3789
1190.862, 544.1614
1191.344, 529.8677
1191.827, 523.3348
1192.309, 525.0938
1192.791, 529.1011
1193.273, 535.6680
1193.755, 532.3504
1194.237, 517.4844
1194.719, 513.0434
1195.201, 529.2934
1195.684, 546.0901
1196.166, 541.4305
1196.648, 529.4556
1197.130, 532.4916
1197.612, 542.0446
1198.094, 546.9200
1198.576, 546.5867
1199.058, 539.5333
1199.541, 528.1129
1200.023, 519.9147
1200.505, 517.0904
1200.987, 519.6440
1201.469, 538.6234
1201.951, 547.3380
1202.433, 521.9125
1202.915, 499.9068
1203.397, 512.1365
1203.880, 534.2041
1204.362, 539.0400
1204.844, 530.1913
1205.326, 524.4531
1205.808, 522.8268
1206.290, 517.2770
1206.772, 506.8311
1207.254, 502.8788
1207.736, 507.7172
1208.219, 518.6500
1208.701, 534.6507
1209.183, 545.0422
1209.665, 534.7594
1210.147, 517.8817
1210.629, 518.6942
1211.111, 528.9299
1211.593, 536.6134
1212.076, 541.2135
1212.558, 542.9622
1213.040, 542.7764
1213.522, 543.0354
1214.004, 544.4031
1214.486, 547.1180
1214.968, 555.6678
1215.450, 559.2881
1215.932, 545.1099
1216.415, 535.8455
1216.897, 550.5944
1217.379, 570.8741
1217.861, 576.0883
1218.343, 570.5009
1218.825, 571.4697
1219.307, 580.5271
1219.789, 579.1539
1220.271, 566.7633
1220.754, 561.0917
1221.236, 565.0633
1221.718, 569.9094
1222.200, 571.6716
1222.682, 573.3140
1223.164, 578.0615
1223.646, 583.1254
1224.128, 585.3140
1224.611, 585.0830
1225.093, 580.7709
1225.575, 575.8435
1226.057, 576.8767
1226.539, 582.1447
1227.021, 584.0552
1227.503, 580.6129
1227.985, 577.4942
1228.468, 576.6201
1228.950, 575.2595
1229.432, 571.2442
1229.914, 569.2995
1230.396, 570.9509
1230.878, 575.9221
1231.360, 584.9293
1231.842, 595.6049
1232.324, 603.2736
1232.807, 607.5615
1233.289, 602.8111
1233.771, 590.8121
1234.253, 582.6857
1234.735, 579.7093
1235.217, 581.3228
1235.699, 586.5891
1236.181, 590.4835
1236.663, 589.7472
1237.146, 586.6856
1237.628, 581.5526
1238.110, 576.7215
1238.592, 572.8851
1239.074, 571.2332
1239.556, 574.5866
1240.038, 580.1603
1240.520, 582.1464
1241.003, 580.3090
1241.485, 580.8505
1241.967, 583.7814
1242.449, 589.6204
1242.931, 599.7274
1243.413, 607.2314
1243.895, 610.2793
1244.377, 611.5646
1244.859, 612.4677
1245.342, 614.2801
1245.824, 619.4196
1246.306, 625.2001
1246.788, 625.3345
1247.270, 622.7270
1247.752, 624.9612
1248.234, 627.9819
1248.716, 618.8857
1249.198, 601.3115
1249.681, 594.7541
1250.163, 605.8348
1250.645, 619.4899
1251.127, 637.3529
1251.609, 647.0306
1252.091, 639.5557
1252.573, 630.9418
1253.055, 626.3864
1253.538, 625.1787
1254.020, 627.6108
1254.502, 631.5821
1254.984, 632.1568
1255.466, 629.6983
1255.948, 626.3264
1256.430, 622.7859
1256.912, 625.2686
1257.395, 632.7128
1257.877, 637.0418
1258.359, 636.1058
1258.841, 632.6094
1259.323, 627.1743
1259.805, 624.4811
1260.287, 629.7511
1260.769, 636.4987
1261.251, 643.7874
1261.734, 647.6926
1262.216, 641.0259
1262.698, 631.4951
1263.180, 632.0457
1263.662, 640.3752
1264.144, 644.4914
1264.626, 643.3441
1265.108, 644.2607
1265.590, 647.4969
1266.073, 650.5646
1266.555, 652.9821
1267.037, 649.9536
1267.519, 639.7303
1268.001, 632.8452
1268.483, 639.1716
1268.965, 649.2309
##END=



