##NAMES=Alloriite
##RRUFFID=R070560
##IDEAL CHEMISTRY=(Na,K,Ca)_24_(Na,Ca)_4_Ca_4_(Si,Al)_48_O_96_(S^6+^O_4_)_4_(SO_3_,CO_3_)_2_(OH,Cl)_2_(H_2_O,OH)_4_
##LOCALITY=Monte Cavalluccio, near Campagnano di Roma, Rome, Latium, Italy
##OWNER=Michael Scott
##SOURCE=Michael Scott
##DESCRIPTION=Colorless prisms in vug
##STATUS=The identification of this mineral has been confirmed by single-crystal X-ray diffraction.
##URL=rruff.info/R070560
91.53320, 1337.774
92.01532, 1328.690
92.49744, 1321.823
92.97955, 1337.659
93.46167, 1357.752
93.94379, 1365.717
94.42590, 1369.046
94.90802, 1370.435
95.39014, 1370.045
95.87225, 1368.408
96.35437, 1363.846
96.83649, 1356.127
97.31860, 1346.910
97.80072, 1337.505
98.28284, 1326.969
98.76495, 1314.391
99.24707, 1301.833
99.72919, 1288.918
100.2113, 1276.982
100.6934, 1265.778
101.1755, 1255.428
101.6577, 1246.388
102.1398, 1238.972
102.6219, 1233.254
103.1040, 1228.531
103.5861, 1224.834
104.0682, 1221.529
104.5504, 1218.006
105.0325, 1214.234
105.5146, 1210.805
105.9967, 1208.570
106.4788, 1208.220
106.9609, 1206.919
107.4431, 1203.488
107.9252, 1199.206
108.4073, 1195.941
108.8894, 1194.451
109.3715, 1193.734
109.8536, 1191.948
110.3358, 1188.834
110.8179, 1185.873
111.3000, 1184.002
111.7821, 1183.112
112.2642, 1182.104
112.7463, 1180.123
113.2285, 1178.130
113.7106, 1177.232
114.1927, 1177.864
114.6748, 1178.920
115.1569, 1178.984
115.6390, 1178.006
116.1212, 1176.016
116.6033, 1171.615
117.0854, 1166.846
117.5675, 1163.992
118.0496, 1164.393
118.5317, 1167.183
119.0139, 1168.235
119.4960, 1165.526
119.9781, 1163.037
120.4602, 1161.296
120.9423, 1160.280
121.4244, 1159.939
121.9066, 1160.360
122.3887, 1161.682
122.8708, 1161.639
123.3529, 1159.142
123.8350, 1156.587
124.3171, 1155.098
124.7993, 1154.706
125.2814, 1154.768
125.7635, 1154.720
126.2456, 1154.557
126.7277, 1154.058
127.2098, 1151.924
127.6920, 1150.024
128.1741, 1150.844
128.6562, 1155.250
129.1383, 1160.505
129.6204, 1163.136
130.1025, 1163.489
130.5847, 1163.254
131.0668, 1162.837
131.5489, 1162.309
132.0310, 1161.912
132.5131, 1161.696
132.9952, 1161.657
133.4774, 1161.705
133.9595, 1161.849
134.4416, 1162.246
134.9237, 1162.890
135.4058, 1163.704
135.8879, 1165.418
136.3701, 1168.707
136.8522, 1172.638
137.3343, 1177.360
137.8164, 1182.831
138.2985, 1187.711
138.7806, 1189.409
139.2628, 1185.234
139.7449, 1182.734
140.2270, 1183.490
140.7091, 1185.543
141.1912, 1187.406
141.6733, 1188.394
142.1555, 1188.465
142.6376, 1187.439
143.1197, 1184.627
143.6018, 1181.360
144.0839, 1177.749
144.5660, 1173.750
145.0482, 1169.146
145.5303, 1163.717
146.0124, 1157.654
146.4945, 1152.338
146.9766, 1147.899
147.4587, 1143.889
147.9409, 1140.381
148.4230, 1137.248
148.9051, 1133.883
149.3872, 1129.460
149.8693, 1124.473
150.3514, 1121.158
150.8336, 1120.897
151.3157, 1121.504
151.7978, 1120.854
152.2799, 1118.710
152.7620, 1116.679
153.2441, 1116.726
153.7263, 1117.713
154.2084, 1117.620
154.6905, 1115.039
155.1726, 1111.037
155.6547, 1107.905
156.1368, 1105.816
156.6190, 1104.416
157.1011, 1103.741
157.5832, 1103.499
158.0653, 1103.100
158.5474, 1102.024
159.0295, 1100.348
159.5117, 1099.153
159.9938, 1098.901
160.4759, 1098.699
160.9580, 1098.309
161.4401, 1097.707
161.9222, 1096.892
162.4044, 1095.730
162.8865, 1094.014
163.3686, 1093.167
163.8507, 1093.970
164.3328, 1094.891
164.8149, 1095.175
165.2971, 1094.847
165.7792, 1094.499
166.2613, 1094.917
166.7434, 1096.745
167.2255, 1097.371
167.7076, 1096.531
168.1898, 1094.891
168.6719, 1092.566
169.1540, 1089.683
169.6361, 1086.890
170.1182, 1085.110
170.6003, 1084.709
171.0825, 1084.586
171.5646, 1084.956
172.0467, 1085.492
172.5288, 1085.833
173.0109, 1085.873
173.4930, 1085.722
173.9752, 1085.528
174.4573, 1085.300
174.9394, 1085.004
175.4215, 1084.582
175.9036, 1084.078
176.3857, 1083.692
176.8679, 1083.682
177.3500, 1083.441
177.8321, 1082.078
178.3142, 1079.511
178.7963, 1076.908
179.2784, 1074.857
179.7606, 1073.326
180.2427, 1072.251
180.7248, 1072.089
181.2069, 1071.972
181.6890, 1071.105
182.1711, 1069.410
182.6533, 1067.450
183.1354, 1065.527
183.6175, 1063.548
184.0996, 1062.360
184.5817, 1063.270
185.0638, 1064.380
185.5460, 1064.732
186.0281, 1064.100
186.5102, 1062.605
186.9923, 1060.275
187.4744, 1056.766
187.9565, 1053.297
188.4387, 1048.932
188.9208, 1045.269
189.4029, 1043.981
189.8850, 1045.452
190.3671, 1048.115
190.8492, 1048.922
191.3314, 1046.291
191.8135, 1044.261
192.2956, 1043.812
192.7777, 1043.647
193.2598, 1042.628
193.7419, 1040.311
194.2241, 1037.040
194.7062, 1033.640
195.1883, 1028.347
195.6704, 1025.120
196.1525, 1025.346
196.6346, 1027.272
197.1168, 1029.273
197.5989, 1030.710
198.0810, 1031.193
198.5631, 1029.389
199.0452, 1022.615
199.5273, 1017.239
200.0095, 1014.690
200.4916, 1014.134
200.9737, 1014.366
201.4558, 1014.997
201.9379, 1015.809
202.4200, 1016.163
202.9022, 1015.961
203.3843, 1015.614
203.8664, 1015.190
204.3485, 1014.722
204.8306, 1014.380
205.3127, 1014.413
205.7949, 1014.398
206.2770, 1013.418
206.7591, 1011.057
207.2412, 1008.711
207.7233, 1007.070
208.2054, 1006.094
208.6876, 1005.723
209.1697, 1006.685
209.6518, 1007.619
210.1339, 1006.517
210.6160, 1002.794
211.0981, 998.5167
211.5803, 995.0197
212.0624, 992.3061
212.5445, 990.6251
213.0266, 990.7584
213.5087, 991.6375
213.9908, 992.3602
214.4730, 992.8168
214.9551, 993.0239
215.4372, 993.1109
215.9193, 993.1710
216.4014, 992.5471
216.8836, 989.7475
217.3657, 986.9189
217.8478, 985.7288
218.3299, 986.6058
218.8120, 988.2285
219.2941, 988.7818
219.7763, 987.9397
220.2584, 987.0677
220.7405, 985.9716
221.2226, 985.1813
221.7047, 985.4852
222.1868, 987.0165
222.6690, 988.5652
223.1511, 987.9062
223.6332, 983.4388
224.1153, 980.4232
224.5974, 979.9581
225.0795, 980.4953
225.5617, 981.3038
226.0438, 982.0674
226.5259, 982.4018
227.0080, 981.4498
227.4901, 977.7918
227.9722, 975.5124
228.4544, 975.8616
228.9365, 976.7657
229.4186, 976.4218
229.9007, 974.4039
230.3828, 971.8223
230.8649, 970.6664
231.3471, 972.2722
231.8292, 973.2230
232.3113, 973.0274
232.7934, 972.5184
233.2755, 972.3919
233.7576, 972.8322
234.2398, 973.5363
234.7219, 974.0335
235.2040, 974.5195
235.6861, 974.3093
236.1682, 972.3334
236.6503, 970.2410
237.1325, 969.8057
237.6146, 971.4379
238.0967, 973.8145
238.5788, 974.9601
239.0609, 974.2145
239.5430, 973.6332
240.0252, 973.8654
240.5073, 974.0001
240.9894, 972.7186
241.4715, 969.7137
241.9536, 966.6025
242.4357, 965.7790
242.9179, 967.9687
243.4000, 969.2480
243.8821, 968.8289
244.3642, 967.5238
244.8463, 966.1394
245.3284, 964.8257
245.8106, 963.4713
246.2927, 961.7916
246.7748, 959.7450
247.2569, 958.3061
247.7390, 958.1804
248.2211, 958.4921
248.7033, 958.1555
249.1854, 956.9655
249.6675, 955.4812
250.1496, 954.4207
250.6317, 953.6541
251.1138, 952.1688
251.5960, 948.4713
252.0781, 944.4725
252.5602, 943.2491
253.0423, 945.5809
253.5244, 947.8113
254.0065, 945.9326
254.4887, 941.3105
254.9708, 937.5964
255.4529, 936.0931
255.9350, 935.8527
256.4171, 935.6701
256.8992, 935.5125
257.3813, 935.4089
257.8635, 935.6211
258.3456, 935.8859
258.8277, 935.6929
259.3098, 934.7470
259.7919, 933.3505
260.2740, 931.7374
260.7562, 929.7403
261.2383, 928.2313
261.7204, 928.2518
262.2025, 928.9241
262.6846, 929.1766
263.1667, 928.5367
263.6489, 927.5440
264.1310, 927.0237
264.6131, 927.1179
265.0952, 927.0615
265.5773, 926.3455
266.0594, 925.3773
266.5416, 924.5353
267.0237, 923.9572
267.5058, 923.4545
267.9879, 922.5734
268.4700, 921.0870
268.9521, 920.3292
269.4343, 921.8617
269.9164, 923.7522
270.3985, 924.4502
270.8806, 923.5358
271.3627, 921.9217
271.8448, 920.5868
272.3270, 919.4972
272.8091, 918.8227
273.2912, 918.6895
273.7733, 918.9470
274.2554, 919.7078
274.7375, 920.9591
275.2197, 922.2003
275.7018, 922.7926
276.1839, 922.6041
276.6660, 922.5843
277.1481, 923.3505
277.6302, 923.9479
278.1124, 923.8235
278.5945, 922.9774
279.0766, 921.8372
279.5587, 920.6146
280.0408, 919.2168
280.5229, 918.5790
281.0051, 919.3193
281.4872, 920.4125
281.9693, 921.9950
282.4514, 923.7002
282.9335, 924.5460
283.4156, 923.1357
283.8978, 919.3813
284.3799, 917.5803
284.8620, 919.9802
285.3441, 922.1801
285.8262, 922.1045
286.3083, 920.6179
286.7905, 919.8263
287.2726, 921.4854
287.7547, 925.2419
288.2368, 927.6296
288.7189, 927.1489
289.2010, 927.0132
289.6832, 928.5109
290.1653, 930.8207
290.6474, 932.7053
291.1295, 933.4508
291.6116, 933.2426
292.0938, 932.7421
292.5759, 931.3829
293.0580, 930.5958
293.5401, 930.8085
294.0222, 931.6260
294.5043, 932.5449
294.9865, 933.3300
295.4686, 934.2689
295.9507, 936.2975
296.4328, 941.0944
296.9149, 943.8575
297.3970, 942.3982
297.8792, 939.8735
298.3613, 939.1223
298.8434, 940.9654
299.3255, 944.0137
299.8076, 946.0462
300.2897, 946.8779
300.7719, 947.0013
301.2540, 946.2276
301.7361, 945.0370
302.2182, 943.2402
302.7003, 941.0651
303.1824, 939.5048
303.6646, 940.0740
304.1467, 943.7316
304.6288, 946.0107
305.1109, 945.8620
305.5930, 945.3535
306.0751, 945.6268
306.5573, 946.5006
307.0394, 946.9379
307.5215, 945.8541
308.0036, 943.0902
308.4857, 941.0272
308.9678, 939.7993
309.4500, 939.1793
309.9321, 939.8201
310.4142, 941.0195
310.8963, 941.3164
311.3784, 939.5215
311.8605, 936.0634
312.3427, 934.3843
312.8248, 936.6693
313.3069, 938.2592
313.7890, 937.4343
314.2711, 935.6943
314.7532, 935.2495
315.2354, 937.2620
315.7175, 940.6162
316.1996, 942.0242
316.6817, 940.1658
317.1638, 938.3301
317.6459, 936.8593
318.1281, 935.5932
318.6102, 934.3854
319.0923, 933.1898
319.5744, 932.0717
320.0565, 931.0883
320.5386, 930.0572
321.0208, 929.6277
321.5029, 930.0107
321.9850, 930.7509
322.4671, 931.8051
322.9492, 933.0330
323.4313, 934.0275
323.9135, 934.3770
324.3956, 934.0540
324.8777, 933.1574
325.3598, 931.1477
325.8419, 929.0524
326.3240, 927.2139
326.8062, 925.6151
327.2883, 924.0391
327.7704, 922.2418
328.2525, 920.2728
328.7346, 918.9390
329.2167, 919.0157
329.6989, 918.8826
330.1810, 918.2685
330.6631, 917.1813
331.1452, 915.5544
331.6273, 913.2794
332.1094, 910.6944
332.5916, 908.8879
333.0737, 908.3517
333.5558, 907.8019
334.0379, 906.7833
334.5200, 905.7640
335.0021, 905.3562
335.4843, 905.7293
335.9664, 906.2411
336.4485, 905.7685
336.9306, 903.8975
337.4127, 902.2553
337.8948, 901.0767
338.3770, 900.0869
338.8591, 899.1291
339.3412, 898.1864
339.8233, 897.3527
340.3055, 896.8605
340.7876, 896.7991
341.2697, 896.1778
341.7518, 894.6589
342.2339, 892.8582
342.7160, 890.3390
343.1982, 887.6906
343.6803, 886.2988
344.1624, 887.6329
344.6445, 890.8943
345.1266, 891.9769
345.6087, 889.8738
346.0909, 887.0920
346.5730, 883.9530
347.0551, 880.9133
347.5372, 878.5804
348.0193, 877.2054
348.5014, 876.5401
348.9836, 876.3057
349.4657, 876.7958
349.9478, 876.7280
350.4299, 875.5597
350.9120, 873.8278
351.3941, 871.6450
351.8763, 869.0671
352.3584, 866.7042
352.8405, 865.2205
353.3226, 864.6248
353.8047, 864.4031
354.2868, 865.0521
354.7690, 865.4647
355.2511, 864.7662
355.7332, 863.1650
356.2153, 861.6153
356.6974, 861.2303
357.1795, 861.4767
357.6617, 859.8316
358.1438, 854.9118
358.6259, 850.9872
359.1080, 851.5289
359.5901, 854.4022
360.0722, 856.2154
360.5544, 855.4376
361.0365, 853.4565
361.5186, 852.1138
362.0007, 851.4662
362.4828, 851.0995
362.9649, 851.3824
363.4471, 851.5325
363.9292, 850.4555
364.4113, 847.7575
364.8934, 845.0968
365.3755, 843.7269
365.8576, 843.5029
366.3398, 843.7545
366.8219, 844.6976
367.3040, 845.5141
367.7861, 845.1559
368.2682, 843.7494
368.7503, 842.5541
369.2325, 842.1557
369.7146, 842.2608
370.1967, 842.5728
370.6788, 843.1791
371.1609, 843.2598
371.6430, 841.6505
372.1252, 838.9542
372.6073, 837.2331
373.0894, 837.5897
373.5715, 838.3484
374.0536, 838.4501
374.5357, 837.8877
375.0179, 836.4681
375.5000, 833.7955
375.9821, 830.4875
376.4642, 828.0026
376.9463, 826.5720
377.4284, 825.3106
377.9106, 823.7211
378.3927, 822.1345
378.8748, 821.1441
379.3569, 820.9238
379.8390, 821.2184
380.3211, 821.8835
380.8033, 823.0850
381.2854, 823.5886
381.7675, 822.6180
382.2496, 821.4094
382.7317, 820.9002
383.2138, 821.1344
383.6960, 821.7546
384.1781, 822.6275
384.6602, 823.6783
385.1423, 823.9022
385.6244, 822.2492
386.1065, 821.0861
386.5887, 821.4889
387.0708, 822.8456
387.5529, 824.1082
388.0350, 824.8177
388.5171, 825.2179
388.9992, 825.8535
389.4814, 827.0286
389.9635, 827.9742
390.4456, 829.1497
390.9277, 829.8080
391.4098, 829.0162
391.8919, 826.8484
392.3741, 824.4696
392.8562, 823.1979
393.3383, 823.3100
393.8204, 822.3635
394.3025, 818.5940
394.7846, 815.6677
395.2668, 815.4045
395.7489, 816.8401
396.2310, 818.0949
396.7131, 818.0698
397.1952, 817.1082
397.6773, 816.3715
398.1595, 815.7607
398.6416, 815.5794
399.1237, 816.2884
399.6058, 817.1268
400.0879, 817.5822
400.5700, 817.4863
401.0522, 816.7719
401.5343, 815.0945
402.0164, 812.1945
402.4985, 809.8867
402.9806, 807.3591
403.4627, 806.3997
403.9449, 808.7463
404.4270, 813.3611
404.9091, 817.6950
405.3912, 820.4153
405.8733, 821.5920
406.3554, 821.0647
406.8376, 817.8822
407.3197, 815.3615
407.8018, 815.4962
408.2839, 816.6387
408.7660, 817.0521
409.2481, 816.1940
409.7303, 815.3284
410.2124, 816.1104
410.6945, 818.3873
411.1766, 819.5961
411.6587, 818.3303
412.1408, 816.9844
412.6230, 818.2150
413.1051, 821.6410
413.5872, 824.4199
414.0693, 824.9695
414.5514, 824.2880
415.0335, 823.6117
415.5157, 822.9257
415.9978, 823.2022
416.4799, 825.5589
416.9620, 829.3290
417.4441, 832.2877
417.9262, 833.7589
418.4084, 835.2033
418.8905, 837.4023
419.3726, 840.2065
419.8547, 843.1805
420.3368, 846.1332
420.8189, 849.3749
421.3011, 853.7427
421.7832, 859.9252
422.2653, 864.2593
422.7474, 865.0209
423.2295, 864.6776
423.7116, 865.2945
424.1938, 867.0080
424.6759, 868.8790
425.1580, 870.1371
425.6401, 870.8442
426.1222, 872.2187
426.6043, 875.4581
427.0865, 877.8629
427.5686, 878.3326
428.0507, 877.6975
428.5328, 877.0121
429.0149, 876.6926
429.4970, 876.7139
429.9792, 877.0809
430.4613, 878.1094
430.9434, 878.7832
431.4255, 879.3260
431.9076, 879.4006
432.3897, 878.6795
432.8719, 877.2911
433.3540, 875.6091
433.8361, 873.8220
434.3182, 872.0290
434.8003, 870.9863
435.2824, 871.4043
435.7646, 871.5068
436.2467, 870.3880
436.7288, 868.9933
437.2109, 868.3348
437.6930, 868.7305
438.1751, 869.7238
438.6573, 870.8316
439.1394, 872.0596
439.6215, 873.2161
440.1036, 873.4799
440.5857, 874.6259
441.0678, 877.8386
441.5500, 882.8527
442.0321, 888.5921
442.5142, 895.4863
442.9963, 902.3961
443.4784, 906.6696
443.9605, 907.8552
444.4427, 909.9514
444.9248, 915.3458
445.4069, 922.7432
445.8890, 929.7934
446.3711, 936.4706
446.8532, 942.6803
447.3354, 948.6848
447.8175, 954.1313
448.2996, 957.8490
448.7817, 959.3427
449.2638, 960.5859
449.7459, 963.8605
450.2281, 969.3262
450.7102, 974.0223
451.1923, 976.7197
451.6744, 979.6132
452.1565, 984.3795
452.6386, 990.5425
453.1208, 996.6214
453.6029, 1001.948
454.0850, 1006.444
454.5671, 1009.874
455.0492, 1011.232
455.5313, 1012.845
456.0135, 1015.082
456.4956, 1017.358
456.9777, 1019.265
457.4598, 1020.724
457.9419, 1021.922
458.4240, 1023.147
458.9062, 1024.418
459.3883, 1024.395
459.8704, 1021.722
460.3525, 1019.216
460.8346, 1018.161
461.3167, 1017.372
461.7989, 1015.291
462.2810, 1011.305
462.7631, 1006.158
463.2452, 1001.013
463.7273, 995.9816
464.2094, 990.2240
464.6916, 983.1532
465.1737, 975.7269
465.6558, 968.1572
466.1379, 960.6610
466.6200, 953.7789
467.1021, 948.1231
467.5843, 943.1238
468.0664, 937.7740
468.5485, 932.0593
469.0306, 925.9055
469.5127, 918.9117
469.9948, 911.6640
470.4770, 905.3368
470.9591, 900.3252
471.4412, 894.9047
471.9233, 887.4573
472.4054, 879.1999
472.8875, 872.5116
473.3697, 867.8566
473.8518, 864.1237
474.3339, 860.5876
474.8160, 857.2115
475.2981, 853.0058
475.7802, 847.0650
476.2624, 841.2845
476.7445, 836.3242
477.2266, 832.1224
477.7087, 828.6074
478.1908, 825.7224
478.6729, 823.3152
479.1551, 821.1907
479.6372, 819.7820
480.1193, 817.5555
480.6014, 813.9601
481.0835, 810.1427
481.5656, 806.6461
482.0478, 803.4900
482.5299, 800.4329
483.0120, 797.2543
483.4941, 794.1877
483.9762, 792.3825
484.4583, 792.8310
484.9405, 792.5158
485.4226, 789.9135
485.9047, 787.0214
486.3868, 785.9070
486.8689, 786.6165
487.3510, 786.7200
487.8332, 783.3416
488.3153, 777.4018
488.7974, 773.4568
489.2795, 772.2115
489.7616, 771.6413
490.2437, 770.8916
490.7259, 769.9323
491.2080, 768.6394
491.6901, 766.8936
492.1722, 765.0148
492.6543, 762.9225
493.1364, 760.8683
493.6186, 759.9114
494.1007, 760.5933
494.5828, 761.1533
495.0649, 759.1279
495.5470, 754.1489
496.0291, 751.1823
496.5113, 752.2396
496.9934, 753.6144
497.4755, 753.1772
497.9576, 751.3127
498.4397, 749.0378
498.9218, 746.8055
499.4040, 744.8907
499.8861, 743.9944
500.3682, 744.9136
500.8503, 745.4218
501.3324, 745.4889
501.8145, 745.2244
502.2967, 744.6129
502.7788, 743.7199
503.2609, 742.6403
503.7430, 741.3499
504.2251, 740.0196
504.7072, 739.4251
505.1894, 740.0047
505.6715, 740.3076
506.1536, 739.6456
506.6357, 738.7789
507.1178, 738.3329
507.5999, 738.3733
508.0821, 738.4538
508.5642, 738.5120
509.0463, 738.3568
509.5284, 737.0753
510.0105, 734.2415
510.4926, 732.0035
510.9748, 732.2040
511.4569, 733.8339
511.9390, 734.4788
512.4211, 733.7726
512.9032, 732.5037
513.3853, 730.5427
513.8674, 728.4081
514.3495, 726.9572
514.8317, 726.3693
515.3138, 726.6174
515.7959, 727.9830
516.2780, 730.6582
516.7601, 731.2477
517.2422, 728.5925
517.7244, 725.5107
518.2065, 722.2856
518.6886, 719.4469
519.1707, 717.8140
519.6528, 717.6366
520.1349, 718.1574
520.6171, 718.3015
521.0992, 718.0541
521.5813, 717.5065
522.0634, 716.1053
522.5455, 714.9649
523.0276, 714.8152
523.5098, 715.1717
523.9919, 715.0898
524.4740, 714.0867
524.9561, 712.6599
525.4382, 711.2867
525.9203, 709.9614
526.4025, 709.5046
526.8846, 710.5849
527.3667, 711.9620
527.8488, 712.4913
528.3309, 712.2599
528.8130, 711.7519
529.2952, 710.7374
529.7773, 709.7857
530.2594, 709.8434
530.7415, 710.5674
531.2236, 710.2009
531.7057, 707.7487
532.1879, 704.4404
532.6700, 702.6783
533.1521, 703.3218
533.6342, 703.6215
534.1163, 703.2542
534.5984, 702.7688
535.0806, 702.3407
535.5627, 702.0995
536.0448, 702.3419
536.5269, 703.3022
537.0090, 704.6505
537.4911, 705.3769
537.9733, 705.3356
538.4554, 704.9795
538.9375, 704.1960
539.4196, 703.2675
539.9017, 702.3785
540.3839, 701.5084
540.8660, 700.4764
541.3481, 698.8387
541.8302, 697.1429
542.3123, 696.8923
542.7944, 698.2945
543.2766, 699.3359
543.7587, 699.1148
544.2408, 698.2126
544.7229, 697.4800
545.2050, 696.9332
545.6871, 696.4186
546.1693, 696.0684
546.6514, 695.6149
547.1335, 694.6097
547.6156, 693.1298
548.0977, 691.6995
548.5798, 690.5505
549.0620, 689.8170
549.5441, 689.9606
550.0262, 692.4042
550.5083, 693.8091
550.9904, 693.2078
551.4725, 692.2766
551.9547, 692.5297
552.4368, 693.7509
552.9189, 694.5264
553.4010, 693.7019
553.8831, 691.7317
554.3652, 690.4689
554.8474, 690.1646
555.3295, 689.9596
555.8116, 689.8245
556.2937, 689.5891
556.7758, 689.0908
557.2579, 688.3387
557.7401, 687.5270
558.2222, 686.6176
558.7043, 685.7842
559.1864, 685.5219
559.6685, 685.8460
560.1506, 685.6192
560.6328, 683.8559
561.1149, 681.6150
561.5970, 681.5601
562.0791, 684.6265
562.5612, 686.4357
563.0433, 685.2620
563.5255, 683.2045
564.0076, 681.6592
564.4897, 680.8557
564.9718, 680.9793
565.4539, 682.3097
565.9360, 684.1309
566.4182, 683.8461
566.9003, 679.5284
567.3824, 676.7586
567.8645, 676.8308
568.3466, 677.6070
568.8287, 677.7983
569.3109, 677.4608
569.7930, 677.3813
570.2751, 678.3609
570.7572, 679.5818
571.2393, 678.9263
571.7214, 676.1779
572.2036, 674.1728
572.6857, 673.7325
573.1678, 674.5425
573.6499, 676.8693
574.1320, 680.6569
574.6141, 682.8468
575.0963, 681.6158
575.5784, 679.2241
576.0605, 677.1596
576.5426, 675.5887
577.0247, 674.7745
577.5068, 674.8895
577.9890, 675.5245
578.4711, 675.9008
578.9532, 675.7825
579.4353, 676.0263
579.9174, 676.9686
580.3995, 677.8945
580.8817, 678.8671
581.3638, 679.4971
581.8459, 678.8615
582.3280, 676.3945
582.8101, 673.5433
583.2922, 672.9959
583.7744, 674.9730
584.2565, 675.9608
584.7386, 675.0007
585.2207, 673.6766
585.7029, 672.9830
586.1850, 672.8000
586.6671, 672.8570
587.1492, 673.0346
587.6313, 673.5023
588.1135, 674.9631
588.5956, 676.7509
589.0777, 676.9373
589.5598, 674.9912
590.0419, 672.9199
590.5240, 673.0468
591.0062, 675.5312
591.4883, 676.5059
591.9704, 674.5520
592.4525, 673.0042
592.9346, 672.8908
593.4167, 673.5164
593.8989, 674.0511
594.3810, 674.3132
594.8631, 674.6959
595.3452, 675.6514
595.8273, 677.1335
596.3094, 678.6964
596.7916, 680.6638
597.2737, 681.9975
597.7558, 681.7446
598.2379, 680.8705
598.7200, 680.3696
599.2021, 680.3818
599.6843, 680.3919
600.1664, 680.1317
600.6485, 679.7084
601.1306, 678.7515
601.6127, 677.4597
602.0948, 677.7998
602.5770, 681.2411
603.0591, 686.4935
603.5412, 690.0126
604.0233, 690.8100
604.5054, 691.3485
604.9875, 690.7635
605.4697, 690.6805
605.9518, 692.4157
606.4339, 695.5375
606.9160, 698.8522
607.3981, 701.7587
607.8802, 704.1985
608.3624, 705.8563
608.8445, 706.5844
609.3266, 707.7343
609.8087, 709.8162
610.2908, 711.9839
610.7729, 713.7672
611.2551, 715.1590
611.7372, 716.0946
612.2193, 716.2406
612.7014, 716.3216
613.1835, 716.8582
613.6656, 717.7112
614.1478, 718.5177
614.6299, 719.1856
615.1120, 720.0657
615.5941, 721.5554
616.0762, 723.6575
616.5583, 725.5921
617.0405, 727.3549
617.5226, 728.9545
618.0047, 730.1768
618.4868, 731.3727
618.9689, 733.1698
619.4510, 735.4770
619.9332, 737.2565
620.4153, 737.7289
620.8974, 736.9654
621.3795, 734.6483
621.8616, 730.2089
622.3438, 727.4168
622.8259, 728.8144
623.3080, 731.5648
623.7901, 731.9478
624.2722, 729.9090
624.7543, 727.1629
625.2365, 723.3711
625.7186, 719.7058
626.2007, 717.4912
626.6828, 716.2394
627.1649, 714.4938
627.6470, 711.6199
628.1292, 708.2641
628.6113, 705.5276
629.0934, 703.7412
629.5755, 701.1321
630.0576, 696.0919
630.5397, 691.9415
631.0219, 690.0527
631.5040, 689.4870
631.9861, 688.9824
632.4682, 688.1788
632.9503, 687.3273
633.4324, 686.8544
633.9146, 686.5198
634.3967, 685.3308
634.8788, 683.0911
635.3609, 681.2278
635.8430, 680.6786
636.3251, 681.0408
636.8073, 681.2328
637.2894, 681.4328
637.7715, 681.1100
638.2536, 679.1343
638.7357, 677.4622
639.2178, 678.2795
639.7000, 680.7686
640.1821, 682.2692
640.6642, 681.2881
641.1463, 678.9588
641.6284, 677.5281
642.1105, 677.1375
642.5927, 676.9288
643.0748, 677.0433
643.5569, 677.0586
644.0390, 676.9578
644.5211, 676.5663
645.0032, 675.4439
645.4854, 673.1980
645.9675, 670.9192
646.4496, 669.4335
646.9317, 668.3840
647.4138, 667.1169
647.8959, 665.5412
648.3781, 663.9201
648.8602, 662.4919
649.3423, 661.1509
649.8244, 659.4363
650.3065, 656.7234
650.7886, 654.5781
651.2708, 653.8426
651.7529, 652.9776
652.2350, 651.0004
652.7171, 647.9981
653.1992, 644.3232
653.6813, 639.7667
654.1635, 635.5786
654.6456, 634.1718
655.1277, 635.2842
655.6098, 635.5538
656.0919, 634.1184
656.5740, 632.3792
657.0562, 631.5401
657.5383, 631.4828
658.0204, 631.1829
658.5025, 630.5553
658.9846, 629.7895
659.4667, 628.7585
659.9489, 627.7318
660.4310, 627.1666
660.9131, 626.9745
661.3952, 626.4056
661.8773, 624.7336
662.3594, 622.5991
662.8416, 622.4373
663.3237, 625.1251
663.8058, 626.5240
664.2879, 625.0320
664.7700, 622.9254
665.2521, 621.4785
665.7343, 620.7485
666.2164, 620.9175
666.6985, 622.7081
667.1806, 624.5196
667.6627, 625.3562
668.1448, 625.3801
668.6270, 624.6356
669.1091, 623.2180
669.5912, 621.9932
670.0733, 621.8289
670.5554, 622.4886
671.0375, 622.1912
671.5197, 619.8398
672.0018, 618.3411
672.4839, 618.7966
672.9660, 619.4474
673.4481, 619.0677
673.9302, 617.7906
674.4124, 616.3878
674.8945, 615.1110
675.3766, 614.1193
675.8587, 613.7775
676.3408, 613.9386
676.8229, 613.9277
677.3051, 613.5926
677.7872, 613.1228
678.2693, 612.7281
678.7514, 612.3727
679.2335, 611.6063
679.7156, 610.3007
680.1978, 608.8001
680.6799, 606.8560
681.1620, 604.9538
681.6441, 603.2829
682.1262, 602.0139
682.6083, 601.7025
683.0905, 603.0276
683.5726, 604.7073
684.0547, 603.9142
684.5368, 600.6561
685.0189, 598.1951
685.5010, 597.2657
685.9832, 597.0164
686.4653, 597.1697
686.9474, 597.4730
687.4295, 596.7366
687.9116, 594.0975
688.3937, 591.5634
688.8759, 589.1429
689.3580, 587.4824
689.8401, 587.8849
690.3222, 589.8826
690.8043, 591.3204
691.2864, 590.7297
691.7686, 588.9410
692.2507, 588.0876
692.7328, 588.4440
693.2149, 587.8907
693.6970, 585.3436
694.1791, 583.0071
694.6613, 582.7028
695.1434, 583.6941
695.6255, 584.4329
696.1076, 584.8386
696.5897, 584.6592
697.0718, 583.0336
697.5540, 581.1908
698.0361, 580.9509
698.5182, 582.1293
699.0003, 582.9827
699.4824, 582.4185
699.9645, 580.9851
700.4467, 580.0416
700.9288, 579.7854
701.4109, 579.2978
701.8930, 578.3959
702.3751, 577.4152
702.8572, 576.3699
703.3394, 575.4147
703.8215, 574.8616
704.3036, 574.8672
704.7857, 574.9095
705.2678, 574.2830
705.7499, 573.7413
706.2321, 574.9288
706.7142, 577.4513
707.1963, 578.6650
707.6784, 577.0781
708.1605, 574.1593
708.6426, 572.8555
709.1248, 573.6378
709.6069, 574.3623
710.0890, 575.1769
710.5711, 575.7493
711.0532, 575.8255
711.5353, 575.6654
712.0175, 575.5927
712.4996, 575.6717
712.9817, 575.8009
713.4638, 576.2533
713.9459, 576.5237
714.4280, 575.5318
714.9102, 573.5671
715.3923, 572.2399
715.8744, 572.2698
716.3565, 572.9268
716.8386, 573.1776
717.3207, 572.9924
717.8029, 572.6084
718.2850, 571.9534
718.7671, 571.1784
719.2492, 570.1540
719.7313, 569.1341
720.2134, 568.3484
720.6956, 567.8292
721.1777, 567.4900
721.6598, 567.4969
722.1419, 567.5078
722.6240, 566.8512
723.1061, 565.7675
723.5883, 565.3322
724.0704, 565.8967
724.5525, 566.6283
725.0346, 566.6257
725.5167, 565.9122
725.9988, 565.4220
726.4810, 565.7342
726.9631, 565.4144
727.4452, 563.9725
727.9273, 562.1224
728.4094, 560.0541
728.8915, 558.0240
729.3737, 556.7180
729.8558, 556.5748
730.3379, 557.0604
730.8200, 558.0352
731.3021, 559.1556
731.7842, 559.3400
732.2664, 558.4150
732.7485, 557.1843
733.2306, 556.1644
733.7127, 555.4226
734.1948, 555.2892
734.6769, 556.6324
735.1591, 556.9872
735.6412, 555.2645
736.1233, 553.6453
736.6054, 553.6677
737.0875, 554.4863
737.5696, 554.2477
738.0518, 552.1581
738.5339, 550.2483
739.0160, 550.4491
739.4981, 551.8019
739.9802, 552.5279
740.4623, 552.5682
740.9445, 552.7976
741.4266, 553.7200
741.9087, 554.7357
742.3908, 554.7316
742.8729, 553.4659
743.3550, 552.2057
743.8372, 550.6811
744.3193, 549.4980
744.8014, 548.9524
745.2835, 548.7502
745.7656, 548.6077
746.2477, 548.4766
746.7299, 548.3732
747.2120, 548.2220
747.6941, 548.1700
748.1762, 548.6320
748.6583, 549.3488
749.1404, 549.3347
749.6226, 548.3273
750.1047, 547.3916
750.5868, 547.7985
751.0689, 549.3024
751.5510, 549.0646
752.0331, 545.7231
752.5153, 543.2660
752.9974, 542.7847
753.4795, 542.9725
753.9616, 543.4235
754.4437, 543.8828
754.9258, 543.6008
755.4080, 541.6080
755.8901, 540.2611
756.3722, 542.1312
756.8543, 545.1893
757.3364, 546.4417
757.8185, 545.6710
758.3007, 543.9586
758.7828, 541.8669
759.2649, 539.7537
759.7470, 538.3061
760.2291, 537.4577
760.7112, 537.7195
761.1934, 540.3622
761.6755, 542.1570
762.1576, 540.9244
762.6397, 538.3063
763.1218, 536.0653
763.6039, 534.2648
764.0861, 533.5516
764.5682, 535.3957
765.0503, 537.2619
765.5324, 536.9422
766.0145, 535.1995
766.4966, 533.5087
766.9788, 532.3617
767.4609, 531.7153
767.9430, 531.5280
768.4251, 531.8019
768.9072, 532.8821
769.3893, 535.1887
769.8715, 535.9726
770.3536, 533.8500
770.8357, 530.9985
771.3178, 529.0047
771.7999, 527.9379
772.2820, 528.2211
772.7642, 531.4218
773.2463, 533.8864
773.7284, 534.2805
774.2105, 533.8010
774.6926, 533.2525
775.1747, 532.8044
775.6569, 532.5940
776.1390, 532.7309
776.6211, 532.7175
777.1032, 531.7036
777.5853, 529.8826
778.0674, 528.2796
778.5496, 526.9485
779.0317, 526.0134
779.5138, 525.5660
779.9959, 525.4957
780.4780, 525.6208
780.9601, 525.9585
781.4423, 526.4514
781.9244, 527.8651
782.4065, 528.5052
782.8886, 526.7528
783.3707, 524.6171
783.8528, 524.7716
784.3350, 527.1426
784.8171, 528.7674
785.2992, 527.5034
785.7813, 524.9439
786.2634, 522.4495
786.7455, 520.3915
787.2277, 520.4142
787.7098, 522.7988
788.1919, 525.4280
788.6740, 526.7747
789.1561, 526.8515
789.6382, 525.4153
790.1204, 520.9983
790.6025, 518.6521
791.0846, 520.3968
791.5667, 522.3349
792.0488, 522.3666
792.5309, 521.6475
793.0131, 522.3622
793.4952, 525.1907
793.9773, 527.0096
794.4594, 525.4863
794.9415, 523.0540
795.4236, 521.9582
795.9058, 521.8179
796.3879, 521.2233
796.8700, 519.8348
797.3521, 519.0367
797.8342, 520.6583
798.3163, 523.9388
798.7985, 524.6103
799.2806, 522.1340
799.7627, 520.1551
800.2448, 519.4734
800.7269, 519.5439
801.2090, 520.3422
801.6912, 521.5722
802.1733, 521.6879
802.6554, 519.5245
803.1375, 518.0877
803.6196, 518.0526
804.1017, 518.8155
804.5839, 520.6093
805.0660, 522.7180
805.5481, 523.8542
806.0302, 523.5491
806.5123, 522.3580
806.9944, 520.3248
807.4766, 517.9750
807.9587, 516.6893
808.4408, 516.4338
808.9229, 516.1932
809.4050, 515.5894
809.8871, 514.9648
810.3693, 514.7243
810.8514, 514.8684
811.3335, 515.1638
811.8156, 516.1765
812.2977, 516.3865
812.7798, 514.5616
813.2620, 512.8011
813.7441, 512.6990
814.2262, 513.7910
814.7083, 514.5712
815.1904, 514.4552
815.6725, 514.4344
816.1547, 515.4725
816.6368, 516.6144
817.1189, 516.3266
817.6010, 515.1134
818.0831, 515.0825
818.5652, 517.0914
819.0474, 519.1991
819.5295, 518.4611
820.0116, 515.3064
820.4937, 513.9085
820.9758, 514.6041
821.4579, 514.9946
821.9401, 514.1465
822.4222, 513.0159
822.9043, 512.4858
823.3864, 512.5707
823.8685, 513.2711
824.3506, 515.6688
824.8328, 517.1403
825.3149, 516.8620
825.7970, 515.9156
826.2791, 514.8557
826.7612, 513.8129
827.2433, 512.7892
827.7255, 511.7362
828.2076, 511.0702
828.6897, 511.3366
829.1718, 512.1198
829.6539, 513.1122
830.1360, 514.0464
830.6182, 513.6120
831.1003, 511.2976
831.5824, 508.9370
832.0645, 508.9190
832.5466, 510.9698
833.0287, 511.5791
833.5109, 510.1220
833.9930, 509.1205
834.4751, 509.5522
834.9572, 510.0262
835.4393, 509.1184
835.9214, 507.3509
836.4036, 506.1828
836.8857, 505.3986
837.3678, 505.8768
837.8499, 509.4308
838.3320, 512.8334
838.8141, 513.5474
839.2963, 512.4200
839.7784, 511.1158
840.2605, 510.2053
840.7426, 509.6899
841.2247, 509.8583
841.7068, 510.2881
842.1890, 510.2057
842.6711, 509.6289
843.1532, 508.4336
843.6353, 506.5515
844.1174, 505.1048
844.5995, 505.1680
845.0817, 506.4016
845.5638, 507.3104
846.0459, 507.8689
846.5280, 508.1598
847.0101, 508.1577
847.4922, 507.9148
847.9744, 507.2585
848.4565, 506.4637
848.9386, 505.9561
849.4207, 505.7946
849.9028, 505.7293
850.3849, 505.4520
850.8671, 505.5191
851.3492, 506.8838
851.8313, 508.4728
852.3134, 508.7642
852.7955, 507.6282
853.2776, 505.9905
853.7598, 504.2252
854.2419, 502.8279
854.7240, 502.9628
855.2061, 504.1486
855.6882, 504.3959
856.1703, 503.4659
856.6525, 502.0963
857.1346, 500.5356
857.6167, 499.4064
858.0988, 500.0979
858.5809, 503.0214
859.0630, 505.0307
859.5452, 506.0141
860.0273, 506.2805
860.5094, 505.6820
860.9915, 504.5784
861.4736, 503.1049
861.9557, 501.3608
862.4379, 499.8487
862.9200, 498.4031
863.4021, 497.5805
863.8842, 497.8066
864.3663, 498.5522
864.8484, 499.8836
865.3306, 501.2566
865.8127, 501.4404
866.2948, 499.9750
866.7769, 498.2457
867.2590, 497.3690
867.7411, 497.3058
868.2233, 498.3622
868.7054, 500.2790
869.1875, 501.7125
869.6696, 502.2792
870.1517, 502.1986
870.6339, 501.5732
871.1160, 500.5909
871.5981, 500.2803
872.0802, 501.1651
872.5623, 500.6216
873.0444, 496.9542
873.5266, 494.2701
874.0087, 495.9023
874.4908, 499.5407
874.9729, 500.7650
875.4550, 499.0616
875.9371, 497.8857
876.4193, 498.6735
876.9014, 498.9047
877.3835, 496.6009
877.8656, 493.8324
878.3477, 493.0869
878.8298, 494.1891
879.3120, 494.9598
879.7941, 494.0451
880.2762, 493.1612
880.7583, 494.6461
881.2404, 496.9922
881.7225, 497.2866
882.2047, 495.7052
882.6868, 494.0915
883.1689, 493.2477
883.6510, 493.3569
884.1331, 495.0117
884.6152, 497.8519
885.0974, 498.7810
885.5795, 497.4298
886.0616, 497.0785
886.5437, 499.1638
887.0258, 500.6836
887.5079, 498.7358
887.9901, 494.3557
888.4722, 491.6917
888.9543, 491.7458
889.4364, 491.6252
889.9185, 491.0556
890.4006, 490.6383
890.8828, 490.9708
891.3649, 491.3795
891.8470, 490.7082
892.3291, 488.9788
892.8112, 488.1009
893.2933, 489.4002
893.7755, 491.1435
894.2576, 492.9395
894.7397, 494.1281
895.2218, 493.2993
895.7039, 491.0113
896.1860, 489.4362
896.6682, 489.6176
897.1503, 490.5651
897.6324, 491.4085
898.1145, 491.9851
898.5966, 491.4531
899.0787, 489.9786
899.5609, 489.5311
900.0430, 490.8022
900.5251, 492.0504
901.0072, 491.3979
901.4893, 489.4890
901.9714, 489.8633
902.4536, 493.8314
902.9357, 495.0781
903.4178, 491.5865
903.8999, 487.9646
904.3820, 486.7226
904.8641, 486.7950
905.3463, 486.0822
905.8284, 484.2732
906.3105, 484.2456
906.7926, 488.5903
907.2747, 491.6907
907.7568, 491.0990
908.2390, 489.1669
908.7211, 487.6151
909.2032, 486.6346
909.6853, 485.9903
910.1674, 485.6176
910.6495, 485.5171
911.1317, 486.1253
911.6138, 486.6677
912.0959, 485.7631
912.5780, 484.1558
913.0601, 483.7575
913.5422, 485.0027
914.0244, 486.7950
914.5065, 488.5362
914.9886, 489.6097
915.4707, 487.8560
915.9528, 483.9541
916.4349, 482.5447
916.9171, 484.2835
917.3992, 486.3374
917.8813, 487.2284
918.3634, 487.3702
918.8455, 487.4151
919.3276, 487.3556
919.8098, 487.3411
920.2919, 487.3755
920.7740, 487.5106
921.2561, 488.2918
921.7382, 488.4771
922.2203, 486.0365
922.7025, 482.1256
923.1846, 481.3518
923.6667, 485.8261
924.1488, 488.8077
924.6309, 488.8571
925.1130, 488.2291
925.5952, 487.7241
926.0773, 487.2627
926.5594, 486.5554
927.0415, 485.6560
927.5236, 485.1387
928.0057, 485.5826
928.4879, 485.9718
928.9700, 485.1860
929.4521, 484.3014
929.9342, 485.2637
930.4163, 487.2111
930.8984, 487.1637
931.3806, 484.1068
931.8627, 481.0126
932.3448, 481.0277
932.8269, 482.9742
933.3090, 484.8188
933.7911, 486.4572
934.2733, 487.3286
934.7554, 487.3509
935.2375, 487.1009
935.7196, 486.9866
936.2017, 486.7468
936.6838, 485.6178
937.1660, 483.5087
937.6481, 482.3960
938.1302, 482.4236
938.6123, 482.9437
939.0944, 484.0234
939.5765, 484.9242
940.0587, 484.7520
940.5408, 483.7130
941.0229, 483.3188
941.5050, 483.9554
941.9871, 484.5287
942.4692, 485.2264
942.9514, 485.5993
943.4335, 485.1131
943.9156, 484.3963
944.3977, 484.1517
944.8798, 484.4271
945.3619, 485.2342
945.8441, 487.8703
946.3262, 489.3376
946.8083, 487.3114
947.2904, 484.7720
947.7725, 484.3222
948.2546, 485.4086
948.7368, 486.3163
949.2189, 486.5289
949.7010, 486.6311
950.1831, 487.0586
950.6652, 487.2034
951.1473, 487.6920
951.6295, 487.7053
952.1116, 487.8841
952.5937, 488.2035
953.0758, 488.2318
953.5579, 487.6805
954.0400, 487.1115
954.5222, 487.3108
955.0043, 488.0993
955.4864, 489.1101
955.9685, 490.2521
956.4506, 491.0274
956.9327, 491.2861
957.4149, 491.3432
957.8970, 491.4230
958.3791, 491.6329
958.8612, 492.4805
959.3433, 494.0521
959.8254, 494.8901
960.3076, 494.7977
960.7897, 494.3192
961.2718, 493.4211
961.7539, 492.8041
962.2360, 493.4570
962.7181, 495.3207
963.2003, 496.9521
963.6824, 498.3768
964.1645, 499.5055
964.6466, 499.9581
965.1287, 500.5801
965.6108, 501.7098
966.0930, 503.3393
966.5751, 505.6704
967.0572, 508.8150
967.5393, 511.3956
968.0214, 512.4926
968.5035, 514.0394
968.9857, 516.3021
969.4678, 519.4385
969.9499, 524.0508
970.4320, 529.5222
970.9141, 534.6028
971.3962, 538.9359
971.8784, 543.2192
972.3605, 546.2547
972.8426, 550.9293
973.3247, 560.5723
973.8068, 572.1658
974.2889, 581.9122
974.7711, 589.7482
975.2532, 597.7705
975.7353, 606.8613
976.2174, 616.9457
976.6995, 628.2549
977.1816, 640.3103
977.6638, 652.5359
978.1459, 664.9444
978.6280, 677.4688
979.1101, 690.2180
979.5922, 703.3949
980.0743, 717.0840
980.5565, 731.3378
981.0386, 746.5612
981.5207, 762.3079
982.0028, 776.9208
982.4849, 790.2999
982.9670, 802.6453
983.4492, 813.9738
983.9313, 825.7889
984.4134, 839.7457
984.8955, 855.0217
985.3776, 869.0016
985.8597, 881.6396
986.3419, 894.2458
986.8240, 906.8787
987.3061, 920.0562
987.7882, 934.0579
988.2703, 948.6480
988.7524, 963.7833
989.2346, 979.3925
989.7167, 993.7352
990.1988, 1006.248
990.6809, 1019.465
991.1630, 1034.435
991.6451, 1048.800
992.1273, 1062.585
992.6094, 1074.095
993.0915, 1081.194
993.5736, 1083.949
994.0557, 1081.174
994.5378, 1070.998
995.0200, 1057.956
995.5021, 1041.600
995.9842, 1023.466
996.4663, 1004.589
996.9484, 984.3063
997.4305, 960.7512
997.9127, 933.5375
998.3948, 907.7527
998.8769, 884.9536
999.3590, 862.5392
999.8411, 839.0540
1000.323, 816.0897
1000.805, 794.4119
1001.287, 774.3932
1001.770, 757.6085
1002.252, 744.6362
1002.734, 730.5085
1003.216, 711.5873
1003.698, 692.8651
1004.180, 677.2482
1004.662, 663.4631
1005.144, 650.7068
1005.627, 638.4422
1006.109, 625.7955
1006.591, 612.4017
1007.073, 599.7692
1007.555, 588.7795
1008.037, 579.2708
1008.519, 571.6736
1009.001, 565.2398
1009.483, 559.0053
1009.966, 552.7881
1010.448, 546.4474
1010.930, 539.9171
1011.412, 534.2946
1011.894, 530.9714
1012.376, 529.1095
1012.858, 527.9078
1013.340, 526.9501
1013.823, 525.0403
1014.305, 522.1925
1014.787, 519.7057
1015.269, 518.3557
1015.751, 517.3741
1016.233, 515.5025
1016.715, 514.6528
1017.197, 512.3061
1017.679, 512.3831
1018.162, 511.8099
1018.644, 510.3055
1019.126, 509.1884
1019.608, 509.3503
1020.090, 510.2778
1020.572, 511.6127
1021.054, 513.0505
1021.536, 511.6980
1022.018, 507.7005
1022.501, 506.0987
1022.983, 508.2314
1023.465, 510.5689
1023.947, 510.5141
1024.429, 509.0800
1024.911, 508.3956
1025.393, 508.4786
1025.875, 508.3134
1026.358, 507.8311
1026.840, 507.5572
1027.322, 507.4829
1027.804, 508.5078
1028.286, 511.7785
1028.768, 515.8351
1029.250, 516.6960
1029.732, 513.7552
1030.214, 512.2623
1030.697, 512.3524
1031.179, 513.5812
1031.661, 516.2559
1032.143, 519.0953
1032.625, 521.1804
1033.107, 522.6214
1033.589, 523.7266
1034.071, 524.5355
1034.553, 524.6172
1035.036, 522.5836
1035.518, 523.0408
1036.000, 528.9638
1036.482, 535.0611
1036.964, 536.8730
1037.446, 535.7870
1037.928, 535.7599
1038.410, 536.8294
1038.893, 538.8875
1039.375, 543.2507
1039.857, 546.5099
1040.339, 547.4639
1040.821, 547.4747
1041.303, 547.1482
1041.785, 546.7303
1042.267, 546.9886
1042.750, 548.2077
1043.232, 549.1435
1043.714, 549.3981
1044.196, 549.8806
1044.678, 551.7845
1045.160, 553.0519
1045.642, 551.3958
1046.124, 548.0953
1046.606, 546.3815
1047.089, 546.9117
1047.571, 547.0118
1048.053, 545.7037
1048.535, 544.8798
1049.017, 546.1571
1049.499, 547.0760
1049.981, 545.3411
1050.463, 541.9385
1050.945, 539.1234
1051.428, 537.1902
1051.910, 535.5828
1052.392, 534.4417
1052.874, 533.3078
1053.356, 531.5822
1053.838, 530.2317
1054.320, 530.4899
1054.802, 531.5330
1055.285, 531.6039
1055.767, 530.3686
1056.249, 529.1324
1056.731, 528.2882
1057.213, 527.4279
1057.695, 526.1990
1058.177, 525.0975
1058.659, 524.9572
1059.141, 525.0569
1059.624, 523.6022
1060.106, 520.2927
1060.588, 518.4418
1061.070, 520.6434
1061.552, 522.4401
1062.034, 521.7623
1062.516, 520.3131
1062.998, 519.1940
1063.480, 518.3716
1063.963, 517.5976
1064.445, 516.8324
1064.927, 516.1713
1065.409, 515.8069
1065.891, 515.3368
1066.373, 514.3341
1066.855, 513.4213
1067.337, 513.3758
1067.820, 513.5968
1068.302, 513.1214
1068.784, 511.8369
1069.266, 510.2141
1069.748, 507.4320
1070.230, 506.0958
1070.712, 509.2523
1071.194, 512.3571
1071.677, 510.8648
1072.159, 507.7518
1072.641, 508.0334
1073.123, 511.6517
1073.605, 514.0239
1074.087, 512.9098
1074.569, 511.7170
1075.051, 512.1132
1075.533, 512.9044
1076.016, 513.3802
1076.498, 513.6400
1076.980, 514.1104
1077.462, 514.5969
1077.944, 514.0331
1078.426, 511.5562
1078.908, 509.8374
1079.390, 510.6029
1079.873, 511.9890
1080.355, 513.2385
1080.837, 514.0888
1081.319, 514.1404
1081.801, 513.5922
1082.283, 512.9532
1082.765, 512.2454
1083.247, 512.2737
1083.729, 514.2707
1084.212, 516.0661
1084.694, 516.0865
1085.176, 515.5224
1085.658, 515.4954
1086.140, 515.9797
1086.622, 516.8414
1087.104, 518.1033
1087.586, 518.2855
1088.068, 515.3085
1088.551, 512.9642
1089.033, 513.4996
1089.515, 515.1506
1089.997, 516.8920
1090.479, 518.3503
1090.961, 519.1150
1091.443, 519.1327
1091.925, 518.7919
1092.408, 517.5666
1092.890, 516.9319
1093.372, 518.3969
1093.854, 519.7266
1094.336, 519.0231
1094.818, 517.2766
1095.300, 515.8512
1095.782, 514.9932
1096.265, 514.7645
1096.747, 515.4102
1097.229, 516.2428
1097.711, 517.3604
1098.193, 518.2317
1098.675, 518.7795
1099.157, 518.7430
1099.639, 517.2769
1100.121, 514.9005
1100.604, 513.8751
1101.086, 515.1739
1101.568, 516.2540
1102.050, 516.1163
1102.532, 516.0437
1103.014, 516.7721
1103.496, 517.6581
1103.978, 518.0561
1104.460, 518.1268
1104.943, 518.5387
1105.425, 519.5935
1105.907, 519.7082
1106.389, 516.8716
1106.871, 515.4327
1107.353, 517.8120
1107.835, 520.8304
1108.317, 522.5883
1108.800, 523.3522
1109.282, 523.5435
1109.764, 523.1673
1110.246, 523.0617
1110.728, 523.9026
1111.210, 524.1204
1111.692, 523.2174
1112.174, 521.9849
1112.656, 519.7673
1113.139, 518.1028
1113.621, 519.8718
1114.103, 524.5392
1114.585, 526.1406
1115.067, 521.8262
1115.549, 519.5134
1116.031, 520.0557
1116.513, 521.4318
1116.995, 523.7932
1117.478, 525.9278
1117.960, 526.7609
1118.442, 526.5284
1118.924, 525.9047
1119.406, 524.6208
1119.888, 524.0219
1120.370, 524.2816
1120.852, 524.8861
1121.335, 525.8519
1121.817, 526.9338
1122.299, 528.0477
1122.781, 529.0776
1123.263, 529.7209
1123.745, 529.9563
1124.227, 531.0981
1124.709, 534.0330
1125.192, 534.3113
1125.674, 530.1115
1126.156, 527.2694
1126.638, 528.9073
1127.120, 532.0093
1127.602, 532.9847
1128.084, 532.3436
1128.566, 532.6415
1129.048, 534.0017
1129.531, 535.3071
1130.013, 536.5931
1130.495, 537.0250
1130.977, 536.1473
1131.459, 535.6657
1131.941, 537.0237
1132.423, 539.5259
1132.905, 542.0389
1133.387, 544.4553
1133.870, 544.5662
1134.352, 542.5004
1134.834, 542.0295
1135.316, 543.8606
1135.798, 545.8962
1136.280, 547.0091
1136.762, 547.5704
1137.244, 547.9762
1137.727, 548.2872
1138.209, 548.5229
1138.691, 548.8243
1139.173, 550.1280
1139.655, 552.2529
1140.137, 553.5297
1140.619, 553.4374
1141.101, 553.0905
1141.583, 553.3250
1142.066, 554.0637
1142.548, 555.2715
1143.030, 556.8489
1143.512, 558.8170
1143.994, 560.9276
1144.476, 562.4919
1144.958, 563.4863
1145.440, 564.5082
1145.922, 565.8695
1146.405, 567.2493
1146.887, 568.4947
1147.369, 569.4631
1147.851, 569.9129
1148.333, 570.0322
1148.815, 569.6405
1149.297, 569.2672
1149.779, 570.4832
1150.262, 573.5106
1150.744, 575.8115
1151.226, 575.5045
1151.708, 574.7703
1152.190, 574.4124
1152.672, 574.8122
1153.154, 576.5272
1153.636, 579.0776
1154.119, 582.2573
1154.601, 585.6313
1155.083, 587.7156
1155.565, 587.6817
1156.047, 587.8762
1156.529, 588.9721
1157.011, 590.5745
1157.493, 593.1016
1157.975, 595.5120
1158.458, 596.9854
1158.940, 597.6660
1159.422, 597.7502
1159.904, 597.1669
1160.386, 597.2997
1160.868, 597.5887
1161.350, 599.6719
1161.832, 605.7706
1162.314, 611.0158
1162.797, 613.1762
1163.279, 613.7586
1163.761, 614.2184
1164.243, 614.4999
1164.725, 614.1520
1165.207, 615.4180
1165.689, 617.0345
1166.171, 617.5541
1166.654, 619.4420
1167.136, 622.2202
1167.618, 623.1549
1168.100, 625.2674
1168.582, 628.1194
1169.064, 631.1243
1169.546, 634.1578
1170.028, 635.8658
1170.510, 636.2162
1170.993, 636.4276
1171.475, 636.6160
1171.957, 637.6266
1172.439, 639.7938
1172.921, 642.7209
1173.403, 646.1915
1173.885, 649.6691
1174.367, 651.9365
1174.849, 653.3497
1175.332, 654.8401
1175.814, 656.5822
1176.296, 659.3440
1176.778, 663.0257
1177.260, 666.3063
1177.742, 668.5574
1178.224, 670.3438
1178.706, 671.5609
1179.189, 673.4070
1179.671, 678.5117
1180.153, 684.5002
1180.635, 687.5446
1181.117, 688.5672
1181.599, 690.2155
1182.081, 692.9440
1182.563, 695.4109
1183.046, 696.7903
1183.528, 698.4438
1184.010, 701.1169
1184.492, 704.3906
1184.974, 708.5416
1185.456, 712.6765
1185.938, 715.8655
1186.420, 718.3066
1186.902, 720.2590
1187.385, 721.6519
1187.867, 724.9479
1188.349, 732.3594
1188.831, 739.1160
1189.313, 743.6088
1189.795, 748.1582
1190.277, 754.8729
1190.759, 761.2761
1191.241, 764.0402
1191.724, 764.4715
1192.206, 767.9536
1192.688, 775.6138
1193.170, 781.5251
1193.652, 785.2902
1194.134, 788.2458
1194.616, 790.0865
1195.098, 793.2019
1195.581, 799.2518
1196.063, 806.3925
1196.545, 812.2195
1197.027, 816.8663
1197.509, 820.7177
1197.991, 823.8820
1198.473, 827.8715
1198.955, 832.6836
1199.438, 836.7119
1199.920, 839.5604
1200.402, 842.4520
1200.884, 846.1425
1201.366, 850.5463
1201.848, 855.8301
1202.330, 861.5859
1202.812, 867.3954
1203.294, 872.8775
1203.776, 877.4236
1204.259, 880.8871
1204.741, 882.5867
1205.223, 882.7211
1205.705, 884.1048
1206.187, 888.9095
1206.669, 893.8904
1207.151, 896.7919
1207.633, 899.0036
1208.116, 901.3622
1208.598, 903.8544
1209.080, 906.5956
1209.562, 909.3641
1210.044, 911.4594
1210.526, 914.1409
1211.008, 914.5881
1211.490, 918.6757
1211.973, 921.8873
1212.455, 923.5204
1212.937, 924.2944
1213.419, 923.9208
1213.901, 923.4608
1214.383, 923.9826
1214.865, 925.2651
1215.347, 926.6387
1215.829, 928.1946
1216.312, 929.1374
1216.794, 929.3029
1217.276, 929.8233
1217.758, 931.0537
1218.240, 931.5956
1218.722, 930.6949
1219.204, 929.4262
1219.686, 929.0193
1220.168, 929.0791
1220.651, 928.5481
1221.133, 927.5854
1221.615, 926.6347
1222.097, 925.8489
1222.579, 925.9411
1223.061, 926.8160
1223.543, 926.9670
1224.025, 925.6887
1224.508, 925.3207
1224.990, 929.6709
1225.472, 933.7122
1225.954, 930.4971
1226.436, 925.8056
1226.918, 926.7711
1227.400, 930.8429
1227.882, 932.9396
1228.365, 932.8682
1228.847, 933.9016
1229.329, 937.3523
1229.811, 940.1582
1230.293, 941.1096
1230.775, 941.8185
1231.257, 943.0548
1231.739, 943.9517
1232.221, 943.1324
1232.703, 942.2527
1233.186, 943.5753
1233.668, 946.8002
1234.150, 949.9542
1234.632, 953.0195
1235.114, 956.0465
1235.596, 959.0623
1236.078, 961.8510
1236.560, 964.3076
1237.043, 967.0409
1237.525, 970.5668
1238.007, 973.4198
1238.489, 973.3029
1238.971, 971.7237
1239.453, 973.0814
1239.935, 976.4609
1240.417, 978.5818
1240.900, 979.7894
1241.382, 982.2814
1241.864, 986.2585
1242.346, 990.0590
1242.828, 992.8934
1243.310, 995.0960
1243.792, 996.5738
1244.274, 997.9717
1244.756, 1000.024
1245.239, 1002.052
1245.721, 1002.975
1246.203, 1003.666
1246.685, 1005.650
1247.167, 1008.817
1247.649, 1011.969
1248.131, 1015.723
1248.613, 1016.741
1249.095, 1011.494
1249.578, 1008.301
1250.060, 1010.104
1250.542, 1011.743
1251.024, 1010.214
1251.506, 1007.941
1251.988, 1007.974
1252.470, 1009.545
1252.952, 1010.020
1253.435, 1009.436
1253.917, 1005.002
1254.399, 996.8943
1254.881, 992.2358
1255.363, 992.0750
1255.845, 991.5089
1256.327, 988.2693
1256.809, 984.3102
1257.292, 981.5829
1257.774, 978.9251
1258.256, 974.1701
1258.738, 968.9390
1259.220, 965.5240
1259.702, 963.3227
1260.184, 961.2692
1260.666, 959.1639
1261.148, 957.3967
1261.630, 956.0857
1262.113, 953.0882
1262.595, 946.2082
1263.077, 939.6295
1263.559, 934.5964
1264.041, 930.0511
1264.523, 926.3469
1265.005, 922.0334
1265.487, 915.0892
1265.970, 907.1136
1266.452, 902.0020
1266.934, 899.8033
1267.416, 896.5111
1267.898, 891.8517
1268.380, 888.7068
1268.862, 887.5568
1269.344, 883.5397
1269.827, 875.0075
1270.309, 866.7377
1270.791, 862.1785
1271.273, 859.7214
1271.755, 857.4667
1272.237, 855.4816
1272.719, 854.3987
1273.201, 853.3934
1273.683, 850.8933
1274.166, 847.2296
1274.648, 843.0278
1275.130, 838.8096
1275.612, 836.0900
1276.094, 835.8626
1276.576, 835.2467
1277.058, 832.2341
1277.540, 829.8209
1278.022, 830.2326
1278.505, 830.4296
1278.987, 828.0980
1279.469, 824.7125
1279.951, 821.8521
1280.433, 819.4316
1280.915, 816.9095
1281.397, 814.1098
1281.879, 814.1357
1282.362, 817.3558
1282.844, 819.1905
1283.326, 818.8967
1283.808, 817.0445
1284.290, 813.8334
1284.772, 810.4551
1285.254, 807.4561
1285.736, 804.8035
##END=



