##NAMES=Alloriite
##RRUFFID=R070560
##IDEAL CHEMISTRY=(Na,K,Ca)_24_(Na,Ca)_4_Ca_4_(Si,Al)_48_O_96_(S^6+^O_4_)_4_(SO_3_,CO_3_)_2_(OH,Cl)_2_(H_2_O,OH)_4_
##LOCALITY=Monte Cavalluccio, near Campagnano di Roma, Rome, Latium, Italy
##OWNER=Michael Scott
##SOURCE=Michael Scott
##DESCRIPTION=Colorless prisms in vug
##STATUS=The identification of this mineral has been confirmed by single-crystal X-ray diffraction.
##URL=rruff.info/R070560
90.01007, 0.0000000E+00
90.49219, 77.00691
90.97430, 80.02530
91.45642, 81.10125
91.93854, 78.45881
92.42065, 74.38954
92.90277, 72.24783
93.38489, 72.35458
93.86700, 73.76775
94.34912, 76.40974
94.83124, 79.90187
95.31335, 81.96223
95.79547, 79.81141
96.27759, 74.67801
96.75970, 71.68676
97.24182, 71.95082
97.72394, 74.19790
98.20605, 75.94792
98.68817, 77.20398
99.17029, 77.96352
99.65240, 78.12173
100.1345, 77.64268
100.6166, 77.13854
101.0988, 76.97593
101.5809, 76.97411
102.0630, 75.26285
102.5451, 70.99741
103.0272, 66.49749
103.5093, 64.47034
103.9915, 65.81037
104.4736, 67.37132
104.9557, 68.40294
105.4378, 68.87070
105.9199, 68.92121
106.4020, 68.05556
106.8842, 67.01544
107.3663, 67.22913
107.8484, 70.50172
108.3305, 72.92959
108.8126, 72.98599
109.2947, 68.24712
109.7769, 65.16960
110.2590, 64.80997
110.7411, 66.29371
111.2232, 66.91259
111.7053, 64.46911
112.1874, 62.66314
112.6696, 63.17797
113.1517, 70.51249
113.6338, 75.50344
114.1159, 76.58936
114.5980, 74.06375
115.0801, 70.04232
115.5623, 61.30157
116.0444, 53.04490
116.5265, 49.30820
117.0086, 56.01401
117.4907, 63.10999
117.9728, 66.61247
118.4550, 66.30182
118.9371, 65.55228
119.4192, 65.63067
119.9013, 66.18771
120.3834, 66.77822
120.8655, 67.88090
121.3477, 68.53447
121.8298, 67.57343
122.3119, 64.52802
122.7940, 62.01428
123.2761, 62.67203
123.7582, 65.32221
124.2404, 67.33895
124.7225, 66.72500
125.2046, 64.90238
125.6867, 63.40603
126.1688, 62.18060
126.6509, 61.97743
127.1331, 63.95321
127.6152, 67.84812
128.0973, 72.37025
128.5794, 77.37528
129.0615, 82.37273
129.5436, 85.93326
130.0258, 86.93266
130.5079, 87.24757
130.9900, 90.43360
131.4721, 96.46135
131.9542, 103.4967
132.4363, 109.8348
132.9185, 115.6736
133.4006, 122.3147
133.8827, 129.8665
134.3648, 138.4699
134.8469, 148.9055
135.3290, 161.0242
135.8112, 175.7041
136.2933, 194.3738
136.7754, 217.3092
137.2575, 241.0164
137.7396, 263.6593
138.2217, 284.9955
138.7039, 311.5794
139.1860, 344.7611
139.6681, 381.1523
140.1502, 416.9428
140.6323, 452.2285
141.1144, 485.4225
141.5966, 515.5251
142.0787, 541.5850
142.5608, 568.3888
143.0429, 597.1491
143.5250, 625.9227
144.0071, 649.4608
144.4893, 664.4150
144.9714, 679.2410
145.4535, 697.5596
145.9356, 721.2172
146.4177, 744.9410
146.8998, 767.4661
147.3820, 789.8831
147.8641, 817.8835
148.3462, 853.2269
148.8283, 892.1326
149.3104, 933.1348
149.7925, 977.3605
150.2747, 1021.960
150.7568, 1066.668
151.2389, 1111.378
151.7210, 1154.724
152.2031, 1196.453
152.6852, 1236.545
153.1674, 1275.449
153.6495, 1314.032
154.1316, 1350.148
154.6137, 1383.558
155.0958, 1414.254
155.5779, 1442.278
156.0601, 1466.298
156.5422, 1488.313
157.0243, 1509.738
157.5064, 1532.414
157.9885, 1553.069
158.4706, 1569.905
158.9528, 1582.339
159.4349, 1595.592
159.9170, 1610.531
160.3991, 1627.134
160.8812, 1645.373
161.3633, 1664.030
161.8455, 1685.293
162.3276, 1711.030
162.8097, 1741.920
163.2918, 1772.974
163.7739, 1800.440
164.2560, 1824.814
164.7382, 1838.536
165.2203, 1855.511
165.7024, 1873.761
166.1845, 1889.461
166.6666, 1901.686
167.1487, 1913.208
167.6309, 1925.511
168.1130, 1938.387
168.5951, 1951.164
169.0772, 1963.163
169.5593, 1975.252
170.0414, 1988.762
170.5236, 2005.379
171.0057, 2020.132
171.4878, 2029.139
171.9699, 2033.454
172.4520, 2036.044
172.9341, 2037.993
173.4163, 2039.435
173.8984, 2040.639
174.3805, 2042.039
174.8626, 2042.561
175.3447, 2040.383
175.8268, 2036.058
176.3090, 2032.218
176.7911, 2030.825
177.2732, 2031.039
177.7553, 2031.613
178.2374, 2032.453
178.7195, 2033.223
179.2017, 2034.161
179.6838, 2035.102
180.1659, 2034.321
180.6480, 2028.211
181.1301, 2019.326
181.6122, 2013.631
182.0944, 2013.855
182.5765, 2017.396
183.0586, 2020.112
183.5407, 2021.968
184.0228, 2023.784
184.5049, 2026.978
184.9871, 2030.925
185.4692, 2033.115
185.9513, 2031.576
186.4334, 2028.231
186.9155, 2028.250
187.3976, 2031.916
187.8798, 2035.660
188.3619, 2035.278
188.8440, 2031.382
189.3261, 2027.850
189.8082, 2025.834
190.2903, 2025.167
190.7725, 2025.640
191.2546, 2027.498
191.7367, 2029.227
192.2188, 2029.243
192.7009, 2027.576
193.1830, 2024.680
193.6652, 2019.736
194.1473, 2013.331
194.6294, 2009.943
195.1115, 2010.116
195.5936, 2011.458
196.0757, 2011.220
196.5579, 2009.405
197.0400, 2006.106
197.5221, 2000.570
198.0042, 1993.059
198.4863, 1987.032
198.9684, 1982.436
199.4506, 1979.546
199.9327, 1979.642
200.4148, 1983.135
200.8969, 1985.827
201.3790, 1985.600
201.8611, 1982.316
202.3433, 1979.800
202.8254, 1978.079
203.3075, 1977.004
203.7896, 1976.705
204.2717, 1977.453
204.7538, 1977.428
205.2360, 1975.326
205.7181, 1970.737
206.2002, 1967.860
206.6823, 1967.252
207.1644, 1967.664
207.6465, 1966.711
208.1287, 1964.087
208.6108, 1961.268
209.0929, 1958.710
209.5750, 1956.284
210.0571, 1955.229
210.5392, 1956.332
211.0214, 1958.172
211.5035, 1957.445
211.9856, 1953.273
212.4677, 1949.116
212.9498, 1946.443
213.4319, 1945.415
213.9140, 1945.444
214.3962, 1946.936
214.8783, 1949.200
215.3604, 1950.585
215.8425, 1950.784
216.3246, 1950.736
216.8067, 1950.994
217.2889, 1951.921
217.7710, 1951.630
218.2531, 1949.448
218.7352, 1946.304
219.2173, 1944.456
219.6994, 1944.274
220.1816, 1944.609
220.6637, 1945.216
221.1458, 1946.778
221.6279, 1946.426
222.1100, 1942.926
222.5921, 1938.000
223.0743, 1936.496
223.5564, 1940.697
224.0385, 1944.430
224.5206, 1944.444
225.0027, 1938.756
225.4848, 1934.813
225.9670, 1932.958
226.4491, 1932.892
226.9312, 1934.164
227.4133, 1938.102
227.8954, 1941.202
228.3775, 1941.448
228.8597, 1936.987
229.3418, 1934.059
229.8239, 1932.654
230.3060, 1932.739
230.7881, 1934.630
231.2702, 1939.863
231.7524, 1944.475
232.2345, 1946.380
232.7166, 1943.905
233.1987, 1942.740
233.6808, 1943.934
234.1629, 1946.190
234.6451, 1945.791
235.1272, 1940.940
235.6093, 1936.205
236.0914, 1933.671
236.5735, 1934.290
237.0556, 1935.132
237.5378, 1936.370
238.0199, 1937.866
238.5020, 1939.318
238.9841, 1941.298
239.4662, 1942.491
239.9483, 1942.105
240.4305, 1938.926
240.9126, 1937.021
241.3947, 1936.633
241.8768, 1937.399
242.3589, 1938.523
242.8410, 1940.206
243.3232, 1941.844
243.8053, 1943.210
244.2874, 1944.439
244.7695, 1944.958
245.2516, 1944.446
245.7337, 1943.349
246.2159, 1942.649
246.6980, 1942.412
247.1801, 1942.510
247.6622, 1943.083
248.1443, 1944.734
248.6264, 1945.149
249.1086, 1943.760
249.5907, 1941.452
250.0728, 1940.049
250.5549, 1939.894
251.0370, 1940.057
251.5191, 1940.193
252.0013, 1940.244
252.4834, 1940.337
252.9655, 1940.287
253.4476, 1940.337
253.9297, 1941.105
254.4118, 1943.223
254.8940, 1944.800
255.3761, 1944.955
255.8582, 1943.134
256.3403, 1942.220
256.8224, 1942.877
257.3046, 1943.953
257.7867, 1943.569
258.2688, 1941.608
258.7509, 1938.475
259.2330, 1933.843
259.7151, 1927.107
260.1973, 1922.669
260.6794, 1921.553
261.1615, 1921.882
261.6436, 1920.828
262.1257, 1917.639
262.6078, 1914.884
263.0900, 1913.443
263.5721, 1913.432
264.0542, 1913.413
264.5363, 1913.547
265.0184, 1913.427
265.5005, 1912.208
265.9827, 1909.158
266.4648, 1907.125
266.9469, 1907.230
267.4290, 1909.519
267.9111, 1911.116
268.3932, 1912.151
268.8754, 1912.243
269.3575, 1910.394
269.8396, 1905.625
270.3217, 1902.577
270.8038, 1903.009
271.2859, 1906.684
271.7681, 1908.675
272.2502, 1908.783
272.7323, 1907.657
273.2144, 1905.313
273.6965, 1901.145
274.1786, 1899.167
274.6608, 1901.219
275.1429, 1906.428
275.6250, 1907.896
276.1071, 1904.516
276.5892, 1900.600
277.0714, 1900.680
277.5535, 1905.316
278.0356, 1908.762
278.5177, 1909.839
278.9998, 1908.974
279.4819, 1907.546
279.9641, 1905.324
280.4462, 1903.542
280.9283, 1904.130
281.4104, 1907.261
281.8925, 1907.179
282.3746, 1901.651
282.8568, 1893.389
283.3389, 1890.330
283.8210, 1892.878
284.3031, 1897.403
284.7852, 1902.140
285.2673, 1906.951
285.7495, 1910.241
286.2316, 1911.352
286.7137, 1911.418
287.1958, 1913.108
287.6779, 1916.462
288.1600, 1919.406
288.6422, 1920.049
289.1243, 1918.816
289.6064, 1919.094
290.0885, 1921.582
290.5706, 1924.617
291.0527, 1925.550
291.5349, 1924.483
292.0170, 1922.645
292.4991, 1920.452
292.9812, 1918.023
293.4633, 1915.406
293.9454, 1912.300
294.4276, 1910.299
294.9097, 1912.802
295.3918, 1918.902
295.8739, 1923.756
296.3560, 1923.697
296.8381, 1920.819
297.3203, 1920.128
297.8024, 1921.851
298.2845, 1924.431
298.7666, 1926.947
299.2487, 1929.093
299.7308, 1930.021
300.2130, 1928.822
300.6951, 1926.390
301.1772, 1923.437
301.6593, 1919.987
302.1414, 1918.092
302.6235, 1921.594
303.1057, 1927.922
303.5878, 1931.703
304.0699, 1929.454
304.5520, 1925.224
305.0341, 1923.690
305.5162, 1924.623
305.9984, 1926.003
306.4805, 1926.877
306.9626, 1927.159
307.4447, 1926.552
307.9268, 1924.089
308.4089, 1921.844
308.8911, 1922.032
309.3732, 1924.139
309.8553, 1926.106
310.3374, 1927.420
310.8195, 1927.657
311.3016, 1925.787
311.7838, 1919.891
312.2659, 1915.542
312.7480, 1918.092
313.2301, 1925.208
313.7122, 1931.109
314.1943, 1931.879
314.6765, 1931.343
315.1586, 1932.290
315.6407, 1935.487
316.1228, 1938.901
316.6049, 1942.132
317.0870, 1944.866
317.5692, 1946.541
318.0513, 1946.152
318.5334, 1945.297
319.0155, 1944.567
319.4976, 1943.932
319.9797, 1943.747
320.4619, 1943.388
320.9440, 1943.748
321.4261, 1945.823
321.9082, 1953.167
322.3903, 1959.037
322.8724, 1960.495
323.3546, 1957.382
323.8367, 1955.307
324.3188, 1956.643
324.8009, 1958.746
325.2830, 1959.590
325.7651, 1957.545
326.2473, 1955.869
326.7294, 1954.915
327.2115, 1954.717
327.6936, 1955.318
328.1757, 1957.578
328.6578, 1960.048
329.1400, 1962.035
329.6221, 1964.004
330.1042, 1964.811
330.5863, 1963.965
331.0684, 1961.901
331.5505, 1959.906
332.0327, 1957.600
332.5148, 1955.714
332.9969, 1954.346
333.4790, 1952.990
333.9611, 1953.737
334.4432, 1958.247
334.9254, 1963.882
335.4075, 1965.775
335.8896, 1961.889
336.3717, 1958.409
336.8538, 1957.277
337.3359, 1958.670
337.8180, 1960.740
338.3001, 1963.825
338.7823, 1967.107
339.2644, 1969.799
339.7465, 1972.077
340.2286, 1973.045
340.7107, 1972.101
341.1928, 1969.563
341.6750, 1967.669
342.1571, 1966.329
342.6392, 1965.787
343.1213, 1966.891
343.6034, 1969.665
344.0855, 1970.631
344.5677, 1968.654
345.0498, 1965.079
345.5319, 1963.172
346.0140, 1962.965
346.4961, 1963.509
346.9782, 1965.218
347.4604, 1967.501
347.9425, 1966.746
348.4246, 1961.892
348.9067, 1956.219
349.3888, 1954.886
349.8709, 1957.233
350.3531, 1959.494
350.8352, 1959.839
351.3173, 1958.825
351.7994, 1957.136
352.2815, 1954.719
352.7636, 1952.692
353.2458, 1952.150
353.7279, 1952.790
354.2100, 1953.962
354.6921, 1955.395
355.1742, 1957.215
355.6563, 1960.889
356.1385, 1965.978
356.6206, 1968.337
357.1027, 1960.872
357.5848, 1950.624
358.0669, 1946.232
358.5490, 1953.361
359.0312, 1961.776
359.5133, 1965.209
359.9954, 1964.683
360.4775, 1963.478
360.9596, 1962.172
361.4417, 1961.359
361.9239, 1961.582
362.4060, 1963.293
362.8881, 1964.933
363.3702, 1966.384
363.8523, 1967.307
364.3344, 1967.179
364.8166, 1963.722
365.2987, 1961.095
365.7808, 1961.161
366.2629, 1964.270
366.7450, 1967.752
367.2271, 1973.613
367.7093, 1978.526
368.1914, 1979.571
368.6735, 1970.378
369.1556, 1964.127
369.6377, 1964.077
370.1198, 1969.397
370.6020, 1972.967
371.0841, 1973.368
371.5662, 1973.345
372.0483, 1974.462
372.5304, 1978.131
373.0125, 1980.219
373.4947, 1979.967
373.9768, 1978.301
374.4589, 1977.311
374.9410, 1977.021
375.4231, 1977.358
375.9052, 1978.394
376.3874, 1980.221
376.8695, 1982.194
377.3516, 1984.552
377.8337, 1986.700
378.3158, 1987.628
378.7979, 1987.086
379.2801, 1987.327
379.7622, 1989.208
380.2443, 1992.322
380.7264, 1994.991
381.2085, 1997.182
381.6906, 1998.999
382.1728, 2000.076
382.6549, 2000.650
383.1370, 2002.366
383.6191, 2005.885
384.1012, 2009.992
384.5833, 2012.667
385.0655, 2014.050
385.5476, 2015.225
386.0297, 2016.481
386.5118, 2018.063
386.9939, 2020.543
387.4760, 2024.025
387.9582, 2027.943
388.4403, 2031.955
388.9224, 2036.051
389.4045, 2040.175
389.8866, 2046.117
390.3687, 2050.884
390.8509, 2050.838
391.3330, 2046.386
391.8151, 2042.138
392.2972, 2041.078
392.7793, 2041.437
393.2614, 2041.479
393.7436, 2040.221
394.2257, 2039.342
394.7078, 2039.587
395.1899, 2040.766
395.6720, 2042.378
396.1541, 2046.119
396.6363, 2048.810
397.1184, 2048.345
397.6005, 2042.926
398.0826, 2039.423
398.5647, 2039.725
399.0468, 2042.207
399.5290, 2044.892
400.0111, 2049.535
400.4932, 2052.311
400.9753, 2051.528
401.4574, 2047.201
401.9395, 2045.224
402.4217, 2046.006
402.9038, 2048.638
403.3859, 2052.964
403.8680, 2060.731
404.3501, 2065.841
404.8322, 2067.004
405.3144, 2065.625
405.7965, 2065.293
406.2786, 2066.121
406.7607, 2067.599
407.2428, 2069.595
407.7249, 2072.129
408.2071, 2074.911
408.6892, 2078.076
409.1713, 2081.118
409.6534, 2083.335
410.1355, 2084.752
410.6176, 2085.962
411.0998, 2086.726
411.5819, 2087.679
412.0640, 2090.511
412.5461, 2095.157
413.0282, 2100.602
413.5103, 2107.458
413.9925, 2114.322
414.4746, 2117.772
414.9567, 2116.307
415.4388, 2114.137
415.9209, 2115.974
416.4030, 2120.569
416.8852, 2124.872
417.3673, 2126.149
417.8494, 2127.228
418.3315, 2130.879
418.8136, 2137.250
419.2957, 2143.610
419.7779, 2148.150
420.2600, 2151.997
420.7421, 2156.208
421.2242, 2161.687
421.7063, 2167.024
422.1884, 2171.120
422.6706, 2174.578
423.1527, 2179.802
423.6348, 2190.234
424.1169, 2200.207
424.5990, 2207.105
425.0811, 2209.415
425.5633, 2211.572
426.0454, 2213.603
426.5275, 2215.642
427.0096, 2217.934
427.4917, 2221.008
427.9738, 2223.512
428.4560, 2225.077
428.9381, 2225.744
429.4202, 2226.145
429.9023, 2225.926
430.3844, 2226.036
430.8665, 2227.411
431.3487, 2230.363
431.8308, 2232.763
432.3129, 2234.803
432.7950, 2235.668
433.2771, 2232.309
433.7592, 2224.491
434.2414, 2218.662
434.7235, 2219.286
435.2056, 2224.509
435.6877, 2226.483
436.1698, 2224.967
436.6519, 2222.964
437.1341, 2223.258
437.6162, 2225.410
438.0983, 2228.413
438.5804, 2232.464
439.0625, 2236.600
439.5446, 2238.743
440.0268, 2239.751
440.5089, 2242.722
440.9910, 2251.052
441.4731, 2261.236
441.9552, 2270.692
442.4373, 2279.196
442.9195, 2286.033
443.4016, 2288.265
443.8837, 2289.458
444.3658, 2293.950
444.8479, 2305.215
445.3300, 2317.773
445.8122, 2330.252
446.2943, 2342.564
446.7764, 2355.256
447.2585, 2370.101
447.7406, 2384.017
448.2227, 2395.288
448.7049, 2401.527
449.1870, 2409.624
449.6691, 2421.153
450.1512, 2433.721
450.6333, 2442.906
451.1154, 2446.402
451.5976, 2451.641
452.0797, 2460.821
452.5618, 2473.704
453.0439, 2486.957
453.5260, 2500.882
454.0081, 2513.464
454.4903, 2522.760
454.9724, 2528.732
455.4545, 2533.661
455.9366, 2537.363
456.4187, 2540.989
456.9008, 2546.981
457.3830, 2555.055
457.8651, 2562.319
458.3472, 2568.290
458.8293, 2572.393
459.3114, 2573.305
459.7935, 2571.037
460.2757, 2567.291
460.7578, 2562.439
461.2399, 2557.268
461.7220, 2553.013
462.2041, 2550.627
462.6862, 2548.028
463.1684, 2545.086
463.6505, 2540.913
464.1326, 2533.517
464.6147, 2519.144
465.0968, 2503.690
465.5789, 2490.509
466.0611, 2480.148
466.5432, 2469.397
467.0253, 2457.966
467.5074, 2445.756
467.9895, 2432.732
468.4716, 2417.374
468.9538, 2402.847
469.4359, 2389.501
469.9180, 2377.246
470.4001, 2365.962
470.8822, 2356.895
471.3643, 2346.751
471.8465, 2333.422
472.3286, 2316.301
472.8107, 2303.083
473.2928, 2294.892
473.7749, 2288.322
474.2570, 2279.249
474.7392, 2267.719
475.2213, 2258.542
475.7034, 2253.718
476.1855, 2250.677
476.6676, 2243.256
477.1497, 2231.932
477.6319, 2221.664
478.1140, 2215.437
478.5961, 2212.052
479.0782, 2210.575
479.5603, 2211.171
480.0424, 2210.062
480.5246, 2202.156
481.0067, 2191.127
481.4888, 2182.235
481.9709, 2178.933
482.4530, 2176.026
482.9352, 2169.754
483.4173, 2161.512
483.8994, 2155.718
484.3815, 2156.842
484.8636, 2158.302
485.3457, 2156.622
485.8279, 2150.458
486.3100, 2145.275
486.7921, 2142.431
487.2742, 2140.282
487.7563, 2137.295
488.2384, 2132.395
488.7206, 2128.583
489.2027, 2126.738
489.6848, 2126.147
490.1669, 2124.212
490.6490, 2120.654
491.1311, 2116.702
491.6133, 2112.912
492.0954, 2109.280
492.5775, 2105.481
493.0596, 2101.308
493.5417, 2098.006
494.0238, 2098.373
494.5060, 2101.271
494.9881, 2100.926
495.4702, 2094.514
495.9523, 2086.413
496.4344, 2082.707
496.9165, 2082.732
497.3987, 2083.998
497.8808, 2086.363
498.3629, 2088.549
498.8450, 2089.204
499.3271, 2088.177
499.8092, 2086.640
500.2914, 2084.082
500.7735, 2081.828
501.2556, 2081.090
501.7377, 2083.826
502.2198, 2086.086
502.7019, 2087.103
503.1841, 2087.023
503.6662, 2086.291
504.1483, 2084.524
504.6304, 2082.545
505.1125, 2080.660
505.5946, 2078.926
506.0768, 2076.456
506.5589, 2072.046
507.0410, 2068.780
507.5231, 2069.970
508.0052, 2076.589
508.4873, 2081.495
508.9695, 2084.061
509.4516, 2084.253
509.9337, 2080.313
510.4158, 2072.567
510.8979, 2067.297
511.3800, 2068.801
511.8622, 2074.118
512.3443, 2076.935
512.8264, 2077.267
513.3085, 2076.109
513.7906, 2072.386
514.2728, 2068.292
514.7549, 2067.186
515.2370, 2070.776
515.7191, 2074.117
516.2012, 2073.820
516.6833, 2071.342
517.1655, 2068.922
517.6476, 2066.716
518.1297, 2065.278
518.6118, 2065.547
519.0939, 2067.270
519.5760, 2067.502
520.0582, 2064.486
520.5403, 2061.122
521.0224, 2058.709
521.5045, 2057.720
521.9866, 2056.001
522.4688, 2052.448
522.9509, 2049.349
523.4330, 2050.152
523.9151, 2055.804
524.3972, 2060.045
524.8793, 2061.313
525.3615, 2060.477
525.8436, 2059.669
526.3257, 2058.880
526.8078, 2057.910
527.2899, 2055.937
527.7720, 2053.814
528.2542, 2053.893
528.7363, 2056.340
529.2184, 2059.043
529.7005, 2060.912
530.1826, 2061.717
530.6647, 2060.891
531.1469, 2057.017
531.6290, 2053.611
532.1111, 2053.134
532.5932, 2054.505
533.0753, 2055.520
533.5574, 2055.295
534.0396, 2054.824
534.5217, 2054.097
535.0038, 2053.056
535.4859, 2053.245
535.9680, 2055.960
536.4501, 2058.619
536.9323, 2059.721
537.4144, 2058.823
537.8965, 2057.417
538.3786, 2055.039
538.8607, 2052.832
539.3428, 2053.037
539.8250, 2055.907
540.3071, 2057.969
540.7892, 2058.198
541.2713, 2057.045
541.7534, 2054.562
542.2355, 2051.033
542.7177, 2049.392
543.1998, 2053.903
543.6819, 2060.610
544.1640, 2062.900
544.6461, 2060.131
545.1282, 2056.685
545.6104, 2054.932
546.0925, 2054.483
546.5746, 2055.034
547.0567, 2058.173
547.5388, 2059.936
548.0209, 2057.159
548.5031, 2052.127
548.9852, 2049.821
549.4673, 2052.489
549.9494, 2056.442
550.4315, 2061.638
550.9136, 2068.062
551.3958, 2071.519
551.8779, 2070.974
552.3600, 2069.215
552.8421, 2067.892
553.3242, 2067.062
553.8063, 2066.128
554.2885, 2065.015
554.7706, 2063.949
555.2527, 2063.325
555.7348, 2063.070
556.2169, 2062.649
556.6990, 2061.602
557.1812, 2060.709
557.6633, 2061.537
558.1454, 2063.622
558.6275, 2065.236
559.1096, 2065.100
559.5917, 2064.280
560.0739, 2063.399
560.5560, 2062.497
561.0381, 2062.184
561.5202, 2063.213
562.0023, 2064.627
562.4844, 2065.737
562.9666, 2066.581
563.4487, 2066.856
563.9308, 2065.947
564.4129, 2064.712
564.8950, 2064.457
565.3771, 2065.322
565.8593, 2066.912
566.3414, 2069.703
566.8235, 2073.051
567.3056, 2073.680
567.7877, 2071.167
568.2698, 2068.882
568.7520, 2069.374
569.2341, 2071.801
569.7162, 2072.826
570.1983, 2072.283
570.6804, 2071.418
571.1625, 2071.959
571.6447, 2072.829
572.1268, 2071.806
572.6089, 2066.716
573.0910, 2063.243
573.5731, 2067.517
574.0552, 2075.513
574.5374, 2080.280
575.0195, 2075.910
575.5016, 2071.644
575.9837, 2071.278
576.4658, 2074.452
576.9479, 2075.460
577.4301, 2072.363
577.9122, 2069.254
578.3943, 2067.708
578.8764, 2067.760
579.3585, 2069.553
579.8406, 2073.666
580.3228, 2078.218
580.8049, 2081.167
581.2870, 2082.578
581.7691, 2084.072
582.2512, 2086.046
582.7333, 2087.806
583.2155, 2087.290
583.6975, 2085.483
584.1796, 2085.533
584.6617, 2091.267
585.1439, 2097.733
585.6260, 2099.928
586.1081, 2098.596
586.5902, 2097.608
587.0723, 2098.318
587.5544, 2100.239
588.0366, 2103.668
588.5187, 2109.387
589.0008, 2113.239
589.4829, 2113.815
589.9650, 2112.990
590.4471, 2112.009
590.9293, 2110.591
591.4114, 2109.856
591.8935, 2110.310
592.3756, 2111.051
592.8577, 2109.723
593.3398, 2106.099
593.8220, 2104.755
594.3041, 2108.414
594.7862, 2114.355
595.2683, 2115.717
595.7504, 2113.053
596.2325, 2110.490
596.7147, 2109.991
597.1968, 2111.352
597.6789, 2115.269
598.1610, 2121.852
598.6431, 2127.174
599.1252, 2128.451
599.6074, 2127.860
600.0895, 2126.960
600.5716, 2124.422
601.0537, 2124.457
601.5358, 2130.569
602.0179, 2138.477
602.5001, 2142.329
602.9822, 2138.991
603.4643, 2137.837
603.9464, 2140.843
604.4285, 2146.897
604.9106, 2152.943
605.3928, 2159.012
605.8749, 2164.028
606.3570, 2166.384
606.8391, 2167.312
607.3212, 2171.080
607.8033, 2177.584
608.2855, 2185.156
608.7676, 2193.126
609.2497, 2201.090
609.7318, 2208.566
610.2139, 2215.703
610.6960, 2221.614
611.1782, 2225.569
611.6603, 2228.164
612.1424, 2230.074
612.6245, 2230.989
613.1066, 2231.747
613.5887, 2231.302
614.0709, 2231.002
614.5530, 2234.064
615.0351, 2242.701
615.5172, 2249.815
615.9993, 2253.116
616.4814, 2253.383
616.9636, 2254.785
617.4457, 2257.370
617.9278, 2260.588
618.4099, 2264.605
618.8920, 2268.930
619.3741, 2272.249
619.8563, 2274.539
620.3384, 2276.276
620.8205, 2278.461
621.3026, 2280.051
621.7847, 2279.570
622.2668, 2276.033
622.7490, 2272.205
623.2311, 2268.363
623.7132, 2265.210
624.1953, 2263.656
624.6774, 2267.379
625.1595, 2268.311
625.6417, 2264.570
626.1238, 2257.570
626.6059, 2251.084
627.0880, 2244.792
627.5701, 2240.074
628.0522, 2238.511
628.5344, 2238.920
629.0165, 2234.388
629.4986, 2224.805
629.9807, 2215.422
630.4628, 2210.600
630.9449, 2208.395
631.4271, 2204.683
631.9092, 2199.056
632.3913, 2194.409
632.8734, 2193.724
633.3555, 2194.638
633.8376, 2194.584
634.3198, 2192.052
634.8019, 2190.352
635.2840, 2190.635
635.7661, 2192.128
636.2482, 2193.836
636.7303, 2196.821
637.2125, 2198.102
637.6946, 2196.640
638.1767, 2193.494
638.6588, 2191.693
639.1409, 2191.416
639.6230, 2191.253
640.1052, 2190.339
640.5873, 2189.273
641.0694, 2190.792
641.5515, 2194.595
642.0336, 2196.778
642.5157, 2192.854
642.9979, 2186.890
643.4800, 2183.583
643.9621, 2183.399
644.4442, 2184.238
644.9263, 2185.387
645.4084, 2186.914
645.8906, 2188.887
646.3727, 2191.617
646.8548, 2194.240
647.3369, 2198.096
647.8190, 2200.806
648.3011, 2199.021
648.7833, 2191.048
649.2654, 2183.821
649.7475, 2177.991
650.2296, 2173.749
650.7117, 2172.267
651.1938, 2173.219
651.6760, 2172.880
652.1581, 2168.444
652.6402, 2162.857
653.1223, 2161.163
653.6044, 2162.516
654.0865, 2163.163
654.5687, 2160.806
655.0508, 2157.271
655.5329, 2153.278
656.0150, 2148.888
656.4971, 2145.462
656.9792, 2143.151
657.4614, 2142.049
657.9435, 2142.234
658.4256, 2143.923
658.9077, 2146.326
659.3898, 2150.095
659.8719, 2153.387
660.3541, 2154.056
660.8362, 2152.166
661.3183, 2149.707
661.8004, 2146.655
662.2825, 2144.203
662.7646, 2144.668
663.2468, 2146.987
663.7289, 2148.503
664.2110, 2147.564
664.6931, 2146.440
665.1752, 2147.188
665.6573, 2148.990
666.1395, 2149.893
666.6216, 2147.875
667.1037, 2146.388
667.5858, 2146.511
668.0679, 2148.142
668.5500, 2150.902
669.0322, 2155.824
669.5143, 2159.835
669.9964, 2161.159
670.4785, 2160.007
670.9606, 2160.172
671.4427, 2161.739
671.9249, 2163.589
672.4070, 2165.135
672.8891, 2166.240
673.3712, 2166.410
673.8533, 2165.509
674.3354, 2164.653
674.8176, 2164.981
675.2997, 2165.624
675.7818, 2165.594
676.2639, 2164.026
676.7460, 2163.041
677.2281, 2164.306
677.7103, 2165.932
678.1924, 2165.326
678.6745, 2160.318
679.1566, 2158.065
679.6387, 2160.299
680.1208, 2165.045
680.6030, 2168.448
681.0851, 2170.449
681.5672, 2171.003
682.0493, 2169.453
682.5314, 2166.999
683.0135, 2166.002
683.4957, 2166.022
683.9778, 2165.408
684.4599, 2161.436
684.9420, 2157.972
685.4241, 2158.915
685.9063, 2163.860
686.3884, 2166.150
686.8705, 2159.863
687.3526, 2154.433
687.8347, 2154.776
688.3168, 2162.219
688.7990, 2166.250
689.2811, 2166.241
689.7632, 2164.478
690.2453, 2162.308
690.7274, 2159.789
691.2095, 2157.542
691.6917, 2155.478
692.1738, 2154.620
692.6559, 2157.149
693.1380, 2161.343
693.6201, 2164.154
694.1022, 2164.408
694.5844, 2164.427
695.0665, 2165.391
695.5486, 2166.904
696.0307, 2168.475
696.5128, 2170.296
696.9949, 2171.748
697.4771, 2172.892
697.9592, 2173.600
698.4413, 2173.281
698.9234, 2171.392
699.4055, 2170.817
699.8876, 2172.761
700.3698, 2176.111
700.8519, 2178.170
701.3340, 2179.052
701.8161, 2179.353
702.2982, 2179.076
702.7803, 2178.625
703.2625, 2178.622
703.7446, 2178.927
704.2267, 2178.771
704.7088, 2176.818
705.1909, 2175.208
705.6730, 2175.097
706.1552, 2176.657
706.6373, 2178.562
707.1194, 2180.469
707.6015, 2183.179
708.0836, 2187.372
708.5657, 2193.105
709.0479, 2198.252
709.5300, 2202.807
710.0121, 2206.508
710.4942, 2209.190
710.9763, 2210.765
711.4584, 2210.677
711.9406, 2208.571
712.4227, 2206.883
712.9048, 2208.019
713.3869, 2210.190
713.8690, 2211.511
714.3511, 2211.053
714.8333, 2210.709
715.3154, 2211.782
715.7975, 2212.719
716.2796, 2211.566
716.7617, 2207.238
717.2438, 2204.370
717.7260, 2203.864
718.2081, 2204.655
718.6902, 2204.867
719.1723, 2204.630
719.6544, 2204.918
720.1365, 2206.413
720.6187, 2207.949
721.1008, 2208.040
721.5829, 2207.073
722.0650, 2205.990
722.5471, 2204.198
723.0292, 2203.302
723.5114, 2204.651
723.9935, 2207.598
724.4756, 2209.375
724.9577, 2208.693
725.4398, 2208.671
725.9219, 2210.595
726.4041, 2213.954
726.8862, 2215.458
727.3683, 2214.957
727.8504, 2214.724
728.3325, 2216.554
728.8146, 2219.438
729.2968, 2221.480
729.7789, 2222.657
730.2610, 2222.780
730.7431, 2220.079
731.2252, 2217.522
731.7073, 2218.077
732.1895, 2222.375
732.6716, 2224.387
733.1537, 2219.715
733.6358, 2215.475
734.1179, 2215.784
734.6000, 2222.011
735.0822, 2224.157
735.5643, 2221.283
736.0464, 2217.506
736.5285, 2216.354
737.0106, 2217.402
737.4927, 2219.433
737.9749, 2222.481
738.4570, 2225.118
738.9391, 2225.781
739.4212, 2225.524
739.9033, 2225.685
740.3854, 2227.203
740.8676, 2227.646
741.3497, 2224.978
741.8318, 2221.720
742.3139, 2220.439
742.7960, 2221.884
743.2781, 2223.273
743.7603, 2223.925
744.2424, 2225.234
744.7245, 2230.538
745.2066, 2239.020
745.6887, 2244.422
746.1708, 2244.920
746.6530, 2242.617
747.1351, 2238.080
747.6172, 2232.803
748.0993, 2229.480
748.5814, 2229.364
749.0635, 2231.045
749.5457, 2236.270
750.0278, 2242.675
750.5099, 2244.907
750.9920, 2239.898
751.4741, 2236.819
751.9562, 2238.226
752.4384, 2241.937
752.9205, 2241.870
753.4026, 2238.164
753.8847, 2235.055
754.3668, 2233.805
754.8489, 2234.493
755.3311, 2239.230
755.8132, 2246.246
756.2953, 2250.224
756.7774, 2245.468
757.2595, 2240.278
757.7416, 2238.790
758.2238, 2240.485
758.7059, 2241.577
759.1880, 2241.011
759.6701, 2241.223
760.1522, 2243.386
760.6343, 2246.904
761.1165, 2248.558
761.5986, 2248.270
762.0807, 2247.451
762.5628, 2246.357
763.0449, 2245.449
763.5270, 2245.530
764.0092, 2246.534
764.4913, 2248.165
764.9734, 2251.552
765.4555, 2254.413
765.9376, 2255.303
766.4197, 2254.169
766.9019, 2252.139
767.3840, 2247.110
767.8661, 2244.476
768.3482, 2247.815
768.8303, 2256.759
769.3124, 2260.737
769.7946, 2259.460
770.2767, 2256.524
770.7588, 2253.160
771.2409, 2250.320
771.7230, 2250.091
772.2051, 2252.440
772.6873, 2255.193
773.1694, 2256.923
773.6515, 2258.695
774.1336, 2261.493
774.6157, 2265.713
775.0978, 2268.845
775.5800, 2270.848
776.0621, 2271.677
776.5442, 2270.702
777.0263, 2267.739
777.5084, 2267.184
777.9905, 2269.208
778.4727, 2271.864
778.9548, 2274.187
779.4369, 2275.779
779.9190, 2275.611
780.4011, 2273.527
780.8832, 2271.427
781.3654, 2269.516
781.8475, 2268.688
782.3296, 2270.041
782.8117, 2275.007
783.2938, 2277.969
783.7759, 2278.295
784.2581, 2277.561
784.7402, 2276.646
785.2223, 2275.560
785.7044, 2275.793
786.1865, 2277.623
786.6686, 2278.700
787.1508, 2274.671
787.6329, 2269.176
788.1150, 2268.383
788.5971, 2273.864
789.0792, 2279.467
789.5613, 2282.613
790.0435, 2284.380
790.5256, 2285.524
791.0077, 2285.690
791.4898, 2286.268
791.9719, 2287.244
792.4540, 2288.623
792.9362, 2291.098
793.4183, 2294.426
793.9004, 2294.808
794.3825, 2291.726
794.8646, 2287.954
795.3467, 2285.151
795.8289, 2283.726
796.3110, 2284.696
796.7931, 2288.969
797.2752, 2292.496
797.7573, 2293.837
798.2394, 2293.856
798.7216, 2293.156
799.2037, 2290.895
799.6858, 2290.299
800.1679, 2291.688
800.6500, 2293.983
801.1321, 2296.550
801.6143, 2299.179
802.0964, 2300.894
802.5785, 2301.515
803.0606, 2301.624
803.5427, 2301.743
804.0248, 2301.583
804.5070, 2300.576
804.9891, 2297.925
805.4712, 2296.580
805.9533, 2298.872
806.4354, 2301.451
806.9175, 2301.440
807.3997, 2297.517
807.8818, 2297.312
808.3639, 2301.735
808.8460, 2307.247
809.3281, 2311.028
809.8102, 2312.960
810.2924, 2312.012
810.7745, 2307.704
811.2566, 2303.847
811.7387, 2303.492
812.2208, 2304.612
812.7029, 2305.341
813.1851, 2304.859
813.6672, 2305.505
814.1493, 2307.999
814.6314, 2310.823
815.1135, 2312.620
815.5956, 2313.323
816.0778, 2314.988
816.5599, 2317.911
817.0420, 2320.004
817.5241, 2317.788
818.0062, 2313.990
818.4883, 2313.126
818.9705, 2316.121
819.4526, 2319.307
819.9347, 2321.141
820.4168, 2322.382
820.8989, 2323.767
821.3810, 2325.836
821.8632, 2325.587
822.3453, 2321.742
822.8274, 2318.399
823.3095, 2319.626
823.7916, 2324.495
824.2737, 2328.094
824.7559, 2330.217
825.2380, 2331.136
825.7201, 2330.152
826.2022, 2328.640
826.6843, 2328.114
827.1664, 2328.906
827.6486, 2329.250
828.1307, 2326.341
828.6128, 2325.257
829.0949, 2329.588
829.5770, 2339.956
830.0591, 2345.146
830.5413, 2344.542
831.0234, 2342.306
831.5055, 2340.584
831.9876, 2339.704
832.4697, 2340.953
832.9518, 2344.154
833.4340, 2346.655
833.9161, 2346.423
834.3982, 2345.331
834.8803, 2344.417
835.3624, 2343.759
835.8445, 2343.051
836.3267, 2341.956
836.8088, 2341.537
837.2909, 2342.962
837.7730, 2345.613
838.2551, 2344.781
838.7372, 2340.781
839.2194, 2338.300
839.7015, 2342.674
840.1836, 2348.388
840.6657, 2349.714
841.1478, 2347.178
841.6299, 2344.794
842.1121, 2342.230
842.5942, 2341.931
843.0763, 2345.577
843.5584, 2352.184
844.0405, 2356.043
844.5226, 2356.749
845.0048, 2357.366
845.4869, 2359.681
845.9690, 2362.304
846.4511, 2361.722
846.9332, 2358.953
847.4153, 2357.404
847.8975, 2360.475
848.3796, 2363.363
848.8617, 2363.304
849.3438, 2361.159
849.8259, 2359.997
850.3080, 2360.125
850.7902, 2360.848
851.2723, 2362.249
851.7544, 2363.967
852.2365, 2365.175
852.7186, 2365.951
853.2007, 2366.695
853.6829, 2367.868
854.1650, 2368.557
854.6471, 2366.664
855.1292, 2364.042
855.6113, 2363.809
856.0934, 2369.642
856.5756, 2374.157
857.0577, 2376.161
857.5398, 2376.743
858.0219, 2377.563
858.5040, 2378.655
858.9861, 2378.831
859.4683, 2377.625
859.9504, 2376.372
860.4325, 2377.391
860.9146, 2379.316
861.3967, 2379.708
861.8788, 2377.415
862.3610, 2375.042
862.8431, 2372.384
863.3252, 2370.902
863.8073, 2372.189
864.2894, 2377.970
864.7715, 2381.092
865.2537, 2381.014
865.7358, 2379.771
866.2179, 2379.510
866.7000, 2379.710
867.1821, 2378.585
867.6642, 2375.907
868.1464, 2373.717
868.6285, 2373.177
869.1106, 2373.815
869.5927, 2375.338
870.0748, 2377.854
870.5569, 2381.086
871.0391, 2386.243
871.5212, 2389.766
872.0033, 2388.258
872.4854, 2382.738
872.9675, 2381.660
873.4496, 2384.719
873.9318, 2388.007
874.4139, 2387.849
874.8960, 2387.453
875.3781, 2390.608
875.8602, 2396.742
876.3423, 2400.561
876.8245, 2398.477
877.3066, 2396.612
877.7887, 2396.832
878.2708, 2398.504
878.7529, 2398.895
879.2350, 2398.032
879.7172, 2397.019
880.1993, 2395.953
880.6814, 2395.494
881.1635, 2397.533
881.6456, 2400.835
882.1277, 2402.491
882.6099, 2399.498
883.0920, 2397.034
883.5741, 2397.010
884.0562, 2398.122
884.5383, 2398.252
885.0204, 2397.218
885.5026, 2396.190
885.9847, 2395.122
886.4668, 2394.836
886.9489, 2397.097
887.4310, 2400.861
887.9131, 2403.937
888.3953, 2405.514
888.8774, 2407.053
889.3595, 2409.708
889.8416, 2412.265
890.3237, 2413.518
890.8058, 2412.903
891.2880, 2412.321
891.7701, 2411.476
892.2522, 2411.571
892.7343, 2415.157
893.2164, 2420.365
893.6985, 2421.468
894.1807, 2418.061
894.6628, 2414.911
895.1449, 2415.375
895.6270, 2416.909
896.1091, 2417.848
896.5912, 2418.000
897.0734, 2418.582
897.5555, 2419.773
898.0376, 2420.942
898.5197, 2421.984
899.0018, 2422.702
899.4839, 2421.742
899.9661, 2419.515
900.4482, 2418.403
900.9303, 2421.815
901.4124, 2424.834
901.8945, 2422.758
902.3766, 2417.547
902.8588, 2415.904
903.3409, 2420.417
903.8230, 2424.975
904.3051, 2428.981
904.7872, 2431.985
905.2693, 2432.691
905.7515, 2431.434
906.2336, 2430.211
906.7157, 2429.427
907.1978, 2429.150
907.6799, 2429.255
908.1620, 2429.949
908.6442, 2431.645
909.1263, 2436.743
909.6084, 2438.319
910.0905, 2434.347
910.5726, 2429.503
911.0547, 2428.436
911.5369, 2430.763
912.0190, 2431.169
912.5011, 2429.268
912.9832, 2428.259
913.4653, 2432.435
913.9474, 2437.649
914.4296, 2439.369
914.9117, 2436.992
915.3938, 2436.458
915.8759, 2440.103
916.3580, 2443.584
916.8401, 2444.930
917.3223, 2444.596
917.8044, 2445.805
918.2865, 2448.377
918.7686, 2449.848
919.2507, 2447.712
919.7328, 2444.883
920.2150, 2443.734
920.6971, 2444.177
921.1792, 2445.951
921.6613, 2452.652
922.1434, 2455.547
922.6255, 2451.414
923.1077, 2444.842
923.5898, 2444.474
924.0719, 2449.917
924.5540, 2453.954
925.0361, 2455.075
925.5182, 2454.772
926.0004, 2453.297
926.4825, 2451.855
926.9646, 2452.093
927.4467, 2455.147
927.9288, 2457.411
928.4109, 2458.761
928.8931, 2458.902
929.3752, 2457.190
929.8573, 2453.687
930.3394, 2450.905
930.8215, 2448.883
931.3036, 2448.194
931.7858, 2450.557
932.2679, 2453.593
932.7500, 2454.584
933.2321, 2453.833
933.7142, 2454.372
934.1964, 2460.041
934.6785, 2462.649
935.1606, 2458.723
935.6427, 2451.122
936.1248, 2448.737
936.6069, 2451.181
937.0891, 2454.212
937.5712, 2456.958
938.0533, 2458.638
938.5354, 2457.667
939.0175, 2455.392
939.4996, 2453.812
939.9818, 2453.045
940.4639, 2453.521
940.9460, 2455.236
941.4281, 2458.096
941.9102, 2463.278
942.3923, 2470.154
942.8745, 2471.860
943.3566, 2467.771
943.8387, 2463.459
944.3208, 2463.598
944.8029, 2465.470
945.2850, 2466.897
945.7672, 2467.655
946.2493, 2468.656
946.7314, 2469.817
947.2135, 2471.506
947.6956, 2474.041
948.1777, 2477.148
948.6599, 2479.270
949.1420, 2480.743
949.6241, 2483.550
950.1062, 2490.897
950.5883, 2497.171
951.0704, 2496.782
951.5526, 2492.984
952.0347, 2492.081
952.5168, 2496.324
952.9989, 2500.001
953.4810, 2502.882
953.9631, 2504.713
954.4453, 2504.397
954.9274, 2502.725
955.4095, 2502.552
955.8916, 2504.313
956.3737, 2506.708
956.8558, 2509.138
957.3380, 2511.652
957.8201, 2514.843
958.3022, 2518.878
958.7843, 2519.478
959.2664, 2514.962
959.7485, 2512.340
960.2307, 2516.176
960.7128, 2523.500
961.1949, 2527.603
961.6770, 2529.081
962.1591, 2529.967
962.6412, 2530.468
963.1234, 2531.489
963.6055, 2533.265
964.0876, 2535.949
964.5697, 2539.996
965.0518, 2545.854
965.5339, 2551.105
966.0161, 2555.519
966.4982, 2559.227
966.9803, 2560.695
967.4624, 2562.207
967.9445, 2568.172
968.4266, 2579.826
968.9088, 2591.205
969.3909, 2599.609
969.8730, 2607.590
970.3551, 2616.005
970.8372, 2624.830
971.3193, 2637.108
971.8015, 2652.785
972.2836, 2669.822
972.7657, 2687.788
973.2478, 2705.614
973.7299, 2720.269
974.2120, 2733.987
974.6942, 2752.421
975.1763, 2780.865
975.6584, 2809.382
976.1405, 2836.569
976.6226, 2863.687
977.1047, 2892.300
977.5869, 2922.668
978.0690, 2955.458
978.5511, 2990.718
979.0332, 3026.260
979.5153, 3061.573
979.9974, 3095.755
980.4796, 3126.917
980.9617, 3154.032
981.4438, 3186.558
981.9259, 3227.282
982.4080, 3268.973
982.8901, 3309.618
983.3723, 3348.628
983.8544, 3382.751
984.3365, 3413.190
984.8186, 3444.946
985.3007, 3482.662
985.7828, 3519.836
986.2650, 3552.474
986.7471, 3583.125
987.2292, 3616.130
987.7113, 3651.880
988.1934, 3688.498
988.6755, 3725.941
989.1577, 3763.752
989.6398, 3802.237
990.1219, 3839.977
990.6040, 3874.108
991.0861, 3904.285
991.5682, 3932.741
992.0504, 3961.646
992.5325, 3987.743
993.0146, 4011.595
993.4967, 4031.634
993.9788, 4041.325
994.4609, 4040.743
994.9431, 4029.513
995.4252, 4005.753
995.9073, 3973.975
996.3894, 3938.816
996.8715, 3898.948
997.3536, 3851.409
997.8358, 3791.022
998.3179, 3729.377
998.8000, 3664.668
999.2821, 3601.969
999.7642, 3545.560
1000.246, 3494.426
1000.728, 3447.181
1001.211, 3402.936
1001.693, 3358.963
1002.175, 3313.309
1002.657, 3266.584
1003.139, 3218.262
1003.621, 3168.817
1004.103, 3123.938
1004.585, 3084.247
1005.068, 3047.083
1005.550, 3011.711
1006.032, 2977.863
1006.514, 2943.123
1006.996, 2909.520
1007.478, 2880.760
1007.960, 2859.922
1008.442, 2839.374
1008.924, 2814.612
1009.407, 2790.807
1009.889, 2770.777
1010.371, 2754.616
1010.853, 2743.892
1011.335, 2738.542
1011.817, 2731.863
1012.299, 2716.559
1012.781, 2700.104
1013.263, 2688.300
1013.746, 2681.015
1014.228, 2677.380
1014.710, 2681.169
1015.192, 2680.873
1015.674, 2673.582
1016.156, 2663.620
1016.638, 2656.848
1017.120, 2652.789
1017.603, 2650.124
1018.085, 2648.674
1018.567, 2647.937
1019.049, 2648.589
1019.531, 2648.969
1020.013, 2647.709
1020.495, 2644.880
1020.977, 2642.355
1021.459, 2640.002
1021.942, 2639.109
1022.424, 2640.945
1022.906, 2643.802
1023.388, 2645.984
1023.870, 2647.344
1024.352, 2647.573
1024.834, 2645.608
1025.316, 2643.833
1025.799, 2641.866
1026.281, 2641.000
1026.763, 2642.973
1027.245, 2647.391
1027.727, 2652.243
1028.209, 2657.361
1028.691, 2661.378
1029.173, 2662.102
1029.656, 2662.528
1030.138, 2664.894
1030.620, 2668.795
1031.102, 2671.605
1031.584, 2672.774
1032.066, 2674.996
1032.548, 2679.083
1033.030, 2684.116
1033.512, 2689.230
1033.995, 2694.126
1034.477, 2698.163
1034.959, 2701.024
1035.441, 2703.568
1035.923, 2705.335
1036.405, 2707.601
1036.887, 2711.162
1037.369, 2715.900
1037.851, 2721.757
1038.334, 2728.380
1038.816, 2733.110
1039.298, 2732.773
1039.780, 2731.761
1040.262, 2732.673
1040.744, 2735.152
1041.226, 2738.623
1041.708, 2744.143
1042.191, 2747.071
1042.673, 2746.446
1043.155, 2745.832
1043.637, 2750.181
1044.119, 2756.556
1044.601, 2759.293
1045.083, 2758.196
1045.565, 2758.318
1046.047, 2764.804
1046.530, 2768.489
1047.012, 2764.954
1047.494, 2757.623
1047.976, 2756.560
1048.458, 2760.995
1048.940, 2765.143
1049.422, 2768.035
1049.904, 2768.259
1050.386, 2762.332
1050.869, 2754.678
1051.351, 2749.767
1051.833, 2748.040
1052.315, 2747.923
1052.797, 2750.024
1053.279, 2750.880
1053.761, 2747.470
1054.243, 2742.152
1054.726, 2739.054
1055.208, 2737.395
1055.690, 2735.140
1056.172, 2729.974
1056.654, 2726.583
1057.136, 2726.951
1057.618, 2727.506
1058.100, 2722.662
1058.583, 2713.757
1059.065, 2710.771
1059.547, 2714.314
1060.029, 2716.450
1060.511, 2708.485
1060.993, 2700.416
1061.475, 2700.142
1061.957, 2705.384
1062.439, 2705.449
1062.922, 2699.352
1063.404, 2694.296
1063.886, 2692.177
1064.368, 2691.538
1064.850, 2691.146
1065.332, 2690.810
1065.814, 2690.242
1066.296, 2689.329
1066.778, 2688.545
1067.261, 2688.486
1067.743, 2687.515
1068.225, 2684.247
1068.707, 2679.691
1069.189, 2676.827
1069.671, 2675.655
1070.153, 2676.315
1070.635, 2681.188
1071.118, 2684.788
1071.600, 2684.016
1072.082, 2681.387
1072.564, 2678.850
1073.046, 2676.233
1073.528, 2676.517
1074.010, 2679.854
1074.492, 2683.462
1074.974, 2685.881
1075.457, 2686.988
1075.939, 2685.054
1076.421, 2681.474
1076.903, 2682.200
1077.385, 2689.965
1077.867, 2695.190
1078.349, 2696.084
1078.831, 2694.472
1079.313, 2691.169
1079.796, 2687.657
1080.278, 2686.906
1080.760, 2689.433
1081.242, 2692.161
1081.724, 2695.529
1082.206, 2696.946
1082.688, 2694.242
1083.170, 2689.571
1083.652, 2690.858
1084.135, 2696.883
1084.617, 2701.361
1085.099, 2702.066
1085.581, 2701.366
1086.063, 2699.815
1086.545, 2698.246
1087.027, 2697.489
1087.509, 2697.715
1087.992, 2697.603
1088.474, 2697.188
1088.956, 2696.371
1089.438, 2694.371
1089.920, 2692.556
1090.402, 2692.311
1090.884, 2693.282
1091.366, 2694.781
1091.849, 2696.831
1092.331, 2699.101
1092.813, 2701.937
1093.295, 2703.731
1093.777, 2701.398
1094.259, 2697.361
1094.741, 2697.360
1095.223, 2701.024
1095.705, 2703.546
1096.188, 2703.003
1096.670, 2700.804
1097.152, 2696.176
1097.634, 2691.463
1098.116, 2692.024
1098.598, 2696.693
1099.080, 2698.278
1099.562, 2695.359
1100.044, 2692.824
1100.527, 2694.693
1101.009, 2697.354
1101.491, 2698.118
1101.973, 2697.417
1102.455, 2698.609
1102.937, 2701.798
1103.419, 2702.769
1103.901, 2699.013
1104.384, 2695.149
1104.866, 2696.710
1105.348, 2700.513
1105.830, 2702.950
1106.312, 2703.451
1106.794, 2702.126
1107.276, 2698.069
1107.758, 2695.360
1108.240, 2697.565
1108.723, 2701.536
1109.205, 2700.854
1109.687, 2697.659
1110.169, 2696.864
1110.651, 2703.321
1111.133, 2707.438
1111.615, 2708.027
1112.097, 2707.126
1112.579, 2706.453
1113.062, 2705.877
1113.544, 2704.817
1114.026, 2703.327
1114.508, 2701.819
1114.990, 2699.969
1115.472, 2698.840
1115.954, 2699.237
1116.436, 2700.250
1116.919, 2700.553
1117.401, 2700.173
1117.883, 2699.487
1118.365, 2698.484
1118.847, 2698.184
1119.329, 2699.610
1119.811, 2701.735
1120.293, 2704.290
1120.776, 2706.930
1121.258, 2708.215
1121.740, 2707.918
1122.222, 2708.475
1122.704, 2710.759
1123.186, 2712.792
1123.668, 2712.568
1124.150, 2710.967
1124.632, 2708.486
1125.115, 2705.008
1125.597, 2703.545
1126.079, 2704.617
1126.561, 2706.341
1127.043, 2708.604
1127.525, 2710.167
1128.007, 2707.258
1128.489, 2702.767
1128.971, 2702.176
1129.454, 2709.333
1129.936, 2713.092
1130.418, 2711.416
1130.900, 2708.219
1131.382, 2704.461
1131.864, 2701.523
1132.346, 2705.127
1132.828, 2713.161
1133.311, 2718.977
1133.793, 2718.414
1134.275, 2717.054
1134.757, 2714.370
1135.239, 2713.369
1135.721, 2718.469
1136.203, 2728.358
1136.685, 2732.254
1137.167, 2730.424
1137.650, 2726.907
1138.132, 2721.554
1138.614, 2717.914
1139.096, 2718.913
1139.578, 2721.942
1140.060, 2723.391
1140.542, 2723.241
1141.024, 2724.113
1141.506, 2726.226
1141.989, 2729.091
1142.471, 2733.866
1142.953, 2737.878
1143.435, 2739.100
1143.917, 2737.953
1144.399, 2735.714
1144.881, 2731.943
1145.363, 2731.004
1145.846, 2734.033
1146.328, 2737.693
1146.810, 2738.860
1147.292, 2738.828
1147.774, 2738.225
1148.256, 2737.306
1148.738, 2738.716
1149.220, 2743.141
1149.703, 2747.466
1150.185, 2751.174
1150.667, 2753.448
1151.149, 2751.464
1151.631, 2748.245
1152.113, 2748.063
1152.595, 2751.961
1153.077, 2756.616
1153.559, 2762.808
1154.042, 2766.778
1154.524, 2766.323
1155.006, 2763.773
1155.488, 2762.462
1155.970, 2762.513
1156.452, 2764.625
1156.934, 2770.382
1157.416, 2773.646
1157.898, 2773.176
1158.381, 2771.410
1158.863, 2769.176
1159.345, 2766.951
1159.827, 2766.442
1160.309, 2767.116
1160.791, 2767.460
1161.273, 2766.384
1161.755, 2766.076
1162.238, 2767.123
1162.720, 2768.963
1163.202, 2771.624
1163.684, 2774.816
1164.166, 2777.404
1164.648, 2779.175
1165.130, 2779.060
1165.612, 2773.318
1166.094, 2769.732
1166.577, 2771.963
1167.059, 2776.060
1167.541, 2777.724
1168.023, 2777.452
1168.505, 2781.488
1168.987, 2789.212
1169.469, 2794.012
1169.951, 2787.605
1170.433, 2782.435
1170.916, 2787.104
1171.398, 2794.273
1171.880, 2793.585
1172.362, 2785.577
1172.844, 2781.109
1173.326, 2780.963
1173.808, 2780.489
1174.290, 2774.017
1174.773, 2768.902
1175.255, 2771.423
1175.737, 2777.656
1176.219, 2780.683
1176.701, 2780.544
1177.183, 2776.474
1177.665, 2768.013
1178.147, 2761.744
1178.630, 2765.520
1179.112, 2770.868
1179.594, 2771.610
1180.076, 2768.934
1180.558, 2767.169
1181.040, 2766.348
1181.522, 2764.879
1182.004, 2762.188
1182.486, 2760.530
1182.969, 2763.856
1183.451, 2767.412
1183.933, 2766.190
1184.415, 2761.077
1184.897, 2759.777
1185.379, 2762.758
1185.861, 2763.701
1186.343, 2760.446
1186.825, 2757.009
1187.308, 2758.374
1187.790, 2760.759
1188.272, 2760.069
1188.754, 2756.280
1189.236, 2754.462
1189.718, 2754.955
1190.200, 2754.718
1190.682, 2752.357
1191.165, 2750.258
1191.647, 2752.093
1192.129, 2754.833
1192.611, 2754.968
1193.093, 2752.010
1193.575, 2749.149
1194.057, 2746.249
1194.539, 2744.086
1195.021, 2742.805
1195.504, 2742.566
1195.986, 2744.450
1196.468, 2746.967
1196.950, 2747.808
1197.432, 2749.764
1197.914, 2752.153
1198.396, 2752.044
1198.878, 2755.628
1199.360, 2755.504
1199.843, 2754.014
1200.325, 2754.226
1200.807, 2754.711
1201.289, 2753.244
1201.771, 2749.194
1202.253, 2745.019
1202.735, 2740.412
1203.217, 2738.001
1203.700, 2739.953
1204.182, 2744.097
1204.664, 2749.479
1205.146, 2754.778
1205.628, 2757.802
1206.110, 2758.064
1206.592, 2756.745
1207.074, 2753.452
1207.557, 2750.793
1208.039, 2750.801
1208.521, 2751.884
1209.003, 2752.174
1209.485, 2752.277
1209.967, 2753.522
1210.449, 2757.173
1210.931, 2758.178
1211.413, 2756.149
1211.896, 2753.920
1212.378, 2753.072
1212.860, 2753.381
1213.342, 2755.430
1213.824, 2758.292
1214.306, 2759.967
1214.788, 2760.023
1215.270, 2760.030
1215.752, 2759.989
1216.235, 2760.295
1216.717, 2762.431
1217.199, 2764.041
1217.681, 2761.849
1218.163, 2757.533
1218.645, 2755.035
1219.127, 2755.031
1219.609, 2754.723
1220.092, 2753.909
1220.574, 2753.657
1221.056, 2755.212
1221.538, 2757.353
1222.020, 2759.443
1222.502, 2761.086
1222.984, 2761.507
1223.466, 2760.392
1223.948, 2759.409
1224.431, 2758.623
1224.913, 2758.293
1225.395, 2758.526
1225.877, 2759.393
1226.359, 2761.278
1226.841, 2763.793
1227.323, 2766.227
1227.805, 2768.854
1228.287, 2768.902
1228.770, 2766.021
1229.252, 2763.788
1229.734, 2765.436
1230.216, 2768.407
1230.698, 2771.677
1231.180, 2774.572
1231.662, 2775.810
1232.144, 2775.304
1232.627, 2773.639
1233.109, 2770.787
1233.591, 2769.238
1234.073, 2772.216
1234.555, 2775.739
1235.037, 2778.046
1235.519, 2778.719
1236.001, 2776.117
1236.484, 2770.279
1236.966, 2768.447
1237.448, 2771.273
1237.930, 2773.857
1238.412, 2772.434
1238.894, 2770.263
1239.376, 2768.614
1239.858, 2767.720
1240.340, 2768.466
1240.823, 2770.609
1241.305, 2771.238
1241.787, 2770.141
1242.269, 2769.728
1242.751, 2771.944
1243.233, 2774.721
1243.715, 2777.422
1244.197, 2779.922
1244.679, 2782.125
1245.162, 2783.997
1245.644, 2785.573
1246.126, 2786.773
1246.608, 2786.017
1247.090, 2778.672
1247.572, 2774.279
1248.054, 2776.427
1248.536, 2781.708
1249.019, 2785.368
1249.501, 2787.746
1249.983, 2790.033
1250.465, 2792.267
1250.947, 2794.015
1251.429, 2794.959
1251.911, 2795.567
1252.393, 2796.327
1252.875, 2796.104
1253.358, 2791.198
1253.840, 2784.844
1254.322, 2785.945
1254.804, 2794.076
1255.286, 2798.987
1255.768, 2795.812
1256.250, 2792.528
1256.732, 2790.041
1257.214, 2788.627
1257.697, 2789.202
1258.179, 2790.793
1258.661, 2792.230
1259.143, 2793.304
1259.625, 2792.948
1260.107, 2789.827
1260.589, 2789.055
1261.071, 2791.902
1261.554, 2794.953
1262.036, 2794.453
1262.518, 2792.167
1263.000, 2788.390
1263.482, 2784.473
1263.964, 2786.640
1264.446, 2797.581
1264.928, 2802.137
1265.411, 2797.603
1265.893, 2792.774
1266.375, 2796.068
1266.857, 2802.017
1267.339, 2806.054
1267.821, 2808.875
1268.303, 2813.749
1268.785, 2821.126
1269.267, 2824.639
1269.750, 2823.534
1270.232, 2820.595
1270.714, 2816.005
1271.196, 2812.215
1271.678, 2811.246
1272.160, 2811.998
1272.642, 2813.450
1273.124, 2815.437
1273.606, 2814.828
1274.089, 2811.604
1274.571, 2809.511
1275.053, 2814.244
1275.535, 2815.952
1276.017, 2808.157
1276.499, 2798.869
1276.981, 2799.978
1277.463, 2808.695
1277.946, 2815.192
1278.428, 2818.772
1278.910, 2820.090
1279.392, 2817.242
1279.874, 2815.122
1280.356, 2814.610
1280.838, 2814.970
1281.320, 2815.860
1281.802, 2816.788
1282.285, 2816.208
1282.767, 2817.062
1283.249, 2817.771
1283.731, 2817.396
1284.213, 2819.104
1284.695, 2818.820
1285.177, 2818.382
1285.659, 2819.719
1286.141, 2821.722
1286.624, 2823.575
1287.106, 2824.857
1287.588, 2824.181
1288.070, 2820.575
1288.552, 2818.950
1289.034, 2819.563
1289.516, 2822.222
1289.998, 2829.427
1290.481, 2835.965
1290.963, 2837.006
1291.445, 2834.656
1291.927, 2832.463
1292.409, 2830.290
1292.891, 2830.302
1293.373, 2832.515
1293.855, 2836.168
1294.338, 2842.820
1294.820, 2848.351
1295.302, 2850.073
1295.784, 2850.334
1296.266, 2851.056
1296.748, 2852.104
1297.230, 2851.137
1297.712, 2849.300
1298.194, 2851.017
1298.677, 2861.456
1299.159, 2869.402
1299.641, 2872.677
1300.123, 2874.147
1300.605, 2876.163
1301.087, 2877.619
1301.569, 2874.335
1302.051, 2867.949
1302.533, 2862.283
1303.016, 2855.997
##END=



