##NAMES=Almandine
##RRUFFID=R040168
##IDEAL CHEMISTRY=Fe^2+^_3_Al_2_(SiO_4_)_3_
##LOCALITY=Pocos Dos Cavatos, Ceara, Brazil
##OWNER=RRUFF
##SOURCE=University of Arizona Mineral Museum
##DESCRIPTION=Dark red etched single crystal
##STATUS=The identification of this mineral has been confirmed by X-ray diffraction and chemical analysis
##URL=rruff.info/R040168
##MEASURED CHEMISTRY=(Fe^2+^_1.48_Mn_1.47_Ca_0.05_)_Î£=3_Al_2.00_(Si_1.00_O_4_)_3_; trace amounts of Ti and Y
124.5917, 22.40697
125.0739, 23.07276
125.5560, 22.93397
126.0381, 22.71519
126.5202, 23.95757
127.0023, 27.45495
127.4844, 32.05564
127.9666, 36.36048
128.4487, 40.36133
128.9308, 43.42752
129.4129, 44.14359
129.8950, 43.05153
130.3772, 42.92165
130.8593, 44.95200
131.3414, 48.55677
131.8235, 51.92212
132.3056, 55.10859
132.7877, 57.65621
133.2699, 58.30044
133.7520, 56.91831
134.2341, 56.58799
134.7162, 59.11185
135.1983, 64.50275
135.6804, 68.62530
136.1626, 70.96072
136.6447, 72.67171
137.1268, 76.22852
137.6089, 82.13213
138.0910, 88.02600
138.5731, 92.84573
139.0553, 96.80358
139.5374, 98.92326
140.0195, 98.78709
140.5016, 96.81284
140.9837, 94.35072
141.4658, 90.59496
141.9480, 87.58075
142.4301, 86.99543
142.9122, 90.38919
143.3943, 92.89986
143.8764, 93.76253
144.3585, 93.00666
144.8407, 92.28430
145.3228, 90.80371
145.8049, 89.96899
146.2870, 91.17363
146.7691, 95.69022
147.2512, 100.5594
147.7334, 105.4608
148.2155, 110.6736
148.6976, 114.8390
149.1797, 116.1951
149.6618, 117.0218
150.1439, 120.3001
150.6261, 128.8341
151.1082, 137.2653
151.5903, 144.0775
152.0724, 148.3216
152.5545, 152.9585
153.0366, 157.5850
153.5188, 162.7424
154.0009, 169.4647
154.4830, 180.0328
154.9651, 190.6804
155.4472, 199.7439
155.9293, 205.5124
156.4115, 211.8632
156.8936, 219.6259
157.3757, 228.6023
157.8578, 238.1969
158.3399, 246.2673
158.8221, 256.0217
159.3042, 269.6346
159.7863, 290.7183
160.2684, 312.7000
160.7505, 331.9349
161.2326, 349.3341
161.7148, 370.6234
162.1969, 402.9467
162.6790, 438.6630
163.1611, 469.9932
163.6432, 499.1709
164.1253, 519.8948
164.6075, 529.8895
165.0896, 529.1093
165.5717, 515.6505
166.0538, 478.5002
166.5359, 429.6543
167.0180, 386.2380
167.5002, 357.0378
167.9823, 334.4735
168.4644, 312.7291
168.9465, 291.0587
169.4286, 272.4486
169.9107, 259.9026
170.3929, 252.1324
170.8750, 246.1029
171.3571, 241.2026
171.8392, 236.9403
172.3213, 232.9674
172.8034, 229.4503
173.2856, 225.6659
173.7677, 220.0892
174.2498, 213.4028
174.7319, 208.0396
175.2140, 207.1968
175.6961, 208.2011
176.1783, 206.5603
176.6604, 200.3669
177.1425, 193.3088
177.6246, 190.4686
178.1067, 191.2968
178.5888, 192.0373
179.0710, 189.8840
179.5531, 185.6563
180.0352, 180.9774
180.5173, 175.7097
180.9994, 170.7608
181.4815, 168.5277
181.9637, 168.8909
182.4458, 168.7270
182.9279, 164.4094
183.4100, 157.0618
183.8921, 150.8624
184.3742, 147.2275
184.8564, 145.3946
185.3385, 144.1411
185.8206, 143.5380
186.3027, 142.5211
186.7848, 139.5011
187.2669, 134.7773
187.7491, 130.5245
188.2312, 127.4045
188.7133, 125.3479
189.1954, 124.0657
189.6775, 123.5684
190.1596, 123.8515
190.6418, 125.3213
191.1239, 127.9357
191.6060, 130.2309
192.0881, 131.6246
192.5702, 132.1701
193.0524, 132.1796
193.5345, 131.4939
194.0166, 130.6866
194.4987, 130.7380
194.9808, 131.7008
195.4629, 132.7291
195.9451, 133.4179
196.4272, 133.7827
196.9093, 133.8914
197.3914, 133.3290
197.8735, 133.1665
198.3556, 136.0424
198.8378, 142.4566
199.3199, 148.6537
199.8020, 152.0577
200.2841, 152.3551
200.7662, 154.2684
201.2483, 158.5424
201.7305, 164.1430
202.2126, 168.3499
202.6947, 170.7708
203.1768, 173.2630
203.6589, 177.1522
204.1410, 182.6586
204.6232, 187.6384
205.1053, 191.5518
205.5874, 194.9690
206.0695, 199.8831
206.5516, 206.6031
207.0337, 214.0086
207.5159, 221.1907
207.9980, 227.6676
208.4801, 235.6028
208.9622, 245.4789
209.4443, 257.0053
209.9264, 268.8530
210.4086, 281.1334
210.8907, 293.5635
211.3728, 305.4622
211.8549, 316.2952
212.3370, 329.0793
212.8191, 345.8473
213.3013, 365.4826
213.7834, 379.4840
214.2655, 386.4263
214.7476, 390.0392
215.2297, 393.4501
215.7118, 397.1929
216.1940, 399.2386
216.6761, 398.6960
217.1582, 395.7231
217.6403, 394.4445
218.1224, 397.0546
218.6045, 398.4587
219.0867, 393.0227
219.5688, 377.6869
220.0509, 362.8336
220.5330, 351.2171
221.0151, 342.7849
221.4972, 332.7546
221.9794, 320.2878
222.4615, 307.0657
222.9436, 294.3662
223.4257, 281.1369
223.9078, 270.6479
224.3899, 264.9196
224.8721, 264.5304
225.3542, 259.9117
225.8363, 248.4780
226.3184, 235.2311
226.8005, 226.1520
227.2827, 223.4458
227.7648, 220.8632
228.2469, 217.0306
228.7290, 211.9309
229.2111, 205.5616
229.6932, 196.2974
230.1754, 187.1540
230.6575, 182.3959
231.1396, 184.7641
231.6217, 186.7289
232.1038, 186.0228
232.5859, 181.9928
233.0681, 178.8179
233.5502, 176.8164
234.0323, 175.4490
234.5144, 174.0022
234.9965, 172.7833
235.4786, 170.9517
235.9608, 167.9324
236.4429, 163.2170
236.9250, 159.9037
237.4071, 158.5565
237.8892, 158.2898
238.3713, 157.7199
238.8535, 156.6658
239.3356, 155.6127
239.8177, 154.7367
240.2998, 154.1165
240.7819, 153.3306
241.2640, 152.1474
241.7462, 150.9204
242.2283, 150.2865
242.7104, 150.5465
243.1925, 150.9100
243.6746, 151.1808
244.1567, 151.4491
244.6389, 151.2346
245.1210, 150.1110
245.6031, 148.7581
246.0852, 148.5659
246.5673, 150.5667
247.0494, 151.9636
247.5316, 151.6301
248.0137, 148.9684
248.4958, 146.5006
248.9779, 143.9103
249.4600, 141.7087
249.9421, 141.0372
250.4243, 142.6540
250.9064, 144.4358
251.3885, 145.6833
251.8706, 146.3976
252.3527, 146.4430
252.8348, 145.2204
253.3170, 143.6985
253.7991, 143.9410
254.2812, 146.9746
254.7633, 149.8062
255.2454, 151.4164
255.7275, 151.7525
256.2097, 150.7242
256.6918, 147.1234
257.1739, 142.9980
257.6560, 142.8357
258.1381, 149.4061
258.6202, 154.1884
259.1024, 152.9506
259.5845, 143.2199
260.0666, 138.0701
260.5487, 139.1767
261.0308, 143.6091
261.5129, 146.0989
261.9951, 146.1158
262.4772, 145.3937
262.9593, 144.3739
263.4414, 142.8121
263.9235, 142.1061
264.4056, 142.3968
264.8878, 143.4093
265.3699, 144.9186
265.8520, 147.3842
266.3341, 149.0558
266.8162, 148.7533
267.2983, 145.8689
267.7805, 144.9878
268.2626, 146.4500
268.7447, 149.5606
269.2268, 153.7111
269.7089, 159.6107
270.1910, 163.9969
270.6732, 165.5179
271.1553, 163.9708
271.6374, 160.9603
272.1195, 155.7145
272.6016, 150.1309
273.0837, 147.6571
273.5659, 148.7527
274.0480, 150.5161
274.5301, 152.0477
275.0122, 153.3451
275.4943, 153.9832
275.9764, 153.5387
276.4586, 153.2312
276.9407, 155.6423
277.4228, 161.2214
277.9049, 165.3601
278.3870, 165.3363
278.8691, 161.4192
279.3513, 160.1940
279.8334, 162.3181
280.3155, 165.4438
280.7976, 166.0348
281.2798, 163.9493
281.7619, 162.5246
282.2440, 163.1206
282.7261, 165.5280
283.2082, 168.3713
283.6903, 171.7960
284.1725, 175.1205
284.6546, 177.2209
285.1367, 178.1391
285.6188, 179.4841
286.1009, 182.2858
286.5830, 186.0174
287.0652, 188.2541
287.5473, 188.8223
288.0294, 188.8145
288.5115, 189.3691
288.9936, 190.4270
289.4757, 191.3573
289.9579, 190.7975
290.4400, 190.2361
290.9221, 194.9839
291.4042, 205.4400
291.8863, 216.2256
292.3684, 221.1349
292.8506, 221.4321
293.3327, 222.7674
293.8148, 227.8007
294.2969, 234.4702
294.7790, 238.6675
295.2611, 240.4011
295.7433, 241.5431
296.2254, 243.5579
296.7075, 246.2970
297.1896, 249.2729
297.6717, 252.5476
298.1538, 255.8845
298.6360, 258.7272
299.1181, 261.1528
299.6002, 263.7636
300.0823, 267.5356
300.5644, 271.7925
301.0465, 275.1421
301.5287, 276.4639
302.0108, 277.6784
302.4929, 281.9169
302.9750, 288.5424
303.4571, 293.6659
303.9392, 291.9974
304.4214, 288.0808
304.9035, 288.3041
305.3856, 295.5979
305.8677, 305.1364
306.3498, 312.7853
306.8319, 319.0652
307.3141, 325.9964
307.7962, 334.1746
308.2783, 343.7476
308.7604, 355.0818
309.2425, 368.2410
309.7246, 382.6953
310.2068, 399.0123
310.6889, 416.5253
311.1710, 433.6780
311.6531, 450.4592
312.1352, 466.1705
312.6173, 479.3531
313.0995, 488.0115
313.5816, 498.8980
314.0637, 517.1495
314.5458, 539.7796
315.0279, 561.2908
315.5100, 578.8118
315.9922, 595.2371
316.4743, 611.8080
316.9564, 628.4569
317.4385, 646.1365
317.9206, 665.7482
318.4027, 686.4457
318.8849, 707.0465
319.3670, 729.4633
319.8491, 749.7694
320.3312, 765.8126
320.8133, 776.7565
321.2954, 787.9523
321.7776, 806.3842
322.2597, 823.4169
322.7418, 829.8467
323.2239, 818.5668
323.7060, 802.3371
324.1881, 783.2037
324.6703, 761.1210
325.1524, 737.7650
325.6345, 710.5327
326.1166, 683.7708
326.5987, 660.7354
327.0808, 643.3790
327.5630, 627.4648
328.0451, 611.6963
328.5272, 596.2624
329.0093, 585.2580
329.4914, 579.7993
329.9735, 577.9655
330.4557, 578.6755
330.9378, 582.4212
331.4199, 587.8353
331.9020, 594.4444
332.3841, 602.5912
332.8662, 614.1340
333.3484, 629.7880
333.8305, 647.5840
334.3126, 666.0899
334.7947, 683.5067
335.2768, 706.8618
335.7589, 737.8686
336.2411, 774.2039
336.7232, 811.0247
337.2053, 847.8195
337.6874, 885.8439
338.1695, 926.0134
338.6516, 967.9894
339.1338, 1011.208
339.6159, 1053.593
340.0980, 1099.935
340.5801, 1160.982
341.0622, 1239.628
341.5443, 1312.988
342.0265, 1369.923
342.5086, 1412.193
342.9907, 1463.046
343.4728, 1524.080
343.9549, 1585.748
344.4370, 1640.538
344.9192, 1687.234
345.4013, 1715.896
345.8834, 1723.026
346.3655, 1709.153
346.8476, 1672.329
347.3297, 1612.489
347.8119, 1538.522
348.2940, 1454.473
348.7761, 1362.512
349.2582, 1270.812
349.7403, 1177.824
350.2225, 1087.699
350.7046, 1005.311
351.1867, 929.9648
351.6688, 862.0245
352.1509, 800.4258
352.6331, 746.5059
353.1152, 702.6428
353.5973, 670.5775
354.0794, 646.4046
354.5615, 629.0593
355.0436, 617.2601
355.5258, 607.1071
356.0079, 595.5137
356.4900, 585.1526
356.9721, 578.8810
357.4542, 578.1459
357.9363, 578.0796
358.4185, 571.7731
358.9006, 564.7256
359.3827, 566.4514
359.8648, 589.3966
360.3469, 615.1458
360.8290, 633.3135
361.3112, 641.8268
361.7933, 651.9116
362.2754, 665.6600
362.7575, 683.4482
363.2396, 705.7810
363.7217, 735.8945
364.2039, 767.1509
364.6860, 796.8039
365.1681, 824.9040
365.6502, 857.1698
366.1323, 900.6719
366.6144, 944.8964
367.0966, 982.6628
367.5787, 1002.901
368.0608, 1029.662
368.5429, 1069.991
369.0250, 1119.936
369.5071, 1158.361
369.9893, 1182.048
370.4714, 1197.920
370.9535, 1209.110
371.4356, 1215.820
371.9177, 1217.933
372.3998, 1219.209
372.8820, 1213.880
373.3641, 1187.056
373.8462, 1132.170
374.3283, 1073.089
374.8104, 1019.592
375.2925, 971.7906
375.7747, 923.3148
376.2568, 874.4244
376.7389, 823.5396
377.2210, 767.1506
377.7031, 704.6002
378.1852, 646.0590
378.6674, 592.9861
379.1495, 546.3734
379.6316, 509.4847
380.1137, 483.1613
380.5958, 461.7473
381.0779, 442.2821
381.5601, 423.9560
382.0422, 404.1141
382.5243, 381.0705
383.0064, 357.0191
383.4885, 334.6540
383.9706, 313.9394
384.4528, 296.1636
384.9349, 282.9198
385.4170, 272.8514
385.8991, 263.3198
386.3812, 253.6519
386.8633, 245.1142
387.3455, 240.0265
387.8276, 237.0268
388.3097, 232.9022
388.7918, 224.9283
389.2739, 215.9316
389.7560, 208.1556
390.2382, 201.8414
390.7203, 195.9147
391.2024, 189.5351
391.6845, 183.3357
392.1666, 177.9685
392.6487, 173.1340
393.1309, 169.7139
393.6130, 169.3503
394.0951, 171.6116
394.5772, 171.7318
395.0593, 166.4866
395.5414, 159.9907
396.0236, 154.8581
396.5057, 150.7411
396.9878, 148.8290
397.4699, 151.1821
397.9520, 156.1062
398.4341, 158.2995
398.9163, 157.1571
399.3984, 153.8686
399.8805, 148.0329
400.3626, 137.1787
400.8447, 131.4218
401.3268, 133.2790
401.8090, 138.3828
402.2911, 140.5636
402.7732, 138.8502
403.2553, 136.6531
403.7374, 134.6032
404.2195, 132.7384
404.7017, 132.0315
405.1838, 132.9421
405.6659, 133.7608
406.1480, 132.8768
406.6301, 130.2724
407.1122, 126.9910
407.5944, 122.6261
408.0765, 118.2962
408.5586, 116.9986
409.0407, 118.6808
409.5228, 121.2790
410.0049, 124.6540
410.4871, 127.9008
410.9692, 127.6533
411.4513, 122.7209
411.9334, 117.7267
412.4155, 119.0395
412.8976, 124.7517
413.3798, 129.2853
413.8619, 129.6356
414.3440, 127.8715
414.8261, 125.4756
415.3082, 122.5092
415.7903, 120.5771
416.2725, 121.9460
416.7546, 124.4527
417.2367, 125.6598
417.7188, 123.8683
418.2009, 121.6221
418.6830, 119.7200
419.1652, 118.2163
419.6473, 117.3866
420.1294, 118.0387
420.6115, 118.8485
421.0937, 119.1164
421.5758, 118.6406
422.0579, 117.8424
422.5400, 116.6189
423.0221, 115.1381
423.5042, 113.6227
423.9864, 110.7188
424.4685, 109.3444
424.9506, 110.8030
425.4327, 115.4229
425.9148, 118.2578
426.3969, 118.1739
426.8791, 117.5971
427.3612, 119.1542
427.8433, 124.4785
428.3254, 126.6273
428.8075, 123.8271
429.2896, 117.4843
429.7718, 111.9632
430.2539, 107.0629
430.7360, 103.8984
431.2181, 103.7519
431.7002, 106.4137
432.1823, 109.0548
432.6645, 111.7290
433.1466, 113.7423
433.6287, 113.7505
434.1108, 112.0852
434.5929, 110.3382
435.0750, 108.5073
435.5572, 107.3037
436.0393, 109.0824
436.5214, 113.6487
437.0035, 116.8772
437.4856, 113.2567
437.9677, 106.9425
438.4499, 103.9918
438.9320, 107.5165
439.4141, 112.0739
439.8962, 113.8725
440.3783, 113.6826
440.8604, 113.5431
441.3426, 114.8247
441.8247, 116.0512
442.3068, 116.3229
442.7889, 115.3810
443.2710, 114.2607
443.7531, 113.1340
444.2353, 112.0116
444.7174, 110.8849
445.1995, 108.9029
445.6816, 107.8695
446.1637, 108.6780
446.6458, 111.0745
447.1280, 112.3605
447.6101, 111.5566
448.0922, 110.7231
448.5743, 111.0420
449.0564, 113.0021
449.5385, 114.9109
450.0207, 116.9509
450.5028, 118.7106
450.9849, 119.1051
451.4670, 117.7846
451.9491, 116.8590
452.4312, 117.2312
452.9134, 118.7494
453.3955, 120.4169
453.8776, 122.3047
454.3597, 123.8067
454.8418, 123.8330
455.3239, 122.8196
455.8061, 122.5214
456.2882, 123.2466
456.7703, 124.9996
457.2524, 128.2552
457.7345, 132.6896
458.2166, 137.0695
458.6988, 141.0536
459.1809, 144.3630
459.6630, 146.5581
460.1451, 147.5582
460.6272, 147.8891
461.1093, 146.8718
461.5915, 145.6877
462.0736, 145.8339
462.5557, 147.9655
463.0378, 151.3486
463.5199, 156.5853
464.0020, 163.2695
464.4842, 168.6892
464.9663, 171.2513
465.4484, 173.1095
465.9305, 175.2357
466.4126, 176.2417
466.8947, 180.2152
467.3769, 189.4582
467.8590, 200.6340
468.3411, 207.9297
468.8232, 208.2633
469.3053, 210.8808
469.7874, 218.9508
470.2696, 232.1091
470.7517, 243.8962
471.2338, 254.4124
471.7159, 263.1785
472.1980, 269.0137
472.6801, 272.0133
473.1623, 275.4865
473.6444, 280.0380
474.1265, 285.0473
474.6086, 292.0767
475.0907, 299.9612
475.5728, 301.1706
476.0550, 286.9362
476.5371, 265.0901
477.0192, 248.3221
477.5013, 237.0118
477.9834, 227.5137
478.4655, 216.9870
478.9477, 206.5559
479.4298, 197.8729
479.9119, 192.2061
480.3940, 187.2593
480.8761, 180.7206
481.3582, 173.8220
481.8404, 170.2232
482.3225, 174.4392
482.8046, 179.4921
483.2867, 181.7386
483.7688, 179.3617
484.2509, 179.4270
484.7331, 185.2698
485.2152, 192.3966
485.6973, 196.5599
486.1794, 195.1255
486.6615, 195.1387
487.1436, 197.1159
487.6258, 201.2625
488.1079, 209.0912
488.5900, 221.6124
489.0721, 234.9211
489.5542, 246.7566
490.0363, 257.1526
490.5185, 267.7140
491.0006, 277.9176
491.4827, 289.8781
491.9648, 307.8064
492.4470, 330.5192
492.9291, 351.0065
493.4112, 364.2436
493.8933, 375.8100
494.3754, 394.2553
494.8575, 418.9828
495.3397, 445.1101
495.8218, 472.4836
496.3039, 498.5197
496.7860, 519.8039
497.2681, 535.5067
497.7502, 549.1834
498.2324, 566.7386
498.7145, 582.4144
499.1966, 588.7075
499.6787, 580.3923
500.1608, 565.2242
500.6429, 544.6728
501.1251, 518.9009
501.6072, 489.3721
502.0893, 450.3954
502.5714, 412.4409
503.0535, 380.5437
503.5356, 357.4468
504.0178, 333.9330
504.4999, 309.2942
504.9820, 285.0895
505.4641, 262.3548
505.9462, 240.3243
506.4283, 224.3396
506.9105, 217.8147
507.3926, 218.2275
507.8747, 215.8890
508.3568, 210.7059
508.8389, 204.1602
509.3210, 196.1591
509.8032, 187.5647
510.2853, 180.8389
510.7674, 176.5206
511.2495, 173.0799
511.7316, 168.4638
512.2137, 163.5765
512.6959, 160.3159
513.1780, 160.8976
513.6601, 162.1353
514.1422, 161.9592
514.6243, 160.5290
515.1064, 159.1062
515.5886, 157.8142
516.0707, 156.9385
516.5528, 156.8186
517.0349, 158.3522
517.5170, 158.8432
517.9991, 156.8919
518.4813, 154.2038
518.9634, 152.9158
519.4455, 153.4068
519.9276, 154.7705
520.4097, 157.6375
520.8918, 161.3987
521.3740, 161.8093
521.8561, 157.9288
522.3382, 153.8130
522.8203, 151.7676
523.3024, 151.7764
523.7845, 153.9724
524.2667, 159.0259
524.7488, 163.7809
525.2309, 163.3862
525.7130, 159.2973
526.1951, 156.6685
526.6772, 158.4184
527.1594, 161.3917
527.6415, 161.5300
528.1236, 159.4772
528.6057, 158.0667
529.0878, 160.0555
529.5699, 162.5653
530.0521, 162.9262
530.5342, 159.9895
531.0163, 158.6200
531.4984, 162.6442
531.9805, 168.0417
532.4626, 170.5562
532.9448, 165.3918
533.4269, 162.4286
533.9090, 163.7852
534.3911, 168.2536
534.8732, 170.9176
535.3553, 170.6157
535.8375, 170.7447
536.3196, 172.9073
536.8017, 177.2343
537.2838, 181.0938
537.7659, 184.1587
538.2480, 187.9643
538.7302, 195.0494
539.2123, 204.8604
539.6944, 212.8837
540.1765, 217.4709
540.6586, 221.0933
541.1407, 227.5355
541.6229, 236.1703
542.1050, 244.8233
542.5871, 251.1805
543.0692, 257.7936
543.5513, 266.4745
544.0334, 277.2701
544.5156, 290.7890
544.9977, 310.8922
545.4798, 331.7841
545.9619, 348.5266
546.4440, 356.5764
546.9261, 365.8567
547.4083, 377.5613
547.8904, 391.4460
548.3725, 407.1657
548.8546, 427.8203
549.3367, 445.2476
549.8188, 456.2038
550.3010, 461.4715
550.7831, 470.9984
551.2652, 486.2785
551.7473, 500.8779
552.2294, 510.5575
552.7115, 515.4975
553.1937, 516.6422
553.6758, 513.8604
554.1579, 508.1365
554.6400, 502.1342
555.1221, 494.2792
555.6042, 480.0490
556.0864, 454.1955
556.5685, 424.7457
557.0506, 398.3330
557.5327, 374.7011
558.0148, 353.3622
558.4969, 335.0326
558.9791, 318.1319
559.4612, 301.7008
559.9433, 285.4668
560.4254, 270.8841
560.9075, 258.5542
561.3896, 247.8872
561.8718, 238.2213
562.3539, 230.5388
562.8360, 221.9946
563.3181, 211.3370
563.8002, 200.2768
564.2823, 193.5148
564.7645, 192.2524
565.2466, 190.0240
565.7287, 183.1020
566.2108, 173.0543
566.6929, 168.5423
567.1750, 169.8101
567.6572, 171.9078
568.1393, 170.6522
568.6214, 167.2540
569.1035, 164.0765
569.5856, 161.4453
570.0677, 159.1300
570.5499, 155.8536
571.0320, 152.9613
571.5141, 152.5445
571.9962, 159.4227
572.4783, 164.8872
572.9604, 164.5397
573.4426, 159.3877
573.9247, 154.8140
574.4068, 151.2559
574.8889, 148.8816
575.3710, 147.9973
575.8531, 148.9572
576.3353, 149.5624
576.8174, 149.6253
577.2995, 149.6035
577.7816, 149.7987
578.2637, 150.1659
578.7458, 151.4047
579.2280, 153.9045
579.7101, 156.7905
580.1922, 158.5780
580.6743, 159.3593
581.1564, 159.6576
581.6385, 159.1050
582.1207, 158.5329
582.6028, 159.3772
583.0849, 161.4319
583.5670, 163.1420
584.0491, 163.4503
584.5313, 163.1339
585.0134, 162.7513
585.4955, 162.3699
585.9776, 161.9870
586.4597, 160.3832
586.9418, 159.3082
587.4240, 160.8321
587.9061, 166.6388
588.3882, 172.5410
588.8703, 178.8078
589.3524, 184.6915
589.8345, 187.4735
590.3167, 186.2467
590.7988, 185.4364
591.2809, 187.3538
591.7630, 191.3310
592.2451, 194.3378
592.7272, 196.4152
593.2094, 196.5146
593.6915, 193.1512
594.1736, 187.3128
594.6557, 180.2807
595.1378, 171.8431
595.6199, 164.6147
596.1021, 161.2997
596.5842, 160.2797
597.0663, 159.2429
597.5485, 158.8451
598.0306, 156.8147
598.5127, 151.4592
598.9948, 143.6045
599.4769, 136.7220
599.9590, 129.8080
600.4412, 125.2502
600.9233, 124.4950
601.4054, 127.8614
601.8875, 130.1665
602.3696, 131.7451
602.8517, 131.3764
603.3339, 126.2343
603.8160, 116.9227
604.2981, 112.8405
604.7802, 115.9983
605.2623, 121.2642
605.7444, 122.0561
606.2266, 119.6313
606.7087, 117.3161
607.1908, 116.1544
607.6729, 115.7330
608.1550, 115.8311
608.6371, 116.4072
609.1193, 117.3301
609.6014, 118.7481
610.0835, 120.3286
610.5656, 122.2045
611.0477, 124.5879
611.5298, 125.4788
612.0120, 123.2345
612.4941, 121.0671
612.9762, 121.1069
613.4583, 123.7302
613.9404, 127.5208
614.4225, 133.1689
614.9047, 138.6285
615.3868, 140.4109
615.8689, 138.8311
616.3510, 137.8537
616.8331, 138.7108
617.3152, 140.6591
617.7974, 142.7377
618.2795, 144.9544
618.7616, 147.4403
619.2437, 150.7240
619.7258, 153.9483
620.2079, 155.8756
620.6901, 156.4835
621.1722, 158.8181
621.6543, 166.4196
622.1364, 174.3718
622.6185, 179.0330
623.1006, 177.2471
623.5828, 179.0503
624.0649, 186.4566
624.5470, 195.6047
625.0291, 201.4155
625.5112, 202.9342
625.9933, 206.5441
626.4755, 214.1413
626.9576, 223.3579
627.4397, 229.7347
627.9218, 233.3411
628.4039, 234.7112
628.8860, 232.7448
629.3682, 229.3993
629.8503, 227.6551
630.3324, 227.2337
630.8145, 225.9972
631.2966, 223.9266
631.7787, 219.7611
632.2609, 211.8535
632.7430, 198.6696
633.2251, 187.0034
633.7072, 178.2760
634.1893, 171.6797
634.6714, 166.7897
635.1536, 165.2881
635.6357, 161.4445
636.1178, 153.6272
636.5999, 144.6217
637.0820, 140.4122
637.5641, 141.2722
638.0463, 140.4406
638.5284, 134.3493
639.0105, 126.4092
639.4926, 123.9204
639.9747, 126.0915
640.4568, 128.3705
640.9390, 127.9185
641.4211, 126.3612
641.9032, 125.1704
642.3853, 124.4564
642.8674, 123.5796
643.3495, 122.3794
643.8317, 120.8663
644.3138, 119.0507
644.7959, 117.1009
645.2780, 114.4089
645.7601, 110.1195
646.2422, 105.8472
646.7244, 103.4380
647.2065, 103.0652
647.6886, 103.9654
648.1707, 106.5002
648.6528, 109.5404
649.1349, 111.0767
649.6171, 111.1337
650.0992, 109.9740
650.5813, 106.4352
651.0634, 102.5441
651.5455, 100.9037
652.0276, 101.2231
652.5098, 102.0265
652.9919, 103.4382
653.4740, 104.3789
653.9561, 103.8057
654.4382, 101.2031
654.9203, 99.67633
655.4025, 100.2980
655.8846, 101.5410
656.3667, 102.4995
656.8488, 103.2910
657.3309, 103.4506
657.8130, 102.9703
658.2952, 101.8499
658.7773, 99.62507
659.2594, 96.43643
659.7415, 94.25473
660.2236, 93.82090
660.7057, 94.24382
661.1879, 94.75865
661.6700, 95.14333
662.1521, 94.76302
662.6342, 91.41283
663.1163, 88.83965
663.5984, 90.71825
664.0806, 96.30355
664.5627, 99.26646
665.0448, 93.91395
665.5269, 89.41167
666.0090, 90.44102
666.4911, 98.20977
666.9733, 102.2214
667.4554, 101.3635
667.9375, 98.95339
668.4196, 97.57028
668.9017, 97.17511
669.3839, 96.52423
669.8660, 95.37648
670.3481, 94.58138
670.8302, 95.97202
671.3123, 98.39679
671.7944, 99.25954
672.2766, 96.96243
672.7587, 94.17844
673.2408, 92.25277
673.7229, 91.13427
674.2050, 90.67891
674.6871, 91.08208
675.1693, 91.91374
675.6514, 93.72043
676.1335, 96.05585
676.6156, 96.22031
677.0977, 92.92710
677.5798, 90.39813
678.0620, 90.72067
678.5441, 93.60497
679.0262, 96.87384
679.5083, 100.6873
679.9904, 102.6774
680.4725, 99.15459
680.9547, 93.07069
681.4368, 89.72070
681.9189, 89.92259
682.4010, 91.10970
682.8831, 91.53384
683.3652, 92.09294
683.8474, 93.84013
684.3295, 99.24728
684.8116, 102.2800
685.2937, 99.64162
685.7758, 95.24992
686.2579, 94.55559
686.7401, 99.57539
687.2222, 102.6229
687.7043, 101.7732
688.1864, 98.67484
688.6685, 97.21098
689.1506, 97.30124
689.6328, 97.65179
690.1149, 97.65133
690.5970, 97.59602
691.0791, 98.26961
691.5612, 99.43259
692.0433, 99.86218
692.5255, 98.37140
693.0076, 96.37383
693.4897, 94.28648
693.9718, 92.01273
694.4539, 91.59700
694.9360, 95.68774
695.4182, 99.48513
695.9003, 100.1352
696.3824, 96.51846
696.8645, 94.72820
697.3466, 95.37976
697.8287, 96.24295
698.3109, 93.94760
698.7930, 89.40800
699.2751, 87.85532
699.7572, 90.75780
700.2393, 94.77470
700.7214, 97.08274
701.2036, 97.97816
701.6857, 97.93430
702.1678, 96.21158
702.6499, 94.63847
703.1320, 93.27259
703.6141, 92.57338
704.0963, 93.84736
704.5784, 99.41895
705.0605, 103.4511
705.5426, 104.6442
706.0247, 103.3493
706.5068, 100.2144
706.9890, 94.73000
707.4711, 91.53224
707.9532, 95.17668
708.4353, 102.4080
708.9174, 103.7575
709.3995, 99.84357
709.8817, 96.63928
710.3638, 100.0987
710.8459, 104.9009
711.3280, 105.8877
711.8101, 102.0388
712.2922, 98.88953
712.7744, 98.27069
713.2565, 98.67993
713.7386, 99.04552
714.2207, 99.15977
714.7028, 99.90449
715.1849, 101.6966
715.6671, 103.4059
716.1492, 103.4456
716.6313, 102.0012
717.1134, 101.4778
717.5955, 102.5511
718.0776, 103.7997
718.5598, 102.9570
719.0419, 101.0859
719.5240, 100.2851
720.0061, 102.4902
720.4882, 104.4723
720.9703, 104.5782
721.4525, 103.4006
721.9346, 102.2855
722.4167, 101.2299
722.8988, 100.4752
723.3809, 100.0956
723.8630, 100.0477
724.3452, 99.94814
724.8273, 99.64070
725.3094, 100.4456
725.7915, 104.1604
726.2736, 109.0083
726.7557, 109.3618
727.2379, 105.8571
727.7200, 103.5029
728.2021, 107.6821
728.6842, 112.8627
729.1663, 114.0042
729.6484, 110.5540
730.1306, 107.8522
730.6127, 108.3318
731.0948, 109.2226
731.5769, 108.9146
732.0590, 106.9714
732.5411, 105.6650
733.0233, 105.1283
733.5054, 104.9303
733.9875, 104.4050
734.4696, 103.7315
734.9517, 104.5739
735.4338, 107.3729
735.9160, 110.1502
736.3981, 110.2660
736.8802, 109.2605
737.3623, 109.7761
737.8444, 114.6862
738.3266, 116.9641
738.8087, 110.7493
739.2908, 101.3730
739.7729, 96.79330
740.2551, 99.91232
740.7372, 103.0721
741.2193, 105.8708
741.7014, 107.8641
742.1835, 107.2986
742.6656, 104.1353
743.1478, 102.9028
743.6299, 106.2892
744.1120, 110.8287
744.5941, 109.9740
745.0762, 105.4854
745.5583, 102.8056
746.0405, 107.3286
746.5226, 111.9053
747.0047, 111.8724
747.4868, 108.0670
747.9689, 105.7812
748.4510, 106.6190
748.9332, 107.7993
749.4153, 108.3795
749.8974, 108.4752
750.3795, 109.8427
750.8616, 112.7357
751.3438, 114.9090
751.8259, 114.0957
752.3080, 111.6876
752.7901, 111.2861
753.2722, 112.8643
753.7543, 114.2279
754.2365, 113.1871
754.7186, 111.8276
755.2007, 112.2740
755.6828, 115.3499
756.1649, 116.6404
756.6470, 113.5581
757.1292, 110.1311
757.6113, 108.9800
758.0934, 110.9281
758.5755, 111.1326
759.0576, 109.0592
759.5397, 107.0307
760.0219, 108.3664
760.5040, 111.7777
760.9861, 112.5634
761.4682, 109.3954
761.9503, 106.8687
762.4324, 110.1076
762.9146, 115.4068
763.3967, 118.3779
763.8788, 116.7768
764.3609, 114.7177
764.8430, 111.9777
765.3251, 109.6198
765.8073, 109.0548
766.2894, 110.8457
766.7715, 112.1082
767.2536, 112.1846
767.7357, 112.0568
768.2178, 113.7720
768.7000, 116.8378
769.1821, 119.1704
769.6642, 120.0579
770.1463, 120.0710
770.6284, 119.3938
771.1105, 118.2368
771.5927, 117.0072
772.0748, 114.9964
772.5569, 113.9381
773.0390, 115.2998
773.5211, 117.6872
774.0032, 116.8697
774.4854, 111.3024
774.9675, 108.6691
775.4496, 112.7373
775.9317, 119.9206
776.4138, 120.1212
776.8959, 114.6557
777.3781, 110.6802
777.8602, 113.7105
778.3423, 118.4011
778.8244, 120.2593
779.3065, 119.8515
779.7886, 119.8201
780.2708, 121.2804
780.7529, 122.9436
781.2350, 124.7381
781.7171, 126.5174
782.1992, 126.6082
782.6813, 124.5283
783.1635, 122.6710
783.6456, 122.2983
784.1277, 123.0831
784.6098, 124.6729
785.0919, 126.8349
785.5740, 127.3950
786.0562, 122.8012
786.5383, 117.5705
787.0204, 115.6276
787.5025, 117.1921
787.9846, 119.3378
788.4667, 123.0421
788.9489, 125.4765
789.4310, 124.5950
789.9131, 120.0190
790.3952, 120.3972
790.8773, 126.9758
791.3594, 132.6801
791.8416, 130.8078
792.3237, 124.1435
792.8058, 119.7287
793.2879, 117.8766
793.7700, 117.7683
794.2521, 120.3341
794.7343, 123.3768
795.2164, 124.7380
795.6985, 123.5030
796.1806, 123.8107
796.6627, 127.0610
797.1448, 130.8498
797.6270, 133.9575
798.1091, 136.5346
798.5912, 136.5469
799.0733, 133.4319
799.5554, 130.7363
800.0375, 133.5044
800.5197, 138.7312
801.0018, 139.7729
801.4839, 135.0929
801.9660, 131.7272
802.4481, 135.1277
802.9302, 140.9750
803.4124, 145.8511
803.8945, 149.8471
804.3766, 151.1353
804.8587, 147.8482
805.3408, 144.3173
805.8229, 144.7993
806.3051, 149.2681
806.7872, 154.1496
807.2693, 159.5148
807.7514, 163.0349
808.2335, 160.0696
808.7156, 154.5253
809.1978, 152.7952
809.6799, 157.5286
810.1620, 161.6368
810.6441, 160.5969
811.1262, 158.4445
811.6083, 159.4104
812.0905, 166.4376
812.5726, 169.6912
813.0547, 167.7899
813.5368, 164.3493
814.0189, 163.5547
814.5010, 165.0249
814.9832, 166.7562
815.4653, 168.6054
815.9474, 169.7715
816.4295, 169.7369
816.9116, 168.5037
817.3937, 165.7517
817.8759, 159.4076
818.3580, 155.5565
818.8401, 158.6543
819.3222, 162.6966
819.8043, 160.9505
820.2864, 150.8493
820.7686, 147.7651
821.2507, 154.6510
821.7328, 164.0168
822.2149, 165.1901
822.6970, 161.1876
823.1791, 159.8448
823.6613, 163.5594
824.1434, 168.0406
824.6255, 171.2243
825.1076, 173.2506
825.5897, 174.2194
826.0718, 171.9800
826.5540, 172.0030
827.0361, 175.4651
827.5182, 179.8490
828.0003, 182.4873
828.4824, 183.3633
828.9645, 182.2220
829.4467, 178.5507
829.9288, 174.8433
830.4109, 173.6715
830.8930, 174.4284
831.3751, 176.2473
831.8572, 179.0901
832.3394, 182.5331
832.8215, 188.4676
833.3036, 193.7984
833.7857, 194.9150
834.2678, 189.6134
834.7499, 186.4283
835.2321, 185.9199
835.7142, 187.5416
836.1963, 191.3174
836.6784, 196.7441
837.1605, 201.5071
837.6426, 204.6748
838.1248, 209.2050
838.6069, 219.6058
839.0890, 231.5716
839.5711, 240.2168
840.0532, 243.5220
840.5353, 244.9736
841.0175, 242.5932
841.4996, 240.8466
841.9817, 245.0673
842.4638, 255.5605
842.9459, 263.9527
843.4280, 268.9058
843.9102, 274.5891
844.3923, 287.3888
844.8744, 303.4463
845.3565, 316.2228
845.8386, 323.8434
846.3207, 330.6671
846.8029, 336.0198
847.2850, 342.9603
847.7671, 354.7628
848.2492, 375.5530
848.7313, 388.9631
849.2134, 392.3002
849.6956, 394.8844
850.1777, 407.1686
850.6598, 426.5894
851.1419, 444.6117
851.6240, 460.3476
852.1061, 473.9581
852.5883, 484.6437
853.0704, 494.0115
853.5525, 503.9423
854.0346, 515.5106
854.5167, 524.8669
854.9988, 533.3071
855.4810, 537.7144
855.9631, 534.1158
856.4452, 522.3087
856.9273, 516.2875
857.4094, 516.8930
857.8915, 516.5538
858.3737, 508.4647
858.8558, 495.6376
859.3379, 480.6754
859.8200, 463.7374
860.3021, 449.0239
860.7842, 442.0891
861.2664, 434.6115
861.7485, 420.5574
862.2306, 398.2681
862.7127, 386.3310
863.1948, 386.4239
863.6769, 389.0655
864.1591, 388.4972
864.6412, 385.2138
865.1233, 379.8877
865.6054, 372.6415
866.0875, 365.1578
866.5696, 356.6060
867.0518, 349.5701
867.5339, 346.1937
868.0160, 346.7885
868.4981, 347.0171
868.9802, 346.7507
869.4623, 346.3258
869.9445, 345.6755
870.4266, 345.0102
870.9087, 345.0621
871.3908, 345.8935
871.8729, 348.0719
872.3550, 351.6675
872.8372, 356.9847
873.3193, 365.8453
873.8014, 377.2974
874.2835, 385.7465
874.7656, 386.7591
875.2477, 388.2052
875.7299, 390.9054
876.2120, 395.7426
876.6941, 408.1765
877.1762, 428.1321
877.6583, 445.9345
878.1404, 456.6985
878.6226, 463.5769
879.1047, 467.4854
879.5869, 470.8156
880.0690, 479.7980
880.5511, 502.9319
881.0332, 524.9914
881.5153, 541.8059
881.9974, 554.5812
882.4796, 564.7595
882.9617, 571.1714
883.4438, 581.9153
883.9259, 599.4600
884.4080, 620.7598
884.8901, 641.6810
885.3723, 662.4575
885.8544, 683.9529
886.3365, 708.3115
886.8186, 730.0694
887.3007, 745.7825
887.7828, 757.5735
888.2650, 768.1413
888.7471, 775.9711
889.2292, 786.7564
889.7113, 801.5101
890.1934, 818.1495
890.6755, 835.4443
891.1577, 852.5282
891.6398, 865.7064
892.1219, 872.5884
892.6040, 883.8487
893.0861, 910.4935
893.5682, 942.7313
894.0504, 970.7478
894.5325, 988.3752
895.0146, 1014.262
895.4967, 1049.701
895.9788, 1090.869
896.4609, 1133.803
896.9431, 1179.155
897.4252, 1228.595
897.9073, 1282.209
898.3894, 1345.625
898.8715, 1429.591
899.3536, 1521.849
899.8358, 1612.025
900.3179, 1697.510
900.8000, 1793.217
901.2821, 1901.924
901.7642, 2017.001
902.2463, 2136.602
902.7285, 2259.518
903.2106, 2392.693
903.6927, 2535.571
904.1748, 2685.652
904.6569, 2852.820
905.1390, 3019.833
905.6212, 3165.813
906.1033, 3294.300
906.5854, 3431.098
907.0675, 3608.142
907.5496, 3761.451
908.0317, 3871.131
908.5139, 3948.433
908.9960, 4036.949
909.4781, 4136.412
909.9602, 4197.345
910.4423, 4199.294
910.9244, 4158.771
911.4066, 4083.497
911.8887, 3982.600
912.3708, 3871.522
912.8529, 3770.074
913.3350, 3639.176
913.8171, 3459.418
914.2993, 3258.407
914.7814, 3073.306
915.2635, 2905.650
915.7456, 2731.552
916.2277, 2545.383
916.7098, 2361.342
917.1920, 2194.370
917.6741, 2042.784
918.1562, 1905.009
918.6383, 1782.479
919.1204, 1672.313
919.6025, 1582.551
920.0847, 1498.173
920.5668, 1408.353
921.0489, 1310.646
921.5310, 1221.911
922.0131, 1142.345
922.4952, 1072.473
922.9774, 1017.625
923.4595, 970.6749
923.9416, 919.9061
924.4237, 865.3893
924.9058, 815.8732
925.3879, 775.7236
925.8701, 740.1819
926.3522, 706.4996
926.8343, 674.8282
927.3164, 648.7770
927.7985, 629.0191
928.2806, 607.3755
928.7628, 578.4708
929.2449, 547.3963
929.7270, 522.2153
930.2091, 501.3455
930.6912, 479.7651
931.1733, 452.0155
931.6555, 427.5961
932.1376, 410.2195
932.6197, 397.7266
933.1018, 387.7310
933.5839, 380.7184
934.0660, 371.4517
934.5482, 358.0795
935.0303, 344.7226
935.5124, 337.7683
935.9945, 334.0729
936.4766, 328.1423
936.9587, 317.9662
937.4409, 307.2524
937.9230, 295.5213
938.4051, 284.8948
938.8872, 277.5515
939.3693, 274.4471
939.8514, 267.6624
940.3336, 256.5522
940.8157, 246.9041
941.2978, 245.1055
941.7799, 246.9709
942.2620, 246.4502
942.7441, 243.2661
943.2263, 240.0018
943.7084, 237.9372
944.1905, 235.7368
944.6726, 232.7707
945.1547, 229.2012
945.6368, 226.1940
946.1190, 223.7808
946.6011, 220.8853
947.0832, 216.2031
947.5653, 211.6757
948.0474, 210.2302
948.5295, 210.9133
949.0117, 211.5074
949.4938, 212.4949
949.9759, 211.5694
950.4580, 207.0460
950.9401, 201.4339
951.4222, 198.9107
951.9044, 199.5295
952.3865, 199.1580
952.8686, 196.9868
953.3507, 194.4417
953.8328, 192.9194
954.3149, 191.9865
954.7971, 191.0022
955.2792, 189.6441
955.7613, 189.1833
956.2434, 191.0221
956.7255, 192.3071
957.2076, 190.5360
957.6898, 185.8804
958.1719, 185.4695
958.6540, 189.2312
959.1361, 192.4787
959.6182, 191.6528
960.1003, 189.1244
960.5825, 186.5819
961.0646, 184.1816
961.5467, 182.2312
962.0288, 179.2389
962.5109, 179.4537
962.9930, 185.6127
963.4752, 194.1097
963.9573, 194.6432
964.4394, 188.5691
964.9215, 184.5561
965.4036, 186.8128
965.8857, 189.2672
966.3679, 185.1269
966.8500, 179.0437
967.3321, 177.2879
967.8142, 184.9781
968.2963, 189.1069
968.7784, 188.6990
969.2606, 186.5234
969.7427, 184.4774
970.2248, 182.9712
970.7069, 184.7338
971.1890, 189.8918
971.6711, 192.5696
972.1533, 185.3723
972.6354, 177.3102
973.1175, 175.4226
973.5996, 179.7295
974.0817, 180.5821
974.5638, 176.9870
975.0460, 173.3916
975.5281, 171.3110
976.0102, 170.6749
976.4923, 172.2558
976.9744, 175.1943
977.4565, 176.9657
977.9387, 175.6956
978.4208, 173.9762
978.9029, 173.3513
979.3850, 172.4584
979.8671, 169.1185
980.3492, 162.8071
980.8314, 156.7351
981.3135, 150.8117
981.7956, 147.1136
982.2777, 149.3470
982.7598, 154.5420
983.2419, 158.7827
983.7241, 161.5448
984.2062, 162.8282
984.6883, 161.5275
985.1704, 159.7887
985.6525, 158.3397
986.1346, 157.2213
986.6168, 157.0629
987.0989, 157.8349
987.5810, 158.6116
988.0631, 159.3507
988.5452, 159.4387
989.0273, 157.4123
989.5095, 154.3016
989.9916, 152.7982
990.4737, 154.6555
990.9558, 156.1819
991.4379, 156.7063
991.9200, 157.0604
992.4022, 158.8501
992.8843, 161.6542
993.3664, 163.8585
993.8485, 165.2277
994.3306, 165.4501
994.8127, 162.1560
995.2949, 159.0798
995.7770, 160.3395
996.2591, 167.0520
996.7412, 170.1996
997.2233, 168.7669
997.7054, 167.3924
998.1876, 170.5186
998.6697, 175.0117
999.1518, 172.0285
999.6339, 163.7245
1000.116, 158.6762
1000.598, 163.9698
1001.080, 169.3861
1001.562, 170.8001
1002.044, 170.4003
1002.527, 172.6063
1003.009, 177.7097
1003.491, 180.6758
1003.973, 180.1642
1004.455, 178.9365
1004.937, 179.8019
1005.419, 181.8698
1005.901, 183.9086
1006.384, 185.4066
1006.866, 188.2809
1007.348, 193.8814
1007.830, 199.0371
1008.312, 201.3781
1008.794, 201.6449
1009.276, 205.7936
1009.758, 213.0109
1010.240, 216.7396
1010.723, 207.6925
1011.205, 199.3355
1011.687, 201.7366
1012.169, 211.3086
1012.651, 217.6625
1013.133, 219.2300
1013.615, 221.8123
1014.097, 226.7622
1014.580, 231.6980
1015.062, 232.4576
1015.544, 231.0067
1016.026, 230.7514
1016.508, 232.1292
1016.990, 235.9414
1017.472, 244.2460
1017.954, 253.5681
1018.436, 262.1632
1018.919, 269.9664
1019.401, 276.9148
1019.883, 283.0070
1020.365, 288.7197
1020.847, 293.7596
1021.329, 299.0229
1021.811, 304.8563
1022.293, 311.6300
1022.776, 320.4324
1023.258, 332.3003
1023.740, 344.9655
1024.222, 358.5182
1024.704, 372.3394
1025.186, 385.2362
1025.668, 397.6192
1026.150, 410.7212
1026.632, 424.8890
1027.115, 438.2774
1027.597, 447.5957
1028.079, 457.6292
1028.561, 473.3076
1029.043, 494.1750
1029.525, 508.7350
1030.007, 516.2778
1030.489, 521.5283
1030.972, 527.0172
1031.454, 530.9078
1031.936, 530.5914
1032.418, 526.7643
1032.900, 520.9644
1033.382, 510.8482
1033.864, 503.0150
1034.346, 500.3940
1034.828, 497.2299
1035.311, 486.7381
1035.793, 469.6877
1036.275, 450.8665
1036.757, 430.4944
1037.239, 411.6010
1037.721, 396.7539
1038.203, 383.7108
1038.685, 371.9709
1039.167, 361.1638
1039.650, 348.1583
1040.132, 332.6471
1040.614, 316.3595
1041.096, 299.2276
1041.578, 283.3416
1042.060, 273.7014
1042.542, 267.7955
1043.024, 260.6285
1043.507, 249.0494
1043.989, 239.7983
1044.471, 235.8571
1044.953, 232.3840
1045.435, 225.0473
1045.917, 214.2795
1046.399, 205.3964
1046.881, 198.4795
1047.364, 192.2990
1047.846, 186.2151
1048.328, 180.4066
1048.810, 174.4362
1049.292, 168.8413
1049.774, 165.4429
1050.256, 164.4975
1050.738, 165.3021
1051.220, 168.5059
1051.703, 171.2680
1052.185, 167.7551
1052.667, 161.5126
1053.149, 159.3289
1053.631, 164.0079
1054.113, 165.6118
1054.595, 158.9562
1055.077, 151.4645
1055.559, 146.5092
1056.042, 143.9357
1056.524, 142.8917
1057.006, 143.2038
1057.488, 143.4547
1057.970, 142.6505
1058.452, 141.7717
1058.934, 141.6379
1059.416, 141.7787
1059.899, 141.2776
1060.381, 139.8976
1060.863, 138.7082
1061.345, 137.8525
1061.827, 136.9351
1062.309, 135.1331
1062.791, 133.1917
1063.273, 132.4533
1063.755, 132.9860
1064.238, 133.1933
1064.720, 131.9457
1065.202, 131.3135
1065.684, 132.4350
1066.166, 134.2011
1066.648, 132.4731
1067.130, 128.2980
1067.612, 126.6933
1068.094, 130.4996
1068.577, 134.2390
1069.059, 134.2607
1069.541, 132.8657
1070.023, 132.5818
1070.505, 134.0185
1070.987, 132.7258
1071.469, 128.3837
1071.951, 124.2980
1072.434, 122.5983
1072.916, 122.4867
1073.398, 123.4004
1073.880, 125.1155
1074.362, 126.9287
1074.844, 129.1860
1075.326, 130.7982
1075.808, 131.7557
1076.291, 131.8211
1076.773, 129.8749
1077.255, 126.8399
1077.737, 125.7818
1078.219, 127.2637
1078.701, 128.1826
1079.183, 126.0725
1079.665, 123.9098
1080.147, 123.4012
1080.630, 124.1494
1081.112, 123.6249
1081.594, 121.8741
1082.076, 120.3632
1082.558, 119.8535
1083.040, 119.3871
1083.522, 117.2362
1084.004, 114.9965
1084.486, 115.0515
1084.969, 118.8491
1085.451, 121.2751
1085.933, 121.9853
1086.415, 122.5438
1086.897, 124.9749
1087.379, 127.6303
1087.861, 126.6877
1088.343, 123.1024
1088.826, 121.1281
1089.308, 125.1954
1089.790, 126.9798
1090.272, 124.1792
1090.754, 119.4901
1091.236, 116.7464
1091.718, 115.7838
1092.200, 116.2671
1092.682, 118.2817
1093.165, 119.7677
1093.647, 119.1917
1094.129, 117.8678
1094.611, 116.5176
1095.093, 115.1659
1095.575, 113.7145
1096.057, 112.1418
1096.539, 110.9841
1097.022, 110.4187
1097.504, 110.4358
1097.986, 111.4212
1098.468, 112.8277
1098.950, 113.8825
1099.432, 114.3405
1099.914, 114.9223
1100.396, 115.8486
1100.879, 116.1581
1101.361, 114.4995
1101.843, 112.0423
1102.325, 111.0548
1102.807, 111.2897
1103.289, 111.7486
1103.771, 112.2100
1104.253, 112.6153
1104.735, 112.6452
1105.218, 113.0081
1105.700, 115.5423
1106.182, 119.4402
1106.664, 120.1551
1107.146, 117.1464
1107.628, 114.5124
1108.110, 115.7051
1108.592, 117.0058
1109.074, 115.7263
1109.557, 112.8404
1110.039, 113.1441
1110.521, 116.7090
1111.003, 117.3083
1111.485, 111.8615
1111.967, 106.7574
1112.449, 109.6286
1112.931, 115.2915
1113.414, 117.9782
1113.896, 116.4301
1114.378, 115.2513
1114.860, 114.4091
1115.342, 114.0924
1115.824, 114.6348
1116.306, 115.5747
1116.788, 116.8931
1117.271, 117.9472
1117.753, 117.3055
1118.235, 111.9034
1118.717, 108.8002
1119.199, 109.0725
1119.681, 110.4345
1120.163, 110.4320
1120.645, 109.7285
1121.127, 110.8569
1121.609, 113.6171
1122.092, 115.0957
1122.574, 112.5496
1123.056, 109.9339
1123.538, 107.9383
1124.020, 107.1191
1124.502, 109.6256
1124.984, 114.8536
1125.466, 117.2102
1125.949, 115.3246
1126.431, 113.4545
1126.913, 115.3108
1127.395, 117.6493
1127.877, 118.1715
1128.359, 117.0133
1128.841, 114.7692
1129.323, 111.2847
1129.806, 109.6285
1130.288, 111.6560
1130.770, 114.3486
1131.252, 114.3515
1131.734, 113.3129
1132.216, 113.5233
1132.698, 115.8615
1133.180, 117.1686
1133.662, 117.3702
1134.145, 116.8048
1134.627, 114.9339
1135.109, 112.9248
1135.591, 112.6810
1136.073, 113.8045
1136.555, 115.2925
1137.037, 118.1989
1137.519, 119.2531
1138.001, 117.7401
1138.484, 115.4695
1138.966, 114.1221
1139.448, 113.5314
1139.930, 113.6402
1140.412, 114.3077
1140.894, 114.4495
1141.376, 112.0409
1141.858, 111.3070
1142.341, 114.5083
1142.823, 118.6619
1143.305, 116.8491
1143.787, 110.9001
1144.269, 109.9389
1144.751, 116.0330
1145.233, 120.9243
1145.715, 117.7425
1146.198, 114.2835
1146.680, 115.3114
1147.162, 119.5919
1147.644, 120.9339
1148.126, 119.5894
1148.608, 119.0085
1149.090, 120.6429
1149.572, 122.3757
1150.054, 122.1122
1150.536, 121.5500
1151.019, 122.7216
1151.501, 125.9376
1151.983, 126.4143
1152.465, 124.0494
1152.947, 121.5958
1153.429, 120.3865
1153.911, 119.9247
1154.393, 119.1092
1154.876, 118.9295
1155.358, 121.7511
1155.840, 130.2776
1156.322, 132.9395
1156.804, 128.5778
1157.286, 123.5643
1157.768, 123.8714
1158.250, 125.8896
1158.733, 123.5688
1159.215, 118.7616
1159.697, 119.3326
1160.179, 130.9862
1160.661, 137.4798
1161.143, 135.8406
1161.625, 131.8073
1162.107, 132.1267
1162.589, 134.5381
1163.072, 135.0721
1163.554, 133.5544
1164.036, 132.7174
1164.518, 134.4705
1165.000, 134.7182
1165.482, 131.8913
1165.964, 128.0338
1166.446, 126.1914
1166.928, 126.3636
1167.411, 129.0986
1167.893, 134.9595
1168.375, 139.9881
1168.857, 144.6199
1169.339, 145.6431
1169.821, 139.8961
1170.303, 130.9902
1170.785, 130.2646
1171.268, 135.4964
1171.750, 139.4199
1172.232, 139.6001
1172.714, 138.5486
1173.196, 136.1711
1173.678, 133.8621
1174.160, 132.4210
1174.642, 131.7935
1175.125, 132.6751
1175.607, 134.4916
1176.089, 133.9752
1176.571, 126.0346
1177.053, 120.1287
1177.535, 123.1619
1178.017, 128.1204
1178.499, 127.7717
1178.981, 122.2226
1179.464, 121.7734
1179.946, 126.2433
1180.428, 130.7003
1180.910, 133.0334
1181.392, 133.4400
1181.874, 131.0885
1182.356, 127.3082
1182.838, 123.3901
1183.320, 119.1863
1183.803, 119.5797
1184.285, 125.1064
1184.767, 129.7571
1185.249, 127.9805
1185.731, 124.8004
1186.213, 123.4188
1186.695, 123.4255
1187.177, 123.2691
1187.660, 122.8805
1188.142, 123.6219
1188.624, 125.8578
1189.106, 128.0211
1189.588, 128.7000
1190.070, 128.7495
1190.552, 129.1157
1191.034, 129.5912
1191.516, 127.9176
1191.999, 123.6024
1192.481, 122.3482
1192.963, 126.4102
1193.445, 130.7639
1193.927, 129.4038
1194.409, 126.4656
1194.891, 126.7670
1195.373, 130.7062
1195.855, 130.9126
1196.338, 126.7716
1196.820, 124.5464
1197.302, 128.0035
1197.784, 131.6239
1198.266, 128.2615
1198.748, 122.0548
1199.230, 118.0626
1199.712, 116.9528
1200.195, 117.5441
1200.677, 120.0641
1201.159, 122.7057
1201.641, 124.5014
1202.123, 125.9056
1202.605, 127.9322
1203.087, 129.7261
1203.569, 129.7952
1204.052, 127.4598
1204.534, 124.9768
1205.016, 122.1833
1205.498, 120.1052
1205.980, 119.6586
1206.462, 120.1103
1206.944, 120.0742
1207.426, 120.3577
1207.908, 123.3640
1208.391, 131.9668
1208.873, 134.9085
1209.355, 130.9345
1209.837, 125.6626
1210.319, 123.5794
1210.801, 123.0493
1211.283, 122.2730
1211.765, 121.4805
1212.247, 122.0272
1212.730, 125.2918
1213.212, 125.3152
1213.694, 120.8807
1214.176, 116.0448
1214.658, 114.2321
1215.140, 114.4712
1215.622, 116.2551
1216.104, 119.2224
1216.587, 121.6796
1217.069, 123.6758
1217.551, 124.5614
1218.033, 124.0616
1218.515, 123.1657
1218.997, 123.0129
1219.479, 123.0467
1219.961, 122.2306
1220.443, 120.6999
1220.926, 121.1616
1221.408, 124.5275
1221.890, 126.4231
1222.372, 125.6176
1222.854, 123.7705
1223.336, 122.3341
1223.818, 121.3093
1224.300, 120.7798
1224.782, 120.7827
1225.265, 120.7173
1225.747, 120.4660
1226.229, 120.7351
1226.711, 121.8555
1227.193, 123.2657
1227.675, 124.6348
1228.157, 125.7019
1228.639, 126.0892
1229.122, 125.7101
1229.604, 125.2625
1230.086, 124.8808
1230.568, 123.2315
1231.050, 118.6663
1231.532, 115.0118
1232.014, 118.6059
1232.496, 124.6104
1232.979, 126.8598
1233.461, 124.5172
1233.943, 121.5313
1234.425, 117.5602
1234.907, 116.8157
1235.389, 123.0494
1235.871, 130.5168
1236.353, 134.4190
1236.835, 135.7531
1237.318, 135.6242
1237.800, 134.1907
1238.282, 130.9527
1238.764, 125.7438
1239.246, 122.7347
1239.728, 126.2314
1240.210, 130.4258
1240.692, 129.6167
1241.175, 126.9648
1241.657, 126.8754
1242.139, 129.8989
1242.621, 132.9251
1243.103, 135.9958
1243.585, 137.0053
1244.067, 132.2400
1244.549, 127.6431
1245.031, 127.7473
1245.514, 130.2389
1245.996, 131.8924
1246.478, 132.7198
1246.960, 132.3983
1247.442, 130.9918
1247.924, 129.8426
1248.406, 129.8429
1248.888, 130.3261
1249.370, 131.6813
1249.853, 132.8248
1250.335, 131.7885
1250.817, 128.7197
1251.299, 128.7695
1251.781, 131.8721
1252.263, 133.7404
1252.745, 129.4303
1253.227, 126.0368
1253.710, 127.6264
1254.192, 131.1055
1254.674, 132.3631
1255.156, 131.9032
1255.638, 134.2587
1256.120, 139.2910
1256.602, 142.2050
1257.084, 137.5477
1257.567, 133.9891
1258.049, 135.0022
1258.531, 137.5364
1259.013, 137.1420
1259.495, 134.6759
1259.977, 133.2274
1260.459, 132.9767
1260.941, 132.9840
1261.423, 133.2275
1261.906, 133.0048
1262.388, 131.6381
1262.870, 130.6131
1263.352, 133.3568
1263.834, 137.7115
1264.316, 137.8721
1264.798, 133.7535
1265.280, 131.1506
1265.762, 132.7920
1266.245, 134.5718
1266.727, 135.8762
1267.209, 136.8333
1267.691, 137.5105
1268.173, 138.0122
1268.655, 138.6869
1269.137, 139.5107
1269.619, 139.3785
1270.102, 137.5322
1270.584, 136.7724
1271.066, 138.0246
1271.548, 139.3747
1272.030, 137.7076
1272.512, 135.2262
1272.994, 134.8349
1273.476, 136.5956
1273.958, 137.2498
1274.441, 136.5244
1274.923, 135.3781
1275.405, 133.7532
1275.887, 133.0204
1276.369, 135.3780
1276.851, 138.7160
1277.333, 141.5656
1277.815, 143.5870
1278.297, 143.4384
1278.780, 141.0435
1279.262, 137.7762
1279.744, 133.6544
1280.226, 130.7372
1280.708, 131.1521
1281.190, 133.0263
1281.672, 135.6652
1282.154, 138.4785
1282.637, 139.3236
1283.119, 138.3297
1283.601, 136.5517
1284.083, 134.0631
1284.565, 131.8364
1285.047, 130.3658
1285.529, 129.4773
1286.011, 129.2300
1286.494, 129.3086
1286.976, 128.5106
1287.458, 127.2861
1287.940, 127.1676
1288.422, 128.5059
1288.904, 130.6618
1289.386, 135.2155
1289.868, 138.0237
1290.350, 137.5678
1290.833, 134.7738
1291.315, 130.0404
1291.797, 124.8060
1292.279, 122.1055
1292.761, 122.7457
1293.243, 123.7525
1293.725, 125.0104
1294.207, 125.6563
1294.689, 125.0363
1295.172, 124.5643
1295.654, 127.1545
1296.136, 130.6905
1296.618, 132.2164
1297.100, 131.0938
1297.582, 130.3151
1298.064, 129.7897
1298.546, 130.5622
1299.029, 133.7219
1299.511, 135.8130
1299.993, 130.4534
1300.475, 124.2780
1300.957, 125.1907
1301.439, 131.8838
1301.921, 135.1516
1302.403, 135.0735
1302.885, 133.7926
1303.368, 131.7471
1303.850, 129.3045
1304.332, 124.7345
1304.814, 122.1593
##END=



