##NAMES=Almandine
##RRUFFID=R060450
##IDEAL CHEMISTRY=Fe^2+^_3_Al_2_(SiO_4_)_3_
##LOCALITY=Canada
##OWNER=RRUFF
##SOURCE=Gemological Institute of America
##DESCRIPTION=Reddish-brown translucent fragment
##STATUS=The identification of this mineral has been confirmed by X-ray diffraction and chemical analysis
##URL=rruff.info/R060450
##MEASURED CHEMISTRY=(Fe^2+^_1.92_Mg_1.03_Ca_0.04_Mn_0.01_)_Î£=3_Al_2.00_(Si_1.00_O_4_)_3_
91.62726, 0.0000000E+00
92.10938, 1.953641
92.59149, 1.911686
93.07361, 1.949464
93.55573, 2.057694
94.03784, 2.117160
94.51996, 1.941377
95.00208, 1.610733
95.48419, 1.410954
95.96631, 1.492191
96.44843, 1.754164
96.93054, 1.905481
97.41266, 1.931931
97.89478, 1.916461
98.37689, 1.949769
98.85901, 2.031512
99.34113, 2.137803
99.82324, 2.264861
100.3054, 2.411570
100.7875, 2.585124
101.2696, 2.829552
101.7517, 3.043628
102.2338, 2.999561
102.7159, 2.604879
103.1981, 2.216653
103.6802, 2.002378
104.1623, 1.997639
104.6444, 2.058342
105.1265, 2.236290
105.6086, 2.473213
106.0908, 2.531402
106.5729, 2.245390
107.0550, 1.974180
107.5371, 1.935863
108.0192, 2.365110
108.5013, 2.673780
108.9835, 2.746706
109.4656, 2.594128
109.9477, 2.585276
110.4298, 2.903138
110.9119, 3.263940
111.3940, 3.480156
111.8762, 3.350440
112.3583, 3.272407
112.8404, 3.343385
113.3225, 3.584989
113.8046, 3.770068
114.2867, 3.761932
114.7689, 3.716717
115.2510, 3.803899
115.7331, 4.119614
116.2152, 4.524995
116.6973, 5.005609
117.1794, 5.596805
117.6616, 6.097239
118.1437, 6.408331
118.6258, 6.585852
119.1079, 6.712044
119.5900, 6.717552
120.0721, 6.749426
120.5543, 6.923115
121.0364, 7.305257
121.5185, 7.708296
122.0006, 7.959499
122.4827, 8.127850
122.9648, 8.414449
123.4470, 9.102215
123.9291, 9.906977
124.4112, 10.48366
124.8933, 10.65224
125.3754, 10.72326
125.8575, 11.00523
126.3397, 11.47509
126.8218, 11.99327
127.3039, 12.33465
127.7860, 12.64985
128.2681, 13.27367
128.7502, 14.49396
129.2324, 15.93622
129.7145, 16.96832
130.1966, 17.59604
130.6787, 17.97544
131.1608, 18.09056
131.6429, 18.01717
132.1251, 18.14301
132.6072, 18.71566
133.0893, 19.57980
133.5714, 20.21630
134.0535, 20.60421
134.5356, 20.86053
135.0178, 21.07142
135.4999, 21.23309
135.9820, 21.49417
136.4641, 21.92656
136.9462, 22.52963
137.4283, 23.17688
137.9105, 23.86427
138.3926, 24.61334
138.8747, 25.50265
139.3568, 26.60334
139.8389, 27.58547
140.3210, 28.25653
140.8032, 28.54084
141.2853, 28.91670
141.7674, 29.33802
142.2495, 29.88257
142.7316, 30.77163
143.2137, 32.13633
143.6959, 33.22633
144.1780, 33.82124
144.6601, 33.70107
145.1422, 33.69609
145.6243, 33.82193
146.1064, 34.07400
146.5886, 34.46924
147.0707, 35.14428
147.5528, 35.80543
148.0349, 36.27046
148.5170, 36.30811
148.9991, 36.52740
149.4813, 37.12165
149.9634, 38.02247
150.4455, 38.53636
150.9276, 38.25906
151.4097, 37.87811
151.8918, 37.81770
152.3740, 38.26598
152.8561, 38.79993
153.3382, 39.41280
153.8203, 40.09838
154.3024, 40.76222
154.7845, 41.47039
155.2667, 42.11029
155.7488, 42.60742
156.2309, 42.83107
156.7130, 43.02212
157.1951, 43.21290
157.6772, 43.40236
158.1594, 43.63710
158.6415, 43.83643
159.1236, 44.11782
159.6057, 44.59820
160.0878, 45.60864
160.5699, 46.54254
161.0521, 47.14609
161.5342, 47.36222
162.0163, 47.59564
162.4984, 48.01064
162.9805, 48.51768
163.4626, 49.00366
163.9448, 49.49134
164.4269, 49.90150
164.9090, 50.16090
165.3911, 50.23172
165.8732, 50.33410
166.3553, 50.65917
166.8375, 51.08055
167.3196, 51.38910
167.8017, 51.44251
168.2838, 51.38073
168.7659, 51.26399
169.2480, 51.05964
169.7302, 50.95904
170.2123, 51.26492
170.6944, 51.78417
171.1765, 52.07935
171.6586, 51.97224
172.1407, 51.51564
172.6229, 50.73414
173.1050, 49.59486
173.5871, 48.23700
174.0692, 46.72400
174.5513, 45.08458
175.0334, 43.42189
175.5156, 41.72087
175.9977, 40.04103
176.4798, 38.49814
176.9619, 37.06755
177.4440, 35.80868
177.9261, 34.91304
178.4083, 34.30361
178.8904, 33.66189
179.3725, 32.62027
179.8546, 31.41891
180.3367, 30.56548
180.8188, 30.23814
181.3010, 30.14266
181.7831, 29.91111
182.2652, 29.55739
182.7473, 29.17199
183.2294, 28.72867
183.7115, 28.29583
184.1937, 28.10867
184.6758, 28.30311
185.1579, 28.64986
185.6400, 28.75109
186.1221, 28.61356
186.6042, 28.41306
187.0864, 28.19431
187.5685, 27.99946
188.0506, 28.05745
188.5327, 28.52634
189.0148, 29.17862
189.4969, 29.45834
189.9791, 29.34633
190.4612, 29.25811
190.9433, 29.60606
191.4254, 30.33504
191.9075, 30.98813
192.3896, 31.39507
192.8718, 31.68798
193.3539, 32.33416
193.8360, 33.38443
194.3181, 34.43457
194.8002, 35.02023
195.2823, 35.16135
195.7645, 35.51417
196.2466, 36.28454
196.7287, 37.36835
197.2108, 38.35677
197.6929, 39.23991
198.1750, 40.06992
198.6572, 40.90736
199.1393, 41.75236
199.6214, 42.50579
200.1035, 43.05630
200.5856, 43.48372
201.0677, 44.27869
201.5499, 45.50811
202.0320, 46.89369
202.5141, 48.15656
202.9962, 49.27446
203.4783, 50.45821
203.9604, 51.80149
204.4426, 53.26982
204.9247, 54.57317
205.4068, 55.69228
205.8889, 56.66905
206.3710, 57.46299
206.8531, 57.99986
207.3353, 58.76985
207.8174, 60.05172
208.2995, 61.76682
208.7816, 62.79797
209.2637, 63.01270
209.7458, 62.78794
210.2280, 62.46940
210.7101, 62.05070
211.1922, 61.57026
211.6743, 61.09436
212.1564, 60.61511
212.6385, 59.71968
213.1207, 58.32032
213.6028, 56.66446
214.0849, 55.00031
214.5670, 53.37154
215.0491, 51.63908
215.5313, 49.70146
216.0134, 47.55433
216.4955, 45.72219
216.9776, 44.28953
217.4597, 43.03297
217.9418, 41.67670
218.4240, 40.13596
218.9061, 38.75763
219.3882, 37.66487
219.8703, 36.86939
220.3524, 35.92662
220.8345, 34.72066
221.3167, 33.52336
221.7988, 32.64903
222.2809, 32.33249
222.7630, 31.79165
223.2451, 30.74335
223.7272, 29.16582
224.2094, 28.10342
224.6915, 27.73364
225.1736, 27.66335
225.6557, 27.51488
226.1378, 27.24102
226.6199, 26.98318
227.1021, 26.75869
227.5842, 26.56559
228.0663, 26.44396
228.5484, 26.42300
229.0305, 26.44018
229.5126, 26.44209
229.9948, 26.43797
230.4769, 26.39473
230.9590, 26.26862
231.4411, 26.06058
231.9232, 26.01529
232.4053, 26.25477
232.8875, 26.52609
233.3696, 26.59021
233.8517, 26.31139
234.3338, 26.09249
234.8159, 26.00634
235.2980, 26.05011
235.7802, 26.12107
236.2623, 26.30692
236.7444, 26.42568
237.2265, 26.27969
237.7086, 25.58881
238.1907, 25.19316
238.6729, 25.33855
239.1550, 25.97992
239.6371, 26.32049
240.1192, 26.20487
240.6013, 25.96354
241.0834, 25.86863
241.5656, 26.05292
242.0477, 26.11269
242.5298, 25.92616
243.0119, 25.53180
243.4940, 25.33113
243.9761, 25.36738
244.4583, 25.54553
244.9404, 25.83125
245.4225, 26.37624
245.9046, 26.72005
246.3867, 26.78611
246.8688, 26.60258
247.3510, 26.33994
247.8331, 25.89215
248.3152, 25.50129
248.7973, 25.32943
249.2794, 25.45301
249.7615, 25.64502
250.2437, 25.93937
250.7258, 26.29419
251.2079, 26.49789
251.6900, 26.49533
252.1721, 26.42071
252.6542, 26.34454
253.1364, 26.26091
253.6185, 26.19121
254.1006, 26.13767
254.5827, 26.09918
255.0648, 26.06206
255.5469, 25.98343
256.0291, 25.97552
256.5112, 26.13346
256.9933, 26.60476
257.4754, 26.85611
257.9575, 26.78927
258.4396, 26.51726
258.9218, 26.36835
259.4039, 26.39958
259.8860, 26.44723
260.3681, 26.41879
260.8502, 26.24898
261.3323, 26.20328
261.8145, 26.32786
262.2966, 26.55120
262.7787, 26.73218
263.2608, 26.88653
263.7429, 26.96240
264.2250, 26.90009
264.7072, 26.62537
265.1893, 26.52728
265.6714, 26.67057
266.1535, 26.93534
266.6356, 27.11839
267.1177, 27.22079
267.5999, 27.23815
268.0820, 27.12257
268.5641, 26.83068
269.0462, 26.74755
269.5283, 26.94935
270.0104, 27.26573
270.4926, 27.42246
270.9747, 27.35311
271.4568, 27.37378
271.9389, 27.66138
272.4210, 28.23466
272.9031, 28.44168
273.3853, 28.15448
273.8674, 27.73203
274.3495, 27.67029
274.8316, 28.04867
275.3137, 28.36358
275.7958, 28.45488
276.2780, 28.34161
276.7601, 28.30624
277.2422, 28.37253
277.7243, 28.45438
278.2064, 28.43047
278.6885, 28.27739
279.1707, 28.22513
279.6528, 28.34837
280.1349, 28.61560
280.6170, 28.89057
281.0991, 29.19238
281.5812, 29.42740
282.0634, 29.45313
282.5455, 29.26247
283.0276, 29.19468
283.5097, 29.35058
283.9918, 29.65071
284.4739, 29.86993
284.9561, 30.01193
285.4382, 30.04732
285.9203, 29.87487
286.4024, 29.51553
286.8845, 29.30785
287.3666, 29.32212
287.8488, 29.48551
288.3309, 29.67700
288.8130, 29.89771
289.2951, 30.08610
289.7772, 30.17800
290.2593, 30.19157
290.7415, 30.21973
291.2236, 30.24737
291.7057, 30.34849
292.1878, 30.73693
292.6699, 31.38317
293.1520, 31.92391
293.6342, 32.06959
294.1163, 31.93795
294.5984, 31.87613
295.0805, 31.88240
295.5626, 32.04613
296.0447, 32.64344
296.5269, 33.56770
297.0090, 34.30259
297.4911, 34.40066
297.9732, 34.16349
298.4553, 34.27720
298.9374, 34.77074
299.4196, 35.37040
299.9017, 35.78396
300.3838, 36.07467
300.8659, 36.41170
301.3480, 36.85148
301.8301, 37.37756
302.3123, 38.00665
302.7944, 38.73907
303.2765, 39.43592
303.7586, 39.94435
304.2407, 40.34772
304.7228, 40.80519
305.2050, 41.33958
305.6871, 41.97341
306.1692, 42.70107
306.6513, 43.53534
307.1334, 44.49421
307.6155, 45.75502
308.0977, 47.10348
308.5798, 48.24467
309.0619, 49.01911
309.5440, 49.75828
310.0261, 50.66220
310.5082, 51.73882
310.9904, 53.00731
311.4725, 54.46605
311.9546, 56.14127
312.4367, 58.14951
312.9188, 60.64501
313.4009, 63.01653
313.8831, 64.90569
314.3652, 66.38040
314.8473, 67.60403
315.3294, 68.79086
315.8115, 69.65575
316.2936, 70.07908
316.7758, 70.07260
317.2579, 69.46896
317.7400, 67.61652
318.2221, 65.28883
318.7042, 63.43281
319.1863, 62.68695
319.6685, 62.17096
320.1506, 61.47585
320.6327, 60.57829
321.1148, 59.96548
321.5969, 59.75383
322.0790, 59.90200
322.5612, 60.37146
323.0433, 61.25563
323.5254, 62.35450
324.0075, 63.68764
324.4896, 65.23586
324.9717, 66.80635
325.4539, 68.34490
325.9360, 69.93135
326.4181, 71.59280
326.9002, 73.33389
327.3823, 75.16338
327.8644, 76.93126
328.3466, 78.76620
328.8287, 81.06307
329.3108, 84.20100
329.7929, 87.50504
330.2750, 90.67342
330.7571, 93.63419
331.2393, 96.71220
331.7214, 99.97636
332.2035, 103.3452
332.6856, 106.6362
333.1677, 109.8197
333.6498, 113.0033
334.1320, 116.2784
334.6141, 119.6242
335.0962, 122.7519
335.5783, 125.5951
336.0604, 128.2888
336.5425, 130.9400
337.0247, 133.3728
337.5068, 136.2292
337.9889, 139.6772
338.4710, 143.6794
338.9531, 148.0621
339.4352, 152.9635
339.9174, 158.0127
340.3995, 162.6475
340.8816, 166.6826
341.3637, 171.8058
341.8458, 178.4958
342.3279, 186.2084
342.8101, 193.8456
343.2922, 201.2639
343.7743, 209.1414
344.2564, 217.9646
344.7385, 227.7501
345.2206, 237.3411
345.7028, 246.8361
346.1849, 255.9749
346.6670, 264.5733
347.1491, 272.6072
347.6312, 279.6850
348.1133, 286.2368
348.5955, 291.7549
349.0776, 294.6832
349.5597, 295.0234
350.0418, 292.9810
350.5239, 288.4378
351.0060, 281.6382
351.4882, 273.4955
351.9703, 264.2969
352.4524, 253.9100
352.9345, 241.7470
353.4166, 227.9952
353.8987, 214.2649
354.3809, 201.7853
354.8630, 190.1551
355.3451, 179.0046
355.8272, 168.0554
356.3093, 157.9665
356.7914, 149.6463
357.2736, 142.6685
357.7557, 136.0749
358.2378, 129.0632
358.7199, 122.4384
359.2020, 116.9559
359.6841, 112.7799
360.1663, 109.2795
360.6484, 106.3277
361.1305, 103.7775
361.6126, 101.4227
362.0947, 99.01319
362.5768, 96.93662
363.0590, 95.39887
363.5411, 94.40197
364.0232, 93.64281
364.5053, 93.10606
364.9874, 92.72229
365.4695, 92.43770
365.9517, 91.86033
366.4338, 91.80319
366.9159, 92.82366
367.3980, 94.59873
367.8801, 95.84705
368.3622, 96.01085
368.8444, 95.91493
369.3265, 95.88333
369.8086, 95.83739
370.2907, 96.03724
370.7728, 96.92101
371.2549, 97.91341
371.7371, 98.07817
372.2192, 97.26427
372.7013, 95.80726
373.1834, 93.64845
373.6655, 90.68083
374.1476, 88.02152
374.6298, 86.00112
375.1119, 83.96261
375.5940, 81.19018
376.0761, 77.40483
376.5582, 73.88693
377.0403, 70.92596
377.5225, 68.39702
378.0046, 65.53863
378.4867, 62.29152
378.9688, 59.13366
379.4509, 56.47892
379.9330, 54.36204
380.4152, 51.93667
380.8973, 49.02402
381.3794, 46.05611
381.8615, 43.88478
382.3436, 42.47028
382.8257, 41.26206
383.3079, 40.03863
383.7900, 38.81045
384.2721, 37.56249
384.7542, 36.29797
385.2363, 35.04538
385.7184, 33.75944
386.2006, 32.50434
386.6827, 31.38936
387.1648, 30.50370
387.6469, 29.73754
388.1290, 28.92882
388.6111, 28.09852
389.0933, 27.34660
389.5754, 26.70877
390.0575, 26.19257
390.5396, 25.83405
391.0217, 25.70086
391.5038, 25.52363
391.9860, 25.02494
392.4681, 24.35791
392.9502, 23.79418
393.4323, 23.57055
393.9144, 23.39606
394.3965, 23.06863
394.8787, 22.56414
395.3608, 22.15475
395.8429, 22.03017
396.3250, 21.99662
396.8071, 21.88028
397.2892, 21.53431
397.7714, 21.21859
398.2535, 20.97968
398.7356, 20.81491
399.2177, 20.71531
399.6998, 20.86230
400.1819, 20.92500
400.6641, 20.72348
401.1462, 19.96307
401.6283, 19.55468
402.1104, 19.70274
402.5925, 20.10903
403.0746, 20.33264
403.5568, 20.35568
404.0389, 20.21747
404.5210, 19.84654
405.0031, 19.24208
405.4852, 18.94070
405.9673, 19.04422
406.4495, 19.25957
406.9316, 19.35061
407.4137, 19.31049
407.8958, 19.20267
408.3779, 19.02369
408.8600, 18.79461
409.3422, 18.54021
409.8243, 18.25639
410.3064, 18.03663
410.7885, 17.96693
411.2706, 18.01393
411.7527, 18.01505
412.2349, 17.95926
412.7170, 17.88484
413.1991, 17.84046
413.6812, 17.81547
414.1633, 17.77711
414.6454, 17.72091
415.1276, 17.63935
415.6097, 17.49598
416.0918, 17.30307
416.5739, 17.14151
417.0560, 17.09859
417.5381, 17.10503
418.0203, 17.07265
418.5024, 16.96467
418.9845, 16.86688
419.4666, 16.86629
419.9487, 16.91243
420.4308, 16.91036
420.9130, 16.66622
421.3951, 16.49625
421.8772, 16.63881
422.3593, 17.13685
422.8414, 17.47223
423.3235, 17.39259
423.8057, 17.15229
424.2878, 16.95520
424.7699, 16.74645
425.2520, 16.67887
425.7341, 16.89295
426.2162, 17.28580
426.6984, 17.49186
427.1805, 17.41125
427.6626, 17.25561
428.1447, 17.09129
428.6268, 16.90656
429.1089, 16.75773
429.5911, 16.63710
430.0732, 16.55866
430.5553, 16.55493
431.0374, 16.65484
431.5195, 16.70708
432.0016, 16.64474
432.4838, 16.51136
432.9659, 16.54018
433.4480, 16.75663
433.9301, 16.97523
434.4122, 17.05471
434.8943, 17.01202
435.3765, 16.97499
435.8586, 16.96515
436.3407, 16.93561
436.8228, 16.77681
437.3049, 16.52536
437.7870, 16.34123
438.2692, 16.30119
438.7513, 16.36634
439.2334, 16.54536
439.7155, 16.82656
440.1976, 17.01763
440.6797, 16.87341
441.1619, 16.59971
441.6440, 16.45356
442.1261, 16.55826
442.6082, 16.69165
443.0903, 16.70579
443.5724, 16.65442
444.0546, 16.65355
444.5367, 16.80162
445.0188, 16.96377
445.5009, 17.07545
445.9830, 17.12432
446.4651, 17.17156
446.9473, 17.29307
447.4294, 17.38302
447.9115, 17.35065
448.3936, 16.91289
448.8757, 16.70079
449.3578, 16.87183
449.8400, 17.30338
450.3221, 17.59444
450.8042, 17.72983
451.2863, 17.74556
451.7684, 17.59472
452.2505, 17.20721
452.7327, 17.14624
453.2148, 17.52997
453.6969, 18.02760
454.1790, 18.19271
454.6611, 18.00378
455.1432, 17.91291
455.6254, 18.05066
456.1075, 18.33364
456.5896, 18.57700
457.0717, 18.78121
457.5538, 18.88457
458.0359, 18.74741
458.5181, 18.49084
459.0002, 18.39617
459.4823, 18.49508
459.9644, 18.70630
460.4465, 19.00171
460.9286, 19.34742
461.4108, 19.67205
461.8929, 19.88102
462.3750, 20.11750
462.8571, 20.61292
463.3392, 21.28125
463.8214, 21.69720
464.3035, 21.25460
464.7856, 20.76994
465.2677, 20.86701
465.7498, 21.90682
466.2319, 22.77177
466.7141, 22.97018
467.1962, 22.91238
467.6783, 23.12775
468.1604, 24.15374
468.6425, 24.92300
469.1246, 25.07668
469.6068, 24.69526
470.0889, 24.76922
470.5710, 25.53035
471.0531, 26.42994
471.5352, 27.19111
472.0173, 27.81549
472.4995, 28.26174
472.9816, 28.38306
473.4637, 28.53665
473.9458, 29.41393
474.4279, 31.07670
474.9100, 32.50801
475.3922, 33.22551
475.8743, 33.54967
476.3564, 34.57302
476.8385, 36.28790
477.3206, 37.97158
477.8027, 38.91783
478.2849, 39.44723
478.7670, 40.24351
479.2491, 41.43989
479.7312, 42.72012
480.2133, 43.99219
480.6954, 45.11266
481.1776, 45.81687
481.6597, 45.79830
482.1418, 45.48040
482.6239, 45.15497
483.1060, 44.78576
483.5881, 44.12196
484.0703, 42.70161
484.5524, 41.20830
485.0345, 40.08509
485.5166, 39.61086
485.9987, 39.04330
486.4808, 37.96130
486.9630, 36.84721
487.4451, 36.36253
487.9272, 36.90472
488.4093, 37.52427
488.8914, 38.08628
489.3735, 38.59901
489.8557, 39.04111
490.3378, 39.29834
490.8199, 39.75283
491.3020, 40.65792
491.7841, 42.04387
492.2662, 43.54303
492.7484, 45.14492
493.2305, 46.83046
493.7126, 48.45406
494.1947, 50.06066
494.6768, 51.90603
495.1589, 54.02832
495.6411, 56.45976
496.1232, 59.25223
496.6053, 62.41840
497.0874, 65.75640
497.5695, 69.38004
498.0516, 73.04972
498.5338, 76.57021
499.0159, 79.89981
499.4980, 83.03635
499.9801, 86.20216
500.4622, 89.11189
500.9443, 91.49263
501.4265, 93.35430
501.9086, 94.50100
502.3907, 95.09929
502.8728, 94.99865
503.3549, 93.62420
503.8370, 90.30643
504.3192, 86.21141
504.8013, 81.64098
505.2834, 76.43777
505.7655, 71.44074
506.2476, 66.59690
506.7297, 62.03468
507.2119, 57.78789
507.6940, 53.82738
508.1761, 50.44036
508.6582, 47.78788
509.1403, 45.61318
509.6224, 43.21875
510.1046, 40.58967
510.5867, 38.31022
511.0688, 36.80742
511.5509, 35.87754
512.0330, 34.92528
512.5151, 33.94356
512.9973, 33.03603
513.4794, 32.29145
513.9615, 31.66815
514.4436, 31.08991
514.9257, 30.51142
515.4078, 30.04289
515.8900, 29.85633
516.3721, 29.83523
516.8542, 29.75426
517.3363, 29.58072
517.8184, 29.28208
518.3005, 28.71025
518.7827, 27.87990
519.2648, 27.36668
519.7469, 27.57569
520.2290, 27.89525
520.7111, 27.98294
521.1932, 27.69056
521.6754, 27.46090
522.1575, 27.26117
522.6396, 27.14791
523.1217, 27.26411
523.6038, 27.72692
524.0859, 27.97391
524.5681, 27.82454
525.0502, 27.37924
525.5323, 26.91926
526.0144, 26.43423
526.4965, 26.10106
526.9786, 26.13197
527.4608, 26.39915
527.9429, 26.51429
528.4250, 26.44817
528.9071, 26.32932
529.3892, 26.19240
529.8713, 26.10238
530.3535, 26.18280
530.8356, 26.58487
531.3177, 26.99868
531.7998, 27.17414
532.2819, 27.20459
532.7640, 27.30579
533.2462, 27.66473
533.7283, 28.01070
534.2104, 28.16879
534.6925, 28.09453
535.1746, 28.24861
535.6567, 28.78743
536.1389, 29.47476
536.6210, 30.16762
537.1031, 30.89212
537.5852, 31.58437
538.0673, 32.24226
538.5494, 32.87668
539.0316, 33.46972
539.5137, 33.99847
539.9958, 34.68779
540.4779, 35.63955
540.9600, 36.78061
541.4421, 37.87307
541.9243, 38.91786
542.4064, 40.05561
542.8885, 41.43040
543.3706, 42.93907
543.8527, 44.31361
544.3348, 45.50340
544.8170, 46.91956
545.2991, 49.14390
545.7812, 51.68424
546.2633, 53.94481
546.7454, 55.48224
547.2275, 57.03505
547.7097, 58.84321
548.1918, 60.89909
548.6739, 63.14963
549.1560, 65.46004
549.6381, 68.10667
550.1202, 71.22078
550.6024, 74.80694
551.0845, 78.48710
551.5666, 82.25487
552.0487, 86.14184
552.5308, 90.14221
553.0129, 94.29443
553.4951, 98.52930
553.9772, 102.9740
554.4593, 107.2176
554.9414, 110.6550
555.4235, 113.3214
555.9056, 115.6792
556.3878, 118.0008
556.8699, 119.8950
557.3520, 120.7849
557.8341, 120.6767
558.3162, 119.5517
558.7983, 117.1009
559.2805, 113.8164
559.7626, 110.0448
560.2447, 105.8250
560.7268, 101.3934
561.2089, 96.77546
561.6910, 92.00874
562.1732, 87.09035
562.6553, 81.91124
563.1374, 76.83974
563.6195, 71.74385
564.1016, 66.83451
564.5837, 62.42973
565.0659, 58.61932
565.5480, 55.07988
566.0301, 51.78656
566.5122, 48.72656
566.9943, 45.86910
567.4764, 43.20749
567.9586, 40.89105
568.4407, 39.06407
568.9228, 37.69579
569.4049, 36.65426
569.8870, 35.96989
570.3691, 35.33553
570.8513, 34.47292
571.3334, 33.44562
571.8155, 32.37521
572.2976, 31.18392
572.7797, 30.16633
573.2618, 29.61840
573.7440, 29.38039
574.2261, 29.15246
574.7082, 28.80805
575.1903, 28.47227
575.6724, 28.16900
576.1545, 27.90735
576.6367, 27.75910
577.1188, 27.84147
577.6009, 27.92668
578.0830, 27.89907
578.5651, 27.70355
579.0472, 27.69607
579.5294, 27.92175
580.0115, 28.25678
580.4936, 28.58700
580.9757, 28.91429
581.4578, 29.28377
581.9399, 29.69724
582.4221, 30.16489
582.9042, 30.74723
583.3863, 31.41029
583.8684, 32.05031
584.3505, 32.73085
584.8326, 33.28206
585.3148, 33.44128
585.7969, 33.27940
586.2790, 33.11536
586.7611, 33.18851
587.2432, 33.26038
587.7253, 33.26176
588.2075, 33.24500
588.6896, 32.76544
589.1717, 31.24772
589.6538, 29.54735
590.1359, 28.32652
590.6180, 27.93198
591.1002, 27.33175
591.5823, 26.38279
592.0644, 25.31793
592.5465, 24.54452
593.0286, 24.09366
593.5107, 23.70674
593.9929, 23.33155
594.4750, 22.95637
594.9571, 22.53258
595.4392, 22.06865
595.9213, 21.63327
596.4034, 21.20963
596.8856, 20.86252
597.3677, 20.69129
597.8498, 20.69921
598.3319, 20.80491
598.8140, 21.11017
599.2961, 21.40062
599.7783, 21.46810
600.2604, 21.13706
600.7425, 20.88792
601.2246, 20.90654
601.7067, 21.03191
602.1888, 21.04929
602.6710, 20.86785
603.1531, 20.72865
603.6352, 20.68931
604.1173, 20.70264
604.5994, 20.61697
605.0815, 20.41359
605.5637, 20.22027
606.0458, 20.11683
606.5279, 20.06592
607.0100, 19.89481
607.4921, 19.60932
607.9742, 19.31824
608.4564, 19.11016
608.9385, 18.94991
609.4206, 18.80149
609.9027, 18.66440
610.3848, 18.49745
610.8669, 18.21029
611.3491, 17.90960
611.8312, 17.70456
612.3133, 17.68459
612.7954, 17.68179
613.2775, 17.64137
613.7596, 17.60348
614.2418, 17.64875
614.7239, 17.85386
615.2060, 18.00681
615.6881, 18.04833
616.1702, 18.00352
616.6523, 17.98829
617.1345, 18.00056
617.6166, 18.05493
618.0987, 18.15621
618.5808, 18.30603
619.0629, 18.51984
619.5450, 18.79806
620.0272, 19.10386
620.5093, 19.42220
620.9914, 19.74452
621.4735, 20.02705
621.9556, 20.22435
622.4377, 20.53583
622.9199, 21.20345
623.4020, 21.99277
623.8841, 22.62992
624.3662, 22.72996
624.8483, 23.07662
625.3304, 23.92505
625.8126, 25.06646
626.2947, 26.04194
626.7768, 26.75675
627.2589, 27.49897
627.7410, 28.34432
628.2231, 29.28286
628.7053, 30.28883
629.1874, 31.36884
629.6695, 32.42173
630.1516, 33.33326
630.6337, 34.17558
631.1158, 35.13158
631.5980, 36.20075
632.0801, 37.38385
632.5622, 38.84619
633.0443, 40.34047
633.5264, 41.60500
634.0085, 42.58149
634.4907, 43.35204
634.9728, 43.96762
635.4549, 44.38739
635.9370, 44.55479
636.4191, 44.43719
636.9012, 44.10638
637.3834, 43.59974
637.8655, 42.86945
638.3476, 41.76809
638.8297, 40.23286
639.3118, 38.64158
639.7939, 37.09984
640.2761, 35.59726
640.7582, 34.14911
641.2403, 32.73418
641.7224, 31.31902
642.2045, 29.70300
642.6866, 28.12061
643.1688, 26.98193
643.6509, 26.28920
644.1330, 25.63136
644.6151, 24.68128
645.0972, 23.71070
645.5793, 22.96919
646.0615, 22.62542
646.5436, 22.18035
647.0257, 21.45157
647.5078, 20.64921
647.9899, 19.96803
648.4720, 19.44954
648.9542, 18.91010
649.4363, 18.25135
649.9184, 17.65209
650.4005, 17.51600
650.8826, 17.83392
651.3647, 18.04630
651.8469, 17.93456
652.3290, 17.64322
652.8111, 17.41571
653.2932, 17.22622
653.7753, 16.98355
654.2574, 16.49633
654.7396, 16.04161
655.2217, 15.91743
655.7038, 16.10549
656.1859, 16.13259
656.6680, 15.66383
657.1501, 15.14783
657.6323, 14.84787
658.1144, 14.82538
658.5965, 14.74288
659.0786, 14.56491
659.5607, 14.37829
660.0428, 14.26963
660.5250, 14.24549
661.0071, 14.17524
661.4892, 14.04014
661.9713, 13.88437
662.4534, 13.74599
662.9355, 13.63247
663.4177, 13.57365
663.8998, 13.61520
664.3819, 13.64782
664.8640, 13.57154
665.3461, 13.42002
665.8282, 13.25828
666.3104, 13.08921
666.7925, 12.93399
667.2746, 12.77582
667.7567, 12.63074
668.2388, 12.58353
668.7209, 12.71985
669.2031, 12.81606
669.6852, 12.77749
670.1673, 12.61625
670.6494, 12.52369
671.1315, 12.51011
671.6136, 12.48340
672.0958, 12.32747
672.5779, 12.10988
673.0600, 12.02884
673.5421, 12.09768
674.0242, 12.23135
674.5063, 12.47255
674.9885, 12.68976
675.4706, 12.71934
675.9527, 12.46833
676.4348, 12.20338
676.9169, 12.00220
677.3990, 11.83999
677.8812, 11.68597
678.3633, 11.47133
678.8454, 11.39651
679.3275, 11.53375
679.8096, 11.76757
680.2917, 11.89233
680.7739, 11.90281
681.2560, 11.85391
681.7381, 11.74152
682.2202, 11.60338
682.7023, 11.48640
683.1844, 11.40063
683.6666, 11.39057
684.1487, 11.59812
684.6308, 11.79570
685.1129, 11.79832
685.5950, 11.62361
686.0771, 11.39624
686.5593, 10.95795
687.0414, 10.65602
687.5235, 10.74301
688.0056, 11.25610
688.4877, 11.54235
688.9698, 11.50592
689.4520, 11.41286
689.9341, 11.44070
690.4162, 11.59144
690.8983, 11.68987
691.3804, 11.73233
691.8625, 11.72993
692.3447, 11.65807
692.8268, 11.55723
693.3089, 11.53234
693.7910, 11.63507
694.2731, 11.67173
694.7552, 11.39132
695.2374, 11.01666
695.7195, 10.80639
696.2016, 10.92883
696.6837, 11.08796
697.1658, 11.28929
697.6479, 11.48615
698.1301, 11.60612
698.6122, 11.63291
699.0943, 11.62343
699.5764, 11.57154
700.0585, 11.50718
700.5406, 11.50840
701.0228, 11.56950
701.5049, 11.62819
701.9870, 11.62251
702.4691, 11.62710
702.9512, 11.81032
703.4333, 12.11006
703.9155, 12.28541
704.3976, 12.11213
704.8797, 11.87992
705.3618, 11.72324
705.8439, 11.64990
706.3260, 11.63200
706.8082, 11.64630
707.2903, 11.74120
707.7724, 11.99120
708.2545, 12.41702
708.7366, 12.54494
709.2188, 12.32171
709.7009, 12.03942
710.1830, 11.92861
710.6651, 11.95329
711.1472, 12.01991
711.6293, 12.12341
712.1115, 12.22173
712.5936, 12.28229
713.0757, 12.31952
713.5578, 12.34669
714.0399, 12.36154
714.5220, 12.38125
715.0042, 12.44954
715.4863, 12.50399
715.9684, 12.47014
716.4505, 12.25833
716.9326, 12.16167
717.4147, 12.22737
717.8969, 12.38033
718.3790, 12.52291
718.8611, 12.65440
719.3432, 12.73019
719.8253, 12.72745
720.3074, 12.68852
720.7896, 12.63837
721.2717, 12.59690
721.7538, 12.60914
722.2359, 12.73423
722.7180, 12.87913
723.2001, 13.02935
723.6823, 13.16499
724.1644, 13.21877
724.6465, 13.08037
725.1286, 12.99145
725.6107, 13.04350
726.0928, 13.19030
726.5750, 13.18264
727.0571, 12.99215
727.5392, 12.82865
728.0213, 12.80444
728.5034, 12.87539
728.9855, 12.92972
729.4677, 12.96870
729.9498, 13.00366
730.4319, 13.04877
730.9140, 13.08739
731.3961, 13.10520
731.8782, 13.10117
732.3604, 13.08689
732.8425, 13.00708
733.3246, 12.97161
733.8067, 13.07297
734.2888, 13.36599
734.7709, 13.41213
735.2531, 13.12930
735.7352, 12.81328
736.2173, 12.68064
736.6994, 12.71735
737.1815, 12.86027
737.6636, 13.11334
738.1458, 13.37416
738.6279, 13.60685
739.1100, 13.76305
739.5921, 13.75660
740.0742, 13.52993
740.5563, 13.30027
741.0385, 13.08921
741.5206, 12.94953
742.0027, 12.94267
742.4848, 13.14667
742.9669, 13.33539
743.4490, 13.53526
743.9312, 13.67900
744.4133, 13.62770
744.8954, 13.38924
745.3775, 13.28539
745.8596, 13.40046
746.3417, 13.59172
746.8239, 13.69928
747.3060, 13.74537
747.7881, 13.76940
748.2702, 13.76405
748.7523, 13.76993
749.2344, 13.83939
749.7166, 13.92710
750.1987, 13.94552
750.6808, 13.77832
751.1629, 13.70960
751.6450, 13.82795
752.1271, 14.03720
752.6093, 14.09085
753.0914, 13.97899
753.5735, 13.87504
754.0556, 13.82820
754.5377, 13.83287
755.0198, 13.90667
755.5020, 14.02933
755.9841, 14.13517
756.4662, 14.15307
756.9483, 14.18251
757.4304, 14.33887
757.9125, 14.56702
758.3947, 14.65977
758.8768, 14.42283
759.3589, 14.23900
759.8410, 14.20421
760.3231, 14.29983
760.8052, 14.45715
761.2874, 14.69344
761.7695, 14.86146
762.2516, 14.85647
762.7337, 14.75281
763.2158, 14.70462
763.6979, 14.70912
764.1801, 14.75301
764.6622, 14.92953
765.1443, 15.05962
765.6264, 14.96223
766.1085, 14.64658
766.5906, 14.44086
767.0728, 14.47264
767.5549, 14.54880
768.0370, 14.62544
768.5191, 14.70053
769.0012, 14.64447
769.4833, 14.43511
769.9655, 14.23262
770.4476, 14.12279
770.9297, 14.10214
771.4118, 14.20219
771.8939, 14.41313
772.3760, 14.58239
772.8582, 14.53443
773.3403, 14.45574
773.8224, 14.52387
774.3045, 14.78344
774.7866, 14.91448
775.2687, 14.76896
775.7509, 14.59146
776.2330, 14.51534
776.7151, 14.55766
777.1972, 14.50123
777.6793, 14.32235
778.1614, 14.17064
778.6436, 14.20648
779.1257, 14.35754
779.6078, 14.47235
780.0899, 14.53927
780.5720, 14.54584
781.0541, 14.44617
781.5363, 14.30803
782.0184, 14.18641
782.5005, 14.09067
782.9826, 14.00123
783.4647, 13.90132
783.9468, 13.82248
784.4290, 13.78328
784.9111, 13.78300
785.3932, 13.82108
785.8753, 13.89366
786.3574, 14.02292
786.8395, 14.35376
787.3217, 14.72917
787.8038, 14.75356
788.2859, 14.32683
788.7680, 13.98678
789.2501, 14.21177
789.7322, 14.58000
790.2144, 14.70592
790.6965, 14.32506
791.1786, 14.21208
791.6607, 14.54394
792.1428, 14.94808
792.6249, 15.10753
793.1071, 15.01700
793.5892, 14.85612
794.0713, 14.61838
794.5534, 14.41770
795.0355, 14.36204
795.5176, 14.42490
795.9998, 14.57731
796.4819, 14.83169
796.9640, 15.08473
797.4461, 15.29142
797.9282, 15.47238
798.4103, 15.65307
798.8925, 15.89692
799.3746, 15.99160
799.8567, 15.85694
800.3388, 15.70248
800.8209, 15.77177
801.3030, 16.04311
801.7852, 16.24051
802.2673, 16.33228
802.7494, 16.38109
803.2315, 16.42505
803.7136, 16.47573
804.1957, 16.54988
804.6779, 16.65660
805.1600, 16.76954
805.6421, 16.84427
806.1242, 16.94545
806.6063, 17.13483
807.0884, 17.46749
807.5706, 17.74282
808.0527, 17.96006
808.5348, 18.12050
809.0169, 18.16459
809.4990, 18.14242
809.9811, 18.32831
810.4633, 18.79701
810.9454, 19.18769
811.4275, 19.09058
811.9096, 18.81359
812.3917, 18.68183
812.8738, 18.76900
813.3560, 18.96978
813.8381, 19.39034
814.3202, 19.81227
814.8023, 20.05130
815.2844, 20.06803
815.7665, 20.14314
816.2487, 20.30543
816.7308, 20.44507
817.2129, 20.38913
817.6950, 20.23880
818.1771, 20.24156
818.6592, 20.45676
819.1414, 20.63805
819.6235, 20.64052
820.1056, 20.54289
820.5877, 20.38647
821.0698, 20.07593
821.5519, 19.99427
822.0341, 20.27413
822.5162, 20.59109
822.9983, 20.68433
823.4804, 20.56103
823.9625, 20.39141
824.4446, 20.17773
824.9268, 19.99036
825.4089, 19.89685
825.8910, 19.86819
826.3731, 19.87216
826.8552, 19.90420
827.3373, 19.96390
827.8195, 19.98027
828.3016, 20.08614
828.7837, 20.40416
829.2658, 21.00876
829.7479, 21.41859
830.2300, 21.63389
830.7122, 21.63297
831.1943, 21.18884
831.6764, 20.51581
832.1585, 20.38086
832.6406, 20.81304
833.1227, 21.33972
833.6049, 21.70863
834.0870, 21.96906
834.5691, 22.14122
835.0512, 22.21223
835.5333, 22.32283
836.0154, 22.51003
836.4976, 22.70337
836.9797, 22.84879
837.4618, 22.95163
837.9439, 23.17673
838.4260, 23.52851
838.9081, 23.89539
839.3903, 24.17664
839.8724, 24.43665
840.3545, 24.74714
840.8366, 25.11299
841.3187, 25.54339
841.8008, 26.19328
842.2830, 26.75936
842.7651, 27.00479
843.2472, 26.96837
843.7293, 27.22776
844.2114, 27.86062
844.6935, 28.53286
845.1757, 29.06669
845.6578, 29.52515
846.1399, 30.12503
846.6220, 30.84548
847.1041, 31.56684
847.5862, 32.06443
848.0684, 32.67532
848.5505, 33.77341
849.0326, 35.23575
849.5147, 36.43353
849.9968, 37.04701
850.4789, 37.74047
850.9611, 38.68520
851.4432, 39.82833
851.9253, 40.95896
852.4074, 42.08288
852.8895, 43.40905
853.3716, 45.04874
853.8538, 46.86356
854.3359, 48.78654
854.8180, 50.74769
855.3001, 52.54921
855.7822, 53.73321
856.2643, 55.22931
856.7465, 57.49995
857.2286, 60.16192
857.7107, 62.51393
858.1928, 64.46327
858.6749, 66.60992
859.1570, 69.14800
859.6392, 71.83683
860.1213, 74.15815
860.6034, 76.29530
861.0855, 78.74699
861.5676, 81.98425
862.0497, 85.02248
862.5319, 87.12518
863.0140, 88.77816
863.4961, 90.62992
863.9782, 93.09211
864.4603, 95.08928
864.9424, 96.64833
865.4246, 97.64656
865.9067, 97.84545
866.3888, 97.32895
866.8709, 96.58901
867.3530, 95.72779
867.8351, 94.46125
868.3173, 92.28871
868.7994, 89.69663
869.2815, 87.18069
869.7636, 84.80650
870.2457, 82.50399
870.7278, 80.33797
871.2100, 78.14640
871.6921, 75.73568
872.1742, 73.11477
872.6563, 70.94120
873.1384, 69.25256
873.6205, 67.79024
874.1027, 66.41887
874.5848, 65.10008
875.0669, 63.73095
875.5490, 62.32148
876.0311, 61.18899
876.5132, 60.64501
876.9954, 60.22978
877.4775, 59.72889
877.9596, 59.14754
878.4417, 58.52043
878.9238, 57.79114
879.4059, 57.35321
879.8881, 57.61950
880.3702, 58.23260
880.8523, 58.43223
881.3344, 58.31850
881.8165, 58.31873
882.2986, 58.57427
882.7808, 59.07042
883.2629, 59.93502
883.7450, 61.05053
884.2271, 61.93444
884.7092, 62.42076
885.1913, 63.16159
885.6735, 64.37083
886.1556, 65.87034
886.6377, 67.31036
887.1198, 68.70207
887.6019, 70.17862
888.0840, 71.80685
888.5662, 73.49822
889.0483, 75.14285
889.5304, 76.83882
890.0125, 78.72459
890.4946, 80.92402
890.9767, 83.13350
891.4589, 85.31522
891.9410, 87.56551
892.4231, 90.01656
892.9052, 92.68225
893.3873, 95.57954
893.8694, 98.75389
894.3516, 102.0596
894.8337, 105.2706
895.3158, 108.6081
895.7979, 112.3243
896.2800, 116.5268
896.7621, 120.7955
897.2443, 125.1207
897.7264, 129.4070
898.2085, 133.4658
898.6906, 137.2965
899.1727, 141.5105
899.6548, 146.0757
900.1370, 150.8450
900.6191, 155.6519
901.1012, 160.5910
901.5833, 165.5905
902.0654, 170.6404
902.5475, 176.2847
903.0297, 182.3587
903.5118, 189.4075
903.9939, 197.7248
904.4760, 207.0607
904.9581, 216.4089
905.4402, 225.7633
905.9224, 235.7508
906.4045, 246.6602
906.8866, 258.6061
907.3687, 271.4522
907.8508, 285.5498
908.3329, 301.4138
908.8151, 320.0609
909.2972, 339.4774
909.7793, 358.6721
910.2614, 378.7458
910.7435, 401.7273
911.2256, 427.8391
911.7078, 453.7374
912.1899, 478.7375
912.6720, 505.0961
913.1541, 535.7078
913.6362, 569.2176
914.1183, 603.5246
914.6005, 638.2673
915.0826, 673.5096
915.5647, 710.2714
916.0468, 746.7081
916.5289, 781.7359
917.0110, 815.5411
917.4932, 847.8450
917.9753, 879.1042
918.4574, 906.3236
918.9395, 928.6299
919.4216, 944.6988
919.9037, 952.6672
920.3859, 952.4644
920.8680, 944.3779
921.3501, 927.6534
921.8322, 903.7051
922.3143, 872.2345
922.7964, 834.4291
923.2786, 793.2349
923.7607, 748.3336
924.2428, 702.2261
924.7249, 655.5916
925.2070, 609.2148
925.6891, 564.7012
926.1713, 522.1071
926.6534, 481.9836
927.1355, 443.5223
927.6176, 408.7663
928.0997, 379.1107
928.5818, 352.7704
929.0640, 327.6258
929.5461, 303.3506
930.0282, 281.4892
930.5103, 262.4886
930.9924, 245.4603
931.4745, 230.0862
931.9567, 216.0881
932.4388, 202.7357
932.9209, 189.9738
933.4030, 178.4450
933.8851, 169.1919
934.3672, 160.7397
934.8494, 152.2803
935.3315, 143.7253
935.8136, 135.8582
936.2957, 128.6661
936.7778, 122.2949
937.2599, 117.2329
937.7421, 112.7761
938.2242, 107.4817
938.7063, 101.6791
939.1884, 96.59366
939.6705, 93.39980
940.1526, 90.21568
940.6348, 86.30629
941.1169, 82.07019
941.5990, 78.45684
942.0811, 75.49541
942.5632, 73.00349
943.0453, 71.08297
943.5275, 69.26791
944.0096, 66.74863
944.4917, 63.95333
944.9738, 61.57810
945.4559, 59.96460
945.9380, 58.37328
946.4202, 56.46943
946.9023, 54.63049
947.3844, 53.19292
947.8665, 52.19334
948.3486, 51.00559
948.8307, 49.61238
949.3129, 48.21144
949.7950, 46.91724
950.2771, 45.72210
950.7592, 44.68138
951.2413, 43.77641
951.7234, 42.88232
952.2056, 41.93589
952.6877, 41.02424
953.1698, 40.12392
953.6519, 39.29436
954.1340, 38.82824
954.6161, 38.70391
955.0983, 38.41749
955.5804, 37.68873
956.0625, 36.92820
956.5446, 36.66667
957.0267, 36.61263
957.5089, 36.32058
957.9910, 35.27503
958.4731, 34.62716
958.9552, 34.60286
959.4373, 34.72613
959.9194, 34.50306
960.4016, 33.97615
960.8837, 33.49421
961.3658, 33.08372
961.8479, 32.75103
962.3300, 32.57892
962.8121, 32.43281
963.2943, 32.21870
963.7764, 31.92644
964.2585, 31.54010
964.7406, 30.92829
965.2227, 30.52287
965.7048, 30.56439
966.1870, 30.86180
966.6691, 30.89736
967.1512, 30.71365
967.6333, 30.49145
968.1154, 30.32296
968.5975, 30.11369
969.0797, 29.74714
969.5618, 29.32819
970.0439, 29.00983
970.5260, 28.82978
971.0081, 28.65983
971.4902, 28.48723
971.9724, 28.34284
972.4545, 28.21875
972.9366, 28.15899
973.4187, 28.32771
973.9008, 28.73997
974.3829, 29.07876
974.8651, 29.22010
975.3472, 29.19508
975.8293, 28.97262
976.3114, 28.58133
976.7935, 28.22745
977.2756, 27.88720
977.7578, 27.79592
978.2399, 28.21101
978.7220, 28.74574
979.2041, 28.75980
979.6862, 28.43278
980.1683, 28.15351
980.6505, 28.01315
981.1326, 27.99820
981.6147, 28.16820
982.0968, 28.39711
982.5789, 28.59680
983.0610, 28.76789
983.5432, 28.61757
984.0253, 28.09277
984.5074, 27.54227
984.9895, 27.22894
985.4716, 27.06990
985.9537, 26.98354
986.4359, 26.96097
986.9180, 27.07209
987.4001, 27.49686
987.8822, 27.74906
988.3643, 27.62302
988.8464, 27.21115
989.3286, 26.73065
989.8107, 26.20858
990.2928, 25.77461
990.7749, 25.46959
991.2570, 25.28813
991.7391, 25.33269
992.2213, 25.45770
992.7034, 25.44176
993.1855, 25.21997
993.6676, 25.00739
994.1497, 24.80413
994.6318, 24.63276
995.1140, 24.53706
995.5961, 24.48523
996.0782, 24.43648
996.5603, 24.38217
997.0424, 24.24002
997.5245, 23.75210
998.0067, 23.40043
998.4888, 23.47726
998.9709, 23.86672
999.4530, 24.03456
999.9351, 23.96590
1000.417, 23.93157
1000.899, 24.04191
1001.381, 24.19109
1001.864, 24.21661
1002.346, 24.20675
1002.828, 24.31173
1003.310, 24.73982
1003.792, 24.96287
1004.274, 24.90351
1004.756, 24.70376
1005.238, 24.39152
1005.721, 24.01413
1006.203, 23.97262
1006.685, 24.26235
1007.167, 24.57215
1007.649, 24.70804
1008.131, 24.77466
1008.613, 24.79495
1009.095, 24.79646
1009.577, 24.91429
1010.060, 25.20841
1010.542, 25.42426
1011.024, 25.47720
1011.506, 25.47780
1011.988, 25.67612
1012.470, 25.94293
1012.952, 25.94311
1013.434, 25.44547
1013.917, 25.18406
1014.399, 25.68977
1014.881, 26.31707
1015.363, 26.62357
1015.845, 26.60112
1016.327, 26.79768
1016.809, 27.21750
1017.291, 27.59935
1017.773, 27.66085
1018.256, 27.69926
1018.738, 28.11625
1019.220, 28.75525
1019.702, 29.14206
1020.184, 28.99892
1020.666, 28.91315
1021.148, 28.90848
1021.630, 29.06109
1022.112, 29.60637
1022.595, 30.40358
1023.077, 30.93122
1023.559, 31.08451
1024.041, 31.27595
1024.523, 31.79661
1025.005, 32.41181
1025.487, 32.95417
1025.969, 33.42999
1026.452, 33.93686
1026.934, 34.48184
1027.416, 34.99416
1027.898, 35.40731
1028.380, 35.81827
1028.862, 36.37196
1029.344, 37.01839
1029.826, 37.66920
1030.308, 38.22375
1030.791, 38.90068
1031.273, 39.75174
1031.755, 40.66150
1032.237, 41.52538
1032.719, 42.35265
1033.201, 43.08081
1033.683, 43.72766
1034.165, 44.58419
1034.647, 46.02903
1035.130, 47.56913
1035.612, 48.90758
1036.094, 50.05047
1036.576, 51.18946
1037.058, 52.32790
1037.540, 53.34609
1038.022, 54.16430
1038.504, 54.94624
1038.987, 55.88582
1039.469, 56.95632
1039.951, 58.16055
1040.433, 59.52441
1040.915, 60.84444
1041.397, 62.05904
1041.879, 63.22083
1042.361, 64.38054
1042.844, 65.51778
1043.326, 66.59853
1043.808, 67.60518
1044.290, 68.38077
1044.772, 68.68154
1045.254, 68.91139
1045.736, 69.37708
1046.218, 69.93975
1046.700, 70.34167
1047.183, 70.59631
1047.665, 70.62669
1048.147, 70.41414
1048.629, 70.02372
1049.111, 69.67922
1049.593, 69.12440
1050.075, 67.70087
1050.557, 65.40311
1051.040, 63.56632
1051.522, 63.20869
1052.004, 62.71775
1052.486, 61.64498
1052.968, 60.11896
1053.450, 58.41703
1053.932, 56.57180
1054.414, 54.79642
1054.896, 53.20194
1055.379, 51.54777
1055.861, 49.49746
1056.343, 47.39608
1056.825, 45.63812
1057.307, 44.32890
1057.789, 42.71165
1058.271, 40.72444
1058.753, 38.78728
1059.235, 37.25952
1059.718, 35.91534
1060.200, 34.32341
1060.682, 32.64405
1061.164, 31.32827
1061.646, 30.78745
1062.128, 30.27682
1062.610, 29.77057
1063.092, 29.16903
1063.574, 28.25403
1064.057, 27.11604
1064.539, 26.16282
1065.021, 25.43272
1065.503, 24.78388
1065.985, 24.11946
1066.467, 23.50667
1066.949, 22.96439
1067.431, 22.50239
1067.914, 22.22052
1068.396, 22.15012
1068.878, 21.86627
1069.360, 21.14962
1069.842, 20.41528
1070.324, 20.16216
1070.806, 20.17894
1071.288, 20.21212
1071.771, 20.23166
1072.253, 20.21268
1072.735, 20.16085
1073.217, 20.05776
1073.699, 19.87749
1074.181, 19.64364
1074.663, 19.44338
1075.145, 19.25227
1075.627, 18.99158
1076.110, 18.43794
1076.592, 18.04180
1077.074, 18.05659
1077.556, 18.20873
1078.038, 18.19729
1078.520, 18.02397
1079.002, 17.85201
1079.484, 17.69341
1079.967, 17.53252
1080.449, 17.30110
1080.931, 17.11310
1081.413, 17.11468
1081.895, 17.26369
1082.377, 17.25940
1082.859, 17.08130
1083.341, 16.79556
1083.823, 16.35945
1084.306, 15.98465
1084.788, 16.04288
1085.270, 16.32724
1085.752, 16.54321
1086.234, 16.64245
1086.716, 16.63393
1087.198, 16.46725
1087.680, 16.28274
1088.162, 16.12441
1088.645, 16.00647
1089.127, 16.03475
1089.609, 16.15270
1090.091, 16.13182
1090.573, 15.76442
1091.055, 15.42370
1091.537, 15.24739
1092.019, 15.20014
1092.501, 15.28321
1092.984, 15.52112
1093.466, 15.57827
1093.948, 15.44854
1094.430, 15.29730
1094.912, 15.20614
1095.394, 15.17228
1095.876, 15.20547
1096.358, 15.29554
1096.841, 15.42379
1097.323, 15.64356
1097.805, 15.71815
1098.287, 15.59021
1098.769, 15.40978
1099.251, 15.34228
1099.733, 15.34003
1100.215, 15.34566
1100.698, 15.35162
1101.180, 15.30988
1101.662, 15.16690
1102.144, 15.03718
1102.626, 14.96220
1103.108, 14.90715
1103.590, 14.75870
1104.072, 14.56185
1104.554, 14.47772
1105.037, 14.58568
1105.519, 14.67491
1106.001, 14.65862
1106.483, 14.56842
1106.965, 14.39593
1107.447, 14.15631
1107.929, 14.07967
1108.411, 14.15723
1108.894, 14.23451
1109.376, 14.25454
1109.858, 14.22061
1110.340, 14.04466
1110.822, 13.85860
1111.304, 13.86320
1111.786, 14.14188
1112.268, 14.33721
1112.750, 14.44864
1113.233, 14.44697
1113.715, 14.20294
1114.197, 13.90909
1114.679, 13.80144
1115.161, 13.84851
1115.643, 13.90848
1116.125, 13.93233
1116.607, 14.03086
1117.089, 14.27163
1117.572, 14.46588
1118.054, 14.26497
1118.536, 13.87294
1119.018, 13.73740
1119.500, 13.89672
1119.982, 14.08946
1120.464, 14.31004
1120.946, 14.42325
1121.428, 14.35274
1121.911, 14.17969
1122.393, 14.10395
1122.875, 14.09941
1123.357, 14.02929
1123.839, 13.83168
1124.321, 13.71626
1124.803, 13.96551
1125.285, 14.18663
1125.768, 14.07552
1126.250, 13.68459
1126.732, 13.55541
1127.214, 13.67804
1127.696, 13.78812
1128.178, 13.75893
1128.660, 13.70868
1129.142, 13.77531
1129.625, 13.85648
1130.107, 13.80854
1130.589, 13.58491
1131.071, 13.42155
1131.553, 13.30884
1132.035, 13.32195
1132.517, 13.65541
1132.999, 14.02872
1133.481, 14.07658
1133.964, 13.90616
1134.446, 13.75611
1134.928, 13.61608
1135.410, 13.63020
1135.892, 13.86215
1136.374, 14.07857
1136.856, 13.96759
1137.338, 13.72089
1137.821, 13.70968
1138.303, 13.90478
1138.785, 14.02111
1139.267, 13.88264
1139.749, 13.76610
1140.231, 13.71199
1140.713, 13.70942
1141.195, 13.77989
1141.677, 13.88390
1142.160, 13.89727
1142.642, 13.80265
1143.124, 13.71828
1143.606, 13.62254
1144.088, 13.65443
1144.570, 13.93459
1145.052, 14.32256
1145.534, 14.38051
1146.016, 14.17308
1146.499, 14.06567
1146.981, 14.17550
1147.463, 14.25869
1147.945, 14.12718
1148.427, 13.95100
1148.909, 13.81863
1149.391, 13.73970
1149.873, 13.81608
1150.355, 14.04306
1150.838, 14.30847
1151.320, 14.63365
1151.802, 14.85388
1152.284, 14.74121
1152.766, 14.51327
1153.248, 14.40603
1153.730, 14.43462
1154.212, 14.50816
1154.695, 14.63034
1155.177, 14.74634
1155.659, 14.81231
1156.141, 14.87136
1156.623, 15.03481
1157.105, 15.20013
1157.587, 15.14756
1158.069, 14.72139
1158.552, 14.54007
1159.034, 14.64405
1159.516, 14.81467
1159.998, 14.91317
1160.480, 14.95443
1160.962, 14.88363
1161.444, 14.76754
1161.926, 14.84340
1162.408, 15.33018
1162.891, 15.54959
1163.373, 15.36304
1163.855, 15.14429
1164.337, 15.37424
1164.819, 15.79719
1165.301, 16.00337
1165.783, 15.98700
1166.265, 15.94679
1166.748, 15.84585
1167.230, 15.89041
1167.712, 16.18476
1168.194, 16.50495
1168.676, 16.46998
1169.158, 16.23722
1169.640, 16.13561
1170.122, 16.20489
1170.604, 16.28146
1171.087, 16.26953
1171.569, 16.32426
1172.051, 16.51149
1172.533, 16.76013
1173.015, 16.95336
1173.497, 17.08679
1173.979, 17.13477
1174.461, 17.07678
1174.943, 17.03907
1175.426, 17.12759
1175.908, 17.17127
1176.390, 17.05106
1176.872, 16.86633
1177.354, 17.02501
1177.836, 17.40902
1178.318, 17.57560
1178.800, 17.29927
1179.282, 17.07086
1179.765, 17.19320
1180.247, 17.34239
1180.729, 17.30572
1181.211, 17.13511
1181.693, 17.15553
1182.175, 17.32956
1182.657, 17.45844
1183.139, 17.45680
1183.622, 17.40420
1184.104, 17.28115
1184.586, 17.17292
1185.068, 17.16726
1185.550, 17.25534
1186.032, 17.22451
1186.514, 17.09341
1186.996, 17.01829
1187.479, 17.20210
1187.961, 17.32452
1188.443, 17.07404
1188.925, 16.79238
1189.407, 16.90833
1189.889, 17.44093
1190.371, 17.59592
1190.853, 17.37580
1191.335, 17.12686
1191.818, 16.93885
1192.300, 16.92241
1192.782, 17.31899
1193.264, 17.83646
1193.746, 18.04622
1194.228, 17.93694
1194.710, 17.76209
1195.192, 17.53875
1195.675, 17.38299
1196.157, 17.52197
1196.639, 17.61132
1197.121, 17.28091
1197.603, 16.79126
1198.085, 16.73097
1198.567, 17.12686
1199.049, 17.33308
1199.531, 17.27670
1200.014, 17.23723
1200.496, 17.58665
1200.978, 17.89143
1201.460, 17.74856
1201.942, 17.32714
1202.424, 17.14755
1202.906, 17.22234
1203.388, 17.21625
1203.870, 17.07066
1204.353, 16.90612
1204.835, 16.76773
1205.317, 16.70204
1205.799, 16.82496
1206.281, 17.05608
1206.763, 17.06305
1207.245, 16.83399
1207.727, 16.69149
1208.209, 16.70235
1208.692, 16.82563
1209.174, 17.21764
1209.656, 17.55094
1210.138, 17.47706
1210.620, 17.08088
1211.102, 16.82164
1211.584, 16.70234
1212.066, 16.70624
1212.549, 16.87342
1213.031, 16.98605
1213.513, 16.69516
1213.995, 16.39555
1214.477, 16.55483
1214.959, 17.08512
1215.441, 17.11615
1215.923, 16.64177
1216.406, 16.33345
1216.888, 16.46103
1217.370, 16.66793
1217.852, 16.68090
1218.334, 16.61451
1218.816, 16.57134
1219.298, 16.55302
1219.780, 16.50154
1220.262, 16.41796
1220.745, 16.40286
1221.227, 16.52842
1221.709, 16.65253
1222.191, 16.62460
1222.673, 16.57046
1223.155, 16.62050
1223.637, 16.77395
1224.119, 16.91538
1224.602, 17.03963
1225.084, 17.02304
1225.566, 16.71263
1226.048, 16.42516
1226.530, 16.44656
1227.012, 16.55629
1227.494, 16.52472
1227.976, 16.35129
1228.458, 16.19144
1228.941, 16.05168
1229.423, 16.03425
1229.905, 16.29905
1230.387, 16.52883
1230.869, 16.43657
1231.351, 16.29187
1231.833, 16.37708
1232.315, 16.68937
1232.797, 16.88011
1233.280, 16.95345
1233.762, 16.95979
1234.244, 16.87273
1234.726, 16.79226
1235.208, 16.78467
1235.690, 16.79544
1236.172, 16.76408
1236.654, 16.69451
1237.136, 16.73502
1237.619, 16.86017
1238.101, 16.88649
1238.583, 16.51925
1239.065, 16.28030
1239.547, 16.53689
1240.029, 16.86328
1240.511, 16.80916
1240.993, 16.44863
1241.476, 16.48342
1241.958, 16.84667
1242.440, 17.09290
1242.922, 16.87711
1243.404, 16.67359
1243.886, 16.60236
1244.368, 16.61392
1244.850, 16.69506
1245.333, 16.82137
1245.815, 16.84637
1246.297, 16.80003
1246.779, 16.84990
1247.261, 17.30605
1247.743, 17.51010
1248.225, 17.22122
1248.707, 16.86070
1249.189, 16.90171
1249.672, 17.20190
1250.154, 17.36298
1250.636, 17.39679
1251.118, 17.41682
1251.600, 17.43762
1252.082, 17.49459
1252.564, 17.59946
1253.046, 17.72511
1253.529, 17.89889
1254.011, 18.04653
1254.493, 17.95409
1254.975, 17.68352
1255.457, 17.53269
1255.939, 17.66423
1256.421, 17.77934
1256.903, 17.84837
1257.385, 17.90821
1257.868, 18.01886
1258.350, 18.12889
1258.832, 18.14171
1259.314, 18.08162
1259.796, 18.06423
1260.278, 18.11974
1260.760, 18.18139
1261.242, 18.25134
1261.724, 18.28503
1262.207, 18.15030
1262.689, 18.02751
1263.171, 18.21269
1263.653, 18.58323
1264.135, 18.64724
1264.617, 18.26051
1265.099, 18.25495
1265.581, 18.74924
1266.063, 19.20624
1266.546, 19.06246
1267.028, 18.77729
1267.510, 18.73354
1267.992, 18.85253
1268.474, 18.89345
1268.956, 18.84889
1269.438, 18.81698
1269.920, 18.80596
1270.403, 18.82104
1270.885, 18.89546
1271.367, 18.96648
1271.849, 19.00640
1272.331, 19.01141
1272.813, 18.94405
1273.295, 18.81558
1273.777, 18.82075
1274.260, 18.96735
1274.742, 19.07303
1275.224, 18.98077
1275.706, 18.88897
1276.188, 18.94703
1276.670, 18.96960
1277.152, 18.54505
1277.634, 17.84657
1278.116, 17.67861
1278.599, 18.04002
1279.081, 18.40328
1279.563, 18.53888
1280.045, 18.65216
1280.527, 18.82157
1281.009, 18.92721
1281.491, 18.69728
1281.973, 18.33325
1282.456, 18.35776
1282.938, 18.71343
1283.420, 18.86633
1283.902, 18.47294
1284.384, 18.25450
1284.866, 18.32495
1285.348, 18.48517
1285.830, 18.51677
1286.313, 18.50495
1286.795, 18.55857
1287.277, 18.67326
1287.759, 18.80182
1288.241, 18.93845
1288.723, 19.11431
1289.205, 19.35218
1289.687, 19.48677
1290.169, 19.28592
1290.651, 18.99714
1291.134, 18.81115
1291.616, 18.72635
1292.098, 18.72318
1292.580, 18.82143
1293.062, 18.71457
1293.544, 18.37724
1294.026, 18.13734
1294.508, 18.30939
1294.990, 18.56351
1295.473, 18.74963
1295.955, 18.87785
1296.437, 18.96355
1296.919, 19.00370
1297.401, 18.91966
1297.883, 18.72683
1298.365, 18.62797
1298.847, 18.80352
1299.330, 18.99757
1299.812, 19.16903
1300.294, 19.28513
1300.776, 19.34794
1301.258, 19.31890
1301.740, 18.98149
1302.222, 18.42270
1302.704, 18.07141
1303.187, 18.23649
1303.669, 18.39963
1304.151, 18.53007
##END=



