##NAMES=Almandine
##RRUFFID=R060099
##IDEAL CHEMISTRY=Fe^2+^_3_Al_2_(SiO_4_)_3_
##LOCALITY=Alaska, USA
##OWNER=RRUFF
##SOURCE=Roland Boehne
##DESCRIPTION=Red cube shaped single crystal
##STATUS=The identification of this mineral is confirmed by single-crystal X-ray diffraction and chemical analysis.
##URL=rruff.info/R060099
##MEASURED CHEMISTRY=(Fe^2+^_1.63_Mg_0.57_Mn_0.56_Ca_0.24_)_Σ=3_(Al_1.98_Fe^3+^_0.02_)_Σ=2_(Si_1.00_O_4_)_3_
92.52344, 143.8916
93.00555, 143.3395
93.48767, 143.5643
93.96979, 147.6256
94.45190, 151.2436
94.93402, 154.3442
95.41614, 154.4506
95.89825, 151.5927
96.38037, 146.8079
96.86249, 140.8987
97.34460, 136.5028
97.82672, 134.9323
98.30884, 133.1969
98.79095, 130.6616
99.27307, 127.4399
99.75519, 124.0791
100.2373, 121.3068
100.7194, 119.1098
101.2015, 116.8732
101.6837, 114.3392
102.1658, 111.8889
102.6479, 109.7581
103.1300, 107.9263
103.6121, 106.4063
104.0942, 105.3780
104.5764, 104.6359
105.0585, 103.9360
105.5406, 103.2041
106.0227, 102.4375
106.5048, 101.5980
106.9869, 100.4379
107.4691, 99.51406
107.9512, 99.28825
108.4333, 99.51234
108.9154, 99.57417
109.3975, 98.78277
109.8796, 96.89663
110.3618, 95.72051
110.8439, 95.57940
111.3260, 95.84007
111.8081, 96.58159
112.2902, 97.63250
112.7723, 98.46738
113.2544, 98.26992
113.7366, 96.00655
114.2187, 94.62329
114.7008, 94.59466
115.1829, 95.11590
115.6650, 95.49645
116.1471, 95.49013
116.6293, 95.26303
117.1114, 95.19553
117.5935, 95.31372
118.0756, 95.50222
118.5577, 95.81473
119.0398, 96.18501
119.5220, 96.44073
120.0041, 96.45126
120.4862, 96.34021
120.9683, 96.36539
121.4504, 96.49909
121.9325, 96.80044
122.4147, 97.50925
122.8968, 98.68770
123.3789, 99.50840
123.8610, 99.13428
124.3431, 98.30874
124.8252, 97.69686
125.3074, 97.51588
125.7895, 97.64189
126.2716, 97.80827
126.7537, 97.92348
127.2358, 98.26962
127.7179, 99.10609
128.2001, 100.1438
128.6822, 101.0106
129.1643, 101.4573
129.6464, 101.5174
130.1285, 101.5902
130.6107, 101.6929
131.0928, 101.7944
131.5749, 101.8234
132.0570, 101.8373
132.5391, 101.9669
133.0212, 102.3437
133.5034, 103.0252
133.9855, 103.5778
134.4676, 103.8294
134.9497, 104.1164
135.4318, 104.6323
135.9139, 105.3909
136.3960, 106.2916
136.8782, 107.2735
137.3603, 108.3894
137.8424, 109.2121
138.3245, 109.4828
138.8066, 109.5355
139.2887, 109.7368
139.7709, 110.1621
140.2530, 110.7456
140.7351, 111.4837
141.2172, 112.3570
141.6993, 113.1556
142.1814, 113.6970
142.6636, 114.0628
143.1457, 114.5903
143.6278, 115.5057
144.1099, 116.4170
144.5920, 116.9041
145.0741, 116.9747
145.5563, 117.1290
146.0384, 117.8574
146.5205, 119.2239
147.0026, 120.6026
147.4847, 121.8888
147.9668, 123.1601
148.4490, 124.4944
148.9311, 125.8928
149.4132, 127.2626
149.8953, 128.4363
150.3774, 129.2849
150.8595, 130.2077
151.3417, 131.2165
151.8238, 132.3011
152.3059, 133.4346
152.7880, 134.6022
153.2701, 135.8523
153.7522, 137.2952
154.2344, 139.4820
154.7165, 141.2044
155.1986, 142.0318
155.6807, 142.4780
156.1628, 143.2034
156.6449, 144.5484
157.1271, 146.3524
157.6092, 147.9675
158.0913, 149.4625
158.5734, 150.7577
159.0555, 151.6557
159.5376, 152.3048
160.0198, 153.1070
160.5019, 154.3224
160.9840, 155.8467
161.4661, 157.2041
161.9482, 158.0063
162.4303, 159.0414
162.9125, 161.3088
163.3946, 164.7315
163.8767, 167.3606
164.3588, 167.3399
164.8409, 165.9341
165.3230, 165.2872
165.8052, 165.9046
166.2873, 167.2839
166.7694, 169.0479
167.2515, 171.5122
167.7336, 173.2704
168.2157, 173.4439
168.6979, 172.6274
169.1800, 171.5024
169.6621, 170.5959
170.1442, 169.3858
170.6263, 166.2110
171.1084, 159.7430
171.5906, 153.3236
172.0727, 147.9378
172.5548, 143.2731
173.0369, 138.8319
173.5190, 134.2683
174.0011, 129.6678
174.4833, 125.7656
174.9654, 123.0261
175.4475, 120.5962
175.9296, 118.3624
176.4117, 116.3139
176.8938, 114.4648
177.3760, 112.8442
177.8581, 111.4584
178.3402, 110.0593
178.8223, 108.3839
179.3044, 106.9479
179.7865, 106.0575
180.2687, 105.6022
180.7508, 105.2251
181.2329, 104.6051
181.7150, 103.7019
182.1971, 103.1529
182.6792, 103.1251
183.1614, 103.2532
183.6435, 103.3035
184.1256, 103.2780
184.6077, 103.3773
185.0898, 103.8432
185.5719, 104.6996
186.0541, 105.2990
186.5362, 105.3687
187.0183, 105.3239
187.5004, 105.5026
187.9825, 105.9379
188.4646, 106.6070
188.9468, 107.7094
189.4289, 109.0993
189.9110, 110.1704
190.3931, 110.4304
190.8752, 110.3966
191.3573, 110.9738
191.8395, 112.4365
192.3216, 113.9162
192.8037, 114.4929
193.2858, 114.5444
193.7679, 114.9570
194.2500, 116.3121
194.7322, 118.3509
195.2143, 120.3396
195.6964, 122.5145
196.1785, 124.1781
196.6606, 124.6315
197.1427, 124.3580
197.6249, 124.4263
198.1070, 125.7328
198.5891, 128.1207
199.0712, 129.9617
199.5533, 130.5271
200.0354, 131.3413
200.5176, 133.1100
200.9997, 135.5778
201.4818, 138.1495
201.9639, 140.4137
202.4460, 142.3749
202.9281, 143.9460
203.4103, 144.5338
203.8924, 145.2419
204.3745, 146.4354
204.8566, 148.0434
205.3387, 149.7870
205.8208, 151.4378
206.3030, 152.9985
206.7851, 154.5016
207.2672, 156.1166
207.7493, 157.5335
208.2314, 158.5592
208.7135, 159.2439
209.1957, 159.7620
209.6778, 160.2473
210.1599, 160.6762
210.6420, 161.2739
211.1241, 162.5138
211.6062, 163.4835
212.0884, 163.7337
212.5705, 163.2556
213.0526, 162.2397
213.5347, 160.7539
214.0168, 158.7192
214.4989, 157.0547
214.9811, 156.0689
215.4632, 155.1750
215.9453, 154.0221
216.4274, 152.5806
216.9095, 150.9842
217.3916, 149.3694
217.8737, 147.7034
218.3559, 145.7724
218.8380, 143.3119
219.3201, 140.7369
219.8022, 138.3419
220.2843, 136.1497
220.7664, 134.1615
221.2486, 132.3849
221.7307, 130.8218
222.2128, 129.5244
222.6949, 128.8224
223.1770, 128.2220
223.6591, 127.1236
224.1413, 125.4558
224.6234, 123.6714
225.1055, 121.9627
225.5876, 120.3808
226.0697, 119.0648
226.5518, 118.0469
227.0340, 117.3220
227.5161, 116.9862
227.9982, 117.1647
228.4803, 117.2934
228.9624, 116.9267
229.4445, 116.3363
229.9267, 115.8849
230.4088, 115.8097
230.8909, 115.8618
231.3730, 115.5566
231.8551, 114.8060
232.3372, 113.9093
232.8194, 112.7596
233.3015, 111.6128
233.7836, 110.7876
234.2657, 110.4485
234.7478, 110.4514
235.2299, 110.5244
235.7121, 110.8120
236.1942, 110.8601
236.6763, 110.4166
237.1584, 109.7563
237.6405, 109.1612
238.1227, 108.7535
238.6048, 108.4627
239.0869, 108.0959
239.5690, 107.5318
240.0511, 107.1122
240.5332, 106.9875
241.0154, 106.9759
241.4975, 106.8688
241.9796, 106.5740
242.4617, 106.2212
242.9438, 106.1745
243.4259, 106.8366
243.9081, 107.1576
244.3902, 107.0420
244.8723, 106.5675
245.3544, 105.6228
245.8365, 104.1857
246.3186, 102.6669
246.8008, 102.0319
247.2829, 103.1805
247.7650, 103.9605
248.2471, 104.0284
248.7292, 103.8377
249.2113, 103.8544
249.6935, 104.2263
250.1756, 104.6950
250.6577, 104.7454
251.1398, 103.9550
251.6219, 103.3298
252.1040, 102.9216
252.5862, 102.6454
253.0683, 102.4311
253.5504, 102.2584
254.0325, 102.1479
254.5146, 102.1436
254.9967, 102.3739
255.4789, 102.4672
255.9610, 102.4535
256.4431, 102.2916
256.9252, 101.8043
257.4073, 100.9843
257.8894, 100.2269
258.3716, 100.1001
258.8537, 100.9780
259.3358, 101.5411
259.8179, 101.7582
260.3000, 101.6846
260.7821, 101.1838
261.2643, 100.2736
261.7464, 99.46707
262.2285, 99.38866
262.7106, 100.2639
263.1927, 100.8153
263.6748, 100.7498
264.1570, 100.5263
264.6391, 100.5651
265.1212, 100.8998
265.6033, 101.2173
266.0854, 101.1556
266.5675, 100.7020
267.0497, 100.6090
267.5318, 101.2081
268.0139, 101.9543
268.4960, 102.4950
268.9781, 102.7963
269.4602, 102.8120
269.9424, 102.3452
270.4245, 101.5162
270.9066, 101.1525
271.3887, 101.7968
271.8708, 102.5163
272.3529, 102.4912
272.8351, 101.7753
273.3172, 101.1138
273.7993, 100.9503
274.2814, 101.1999
274.7635, 101.4643
275.2456, 101.7514
275.7278, 102.0349
276.2099, 102.2821
276.6920, 102.4998
277.1741, 102.7524
277.6562, 103.1050
278.1383, 103.4854
278.6205, 103.7132
279.1026, 103.6584
279.5847, 103.7351
280.0668, 104.5350
280.5489, 105.8630
281.0310, 106.4352
281.5132, 105.3484
281.9953, 103.7482
282.4774, 103.3568
282.9595, 104.3657
283.4416, 105.4162
283.9237, 105.5439
284.4059, 104.9887
284.8880, 104.7944
285.3701, 105.3574
285.8522, 106.1670
286.3343, 106.6480
286.8164, 106.8187
287.2986, 107.0349
287.7807, 107.5280
288.2628, 108.2219
288.7449, 108.8889
289.2270, 109.5589
289.7091, 110.0815
290.1913, 110.1993
290.6734, 110.0394
291.1555, 110.0818
291.6376, 110.6389
292.1197, 111.5450
292.6018, 112.4696
293.0840, 113.4699
293.5661, 114.2992
294.0482, 114.6219
294.5303, 114.6783
295.0124, 114.9161
295.4945, 115.5735
295.9767, 116.4760
296.4588, 117.3545
296.9409, 118.2426
297.4230, 118.9917
297.9051, 119.3128
298.3872, 119.5199
298.8694, 119.9939
299.3515, 120.8721
299.8336, 122.0085
300.3157, 123.3256
300.7978, 124.9014
301.2799, 126.2222
301.7621, 126.7419
302.2442, 127.0981
302.7263, 127.8873
303.2084, 129.2580
303.6905, 130.8212
304.1726, 132.2101
304.6548, 133.4151
305.1369, 134.5757
305.6190, 135.3558
306.1011, 136.4460
306.5832, 138.5391
307.0653, 141.6443
307.5475, 144.8354
308.0296, 147.3622
308.5117, 149.2698
308.9938, 151.1323
309.4759, 152.8508
309.9580, 154.7498
310.4402, 157.0476
310.9223, 159.6836
311.4044, 162.4321
311.8865, 165.4106
312.3686, 168.4334
312.8507, 170.6407
313.3329, 171.5846
313.8150, 172.4439
314.2971, 174.0116
314.7792, 175.9477
315.2613, 177.6301
315.7434, 178.7230
316.2256, 179.4303
316.7077, 180.2135
317.1898, 181.1615
317.6719, 181.9498
318.1540, 181.9298
318.6361, 181.8690
319.1183, 182.7145
319.6004, 184.8987
320.0825, 187.6580
320.5646, 189.7547
321.0467, 190.9444
321.5288, 193.0422
322.0110, 197.3965
322.4931, 202.4630
322.9752, 207.0307
323.4573, 210.8876
323.9394, 214.7045
324.4215, 219.0675
324.9037, 223.9441
325.3858, 229.0787
325.8679, 234.4295
326.3500, 240.0508
326.8321, 246.1045
327.3142, 252.5159
327.7964, 258.7934
328.2785, 264.4414
328.7606, 269.6256
329.2427, 275.2236
329.7248, 281.3982
330.2069, 287.7828
330.6891, 294.3956
331.1712, 301.0318
331.6533, 307.2495
332.1354, 312.6230
332.6175, 317.5692
333.0996, 322.7947
333.5818, 328.1989
334.0639, 334.3065
334.5460, 341.9619
335.0281, 350.2578
335.5102, 358.1268
335.9923, 365.1805
336.4745, 372.1147
336.9566, 379.5842
337.4387, 387.5265
337.9208, 396.5796
338.4029, 407.5999
338.8850, 419.4490
339.3671, 430.8872
339.8492, 441.8314
340.3314, 452.9166
340.8135, 464.4310
341.2956, 476.4948
341.7777, 489.4130
342.2598, 503.8514
342.7419, 518.2830
343.2241, 531.6577
343.7062, 544.0560
344.1883, 555.4318
344.6704, 566.2015
345.1525, 575.8777
345.6346, 583.5814
346.1168, 589.4434
346.5989, 592.7507
347.0810, 592.8423
347.5631, 590.0028
348.0452, 583.9387
348.5273, 574.1329
349.0095, 561.4729
349.4916, 546.5862
349.9737, 529.5142
350.4558, 510.9985
350.9379, 490.8847
351.4200, 469.8302
351.9022, 448.8535
352.3843, 427.8317
352.8664, 407.5860
353.3485, 388.5174
353.8306, 370.7005
354.3127, 354.4897
354.7949, 339.9825
355.2770, 327.0723
355.7591, 315.6945
356.2412, 305.7961
356.7233, 296.3762
357.2054, 286.6451
357.6876, 277.3049
358.1697, 269.5012
358.6518, 263.4264
359.1339, 258.5510
359.6160, 254.7700
360.0981, 251.9323
360.5803, 249.3141
361.0624, 246.6974
361.5445, 244.3827
362.0266, 242.7597
362.5087, 241.7584
362.9908, 240.8241
363.4730, 239.5801
363.9551, 238.2468
364.4372, 237.4663
364.9193, 237.5243
365.4014, 237.6074
365.8835, 237.3946
366.3657, 236.9716
366.8478, 236.4532
367.3299, 235.8415
367.8120, 235.3043
368.2941, 235.2268
368.7762, 235.8284
369.2584, 235.8996
369.7405, 235.2323
370.2226, 233.9869
370.7047, 232.2651
371.1868, 230.0848
371.6689, 227.5352
372.1511, 224.6242
372.6332, 221.3254
373.1153, 218.1242
373.5974, 215.6347
374.0795, 212.6170
374.5616, 208.2212
375.0438, 202.7959
375.5259, 197.1572
376.0080, 191.7494
376.4901, 186.5348
376.9722, 181.4193
377.4543, 176.3065
377.9365, 171.4246
378.4186, 166.7191
378.9007, 162.2851
379.3828, 158.4412
379.8649, 155.2204
380.3470, 152.0528
380.8292, 148.0854
381.3113, 142.8002
381.7934, 138.2318
382.2755, 134.6654
382.7576, 131.4571
383.2397, 128.2584
383.7219, 125.0793
384.2040, 122.1598
384.6861, 119.7088
385.1682, 117.7015
385.6503, 115.8207
386.1324, 114.6120
386.6146, 112.9181
387.0967, 109.8455
387.5788, 106.4190
388.0609, 104.0427
388.5430, 103.3170
389.0251, 103.4584
389.5073, 102.8691
389.9894, 101.1429
390.4715, 99.50671
390.9536, 97.89725
391.4357, 96.48235
391.9178, 95.41013
392.4000, 94.66501
392.8821, 94.07887
393.3642, 93.52248
393.8463, 92.99730
394.3284, 92.39904
394.8105, 91.63496
395.2927, 90.89620
395.7748, 90.26008
396.2569, 89.69102
396.7390, 89.09814
397.2211, 88.40530
397.7032, 87.73129
398.1854, 87.39041
398.6675, 87.50968
399.1496, 87.57480
399.6317, 87.45461
400.1138, 87.21680
400.5959, 86.91685
401.0781, 86.56364
401.5602, 86.08882
402.0423, 85.36455
402.5244, 84.42062
403.0065, 83.52691
403.4886, 82.52702
403.9708, 81.88914
404.4529, 82.17014
404.9350, 83.05894
405.4171, 83.67834
405.8992, 83.52382
406.3813, 82.94839
406.8635, 82.40845
407.3456, 81.87926
407.8277, 81.64576
408.3098, 82.22134
408.7919, 82.99201
409.2740, 82.82061
409.7562, 81.21635
410.2383, 79.79923
410.7204, 79.78338
411.2025, 80.74270
411.6846, 81.41911
412.1667, 81.46618
412.6489, 81.25118
413.1310, 81.20851
413.6131, 81.33218
414.0952, 81.39684
414.5773, 81.46040
415.0594, 81.38380
415.5416, 80.90780
416.0237, 80.08408
416.5058, 79.35938
416.9879, 78.99426
417.4700, 78.98325
417.9521, 79.28355
418.4343, 80.41496
418.9164, 81.18546
419.3985, 81.10417
419.8806, 80.51430
420.3627, 79.80573
420.8448, 79.10827
421.3270, 78.60018
421.8091, 78.56629
422.2912, 79.18351
422.7733, 79.81724
423.2554, 80.68792
423.7375, 81.38421
424.2197, 81.54711
424.7018, 81.28818
425.1839, 80.99314
425.6660, 80.93221
426.1481, 81.08089
426.6302, 81.27543
427.1124, 81.47352
427.5945, 81.78033
428.0766, 82.45424
428.5587, 83.11742
429.0408, 83.32914
429.5229, 82.97980
430.0051, 82.41778
430.4872, 82.05729
430.9693, 81.84159
431.4514, 82.06827
431.9335, 83.66823
432.4156, 84.89116
432.8978, 84.70308
433.3799, 83.53649
433.8620, 82.57464
434.3441, 82.64118
434.8262, 83.34780
435.3083, 83.52807
435.7905, 82.96111
436.2726, 82.47744
436.7547, 82.34245
437.2368, 82.44237
437.7189, 82.77226
438.2010, 83.35009
438.6832, 83.88585
439.1653, 84.10326
439.6474, 84.05193
440.1295, 84.02705
440.6116, 84.14643
441.0938, 84.15213
441.5759, 83.63969
442.0580, 82.80160
442.5401, 82.25253
443.0222, 82.26340
443.5043, 82.57205
443.9865, 83.03043
444.4686, 83.60564
444.9507, 84.04092
445.4328, 84.20850
445.9149, 84.16639
446.3970, 84.01563
446.8792, 83.68346
447.3613, 83.46554
447.8434, 83.50883
448.3255, 83.67937
448.8076, 83.88876
449.2897, 84.10340
449.7719, 84.11890
450.2540, 83.65982
450.7361, 82.68242
451.2182, 82.27058
451.7003, 82.95718
452.1824, 83.53661
452.6646, 83.45475
453.1467, 82.99495
453.6288, 82.61683
454.1109, 82.52099
454.5930, 82.67733
455.0751, 83.06631
455.5573, 83.99031
456.0394, 84.54052
456.5215, 84.59999
457.0036, 84.45157
457.4857, 84.08456
457.9678, 83.63499
458.4500, 83.43890
458.9321, 83.82839
459.4142, 84.66143
459.8963, 85.04697
460.3784, 84.55151
460.8605, 84.38837
461.3427, 85.24416
461.8248, 86.34767
462.3069, 86.84680
462.7890, 86.53123
463.2711, 86.13654
463.7532, 86.56411
464.2354, 87.73697
464.7175, 88.50510
465.1996, 88.60597
465.6817, 88.48909
466.1638, 88.25030
466.6459, 88.03939
467.1281, 88.29131
467.6102, 89.47295
468.0923, 90.88533
468.5744, 91.69116
469.0565, 91.96037
469.5386, 92.32261
470.0208, 92.98507
470.5029, 93.91942
470.9850, 95.09458
471.4671, 96.51443
471.9492, 98.05876
472.4313, 100.2209
472.9135, 102.1960
473.3956, 102.7628
473.8777, 101.9883
474.3598, 101.4095
474.8419, 102.2555
475.3240, 104.3584
475.8062, 106.0369
476.2883, 107.0073
476.7704, 107.9754
477.2525, 109.3310
477.7346, 110.6474
478.2167, 111.3817
478.6989, 111.4048
479.1810, 111.0034
479.6631, 110.4915
480.1452, 109.8138
480.6273, 109.3277
481.1094, 109.1716
481.5916, 109.0693
482.0737, 109.0819
482.5558, 109.0577
483.0379, 108.6849
483.5200, 107.7610
484.0021, 106.6794
484.4843, 106.1749
484.9664, 106.3024
485.4485, 106.7533
485.9306, 107.6768
486.4127, 108.7491
486.8948, 109.8197
487.3770, 110.8655
487.8591, 111.8173
488.3412, 112.2842
488.8233, 112.7344
489.3054, 114.1693
489.7875, 116.6537
490.2697, 119.4923
490.7518, 122.6222
491.2339, 125.7052
491.7160, 128.0409
492.1981, 129.2167
492.6802, 130.8175
493.1624, 133.5745
493.6445, 137.1290
494.1266, 141.0045
494.6087, 145.1285
495.0908, 149.4995
495.5729, 154.2541
496.0551, 159.3658
496.5372, 163.8635
497.0193, 167.2846
497.5014, 170.7197
497.9835, 174.9395
498.4656, 179.2370
498.9478, 182.8162
499.4299, 185.3691
499.9120, 186.7310
500.3941, 186.6406
500.8762, 185.0039
501.3583, 182.2436
501.8405, 177.9626
502.3226, 172.9633
502.8047, 167.3802
503.2868, 161.2905
503.7689, 154.7606
504.2510, 147.6938
504.7331, 140.5650
505.2152, 134.2454
505.6974, 128.8001
506.1795, 123.6448
506.6616, 118.4713
507.1437, 113.8109
507.6258, 110.2067
508.1079, 107.4900
508.5901, 104.8922
509.0722, 101.8604
509.5543, 98.81774
510.0364, 96.39870
510.5185, 94.60477
511.0006, 92.99959
511.4828, 91.29056
511.9649, 89.75045
512.4470, 89.09407
512.9291, 89.65519
513.4113, 89.80298
513.8934, 88.76680
514.3755, 87.33178
514.8576, 86.26389
515.3397, 85.63902
515.8218, 85.24031
516.3040, 84.92850
516.7861, 84.68630
517.2682, 84.39418
517.7503, 83.77158
518.2324, 83.45906
518.7145, 83.92081
519.1967, 84.47294
519.6788, 84.31531
520.1609, 83.41398
520.6430, 82.53466
521.1251, 82.51933
521.6072, 83.33561
522.0894, 83.80517
522.5715, 83.67588
523.0536, 83.59776
523.5357, 83.85800
524.0178, 84.25417
524.4999, 84.50154
524.9821, 84.50509
525.4642, 84.61369
525.9463, 85.41657
526.4284, 86.66371
526.9105, 87.13065
527.3926, 86.44295
527.8748, 85.58050
528.3569, 85.29930
528.8390, 85.46793
529.3211, 85.61861
529.8032, 85.52394
530.2853, 85.61152
530.7675, 86.25171
531.2496, 87.21523
531.7317, 87.98562
532.2138, 88.41106
532.6959, 88.88877
533.1780, 89.94306
533.6602, 91.70831
534.1423, 93.22754
534.6244, 94.20560
535.1065, 95.30828
535.5886, 96.89406
536.0707, 98.73132
536.5529, 100.4161
537.0350, 101.7828
537.5171, 103.0837
537.9992, 104.7234
538.4813, 106.7744
538.9634, 108.7643
539.4456, 110.3844
539.9277, 112.2692
540.4098, 114.9616
540.8919, 118.0722
541.3740, 120.7789
541.8561, 122.6117
542.3383, 124.2293
542.8204, 126.5087
543.3025, 129.3667
543.7846, 131.9584
544.2667, 133.9593
544.7488, 135.8609
545.2310, 138.2240
545.7131, 140.9998
546.1952, 143.8810
546.6773, 146.4360
547.1594, 149.4180
547.6415, 153.6067
548.1237, 158.6104
548.6058, 163.5337
549.0879, 167.9953
549.5700, 172.2078
550.0521, 176.4971
550.5342, 180.8299
551.0164, 185.3029
551.4985, 190.4267
551.9806, 195.1208
552.4627, 198.8872
552.9448, 201.9064
553.4269, 204.6963
553.9091, 207.5305
554.3912, 209.9428
554.8733, 211.1120
555.3554, 210.9736
555.8375, 210.0636
556.3196, 208.5839
556.8018, 206.0938
557.2839, 202.3531
557.7660, 197.4839
558.2481, 191.8219
558.7302, 185.1921
559.2123, 178.1941
559.6945, 171.4184
560.1766, 164.8228
560.6587, 158.2467
561.1408, 151.5973
561.6229, 145.0659
562.1050, 138.7629
562.5872, 132.6897
563.0693, 127.2835
563.5514, 122.6701
564.0335, 118.6265
564.5156, 115.3178
564.9977, 112.4651
565.4799, 109.5760
565.9620, 106.4658
566.4441, 103.3016
566.9262, 100.2464
567.4083, 97.10377
567.8904, 94.87362
568.3726, 94.41438
568.8547, 94.02178
569.3368, 92.97646
569.8189, 91.64695
570.3010, 90.74813
570.7831, 90.60273
571.2653, 90.59583
571.7474, 89.93667
572.2295, 88.71313
572.7116, 87.55598
573.1937, 86.46202
573.6758, 85.72295
574.1580, 85.77908
574.6401, 86.43577
575.1222, 86.92675
575.6043, 86.94016
576.0864, 87.04737
576.5685, 87.72282
577.0507, 88.62009
577.5328, 89.08855
578.0149, 88.98720
578.4970, 88.80115
578.9791, 89.09510
579.4612, 89.90547
579.9434, 90.28170
580.4255, 89.48895
580.9076, 89.12793
581.3897, 89.78683
581.8718, 90.87115
582.3539, 91.86882
582.8361, 92.60997
583.3182, 92.93859
583.8003, 92.58389
584.2824, 91.62760
584.7645, 90.65200
585.2466, 89.60815
585.7288, 88.68847
586.2108, 88.20242
586.6929, 87.79128
587.1750, 86.87016
587.6572, 85.24833
588.1393, 83.77544
588.6214, 82.71887
589.1035, 82.09155
589.5856, 82.20060
590.0677, 82.93914
590.5499, 83.29165
591.0320, 82.50038
591.5141, 80.97301
591.9962, 80.23563
592.4783, 81.15126
592.9604, 81.67129
593.4426, 81.46381
593.9247, 81.11634
594.4068, 80.94306
594.8889, 81.00037
595.3710, 81.30069
595.8531, 81.90593
596.3353, 82.64603
596.8174, 83.12541
597.2995, 83.31401
597.7816, 83.40929
598.2637, 83.54786
598.7458, 83.49147
599.2280, 82.93511
599.7101, 81.98017
600.1922, 81.17629
600.6743, 80.74468
601.1564, 80.48950
601.6385, 80.32266
602.1207, 80.20020
602.6028, 79.98122
603.0849, 79.61485
603.5670, 79.19892
604.0491, 78.86905
604.5313, 78.65575
605.0134, 78.33328
605.4955, 77.71421
605.9776, 77.21447
606.4597, 77.06613
606.9418, 77.06866
607.4240, 76.94292
607.9061, 76.61784
608.3882, 76.27602
608.8703, 76.21978
609.3524, 76.40572
609.8345, 76.14209
610.3167, 75.14566
610.7988, 74.39095
611.2809, 74.58799
611.7630, 75.21410
612.2451, 75.61086
612.7272, 75.73858
613.2094, 75.57806
613.6915, 74.63877
614.1736, 73.67302
614.6557, 73.79565
615.1378, 74.94906
615.6199, 76.18920
616.1021, 76.96214
616.5842, 77.37791
617.0663, 77.73177
617.5484, 77.97636
618.0305, 78.24185
618.5126, 78.38831
618.9948, 78.68081
619.4769, 79.45298
619.9590, 80.48087
620.4411, 81.20517
620.9232, 81.29738
621.4053, 81.16350
621.8875, 81.46185
622.3696, 82.18427
622.8517, 82.87231
623.3338, 83.36275
623.8159, 83.97520
624.2980, 85.15186
624.7802, 86.68216
625.2623, 87.85500
625.7444, 88.24615
626.2265, 88.70776
626.7086, 89.67467
627.1907, 90.93569
627.6729, 92.24443
628.1550, 93.53468
628.6371, 94.77621
629.1192, 95.96481
629.6013, 97.07688
630.0834, 97.86156
630.5656, 98.07259
631.0477, 98.36445
631.5298, 99.01855
632.0119, 99.63100
632.4940, 99.99135
632.9761, 100.0410
633.4583, 99.71202
633.9404, 98.97837
634.4225, 97.83094
634.9046, 96.08100
635.3867, 93.77825
635.8688, 91.70876
636.3510, 90.21033
636.8331, 88.79044
637.3152, 86.74979
637.7973, 83.98022
638.2794, 81.74633
638.7615, 80.44267
639.2437, 79.24442
639.7258, 77.62254
640.2079, 75.96410
640.6900, 74.97060
641.1721, 74.74385
641.6542, 74.58998
642.1364, 73.68882
642.6185, 72.12444
643.1006, 71.07680
643.5827, 70.82928
644.0648, 70.47578
644.5469, 69.42759
645.0291, 68.30375
645.5112, 67.76627
645.9933, 67.85323
646.4754, 67.77480
646.9575, 67.03472
647.4396, 66.06046
647.9218, 65.15049
648.4039, 64.38957
648.8860, 64.14522
649.3681, 64.61749
649.8502, 65.23629
650.3323, 65.07204
650.8145, 63.83263
651.2966, 63.15605
651.7787, 63.48819
652.2608, 63.84422
652.7429, 64.03600
653.2250, 64.03468
653.7072, 63.77657
654.1893, 63.25923
654.6714, 62.68526
655.1535, 62.20248
655.6356, 61.81578
656.1177, 61.54658
656.5999, 61.40132
657.0820, 61.33812
657.5641, 61.36690
658.0462, 61.44005
658.5283, 61.46749
659.0104, 61.44197
659.4926, 61.42045
659.9747, 61.55546
660.4568, 61.56061
660.9389, 61.13985
661.4210, 60.46923
661.9031, 59.84784
662.3853, 59.40204
662.8674, 59.23515
663.3495, 59.62074
663.8316, 60.62017
664.3137, 61.19945
664.7958, 61.27002
665.2780, 61.07735
665.7601, 60.49726
666.2422, 59.82367
666.7243, 59.43443
667.2064, 59.40348
667.6885, 59.35025
668.1707, 58.96962
668.6528, 58.55934
669.1349, 58.49695
669.6170, 58.73717
670.0991, 59.01140
670.5812, 59.19785
671.0634, 59.32719
671.5455, 59.46180
672.0276, 59.63717
672.5097, 59.67968
672.9918, 59.42379
673.4739, 59.21543
673.9561, 59.28205
674.4382, 59.40153
674.9203, 59.24145
675.4024, 58.72103
675.8845, 58.17304
676.3666, 57.89071
676.8488, 57.76784
677.3309, 57.48861
677.8130, 57.04886
678.2951, 56.95612
678.7772, 57.57692
679.2593, 58.43568
679.7415, 58.60462
680.2236, 57.66272
680.7057, 57.34593
681.1878, 58.36164
681.6699, 59.22869
682.1520, 59.13383
682.6342, 58.51226
683.1163, 58.03915
683.5984, 57.92221
684.0805, 57.95719
684.5626, 57.90435
685.0447, 57.80526
685.5269, 58.01211
686.0090, 58.66633
686.4911, 58.81991
686.9732, 57.71978
687.4553, 56.20593
687.9374, 55.69378
688.4196, 56.25657
688.9017, 56.83738
689.3838, 57.51634
689.8659, 57.93285
690.3480, 57.61936
690.8301, 56.96670
691.3123, 56.65699
691.7944, 56.90055
692.2765, 57.38469
692.7586, 57.83891
693.2407, 58.23929
693.7228, 58.17112
694.2050, 57.40103
694.6871, 56.79183
695.1692, 56.74059
695.6513, 56.92380
696.1334, 57.00957
696.6155, 56.99255
697.0977, 56.95823
697.5798, 56.94380
698.0619, 56.90960
698.5440, 56.80795
699.0261, 56.66840
699.5082, 56.53473
699.9904, 56.42502
700.4725, 56.38477
700.9546, 56.48939
701.4367, 56.71993
701.9188, 56.78946
702.4009, 56.70102
702.8831, 56.44282
703.3652, 55.68504
703.8473, 55.00178
704.3294, 54.92229
704.8115, 55.37201
705.2936, 55.75340
705.7758, 55.75883
706.2579, 55.67558
706.7400, 55.80880
707.2221, 56.02239
707.7042, 55.84938
708.1863, 55.22486
708.6685, 54.94550
709.1506, 55.86646
709.6327, 57.73014
710.1148, 58.52898
710.5969, 57.53404
711.0790, 56.79863
711.5612, 56.96387
712.0433, 57.12244
712.5254, 56.46980
713.0075, 55.30444
713.4896, 54.63581
713.9717, 54.97397
714.4539, 55.70345
714.9360, 56.56462
715.4181, 57.35115
715.9002, 57.44815
716.3823, 56.79780
716.8644, 56.12495
717.3466, 55.96012
717.8287, 56.17527
718.3108, 56.30344
718.7929, 56.35535
719.2750, 56.29409
719.7571, 55.78402
720.2393, 55.50106
720.7214, 56.00765
721.2035, 56.93671
721.6856, 57.58995
722.1677, 57.72937
722.6498, 57.60686
723.1320, 57.24630
723.6141, 56.83065
724.0962, 56.82755
724.5783, 57.23465
725.0604, 57.53262
725.5425, 57.42571
726.0247, 57.09239
726.5068, 56.90035
726.9889, 56.92220
727.4710, 56.86420
727.9531, 56.51910
728.4352, 56.33255
728.9174, 56.68977
729.3995, 57.17876
729.8816, 57.16310
730.3637, 56.52883
730.8458, 56.01524
731.3279, 56.40398
731.8101, 57.10509
732.2922, 56.96228
732.7743, 56.13235
733.2564, 55.83170
733.7385, 56.56220
734.2206, 57.56726
734.7028, 57.88047
735.1849, 57.45380
735.6670, 57.05793
736.1491, 56.58941
736.6312, 56.29319
737.1133, 56.33202
737.5955, 56.46503
738.0776, 56.45298
738.5597, 56.31456
739.0418, 56.27141
739.5239, 56.46755
740.0060, 56.77637
740.4882, 57.22890
740.9703, 57.67495
741.4524, 57.47449
741.9345, 56.50100
742.4166, 55.67566
742.8987, 55.83894
743.3809, 56.72892
743.8630, 56.99965
744.3451, 56.00287
744.8272, 55.57178
745.3093, 56.37268
745.7914, 57.17313
746.2736, 57.30027
746.7557, 56.93819
747.2378, 56.49083
747.7199, 56.02978
748.2020, 55.74404
748.6841, 55.91539
749.1663, 56.29718
749.6484, 56.42768
750.1305, 56.31353
750.6126, 56.29794
751.0947, 56.57227
751.5768, 56.93781
752.0590, 57.02855
752.5411, 56.78278
753.0232, 56.54902
753.5053, 56.25402
753.9874, 56.07461
754.4695, 56.22668
754.9517, 56.41604
755.4338, 56.23952
755.9159, 55.67678
756.3980, 55.28913
756.8801, 55.61729
757.3622, 56.00234
757.8444, 55.52267
758.3265, 54.63422
758.8086, 54.62245
759.2907, 55.75512
759.7728, 56.92545
760.2549, 57.03199
760.7371, 56.25154
761.2192, 55.64036
761.7013, 55.14106
762.1834, 54.97314
762.6655, 55.45106
763.1476, 55.99010
763.6298, 56.22136
764.1119, 56.20391
764.5940, 56.08544
765.0761, 55.75420
765.5582, 55.61635
766.0403, 56.10931
766.5225, 56.73853
767.0046, 56.91009
767.4867, 56.67315
767.9688, 56.42633
768.4509, 56.37178
768.9330, 56.41017
769.4152, 56.36453
769.8973, 56.22777
770.3794, 56.19512
770.8615, 56.31078
771.3436, 56.42524
771.8257, 56.53541
772.3079, 56.56114
772.7900, 56.30830
773.2721, 55.73629
773.7542, 55.42591
774.2363, 55.53350
774.7184, 55.85015
775.2006, 56.65273
775.6827, 57.40928
776.1648, 57.26075
776.6469, 56.20269
777.1290, 55.10625
777.6111, 54.61222
778.0933, 54.58769
778.5754, 54.85500
779.0575, 55.39782
779.5396, 55.73016
780.0217, 55.73357
780.5038, 55.59198
780.9860, 55.36181
781.4681, 55.11971
781.9502, 55.21133
782.4323, 55.95061
782.9144, 56.49691
783.3965, 56.83396
783.8787, 56.94912
784.3608, 56.59646
784.8429, 56.09060
785.3250, 56.03025
785.8071, 56.60669
786.2892, 57.22008
786.7714, 57.48536
787.2535, 57.38858
787.7356, 56.66501
788.2177, 55.44791
788.6998, 54.66108
789.1819, 54.65907
789.6641, 55.02679
790.1462, 55.25475
790.6283, 55.34473
791.1104, 55.73676
791.5925, 56.87662
792.0746, 57.55647
792.5568, 57.33858
793.0389, 56.80992
793.5210, 56.11803
794.0031, 55.44280
794.4852, 55.32350
794.9673, 56.21056
795.4495, 57.10617
795.9316, 57.40962
796.4137, 57.34610
796.8958, 57.10073
797.3779, 56.76228
797.8600, 56.49928
798.3422, 56.39765
798.8243, 56.43539
799.3064, 56.60000
799.7885, 56.89618
800.2706, 57.20799
800.7527, 57.57417
801.2349, 57.82804
801.7170, 57.86925
802.1991, 57.79558
802.6812, 57.65992
803.1633, 57.45363
803.6454, 57.54389
804.1276, 58.22972
804.6097, 58.89356
805.0918, 59.41676
805.5739, 59.73107
806.0560, 59.58446
806.5381, 59.13498
807.0203, 59.03360
807.5024, 59.78132
807.9845, 60.67176
808.4666, 60.56519
808.9487, 59.74402
809.4308, 59.33696
809.9130, 59.48059
810.3951, 59.74683
810.8772, 59.90796
811.3593, 60.00170
811.8414, 60.10625
812.3235, 60.23174
812.8057, 60.32983
813.2878, 60.34251
813.7699, 60.40091
814.2520, 60.62801
814.7341, 60.85894
815.2162, 60.84989
815.6984, 60.62391
816.1805, 60.57695
816.6626, 61.16191
817.1447, 61.68121
817.6268, 61.43644
818.1089, 60.86701
818.5911, 60.69617
819.0732, 60.98012
819.5553, 61.30644
820.0374, 61.40409
820.5195, 61.39794
821.0016, 61.61166
821.4838, 62.05960
821.9659, 62.12061
822.4480, 61.57360
822.9301, 61.24528
823.4122, 61.67814
823.8943, 62.46596
824.3765, 62.88512
824.8586, 62.84722
825.3407, 62.90773
825.8228, 63.17369
826.3049, 63.43111
826.7870, 63.65771
827.2692, 63.80703
827.7513, 63.71392
828.2334, 63.46487
828.7155, 63.48828
829.1976, 64.14631
829.6797, 64.92657
830.1619, 65.11747
830.6440, 65.01553
831.1261, 65.45030
831.6082, 66.44791
832.0903, 67.22239
832.5724, 67.29946
833.0546, 67.03056
833.5367, 67.10737
834.0188, 67.58452
834.5009, 68.00874
834.9830, 68.28025
835.4651, 68.70789
835.9473, 69.58434
836.4294, 70.52610
836.9115, 71.12214
837.3936, 71.38020
837.8757, 71.53735
838.3578, 71.27292
838.8400, 71.36342
839.3221, 72.34814
839.8042, 73.64629
840.2863, 74.72057
840.7684, 75.55615
841.2505, 76.34850
841.7327, 77.18576
842.2148, 78.09143
842.6969, 79.08897
843.1790, 80.17802
843.6611, 81.42136
844.1432, 82.80447
844.6254, 84.12388
845.1075, 85.30961
845.5896, 86.28286
846.0717, 86.83542
846.5538, 86.95684
847.0359, 87.97737
847.5181, 90.37173
848.0002, 92.72697
848.4823, 94.89289
848.9644, 96.82097
849.4465, 98.37044
849.9286, 99.66492
850.4108, 101.0785
850.8929, 102.6948
851.3750, 104.3762
851.8571, 106.0039
852.3392, 107.7488
852.8214, 109.9319
853.3035, 112.2988
853.7856, 114.1840
854.2677, 115.4406
854.7498, 116.9290
855.2319, 119.7591
855.7141, 123.2512
856.1962, 125.8757
856.6783, 127.7072
857.1604, 129.3233
857.6425, 130.8365
858.1246, 132.3717
858.6068, 134.0398
859.0889, 135.7851
859.5710, 137.4767
860.0531, 139.4125
860.5352, 140.4872
861.0173, 140.2093
861.4995, 139.6545
861.9816, 139.2908
862.4637, 138.9392
862.9458, 138.3830
863.4279, 137.6088
863.9100, 136.6201
864.3922, 135.4321
864.8743, 134.0037
865.3564, 132.0751
865.8385, 130.0460
866.3206, 128.5154
866.8027, 127.4021
867.2849, 126.0255
867.7670, 123.9328
868.2491, 121.7017
868.7312, 120.1500
869.2133, 119.0653
869.6954, 117.7165
870.1776, 116.0983
870.6597, 114.9576
871.1418, 114.6616
871.6239, 114.7379
872.1060, 114.5361
872.5881, 114.0591
873.0703, 113.6113
873.5524, 113.0582
874.0345, 112.8966
874.5166, 113.4769
874.9987, 114.2073
875.4808, 114.6160
875.9630, 114.7974
876.4451, 114.9851
876.9272, 114.9595
877.4093, 115.4454
877.8914, 117.0453
878.3735, 118.7261
878.8557, 119.6504
879.3378, 120.3322
879.8199, 121.6647
880.3020, 123.8120
880.7841, 126.1505
881.2662, 128.4355
881.7484, 130.5337
882.2305, 131.9945
882.7126, 133.2031
883.1947, 135.1888
883.6768, 138.0284
884.1589, 140.8890
884.6411, 143.1905
885.1232, 145.4297
885.6053, 148.7552
886.0874, 153.2103
886.5695, 156.9777
887.0516, 159.8308
887.5338, 162.6237
888.0159, 165.4218
888.4980, 168.6882
888.9801, 173.0668
889.4622, 178.5642
889.9443, 184.0956
890.4265, 189.9118
890.9086, 195.3948
891.3907, 199.6267
891.8728, 204.3559
892.3549, 210.9606
892.8370, 218.7733
893.3192, 226.4047
893.8013, 233.5479
894.2834, 240.8097
894.7655, 248.2334
895.2476, 256.1460
895.7297, 264.9007
896.2119, 274.3069
896.6940, 283.8243
897.1761, 293.5328
897.6582, 304.2891
898.1403, 316.8448
898.6224, 330.4703
899.1046, 344.1539
899.5867, 357.9951
900.0688, 372.5497
900.5509, 387.9316
901.0330, 404.0729
901.5151, 420.9185
901.9973, 439.0274
902.4794, 459.3463
902.9615, 481.8775
903.4436, 503.6977
903.9257, 523.8444
904.4078, 546.1117
904.8900, 572.1376
905.3721, 599.4515
905.8542, 625.8409
906.3363, 652.0374
906.8184, 679.8046
907.3005, 709.5153
907.7827, 739.6741
908.2648, 769.2714
908.7469, 800.2068
909.2290, 834.5979
909.7111, 870.1360
910.1932, 904.3703
910.6754, 936.8446
911.1575, 968.6591
911.6396, 1000.882
912.1217, 1031.845
912.6038, 1061.366
913.0859, 1088.112
913.5681, 1111.471
914.0502, 1130.367
914.5323, 1142.156
915.0144, 1145.701
915.4965, 1142.920
915.9786, 1137.069
916.4607, 1120.745
916.9428, 1104.722
917.4249, 1072.081
917.9070, 1035.609
918.3892, 996.9393
918.8713, 955.2402
919.3534, 909.8120
919.8355, 861.3390
920.3176, 812.1258
920.7997, 760.6223
921.2819, 712.8510
921.7640, 670.0442
922.2461, 628.7178
922.7282, 586.9207
923.2103, 546.6125
923.6924, 510.6075
924.1746, 478.7101
924.6567, 448.9997
925.1388, 421.5258
925.6209, 396.0574
926.1030, 372.6035
926.5851, 351.1801
927.0673, 332.2928
927.5494, 315.3977
928.0315, 299.6116
928.5136, 284.8491
928.9957, 270.8280
929.4778, 256.9047
929.9600, 244.2078
930.4421, 234.0807
930.9242, 225.4364
931.4063, 216.5802
931.8884, 207.3123
932.3705, 198.3531
932.8527, 190.0323
933.3348, 182.3498
933.8169, 175.2221
934.2990, 168.7191
934.7811, 163.4849
935.2632, 159.3039
935.7454, 154.4092
936.2275, 148.2155
936.7096, 142.1218
937.1917, 137.5223
937.6738, 134.1010
938.1559, 130.6436
938.6381, 127.1582
939.1202, 123.6395
939.6023, 119.9243
940.0844, 116.8299
940.5665, 115.0881
941.0486, 113.7665
941.5308, 111.2950
942.0129, 107.4919
942.4950, 104.4521
942.9771, 102.5738
943.4592, 100.8462
943.9413, 99.27097
944.4235, 97.66049
944.9056, 95.72701
945.3877, 93.70274
945.8698, 92.15410
946.3519, 91.28688
946.8340, 90.30019
947.3162, 88.80418
947.7983, 87.35464
948.2804, 86.26345
948.7625, 85.36933
949.2446, 84.51765
949.7267, 83.66241
950.2089, 82.74839
950.6910, 81.71706
951.1731, 80.73108
951.6552, 79.97752
952.1373, 79.29736
952.6194, 78.39771
953.1016, 77.42178
953.5837, 76.81479
954.0658, 76.64916
954.5479, 76.43364
955.0300, 75.71545
955.5121, 74.79996
955.9943, 74.30406
956.4764, 74.10497
956.9585, 73.67373
957.4406, 72.97266
957.9227, 72.33029
958.4048, 71.89009
958.8870, 71.65830
959.3691, 71.69878
959.8512, 71.95190
960.3333, 71.89567
960.8154, 71.47656
961.2975, 71.15511
961.7797, 71.03974
962.2618, 70.95326
962.7439, 70.81419
963.2260, 70.59020
963.7081, 70.19297
964.1902, 69.56953
964.6724, 69.04439
965.1545, 68.55869
965.6366, 68.27822
966.1187, 68.51273
966.6008, 68.70729
967.0829, 68.33244
967.5651, 67.58221
968.0472, 67.02944
968.5293, 66.64685
969.0114, 66.61593
969.4935, 67.41369
969.9756, 68.03495
970.4578, 68.00575
970.9399, 67.59396
971.4220, 66.94807
971.9041, 66.19479
972.3862, 65.71492
972.8683, 65.72442
973.3505, 65.83495
973.8326, 65.96248
974.3147, 66.00053
974.7968, 65.78782
975.2789, 65.44049
975.7610, 65.15374
976.2432, 64.97531
976.7253, 64.85639
977.2074, 64.77100
977.6895, 64.72391
978.1716, 64.76724
978.6537, 64.82902
979.1359, 64.78700
979.6180, 64.64300
980.1001, 64.42117
980.5822, 64.14088
981.0643, 63.92457
981.5464, 63.91885
982.0286, 64.04031
982.5107, 64.16242
982.9928, 64.24775
983.4749, 64.07647
983.9570, 63.63175
984.4391, 63.11787
984.9213, 62.63338
985.4034, 62.23200
985.8855, 62.00448
986.3676, 61.93328
986.8497, 61.86000
987.3318, 61.77438
987.8140, 61.84985
988.2961, 62.17680
988.7782, 62.39447
989.2603, 62.24702
989.7424, 61.86828
990.2245, 61.49163
990.7067, 61.07232
991.1888, 61.06689
991.6709, 61.71410
992.1530, 62.18788
992.6351, 62.23428
993.1172, 62.15161
993.5994, 62.19933
994.0815, 62.28560
994.5636, 62.09215
995.0457, 61.38561
995.5278, 61.05907
996.0099, 61.43879
996.4921, 61.76710
996.9742, 61.71787
997.4563, 61.65557
997.9384, 62.02113
998.4205, 62.64216
998.9026, 62.84115
999.3848, 62.24269
999.8669, 61.98143
1000.349, 62.80030
1000.831, 63.39142
1001.313, 62.98552
1001.795, 62.12548
1002.277, 61.19086
1002.760, 60.37608
1003.242, 60.14557
1003.724, 60.81689
1004.206, 61.66469
1004.688, 62.64119
1005.170, 63.38494
1005.652, 63.42904
1006.134, 63.15645
1006.617, 63.12148
1007.099, 63.40475
1007.581, 63.80402
1008.063, 64.26980
1008.545, 64.69622
1009.027, 64.96879
1009.509, 65.17891
1009.991, 65.43047
1010.473, 65.71234
1010.956, 65.98409
1011.438, 66.23375
1011.920, 66.45942
1012.402, 66.66517
1012.884, 66.83568
1013.366, 66.77512
1013.848, 66.74996
1014.330, 67.54037
1014.813, 68.85349
1015.295, 69.36385
1015.777, 68.76040
1016.259, 68.35545
1016.741, 69.40832
1017.223, 71.05471
1017.705, 71.53608
1018.187, 71.25742
1018.669, 71.73222
1019.152, 72.97311
1019.634, 74.02522
1020.116, 74.53526
1020.598, 74.78067
1021.080, 74.93613
1021.562, 75.21551
1022.044, 76.43587
1022.526, 78.47083
1023.008, 79.91626
1023.491, 80.63616
1023.973, 81.22480
1024.455, 81.90343
1024.937, 82.82031
1025.419, 84.22712
1025.901, 85.03501
1026.383, 86.09258
1026.865, 87.32887
1027.348, 88.14999
1027.830, 89.67162
1028.312, 91.06347
1028.794, 91.84947
1029.276, 92.71204
1029.758, 94.60273
1030.240, 97.33103
1030.722, 99.26822
1031.204, 100.2247
1031.687, 101.2246
1032.169, 102.4223
1032.651, 103.4557
1033.133, 104.0003
1033.615, 104.5763
1034.097, 105.9485
1034.579, 108.0401
1035.061, 109.6037
1035.544, 110.3650
1036.026, 111.3199
1036.508, 112.7268
1036.990, 114.0031
1037.472, 114.8907
1037.954, 115.4875
1038.436, 115.9109
1038.918, 116.1603
1039.401, 116.2205
1039.883, 115.8797
1040.365, 115.7531
1040.847, 116.1718
1041.329, 116.4229
1041.811, 116.4122
1042.293, 115.9158
1042.775, 114.4625
1043.257, 112.0857
1043.740, 109.9843
1044.222, 108.3713
1044.704, 106.7050
1045.186, 104.9093
1045.668, 103.1020
1046.150, 101.2940
1046.632, 99.52573
1047.114, 97.98329
1047.596, 96.61974
1048.079, 94.79790
1048.561, 91.91801
1049.043, 89.41019
1049.525, 87.65910
1050.007, 86.07063
1050.489, 84.42406
1050.971, 82.73241
1051.453, 81.04148
1051.936, 79.33983
1052.418, 77.53807
1052.900, 75.34053
1053.382, 73.51858
1053.864, 72.60213
1054.346, 71.63860
1054.828, 69.90977
1055.310, 68.00406
1055.792, 66.65970
1056.275, 65.85986
1056.757, 65.13562
1057.239, 64.43499
1057.721, 63.69488
1058.203, 62.73240
1058.685, 61.91441
1059.167, 61.69068
1059.649, 61.55731
1060.131, 60.83548
1060.614, 59.61445
1061.096, 58.56687
1061.578, 57.91410
1062.060, 57.33780
1062.542, 56.57296
1063.024, 56.03907
1063.506, 56.10728
1063.988, 56.44337
1064.471, 56.83208
1064.953, 57.12660
1065.435, 56.95144
1065.917, 56.05718
1066.399, 55.22461
1066.881, 54.92495
1067.363, 54.58583
1067.845, 53.68200
1068.328, 52.70486
1068.810, 52.23909
1069.292, 52.20735
1069.774, 52.13534
1070.256, 51.83766
1070.738, 51.82200
1071.220, 52.84512
1071.702, 53.57927
1072.184, 52.86444
1072.667, 51.77170
1073.149, 51.43597
1073.631, 51.72004
1074.113, 52.02214
1074.595, 52.20880
1075.077, 52.10321
1075.559, 51.27947
1076.041, 50.55986
1076.523, 50.56700
1077.006, 50.76179
1077.488, 50.57542
1077.970, 50.14826
1078.452, 49.92359
1078.934, 50.00550
1079.416, 50.03733
1079.898, 49.81496
1080.380, 49.56089
1080.862, 49.37476
1081.345, 49.22197
1081.827, 49.08715
1082.309, 48.95498
1082.791, 48.71700
1083.273, 48.38808
1083.755, 48.40978
1084.237, 49.41381
1084.719, 50.17976
1085.202, 49.90450
1085.684, 49.37630
1086.166, 49.12487
1086.648, 49.10992
1087.130, 49.32171
1087.612, 49.67392
1088.094, 49.67747
1088.576, 48.90178
1089.058, 48.24764
1089.541, 48.26702
1090.023, 48.37001
1090.505, 47.98885
1090.987, 47.53359
1091.469, 47.71231
1091.951, 48.40989
1092.433, 48.72289
1092.915, 48.17206
1093.397, 47.81366
1093.880, 48.26302
1094.362, 48.79038
1094.844, 49.08462
1095.326, 49.14036
1095.808, 48.82153
1096.290, 48.29424
1096.772, 48.04626
1097.254, 48.25283
1097.737, 48.44595
1098.219, 48.56258
1098.701, 48.51262
1099.183, 48.07645
1099.665, 47.61245
1100.147, 47.48294
1100.629, 47.56680
1101.111, 47.54842
1101.594, 47.36891
1102.076, 47.18137
1102.558, 47.03315
1103.040, 46.87300
1103.522, 46.48215
1104.004, 46.27697
1104.486, 46.75365
1104.968, 47.51432
1105.450, 47.93422
1105.932, 47.95101
1106.415, 47.78563
1106.897, 47.36030
1107.379, 46.93168
1107.861, 46.31092
1108.343, 45.96975
1108.825, 46.50753
1109.307, 47.21959
1109.789, 47.05011
1110.272, 46.15349
1110.754, 45.94784
1111.236, 47.25593
1111.718, 47.90013
1112.200, 47.00740
1112.682, 46.29505
1113.164, 46.60631
1113.646, 47.13476
1114.129, 47.07377
1114.611, 46.62727
1115.093, 46.52851
1115.575, 46.93505
1116.057, 47.23146
1116.539, 47.54024
1117.021, 47.54765
1117.503, 46.97466
1117.985, 46.34090
1118.468, 45.97710
1118.950, 45.77831
1119.432, 45.47559
1119.914, 45.01139
1120.396, 45.19707
1120.878, 46.61961
1121.360, 47.39735
1121.842, 46.99685
1122.324, 46.50563
1122.807, 46.45443
1123.289, 46.57817
1123.771, 46.56855
1124.253, 46.42448
1124.735, 46.08455
1125.217, 45.35025
1125.699, 45.16134
1126.181, 45.74272
1126.664, 46.30843
1127.146, 46.59661
1127.628, 46.77007
1128.110, 47.00120
1128.592, 47.19551
1129.074, 47.01387
1129.556, 46.39467
1130.038, 46.10198
1130.521, 46.18921
1131.003, 46.22053
1131.485, 46.08791
1131.967, 45.95038
1132.449, 45.91203
1132.931, 45.91480
1133.413, 45.84881
1133.895, 45.73782
1134.377, 45.79370
1134.859, 46.00638
1135.342, 45.96115
1135.824, 45.61261
1136.306, 45.66697
1136.788, 46.44588
1137.270, 47.24852
1137.752, 47.30153
1138.234, 46.90668
1138.716, 46.76381
1139.199, 46.83111
1139.681, 46.94735
1140.163, 47.09652
1140.645, 47.25282
1141.127, 47.41417
1141.609, 47.68626
1142.091, 48.18208
1142.573, 48.53667
1143.056, 48.05367
1143.538, 47.16706
1144.020, 46.69185
1144.502, 46.57151
1144.984, 46.71951
1145.466, 47.01941
1145.948, 47.07086
1146.430, 46.71435
1146.912, 46.49176
1147.395, 47.06245
1147.877, 47.80081
1148.359, 48.06323
1148.841, 48.00222
1149.323, 47.65928
1149.805, 47.23554
1150.287, 47.12219
1150.769, 47.38049
1151.251, 47.75344
1151.734, 48.20677
1152.216, 48.48309
1152.698, 48.34278
1153.180, 48.02553
1153.662, 47.46020
1154.144, 47.02219
1154.626, 47.30463
1155.108, 48.14233
1155.591, 48.86993
1156.073, 49.32510
1156.555, 49.56798
1157.037, 49.58912
1157.519, 49.44354
1158.001, 48.81651
1158.483, 48.36336
1158.965, 48.80220
1159.448, 49.65273
1159.930, 50.05405
1160.412, 49.94169
1160.894, 49.86431
1161.376, 50.04203
1161.858, 50.00241
1162.340, 49.35990
1162.822, 48.94201
1163.304, 49.28124
1163.786, 49.74459
1164.269, 49.68887
1164.751, 49.29087
1165.233, 49.18241
1165.715, 49.47980
1166.197, 49.53284
1166.679, 49.21096
1167.161, 49.00118
1167.643, 48.97311
1168.126, 49.17530
1168.608, 49.72254
1169.090, 50.31733
1169.572, 50.48962
1170.054, 50.30961
1170.536, 50.32510
1171.018, 50.54951
1171.500, 50.61610
1171.983, 50.48387
1172.465, 50.54686
1172.947, 50.95488
1173.429, 51.27462
1173.911, 51.12306
1174.393, 50.74867
1174.875, 50.62247
1175.357, 50.67536
1175.839, 50.60718
1176.322, 50.46760
1176.804, 50.55181
1177.286, 50.84804
1177.768, 50.93866
1178.250, 50.64336
1178.732, 50.39096
1179.214, 50.66207
1179.696, 51.10203
1180.178, 51.29322
1180.661, 51.29948
1181.143, 51.12494
1181.625, 50.88063
1182.107, 50.78398
1182.589, 50.86483
1183.071, 51.01704
1183.553, 51.22657
1184.035, 51.35015
1184.518, 51.21834
1185.000, 51.05870
1185.482, 51.10799
1185.964, 51.15078
1186.446, 50.94226
1186.928, 50.53836
1187.410, 50.00783
1187.892, 49.35350
1188.375, 49.15356
1188.857, 50.05087
1189.339, 50.65395
1189.821, 50.40273
1190.303, 50.11965
1190.785, 50.10027
1191.267, 50.33791
1191.749, 51.12019
1192.231, 52.12026
1192.714, 51.94375
1193.196, 49.98917
1193.678, 49.27959
1194.160, 50.45113
1194.642, 51.08577
1195.124, 50.52950
1195.606, 49.88501
1196.088, 49.74855
1196.570, 49.97392
1197.053, 50.45290
1197.535, 51.04002
1198.017, 50.83083
1198.499, 50.97655
1198.981, 51.00347
1199.463, 50.46566
1199.945, 50.72727
1200.427, 50.13689
1200.910, 49.69494
1201.392, 50.12277
1201.874, 50.75981
1202.356, 50.65403
1202.838, 50.07943
1203.320, 49.39252
1203.802, 48.79827
1204.284, 48.87357
1204.766, 49.48105
1205.249, 50.02948
1205.731, 50.32438
1206.213, 50.48928
1206.695, 50.62888
1207.177, 50.59951
1207.659, 50.16168
1208.141, 49.63940
1208.623, 49.15207
1209.105, 48.87323
1209.588, 49.19631
1210.070, 49.87480
1210.552, 50.06153
1211.034, 49.48785
1211.516, 49.35991
1211.998, 50.66605
1212.480, 51.41143
1212.962, 50.66467
1213.445, 49.76947
1213.927, 49.24551
1214.409, 49.09151
1214.891, 49.45195
1215.373, 50.17186
1215.855, 50.56292
1216.337, 50.59894
1216.819, 50.35881
1217.302, 49.69891
1217.784, 49.37289
1218.266, 49.61972
1218.748, 49.79499
1219.230, 49.52259
1219.712, 49.10183
1220.194, 48.91125
1220.676, 48.89197
1221.158, 48.86858
1221.641, 48.84129
1222.123, 48.75643
1222.605, 48.65827
1223.087, 48.82082
1223.569, 49.26975
1224.051, 49.74000
1224.533, 50.09363
1225.015, 50.23098
1225.497, 49.82611
1225.980, 49.37485
1226.462, 49.66556
1226.944, 49.20665
1227.426, 49.75612
1227.908, 48.98226
1228.390, 48.68336
1228.872, 48.94222
1229.354, 49.07903
1229.837, 48.67305
1230.319, 48.67843
1230.801, 50.13149
1231.283, 51.13167
1231.765, 50.12441
1232.247, 49.08735
1232.729, 50.13175
1233.211, 51.93278
1233.693, 51.87654
1234.176, 50.04930
1234.658, 49.02210
1235.140, 49.03892
1235.622, 49.12227
1236.104, 49.24598
1236.586, 49.38018
1237.068, 49.50196
1237.550, 49.72936
1238.032, 50.18616
1238.515, 50.62148
1238.997, 50.58765
1239.479, 50.19051
1239.961, 49.74567
1240.443, 49.32723
1240.925, 49.34958
1241.407, 49.75503
1241.889, 50.11794
1242.372, 50.31899
1242.854, 50.52066
1243.336, 50.84895
1243.818, 51.05158
1244.300, 50.76822
1244.782, 50.37762
1245.264, 50.24158
1245.746, 50.22113
1246.229, 50.18081
1246.711, 50.09576
1247.193, 49.87066
1247.675, 49.53858
1248.157, 49.54744
1248.639, 50.25004
1249.121, 50.80658
1249.603, 50.99046
1250.085, 51.12013
1250.568, 51.37194
1251.050, 51.49181
1251.532, 51.16896
1252.014, 50.75808
1252.496, 50.88632
1252.978, 51.49556
1253.460, 51.98797
1253.942, 52.38776
1254.424, 52.28437
1254.907, 51.62519
1255.389, 51.45758
1255.871, 52.05912
1256.353, 52.55323
1256.835, 52.37425
1257.317, 51.86670
1257.799, 51.23063
1258.281, 50.80074
1258.764, 51.58796
1259.246, 52.77759
1259.728, 52.73105
1260.210, 51.88256
1260.692, 51.55460
1261.174, 51.88895
1261.656, 52.05122
1262.138, 51.64621
1262.620, 51.41512
1263.103, 52.00496
1263.585, 52.43315
1264.067, 51.86618
1264.549, 51.40613
1265.031, 52.02776
1265.513, 53.10249
1265.995, 53.88581
1266.477, 54.31167
1266.959, 53.98905
1267.442, 52.56966
1267.924, 51.87929
1268.406, 52.08050
1268.888, 52.29177
1269.370, 52.37596
1269.852, 52.17957
1270.334, 51.58628
1270.816, 51.12558
1271.299, 51.41974
1271.781, 52.06432
1272.263, 52.31459
1272.745, 52.23521
1273.227, 51.82114
1273.709, 51.27272
1274.191, 51.02384
1274.673, 51.11051
1275.156, 51.43239
1275.638, 51.93409
1276.120, 52.34536
1276.602, 52.54794
1277.084, 52.57348
1277.566, 52.35424
1278.048, 52.06094
1278.530, 51.62002
1279.012, 51.30809
1279.495, 51.51476
1279.977, 52.02418
1280.459, 52.31575
1280.941, 52.38382
1281.423, 52.33422
1281.905, 52.14497
1282.387, 51.91699
1282.869, 51.61395
1283.351, 51.56016
1283.834, 51.87616
1284.316, 52.23215
1284.798, 52.41722
1285.280, 52.41034
1285.762, 52.19045
1286.244, 51.78161
##END=



