##NAMES=Almandine
##RRUFFID=R040076
##IDEAL CHEMISTRY=Fe^2+^_3_Al_2_(SiO_4_)_3_
##LOCALITY=Barton Garnet mine, Gore Mountain, Warren County, New York, USA
##OWNER=RRUFF
##SOURCE=University of Arizona Mineral Museum
##DESCRIPTION=Red coarsely crystalline
##STATUS=The identification of this mineral has been confirmed by X-ray diffraction and chemical analysis
##URL=rruff.info/R040076
##MEASURED CHEMISTRY=(Fe^2+^_1.38_Mg_1.26_Ca_0.33_Mn_0.03_)_Î£=3_Al_2.00_(Si_1.00_O_4_)_3_; trace amounts of Ti
127.8412, 957.0536
128.3233, 951.2891
128.8054, 956.2145
129.2875, 974.8776
129.7696, 999.4827
130.2518, 1017.120
130.7339, 1028.936
131.2160, 1034.356
131.6981, 1025.072
132.1802, 1003.394
132.6623, 987.2384
133.1445, 981.7244
133.6266, 986.5151
134.1087, 1001.683
134.5908, 1028.917
135.0729, 1062.133
135.5550, 1094.846
136.0372, 1127.994
136.5193, 1152.393
137.0014, 1155.249
137.4835, 1132.842
137.9656, 1137.537
138.4477, 1185.107
138.9299, 1257.944
139.4120, 1291.803
139.8941, 1275.497
140.3762, 1245.313
140.8583, 1228.753
141.3404, 1230.136
141.8226, 1231.774
142.3047, 1230.284
142.7868, 1225.560
143.2689, 1223.412
143.7510, 1226.978
144.2331, 1230.511
144.7152, 1226.046
145.1974, 1208.165
145.6795, 1190.715
146.1616, 1177.074
146.6437, 1166.955
147.1258, 1161.424
147.6079, 1160.103
148.0901, 1163.364
148.5722, 1172.457
149.0543, 1195.560
149.5364, 1217.334
150.0185, 1230.948
150.5006, 1228.926
150.9828, 1227.610
151.4649, 1229.245
151.9470, 1233.226
152.4291, 1232.636
152.9112, 1213.701
153.3933, 1197.350
153.8755, 1198.203
154.3576, 1246.240
154.8397, 1283.730
155.3218, 1295.625
155.8039, 1277.973
156.2860, 1259.031
156.7682, 1238.960
157.2503, 1221.686
157.7324, 1212.054
158.2145, 1219.758
158.6966, 1228.757
159.1787, 1231.848
159.6609, 1225.023
160.1430, 1219.360
160.6251, 1220.055
161.1072, 1224.557
161.5893, 1226.952
162.0714, 1227.339
162.5536, 1223.673
163.0357, 1214.335
163.5178, 1194.662
163.9999, 1174.054
164.4820, 1156.525
164.9641, 1141.764
165.4463, 1128.403
165.9284, 1113.857
166.4105, 1100.934
166.8926, 1092.661
167.3747, 1086.623
167.8568, 1087.939
168.3390, 1098.602
168.8211, 1118.229
169.3032, 1150.973
169.7853, 1225.459
170.2674, 1313.519
170.7495, 1365.903
171.2317, 1326.874
171.7138, 1256.594
172.1959, 1213.954
172.6780, 1207.525
173.1601, 1220.672
173.6422, 1248.542
174.1244, 1286.979
174.6065, 1321.785
175.0886, 1344.062
175.5707, 1357.999
176.0528, 1370.557
176.5349, 1385.960
177.0171, 1396.201
177.4992, 1388.600
177.9813, 1364.827
178.4634, 1338.772
178.9455, 1321.890
179.4276, 1310.800
179.9098, 1297.225
180.3919, 1276.240
180.8740, 1252.557
181.3561, 1232.328
181.8382, 1215.667
182.3203, 1203.345
182.8025, 1199.893
183.2846, 1202.870
183.7667, 1202.182
184.2488, 1189.785
184.7309, 1170.354
185.2130, 1158.776
185.6951, 1156.521
186.1773, 1156.737
186.6594, 1148.561
187.1415, 1132.957
187.6236, 1119.916
188.1057, 1115.617
188.5878, 1118.685
189.0700, 1123.109
189.5521, 1129.327
190.0342, 1134.857
190.5163, 1133.068
190.9984, 1123.638
191.4805, 1115.702
191.9627, 1114.948
192.4448, 1121.237
192.9269, 1134.276
193.4090, 1156.973
193.8911, 1184.656
194.3732, 1201.598
194.8554, 1206.269
195.3375, 1209.781
195.8196, 1224.935
196.3017, 1252.124
196.7838, 1273.394
197.2659, 1281.180
197.7481, 1278.443
198.2302, 1285.853
198.7123, 1305.438
199.1944, 1329.452
199.6765, 1349.182
200.1586, 1364.585
200.6408, 1377.602
201.1229, 1387.662
201.6050, 1394.586
202.0871, 1405.363
202.5692, 1420.927
203.0513, 1438.855
203.5335, 1455.166
204.0156, 1469.531
204.4977, 1483.512
204.9798, 1498.263
205.4619, 1514.025
205.9440, 1527.493
206.4262, 1538.126
206.9083, 1546.661
207.3904, 1555.277
207.8725, 1564.593
208.3546, 1572.191
208.8367, 1576.534
209.3189, 1577.224
209.8010, 1576.070
210.2831, 1572.478
210.7652, 1567.257
211.2473, 1563.882
211.7294, 1562.447
212.2116, 1562.748
212.6937, 1566.750
213.1758, 1578.692
213.6579, 1580.411
214.1400, 1566.566
214.6221, 1538.366
215.1043, 1514.410
215.5864, 1495.846
216.0685, 1479.584
216.5506, 1463.161
217.0327, 1446.930
217.5148, 1429.179
217.9970, 1408.346
218.4791, 1384.190
218.9612, 1363.557
219.4433, 1347.033
219.9254, 1333.579
220.4075, 1322.864
220.8897, 1317.870
221.3718, 1309.248
221.8539, 1291.940
222.3360, 1261.432
222.8181, 1243.921
223.3002, 1246.036
223.7824, 1257.087
224.2645, 1257.057
224.7466, 1239.508
225.2287, 1221.990
225.7108, 1211.778
226.1929, 1212.733
226.6750, 1210.337
227.1572, 1203.641
227.6393, 1193.950
228.1214, 1184.366
228.6035, 1175.136
229.0856, 1165.785
229.5677, 1155.426
230.0499, 1141.196
230.5320, 1133.003
231.0141, 1133.411
231.4962, 1140.281
231.9783, 1145.360
232.4604, 1149.843
232.9426, 1150.909
233.4247, 1145.577
233.9068, 1127.439
234.3889, 1116.714
234.8710, 1118.855
235.3531, 1131.766
235.8353, 1135.643
236.3174, 1125.919
236.7995, 1112.390
237.2816, 1101.887
237.7637, 1093.781
238.2458, 1090.160
238.7280, 1093.200
239.2101, 1102.745
239.6922, 1107.569
240.1743, 1104.577
240.6564, 1099.930
241.1385, 1100.017
241.6207, 1110.111
242.1028, 1115.340
242.5849, 1111.128
243.0670, 1096.346
243.5491, 1086.864
244.0313, 1086.439
244.5134, 1088.177
244.9955, 1083.315
245.4776, 1065.938
245.9597, 1052.161
246.4418, 1045.668
246.9240, 1046.928
247.4061, 1053.650
247.8882, 1070.366
248.3703, 1089.224
248.8524, 1098.454
249.3345, 1094.184
249.8167, 1086.882
250.2988, 1078.826
250.7809, 1069.089
251.2630, 1062.406
251.7451, 1060.036
252.2272, 1060.008
252.7094, 1058.403
253.1915, 1052.731
253.6736, 1049.733
254.1557, 1052.485
254.6378, 1063.417
255.1199, 1072.853
255.6021, 1081.871
256.0842, 1088.814
256.5663, 1088.925
257.0484, 1077.749
257.5305, 1067.495
258.0126, 1064.605
258.4948, 1073.903
258.9769, 1076.026
259.4590, 1065.844
259.9411, 1050.172
260.4232, 1049.384
260.9053, 1072.162
261.3875, 1093.974
261.8696, 1101.823
262.3517, 1091.417
262.8338, 1079.808
263.3159, 1066.285
263.7980, 1052.475
264.2802, 1044.508
264.7623, 1043.310
265.2444, 1045.923
265.7265, 1052.050
266.2086, 1063.854
266.6907, 1070.133
267.1729, 1067.218
267.6550, 1058.510
268.1371, 1057.388
268.6192, 1065.548
269.1013, 1077.487
269.5834, 1093.050
270.0656, 1116.233
270.5477, 1121.691
271.0298, 1097.892
271.5119, 1055.290
271.9940, 1041.797
272.4761, 1066.424
272.9583, 1097.517
273.4404, 1110.495
273.9225, 1101.629
274.4046, 1095.351
274.8867, 1096.552
275.3688, 1102.975
275.8510, 1103.628
276.3331, 1097.002
276.8152, 1089.155
277.2973, 1085.394
277.7794, 1086.173
278.2615, 1086.514
278.7437, 1084.714
279.2258, 1081.846
279.7079, 1083.247
280.1900, 1089.607
280.6721, 1097.584
281.1542, 1107.187
281.6364, 1118.922
282.1185, 1118.977
282.6006, 1097.351
283.0827, 1063.130
283.5648, 1057.765
284.0469, 1085.875
284.5291, 1118.849
285.0112, 1121.521
285.4933, 1095.375
285.9754, 1091.815
286.4575, 1137.410
286.9396, 1211.755
287.4217, 1238.663
287.9038, 1213.495
288.3860, 1174.238
288.8681, 1157.057
289.3502, 1159.928
289.8323, 1163.281
290.3144, 1161.068
290.7965, 1155.564
291.2787, 1154.129
291.7608, 1157.197
292.2429, 1159.408
292.7250, 1152.342
293.2071, 1138.578
293.6892, 1131.158
294.1714, 1137.224
294.6535, 1151.133
295.1356, 1161.089
295.6177, 1167.058
296.0998, 1171.134
296.5819, 1174.829
297.0641, 1178.248
297.5462, 1181.524
298.0283, 1183.385
298.5104, 1185.828
298.9925, 1192.670
299.4746, 1203.975
299.9568, 1217.011
300.4389, 1230.953
300.9210, 1244.879
301.4031, 1256.980
301.8852, 1264.822
302.3673, 1271.318
302.8495, 1281.694
303.3316, 1295.716
303.8137, 1307.610
304.2958, 1308.718
304.7779, 1304.646
305.2600, 1305.354
305.7422, 1314.152
306.2243, 1329.626
306.7064, 1355.275
307.1885, 1390.531
307.6706, 1419.498
308.1527, 1424.860
308.6349, 1418.462
309.1170, 1416.596
309.5991, 1411.864
310.0812, 1423.541
310.5633, 1483.472
311.0454, 1588.153
311.5276, 1669.595
312.0097, 1665.648
312.4918, 1623.823
312.9739, 1597.006
313.4560, 1620.037
313.9381, 1649.809
314.4203, 1659.514
314.9024, 1651.050
315.3845, 1648.420
315.8666, 1668.940
316.3487, 1698.062
316.8308, 1722.040
317.3130, 1734.817
317.7951, 1743.553
318.2772, 1748.731
318.7593, 1750.877
319.2414, 1755.109
319.7235, 1769.915
320.2057, 1784.031
320.6878, 1788.542
321.1699, 1767.420
321.6520, 1750.742
322.1341, 1747.144
322.6162, 1755.732
323.0984, 1767.035
323.5805, 1775.486
324.0626, 1788.305
324.5447, 1810.364
325.0268, 1854.959
325.5089, 1894.978
325.9911, 1924.320
326.4732, 1943.884
326.9553, 1966.505
327.4374, 1993.212
327.9195, 2022.852
328.4016, 2054.948
328.8838, 2088.019
329.3659, 2125.244
329.8480, 2167.217
330.3301, 2213.554
330.8122, 2262.819
331.2943, 2314.669
331.7765, 2370.076
332.2586, 2429.704
332.7407, 2494.964
333.2228, 2562.413
333.7049, 2634.689
334.1870, 2709.471
334.6692, 2776.121
335.1513, 2825.919
335.6334, 2882.701
336.1155, 2962.294
336.5976, 3076.099
337.0797, 3178.004
337.5619, 3262.235
338.0440, 3333.974
338.5261, 3403.592
339.0082, 3468.250
339.4903, 3538.439
339.9724, 3617.747
340.4546, 3706.493
340.9367, 3808.973
341.4188, 3930.781
341.9009, 4061.429
342.3830, 4175.886
342.8651, 4271.084
343.3473, 4375.101
343.8294, 4504.251
344.3115, 4657.971
344.7936, 4808.502
345.2757, 4950.456
345.7578, 5102.187
346.2400, 5314.981
346.7221, 5581.707
347.2042, 5825.333
347.6863, 5980.644
348.1684, 6080.515
348.6505, 6237.082
349.1327, 6461.651
349.6148, 6719.371
350.0969, 6982.499
350.5790, 7247.305
351.0611, 7499.929
351.5432, 7744.816
352.0254, 7968.528
352.5075, 8152.153
352.9896, 8292.972
353.4717, 8401.556
353.9538, 8493.628
354.4359, 8560.184
354.9181, 8580.190
355.4002, 8525.699
355.8823, 8432.924
356.3644, 8351.103
356.8465, 8281.592
357.3286, 8152.261
357.8108, 7870.964
358.2929, 7513.771
358.7750, 7174.781
359.2571, 6900.847
359.7392, 6644.236
360.2213, 6375.420
360.7035, 6095.907
361.1856, 5833.138
361.6677, 5602.563
362.1498, 5392.814
362.6319, 5191.295
363.1140, 4986.896
363.5962, 4798.313
364.0783, 4631.889
364.5604, 4486.590
365.0425, 4355.118
365.5246, 4237.590
366.0067, 4131.993
366.4889, 4037.133
366.9710, 3956.400
367.4531, 3881.227
367.9352, 3808.158
368.4173, 3739.230
368.8994, 3683.642
369.3815, 3659.488
369.8636, 3633.309
370.3458, 3590.613
370.8279, 3518.371
371.3100, 3451.043
371.7921, 3387.729
372.2742, 3329.112
372.7563, 3277.932
373.2385, 3240.769
373.7206, 3200.776
374.2027, 3149.384
374.6848, 3081.531
375.1669, 3025.096
375.6490, 2984.433
376.1312, 2950.632
376.6133, 2908.278
377.0954, 2855.884
377.5775, 2800.338
378.0596, 2743.725
378.5417, 2686.899
379.0239, 2623.999
379.5060, 2554.230
379.9881, 2482.391
380.4702, 2414.567
380.9523, 2350.214
381.4344, 2290.908
381.9166, 2239.880
382.3987, 2193.648
382.8808, 2135.874
383.3629, 2066.289
383.8450, 1996.549
384.3271, 1939.757
384.8093, 1892.411
385.2914, 1844.976
385.7735, 1792.749
386.2556, 1741.383
386.7377, 1702.487
387.2198, 1674.685
387.7020, 1645.961
388.1841, 1604.665
388.6662, 1558.766
389.1483, 1518.995
389.6304, 1491.563
390.1125, 1465.593
390.5947, 1429.489
391.0768, 1387.003
391.5589, 1350.930
392.0410, 1334.768
392.5231, 1323.111
393.0052, 1304.323
393.4874, 1274.413
393.9695, 1242.357
394.4516, 1205.890
394.9337, 1169.934
395.4158, 1143.519
395.8979, 1142.708
396.3801, 1140.332
396.8622, 1122.115
397.3443, 1078.959
397.8264, 1048.714
398.3085, 1047.568
398.7906, 1058.220
399.2728, 1059.941
399.7549, 1048.968
400.2370, 1032.452
400.7191, 1008.705
401.2012, 976.7051
401.6833, 953.2580
402.1655, 942.1443
402.6476, 936.1288
403.1297, 928.5891
403.6118, 916.5590
404.0939, 911.1749
404.5760, 918.6926
405.0582, 934.5981
405.5403, 931.0535
406.0224, 901.7472
406.5045, 871.4583
406.9866, 858.5286
407.4688, 863.9104
407.9509, 869.7793
408.4330, 875.1718
408.9151, 878.9292
409.3972, 878.8019
409.8793, 874.7650
410.3615, 867.2303
410.8436, 852.8487
411.3257, 834.6704
411.8078, 824.0353
412.2899, 822.4296
412.7720, 824.5778
413.2542, 826.7036
413.7363, 827.9012
414.2184, 825.4300
414.7005, 815.3900
415.1826, 802.3589
415.6647, 789.8927
416.1469, 778.1411
416.6290, 771.5035
417.1111, 778.9431
417.5932, 791.9240
418.0753, 799.0700
418.5574, 792.0296
419.0396, 782.3303
419.5217, 774.3351
420.0038, 768.2617
420.4859, 764.9583
420.9680, 770.5640
421.4501, 775.5925
421.9323, 772.9268
422.4144, 749.1025
422.8965, 734.3342
423.3786, 741.7356
423.8607, 762.7982
424.3428, 773.0906
424.8250, 756.5383
425.3071, 741.6531
425.7892, 739.9484
426.2713, 760.5290
426.7534, 769.5801
427.2355, 762.4756
427.7177, 746.7177
428.1998, 732.1314
428.6819, 716.1673
429.1640, 707.4182
429.6461, 711.3727
430.1282, 727.5287
430.6104, 732.6710
431.0925, 723.7787
431.5746, 711.5277
432.0567, 706.6136
432.5388, 709.2026
433.0209, 712.9831
433.5031, 717.3613
433.9852, 721.5256
434.4673, 722.4973
434.9494, 720.3830
435.4315, 719.6138
435.9136, 723.9454
436.3958, 732.0848
436.8779, 742.3171
437.3600, 756.4780
437.8421, 766.4594
438.3242, 758.9921
438.8063, 739.3344
439.2885, 722.2110
439.7706, 718.1613
440.2527, 718.3738
440.7348, 713.4966
441.2169, 701.9943
441.6990, 694.0597
442.1812, 698.3283
442.6633, 708.3279
443.1454, 716.3930
443.6275, 721.0237
444.1096, 722.4345
444.5917, 718.2270
445.0739, 709.0671
445.5560, 704.0784
446.0381, 709.5282
446.5202, 716.6635
447.0023, 720.3245
447.4844, 713.6895
447.9666, 712.1498
448.4487, 720.3113
448.9308, 733.3284
449.4129, 737.5331
449.8950, 728.1643
450.3771, 717.7256
450.8593, 710.6088
451.3413, 707.0063
451.8235, 705.9946
452.3056, 707.7292
452.7877, 711.8212
453.2698, 720.2455
453.7519, 733.9288
454.2340, 739.8558
454.7162, 728.8461
455.1983, 708.3599
455.6804, 706.6677
456.1625, 724.5870
456.6446, 747.4893
457.1267, 767.3386
457.6089, 782.5952
458.0910, 788.7072
458.5731, 780.9676
459.0552, 770.4749
459.5373, 770.9088
460.0194, 779.8491
460.5016, 789.3427
460.9837, 795.0051
461.4658, 799.0531
461.9479, 804.7319
462.4300, 813.6022
462.9121, 817.3686
463.3943, 805.0956
463.8764, 787.0636
464.3585, 776.7403
464.8406, 784.6415
465.3227, 794.4617
465.8048, 799.5349
466.2870, 799.7635
466.7691, 805.7090
467.2512, 829.0984
467.7333, 851.2870
468.2154, 860.0916
468.6975, 838.1744
469.1797, 831.8215
469.6618, 850.8047
470.1439, 884.4356
470.6260, 904.1511
471.1081, 905.9778
471.5902, 903.3324
472.0724, 898.7241
472.5545, 891.2817
473.0366, 898.1957
473.5187, 922.4222
474.0008, 952.4553
474.4829, 976.0375
474.9651, 993.2555
475.4472, 1004.307
475.9293, 1004.844
476.4114, 1002.330
476.8935, 1013.621
477.3756, 1037.781
477.8578, 1064.209
478.3399, 1084.530
478.8220, 1102.364
479.3041, 1123.531
479.7862, 1150.474
480.2683, 1177.612
480.7505, 1199.884
481.2326, 1219.260
481.7147, 1239.997
482.1968, 1270.526
482.6789, 1297.570
483.1610, 1314.768
483.6432, 1321.401
484.1253, 1319.821
484.6074, 1305.889
485.0895, 1286.302
485.5716, 1266.774
486.0537, 1246.696
486.5359, 1228.030
487.0180, 1212.318
487.5001, 1198.381
487.9822, 1179.882
488.4643, 1152.632
488.9464, 1128.013
489.4286, 1111.501
489.9107, 1104.168
490.3928, 1100.408
490.8749, 1100.882
491.3570, 1103.742
491.8391, 1105.810
492.3213, 1107.096
492.8034, 1110.779
493.2855, 1116.205
493.7676, 1125.443
494.2497, 1145.101
494.7318, 1174.905
495.2140, 1209.525
495.6961, 1244.335
496.1782, 1281.074
496.6603, 1321.637
497.1424, 1367.956
497.6245, 1416.302
498.1067, 1458.350
498.5888, 1500.380
499.0709, 1557.032
499.5530, 1641.759
500.0351, 1737.445
500.5172, 1843.231
500.9994, 1961.075
501.4815, 2058.016
501.9636, 2110.811
502.4457, 2147.957
502.9278, 2195.212
503.4099, 2275.644
503.8921, 2340.815
504.3742, 2392.636
504.8563, 2427.091
505.3384, 2425.714
505.8205, 2381.669
506.3026, 2315.368
506.7848, 2233.199
507.2669, 2132.213
507.7490, 2030.848
508.2311, 1927.047
508.7132, 1827.218
509.1953, 1740.376
509.6775, 1665.800
510.1596, 1590.499
510.6417, 1505.156
511.1238, 1420.586
511.6059, 1360.257
512.0880, 1322.576
512.5701, 1292.703
513.0522, 1260.817
513.5344, 1229.745
514.0165, 1203.379
514.4986, 1183.200
514.9807, 1165.381
515.4628, 1151.712
515.9449, 1138.138
516.4271, 1118.036
516.9092, 1072.043
517.3913, 1035.140
517.8734, 1027.301
518.3555, 1050.609
518.8376, 1061.049
519.3198, 1040.273
519.8019, 1014.806
520.2840, 1000.739
520.7661, 1005.332
521.2482, 1006.942
521.7303, 1002.188
522.2125, 995.3248
522.6946, 997.3683
523.1767, 1010.904
523.6588, 1022.392
524.1409, 1026.005
524.6230, 1022.569
525.1052, 1017.636
525.5873, 1010.822
526.0694, 1005.546
526.5515, 1005.419
527.0336, 1009.552
527.5157, 1016.482
527.9979, 1028.657
528.4800, 1038.267
528.9621, 1033.523
529.4442, 1018.698
529.9263, 1006.273
530.4084, 1005.349
530.8906, 1007.341
531.3727, 1005.263
531.8548, 997.5432
532.3369, 993.9952
532.8190, 1003.512
533.3011, 1015.890
533.7833, 1021.697
534.2654, 1009.641
534.7475, 1003.100
535.2296, 1003.873
535.7117, 1011.688
536.1938, 1026.415
536.6760, 1053.236
537.1581, 1077.514
537.6402, 1091.253
538.1223, 1092.967
538.6044, 1103.130
539.0865, 1123.081
539.5687, 1147.982
540.0508, 1174.013
540.5329, 1200.924
541.0150, 1223.082
541.4971, 1234.774
541.9792, 1246.577
542.4614, 1279.063
542.9435, 1328.086
543.4256, 1374.298
543.9077, 1401.545
544.3898, 1423.035
544.8719, 1450.031
545.3541, 1483.390
545.8362, 1524.583
546.3183, 1579.302
546.8004, 1640.579
547.2825, 1701.285
547.7646, 1761.584
548.2468, 1818.236
548.7289, 1863.893
549.2110, 1903.653
549.6931, 1958.925
550.1752, 2033.026
550.6573, 2117.877
551.1395, 2214.305
551.6216, 2325.951
552.1037, 2423.992
552.5858, 2503.040
553.0679, 2581.514
553.5500, 2684.694
554.0322, 2810.653
554.5143, 2933.782
554.9964, 3050.396
555.4785, 3158.391
555.9606, 3253.792
556.4427, 3336.683
556.9249, 3404.743
557.4070, 3462.413
557.8891, 3501.500
558.3712, 3511.756
558.8533, 3491.245
559.3354, 3449.619
559.8176, 3393.396
560.2997, 3318.048
560.7818, 3218.510
561.2639, 3074.999
561.7460, 2929.289
562.2281, 2794.655
562.7103, 2664.669
563.1924, 2516.316
563.6745, 2325.286
564.1566, 2148.525
564.6387, 2009.950
565.1208, 1912.378
565.6030, 1818.992
566.0851, 1731.106
566.5672, 1646.632
567.0493, 1561.600
567.5314, 1477.754
568.0135, 1401.804
568.4957, 1335.450
568.9778, 1278.273
569.4599, 1234.865
569.9420, 1202.249
570.4241, 1169.670
570.9063, 1127.782
571.3884, 1084.981
571.8705, 1048.205
572.3526, 1018.096
572.8347, 992.1674
573.3168, 970.2261
573.7990, 951.5665
574.2811, 936.0574
574.7632, 925.8959
575.2453, 915.3804
575.7274, 901.8687
576.2095, 887.6010
576.6917, 877.7044
577.1738, 876.5325
577.6559, 872.3602
578.1380, 859.9905
578.6201, 840.3606
579.1022, 829.6451
579.5844, 829.3211
580.0665, 832.4059
580.5486, 833.5779
581.0307, 833.3174
581.5128, 835.0773
581.9949, 839.4269
582.4771, 845.1993
582.9592, 850.5690
583.4413, 856.2156
583.9234, 863.8196
584.4055, 875.7598
584.8876, 888.6086
585.3698, 903.3405
585.8519, 918.1940
586.3340, 923.8861
586.8161, 909.0392
587.2982, 889.4351
587.7803, 873.1985
588.2625, 860.6083
588.7446, 853.3749
589.2267, 858.5632
589.7088, 864.3598
590.1909, 855.9709
590.6730, 824.7725
591.1552, 804.2271
591.6373, 804.1837
592.1194, 815.6942
592.6015, 808.6249
593.0836, 781.4633
593.5657, 760.1155
594.0479, 763.1147
594.5300, 782.0095
595.0121, 796.8571
595.4942, 807.4061
595.9763, 808.3226
596.4584, 784.0565
596.9406, 751.3890
597.4227, 732.7301
597.9048, 740.3531
598.3869, 751.2731
598.8690, 754.8430
599.3511, 754.2296
599.8333, 755.6772
600.3154, 767.2545
600.7975, 773.8719
601.2796, 768.5585
601.7617, 751.7843
602.2438, 744.0140
602.7260, 748.8139
603.2081, 756.4519
603.6902, 759.9182
604.1723, 758.5217
604.6544, 764.1076
605.1365, 779.6281
605.6187, 794.7840
606.1008, 792.9244
606.5829, 777.8258
607.0650, 765.4249
607.5471, 762.3654
608.0292, 762.5617
608.5114, 759.3227
608.9935, 753.3895
609.4756, 747.2933
609.9577, 741.9020
610.4398, 737.2158
610.9219, 733.4423
611.4041, 730.6466
611.8862, 728.0411
612.3683, 729.9404
612.8504, 728.9504
613.3325, 718.8029
613.8146, 690.1597
614.2968, 670.8431
614.7789, 664.6790
615.2610, 666.1708
615.7431, 664.5790
616.2252, 659.4016
616.7073, 656.4359
617.1895, 659.6429
617.6716, 665.7654
618.1537, 663.1989
618.6358, 652.8648
619.1179, 646.6453
619.6000, 658.8801
620.0822, 677.3207
620.5643, 685.8373
621.0464, 680.8904
621.5285, 675.6099
622.0106, 675.3091
622.4927, 679.2372
622.9749, 686.6229
623.4570, 702.1302
623.9391, 715.2649
624.4212, 721.0049
624.9033, 723.7108
625.3854, 736.2724
625.8676, 765.9799
626.3497, 788.6339
626.8318, 790.7134
627.3139, 775.9886
627.7960, 784.2690
628.2781, 817.7904
628.7603, 855.7668
629.2424, 882.9440
629.7245, 901.2678
630.2066, 914.4494
630.6887, 921.2064
631.1708, 931.2972
631.6530, 955.9627
632.1351, 989.0134
632.6172, 1021.214
633.0993, 1045.525
633.5814, 1071.870
634.0635, 1105.651
634.5457, 1144.871
635.0278, 1182.143
635.5099, 1223.104
635.9920, 1254.198
636.4741, 1268.916
636.9562, 1266.233
637.4384, 1266.570
637.9205, 1270.878
638.4026, 1275.560
638.8847, 1281.636
639.3668, 1287.598
639.8489, 1276.744
640.3311, 1244.987
640.8132, 1204.884
641.2953, 1169.253
641.7774, 1136.510
642.2595, 1102.168
642.7416, 1061.166
643.2238, 1022.006
643.7059, 990.7094
644.1880, 966.0575
644.6701, 942.6742
645.1522, 920.1127
645.6343, 898.0049
646.1165, 875.9362
646.5986, 853.3746
647.0807, 834.4642
647.5628, 820.6532
648.0449, 808.1027
648.5270, 793.1617
649.0092, 775.3454
649.4913, 761.9106
649.9734, 753.8242
650.4555, 748.5175
650.9376, 744.3113
651.4197, 740.1934
651.9019, 732.4905
652.3840, 717.9066
652.8661, 701.6907
653.3482, 687.2766
653.8303, 675.1158
654.3124, 666.6334
654.7946, 668.2109
655.2767, 668.3950
655.7588, 659.8592
656.2409, 641.0339
656.7230, 627.4395
657.2051, 623.1723
657.6872, 620.4491
658.1693, 614.3745
658.6514, 603.7186
659.1335, 594.7548
659.6157, 586.7680
660.0978, 582.3635
660.5799, 588.7047
661.0620, 603.2351
661.5441, 610.9710
662.0262, 606.5535
662.5084, 595.9682
662.9905, 585.3798
663.4726, 574.3958
663.9547, 561.8939
664.4368, 539.8614
664.9189, 522.9237
665.4011, 521.7264
665.8832, 535.9330
666.3653, 547.7098
666.8474, 555.0640
667.3295, 558.4366
667.8116, 557.7720
668.2938, 552.7812
668.7759, 543.3557
669.2580, 526.2072
669.7401, 511.7311
670.2222, 515.4451
670.7043, 534.9719
671.1865, 545.0496
671.6686, 538.8680
672.1507, 527.1975
672.6328, 523.8870
673.1149, 525.6299
673.5970, 524.5854
674.0792, 511.0640
674.5613, 499.5366
675.0434, 500.2009
675.5255, 510.9245
676.0076, 519.7731
676.4897, 527.5971
676.9719, 529.4972
677.4540, 521.6207
677.9361, 502.1460
678.4182, 489.9695
678.9003, 485.4644
679.3824, 487.2078
679.8646, 496.5827
680.3467, 512.6560
680.8288, 525.6019
681.3109, 534.9966
681.7930, 539.0270
682.2751, 531.9386
682.7573, 518.4906
683.2394, 507.9446
683.7215, 503.1743
684.2036, 502.7318
684.6857, 510.8967
685.1678, 522.6567
685.6500, 526.6205
686.1321, 511.0923
686.6142, 496.9281
687.0963, 489.7529
687.5784, 489.0583
688.0605, 490.1471
688.5427, 494.6252
689.0248, 496.7269
689.5069, 490.7142
689.9890, 477.8817
690.4711, 473.2256
690.9532, 477.3207
691.4354, 484.5749
691.9175, 493.2585
692.3996, 500.6624
692.8817, 501.6437
693.3638, 493.3827
693.8459, 484.2157
694.3281, 477.0896
694.8102, 472.4694
695.2923, 471.0363
695.7744, 475.0296
696.2565, 479.7390
696.7386, 485.8041
697.2208, 491.8973
697.7029, 494.4515
698.1850, 493.0171
698.6671, 489.4858
699.1492, 483.6352
699.6313, 476.4719
700.1135, 471.8033
700.5956, 469.5242
701.0777, 467.8614
701.5598, 462.8766
702.0419, 459.2030
702.5240, 464.6953
703.0062, 480.3677
703.4883, 493.6756
703.9704, 496.4540
704.4525, 495.6922
704.9346, 497.0503
705.4167, 506.1530
705.8989, 507.9918
706.3810, 496.1744
706.8631, 482.5692
707.3452, 484.6588
707.8273, 506.3313
708.3094, 516.5863
708.7916, 507.0662
709.2737, 488.6101
709.7558, 478.1879
710.2379, 475.5774
710.7200, 479.0985
711.2021, 496.3995
711.6843, 513.0822
712.1664, 514.2213
712.6485, 503.0017
713.1306, 492.9476
713.6127, 487.4820
714.0948, 485.7724
714.5770, 488.4232
715.0591, 495.5225
715.5412, 503.2897
716.0233, 513.6252
716.5054, 521.1099
716.9875, 521.1140
717.4697, 513.6963
717.9518, 505.8951
718.4339, 497.5990
718.9160, 492.0025
719.3981, 495.3951
719.8802, 503.5409
720.3624, 507.5287
720.8445, 502.9472
721.3266, 499.6430
721.8087, 510.2373
722.2908, 524.1169
722.7729, 525.6723
723.2551, 487.8571
723.7372, 467.2075
724.2193, 479.5992
724.7014, 512.3881
725.1835, 529.8903
725.6656, 528.8620
726.1478, 525.7798
726.6299, 526.1283
727.1120, 528.8332
727.5941, 532.2526
728.0762, 535.9640
728.5583, 535.6581
729.0405, 524.9374
729.5226, 511.1838
730.0047, 501.0536
730.4868, 495.0804
730.9689, 491.2897
731.4510, 487.0254
731.9332, 486.1102
732.4153, 492.3312
732.8974, 510.3700
733.3795, 521.2436
733.8616, 522.5625
734.3438, 520.3064
734.8259, 520.9960
735.3080, 524.4963
735.7901, 523.2256
736.2722, 514.8282
736.7543, 505.8861
737.2365, 505.4607
737.7186, 510.6203
738.2007, 515.5317
738.6828, 518.8997
739.1649, 520.5378
739.6470, 519.5035
740.1292, 516.6963
740.6113, 514.1676
741.0934, 512.0456
741.5755, 510.5582
742.0576, 509.9733
742.5397, 510.0662
743.0219, 510.1815
743.5040, 505.9770
743.9861, 514.0294
744.4682, 518.8146
744.9503, 520.5084
745.4324, 509.8509
745.9146, 515.1425
746.3967, 514.0425
746.8788, 512.6802
747.3609, 520.2165
747.8430, 511.3556
748.3251, 518.7507
748.8073, 519.6569
749.2894, 523.5328
749.7715, 520.9776
750.2536, 520.4088
750.7357, 526.2732
751.2178, 528.5754
751.7000, 525.2802
752.1821, 529.3449
752.6642, 520.2592
753.1463, 522.7133
753.6284, 530.1461
754.1105, 527.1740
754.5927, 531.3564
755.0748, 532.8140
755.5569, 522.9039
756.0390, 523.8302
756.5211, 526.6915
757.0032, 528.5662
757.4854, 528.4412
757.9675, 526.7593
758.4496, 524.5018
758.9317, 521.1653
759.4138, 518.2668
759.8959, 515.9506
760.3781, 514.4413
760.8602, 514.1050
761.3423, 514.9963
761.8244, 518.0970
762.3065, 528.2720
762.7886, 538.3710
763.2708, 536.7991
763.7529, 525.4238
764.2350, 516.8586
764.7171, 518.7720
765.1992, 523.4864
765.6813, 526.6874
766.1635, 527.6614
766.6456, 532.6949
767.1277, 546.5998
767.6098, 556.7230
768.0919, 553.1152
768.5740, 535.9711
769.0562, 521.6736
769.5383, 510.2538
770.0204, 503.7002
770.5025, 508.1771
770.9846, 517.3503
771.4667, 520.1793
771.9489, 513.4486
772.4310, 507.2981
772.9131, 509.6263
773.3952, 513.7205
773.8773, 512.5408
774.3594, 495.7711
774.8416, 489.2770
775.3237, 497.0453
775.8058, 511.5000
776.2879, 523.2784
776.7700, 532.3834
777.2521, 540.4713
777.7343, 549.3076
778.2164, 554.1237
778.6985, 543.6179
779.1806, 524.1153
779.6627, 509.7474
780.1448, 510.4634
780.6270, 513.5679
781.1091, 513.1190
781.5912, 510.7064
782.0733, 511.2181
782.5554, 516.3820
783.0375, 522.2355
783.5197, 529.0065
784.0018, 535.4328
784.4839, 535.2692
784.9660, 528.2515
785.4481, 523.3623
785.9302, 525.7853
786.4124, 532.8444
786.8945, 543.4958
787.3766, 556.0774
787.8587, 561.4418
788.3408, 546.6545
788.8229, 530.1665
789.3051, 523.2284
789.7872, 527.2654
790.2693, 528.1945
790.7514, 522.5652
791.2335, 518.8105
791.7156, 521.8717
792.1978, 531.6575
792.6799, 542.6481
793.1620, 555.1388
793.6441, 564.1351
794.1262, 562.8942
794.6083, 556.3712
795.0905, 551.4598
795.5726, 548.9014
796.0547, 547.9141
796.5368, 546.0146
797.0189, 546.8538
797.5010, 554.5112
797.9832, 574.7679
798.4653, 587.0690
798.9474, 589.1909
799.4295, 586.8679
799.9116, 584.7012
800.3937, 582.8506
800.8759, 583.7892
801.3580, 588.2319
801.8401, 593.6076
802.3222, 597.1365
802.8043, 599.8350
803.2864, 603.4294
803.7686, 609.8809
804.2507, 614.5138
804.7328, 613.2780
805.2149, 610.4125
805.6970, 611.5204
806.1791, 616.4854
806.6613, 626.6631
807.1434, 644.9489
807.6255, 664.3902
808.1076, 669.5638
808.5897, 663.3802
809.0718, 664.3859
809.5540, 684.0963
810.0361, 703.5536
810.5182, 699.9567
811.0003, 683.2496
811.4824, 672.8217
811.9645, 679.2689
812.4467, 687.8964
812.9288, 697.1786
813.4109, 705.7932
813.8930, 711.0755
814.3751, 714.0444
814.8572, 708.5948
815.3394, 688.0515
815.8215, 662.8612
816.3036, 657.6788
816.7857, 669.6685
817.2678, 685.3443
817.7499, 706.9566
818.2321, 722.0367
818.7142, 715.1634
819.1963, 692.2114
819.6784, 680.2610
820.1605, 695.6650
820.6426, 710.2271
821.1248, 716.7639
821.6068, 716.4103
822.0889, 713.8267
822.5710, 708.5354
823.0532, 706.7391
823.5353, 714.9515
824.0174, 727.5582
824.4995, 734.0020
824.9816, 735.0591
825.4637, 736.1876
825.9459, 743.3342
826.4280, 748.6580
826.9101, 745.7234
827.3922, 733.9377
827.8743, 728.4910
828.3564, 730.8505
828.8386, 737.1598
829.3207, 746.2308
829.8028, 757.8141
830.2849, 772.6782
830.7670, 790.5973
831.2491, 804.0960
831.7313, 803.8256
832.2134, 798.4243
832.6955, 796.8793
833.1776, 799.8217
833.6597, 804.7335
834.1418, 810.5634
834.6240, 818.5046
835.1061, 829.5422
835.5882, 844.2297
836.0703, 857.2482
836.5524, 868.1710
837.0345, 878.6287
837.5167, 888.5007
837.9988, 899.0071
838.4809, 916.1339
838.9630, 940.0414
839.4451, 960.1790
839.9272, 963.5971
840.4094, 964.1855
840.8915, 973.0898
841.3736, 993.1825
841.8557, 1014.438
842.3378, 1033.601
842.8199, 1056.863
843.3021, 1090.324
843.7842, 1134.561
844.2663, 1172.176
844.7484, 1202.741
845.2305, 1230.782
845.7126, 1259.257
846.1948, 1288.132
846.6769, 1316.166
847.1590, 1342.644
847.6411, 1374.376
848.1232, 1420.874
848.6053, 1468.783
849.0875, 1507.040
849.5696, 1529.747
850.0517, 1567.011
850.5338, 1621.840
851.0159, 1683.214
851.4980, 1739.173
851.9802, 1792.828
852.4623, 1857.332
852.9444, 1934.546
853.4265, 2013.116
853.9086, 2088.510
854.3907, 2157.887
854.8729, 2215.463
855.3550, 2250.448
855.8371, 2304.672
856.3192, 2393.494
856.8013, 2485.882
857.2834, 2556.168
857.7656, 2604.245
858.2477, 2655.456
858.7298, 2711.745
859.2119, 2761.835
859.6940, 2794.775
860.1761, 2815.156
860.6583, 2828.586
861.1404, 2835.791
861.6225, 2836.433
862.1046, 2834.991
862.5867, 2822.759
863.0688, 2793.411
863.5510, 2741.657
864.0331, 2692.632
864.5152, 2647.918
864.9973, 2599.267
865.4794, 2532.559
865.9615, 2455.771
866.4437, 2390.771
866.9258, 2340.408
867.4079, 2294.771
867.8900, 2250.858
868.3721, 2205.975
868.8542, 2156.654
869.3364, 2097.450
869.8185, 2048.208
870.3006, 2012.743
870.7827, 1982.138
871.2648, 1948.863
871.7469, 1913.912
872.2291, 1888.434
872.7112, 1873.700
873.1933, 1859.129
873.6754, 1831.709
874.1575, 1801.926
874.6396, 1780.432
875.1218, 1769.784
875.6039, 1762.247
876.0860, 1755.281
876.5681, 1751.679
877.0502, 1753.754
877.5323, 1762.168
878.0145, 1770.003
878.4966, 1777.187
878.9787, 1784.089
879.4608, 1788.753
879.9429, 1794.197
880.4250, 1806.147
880.9072, 1825.213
881.3893, 1846.019
881.8714, 1864.082
882.3535, 1884.363
882.8356, 1910.606
883.3177, 1943.417
883.7999, 1975.996
884.2820, 2008.300
884.7641, 2040.769
885.2462, 2071.339
885.7283, 2102.677
886.2104, 2147.174
886.6926, 2204.230
887.1747, 2258.210
887.6568, 2293.492
888.1389, 2326.294
888.6210, 2368.294
889.1031, 2420.813
889.5853, 2475.323
890.0674, 2529.342
890.5495, 2588.354
891.0316, 2655.045
891.5137, 2729.337
891.9958, 2811.903
892.4780, 2902.573
892.9601, 2987.185
893.4422, 3048.421
893.9243, 3105.610
894.4064, 3173.862
894.8885, 3253.128
895.3707, 3340.504
895.8528, 3441.779
896.3349, 3542.341
896.8170, 3635.823
897.2991, 3723.626
897.7813, 3813.367
898.2634, 3904.257
898.7455, 4009.630
899.2276, 4138.517
899.7097, 4283.735
900.1918, 4433.713
900.6740, 4590.586
901.1561, 4762.335
901.6382, 4946.858
902.1203, 5153.099
902.6024, 5377.792
903.0845, 5625.210
903.5667, 5905.282
904.0488, 6219.250
904.5309, 6555.431
905.0130, 6908.549
905.4951, 7281.508
905.9772, 7680.805
906.4594, 8107.061
906.9415, 8563.771
907.4236, 9055.667
907.9057, 9581.445
908.3878, 10149.59
908.8699, 10754.04
909.3521, 11381.97
909.8342, 12040.19
910.3163, 12717.55
910.7984, 13413.71
911.2805, 14128.32
911.7626, 14854.08
912.2448, 15588.44
912.7269, 16334.54
913.2090, 17114.63
913.6911, 17860.10
914.1732, 18540.12
914.6553, 19164.01
915.1375, 19759.18
915.6196, 20360.93
916.1017, 20827.62
916.5838, 21141.49
917.0659, 21331.36
917.5480, 21460.44
918.0302, 21496.14
918.5123, 21327.63
918.9944, 20911.91
919.4765, 20387.24
919.9586, 19839.00
920.4407, 19226.69
920.9229, 18493.91
921.4050, 17592.73
921.8871, 16693.07
922.3692, 15794.50
922.8513, 14895.82
923.3334, 13987.06
923.8156, 13085.94
924.2977, 12239.24
924.7798, 11450.75
925.2619, 10717.66
925.7440, 10060.11
926.2261, 9447.971
926.7083, 8866.503
927.1904, 8309.249
927.6725, 7797.821
928.1546, 7331.835
928.6367, 6904.736
929.1188, 6523.713
929.6010, 6181.710
930.0831, 5847.610
930.5652, 5527.552
931.0473, 5227.356
931.5294, 4957.434
932.0115, 4708.236
932.4937, 4477.399
932.9758, 4263.079
933.4579, 4067.830
933.9400, 3892.029
934.4221, 3729.020
934.9042, 3575.080
935.3864, 3430.238
935.8685, 3286.923
936.3506, 3148.059
936.8327, 3023.857
937.3148, 2934.619
937.7969, 2848.187
938.2791, 2733.807
938.7612, 2605.840
939.2433, 2497.027
939.7254, 2421.669
940.2075, 2349.359
940.6896, 2275.545
941.1718, 2202.448
941.6539, 2132.285
942.1360, 2065.614
942.6181, 2006.318
943.1002, 1957.833
943.5823, 1910.502
944.0645, 1853.158
944.5466, 1793.486
945.0287, 1740.436
945.5108, 1695.135
945.9929, 1660.018
946.4750, 1640.481
946.9572, 1621.575
947.4393, 1583.000
947.9214, 1529.885
948.4035, 1491.096
948.8856, 1470.035
949.3677, 1452.383
949.8499, 1425.361
950.3320, 1398.014
950.8141, 1380.305
951.2962, 1377.084
951.7783, 1360.505
952.2604, 1322.751
952.7426, 1286.539
953.2247, 1266.264
953.7068, 1258.752
954.1889, 1252.391
954.6710, 1246.622
955.1531, 1236.507
955.6353, 1213.622
956.1174, 1190.006
956.5995, 1174.357
957.0816, 1166.025
957.5637, 1156.408
958.0458, 1142.103
958.5280, 1134.768
959.0101, 1142.000
959.4922, 1153.955
959.9743, 1143.723
960.4564, 1116.867
960.9385, 1093.236
961.4207, 1081.722
961.9028, 1074.440
962.3849, 1066.983
962.8670, 1060.895
963.3491, 1059.312
963.8312, 1065.106
964.3134, 1067.937
964.7955, 1066.770
965.2776, 1062.497
965.7597, 1055.924
966.2418, 1047.208
966.7239, 1035.817
967.2061, 1020.922
967.6882, 1007.539
968.1703, 999.2161
968.6524, 992.9280
969.1345, 985.9183
969.6166, 977.1051
970.0988, 973.0965
970.5809, 974.7043
971.0630, 977.5421
971.5451, 977.5814
972.0272, 976.8188
972.5093, 981.8142
972.9915, 991.4643
973.4736, 994.5042
973.9557, 976.3648
974.4378, 960.0586
974.9199, 958.0508
975.4020, 966.7389
975.8842, 968.4550
976.3663, 962.2711
976.8484, 958.5576
977.3305, 963.9839
977.8126, 970.4651
978.2947, 962.5145
978.7769, 946.7035
979.2590, 937.9183
979.7411, 947.5137
980.2232, 956.8287
980.7053, 963.7454
981.1874, 967.6785
981.6696, 966.7125
982.1517, 960.6845
982.6338, 957.2860
983.1159, 958.3406
983.5980, 957.9045
984.0801, 947.2329
984.5623, 933.2137
985.0444, 924.4562
985.5265, 924.8773
986.0085, 920.4457
986.4907, 904.6311
986.9728, 891.0250
987.4549, 891.1960
987.9370, 902.8413
988.4191, 898.9164
988.9012, 880.4448
989.3834, 863.4944
989.8655, 862.4115
990.3476, 863.7337
990.8297, 854.4337
991.3118, 837.1291
991.7939, 830.9294
992.2761, 843.3182
992.7582, 852.1429
993.2403, 850.8054
993.7224, 843.6104
994.2045, 839.4904
994.6866, 837.4928
995.1688, 834.4099
995.6509, 827.9343
996.1330, 822.3992
996.6151, 821.0630
997.0972, 821.4756
997.5793, 820.4525
998.0615, 817.5075
998.5436, 814.5131
999.0257, 811.4849
999.5078, 808.5151
999.9899, 804.9022
1000.472, 801.7202
1000.954, 801.2352
1001.436, 803.7299
1001.918, 806.5446
1002.401, 808.6118
1002.883, 810.7281
1003.365, 813.2806
1003.847, 816.2295
1004.329, 818.8850
1004.811, 821.2804
1005.293, 823.9630
1005.775, 828.5150
1006.257, 832.3963
1006.740, 830.6877
1007.222, 826.2980
1007.704, 826.2892
1008.186, 836.1005
1008.668, 846.1907
1009.150, 857.0667
1009.632, 865.8736
1010.114, 865.8347
1010.596, 859.0323
1011.079, 856.1194
1011.561, 858.5718
1012.043, 867.4685
1012.525, 889.9055
1013.007, 914.9165
1013.489, 932.1817
1013.971, 940.0037
1014.453, 946.2463
1014.936, 951.2758
1015.418, 953.5259
1015.900, 947.8757
1016.382, 940.0005
1016.864, 945.1871
1017.346, 961.1988
1017.828, 975.9932
1018.310, 982.9375
1018.792, 988.5837
1019.275, 993.9750
1019.757, 1000.328
1020.239, 1010.891
1020.721, 1025.854
1021.203, 1042.112
1021.685, 1059.697
1022.167, 1076.059
1022.649, 1090.145
1023.132, 1100.466
1023.614, 1103.839
1024.096, 1093.167
1024.578, 1091.065
1025.060, 1101.961
1025.542, 1116.712
1026.024, 1127.905
1026.506, 1136.610
1026.989, 1150.962
1027.471, 1170.498
1027.953, 1187.132
1028.435, 1190.333
1028.917, 1193.798
1029.399, 1207.276
1029.881, 1229.302
1030.363, 1249.298
1030.845, 1266.972
1031.328, 1284.311
1031.810, 1302.844
1032.292, 1320.077
1032.774, 1329.140
1033.256, 1334.381
1033.738, 1344.864
1034.220, 1365.736
1034.702, 1387.678
1035.184, 1408.329
1035.667, 1429.752
1036.149, 1454.642
1036.631, 1483.132
1037.113, 1508.036
1037.595, 1529.212
1038.077, 1552.215
1038.559, 1584.967
1039.041, 1618.536
1039.524, 1644.133
1040.006, 1661.995
1040.488, 1685.543
1040.970, 1718.554
1041.452, 1749.271
1041.934, 1774.638
1042.416, 1794.507
1042.898, 1806.840
1043.380, 1814.090
1043.863, 1823.297
1044.345, 1839.273
1044.827, 1853.323
1045.309, 1860.687
1045.791, 1865.535
1046.273, 1871.960
1046.755, 1880.338
1047.237, 1886.661
1047.719, 1890.876
1048.202, 1891.720
1048.684, 1894.475
1049.166, 1888.894
1049.648, 1858.288
1050.130, 1804.324
1050.612, 1761.789
1051.094, 1742.174
1051.576, 1718.765
1052.059, 1682.886
1052.541, 1639.576
1053.023, 1598.946
1053.505, 1560.790
1053.987, 1523.340
1054.469, 1486.316
1054.951, 1449.394
1055.433, 1415.841
1055.916, 1379.832
1056.398, 1335.285
1056.880, 1280.251
1057.362, 1225.144
1057.844, 1169.097
1058.326, 1121.205
1058.808, 1093.949
1059.290, 1075.214
1059.772, 1052.780
1060.255, 1026.119
1060.737, 999.1096
1061.219, 971.5201
1061.701, 944.0715
1062.183, 915.4394
1062.665, 888.8926
1063.147, 874.9092
1063.629, 869.1939
1064.111, 856.9488
1064.594, 831.4034
1065.076, 805.2684
1065.558, 779.4834
1066.040, 760.5341
1066.522, 756.1954
1067.004, 770.3927
1067.486, 768.7738
1067.968, 750.3384
1068.450, 729.8269
1068.933, 717.1888
1069.415, 708.5080
1069.897, 700.5209
1070.379, 693.0902
1070.861, 686.3492
1071.343, 679.6601
1071.825, 675.2501
1072.307, 674.5745
1072.790, 674.6029
1073.272, 668.2666
1073.754, 658.5402
1074.236, 655.1323
1074.718, 662.6846
1075.200, 665.6614
1075.682, 649.3661
1076.164, 632.5654
1076.646, 628.9756
1077.129, 638.4897
1077.611, 639.3531
1078.093, 631.5479
1078.575, 622.4392
1079.057, 612.5192
1079.539, 606.9138
1080.021, 616.3185
1080.503, 633.3687
1080.985, 637.4635
1081.468, 620.8615
1081.950, 606.6780
1082.432, 597.6828
1082.914, 591.2817
1083.396, 584.4371
1083.878, 577.7399
1084.360, 571.8896
1084.842, 566.8738
1085.325, 564.7346
1085.807, 567.6953
1086.289, 572.6744
1086.771, 580.5421
1087.253, 589.1032
1087.735, 583.0008
1088.217, 564.6966
1088.699, 554.7545
1089.182, 569.5652
1089.664, 584.9456
1090.146, 582.0319
1090.628, 570.6469
1091.110, 565.4588
1091.592, 570.1115
1092.074, 568.0296
1092.556, 557.3978
1093.038, 546.9337
1093.521, 547.2836
1094.003, 550.9478
1094.485, 546.3007
1094.967, 533.9618
1095.449, 527.3951
1095.931, 535.1567
1096.413, 539.6044
1096.895, 534.9163
1097.377, 526.3423
1097.860, 524.9462
1098.342, 529.2958
1098.824, 534.9496
1099.306, 540.7000
1099.788, 547.7569
1100.270, 562.6345
1100.752, 573.7929
1101.234, 572.0815
1101.717, 557.1793
1102.199, 542.5450
1102.681, 528.1631
1103.163, 517.6421
1103.645, 516.8845
1104.127, 517.7784
1104.609, 511.3759
1105.091, 501.7778
1105.573, 500.4645
1106.056, 511.1664
1106.538, 520.2264
1107.020, 526.1935
1107.502, 529.5210
1107.984, 529.3107
1108.466, 527.3679
1108.948, 526.8328
1109.430, 528.1901
1109.912, 527.9877
1110.395, 526.2102
1110.877, 521.1660
1111.359, 506.3044
1111.841, 513.3302
1112.323, 517.0887
1112.805, 517.7556
1113.287, 506.0716
1113.769, 510.3363
1114.252, 508.2087
1114.734, 505.8197
1115.216, 512.3293
1115.698, 502.4416
1116.180, 508.8100
1116.662, 508.6893
1117.144, 511.5385
1117.626, 507.9567
1118.109, 506.3602
1118.591, 511.1979
1119.073, 512.4734
1119.555, 508.1512
1120.037, 511.1892
1120.519, 501.0768
1121.001, 502.5042
1121.483, 508.9102
1121.965, 504.9114
1122.448, 508.0660
1122.930, 508.4968
1123.412, 496.5446
1123.894, 495.3349
1124.376, 495.5509
1124.858, 506.6329
1125.340, 511.1654
1125.822, 497.6544
1126.304, 475.2938
1126.787, 470.0385
1127.269, 477.8985
1127.751, 487.3532
1128.233, 495.1321
1128.715, 502.0102
1129.197, 510.8519
1129.679, 516.4550
1130.161, 512.0633
1130.644, 498.4836
1131.126, 490.2657
1131.608, 487.7553
1132.090, 488.1460
1132.572, 490.0623
1133.054, 493.8589
1133.536, 503.6382
1134.018, 514.7931
1134.500, 513.4565
1134.983, 497.4987
1135.465, 489.6251
1135.947, 495.2262
1136.429, 502.6315
1136.911, 498.2144
1137.393, 490.1878
1137.875, 487.3400
1138.357, 491.4991
1138.839, 494.7268
1139.322, 497.0643
1139.804, 498.1335
1140.286, 497.5622
1140.768, 495.9031
1141.250, 494.5458
1141.732, 492.7292
1142.214, 488.7584
1142.696, 478.6631
1143.179, 473.1590
1143.661, 474.8213
1144.143, 477.6471
1144.625, 474.9943
1145.107, 469.8209
1145.589, 472.8759
1146.071, 483.1136
1146.553, 493.1695
1147.036, 502.3625
1147.518, 507.2004
1148.000, 505.4066
1148.482, 500.4285
1148.964, 497.8599
1149.446, 497.3434
1149.928, 496.0920
1150.410, 493.4977
1150.892, 493.3969
1151.375, 501.3093
1151.857, 509.8132
1152.339, 514.7713
1152.821, 516.2483
1153.303, 513.3318
1153.785, 506.0974
1154.267, 500.4183
1154.749, 497.1890
1155.231, 498.5832
1155.714, 511.3831
1156.196, 527.1418
1156.678, 536.2155
1157.160, 538.2064
1157.642, 533.1752
1158.124, 519.7956
1158.606, 509.2614
1159.088, 512.5347
1159.571, 519.4529
1160.053, 517.0729
1160.535, 509.2239
1161.017, 505.4723
1161.499, 508.2636
1161.981, 513.1878
1162.463, 521.0788
1162.945, 527.5332
1163.427, 526.3658
1163.910, 521.4097
1164.392, 517.8048
1164.874, 516.0041
1165.356, 516.3718
1165.838, 521.7600
1166.320, 524.3873
1166.802, 521.2025
1167.284, 516.6761
1167.766, 520.2183
1168.249, 528.1376
1168.731, 530.9283
1169.213, 525.1963
1169.695, 523.7374
1170.177, 536.9860
1170.659, 547.6365
1171.141, 545.8832
1171.623, 536.8925
1172.106, 542.7819
1172.588, 558.4514
1173.070, 563.6860
1173.552, 541.9214
1174.034, 523.6917
1174.516, 522.1664
1174.998, 528.5446
1175.480, 540.0586
1175.963, 555.9185
1176.445, 555.9869
1176.927, 541.8557
1177.409, 530.9615
1177.891, 537.5847
1178.373, 546.2497
1178.855, 550.4915
1179.337, 551.2186
1179.819, 548.5367
1180.302, 542.2989
1180.784, 540.9713
1181.266, 545.5866
1181.748, 551.3453
1182.230, 554.1595
1182.712, 557.0758
1183.194, 563.8199
1183.676, 572.6542
1184.158, 576.3768
1184.641, 574.7553
1185.123, 570.4013
1185.605, 562.9855
1186.087, 557.0107
1186.569, 558.4894
1187.051, 562.4358
1187.533, 563.9606
1188.015, 562.6044
1188.498, 560.6549
1188.980, 558.2724
1189.462, 553.5362
1189.944, 542.4394
1190.426, 533.8453
1190.908, 541.1407
1191.390, 556.6097
1191.872, 569.6858
1192.354, 581.6543
1192.837, 580.3155
1193.319, 562.4462
1193.801, 547.2040
1194.283, 552.9498
1194.765, 565.2336
1195.247, 564.1807
1195.729, 553.9658
1196.211, 545.5079
1196.693, 538.9691
1197.176, 538.8063
1197.658, 547.3420
1198.140, 555.2760
1198.622, 549.3171
1199.104, 539.0990
1199.586, 540.9184
1200.068, 553.5275
1200.550, 560.6149
1201.033, 556.5098
1201.515, 552.7656
1201.997, 551.2020
1202.479, 551.2173
1202.961, 553.8458
1203.443, 556.6618
1203.925, 553.5872
1204.407, 543.1988
1204.890, 541.4932
1205.372, 558.9158
1205.854, 568.3537
1206.336, 557.5142
1206.818, 538.6356
1207.300, 536.7002
1207.782, 545.2751
1208.264, 552.4069
1208.746, 556.1790
1209.229, 554.8765
1209.711, 545.9661
1210.193, 537.1158
1210.675, 532.0536
1211.157, 530.0696
1211.639, 529.3861
1212.121, 530.0748
1212.603, 532.3413
1213.085, 537.9048
1213.568, 542.2252
1214.050, 544.0941
1214.532, 545.9909
1215.014, 552.0941
1215.496, 559.3513
1215.978, 556.1436
1216.460, 545.0788
1216.942, 536.9954
1217.425, 540.1534
1217.907, 541.2424
1218.389, 536.9765
1218.871, 531.8542
1219.353, 531.1127
1219.835, 533.6938
1220.317, 537.6725
1220.799, 542.5547
1221.281, 545.3170
1221.764, 544.8328
1222.246, 541.1864
1222.728, 532.3527
1223.210, 523.4997
1223.692, 525.3179
1224.174, 533.5919
1224.656, 536.8390
1225.138, 533.2747
1225.620, 528.6748
1226.103, 521.6165
1226.585, 519.0406
1227.067, 525.4816
1227.549, 534.9044
1228.031, 532.1633
1228.513, 521.4818
1228.995, 514.8138
1229.477, 516.0229
1229.960, 515.0461
1230.442, 503.7791
1230.924, 497.1783
1231.406, 504.2466
1231.888, 518.9689
1232.370, 523.3198
1232.852, 521.0273
1233.334, 523.1183
1233.816, 537.5410
1234.299, 545.7321
1234.781, 541.4280
1235.263, 534.5779
1235.745, 531.1891
1236.227, 530.3233
1236.709, 529.2520
1237.191, 528.0836
1237.673, 527.1984
1238.156, 525.2571
1238.638, 526.1191
1239.120, 531.3987
1239.602, 537.1765
1240.084, 541.1292
1240.566, 542.4856
1241.048, 535.8973
1241.530, 523.8760
1242.012, 517.3169
1242.495, 526.1746
1242.977, 533.1171
1243.459, 536.1822
1243.941, 535.6718
1244.423, 528.3005
1244.905, 518.7692
1245.387, 519.2571
1245.869, 529.0744
1246.351, 537.2397
1246.834, 540.1147
1247.316, 540.5889
1247.798, 538.0080
1248.280, 535.4738
1248.762, 537.2887
1249.244, 542.1986
1249.726, 550.3676
1250.208, 561.5680
1250.691, 562.4910
1251.173, 541.8503
1251.655, 530.9203
1252.137, 539.8828
1252.619, 556.6479
1253.101, 563.8534
1253.583, 565.2946
1254.065, 567.3002
1254.547, 571.1932
1255.030, 570.5223
1255.512, 562.7925
1255.994, 556.9175
1256.476, 557.1014
1256.958, 558.6421
1257.440, 553.1799
1257.922, 544.7881
1258.404, 538.6080
1258.886, 534.8773
1259.369, 540.0773
1259.851, 557.3623
1260.333, 570.5625
1260.815, 570.2028
1261.297, 565.1149
1261.779, 567.2695
1262.261, 572.4337
1262.743, 573.7239
1263.226, 568.4429
1263.708, 567.7129
1264.190, 572.3352
1264.672, 576.0446
1265.154, 572.3983
1265.636, 569.1435
1266.118, 578.2687
1266.600, 591.6406
1267.083, 595.1907
1267.565, 585.5777
1268.047, 578.3992
1268.529, 573.8069
1269.011, 569.3077
1269.493, 559.5762
1269.975, 552.8759
1270.457, 560.4349
1270.939, 573.5651
1271.422, 575.9493
1271.904, 565.7463
1272.386, 561.1866
1272.868, 562.9029
1273.350, 564.7608
1273.832, 560.3256
1274.314, 556.9012
1274.796, 559.4327
1275.278, 565.8683
1275.761, 576.0229
1276.243, 589.2835
1276.725, 584.3300
1277.207, 560.2310
1277.689, 543.3813
1278.171, 556.9311
1278.653, 574.4727
1279.135, 585.6711
1279.618, 592.0070
1280.100, 595.2382
1280.582, 595.9205
1281.064, 598.8778
1281.546, 604.5009
1282.028, 601.6347
1282.510, 570.3843
1282.992, 547.9182
1283.474, 546.9460
1283.957, 558.8590
##END=



