##NAMES=Almandine
##RRUFFID=R040079
##IDEAL CHEMISTRY=Fe^2+^_3_Al_2_(SiO_4_)_3_
##LOCALITY=Ontario, Canada
##OWNER=RRUFF
##SOURCE=University of Arizona Mineral Museum
##DESCRIPTION=Dark red dodecahedral crystal
##STATUS=The identification of this mineral has been confirmed by X-ray diffraction and chemical analysis
##URL=rruff.info/R040079
##MEASURED CHEMISTRY=(Fe^2+^_2.29_Mg_0.53_Ca_0.18_)_Î£=3_Al_2.00_(Si_1.00_O_4_)_3_
128.6837, 3498.786
129.1658, 3496.330
129.6479, 3509.509
130.1300, 3526.375
130.6121, 3555.308
131.0942, 3582.265
131.5764, 3593.953
132.0585, 3584.442
132.5406, 3559.484
133.0227, 3539.318
133.5048, 3520.258
133.9869, 3510.669
134.4691, 3521.066
134.9512, 3541.130
135.4333, 3552.864
135.9154, 3543.375
136.3975, 3514.426
136.8796, 3499.157
137.3618, 3500.078
137.8439, 3508.974
138.3260, 3526.238
138.8081, 3550.241
139.2902, 3572.671
139.7723, 3587.120
140.2545, 3592.899
140.7366, 3593.991
141.2187, 3588.655
141.7008, 3579.576
142.1829, 3566.734
142.6650, 3548.055
143.1472, 3534.578
143.6293, 3547.055
144.1114, 3579.136
144.5935, 3598.155
145.0756, 3578.876
145.5577, 3533.880
146.0399, 3505.140
146.5220, 3503.205
147.0041, 3516.569
147.4862, 3538.787
147.9683, 3568.836
148.4504, 3594.777
148.9326, 3605.390
149.4147, 3599.592
149.8968, 3590.813
150.3789, 3569.565
150.8610, 3553.609
151.3431, 3555.988
151.8252, 3579.213
152.3074, 3611.613
152.7895, 3636.146
153.2716, 3652.359
153.7537, 3660.595
154.2358, 3657.295
154.7179, 3649.708
155.2001, 3641.411
155.6822, 3633.809
156.1643, 3630.507
156.6464, 3642.892
157.1285, 3697.115
157.6106, 3738.020
158.0928, 3754.803
158.5749, 3756.136
159.0570, 3752.986
159.5391, 3751.402
160.0212, 3751.610
160.5033, 3756.635
160.9855, 3764.170
161.4676, 3777.874
161.9497, 3805.744
162.4318, 3842.302
162.9139, 3872.884
163.3960, 3885.846
163.8782, 3880.050
164.3603, 3873.978
164.8424, 3858.308
165.3245, 3849.166
165.8066, 3858.820
166.2887, 3887.730
166.7709, 3926.104
167.2530, 3970.310
167.7351, 4019.681
168.2172, 4052.632
168.6993, 4068.760
169.1814, 4066.438
169.6636, 4036.789
170.1457, 3972.641
170.6278, 3904.429
171.1099, 3865.531
171.5920, 3850.600
172.0741, 3839.947
172.5563, 3835.026
173.0384, 3829.458
173.5205, 3802.389
174.0026, 3739.348
174.4847, 3668.583
174.9668, 3612.518
175.4490, 3570.554
175.9311, 3538.324
176.4132, 3514.971
176.8953, 3500.175
177.3774, 3487.331
177.8595, 3480.694
178.3417, 3471.076
178.8238, 3450.304
179.3059, 3418.035
179.7880, 3384.412
180.2701, 3360.095
180.7522, 3345.771
181.2344, 3337.874
181.7165, 3342.177
182.1986, 3348.483
182.6807, 3350.708
183.1628, 3347.181
183.6449, 3340.296
184.1271, 3333.728
184.6092, 3326.918
185.0913, 3321.748
185.5734, 3307.975
186.0555, 3300.528
186.5376, 3318.936
187.0198, 3362.723
187.5019, 3376.463
187.9840, 3386.053
188.4661, 3391.718
188.9482, 3381.698
189.4303, 3391.931
189.9125, 3394.049
190.3946, 3395.833
190.8767, 3408.917
191.3588, 3401.177
191.8409, 3414.082
192.3230, 3418.746
192.8052, 3427.183
193.2873, 3427.451
193.7694, 3430.472
194.2515, 3434.576
194.7336, 3439.345
195.2157, 3445.083
195.6979, 3455.671
196.1800, 3482.627
196.6621, 3501.771
197.1442, 3496.723
197.6263, 3474.680
198.1084, 3457.994
198.5906, 3462.617
199.0727, 3487.478
199.5548, 3508.436
200.0369, 3521.378
200.5190, 3534.161
201.0011, 3553.277
201.4833, 3578.012
201.9654, 3599.816
202.4475, 3609.529
202.9296, 3609.475
203.4117, 3620.929
203.8938, 3657.333
204.3760, 3697.591
204.8581, 3720.681
205.3402, 3724.828
205.8223, 3727.133
206.3044, 3743.746
206.7865, 3770.194
207.2687, 3790.007
207.7508, 3794.980
208.2329, 3793.527
208.7150, 3797.145
209.1971, 3807.413
209.6792, 3818.919
210.1614, 3828.595
210.6435, 3836.391
211.1256, 3841.312
211.6077, 3836.129
212.0898, 3828.525
212.5719, 3839.960
213.0541, 3884.069
213.5362, 3920.856
214.0183, 3917.226
214.5004, 3885.274
214.9825, 3853.587
215.4646, 3838.257
215.9468, 3835.798
216.4289, 3833.014
216.9110, 3833.462
217.3931, 3827.265
217.8752, 3806.834
218.3573, 3775.812
218.8395, 3744.796
219.3216, 3721.202
219.8037, 3704.529
220.2858, 3687.837
220.7679, 3671.675
221.2500, 3654.769
221.7322, 3635.719
222.2143, 3615.260
222.6964, 3595.517
223.1785, 3575.631
223.6606, 3555.065
224.1427, 3546.681
224.6249, 3570.624
225.1070, 3589.354
225.5891, 3585.688
226.0712, 3562.541
226.5533, 3534.063
227.0354, 3512.546
227.5176, 3498.801
227.9997, 3486.885
228.4818, 3478.562
228.9639, 3470.607
229.4460, 3460.869
229.9281, 3449.991
230.4103, 3440.632
230.8924, 3435.778
231.3745, 3436.246
231.8566, 3437.585
232.3387, 3442.330
232.8208, 3445.790
233.3030, 3446.128
233.7851, 3443.079
234.2672, 3436.910
234.7493, 3426.832
235.2314, 3409.655
235.7135, 3400.726
236.1957, 3408.551
236.6778, 3416.299
237.1599, 3413.068
237.6420, 3399.301
238.1241, 3384.347
238.6062, 3380.014
239.0884, 3392.734
239.5705, 3394.458
240.0526, 3377.360
240.5347, 3357.552
241.0168, 3343.599
241.4989, 3336.790
241.9811, 3334.398
242.4632, 3333.403
242.9453, 3334.002
243.4274, 3335.689
243.9095, 3349.893
244.3916, 3356.819
244.8738, 3334.613
245.3559, 3284.977
245.8380, 3236.561
246.3201, 3224.552
246.8022, 3266.261
247.2843, 3290.650
247.7665, 3284.572
248.2486, 3272.316
248.7307, 3273.302
249.2128, 3288.998
249.6949, 3305.017
250.1770, 3304.159
250.6592, 3279.049
251.1413, 3261.647
251.6234, 3259.166
252.1055, 3259.062
252.5876, 3249.226
253.0697, 3229.156
253.5519, 3210.763
254.0340, 3208.663
254.5161, 3229.374
254.9982, 3240.494
255.4803, 3228.093
255.9624, 3215.404
256.4445, 3226.270
256.9267, 3262.086
257.4088, 3297.732
257.8909, 3305.421
258.3730, 3276.657
258.8551, 3259.816
259.3372, 3267.606
259.8194, 3279.175
260.3015, 3276.383
260.7836, 3257.545
261.2657, 3234.360
261.7478, 3216.497
262.2299, 3204.623
262.7121, 3201.625
263.1942, 3220.531
263.6763, 3239.906
264.1584, 3236.686
264.6405, 3209.963
265.1227, 3185.998
265.6048, 3192.802
266.0869, 3233.098
266.5690, 3252.850
267.0511, 3230.036
267.5332, 3200.372
268.0154, 3199.471
268.4975, 3228.308
268.9796, 3251.202
269.4617, 3232.074
269.9438, 3171.798
270.4259, 3140.876
270.9081, 3167.708
271.3902, 3205.751
271.8723, 3218.236
272.3544, 3203.966
272.8365, 3182.384
273.3186, 3165.179
273.8008, 3153.263
274.2829, 3147.461
274.7650, 3147.833
275.2471, 3154.298
275.7292, 3172.062
276.2113, 3199.631
276.6935, 3220.909
277.1756, 3223.141
277.6577, 3208.260
278.1398, 3197.233
278.6219, 3193.389
279.1040, 3190.684
279.5862, 3183.076
280.0683, 3171.515
280.5504, 3164.548
281.0325, 3169.791
281.5146, 3183.589
281.9967, 3189.788
282.4789, 3182.305
282.9610, 3172.954
283.4431, 3170.300
283.9252, 3172.948
284.4073, 3172.135
284.8894, 3160.263
285.3716, 3143.332
285.8537, 3139.247
286.3358, 3156.331
286.8179, 3175.159
287.3000, 3183.915
287.7821, 3184.934
288.2643, 3187.468
288.7464, 3196.016
289.2285, 3208.664
289.7106, 3221.382
290.1927, 3239.617
290.6748, 3248.810
291.1570, 3231.431
291.6391, 3197.626
292.1212, 3181.115
292.6033, 3200.457
293.0854, 3236.745
293.5675, 3250.943
294.0497, 3238.434
294.5318, 3221.889
295.0139, 3207.255
295.4960, 3195.246
295.9781, 3187.028
296.4602, 3182.395
296.9424, 3183.007
297.4245, 3195.173
297.9066, 3222.497
298.3887, 3242.456
298.8708, 3245.446
299.3529, 3236.942
299.8351, 3224.285
300.3172, 3207.753
300.7993, 3193.151
301.2814, 3189.798
301.7635, 3197.729
302.2456, 3208.727
302.7278, 3221.477
303.2099, 3236.063
303.6920, 3253.614
304.1741, 3274.727
304.6562, 3295.371
305.1383, 3311.364
305.6205, 3322.618
306.1026, 3330.469
306.5847, 3326.825
307.0668, 3324.279
307.5489, 3338.889
308.0310, 3372.667
308.5132, 3409.731
308.9953, 3437.551
309.4774, 3455.163
309.9595, 3463.058
310.4416, 3442.983
310.9237, 3426.052
311.4059, 3442.472
311.8880, 3491.016
312.3701, 3542.371
312.8522, 3575.639
313.3343, 3590.539
313.8164, 3604.379
314.2986, 3623.857
314.7807, 3636.413
315.2628, 3628.447
315.7449, 3604.866
316.2270, 3586.324
316.7091, 3586.278
317.1913, 3601.812
317.6734, 3614.454
318.1555, 3626.170
318.6376, 3633.581
319.1197, 3630.055
319.6018, 3621.057
320.0840, 3619.834
320.5661, 3633.558
321.0482, 3657.953
321.5303, 3679.012
322.0124, 3697.114
322.4945, 3712.198
322.9767, 3721.053
323.4588, 3727.634
323.9409, 3737.649
324.4230, 3753.267
324.9051, 3773.249
325.3872, 3795.624
325.8694, 3821.973
326.3515, 3847.803
326.8336, 3874.068
327.3157, 3898.862
327.7978, 3916.615
328.2799, 3926.588
328.7621, 3939.977
329.2442, 3973.918
329.7263, 4041.541
330.2084, 4097.152
330.6905, 4138.521
331.1726, 4170.143
331.6548, 4189.417
332.1369, 4199.089
332.6190, 4212.316
333.1011, 4243.161
333.5832, 4294.956
334.0653, 4346.772
334.5475, 4397.624
335.0296, 4449.332
335.5117, 4502.497
335.9938, 4557.141
336.4759, 4611.701
336.9580, 4662.546
337.4402, 4710.160
337.9223, 4788.979
338.4044, 4949.836
338.8865, 5085.469
339.3686, 5158.395
339.8507, 5188.422
340.3329, 5207.074
340.8150, 5230.788
341.2971, 5262.914
341.7792, 5318.147
342.2613, 5408.611
342.7434, 5509.708
343.2256, 5634.654
343.7077, 5761.636
344.1898, 5864.889
344.6719, 5934.565
345.1540, 5985.527
345.6361, 6050.990
346.1183, 6154.076
346.6004, 6224.620
347.0825, 6260.868
347.5646, 6267.346
348.0467, 6242.516
348.5288, 6188.146
349.0110, 6114.341
349.4931, 6034.801
349.9752, 5952.070
350.4573, 5852.073
350.9394, 5721.810
351.4215, 5583.152
351.9037, 5438.817
352.3858, 5292.921
352.8679, 5155.412
353.3500, 5037.436
353.8321, 4938.612
354.3142, 4838.428
354.7964, 4730.770
355.2785, 4630.438
355.7606, 4542.694
356.2427, 4465.724
356.7248, 4395.088
357.2069, 4328.360
357.6891, 4266.591
358.1712, 4213.494
358.6533, 4169.853
359.1354, 4132.980
359.6175, 4100.494
360.0996, 4074.094
360.5818, 4057.471
361.0639, 4053.563
361.5460, 4055.343
362.0281, 4053.669
362.5102, 4048.101
362.9923, 4042.912
363.4745, 4039.023
363.9566, 4036.512
364.4387, 4033.691
364.9208, 4029.459
365.4029, 4032.061
365.8850, 4055.000
366.3672, 4093.046
366.8493, 4117.125
367.3314, 4117.117
367.8135, 4106.666
368.2956, 4098.825
368.7777, 4093.435
369.2599, 4089.095
369.7420, 4087.198
370.2241, 4085.504
370.7062, 4080.365
371.1883, 4071.330
371.6704, 4058.958
372.1526, 4041.404
372.6347, 4019.938
373.1168, 4002.137
373.5989, 4000.979
374.0810, 3994.857
374.5631, 3956.470
375.0453, 3890.232
375.5274, 3837.882
376.0095, 3832.148
376.4916, 3856.382
376.9737, 3838.723
377.4558, 3739.262
377.9380, 3648.610
378.4201, 3608.330
378.9022, 3598.807
379.3843, 3582.300
379.8664, 3543.405
380.3485, 3493.119
380.8307, 3455.049
381.3128, 3437.751
381.7949, 3416.660
382.2770, 3385.323
382.7591, 3352.174
383.2412, 3326.650
383.7234, 3309.957
384.2055, 3295.284
384.6876, 3274.273
385.1697, 3243.905
385.6518, 3220.266
386.1339, 3214.052
386.6161, 3203.549
387.0982, 3167.727
387.5803, 3116.868
388.0624, 3082.234
388.5445, 3089.546
389.0266, 3133.210
389.5088, 3152.135
389.9909, 3120.902
390.4730, 3092.333
390.9551, 3074.722
391.4372, 3065.023
391.9193, 3060.115
392.4015, 3058.830
392.8836, 3058.249
393.3657, 3051.019
393.8478, 3031.673
394.3299, 3019.416
394.8120, 3020.525
395.2942, 3026.469
395.7763, 3032.067
396.2584, 3036.426
396.7405, 3041.334
397.2226, 3050.608
397.7047, 3064.296
398.1869, 3070.924
398.6690, 3066.276
399.1511, 3058.162
399.6332, 3052.757
400.1153, 3048.154
400.5974, 3038.335
401.0796, 3012.507
401.5617, 2981.547
402.0438, 2973.204
402.5259, 2993.528
403.0080, 3012.650
403.4901, 3011.143
403.9723, 2999.031
404.4544, 2991.225
404.9365, 2992.297
405.4186, 2994.676
405.9007, 2990.542
406.3828, 2981.473
406.8650, 2976.720
407.3471, 2981.079
407.8292, 2989.262
408.3113, 2990.618
408.7934, 2982.007
409.2755, 2981.899
409.7577, 3004.854
410.2398, 3036.156
410.7219, 3054.557
411.2040, 3056.220
411.6861, 3052.656
412.1682, 3054.357
412.6504, 3061.948
413.1325, 3072.877
413.6146, 3095.070
414.0967, 3113.346
414.5788, 3117.862
415.0609, 3111.014
415.5431, 3100.446
416.0252, 3090.185
416.5073, 3080.974
416.9894, 3076.164
417.4715, 3073.523
417.9536, 3078.448
418.4358, 3101.555
418.9179, 3127.875
419.4000, 3138.896
419.8821, 3129.877
420.3642, 3114.607
420.8463, 3115.495
421.3285, 3141.640
421.8106, 3158.882
422.2927, 3161.277
422.7748, 3160.473
423.2569, 3159.231
423.7390, 3159.340
424.2212, 3164.083
424.7033, 3178.106
425.1854, 3199.034
425.6675, 3210.897
426.1496, 3203.828
426.6317, 3204.646
427.1139, 3236.376
427.5960, 3276.552
428.0781, 3293.011
428.5602, 3268.443
429.0423, 3234.441
429.5244, 3234.499
430.0066, 3269.525
430.4887, 3297.453
430.9708, 3305.417
431.4529, 3301.844
431.9350, 3294.334
432.4171, 3282.305
432.8993, 3277.317
433.3814, 3288.680
433.8635, 3309.809
434.3456, 3329.511
434.8277, 3346.371
435.3098, 3361.520
435.7920, 3377.167
436.2741, 3392.466
436.7562, 3400.383
437.2383, 3392.217
437.7204, 3384.382
438.2025, 3383.479
438.6847, 3390.498
439.1668, 3411.027
439.6489, 3450.861
440.1310, 3497.370
440.6131, 3515.665
441.0952, 3474.777
441.5774, 3449.051
442.0595, 3451.365
442.5416, 3464.693
443.0237, 3476.603
443.5058, 3483.484
443.9879, 3484.408
444.4701, 3477.447
444.9522, 3461.247
445.4343, 3446.988
445.9164, 3428.647
446.3985, 3418.534
446.8806, 3426.303
447.3628, 3444.679
447.8449, 3461.798
448.3270, 3472.459
448.8091, 3475.044
449.2912, 3462.964
449.7733, 3429.278
450.2555, 3400.372
450.7376, 3386.101
451.2197, 3377.369
451.7018, 3363.807
452.1839, 3344.108
452.6660, 3336.023
453.1482, 3374.831
453.6303, 3443.257
454.1124, 3452.355
454.5945, 3370.551
455.0766, 3275.886
455.5587, 3237.009
456.0409, 3238.232
456.5230, 3238.359
457.0051, 3226.142
457.4872, 3210.641
457.9693, 3199.829
458.4514, 3193.031
458.9336, 3186.344
459.4156, 3178.203
459.8978, 3168.621
460.3799, 3157.393
460.8620, 3143.713
461.3441, 3130.227
461.8262, 3115.050
462.3083, 3101.472
462.7905, 3094.622
463.2726, 3094.709
463.7547, 3095.861
464.2368, 3092.154
464.7189, 3083.362
465.2010, 3071.480
465.6832, 3048.073
466.1653, 3030.795
466.6474, 3026.095
467.1295, 3031.273
467.6116, 3043.783
468.0938, 3063.256
468.5759, 3082.869
469.0580, 3085.145
469.5401, 3048.920
470.0222, 3057.792
470.5043, 3062.514
470.9865, 3063.311
471.4686, 3048.423
471.9507, 3053.789
472.4328, 3051.038
472.9149, 3047.954
473.3970, 3056.170
473.8792, 3043.564
474.3613, 3051.601
474.8434, 3051.398
475.3255, 3056.595
475.8076, 3063.147
476.2897, 3064.273
476.7719, 3050.554
477.2540, 3038.504
477.7361, 3044.757
478.2182, 3046.861
478.7003, 3045.040
479.1824, 3027.533
479.6646, 3030.279
480.1467, 3024.910
480.6288, 3019.207
481.1109, 3024.805
481.5930, 3009.580
482.0751, 3009.907
482.5573, 3009.027
483.0394, 3007.737
483.5215, 3002.837
484.0036, 2991.743
484.4857, 2975.288
484.9678, 2958.685
485.4500, 2933.656
485.9321, 2920.257
486.4142, 2927.252
486.8963, 2943.166
487.3784, 2959.095
487.8605, 2972.076
488.3427, 2980.765
488.8248, 2978.536
489.3069, 2964.257
489.7890, 2968.967
490.2711, 3008.275
490.7532, 3048.241
491.2354, 3065.648
491.7175, 3069.583
492.1996, 3082.010
492.6817, 3115.361
493.1638, 3156.607
493.6459, 3188.183
494.1281, 3211.337
494.6102, 3244.033
495.0923, 3297.697
495.5744, 3358.835
496.0565, 3401.695
496.5386, 3422.282
497.0208, 3447.631
497.5029, 3489.052
497.9850, 3535.098
498.4671, 3573.713
498.9492, 3604.264
499.4313, 3635.993
499.9135, 3679.473
500.3956, 3731.431
500.8777, 3749.118
501.3598, 3709.521
501.8419, 3663.007
502.3240, 3613.895
502.8062, 3563.662
503.2883, 3511.869
503.7704, 3458.882
504.2525, 3407.712
504.7346, 3362.263
505.2167, 3323.563
505.6989, 3285.153
506.1810, 3251.194
506.6631, 3212.283
507.1452, 3158.804
507.6273, 3097.643
508.1094, 3043.624
508.5916, 3003.044
509.0737, 2972.490
509.5558, 2949.584
510.0379, 2934.198
510.5200, 2920.741
511.0021, 2908.344
511.4843, 2895.760
511.9664, 2880.036
512.4485, 2860.209
512.9306, 2844.110
513.4127, 2838.522
513.8948, 2834.552
514.3770, 2820.469
514.8591, 2797.484
515.3412, 2779.112
515.8233, 2775.454
516.3054, 2784.063
516.7875, 2789.321
517.2697, 2787.695
517.7518, 2787.025
518.2339, 2792.703
518.7160, 2797.035
519.1981, 2788.836
519.6802, 2767.743
520.1624, 2748.151
520.6445, 2749.335
521.1266, 2772.108
521.6087, 2781.691
522.0908, 2770.654
522.5729, 2756.945
523.0551, 2745.456
523.5372, 2737.480
524.0193, 2736.497
524.5014, 2746.719
524.9835, 2756.665
525.4656, 2751.105
525.9478, 2733.823
526.4299, 2725.978
526.9120, 2735.538
527.3941, 2749.378
527.8762, 2749.982
528.3583, 2736.499
528.8405, 2732.206
529.3226, 2748.157
529.8047, 2766.059
530.2868, 2775.081
530.7689, 2776.083
531.2510, 2771.783
531.7332, 2762.881
532.2153, 2753.863
532.6974, 2756.768
533.1795, 2783.753
533.6616, 2800.427
534.1437, 2804.740
534.6259, 2801.224
535.1080, 2785.097
535.5901, 2762.193
536.0722, 2750.724
536.5543, 2769.891
537.0364, 2806.492
537.5186, 2814.818
538.0007, 2785.418
538.4828, 2764.039
538.9649, 2775.371
539.4470, 2799.065
539.9291, 2810.039
540.4113, 2804.337
540.8934, 2802.887
541.3755, 2821.649
541.8576, 2848.935
542.3397, 2865.035
542.8218, 2868.001
543.3040, 2870.401
543.7861, 2881.089
544.2682, 2899.404
544.7503, 2920.092
545.2324, 2942.813
545.7145, 2968.013
546.1967, 2993.852
546.6788, 3023.041
547.1609, 3063.203
547.6430, 3113.478
548.1251, 3159.077
548.6072, 3181.212
549.0894, 3178.934
549.5715, 3183.532
550.0536, 3197.255
550.5357, 3215.178
551.0178, 3232.490
551.4999, 3253.314
551.9821, 3286.464
552.4642, 3338.117
552.9463, 3387.187
553.4284, 3408.113
553.9105, 3408.863
554.3926, 3424.934
554.8748, 3468.029
555.3569, 3507.843
555.8390, 3512.926
556.3211, 3483.370
556.8032, 3462.609
557.2853, 3462.164
557.7675, 3459.281
558.2496, 3446.360
558.7317, 3423.078
559.2138, 3386.553
559.6959, 3336.352
560.1780, 3282.007
560.6602, 3239.241
561.1423, 3212.694
561.6244, 3179.688
562.1065, 3134.433
562.5886, 3088.490
563.0707, 3042.176
563.5529, 2998.605
564.0350, 2962.429
564.5171, 2936.292
564.9992, 2916.911
565.4813, 2901.289
565.9634, 2889.220
566.4456, 2877.567
566.9277, 2865.993
567.4098, 2853.878
567.8919, 2839.429
568.3740, 2823.067
568.8561, 2809.565
569.3383, 2803.488
569.8204, 2796.826
570.3025, 2782.511
570.7846, 2763.449
571.2667, 2746.539
571.7488, 2734.626
572.2310, 2726.969
572.7131, 2722.999
573.1952, 2725.084
573.6773, 2724.402
574.1594, 2713.307
574.6415, 2707.136
575.1237, 2715.188
575.6058, 2733.073
576.0879, 2752.019
576.5700, 2769.224
577.0521, 2781.632
577.5342, 2781.652
578.0164, 2769.185
578.4985, 2760.000
578.9806, 2755.258
579.4627, 2758.651
579.9448, 2780.802
580.4269, 2818.912
580.9091, 2845.540
581.3912, 2849.055
581.8733, 2845.399
582.3554, 2843.792
582.8375, 2843.994
583.3196, 2843.927
583.8018, 2842.694
584.2839, 2841.504
584.7660, 2842.330
585.2481, 2844.933
585.7302, 2850.339
586.2123, 2870.351
586.6945, 2881.250
587.1766, 2865.614
587.6587, 2834.448
588.1408, 2810.074
588.6229, 2803.428
589.1050, 2805.419
589.5872, 2802.656
590.0693, 2795.461
590.5514, 2794.029
591.0335, 2803.606
591.5156, 2813.746
591.9977, 2812.393
592.4799, 2801.240
592.9620, 2792.367
593.4441, 2786.844
593.9262, 2784.556
594.4083, 2785.674
594.8904, 2789.951
595.3726, 2798.320
595.8547, 2810.946
596.3368, 2823.245
596.8189, 2827.125
597.3010, 2818.769
597.7831, 2820.261
598.2653, 2844.835
598.7474, 2865.584
599.2295, 2876.012
599.7116, 2876.526
600.1937, 2865.362
600.6758, 2839.357
601.1580, 2815.227
601.6401, 2814.762
602.1222, 2832.907
602.6043, 2845.545
603.0864, 2849.275
603.5685, 2845.389
604.0507, 2832.008
604.5328, 2810.520
605.0149, 2795.231
605.4970, 2786.750
605.9791, 2783.637
606.4612, 2790.610
606.9434, 2800.362
607.4255, 2802.989
607.9076, 2796.655
608.3897, 2787.379
608.8718, 2781.255
609.3539, 2778.232
609.8361, 2776.174
610.3182, 2775.069
610.8003, 2774.969
611.2824, 2779.052
611.7645, 2782.422
612.2466, 2778.134
612.7288, 2764.388
613.2109, 2752.199
613.6930, 2753.826
614.1751, 2760.279
614.6572, 2752.112
615.1393, 2728.104
615.6215, 2706.147
616.1036, 2696.881
616.5857, 2698.267
617.0678, 2702.857
617.5499, 2721.326
618.0320, 2728.003
618.5142, 2712.440
618.9963, 2691.903
619.4784, 2676.842
619.9605, 2669.053
620.4426, 2668.257
620.9247, 2675.675
621.4069, 2687.942
621.8890, 2695.928
622.3711, 2698.898
622.8532, 2701.891
623.3353, 2706.248
623.8174, 2711.098
624.2996, 2714.896
624.7817, 2717.817
625.2638, 2723.160
625.7459, 2738.298
626.2280, 2750.564
626.7101, 2744.913
627.1923, 2728.382
627.6744, 2719.495
628.1565, 2725.618
628.6386, 2741.519
629.1207, 2760.807
629.6028, 2787.758
630.0850, 2800.759
630.5671, 2779.047
631.0492, 2764.613
631.5313, 2777.051
632.0134, 2803.433
632.4955, 2825.292
632.9777, 2837.652
633.4598, 2838.606
633.9419, 2819.447
634.4240, 2786.885
634.9061, 2764.107
635.3882, 2754.949
635.8704, 2750.132
636.3525, 2744.244
636.8346, 2736.904
637.3167, 2725.470
637.7988, 2708.078
638.2809, 2689.790
638.7631, 2672.128
639.2452, 2653.451
639.7273, 2629.608
640.2094, 2602.215
640.6915, 2579.580
641.1736, 2568.375
641.6558, 2566.573
642.1379, 2570.740
642.6200, 2585.208
643.1021, 2585.533
643.5842, 2552.252
644.0663, 2513.509
644.5485, 2500.130
645.0306, 2511.438
645.5127, 2524.742
645.9948, 2540.290
646.4769, 2549.798
646.9590, 2544.718
647.4412, 2528.247
647.9233, 2505.781
648.4054, 2479.460
648.8875, 2457.084
649.3696, 2451.914
649.8517, 2468.270
650.3339, 2479.881
650.8160, 2481.735
651.2981, 2484.614
651.7802, 2498.426
652.2623, 2513.039
652.7444, 2511.542
653.2266, 2487.293
653.7087, 2463.132
654.1908, 2458.313
654.6729, 2466.013
655.1550, 2471.293
655.6371, 2472.585
656.1193, 2476.344
656.6014, 2488.648
657.0835, 2505.112
657.5656, 2508.948
658.0477, 2488.375
658.5298, 2470.842
659.0120, 2449.791
659.4941, 2437.369
659.9762, 2449.084
660.4583, 2477.364
660.9404, 2498.292
661.4225, 2496.830
661.9047, 2484.270
662.3868, 2479.980
662.8689, 2483.652
663.3510, 2486.405
663.8331, 2486.619
664.3152, 2484.623
664.7974, 2478.850
665.2795, 2469.861
665.7616, 2467.130
666.2437, 2476.664
666.7258, 2485.737
667.2079, 2491.376
667.6901, 2493.116
668.1722, 2488.090
668.6543, 2477.196
669.1364, 2468.150
669.6185, 2468.679
670.1006, 2477.330
670.5828, 2486.604
671.0649, 2498.955
671.5470, 2503.686
672.0291, 2492.934
672.5112, 2476.054
672.9933, 2461.473
673.4755, 2449.124
673.9576, 2445.423
674.4397, 2462.505
674.9218, 2479.984
675.4039, 2478.501
675.8860, 2464.752
676.3682, 2457.674
676.8503, 2464.504
677.3324, 2473.325
677.8145, 2464.196
678.2966, 2433.147
678.7787, 2416.885
679.2609, 2425.558
679.7430, 2434.324
680.2251, 2435.390
680.7072, 2430.378
681.1893, 2416.509
681.6714, 2390.019
682.1536, 2378.844
682.6357, 2419.255
683.1178, 2472.838
683.5999, 2481.585
684.0820, 2448.864
684.5641, 2419.801
685.0463, 2419.609
685.5284, 2434.381
686.0105, 2429.947
686.4926, 2390.685
686.9747, 2369.377
687.4568, 2381.291
687.9390, 2395.968
688.4211, 2403.868
688.9032, 2405.088
689.3853, 2399.705
689.8674, 2385.525
690.3495, 2372.986
690.8317, 2372.880
691.3138, 2380.462
691.7959, 2385.663
692.2780, 2387.121
692.7601, 2386.338
693.2422, 2383.410
693.7244, 2380.045
694.2065, 2383.497
694.6886, 2405.887
695.1707, 2415.088
695.6528, 2400.764
696.1349, 2382.506
696.6171, 2370.128
697.0992, 2363.799
697.5813, 2361.278
698.0634, 2361.900
698.5455, 2365.028
699.0276, 2372.406
699.5098, 2381.942
699.9919, 2384.585
700.4740, 2378.054
700.9561, 2372.215
701.4382, 2377.244
701.9203, 2390.337
702.4025, 2389.074
702.8846, 2353.721
703.3667, 2330.187
703.8488, 2327.814
704.3309, 2333.460
704.8130, 2338.628
705.2952, 2342.560
705.7773, 2347.674
706.2594, 2355.777
706.7415, 2364.969
707.2236, 2374.813
707.7057, 2384.164
708.1879, 2384.332
708.6700, 2371.959
709.1521, 2357.894
709.6342, 2351.959
710.1163, 2353.878
710.5984, 2357.887
711.0806, 2369.144
711.5627, 2375.580
712.0448, 2374.356
712.5269, 2368.400
713.0090, 2357.256
713.4911, 2343.151
713.9733, 2333.333
714.4554, 2333.758
714.9375, 2339.474
715.4196, 2342.820
715.9017, 2344.114
716.3839, 2345.898
716.8660, 2348.878
717.3481, 2352.351
717.8302, 2356.302
718.3123, 2360.699
718.7944, 2360.794
719.2766, 2355.177
719.7587, 2347.460
720.2408, 2330.936
720.7229, 2317.635
721.2050, 2322.965
721.6871, 2344.245
722.1693, 2361.324
722.6514, 2360.725
723.1335, 2349.077
723.6156, 2334.141
724.0977, 2316.937
724.5798, 2303.963
725.0620, 2296.470
725.5441, 2296.617
726.0262, 2309.894
726.5083, 2336.285
726.9904, 2345.748
727.4725, 2317.221
727.9547, 2299.675
728.4368, 2308.672
728.9189, 2326.298
729.4010, 2340.557
729.8831, 2348.348
730.3652, 2346.812
730.8474, 2327.595
731.3295, 2305.067
731.8116, 2304.241
732.2937, 2320.177
732.7758, 2326.323
733.2579, 2314.904
733.7401, 2301.146
734.2222, 2300.803
734.7043, 2313.171
735.1864, 2320.248
735.6685, 2318.006
736.1506, 2315.556
736.6328, 2318.547
737.1149, 2318.188
737.5970, 2301.188
738.0791, 2272.327
738.5612, 2255.093
739.0433, 2266.552
739.5255, 2288.933
740.0076, 2307.988
740.4897, 2321.337
740.9718, 2316.181
741.4539, 2289.489
741.9360, 2266.260
742.4182, 2270.838
742.9003, 2299.068
743.3824, 2314.569
743.8645, 2311.880
744.3466, 2305.542
744.8287, 2294.623
745.3109, 2283.205
745.7930, 2272.063
746.2751, 2262.572
746.7572, 2258.846
747.2393, 2264.316
747.7214, 2273.227
748.2036, 2281.753
748.6857, 2290.084
749.1678, 2301.819
749.6499, 2316.147
750.1320, 2319.555
750.6141, 2299.436
751.0963, 2263.954
751.5784, 2246.534
752.0605, 2253.527
752.5426, 2260.796
753.0247, 2267.160
753.5068, 2271.276
753.9890, 2272.212
754.4711, 2270.396
754.9532, 2266.731
755.4353, 2259.368
755.9174, 2253.909
756.3995, 2253.047
756.8817, 2255.739
757.3638, 2263.871
757.8459, 2275.099
758.3280, 2279.589
758.8101, 2270.404
759.2922, 2255.597
759.7744, 2253.887
760.2565, 2267.050
760.7386, 2275.274
761.2207, 2274.380
761.7028, 2273.093
762.1849, 2278.429
762.6671, 2286.979
763.1492, 2289.712
763.6313, 2283.122
764.1134, 2278.404
764.5955, 2280.781
765.0776, 2283.594
765.5598, 2281.365
766.0419, 2275.455
766.5240, 2269.230
767.0061, 2264.060
767.4882, 2261.496
767.9703, 2266.973
768.4525, 2277.765
768.9346, 2275.936
769.4167, 2258.629
769.8988, 2245.357
770.3809, 2247.412
770.8630, 2257.316
771.3452, 2260.618
771.8273, 2255.176
772.3094, 2249.073
772.7915, 2239.494
773.2736, 2232.386
773.7557, 2233.195
774.2379, 2236.533
774.7200, 2232.952
775.2021, 2220.807
775.6842, 2213.140
776.1663, 2223.927
776.6484, 2242.974
777.1306, 2254.687
777.6127, 2259.550
778.0948, 2262.196
778.5769, 2264.212
779.0590, 2264.626
779.5411, 2261.965
780.0233, 2256.162
780.5054, 2250.394
780.9875, 2241.120
781.4696, 2237.894
781.9517, 2251.356
782.4338, 2265.374
782.9160, 2264.693
783.3981, 2250.572
783.8802, 2239.316
784.3623, 2239.525
784.8444, 2241.060
785.3265, 2235.196
785.8087, 2227.280
786.2908, 2226.269
786.7729, 2233.115
787.2550, 2242.628
787.7371, 2251.854
788.2192, 2258.553
788.7014, 2254.247
789.1835, 2237.505
789.6656, 2223.770
790.1477, 2215.593
790.6298, 2211.039
791.1119, 2209.492
791.5941, 2210.511
792.0762, 2211.610
792.5583, 2206.515
793.0404, 2211.334
793.5225, 2245.475
794.0046, 2275.208
794.4868, 2270.481
794.9689, 2242.588
795.4510, 2221.028
795.9331, 2218.465
796.4152, 2222.706
796.8973, 2222.010
797.3795, 2218.100
797.8616, 2214.980
798.3437, 2212.992
798.8258, 2212.188
799.3079, 2212.632
799.7900, 2214.122
800.2722, 2216.210
800.7543, 2218.714
801.2364, 2222.929
801.7185, 2232.971
802.2006, 2238.975
802.6827, 2236.695
803.1649, 2229.773
803.6470, 2217.831
804.1291, 2201.009
804.6112, 2198.286
805.0933, 2235.080
805.5754, 2270.688
806.0576, 2270.113
806.5397, 2248.217
807.0218, 2229.675
807.5039, 2221.188
807.9860, 2220.021
808.4681, 2224.630
808.9503, 2233.743
809.4324, 2245.442
809.9145, 2260.326
810.3966, 2265.924
810.8787, 2256.431
811.3608, 2245.036
811.8430, 2243.983
812.3251, 2251.353
812.8072, 2252.808
813.2893, 2234.580
813.7714, 2230.368
814.2535, 2262.494
814.7357, 2291.380
815.2178, 2284.212
815.6999, 2253.909
816.1820, 2233.869
816.6641, 2237.171
817.1462, 2248.031
817.6284, 2262.234
818.1105, 2271.656
818.5926, 2254.628
819.0747, 2216.902
819.5568, 2193.616
820.0389, 2201.613
820.5211, 2224.058
821.0032, 2234.230
821.4853, 2231.174
821.9674, 2233.401
822.4495, 2245.151
822.9316, 2251.044
823.4138, 2240.337
823.8959, 2225.088
824.3780, 2221.080
824.8601, 2228.350
825.3422, 2236.404
825.8243, 2248.584
826.3065, 2256.002
826.7886, 2252.208
827.2707, 2243.846
827.7528, 2234.309
828.2349, 2226.706
828.7170, 2230.043
829.1992, 2255.637
829.6813, 2284.496
830.1633, 2287.835
830.6454, 2273.149
831.1276, 2265.964
831.6097, 2269.960
832.0918, 2270.712
832.5739, 2256.816
833.0560, 2236.786
833.5381, 2236.355
834.0203, 2264.658
834.5024, 2280.943
834.9845, 2277.751
835.4666, 2271.377
835.9487, 2269.808
836.4308, 2269.988
836.9130, 2265.850
837.3951, 2254.800
837.8772, 2251.992
838.3593, 2271.960
838.8414, 2290.088
839.3235, 2287.043
839.8057, 2274.360
840.2878, 2270.069
840.7699, 2277.974
841.2520, 2256.738
841.7341, 2276.923
842.2162, 2291.920
842.6984, 2301.953
843.1805, 2295.258
843.6626, 2307.776
844.1447, 2311.138
844.6268, 2313.126
845.1089, 2325.375
845.5911, 2315.761
846.0732, 2325.750
846.5553, 2326.457
847.0374, 2329.896
847.5195, 2324.128
848.0016, 2350.287
848.4838, 2353.690
848.9659, 2359.893
849.4480, 2374.988
849.9301, 2404.050
850.4122, 2427.768
850.8943, 2435.802
851.3765, 2441.791
851.8586, 2456.304
852.3407, 2474.954
852.8228, 2488.786
853.3049, 2495.556
853.7870, 2501.094
854.2692, 2506.457
854.7513, 2515.927
855.2334, 2541.670
855.7155, 2579.939
856.1976, 2612.418
856.6797, 2634.113
857.1619, 2650.893
857.6440, 2667.997
858.1261, 2685.189
858.6082, 2700.571
859.0903, 2711.293
859.5724, 2730.445
860.0546, 2768.262
860.5367, 2803.192
861.0188, 2823.003
861.5009, 2829.013
861.9830, 2822.467
862.4651, 2795.516
862.9473, 2775.833
863.4294, 2772.684
863.9115, 2774.047
864.3936, 2776.665
864.8757, 2777.394
865.3578, 2772.880
865.8400, 2762.145
866.3221, 2745.169
866.8042, 2713.587
867.2863, 2681.417
867.7684, 2673.087
868.2505, 2680.412
868.7327, 2677.765
869.2148, 2659.160
869.6969, 2635.983
870.1790, 2617.798
870.6611, 2603.069
871.1432, 2585.286
871.6254, 2563.339
872.1075, 2547.583
872.5896, 2540.724
873.0717, 2536.542
873.5538, 2529.731
874.0359, 2523.311
874.5181, 2526.459
875.0002, 2548.629
875.4823, 2559.282
875.9644, 2550.464
876.4465, 2538.958
876.9286, 2530.383
877.4108, 2523.657
877.8929, 2513.952
878.3750, 2501.391
878.8571, 2500.466
879.3392, 2531.657
879.8214, 2563.763
880.3035, 2563.368
880.7856, 2550.476
881.2677, 2563.506
881.7498, 2603.068
882.2319, 2633.964
882.7141, 2630.377
883.1962, 2610.876
883.6783, 2608.340
884.1604, 2620.407
884.6425, 2631.443
885.1246, 2639.540
885.6068, 2651.198
886.0889, 2670.659
886.5710, 2693.897
887.0531, 2713.733
887.5352, 2730.242
888.0173, 2742.117
888.4995, 2741.009
888.9816, 2749.702
889.4637, 2782.494
889.9458, 2822.983
890.4279, 2852.846
890.9100, 2873.435
891.3922, 2903.860
891.8743, 2960.201
892.3564, 3009.507
892.8385, 3032.578
893.3206, 3051.607
893.8027, 3090.907
894.2849, 3143.135
894.7670, 3181.275
895.2491, 3191.888
895.7312, 3201.048
896.2133, 3233.025
896.6954, 3276.452
897.1776, 3312.214
897.6597, 3342.853
898.1418, 3382.964
898.6239, 3437.463
899.1060, 3492.276
899.5881, 3529.508
900.0703, 3555.313
900.5524, 3597.831
901.0345, 3657.140
901.5166, 3729.655
901.9987, 3816.469
902.4808, 3909.212
902.9630, 3999.544
903.4451, 4091.247
903.9272, 4200.987
904.4093, 4343.017
904.8914, 4474.442
905.3735, 4576.250
905.8557, 4688.219
906.3378, 4819.729
906.8199, 4974.691
907.3020, 5159.054
907.7841, 5375.413
908.2662, 5605.657
908.7484, 5861.917
909.2305, 6113.245
909.7126, 6344.431
910.1947, 6562.623
910.6768, 6769.513
911.1589, 6971.533
911.6411, 7188.867
912.1232, 7439.432
912.6053, 7691.197
913.0874, 7920.846
913.5695, 8125.391
914.0516, 8297.725
914.5338, 8439.786
915.0159, 8569.853
915.4980, 8696.758
915.9801, 8791.100
916.4622, 8814.188
916.9443, 8768.751
917.4265, 8666.024
917.9086, 8505.220
918.3907, 8316.876
918.8728, 8106.399
919.3549, 7880.434
919.8370, 7644.295
920.3192, 7397.630
920.8013, 7144.767
921.2834, 6888.700
921.7655, 6616.733
922.2476, 6316.454
922.7297, 6015.754
923.2119, 5716.081
923.6940, 5430.623
924.1761, 5188.258
924.6582, 4996.450
925.1403, 4818.198
925.6224, 4658.233
926.1046, 4499.281
926.5867, 4327.284
927.0688, 4157.710
927.5509, 4005.866
928.0330, 3873.053
928.5151, 3752.784
928.9973, 3642.806
929.4794, 3543.242
929.9615, 3454.534
930.4436, 3375.440
930.9257, 3304.499
931.4078, 3240.999
931.8900, 3186.936
932.3721, 3143.054
932.8542, 3097.010
933.3363, 3026.313
933.8184, 2944.938
934.3005, 2894.391
934.7827, 2870.170
935.2648, 2839.541
935.7469, 2793.479
936.2290, 2746.602
936.7111, 2711.513
937.1932, 2686.645
937.6754, 2669.844
938.1575, 2663.873
938.6396, 2640.495
939.1217, 2589.597
939.6038, 2545.360
940.0859, 2529.082
940.5681, 2527.141
941.0502, 2514.054
941.5323, 2485.875
942.0144, 2467.204
942.4965, 2467.293
942.9786, 2463.751
943.4608, 2447.486
943.9429, 2429.306
944.4250, 2420.031
944.9071, 2416.987
945.3892, 2406.873
945.8713, 2379.761
946.3535, 2359.335
946.8356, 2356.354
947.3177, 2357.381
947.7998, 2355.643
948.2819, 2350.486
948.7640, 2341.245
949.2462, 2327.919
949.7283, 2315.081
950.2104, 2303.927
950.6925, 2295.770
951.1746, 2293.451
951.6567, 2294.169
952.1389, 2294.850
952.6210, 2294.055
953.1031, 2288.109
953.5852, 2273.695
954.0673, 2259.666
954.5494, 2260.340
955.0316, 2270.043
955.5137, 2274.590
955.9958, 2273.329
956.4779, 2268.603
956.9600, 2261.269
957.4421, 2251.402
957.9243, 2236.606
958.4064, 2221.007
958.8885, 2227.748
959.3706, 2258.449
959.8527, 2280.941
960.3348, 2290.000
960.8170, 2289.070
961.2991, 2278.689
961.7812, 2262.354
962.2633, 2247.740
962.7454, 2233.982
963.2275, 2226.272
963.7097, 2229.291
964.1918, 2229.104
964.6739, 2216.803
965.1560, 2204.016
965.6381, 2206.021
966.1202, 2220.945
966.6024, 2224.688
967.0845, 2210.123
967.5666, 2194.933
968.0487, 2175.673
968.5308, 2161.574
969.0129, 2158.023
969.4951, 2162.947
969.9772, 2175.558
970.4593, 2196.737
970.9414, 2209.653
971.4235, 2203.561
971.9056, 2193.934
972.3878, 2183.699
972.8699, 2177.732
973.3520, 2184.355
973.8341, 2200.304
974.3162, 2212.815
974.7983, 2216.734
975.2805, 2215.322
975.7626, 2209.859
976.2447, 2201.364
976.7268, 2186.605
977.2089, 2170.770
977.6910, 2165.769
978.1732, 2174.308
978.6553, 2189.440
979.1374, 2210.716
979.6195, 2227.963
980.1016, 2218.707
980.5837, 2192.700
981.0659, 2179.555
981.5480, 2181.016
982.0301, 2178.782
982.5122, 2163.143
982.9943, 2146.612
983.4764, 2150.307
983.9586, 2169.796
984.4407, 2178.266
984.9228, 2175.939
985.4049, 2174.050
985.8870, 2175.756
986.3691, 2175.086
986.8513, 2166.428
987.3334, 2153.025
987.8155, 2144.187
988.2976, 2139.946
988.7797, 2140.674
989.2618, 2147.825
989.7440, 2155.448
990.2261, 2161.761
990.7082, 2166.581
991.1903, 2170.760
991.6724, 2174.095
992.1545, 2166.539
992.6367, 2133.572
993.1188, 2120.239
993.6009, 2147.216
994.0830, 2175.170
994.5651, 2179.905
995.0472, 2170.220
995.5294, 2164.519
996.0115, 2165.010
996.4936, 2159.890
996.9757, 2137.357
997.4578, 2123.975
997.9399, 2136.870
998.4221, 2153.463
998.9042, 2152.756
999.3863, 2138.806
999.8684, 2129.745
1000.351, 2128.815
1000.833, 2133.106
1001.315, 2148.755
1001.797, 2161.963
1002.279, 2164.784
1002.761, 2159.964
1003.243, 2148.190
1003.725, 2131.637
1004.207, 2122.640
1004.690, 2130.179
1005.172, 2141.346
1005.654, 2153.679
1006.136, 2161.948
1006.618, 2154.673
1007.100, 2140.205
1007.582, 2139.516
1008.064, 2158.584
1008.547, 2177.451
1009.029, 2178.072
1009.511, 2174.571
1009.993, 2184.828
1010.475, 2199.529
1010.957, 2201.043
1011.439, 2190.275
1011.921, 2182.113
1012.403, 2184.304
1012.886, 2188.629
1013.368, 2186.380
1013.850, 2179.937
1014.332, 2171.371
1014.814, 2162.574
1015.296, 2157.145
1015.778, 2156.712
1016.260, 2166.773
1016.742, 2193.889
1017.225, 2225.235
1017.707, 2235.736
1018.189, 2231.407
1018.671, 2236.224
1019.153, 2249.958
1019.635, 2254.913
1020.117, 2244.557
1020.599, 2232.618
1021.082, 2233.679
1021.564, 2243.905
1022.046, 2251.016
1022.528, 2255.175
1023.010, 2257.955
1023.492, 2259.349
1023.974, 2266.717
1024.456, 2284.898
1024.938, 2305.136
1025.421, 2314.276
1025.903, 2313.126
1026.385, 2311.534
1026.867, 2309.341
1027.349, 2306.535
1027.831, 2300.851
1028.313, 2306.925
1028.795, 2338.715
1029.278, 2380.938
1029.760, 2396.876
1030.242, 2381.696
1030.724, 2383.645
1031.206, 2409.880
1031.688, 2427.356
1032.170, 2422.660
1032.652, 2416.174
1033.135, 2425.796
1033.617, 2447.742
1034.099, 2468.140
1034.581, 2487.292
1035.063, 2503.999
1035.545, 2519.351
1036.027, 2529.488
1036.509, 2529.039
1036.991, 2527.649
1037.474, 2536.274
1037.956, 2553.959
1038.438, 2571.136
1038.920, 2592.613
1039.402, 2603.981
1039.884, 2597.146
1040.366, 2590.269
1040.848, 2594.422
1041.330, 2601.000
1041.813, 2595.552
1042.295, 2576.952
1042.777, 2570.734
1043.259, 2592.787
1043.741, 2603.757
1044.223, 2593.491
1044.705, 2578.140
1045.187, 2565.802
1045.670, 2554.501
1046.152, 2540.563
1046.634, 2523.635
1047.116, 2505.945
1047.598, 2485.619
1048.080, 2467.432
1048.562, 2456.777
1049.044, 2444.562
1049.526, 2421.185
1050.009, 2392.005
1050.491, 2370.404
1050.973, 2360.483
1051.455, 2345.792
1051.937, 2319.982
1052.419, 2293.476
1052.901, 2265.730
1053.383, 2242.215
1053.865, 2229.613
1054.348, 2225.096
1054.830, 2219.942
1055.312, 2213.408
1055.794, 2203.740
1056.276, 2187.766
1056.758, 2171.842
1057.240, 2158.100
1057.722, 2146.637
1058.205, 2134.556
1058.687, 2124.267
1059.169, 2127.519
1059.651, 2158.496
1060.133, 2175.738
1060.615, 2157.111
1061.097, 2131.065
1061.579, 2106.947
1062.062, 2089.684
1062.544, 2088.136
1063.026, 2099.562
1063.508, 2104.531
1063.990, 2093.507
1064.472, 2081.731
1064.954, 2068.655
1065.436, 2063.292
1065.918, 2082.636
1066.401, 2107.958
1066.883, 2109.347
1067.365, 2085.484
1067.847, 2065.032
1068.329, 2059.016
1068.811, 2057.378
1069.293, 2057.251
1069.775, 2058.394
1070.257, 2063.016
1070.740, 2067.693
1071.222, 2065.292
1071.704, 2055.422
1072.186, 2049.332
1072.668, 2053.539
1073.150, 2060.097
1073.632, 2068.756
1074.114, 2074.992
1074.597, 2073.423
1075.079, 2067.070
1075.561, 2061.568
1076.043, 2058.099
1076.525, 2054.634
1077.007, 2050.715
1077.489, 2046.044
1077.971, 2034.775
1078.453, 2027.648
1078.936, 2041.124
1079.418, 2064.207
1079.900, 2073.377
1080.382, 2063.259
1080.864, 2050.197
1081.346, 2036.966
1081.828, 2028.304
1082.310, 2029.166
1082.792, 2033.741
1083.275, 2037.991
1083.757, 2041.103
1084.239, 2043.553
1084.721, 2045.609
1085.203, 2042.265
1085.685, 2025.871
1086.167, 2010.199
1086.649, 2000.844
1087.131, 1997.142
1087.614, 2001.450
1088.096, 2009.992
1088.578, 2014.819
1089.060, 2013.922
1089.542, 2010.946
1090.024, 2001.622
1090.506, 1997.643
1090.988, 2011.309
1091.471, 2027.884
1091.953, 2032.058
1092.435, 2027.548
1092.917, 2027.258
1093.399, 2035.231
1093.881, 2037.284
1094.363, 2023.550
1094.845, 2008.388
1095.328, 1994.798
1095.810, 1986.209
1096.292, 1990.393
1096.774, 2001.101
1097.256, 2000.960
1097.738, 1983.555
1098.220, 1975.791
1098.702, 2001.948
1099.184, 2019.635
1099.667, 1999.410
1100.149, 1972.318
1100.631, 1966.501
1101.113, 1976.733
1101.595, 1985.556
1102.077, 1989.795
1102.559, 1993.330
1103.041, 1998.523
1103.523, 2001.392
1104.006, 1997.465
1104.488, 1993.309
1104.970, 1995.333
1105.452, 2001.309
1105.934, 2005.372
1106.416, 2006.731
1106.898, 2006.383
1107.380, 2004.743
1107.863, 2001.082
1108.345, 1995.702
1108.827, 1987.732
1109.309, 1970.295
1109.791, 1951.214
1110.273, 1951.438
1110.755, 1979.416
1111.237, 1993.198
1111.719, 1976.224
1112.202, 1962.477
1112.684, 1965.269
1113.166, 1968.328
1113.648, 1954.600
1114.130, 1934.263
1114.612, 1931.291
1115.094, 1949.550
1115.576, 1968.942
1116.058, 1999.096
1116.541, 2015.646
1117.023, 2007.646
1117.505, 1993.079
1117.987, 1979.223
1118.469, 1968.492
1118.951, 1966.809
1119.433, 1975.850
1119.915, 1981.864
1120.398, 1985.615
1120.880, 1984.453
1121.362, 1975.065
1121.844, 1965.521
1122.326, 1960.466
1122.808, 1958.456
1123.290, 1957.079
1123.772, 1956.322
1124.255, 1956.617
1124.737, 1958.713
1125.219, 1959.027
1125.701, 1955.499
1126.183, 1955.037
1126.665, 1963.699
1127.147, 1972.777
1127.629, 1966.712
1128.111, 1947.054
1128.594, 1944.005
1129.076, 1960.425
1129.558, 1977.195
1130.040, 1994.461
1130.522, 1994.574
1131.004, 1964.528
1131.486, 1931.476
1131.968, 1934.257
1132.450, 1964.274
1132.933, 1971.177
1133.415, 1955.182
1133.897, 1951.485
1134.379, 1964.222
1134.861, 1970.114
1135.343, 1958.632
1135.825, 1944.923
1136.307, 1946.736
1136.790, 1957.403
1137.272, 1956.126
1137.754, 1945.739
1138.236, 1942.973
1138.718, 1948.435
1139.200, 1954.199
1139.682, 1957.510
1140.164, 1961.839
1140.646, 1971.419
1141.129, 1981.148
1141.611, 1980.079
1142.093, 1972.489
1142.575, 1967.956
1143.057, 1967.433
1143.539, 1974.901
1144.021, 1989.074
1144.503, 1992.631
1144.985, 1969.833
1145.468, 1943.124
1145.950, 1940.033
1146.432, 1949.567
1146.914, 1958.827
1147.396, 1965.986
1147.878, 1968.895
1148.360, 1967.936
1148.842, 1966.359
1149.325, 1965.322
1149.807, 1966.314
1150.289, 1973.675
1150.771, 1980.498
1151.253, 1979.629
1151.735, 1974.446
1152.217, 1968.698
1152.699, 1963.736
1153.182, 1962.572
1153.664, 1968.097
1154.146, 1966.969
1154.628, 1942.116
1155.110, 1921.705
1155.592, 1923.872
1156.074, 1936.370
1156.556, 1951.469
1157.038, 1965.385
1157.521, 1970.401
1158.003, 1962.955
1158.485, 1962.422
1158.967, 1982.708
1159.449, 1996.839
1159.931, 1994.771
1160.413, 1986.390
1160.895, 1974.919
1161.377, 1963.111
1161.860, 1955.164
1162.342, 1951.108
1162.824, 1951.667
1163.306, 1960.256
1163.788, 1967.328
1164.270, 1971.339
1164.752, 1974.992
1165.234, 1981.258
1165.717, 1985.465
1166.199, 1979.481
1166.681, 1965.474
1167.163, 1964.401
1167.645, 1979.994
1168.127, 1991.819
1168.609, 1997.777
1169.091, 2004.394
1169.573, 2015.565
1170.056, 2021.252
1170.538, 2010.136
1171.020, 1988.895
1171.502, 1976.497
1171.984, 1972.731
1172.466, 1975.470
1172.948, 1984.300
1173.430, 1994.192
1173.912, 2003.530
1174.395, 2004.450
1174.877, 1990.017
1175.359, 1972.851
1175.841, 1976.092
1176.323, 1990.976
1176.805, 1993.365
1177.287, 1987.403
1177.769, 1988.941
1178.252, 1998.174
1178.734, 2001.732
1179.216, 1993.242
1179.698, 1980.941
1180.180, 1970.406
1180.662, 1962.182
1181.144, 1956.766
1181.626, 1954.060
1182.109, 1953.460
1182.591, 1955.556
1183.073, 1964.069
1183.555, 1979.218
1184.037, 1988.769
1184.519, 1982.534
1185.001, 1974.132
1185.483, 1966.982
1185.965, 1963.922
1186.448, 1970.670
1186.930, 1980.921
1187.412, 1985.363
1187.894, 1983.569
1188.376, 1981.553
1188.858, 1980.711
1189.340, 1979.122
1189.822, 1971.830
1190.304, 1969.672
1190.787, 1984.406
1191.269, 1999.090
1191.751, 1998.104
1192.233, 1985.506
1192.715, 1973.615
1193.197, 1960.817
1193.679, 1956.501
1194.161, 1963.094
1194.644, 1971.851
1195.126, 1983.086
1195.608, 1988.264
1196.090, 1979.599
1196.572, 1968.382
1197.054, 1975.128
1197.536, 1996.559
1198.018, 2008.530
1198.500, 2010.963
1198.983, 1999.544
1199.465, 1974.862
1199.947, 1959.489
1200.429, 1962.603
1200.911, 1970.619
1201.393, 1970.198
1201.875, 1965.973
1202.357, 1964.774
1202.839, 1966.922
1203.322, 1978.077
1203.804, 1992.376
1204.286, 1990.109
1204.768, 1970.397
1205.250, 1955.864
1205.732, 1960.530
1206.214, 1967.118
1206.696, 1958.546
1207.179, 1949.329
1207.661, 1953.616
1208.143, 1964.079
1208.625, 1973.459
1209.107, 1979.599
1209.589, 1979.005
1210.071, 1969.642
1210.553, 1963.982
1211.036, 1968.755
1211.518, 1973.265
1212.000, 1977.248
1212.482, 1976.808
1212.964, 1966.490
1213.446, 1951.806
1213.928, 1938.673
1214.410, 1927.552
1214.892, 1931.091
1215.375, 1959.967
1215.857, 1973.842
1216.339, 1966.239
1216.821, 1956.420
1217.303, 1950.174
1217.785, 1946.539
1218.267, 1944.909
1218.749, 1944.776
1219.231, 1942.837
1219.714, 1940.011
1220.196, 1955.822
1220.678, 1987.256
1221.160, 1995.916
1221.642, 1976.568
1222.124, 1956.520
1222.606, 1950.172
1223.088, 1952.149
1223.571, 1959.925
1224.053, 1968.767
1224.535, 1972.296
1225.017, 1970.897
1225.499, 1960.501
1225.981, 1946.885
1226.463, 1947.068
1226.945, 1962.719
1227.427, 1971.296
1227.910, 1954.776
1228.392, 1943.047
1228.874, 1961.097
1229.356, 1979.225
1229.838, 1972.129
1230.320, 1958.498
1230.802, 1964.379
1231.284, 1983.788
1231.766, 1988.206
1232.249, 1968.160
1232.731, 1957.349
1233.213, 1964.860
1233.695, 1967.012
1234.177, 1955.782
1234.659, 1945.972
1235.141, 1945.907
1235.623, 1951.810
1236.106, 1960.069
1236.588, 1968.848
1237.070, 1962.658
1237.552, 1940.852
1238.034, 1933.441
1238.516, 1942.284
1238.998, 1948.573
1239.480, 1946.507
1239.963, 1942.421
1240.445, 1940.788
1240.927, 1941.375
1241.409, 1944.631
1241.891, 1949.363
1242.373, 1955.435
1242.855, 1960.293
1243.337, 1955.991
1243.819, 1945.635
1244.302, 1942.458
1244.784, 1950.920
1245.266, 1959.307
1245.748, 1964.488
1246.230, 1963.036
1246.712, 1941.942
1247.194, 1925.356
1247.676, 1938.898
1248.158, 1963.548
1248.641, 1970.622
1249.123, 1961.205
1249.605, 1959.224
1250.087, 1975.124
1250.569, 1974.559
1251.051, 1943.048
1251.533, 1927.256
1252.015, 1943.422
1252.498, 1965.956
1252.980, 1979.810
1253.462, 1985.941
1253.944, 1984.945
1254.426, 1978.002
1254.908, 1972.708
1255.390, 1968.725
1255.872, 1962.242
1256.354, 1953.399
1256.837, 1944.343
1257.319, 1936.684
1257.801, 1941.360
1258.283, 1971.508
1258.765, 1999.289
1259.247, 1984.243
1259.729, 1956.580
1260.211, 1953.043
1260.693, 1961.967
1261.176, 1964.072
1261.658, 1959.672
1262.140, 1958.991
1262.622, 1965.044
1263.104, 1968.924
1263.586, 1968.714
1264.068, 1964.672
1264.550, 1949.649
1265.033, 1939.351
1265.515, 1943.694
1265.997, 1955.719
1266.479, 1971.497
1266.961, 1987.591
1267.443, 1986.795
1267.925, 1965.002
1268.407, 1950.186
##END=



