##NAMES=Almandine
##RRUFFID=R100046
##IDEAL CHEMISTRY=Fe^2+^_3_Al_2_(SiO_4_)_3_
##LOCALITY=Altai, Xinjiang Province, China
##OWNER=RRUFF
##SOURCE=William W Pinch
##DESCRIPTION=Red trapezohedron
##STATUS=The identification of this mineral has been confirmed only by single crystal X-ray diffraction.
##URL=rruff.info/R100046
91.53320, 102.8009
92.01532, 104.4293
92.49744, 104.7835
92.97955, 104.8728
93.46167, 103.8790
93.94379, 101.9641
94.42590, 99.97234
94.90802, 97.67602
95.39014, 94.34956
95.87225, 89.66833
96.35437, 85.38371
96.83649, 82.35894
97.31860, 80.02282
97.80072, 77.83794
98.28284, 75.48682
98.76495, 72.94158
99.24707, 70.43236
99.72919, 67.97627
100.2113, 65.53635
100.6934, 63.00985
101.1755, 60.45911
101.6577, 58.03674
102.1398, 55.82624
102.6219, 53.79913
103.1040, 52.15484
103.5861, 50.84629
104.0682, 49.80839
104.5504, 49.05832
105.0325, 48.57523
105.5146, 48.25158
105.9967, 47.96255
106.4788, 47.76379
106.9609, 47.42562
107.4431, 46.97667
107.9252, 46.36743
108.4073, 45.47335
108.8894, 44.18475
109.3715, 42.74944
109.8536, 41.61006
110.3358, 40.77486
110.8179, 40.03783
111.3000, 39.22637
111.7821, 38.36773
112.2642, 37.74256
112.7463, 37.55519
113.2285, 37.61855
113.7106, 37.77300
114.1927, 38.02158
114.6748, 38.27917
115.1569, 38.44871
115.6390, 38.56014
116.1212, 38.48977
116.6033, 38.09240
117.0854, 37.56503
117.5675, 37.07403
118.0496, 36.68525
118.5317, 36.41359
119.0139, 36.33851
119.4960, 36.68087
119.9781, 37.00409
120.4602, 37.18086
120.9423, 37.28327
121.4244, 37.47418
121.9066, 37.91156
122.3887, 38.64205
122.8708, 38.92509
123.3529, 38.47682
123.8350, 37.95012
124.3171, 37.58028
124.7993, 37.40643
125.2814, 37.41935
125.7635, 37.66026
126.2456, 38.20799
126.7277, 38.51963
127.2098, 38.38648
127.6920, 38.10277
128.1741, 37.96302
128.6562, 38.02703
129.1383, 38.22485
129.6204, 38.57588
130.1025, 39.06630
130.5847, 39.38441
131.0668, 39.27435
131.5489, 38.86366
132.0310, 38.59645
132.5131, 38.58982
132.9952, 38.74475
133.4774, 38.97485
133.9595, 39.27633
134.4416, 39.59638
134.9237, 39.85401
135.4058, 40.02259
135.8879, 40.32763
136.3701, 41.04256
136.8522, 41.76143
137.3343, 42.25365
137.8164, 42.46395
138.2985, 42.47990
138.7806, 42.42794
139.2628, 42.20536
139.7449, 42.11284
140.2270, 42.27464
140.7091, 42.51121
141.1912, 42.62014
141.6733, 42.51052
142.1555, 42.29985
142.6376, 42.39608
143.1197, 43.18304
143.6018, 43.86944
144.0839, 44.38914
144.5660, 44.75279
145.0482, 44.95898
145.5303, 44.98238
146.0124, 44.86606
146.4945, 44.94091
146.9766, 45.21155
147.4587, 45.61456
147.9409, 46.16689
148.4230, 46.84668
148.9051, 47.56907
149.3872, 48.30279
149.8693, 49.03119
150.3514, 49.70811
150.8336, 50.15426
151.3157, 50.65759
151.7978, 51.56990
152.2799, 52.96311
152.7620, 54.33446
153.2441, 55.21993
153.7263, 55.82403
154.2084, 56.48315
154.6905, 57.33411
155.1726, 58.30407
155.6547, 59.23465
156.1368, 60.08929
156.6190, 60.96497
157.1011, 61.94342
157.5832, 62.97873
158.0653, 63.99184
158.5474, 64.90237
159.0295, 65.72315
159.5117, 66.62204
159.9938, 67.58172
160.4759, 68.66296
160.9580, 69.91463
161.4401, 71.30659
161.9222, 72.77543
162.4044, 74.33382
162.8865, 76.08974
163.3686, 77.31228
163.8507, 77.05332
164.3328, 77.10905
164.8149, 78.43932
165.2971, 80.99067
165.7792, 83.97380
166.2613, 86.51042
166.7434, 88.45269
167.2255, 90.27436
167.7076, 92.63655
168.1898, 94.48422
168.6719, 95.06498
169.1540, 94.23577
169.6361, 92.35304
170.1182, 89.85062
170.6003, 86.56189
171.0825, 82.94691
171.5646, 78.68394
172.0467, 74.24197
172.5288, 70.08707
173.0109, 66.33114
173.4930, 62.99895
173.9752, 60.28456
174.4573, 58.22799
174.9394, 56.17796
175.4215, 53.79965
175.9036, 51.28111
176.3857, 49.05005
176.8679, 47.19551
177.3500, 45.71535
177.8321, 44.63588
178.3142, 43.98153
178.7963, 43.33017
179.2784, 42.35020
179.7606, 41.09063
180.2427, 40.02485
180.7248, 39.37598
181.2069, 38.89716
181.6890, 38.33543
182.1711, 37.66396
182.6533, 37.07886
183.1354, 36.86216
183.6175, 37.08616
184.0996, 37.10534
184.5817, 36.47236
185.0638, 35.76796
185.5460, 35.31011
186.0281, 35.16929
186.5102, 35.24286
186.9923, 35.41058
187.4744, 35.70385
187.9565, 36.01249
188.4387, 36.29928
188.9208, 36.60771
189.4029, 36.97117
189.8850, 37.40088
190.3671, 37.87475
190.8492, 38.35359
191.3314, 38.77853
191.8135, 39.31178
192.2956, 40.09705
192.7777, 40.91282
193.2598, 41.54071
193.7419, 41.89701
194.2241, 42.09304
194.7062, 42.39575
195.1883, 42.80526
195.6704, 43.34833
196.1525, 44.06302
196.6346, 44.89799
197.1168, 45.82763
197.5989, 46.84678
198.0810, 47.89573
198.5631, 48.79256
199.0452, 49.38023
199.5273, 50.03483
200.0095, 50.82716
200.4916, 51.72144
200.9737, 52.68330
201.4558, 53.72013
201.9379, 54.78119
202.4200, 55.70964
202.9022, 56.28076
203.3843, 57.10118
203.8664, 58.46225
204.3485, 60.25114
204.8306, 62.16355
205.3127, 64.09924
205.7949, 66.05700
206.2770, 68.05405
206.7591, 70.23391
207.2412, 72.18083
207.7233, 73.48057
208.2054, 74.24967
208.6876, 75.20814
209.1697, 76.83921
209.6518, 78.65842
210.1339, 79.96082
210.6160, 80.63982
211.0981, 81.01675
211.5803, 81.32478
212.0624, 81.56407
212.5445, 81.66243
213.0266, 81.61147
213.5087, 81.37418
213.9908, 80.94209
214.4730, 80.32671
214.9551, 79.45341
215.4372, 78.21928
215.9193, 76.58840
216.4014, 74.79126
216.8836, 72.66029
217.3657, 70.50499
217.8478, 68.52842
218.3299, 66.79028
218.8120, 65.16779
219.2941, 63.49911
219.7763, 61.74323
220.2584, 60.08341
220.7405, 58.56207
221.2226, 57.12499
221.7047, 55.69200
222.1868, 54.24995
222.6690, 52.93036
223.1511, 52.02672
223.6332, 51.89164
224.1153, 51.33991
224.5974, 49.91471
225.0795, 48.32243
225.5617, 47.05748
226.0438, 46.26202
226.5259, 45.75957
227.0080, 45.23479
227.4901, 44.55143
227.9722, 44.12593
228.4544, 44.21857
228.9365, 44.38624
229.4186, 44.29005
229.9007, 43.83607
230.3828, 43.15625
230.8649, 42.47522
231.3471, 41.75452
231.8292, 41.09579
232.3113, 40.41097
232.7934, 39.83105
233.2755, 39.51601
233.7576, 39.49495
234.2398, 39.59517
234.7219, 39.53229
235.2040, 39.18737
235.6861, 38.87378
236.1682, 38.58864
236.6503, 38.33472
237.1325, 38.11418
237.6146, 37.92861
238.0967, 37.78367
238.5788, 37.70388
239.0609, 37.78006
239.5430, 37.69190
240.0252, 37.31880
240.5073, 36.83079
240.9894, 36.36889
241.4715, 35.96540
241.9536, 35.64043
242.4357, 35.42979
242.9179, 35.35415
243.4000, 35.31445
243.8821, 35.35918
244.3642, 35.40986
244.8463, 35.40101
245.3284, 35.32217
245.8106, 35.13518
246.2927, 34.68682
246.7748, 33.95118
247.2569, 33.55995
247.7390, 34.00030
248.2211, 34.66351
248.7033, 34.71505
249.1854, 33.96724
249.6675, 33.11500
250.1496, 32.94878
250.6317, 33.35483
251.1138, 33.58990
251.5960, 33.30882
252.0781, 32.85632
252.5602, 32.72001
253.0423, 32.99004
253.5244, 33.30886
254.0065, 33.35781
254.4887, 33.20927
254.9708, 33.03677
255.4529, 32.83554
255.9350, 32.65330
256.4171, 32.59992
256.8992, 32.71883
257.3813, 32.78117
257.8635, 32.48264
258.3456, 32.02327
258.8277, 31.74951
259.3098, 31.83889
259.7919, 32.12077
260.2740, 32.38423
260.7562, 32.64178
261.2383, 32.82553
261.7204, 32.92301
262.2025, 32.91482
262.6846, 32.73448
263.1667, 32.28738
263.6489, 31.75186
264.1310, 31.36042
264.6131, 31.11928
265.0952, 30.99630
265.5773, 31.10140
266.0594, 31.27096
266.5416, 31.33890
267.0237, 31.23667
267.5058, 31.08555
267.9879, 31.04503
268.4700, 31.12941
268.9521, 31.26104
269.4343, 31.42574
269.9164, 31.62361
270.3985, 31.88386
270.8806, 32.22202
271.3627, 32.54020
271.8448, 32.70665
272.3270, 32.69833
272.8091, 32.66122
273.2912, 32.51730
273.7733, 32.42714
274.2554, 32.56755
274.7375, 32.95564
275.2197, 33.32259
275.7018, 33.30497
276.1839, 32.82060
276.6660, 32.48720
277.1481, 32.52001
277.6302, 32.63887
278.1124, 32.72724
278.5945, 32.77129
279.0766, 32.80586
279.5587, 32.88720
280.0408, 33.03147
280.5229, 33.07766
281.0051, 32.77306
281.4872, 32.58438
281.9693, 32.73848
282.4514, 33.19745
282.9335, 33.79147
283.4156, 34.47227
283.8978, 35.25014
284.3799, 35.62398
284.8620, 35.15564
285.3441, 34.69751
285.8262, 34.51757
286.3083, 34.57668
286.7905, 34.74570
287.2726, 34.94152
287.7547, 35.16608
288.2368, 35.44315
288.7189, 35.88125
289.2010, 36.23869
289.6832, 36.42842
290.1653, 36.50243
290.6474, 36.50548
291.1295, 36.42974
291.6116, 36.35639
292.0938, 36.66362
292.5759, 37.86635
293.0580, 38.69844
293.5401, 38.67968
294.0222, 38.28673
294.5043, 38.02643
294.9865, 38.12298
295.4686, 38.48976
295.9507, 38.93394
296.4328, 39.51873
296.9149, 40.06883
297.3970, 40.52814
297.8792, 40.96721
298.3613, 41.47817
298.8434, 42.08141
299.3255, 42.66705
299.8076, 43.02318
300.2897, 42.98448
300.7719, 43.09186
301.2540, 43.31631
301.7361, 43.70583
302.2182, 44.36709
302.7003, 45.27794
303.1824, 46.25575
303.6646, 47.07789
304.1467, 47.68499
304.6288, 48.34061
305.1109, 48.94841
305.5930, 49.68712
306.0751, 50.69368
306.5573, 51.92741
307.0394, 53.22108
307.5215, 54.40015
308.0036, 55.44965
308.4857, 56.71371
308.9678, 58.26041
309.4500, 59.97260
309.9321, 61.92962
310.4142, 64.03701
310.8963, 66.11034
311.3784, 68.02345
311.8605, 69.81107
312.3427, 71.72016
312.8248, 74.25315
313.3069, 76.31182
313.7890, 77.62852
314.2711, 78.39310
314.7532, 78.86117
315.2354, 79.15331
315.7175, 79.23911
316.1996, 79.00284
316.6817, 78.18066
317.1638, 77.43726
317.6459, 76.70261
318.1281, 76.14348
318.6102, 75.88559
319.0923, 75.97435
319.5744, 76.41421
320.0565, 77.25718
320.5386, 78.68762
321.0208, 80.10751
321.5029, 81.28538
321.9850, 82.59529
322.4671, 84.32811
322.9492, 86.48874
323.4313, 88.81174
323.9135, 90.96677
324.3956, 92.81255
324.8777, 95.22097
325.3598, 98.72404
325.8419, 102.3033
326.3240, 105.5528
326.8062, 108.5530
327.2883, 111.6869
327.7704, 115.3601
328.2525, 119.5029
328.7346, 122.9796
329.2167, 125.1362
329.6989, 127.3441
330.1810, 129.9404
330.6631, 132.8029
331.1452, 135.7275
331.6273, 138.6194
332.1094, 141.4651
332.5916, 144.1828
333.0737, 146.5068
333.5558, 149.1838
334.0379, 152.1784
334.5200, 155.6079
335.0021, 159.5444
335.4843, 164.0229
335.9664, 169.0195
336.4485, 174.4114
336.9306, 180.0765
337.4127, 186.5783
337.8948, 194.3044
338.3770, 202.5964
338.8591, 210.9170
339.3412, 219.3481
339.8233, 228.4629
340.3055, 238.9729
340.7876, 250.9163
341.2697, 263.4519
341.7518, 276.7927
342.2339, 290.5088
342.7160, 304.6486
343.1982, 319.0603
343.6803, 333.6260
344.1624, 348.7063
344.6445, 363.8069
345.1266, 376.5399
345.6087, 387.1750
346.0909, 394.6139
346.5730, 399.1876
347.0551, 400.7908
347.5372, 399.3055
348.0193, 394.6920
348.5014, 386.9355
348.9836, 375.5756
349.4657, 359.9903
349.9478, 343.0231
350.4299, 324.3076
350.9120, 305.1138
351.3941, 286.0976
351.8763, 267.4470
352.3584, 249.6295
352.8405, 233.1667
353.3226, 217.9930
353.8047, 204.2500
354.2868, 192.3771
354.7690, 181.6612
355.2511, 171.5439
355.7332, 162.0500
356.2153, 153.5398
356.6974, 146.2729
357.1795, 140.1725
357.6617, 135.0518
358.1438, 131.2548
358.6259, 127.8057
359.1080, 123.9765
359.5901, 120.1513
360.0722, 116.9484
360.5544, 114.6144
361.0365, 112.9737
361.5186, 111.8966
362.0007, 111.4581
362.4828, 111.0199
362.9649, 110.0472
363.4471, 109.1179
363.9292, 108.9359
364.4113, 109.6797
364.8934, 110.6938
365.3755, 111.4948
365.8576, 112.1315
366.3398, 112.8825
366.8219, 113.8554
367.3040, 114.9046
367.7861, 115.8899
368.2682, 116.8161
368.7503, 117.7106
369.2325, 118.7051
369.7146, 119.6447
370.1967, 120.3332
370.6788, 120.7903
371.1609, 120.7863
371.6430, 120.1236
372.1252, 118.8258
372.6073, 116.9996
373.0894, 114.4109
373.5715, 111.4945
374.0536, 108.4755
374.5357, 105.3988
375.0179, 102.5169
375.5000, 100.1674
375.9821, 97.92300
376.4642, 94.72017
376.9463, 90.26268
377.4284, 85.72293
377.9106, 81.34600
378.3927, 77.22091
378.8748, 73.55453
379.3569, 70.42458
379.8390, 67.58834
380.3211, 64.72652
380.8033, 61.81367
381.2854, 59.07433
381.7675, 56.58509
382.2496, 54.24918
382.7317, 51.95692
383.2138, 49.71841
383.6960, 47.66127
384.1781, 45.88908
384.6602, 44.39106
385.1423, 42.88033
385.6244, 41.09097
386.1065, 39.57873
386.5887, 38.71611
387.0708, 38.22562
387.5529, 37.64278
388.0350, 36.76414
388.5171, 35.68770
388.9992, 34.61734
389.4814, 33.41905
389.9635, 32.45951
390.4456, 31.84112
390.9277, 31.38835
391.4098, 31.02151
391.8919, 30.69614
392.3741, 30.32370
392.8562, 29.81057
393.3383, 29.14081
393.8204, 28.43181
394.3025, 27.54774
394.7846, 26.76600
395.2668, 26.19032
395.7489, 25.78380
396.2310, 25.47278
396.7131, 25.21761
397.1952, 25.01451
397.6773, 24.86759
398.1595, 24.93529
398.6416, 24.78069
399.1237, 24.10874
399.6058, 23.36425
400.0879, 22.97405
400.5700, 23.01633
401.0522, 23.17899
401.5343, 23.04295
402.0164, 22.52891
402.4985, 22.19577
402.9806, 22.27853
403.4627, 22.34521
403.9449, 22.08881
404.4270, 21.65503
404.9091, 21.46765
405.3912, 21.97785
405.8733, 22.82994
406.3554, 22.78263
406.8376, 21.39092
407.3197, 20.20943
407.8018, 20.03402
408.2839, 20.29671
408.7660, 20.47866
409.2481, 20.46356
409.7303, 20.33487
410.2124, 20.13529
410.6945, 19.87252
411.1766, 19.65813
411.6587, 19.50939
412.1408, 19.42813
412.6230, 19.42880
413.1051, 19.50095
413.5872, 19.56940
414.0693, 19.67781
414.5514, 19.73557
415.0335, 19.54423
415.5157, 19.06971
415.9978, 18.59750
416.4799, 18.27314
416.9620, 18.10636
417.4441, 18.08843
417.9262, 18.34158
418.4084, 18.58088
418.8905, 18.61825
419.3726, 18.51565
419.8547, 18.44413
420.3368, 18.47426
420.8189, 18.51575
421.3011, 18.40851
421.7832, 18.11252
422.2653, 17.84918
422.7474, 17.57115
423.2295, 17.38308
423.7116, 17.46774
424.1938, 17.78480
424.6759, 18.00094
425.1580, 17.80676
425.6401, 17.24444
426.1222, 17.10710
426.6043, 17.81903
427.0865, 18.39322
427.5686, 18.53781
428.0507, 18.41371
428.5328, 18.23283
429.0149, 18.07907
429.4970, 17.94996
429.9792, 17.83057
430.4613, 17.65703
430.9434, 17.64371
431.4255, 18.02102
431.9076, 18.33037
432.3897, 18.23547
432.8719, 17.81738
433.3540, 17.41603
433.8361, 17.31037
434.3182, 17.45204
434.8003, 17.47961
435.2824, 17.27220
435.7646, 17.13728
436.2467, 17.19802
436.7288, 17.33810
437.2109, 17.42157
437.6930, 17.40495
438.1751, 17.38571
438.6573, 17.52398
439.1394, 17.83877
439.6215, 18.03852
440.1036, 18.04386
440.5857, 17.96281
441.0678, 17.84319
441.5500, 17.69816
442.0321, 17.56883
442.5142, 17.42495
442.9963, 17.32916
443.4784, 17.43512
443.9605, 17.77099
444.4427, 18.09607
444.9248, 18.34229
445.4069, 18.46937
445.8890, 18.39626
446.3711, 18.03548
446.8532, 17.71005
447.3354, 17.59745
447.8175, 17.64920
448.2996, 17.79445
448.7817, 18.03465
449.2638, 18.25219
449.7459, 18.28274
450.2281, 18.11151
450.7102, 18.09082
451.1923, 18.34477
451.6744, 18.65374
452.1565, 18.89585
452.6386, 19.07800
453.1208, 19.24493
453.6029, 19.42197
454.0850, 19.59526
454.5671, 19.72699
455.0492, 19.87823
455.5313, 19.89286
456.0135, 19.50678
456.4956, 19.15938
456.9777, 19.28702
457.4598, 19.88651
457.9419, 20.57196
458.4240, 20.98868
458.9062, 21.13297
459.3883, 21.19576
459.8704, 21.02302
460.3525, 20.94419
460.8346, 21.05821
461.3167, 21.29573
461.7989, 21.57532
462.2810, 21.86773
462.7631, 22.16971
463.2452, 22.48133
463.7273, 22.80645
464.2094, 23.11819
464.6916, 23.41887
465.1737, 23.69749
465.6558, 23.83538
466.1379, 23.91961
466.6200, 24.25618
467.1021, 25.19224
467.5843, 26.40916
468.0664, 27.25785
468.5485, 27.70801
469.0306, 28.01352
469.5127, 28.11725
469.9948, 28.24930
470.4770, 28.77025
470.9591, 29.77509
471.4412, 30.85605
471.9233, 31.84692
472.4054, 32.76884
472.8875, 33.61703
473.3697, 34.38343
473.8518, 35.19258
474.3339, 36.14273
474.8160, 37.24379
475.2981, 38.48509
475.7802, 39.96268
476.2624, 41.46923
476.7445, 43.18367
477.2266, 44.82624
477.7087, 45.82148
478.1908, 45.94385
478.6729, 45.53485
479.1551, 45.22323
479.6372, 45.22196
480.1193, 44.78378
480.6014, 43.67921
481.0835, 42.40414
481.5656, 41.11036
482.0478, 39.88237
482.5299, 38.83886
483.0120, 38.07470
483.4941, 37.52363
483.9762, 36.94050
484.4583, 36.19868
484.9405, 35.69538
485.4226, 35.64777
485.9047, 35.75061
486.3868, 35.73508
486.8689, 35.58330
487.3510, 35.53993
487.8332, 35.81431
488.3153, 36.37235
488.7974, 37.04480
489.2795, 37.78540
489.7616, 38.74032
490.2437, 40.06813
490.7259, 41.65783
491.2080, 43.39211
491.6901, 45.22998
492.1722, 47.22692
492.6543, 49.38134
493.1364, 51.71743
493.6186, 54.23438
494.1007, 56.90503
494.5828, 59.99289
495.0649, 63.91541
495.5470, 68.77110
496.0291, 73.52725
496.5113, 77.91734
496.9934, 82.44273
497.4755, 87.71290
497.9576, 93.35511
498.4397, 98.58653
498.9218, 103.0258
499.4040, 106.6251
499.8861, 109.2526
500.3682, 111.2632
500.8503, 111.4382
501.3324, 109.5078
501.8145, 106.2117
502.2967, 101.6229
502.7788, 96.03047
503.2609, 89.94510
503.7430, 83.59507
504.2251, 77.12569
504.7072, 71.14980
505.1894, 65.65200
505.6715, 60.64260
506.1536, 56.14554
506.6357, 52.09846
507.1178, 48.50372
507.5999, 45.35926
508.0821, 42.65665
508.5642, 40.38530
509.0463, 38.55361
509.5284, 37.32152
510.0105, 36.86176
510.4926, 36.27492
510.9748, 34.78826
511.4569, 32.84544
511.9390, 31.51617
512.4211, 31.17567
512.9032, 30.88143
513.3853, 30.02276
513.8674, 28.94499
514.3495, 28.31806
514.8317, 28.28490
515.3138, 28.38335
515.7959, 28.12588
516.2780, 27.47430
516.7601, 27.03513
517.2422, 26.91123
517.7244, 26.84533
518.2065, 26.80073
518.6886, 26.74346
519.1707, 26.61552
519.6528, 26.40140
520.1349, 26.17297
520.6171, 26.06647
521.0992, 26.14907
521.5813, 26.07847
522.0634, 25.58602
522.5455, 25.20773
523.0276, 25.20047
523.5098, 25.43907
523.9919, 25.68766
524.4740, 25.85566
524.9561, 25.95431
525.4382, 25.99138
525.9203, 25.96585
526.4025, 25.90965
526.8846, 25.78829
527.3667, 25.69513
527.8488, 25.70923
528.3309, 25.82375
528.8130, 26.01787
529.2952, 26.36317
529.7773, 26.72567
530.2594, 26.92261
530.7415, 27.00718
531.2236, 27.26160
531.7057, 27.84707
532.1879, 28.56047
532.6700, 28.99859
533.1521, 28.98083
533.6342, 29.09805
534.1163, 29.37015
534.5984, 29.77051
535.0806, 30.31728
535.5627, 30.97924
536.0448, 31.69809
536.5269, 32.44059
537.0090, 33.18921
537.4911, 33.86054
537.9733, 34.36271
538.4554, 35.00710
538.9375, 35.79849
539.4196, 36.75909
539.9017, 37.99266
540.3839, 39.44189
540.8660, 40.86894
541.3481, 42.08725
541.8302, 43.20153
542.3123, 44.46487
542.7944, 45.89500
543.2766, 47.28269
543.7587, 48.41125
544.2408, 49.57209
544.7229, 51.16169
545.2050, 53.20259
545.6871, 55.41294
546.1693, 57.69304
546.6514, 60.08854
547.1335, 62.62913
547.6156, 65.32624
548.0977, 68.27282
548.5798, 71.52299
549.0620, 75.06770
549.5441, 78.84588
550.0262, 82.98045
550.5083, 87.19899
550.9904, 91.38444
551.4725, 95.74702
551.9547, 100.7546
552.4368, 106.1576
552.9189, 111.1213
553.4010, 114.9719
553.8831, 117.9148
554.3652, 120.7765
554.8474, 123.8134
555.3295, 126.0861
555.8116, 127.7685
556.2937, 128.2775
556.7758, 126.9321
557.2579, 123.7700
557.7401, 119.6717
558.2222, 114.8725
558.7043, 109.5911
559.1864, 104.0246
559.6685, 98.20918
560.1506, 92.38960
560.6328, 86.64074
561.1149, 81.05987
561.5970, 75.76719
562.0791, 70.73302
562.5612, 66.06240
563.0433, 61.79649
563.5255, 57.89939
564.0076, 54.28619
564.4897, 50.98395
564.9718, 48.06988
565.4539, 45.60619
565.9360, 43.52132
566.4182, 41.61427
566.9003, 39.96792
567.3824, 38.32300
567.8645, 36.49891
568.3466, 34.80088
568.8287, 33.44569
569.3109, 32.39751
569.7930, 31.51037
570.2751, 30.69984
570.7572, 29.97412
571.2393, 29.34447
571.7214, 28.80868
572.2036, 28.42417
572.6857, 28.29067
573.1678, 28.23612
573.6499, 28.05944
574.1320, 27.76544
574.6141, 27.44369
575.0963, 26.94778
575.5784, 26.57083
576.0605, 26.64721
576.5426, 27.07636
577.0247, 27.50994
577.5068, 27.79177
577.9890, 27.97692
578.4711, 28.14752
578.9532, 28.19097
579.4353, 28.52477
579.9174, 29.42946
580.3995, 30.30743
580.8817, 30.79111
581.3638, 31.04564
581.8459, 31.47244
582.3280, 32.28810
582.8101, 33.13472
583.2922, 33.39324
583.7744, 33.02477
584.2565, 32.63998
584.7386, 32.43393
585.2207, 32.04493
585.7029, 31.15689
586.1850, 29.90178
586.6671, 28.58388
587.1492, 27.12412
587.6313, 25.81763
588.1135, 24.93081
588.5956, 24.35363
589.0777, 23.84746
589.5598, 23.35439
590.0419, 22.88080
590.5240, 22.42725
591.0062, 21.99214
591.4883, 21.65740
591.9704, 21.49346
592.4525, 21.33131
592.9346, 21.09039
593.4167, 20.84961
593.8989, 20.69511
594.3810, 20.64789
594.8631, 20.67468
595.3452, 20.74838
595.8273, 20.86790
596.3094, 21.01337
596.7916, 21.16264
597.2737, 21.39075
597.7558, 22.00294
598.2379, 22.57208
598.7200, 22.57638
599.2021, 21.91544
599.6843, 21.13986
600.1664, 20.43153
600.6485, 19.82118
601.1306, 19.36986
601.6127, 19.07330
602.0948, 18.85484
602.5770, 18.68765
603.0591, 18.53994
603.5412, 18.32385
604.0233, 18.00064
604.5054, 17.66659
604.9875, 17.25466
605.4697, 16.88915
605.9518, 16.68352
606.4339, 16.59211
606.9160, 16.48960
607.3981, 16.30472
607.8802, 16.07826
608.3624, 15.86850
608.8445, 15.66401
609.3266, 15.58448
609.8087, 15.73992
610.2908, 15.90704
610.7729, 15.86768
611.2551, 15.70340
611.7372, 15.66570
612.2193, 15.91934
612.7014, 16.19143
613.1835, 16.21267
613.6656, 16.11868
614.1478, 16.26718
614.6299, 16.74290
615.1120, 17.20148
615.5941, 17.26066
616.0762, 16.91768
616.5583, 16.82462
617.0405, 17.21437
617.5226, 17.56196
618.0047, 17.71779
618.4868, 17.83344
618.9689, 18.03955
619.4510, 18.36538
619.9332, 18.78138
620.4153, 19.18869
620.8974, 19.68272
621.3795, 20.80236
621.8616, 22.77585
622.3438, 24.11561
622.8259, 23.88687
623.3080, 23.08289
623.7901, 23.03473
624.2722, 23.77009
624.7543, 24.59051
625.2365, 25.32420
625.7186, 26.06250
626.2007, 26.83637
626.6828, 27.67352
627.1649, 28.61152
627.6470, 29.66995
628.1292, 30.87459
628.6113, 32.31800
629.0934, 34.12400
629.5755, 35.65852
630.0576, 36.70192
630.5397, 37.69307
631.0219, 38.96189
631.5040, 40.17284
631.9861, 40.80151
632.4682, 40.68396
632.9503, 40.34558
633.4324, 40.39856
633.9146, 40.61694
634.3967, 40.23769
634.8788, 39.16940
635.3609, 37.81717
635.8430, 36.36489
636.3251, 34.82032
636.8073, 33.21527
637.2894, 31.47207
637.7715, 29.84720
638.2536, 28.37524
638.7357, 27.03152
639.2178, 25.83434
639.7000, 24.74986
640.1821, 23.66156
640.6642, 22.48907
641.1463, 21.38605
641.6284, 20.70569
642.1105, 20.54493
642.5927, 20.30502
643.0748, 19.93523
643.5569, 19.47830
644.0390, 18.87607
644.5211, 18.22359
645.0032, 17.72872
645.4854, 17.49294
645.9675, 17.28961
646.4496, 16.93864
646.9317, 16.52262
647.4138, 16.20256
647.8959, 15.99771
648.3781, 15.82988
648.8602, 15.65477
649.3423, 15.45776
649.8244, 15.17332
650.3065, 14.65662
650.7886, 14.27068
651.2708, 14.08514
651.7529, 13.97655
652.2350, 13.88826
652.7171, 13.80603
653.1992, 13.72499
653.6813, 13.64768
654.1635, 13.55587
654.6456, 13.41831
655.1277, 13.23724
655.6098, 13.02473
656.0919, 12.75376
656.5740, 12.53850
657.0562, 12.51280
657.5383, 12.64581
658.0204, 12.68910
658.5025, 12.55981
658.9846, 12.44403
659.4667, 12.44848
659.9489, 12.46076
660.4310, 12.34928
660.9131, 12.11311
661.3952, 11.83828
661.8773, 11.57298
662.3594, 11.34154
662.8416, 11.22912
663.3237, 11.25997
663.8058, 11.32146
664.2879, 11.42015
664.7700, 11.51776
665.2521, 11.60688
665.7343, 11.67540
666.2164, 11.68045
666.6985, 11.56876
667.1806, 11.44534
667.6627, 11.36512
668.1448, 11.33058
668.6270, 11.36983
669.1091, 11.48079
669.5912, 11.58129
670.0733, 11.60138
670.5554, 11.54607
671.0375, 11.43823
671.5197, 11.10369
672.0018, 11.01299
672.4839, 11.58548
672.9660, 12.08291
673.4481, 11.85076
673.9302, 11.06869
674.4124, 10.45159
674.8945, 10.40416
675.3766, 10.61676
675.8587, 10.74415
676.3408, 10.79913
676.8229, 10.83348
677.3051, 10.85449
677.7872, 10.88387
678.2693, 10.94512
678.7514, 11.03429
679.2335, 11.10521
679.7156, 11.25386
680.1978, 11.25849
680.6799, 10.98490
681.1620, 10.63227
681.6441, 10.31514
682.1262, 10.07379
682.6083, 9.959939
683.0905, 10.01539
683.5726, 10.19019
684.0547, 10.43082
684.5368, 10.73612
685.0189, 10.94970
685.5010, 11.04733
685.9832, 11.02845
686.4653, 10.80592
686.9474, 10.44825
687.4295, 10.30505
687.9116, 10.56555
688.3937, 10.79292
688.8759, 10.87850
689.3580, 10.85971
689.8401, 10.71647
690.3222, 10.49342
690.8043, 10.33024
691.2864, 10.32082
691.7686, 10.41630
692.2507, 10.49049
692.7328, 10.52713
693.2149, 10.66891
693.6970, 11.08050
694.1791, 11.38851
694.6613, 11.24526
695.1434, 10.81982
695.6255, 10.47173
696.1076, 10.24470
696.5897, 10.12061
697.0718, 10.10676
697.5540, 10.18129
698.0361, 10.39327
698.5182, 10.68941
699.0003, 10.83479
699.4824, 10.67041
699.9645, 10.34755
700.4467, 10.23901
700.9288, 10.39342
701.4109, 10.58916
701.8930, 10.90606
702.3751, 11.14757
702.8572, 11.18068
703.3394, 11.09054
703.8215, 11.01430
704.3036, 10.97789
704.7857, 10.96518
705.2678, 11.01406
705.7499, 11.05574
706.2321, 10.95973
706.7142, 10.74925
707.1963, 10.59511
707.6784, 10.59120
708.1605, 10.65472
708.6426, 10.59637
709.1248, 10.31936
709.6069, 10.27206
710.0890, 10.74686
710.5711, 11.10737
711.0532, 11.01581
711.5353, 10.74335
712.0175, 10.65177
712.4996, 10.81703
712.9817, 11.02771
713.4638, 11.22912
713.9459, 11.35527
714.4280, 11.25367
714.9102, 10.96993
715.3923, 10.72500
715.8744, 10.60725
716.3565, 10.61886
716.8386, 10.78692
717.3207, 11.14786
717.8029, 11.39387
718.2850, 11.41259
718.7671, 11.45078
719.2492, 11.63667
719.7313, 11.82164
720.2134, 11.82171
720.6956, 11.63511
721.1777, 11.47655
721.6598, 11.52861
722.1419, 11.63928
722.6240, 11.57129
723.1061, 11.38156
723.5883, 11.31494
724.0704, 11.44904
724.5525, 11.63919
725.0346, 11.73929
725.5167, 11.75062
725.9988, 11.73054
726.4810, 11.59659
726.9631, 11.55267
727.4452, 11.68516
727.9273, 11.86159
728.4094, 11.98291
728.8915, 12.05529
729.3737, 12.14391
729.8558, 12.31230
730.3379, 12.45272
730.8200, 12.38631
731.3021, 12.20496
731.7842, 12.20290
732.2664, 12.42737
732.7485, 12.61371
733.2306, 12.54022
733.7127, 12.29643
734.1948, 12.24628
734.6769, 12.57692
735.1591, 12.75956
735.6412, 12.64101
736.1233, 12.52295
736.6054, 12.60714
737.0875, 12.78989
737.5696, 12.85572
738.0518, 12.72332
738.5339, 12.55154
739.0160, 12.47563
739.4981, 12.44265
739.9802, 12.31676
740.4623, 12.11102
740.9445, 12.01079
741.4266, 12.11347
741.9087, 12.35442
742.3908, 12.64427
742.8729, 13.04887
743.3550, 13.21896
743.8372, 12.92937
744.3193, 12.66991
744.8014, 12.62254
745.2835, 12.64163
745.7656, 12.51391
746.2477, 12.22783
746.7299, 12.07959
747.2120, 12.34695
747.6941, 12.74962
748.1762, 12.94592
748.6583, 13.00110
749.1404, 13.16949
749.6226, 13.51983
750.1047, 13.81420
750.5868, 13.80139
751.0689, 13.50514
751.5510, 13.14989
752.0331, 12.51483
752.5153, 12.25238
752.9974, 12.90278
753.4795, 13.57543
753.9616, 13.62313
754.4437, 13.21641
754.9258, 12.96771
755.4080, 13.12401
755.8901, 13.35902
756.3722, 13.45409
756.8543, 13.48620
757.3364, 13.56888
757.8185, 13.70947
758.3007, 13.89096
758.7828, 14.11807
759.2649, 14.28227
759.7470, 14.08687
760.2291, 13.39707
760.7112, 13.00514
761.1934, 13.08228
761.6755, 13.21818
762.1576, 13.24441
762.6397, 13.20853
763.1218, 13.14356
763.6039, 13.04025
764.0861, 13.02047
764.5682, 13.24632
765.0503, 13.46070
765.5324, 13.41572
766.0145, 13.21850
766.4966, 13.05891
766.9788, 13.00497
767.4609, 13.10067
767.9430, 13.45863
768.4251, 13.97717
768.9072, 14.09388
769.3893, 13.72354
769.8715, 13.39017
770.3536, 13.22695
770.8357, 13.12899
771.3178, 12.95171
771.7999, 12.74176
772.2820, 12.74949
772.7642, 13.28400
773.2463, 13.63832
773.7284, 13.47482
774.2105, 13.16593
774.6926, 13.02887
775.1747, 13.05045
775.6569, 13.07698
776.1390, 13.03173
776.6211, 12.96136
777.1032, 12.92209
777.5853, 12.91285
778.0674, 12.92106
778.5496, 12.94220
779.0317, 13.02433
779.5138, 13.21757
779.9959, 13.44712
780.4780, 13.59039
780.9601, 13.64989
781.4423, 13.59954
781.9244, 13.31004
782.4065, 13.07286
782.8886, 12.98907
783.3707, 12.99956
783.8528, 13.04832
784.3350, 13.12168
784.8171, 13.21906
785.2992, 13.38206
785.7813, 13.52224
786.2634, 13.47701
786.7455, 13.31079
787.2277, 13.25025
787.7098, 13.33900
788.1919, 13.43371
788.6740, 13.41495
789.1561, 13.32568
789.6382, 13.33651
790.1204, 13.53757
790.6025, 13.61938
791.0846, 13.46289
791.5667, 13.29750
792.0488, 13.17906
792.5309, 13.13240
793.0131, 13.24379
793.4952, 13.56782
793.9773, 13.73988
794.4594, 13.37138
794.9415, 12.95968
795.4236, 13.01091
795.9058, 13.39316
796.3879, 13.82062
796.8700, 14.17841
797.3521, 14.31165
797.8342, 13.95498
798.3163, 13.27969
798.7985, 13.27611
799.2806, 14.10029
799.7627, 14.67928
800.2448, 14.70620
800.7269, 14.53293
801.2090, 14.42959
801.6912, 14.38140
802.1733, 14.29897
802.6554, 14.08839
803.1375, 13.99255
803.6196, 14.07522
804.1017, 14.27023
804.5839, 14.59032
805.0660, 14.97193
805.5481, 15.33880
806.0302, 15.66552
806.5123, 15.82729
806.9944, 15.56295
807.4766, 15.07918
807.9587, 14.88049
808.4408, 14.96678
808.9229, 15.14068
809.4050, 15.33854
809.8871, 15.54726
810.3693, 15.75645
810.8514, 15.96575
811.3335, 16.14145
811.8156, 16.31031
812.2977, 16.40021
812.7798, 16.29747
813.2620, 16.20870
813.7441, 16.34054
814.2262, 16.59621
814.7083, 16.65903
815.1904, 16.30965
815.6725, 16.09872
816.1547, 16.54821
816.6368, 17.15189
817.1189, 17.28432
817.6010, 17.02984
818.0831, 16.77765
818.5652, 16.69806
819.0474, 16.78396
819.5295, 17.14258
820.0116, 17.70271
820.4937, 17.70228
820.9758, 17.00966
821.4579, 16.55768
821.9401, 16.70000
822.4222, 17.09070
822.9043, 17.41816
823.3864, 17.67725
823.8685, 17.82483
824.3506, 17.80010
824.8328, 17.75439
825.3149, 17.61960
825.7970, 17.55167
826.2791, 17.66588
826.7612, 17.93824
827.2433, 18.33280
827.7255, 18.86542
828.2076, 19.30214
828.6897, 19.41279
829.1718, 19.31616
829.6539, 19.12794
830.1360, 18.90330
830.6182, 18.86979
831.1003, 19.11582
831.5824, 19.37153
832.0645, 19.26275
832.5466, 18.84681
833.0287, 18.89576
833.5109, 19.60726
833.9930, 20.18223
834.4751, 20.35770
834.9572, 20.46729
835.4393, 20.84885
835.9214, 21.37828
836.4036, 21.66208
836.8857, 21.42708
837.3678, 21.43933
837.8499, 22.08772
838.3320, 22.85785
838.8141, 23.41691
839.2963, 23.80521
839.7784, 24.12991
840.2605, 24.43250
840.7426, 24.77891
841.2247, 25.26087
841.7068, 25.81408
842.1890, 26.32749
842.6711, 26.80152
843.1532, 27.19341
843.6353, 27.48928
844.1174, 27.82421
844.5995, 28.30529
845.0817, 28.93486
845.5638, 29.73106
846.0459, 30.79891
846.5280, 31.72474
847.0101, 32.26941
847.4922, 32.93576
847.9744, 34.14933
848.4565, 35.57362
848.9386, 36.63493
849.4207, 37.20684
849.9028, 38.01479
850.3849, 39.52411
850.8671, 41.02838
851.3492, 42.00085
851.8313, 42.76720
852.3134, 43.77432
852.7955, 45.08876
853.2776, 46.53296
853.7598, 47.96962
854.2419, 49.51527
854.7240, 51.43611
855.2061, 53.64405
855.6882, 55.70394
856.1703, 57.56313
856.6525, 59.54308
857.1346, 61.84074
857.6167, 64.24442
858.0988, 66.31052
858.5809, 67.99406
859.0630, 69.61536
859.5452, 71.02848
860.0273, 72.64174
860.5094, 74.99146
860.9915, 77.25488
861.4736, 78.77764
861.9557, 79.57322
862.4379, 79.81473
862.9200, 79.40318
863.4021, 78.61864
863.8842, 77.26248
864.3663, 75.82426
864.8484, 74.82166
865.3306, 74.08666
865.8127, 73.12446
866.2948, 71.75426
866.7769, 70.16453
867.2590, 68.57597
867.7411, 66.89880
868.2233, 64.73302
868.7054, 62.24395
869.1875, 60.42750
869.6696, 59.56993
870.1517, 59.04865
870.6339, 58.31176
871.1160, 57.39093
871.5981, 56.42852
872.0802, 55.42463
872.5623, 54.32029
873.0444, 52.82338
873.5266, 51.71702
874.0087, 51.73186
874.4908, 52.29424
874.9729, 52.28436
875.4550, 51.54525
875.9371, 51.12930
876.4193, 51.34885
876.9014, 51.71155
877.3835, 51.96811
877.8656, 52.29331
878.3477, 53.01735
878.8298, 54.03234
879.3120, 54.76757
879.7941, 54.77588
880.2762, 54.83666
880.7583, 55.86255
881.2404, 57.38361
881.7225, 58.54381
882.2047, 59.36031
882.6868, 60.24239
883.1689, 61.37136
883.6510, 62.78979
884.1331, 64.66721
884.6152, 66.89986
885.0974, 68.54684
885.5795, 69.48433
886.0616, 70.68749
886.5437, 72.38661
887.0258, 74.39893
887.5079, 76.62901
887.9901, 79.04142
888.4722, 81.50609
888.9543, 84.04153
889.4364, 86.61311
889.9185, 89.03083
890.4006, 91.68693
890.8828, 94.77469
891.3649, 98.17097
891.8470, 101.8172
892.3291, 105.6731
892.8112, 109.5062
893.2933, 112.8999
893.7755, 116.6112
894.2576, 121.4512
894.7397, 126.6694
895.2218, 131.1742
895.7039, 135.1254
896.1860, 139.4643
896.6682, 144.6935
897.1503, 150.2990
897.6324, 155.6425
898.1145, 160.8962
898.5966, 166.7466
899.0787, 173.1245
899.5609, 179.2670
900.0430, 184.8932
900.5251, 190.9435
901.0072, 198.3463
901.4893, 206.9361
901.9714, 215.7136
902.4536, 224.4468
902.9357, 234.2186
903.4178, 245.1922
903.8999, 257.0683
904.3820, 269.6827
904.8641, 283.0575
905.3463, 297.1288
905.8284, 311.6884
906.3105, 327.8286
906.7926, 345.9976
907.2747, 365.2336
907.7568, 385.1778
908.2390, 406.1601
908.7211, 428.4377
909.2032, 452.1512
909.6853, 478.1891
910.1674, 507.2421
910.6495, 536.7347
911.1317, 564.0547
911.6138, 591.8002
912.0959, 624.0617
912.5780, 658.8614
913.0601, 691.6728
913.5422, 721.2236
914.0244, 748.3517
914.5065, 774.5637
914.9886, 797.6063
915.4707, 813.0740
915.9528, 821.2005
916.4349, 823.7740
916.9171, 821.0113
917.3992, 811.4941
917.8813, 794.2698
918.3634, 770.3422
918.8455, 740.7306
919.3276, 705.1085
919.8098, 668.5002
920.2919, 630.4232
920.7740, 592.2183
921.2561, 553.3688
921.7382, 515.3295
922.2203, 478.6442
922.7025, 443.6390
923.1846, 411.0720
923.6667, 381.0245
924.1488, 352.9510
924.6309, 326.4008
925.1130, 302.2572
925.5952, 281.2188
926.0773, 262.4818
926.5594, 245.4267
927.0415, 229.9156
927.5236, 215.4780
928.0057, 201.8516
928.4879, 189.3590
928.9700, 178.4135
929.4521, 168.5808
929.9342, 159.4214
930.4163, 150.8476
930.8984, 142.7030
931.3806, 134.9285
931.8627, 127.7027
932.3448, 121.2722
932.8269, 115.0946
933.3090, 109.8707
933.7911, 104.5514
934.2733, 99.91122
934.7554, 95.98571
935.2375, 91.93148
935.7196, 87.11682
936.2017, 82.15764
936.6838, 78.57774
937.1660, 76.45859
937.6481, 73.83902
938.1302, 70.55312
938.6123, 67.47447
939.0944, 64.90557
939.5765, 62.61649
940.0587, 60.43684
940.5408, 58.32265
941.0229, 56.05099
941.5050, 53.19333
941.9871, 50.96608
942.4692, 49.88210
942.9514, 48.90328
943.4335, 47.63770
943.9156, 46.24733
944.3977, 44.93932
944.8798, 43.72764
945.3619, 42.51256
945.8441, 41.24223
946.3262, 40.01188
946.8083, 38.68755
947.2904, 37.56382
947.7725, 37.05939
948.2546, 36.90766
948.7368, 36.49229
949.2189, 35.62141
949.7010, 34.66278
950.1831, 33.74767
950.6652, 32.94903
951.1473, 32.42458
951.6295, 32.03077
952.1116, 31.47791
952.5937, 30.76836
953.0758, 30.15787
953.5579, 29.79153
954.0400, 29.56809
954.5222, 29.48682
955.0043, 29.41048
955.4864, 28.78826
955.9685, 27.70718
956.4506, 26.85269
956.9327, 26.43076
957.4149, 26.42397
957.8970, 26.90506
958.3791, 27.59776
958.8612, 27.58287
959.3433, 26.79896
959.8254, 26.17517
960.3076, 25.76508
960.7897, 25.57710
961.2718, 25.71069
961.7539, 25.87070
962.2360, 25.66684
962.7181, 25.11560
963.2003, 24.60321
963.6824, 24.00771
964.1645, 23.71466
964.6466, 24.05627
965.1287, 24.33877
965.6108, 24.02861
966.0930, 23.50759
966.5751, 23.40219
967.0572, 23.78139
967.5393, 23.94094
968.0214, 23.59785
968.5035, 23.30821
968.9857, 23.29952
969.4678, 23.32912
969.9499, 23.17895
970.4320, 22.92349
970.9141, 22.76950
971.3962, 22.78064
971.8784, 22.75604
972.3605, 22.50239
972.8426, 22.29279
973.3247, 22.37874
973.8068, 22.58081
974.2889, 22.68916
974.7711, 22.67839
975.2532, 22.60045
975.7353, 22.47341
976.2174, 22.32610
976.6995, 22.13409
977.1816, 21.97274
977.6638, 21.98244
978.1459, 22.10579
978.6280, 22.23136
979.1101, 22.31087
979.5922, 22.23100
980.0743, 21.88188
980.5565, 21.47429
981.0386, 21.39547
981.5207, 21.54651
982.0028, 21.57911
982.4849, 21.48222
982.9670, 21.35721
983.4492, 21.23850
983.9313, 21.06503
984.4134, 20.74578
984.8955, 20.38814
985.3776, 20.43077
985.8597, 20.89695
986.3419, 20.93449
986.8240, 20.40638
987.3061, 19.89237
987.7882, 19.62553
988.2703, 19.52814
988.7524, 19.52670
989.2346, 19.60806
989.7167, 19.62165
990.1988, 19.51024
990.6809, 19.52489
991.1630, 19.81973
991.6451, 19.98930
992.1273, 19.75933
992.6094, 19.35084
993.0915, 19.06671
993.5736, 18.90673
994.0557, 18.87886
994.5378, 19.05380
995.0200, 19.25902
995.5021, 19.65143
995.9842, 19.88695
996.4663, 19.65778
996.9484, 19.20353
997.4305, 18.87786
997.9127, 18.70145
998.3948, 18.74902
998.8769, 19.29004
999.3590, 19.71300
999.8411, 19.73944
1000.323, 19.66323
1000.805, 19.69439
1001.287, 19.80719
1001.770, 19.93128
1002.252, 20.05685
1002.734, 20.09427
1003.216, 19.93972
1003.698, 19.76398
1004.180, 19.57464
1004.662, 19.48557
1005.144, 19.67334
1005.627, 20.06390
1006.109, 20.46761
1006.591, 20.82610
1007.073, 21.03678
1007.555, 20.92340
1008.037, 20.72905
1008.519, 20.64396
1009.001, 20.66113
1009.483, 20.71623
1009.966, 20.84705
1010.448, 21.28477
1010.930, 22.15574
1011.412, 22.91902
1011.894, 22.88141
1012.376, 22.48964
1012.858, 22.32659
1013.340, 22.41106
1013.823, 22.88625
1014.305, 23.66417
1014.787, 24.19794
1015.269, 24.15969
1015.751, 23.93121
1016.233, 23.92717
1016.715, 24.16895
1017.197, 24.87280
1017.679, 25.90644
1018.162, 26.62960
1018.644, 26.91536
1019.126, 27.06452
1019.608, 27.26188
1020.090, 27.53564
1020.572, 27.93450
1021.054, 28.45455
1021.536, 29.13917
1022.018, 29.97703
1022.501, 30.64770
1022.983, 31.07001
1023.465, 31.46389
1023.947, 31.98356
1024.429, 32.60624
1024.911, 33.31556
1025.393, 34.11643
1025.875, 34.78960
1026.358, 35.30861
1026.840, 35.92344
1027.322, 36.70751
1027.804, 37.54870
1028.286, 38.33402
1028.768, 39.16269
1029.250, 40.31055
1029.732, 41.81654
1030.214, 43.33564
1030.697, 44.96499
1031.179, 46.19323
1031.661, 46.64958
1032.143, 47.26741
1032.625, 48.95943
1033.107, 49.73497
1033.589, 50.83885
1034.071, 52.45748
1034.553, 53.12508
1035.036, 54.92736
1035.518, 56.53973
1036.000, 57.52230
1036.482, 58.37403
1036.964, 59.54180
1037.446, 60.86089
1037.928, 61.81019
1038.410, 62.27699
1038.893, 62.78062
1039.375, 63.38447
1039.857, 63.92881
1040.339, 64.48648
1040.821, 64.86083
1041.303, 64.97724
1041.785, 64.78523
1042.267, 64.06371
1042.750, 62.55235
1043.232, 61.38697
1043.714, 61.00734
1044.196, 60.39752
1044.678, 59.21449
1045.160, 57.83264
1045.642, 56.56656
1046.124, 55.31029
1046.606, 53.73134
1047.089, 51.68357
1047.571, 49.87253
1048.053, 48.72102
1048.535, 47.35688
1049.017, 45.34871
1049.499, 43.21392
1049.981, 41.30782
1050.463, 39.59360
1050.945, 37.97128
1051.428, 36.44596
1051.910, 34.90401
1052.392, 33.18807
1052.874, 31.64493
1053.356, 30.45998
1053.838, 29.41017
1054.320, 28.34550
1054.802, 27.28400
1055.285, 26.28290
1055.767, 25.35754
1056.249, 24.45346
1056.731, 23.50696
1057.213, 22.64874
1057.695, 21.98157
1058.177, 21.37410
1058.659, 20.65404
1059.141, 19.94312
1059.624, 19.53153
1060.106, 19.47041
1060.588, 19.28332
1061.070, 18.74076
1061.552, 18.14870
1062.034, 17.53240
1062.516, 17.00545
1062.998, 16.71201
1063.480, 16.54825
1063.963, 16.34092
1064.445, 16.06160
1064.927, 15.77420
1065.409, 15.45726
1065.891, 15.19732
1066.373, 15.07730
1066.855, 14.98229
1067.337, 14.85493
1067.820, 14.67653
1068.302, 14.39174
1068.784, 14.01620
1069.266, 13.71638
1069.748, 13.50414
1070.230, 13.46924
1070.712, 13.87236
1071.194, 14.24381
1071.677, 14.14113
1072.159, 13.82976
1072.641, 13.72622
1073.123, 13.85031
1073.605, 13.94351
1074.087, 13.94418
1074.569, 13.82393
1075.051, 13.44930
1075.533, 13.07520
1076.016, 12.90154
1076.498, 12.82768
1076.980, 12.72377
1077.462, 12.57708
1077.944, 12.41143
1078.426, 12.19552
1078.908, 12.10343
1079.390, 12.41325
1079.873, 12.65245
1080.355, 12.34470
1080.837, 11.91034
1081.319, 11.91082
1081.801, 12.24443
1082.283, 12.43632
1082.765, 12.34736
1083.247, 12.11854
1083.729, 11.59696
1084.212, 11.21307
1084.694, 11.36457
1085.176, 11.66052
1085.658, 11.71349
1086.140, 11.56264
1086.622, 11.37663
1087.104, 11.19083
1087.586, 11.09132
1088.068, 11.17513
1088.551, 11.27609
1089.033, 11.30461
1089.515, 11.32117
1089.997, 11.46482
1090.479, 11.60422
1090.961, 11.38193
1091.443, 10.77191
1091.925, 10.48440
1092.408, 11.18855
1092.890, 11.71349
1093.372, 11.48950
1093.854, 11.02402
1094.336, 10.45611
1094.818, 10.01316
1095.300, 10.10201
1095.782, 10.66949
1096.265, 11.00007
1096.747, 10.74941
1097.229, 10.50725
1097.711, 10.48720
1098.193, 10.51204
1098.675, 10.48985
1099.157, 10.44691
1099.639, 10.43769
1100.121, 10.44509
1100.604, 10.36780
1101.086, 10.11587
1101.568, 9.993567
1102.050, 10.26885
1102.532, 10.45362
1103.014, 10.19805
1103.496, 9.876101
1103.978, 9.825980
1104.460, 9.992674
1104.943, 10.18122
1105.425, 10.36751
1105.907, 10.55949
1106.389, 10.92200
1106.871, 11.06641
1107.353, 10.59569
1107.835, 10.15631
1108.317, 10.36064
1108.800, 10.82654
1109.282, 10.81804
1109.764, 10.26243
1110.246, 9.908147
1110.728, 9.952002
1111.210, 10.00799
1111.692, 10.17930
1112.174, 10.17257
1112.656, 9.554975
1113.139, 8.874563
1113.621, 8.900262
1114.103, 9.560070
1114.585, 9.991045
1115.067, 10.13697
1115.549, 10.14052
1116.031, 9.898809
1116.513, 9.657410
1116.995, 9.406878
1117.478, 9.280360
1117.960, 9.488115
1118.442, 9.890498
1118.924, 10.02341
1119.406, 9.778571
1119.888, 9.700849
1120.370, 9.902047
1120.852, 10.03528
1121.335, 10.00352
1121.817, 9.930960
1122.299, 9.899955
1122.781, 9.812369
1123.263, 9.788635
1123.745, 9.636819
1124.227, 9.518478
1124.709, 9.427790
1125.192, 9.401513
1125.674, 9.474526
1126.156, 9.508349
1126.638, 9.407080
1127.120, 9.319958
1127.602, 9.433331
1128.084, 9.707270
1128.566, 9.983996
1129.048, 10.29242
1129.531, 10.28428
1130.013, 9.884447
1130.495, 9.633199
1130.977, 9.720340
1131.459, 9.854244
1131.941, 9.785900
1132.423, 9.645097
1132.905, 9.803456
1133.387, 10.21520
1133.870, 10.00668
1134.352, 9.214881
1134.834, 8.989535
1135.316, 9.543608
1135.798, 10.06817
1136.280, 10.12231
1136.762, 9.958667
1137.244, 9.889585
1137.727, 9.870210
1138.209, 9.713902
1138.691, 9.484083
1139.173, 9.486707
1139.655, 9.715334
1140.137, 9.950639
1140.619, 10.11175
1141.101, 10.21126
1141.583, 10.25735
1142.066, 10.25777
1142.548, 10.19457
1143.030, 10.10993
1143.512, 10.09239
1143.994, 10.12856
1144.476, 10.21207
1144.958, 10.30580
1145.440, 10.23999
1145.922, 9.915127
1146.405, 9.625094
1146.887, 9.717346
1147.369, 9.920517
1147.851, 9.920083
1148.333, 9.830702
1148.815, 9.792593
1149.297, 9.833532
1149.779, 10.00908
1150.262, 10.31089
1150.744, 10.49640
1151.226, 10.28867
1151.708, 10.15454
1152.190, 10.59563
1152.672, 11.03581
1153.154, 10.81084
1153.636, 10.37034
1154.119, 10.47384
1154.601, 11.06454
1155.083, 11.44047
1155.565, 11.34698
1156.047, 11.25364
1156.529, 11.28595
1157.011, 11.38650
1157.493, 11.59835
1157.975, 11.80479
1158.458, 11.92716
1158.940, 11.96463
1159.422, 11.91234
1159.904, 11.76285
1160.386, 11.63553
1160.868, 11.41429
1161.350, 11.41359
1161.832, 11.92263
1162.314, 12.32350
1162.797, 12.31933
1163.279, 12.12387
1163.761, 11.89007
1164.243, 11.66730
1164.725, 11.71935
1165.207, 12.19728
1165.689, 12.40487
1166.171, 12.24385
1166.654, 12.09611
1167.136, 12.03078
1167.618, 12.06376
1168.100, 12.21514
1168.582, 12.45645
1169.064, 12.76991
1169.546, 13.12683
1170.028, 13.24271
1170.510, 13.11330
1170.993, 12.86609
1171.475, 12.51019
1171.957, 12.31960
1172.439, 12.39921
1172.921, 12.59743
1173.403, 12.80330
1173.885, 12.93951
1174.367, 12.78488
1174.849, 12.44524
1175.332, 12.27168
1175.814, 12.24977
1176.296, 12.26398
1176.778, 12.30615
1177.260, 12.50022
1177.742, 12.90415
1178.224, 13.27102
1178.706, 13.32658
1179.189, 13.52020
1179.671, 13.35953
1180.153, 13.46766
1180.635, 13.28518
1181.117, 12.93821
1181.599, 12.75170
1182.081, 12.77291
1182.563, 12.80730
1183.046, 12.76130
1183.528, 12.72304
1184.010, 12.76699
1184.492, 12.81033
1184.974, 12.80167
1185.456, 12.75938
1185.938, 12.65573
1186.420, 12.55010
1186.902, 12.60484
1187.385, 12.85799
1187.867, 12.99093
1188.349, 12.83619
1188.831, 12.71590
1189.313, 12.79502
1189.795, 12.79471
1190.277, 12.32588
1190.759, 11.93244
1191.241, 12.34565
1191.724, 12.20117
1192.206, 12.31208
1192.688, 12.81073
1193.170, 12.65534
1193.652, 13.33227
1194.134, 13.70582
1194.616, 13.50219
1195.098, 13.11034
1195.581, 12.69918
1196.063, 12.37235
1196.545, 12.30004
1197.027, 12.40395
1197.509, 12.27458
1197.991, 12.38907
1198.473, 12.02755
1198.955, 12.51835
1199.438, 12.83228
1199.920, 12.81485
1200.402, 12.70479
1200.884, 12.65510
1201.366, 12.64050
1201.848, 12.64653
1202.330, 12.65126
1202.812, 12.60681
1203.294, 12.53188
1203.776, 12.47007
1204.259, 12.41391
1204.741, 12.29175
1205.223, 12.10796
1205.705, 12.04616
1206.187, 12.25582
1206.669, 12.49611
1207.151, 12.69179
1207.633, 12.75271
1208.116, 12.43140
1208.598, 12.07181
1209.080, 12.17172
1209.562, 12.55371
1210.044, 12.63678
1210.526, 12.29102
1211.008, 12.05599
1211.490, 12.11368
1211.973, 12.16920
1212.455, 12.12727
1212.937, 12.12627
1213.419, 12.28958
1213.901, 12.45356
1214.383, 12.43730
1214.865, 12.29572
1215.347, 12.20488
1215.829, 12.15373
1216.312, 12.22802
1216.794, 12.42894
1217.276, 12.82446
1217.758, 13.50831
1218.240, 13.80960
1218.722, 13.36248
1219.204, 12.66257
1219.686, 12.22617
1220.168, 12.03024
1220.651, 12.08913
1221.133, 12.32642
1221.615, 12.45810
1222.097, 12.47251
1222.579, 12.31751
1223.061, 12.04319
1223.543, 11.93523
1224.025, 12.12859
1224.508, 12.46150
1224.990, 13.00971
1225.472, 13.35885
1225.954, 12.83349
1226.436, 12.09994
1226.918, 11.93883
1227.400, 12.12268
1227.882, 12.16968
1228.365, 12.06370
1228.847, 12.13709
1229.329, 12.56311
1229.811, 12.82227
1230.293, 12.73031
1230.775, 12.50726
1231.257, 12.01850
1231.739, 11.64619
1232.221, 11.76255
1232.703, 12.03766
1233.186, 12.00389
1233.668, 12.17389
1234.150, 12.28158
1234.632, 12.24749
1235.114, 12.42947
1235.596, 12.22298
1236.078, 12.16805
1236.560, 12.41764
1237.043, 12.60273
1237.525, 12.48987
1238.007, 12.36632
1238.489, 12.67006
1238.971, 13.14929
1239.453, 12.97534
1239.935, 13.16889
1240.417, 13.25307
1240.900, 13.00583
1241.382, 13.17491
1241.864, 12.87126
1242.346, 12.48582
1242.828, 12.19824
1243.310, 12.11593
1243.792, 12.53139
1244.274, 12.93951
1244.756, 12.85788
1245.239, 12.65059
1245.721, 12.66402
1246.203, 12.79953
1246.685, 12.85630
1247.167, 12.83899
1247.649, 12.90895
1248.131, 13.14760
1248.613, 13.29388
1249.095, 13.13779
1249.578, 13.16692
1250.060, 13.57828
1250.542, 14.02645
1251.024, 14.45568
1251.506, 14.63102
1251.988, 14.16996
1252.470, 13.30974
1252.952, 13.01666
1253.435, 13.30654
1253.917, 13.44139
1254.399, 13.41972
1254.881, 13.54471
1255.363, 13.85783
1255.845, 14.12641
1256.327, 14.24062
1256.809, 14.21565
1257.292, 14.04943
1257.774, 13.79154
1258.256, 13.32868
1258.738, 12.96240
1259.220, 13.30862
1259.702, 13.96099
1260.184, 14.21623
1260.666, 14.08014
1261.148, 13.86298
1261.630, 13.64672
1262.113, 13.64225
1262.595, 14.18618
1263.077, 14.56178
1263.559, 14.45417
1264.041, 14.27149
1264.523, 14.19423
1265.005, 14.14224
1265.487, 13.99465
1265.970, 13.85051
1266.452, 13.97708
1266.934, 13.95345
1267.416, 13.98039
1267.898, 14.19350
1268.380, 14.12782
1268.862, 14.35033
1269.344, 14.54463
1269.827, 14.60945
1270.309, 14.46304
1270.791, 14.00954
1271.273, 13.64293
1271.755, 14.14203
1272.237, 14.94614
1272.719, 14.94221
1273.201, 14.53138
1273.683, 14.36519
1274.166, 14.43963
1274.648, 14.63014
1275.130, 14.86237
1275.612, 14.96839
1276.094, 14.86468
1276.576, 14.72362
1277.058, 14.52679
1277.540, 14.42566
1278.022, 14.65139
1278.505, 14.80224
1278.987, 14.48090
1279.469, 14.04628
1279.951, 13.92602
1280.433, 14.04278
1280.915, 14.06282
1281.397, 13.95365
1281.879, 14.04081
1282.362, 14.34450
1282.844, 14.65437
1283.326, 14.94003
1283.808, 14.96294
1284.290, 14.62577
1284.772, 14.25624
1285.254, 14.10959
1285.736, 14.18392
##END=



