##NAMES=Almandine
##RRUFFID=R040168
##IDEAL CHEMISTRY=Fe^2+^_3_Al_2_(SiO_4_)_3_
##LOCALITY=Pocos Dos Cavatos, Ceara, Brazil
##OWNER=RRUFF
##SOURCE=University of Arizona Mineral Museum
##DESCRIPTION=Dark red etched single crystal
##STATUS=The identification of this mineral has been confirmed by X-ray diffraction and chemical analysis
##URL=rruff.info/R040168
##MEASURED CHEMISTRY=(Fe^2+^_1.48_Mn_1.47_Ca_0.05_)_Î£=3_Al_2.00_(Si_1.00_O_4_)_3_; trace amounts of Ti and Y
148.0179, 1056.384
148.5001, 1082.698
148.9822, 1106.922
149.4643, 1127.725
149.9464, 1145.479
150.4285, 1165.001
150.9106, 1193.298
151.3928, 1228.385
151.8749, 1252.192
152.3570, 1257.290
152.8391, 1254.519
153.3212, 1251.488
153.8033, 1248.573
154.2855, 1249.358
154.7676, 1259.158
155.2497, 1275.807
155.7318, 1289.757
156.2139, 1300.224
156.6960, 1306.935
157.1782, 1307.036
157.6603, 1299.023
158.1424, 1293.580
158.6245, 1299.393
159.1066, 1314.225
159.5887, 1334.384
160.0709, 1358.406
160.5530, 1387.427
161.0351, 1422.946
161.5172, 1464.963
161.9993, 1513.071
162.4814, 1572.368
162.9636, 1637.278
163.4457, 1698.821
163.9278, 1763.075
164.4099, 1819.167
164.8920, 1844.872
165.3741, 1835.047
165.8563, 1808.392
166.3384, 1768.351
166.8205, 1720.882
167.3026, 1675.654
167.7847, 1636.658
168.2668, 1602.175
168.7490, 1567.384
169.2311, 1529.464
169.7132, 1497.743
170.1953, 1479.096
170.6774, 1468.871
171.1595, 1460.570
171.6417, 1452.441
172.1238, 1443.835
172.6059, 1432.861
173.0880, 1418.483
173.5701, 1403.700
174.0522, 1387.045
174.5344, 1371.224
175.0165, 1360.973
175.4986, 1360.096
175.9807, 1365.267
176.4628, 1367.544
176.9449, 1366.583
177.4271, 1362.992
177.9092, 1354.320
178.3913, 1344.219
178.8734, 1338.284
179.3555, 1340.679
179.8376, 1347.601
180.3197, 1347.271
180.8019, 1335.249
181.2840, 1323.548
181.7661, 1318.267
182.2482, 1314.839
182.7303, 1306.530
183.2124, 1288.476
183.6946, 1266.035
184.1767, 1255.475
184.6588, 1264.434
185.1409, 1272.520
185.6230, 1274.959
186.1051, 1273.437
186.5873, 1269.395
187.0694, 1263.120
187.5515, 1255.772
188.0336, 1250.600
188.5157, 1249.858
188.9978, 1247.405
189.4800, 1239.152
189.9621, 1229.938
190.4442, 1225.058
190.9263, 1227.090
191.4084, 1233.491
191.8905, 1238.448
192.3727, 1242.586
192.8548, 1243.818
193.3369, 1240.323
193.8190, 1235.004
194.3011, 1230.741
194.7832, 1228.688
195.2654, 1227.653
195.7475, 1224.257
196.2296, 1213.336
196.7117, 1210.305
197.1938, 1221.649
197.6759, 1237.806
198.1581, 1251.601
198.6402, 1260.503
199.1223, 1264.735
199.6044, 1263.238
200.0865, 1248.672
200.5686, 1243.588
201.0508, 1254.267
201.5329, 1270.578
202.0150, 1285.720
202.4971, 1297.592
202.9792, 1306.956
203.4613, 1315.033
203.9435, 1321.875
204.4256, 1327.089
204.9077, 1329.867
205.3898, 1331.869
205.8719, 1332.113
206.3540, 1331.333
206.8362, 1333.911
207.3183, 1347.875
207.8004, 1381.227
208.2825, 1405.075
208.7646, 1409.398
209.2467, 1412.990
209.7289, 1428.286
210.2110, 1455.652
210.6931, 1485.684
211.1752, 1506.822
211.6573, 1515.468
212.1395, 1528.016
212.6216, 1547.729
213.1037, 1568.183
213.5858, 1585.899
214.0679, 1601.067
214.5500, 1616.461
215.0322, 1635.685
215.5143, 1660.197
215.9964, 1678.287
216.4785, 1686.074
216.9606, 1691.239
217.4427, 1698.427
217.9249, 1705.812
218.4070, 1707.842
218.8891, 1699.444
219.3712, 1680.380
219.8533, 1659.447
220.3354, 1631.467
220.8176, 1606.650
221.2997, 1589.102
221.7818, 1576.908
222.2639, 1566.356
222.7460, 1555.479
223.2281, 1543.869
223.7103, 1528.084
224.1924, 1502.408
224.6745, 1478.511
225.1566, 1459.566
225.6387, 1443.716
226.1208, 1427.682
226.6030, 1409.404
227.0851, 1390.113
227.5672, 1375.304
228.0493, 1370.164
228.5314, 1362.532
229.0135, 1348.645
229.4957, 1331.995
229.9778, 1316.533
230.4599, 1304.041
230.9420, 1293.587
231.4241, 1282.418
231.9062, 1267.697
232.3884, 1257.634
232.8705, 1254.192
233.3526, 1254.557
233.8347, 1257.918
234.3168, 1263.722
234.7989, 1268.501
235.2811, 1265.167
235.7632, 1248.282
236.2453, 1236.204
236.7274, 1231.901
237.2095, 1231.144
237.6916, 1231.660
238.1738, 1232.818
238.6559, 1234.689
239.1380, 1238.173
239.6201, 1244.765
240.1022, 1247.313
240.5843, 1241.096
241.0665, 1234.449
241.5486, 1231.782
242.0307, 1232.900
242.5128, 1234.493
242.9949, 1233.526
243.4770, 1229.856
243.9592, 1225.227
244.4413, 1217.667
244.9234, 1210.981
245.4055, 1206.188
245.8876, 1203.394
246.3697, 1202.799
246.8519, 1205.819
247.3340, 1211.594
247.8161, 1211.594
248.2982, 1198.312
248.7803, 1189.422
249.2624, 1195.953
249.7446, 1209.700
250.2267, 1216.840
250.7088, 1208.520
251.1909, 1190.433
251.6730, 1179.203
252.1551, 1177.795
252.6373, 1177.387
253.1194, 1176.002
253.6015, 1173.679
254.0836, 1170.152
254.5657, 1165.112
255.0478, 1159.670
255.5300, 1154.267
256.0121, 1147.240
256.4942, 1146.772
256.9763, 1164.240
257.4584, 1184.057
257.9406, 1195.131
258.4227, 1195.037
258.9048, 1188.673
259.3869, 1177.702
259.8690, 1161.574
260.3511, 1154.022
260.8333, 1164.727
261.3154, 1178.854
261.7975, 1186.716
262.2796, 1187.867
262.7617, 1185.059
263.2438, 1175.720
263.7260, 1162.302
264.2081, 1160.987
264.6902, 1181.402
265.1723, 1201.851
265.6544, 1204.557
266.1365, 1193.982
266.6187, 1184.555
267.1008, 1185.184
267.5829, 1191.180
268.0650, 1192.303
268.5471, 1187.220
269.0292, 1180.848
269.5114, 1176.392
269.9935, 1172.980
270.4756, 1168.918
270.9577, 1160.748
271.4398, 1154.233
271.9219, 1158.562
272.4041, 1174.150
272.8862, 1186.452
273.3683, 1186.871
273.8504, 1179.810
274.3325, 1174.186
274.8146, 1170.027
275.2968, 1167.984
275.7789, 1170.483
276.2610, 1176.061
276.7431, 1178.286
277.2252, 1173.792
277.7073, 1166.377
278.1895, 1162.630
278.6716, 1163.256
279.1537, 1163.361
279.6358, 1158.760
280.1179, 1153.044
280.6000, 1153.635
281.0822, 1162.913
281.5643, 1173.879
282.0464, 1177.462
282.5285, 1172.844
283.0106, 1171.112
283.4927, 1176.634
283.9749, 1183.571
284.4570, 1185.895
284.9391, 1183.441
285.4212, 1181.124
285.9033, 1182.988
286.3854, 1189.053
286.8676, 1194.687
287.3497, 1201.379
287.8318, 1206.277
288.3139, 1205.543
288.7960, 1201.645
289.2781, 1201.736
289.7603, 1210.491
290.2424, 1225.045
290.7245, 1233.081
291.2066, 1226.344
291.6887, 1223.748
292.1708, 1232.249
292.6530, 1244.958
293.1351, 1253.328
293.6172, 1254.361
294.0993, 1250.756
294.5814, 1246.843
295.0635, 1239.398
295.5457, 1238.366
296.0278, 1247.244
296.5099, 1259.468
296.9920, 1271.314
297.4741, 1281.911
297.9562, 1291.476
298.4384, 1300.577
298.9205, 1309.697
299.4026, 1314.867
299.8847, 1312.737
300.3668, 1310.135
300.8489, 1306.876
301.3311, 1305.021
301.8131, 1308.967
302.2953, 1322.757
302.7774, 1343.434
303.2595, 1355.429
303.7416, 1351.978
304.2237, 1349.394
304.7058, 1350.310
305.1880, 1354.030
305.6701, 1359.729
306.1522, 1367.098
306.6343, 1376.410
307.1164, 1388.174
307.5985, 1402.461
308.0807, 1418.789
308.5628, 1442.785
309.0449, 1464.731
309.5270, 1475.226
310.0091, 1474.773
310.4912, 1476.315
310.9734, 1492.583
311.4555, 1522.241
311.9376, 1550.516
312.4197, 1576.291
312.9018, 1600.539
313.3839, 1623.858
313.8661, 1646.387
314.3482, 1668.107
314.8303, 1686.831
315.3124, 1705.713
315.7945, 1731.307
316.2766, 1764.628
316.7588, 1798.523
317.2409, 1828.924
317.7230, 1857.268
318.2051, 1885.454
318.6872, 1912.130
319.1693, 1941.146
319.6515, 1977.795
320.1336, 2019.868
320.6157, 2059.562
321.0978, 2096.769
321.5799, 2125.939
322.0620, 2136.911
322.5442, 2129.230
323.0263, 2114.680
323.5084, 2092.712
323.9905, 2067.298
324.4726, 2043.732
324.9547, 2022.799
325.4369, 2002.030
325.9190, 1979.287
326.4011, 1954.375
326.8832, 1927.490
327.3653, 1890.985
327.8474, 1859.387
328.3296, 1841.359
328.8117, 1835.188
329.2938, 1835.143
329.7759, 1838.225
330.2580, 1844.142
330.7401, 1851.506
331.2223, 1858.538
331.7044, 1869.325
332.1865, 1884.647
332.6686, 1903.807
333.1507, 1924.969
333.6328, 1947.878
334.1150, 1975.795
334.5971, 2014.576
335.0792, 2068.341
335.5613, 2121.731
336.0434, 2172.052
336.5255, 2224.270
337.0077, 2277.612
337.4898, 2334.333
337.9719, 2400.184
338.4540, 2479.873
338.9361, 2572.573
339.4182, 2671.185
339.9004, 2775.864
340.3825, 2885.972
340.8646, 2998.947
341.3467, 3117.701
341.8288, 3248.003
342.3109, 3394.355
342.7931, 3543.990
343.2752, 3680.182
343.7573, 3803.402
344.2394, 3911.568
344.7215, 4012.042
345.2036, 4088.976
345.6858, 4133.942
346.1679, 4146.160
346.6500, 4124.222
347.1321, 4067.541
347.6142, 3976.307
348.0963, 3844.332
348.5785, 3662.224
349.0606, 3465.250
349.5427, 3269.625
350.0248, 3079.593
350.5069, 2911.782
350.9890, 2784.793
351.4712, 2667.899
351.9533, 2527.911
352.4354, 2371.572
352.9175, 2234.493
353.3996, 2133.709
353.8817, 2062.232
354.3639, 2005.503
354.8460, 1969.457
355.3281, 1932.378
355.8102, 1884.063
356.2923, 1834.709
356.7744, 1796.295
357.2566, 1771.321
357.7387, 1757.258
358.2208, 1752.231
358.7029, 1758.140
359.1850, 1762.958
359.6671, 1764.376
360.1493, 1767.113
360.6314, 1771.365
361.1135, 1778.665
361.5956, 1792.696
362.0777, 1816.355
362.5598, 1846.136
363.0420, 1868.378
363.5241, 1870.792
364.0062, 1886.035
364.4883, 1922.271
364.9704, 1968.525
365.4525, 2017.318
365.9347, 2066.260
366.4168, 2115.265
366.8989, 2162.286
367.3810, 2207.199
367.8631, 2258.855
368.3452, 2323.316
368.8274, 2388.177
369.3095, 2451.583
369.7916, 2510.902
370.2737, 2559.677
370.7558, 2592.604
371.2379, 2615.245
371.7201, 2640.948
372.2022, 2672.109
372.6843, 2682.962
373.1664, 2658.702
373.6485, 2608.334
374.1306, 2547.908
374.6128, 2477.123
375.0949, 2399.078
375.5770, 2312.272
376.0591, 2220.374
376.5412, 2130.837
377.0233, 2045.209
377.5055, 1961.458
377.9876, 1875.901
378.4697, 1788.385
378.9518, 1711.450
379.4339, 1649.982
379.9160, 1595.146
380.3982, 1542.500
380.8803, 1492.527
381.3624, 1448.805
381.8445, 1413.682
382.3266, 1384.569
382.8087, 1352.965
383.2909, 1315.072
383.7730, 1279.966
384.2551, 1246.315
384.7372, 1216.528
385.2193, 1193.035
385.7014, 1175.906
386.1836, 1162.566
386.6657, 1150.249
387.1478, 1138.871
387.6299, 1131.298
388.1120, 1134.050
388.5941, 1132.872
389.0763, 1122.449
389.5584, 1105.406
390.0405, 1084.357
390.5226, 1058.080
391.0047, 1034.645
391.4868, 1030.088
391.9690, 1046.955
392.4511, 1058.401
392.9332, 1054.294
393.4153, 1044.640
393.8974, 1039.401
394.3795, 1038.655
394.8617, 1036.830
395.3438, 1030.734
395.8259, 1021.997
396.3080, 1012.787
396.7901, 1003.236
397.2722, 994.3251
397.7544, 986.2097
398.2365, 979.4514
398.7186, 975.8168
399.2007, 976.6509
399.6828, 979.0276
400.1649, 986.2289
400.6471, 993.2202
401.1292, 988.7495
401.6113, 968.9975
402.0934, 946.4067
402.5755, 940.3206
403.0576, 959.9490
403.5398, 968.0527
404.0219, 954.0803
404.5040, 940.1119
404.9861, 939.6367
405.4682, 948.8212
405.9503, 955.7870
406.4325, 952.6544
406.9146, 942.5873
407.3967, 936.9527
407.8788, 937.9297
408.3609, 938.9623
408.8430, 940.4230
409.3252, 940.3815
409.8073, 936.0059
410.2894, 927.2731
410.7715, 919.1902
411.2536, 917.0897
411.7357, 919.6646
412.2179, 920.3899
412.7000, 918.8091
413.1821, 915.4491
413.6642, 907.0394
414.1463, 897.3311
414.6284, 894.9333
415.1106, 906.4143
415.5927, 919.5133
416.0748, 925.6383
416.5569, 926.1175
417.0390, 924.3877
417.5211, 921.1252
418.0033, 917.9116
418.4854, 917.5670
418.9675, 921.8185
419.4496, 922.8378
419.9317, 918.3358
420.4138, 912.1709
420.8960, 906.3666
421.3781, 901.1673
421.8602, 895.7719
422.3423, 889.1891
422.8244, 882.9962
423.3065, 884.6120
423.7887, 904.4250
424.2708, 915.6426
424.7529, 910.2750
425.2350, 899.5870
425.7171, 892.6041
426.1992, 890.5989
426.6814, 889.1260
427.1635, 882.3480
427.6456, 871.0996
428.1277, 866.8533
428.6098, 873.3862
429.0919, 879.6969
429.5741, 878.0671
430.0562, 873.1462
430.5383, 872.3456
431.0204, 879.3176
431.5025, 886.5894
431.9846, 886.3264
432.4668, 880.9379
432.9489, 880.0691
433.4310, 887.4123
433.9131, 895.6288
434.3952, 895.2417
434.8773, 885.1414
435.3595, 877.9148
435.8416, 877.6641
436.3237, 877.3713
436.8058, 869.9996
437.2879, 858.9727
437.7701, 854.3677
438.2522, 861.8519
438.7343, 875.5352
439.2164, 879.8367
439.6985, 864.9830
440.1806, 858.2349
440.6628, 865.5436
441.1449, 875.5832
441.6270, 883.4235
442.1091, 887.4894
442.5912, 885.8835
443.0733, 874.6464
443.5555, 857.5876
444.0376, 850.0217
444.5197, 854.4175
445.0018, 861.4360
445.4839, 871.2073
445.9660, 879.9904
446.4482, 883.7308
446.9303, 881.6049
447.4124, 876.9094
447.8945, 869.8012
448.3766, 861.8970
448.8587, 856.6078
449.3409, 854.4086
449.8230, 854.3018
450.3051, 856.2313
450.7872, 859.8190
451.2693, 861.3516
451.7514, 858.4500
452.2336, 856.4212
452.7157, 858.2576
453.1978, 861.5615
453.6799, 862.3636
454.1620, 859.7147
454.6441, 856.8465
455.1263, 858.5244
455.6084, 866.2976
456.0905, 869.8172
456.5726, 862.7553
457.0547, 857.8070
457.5368, 860.2732
458.0190, 867.0630
458.5011, 873.1105
458.9832, 876.3144
459.4653, 877.9224
459.9474, 879.6371
460.4295, 881.4595
460.9117, 883.0069
461.3938, 884.7740
461.8759, 885.4164
462.3580, 881.7169
462.8401, 875.0206
463.3222, 873.0023
463.8044, 882.1720
464.2865, 893.4065
464.7686, 897.9016
465.2507, 897.1307
465.7328, 897.3298
466.2149, 901.1130
466.6971, 907.6099
467.1792, 915.2820
467.6613, 925.8083
468.1434, 933.8560
468.6255, 936.8360
469.1076, 939.6409
469.5898, 944.7429
470.0719, 952.3193
470.5540, 962.1075
471.0361, 974.3517
471.5182, 987.7098
472.0003, 997.9516
472.4825, 1002.979
472.9646, 1010.450
473.4467, 1027.886
473.9288, 1043.927
474.4109, 1050.877
474.8930, 1048.656
475.3752, 1042.416
475.8573, 1033.808
476.3394, 1023.586
476.8215, 1012.660
477.3036, 1001.069
477.7857, 989.8167
478.2679, 979.9566
478.7500, 970.3249
479.2321, 957.5772
479.7142, 940.3187
480.1963, 924.1934
480.6784, 909.4047
481.1606, 896.7912
481.6427, 886.0585
482.1248, 877.9023
482.6069, 875.5253
483.0890, 882.1818
483.5711, 895.6268
484.0533, 903.2260
484.5354, 900.2695
485.0175, 899.1049
485.4996, 903.0868
485.9817, 908.2169
486.4638, 910.6671
486.9460, 910.4084
487.4281, 911.1436
487.9102, 916.5234
488.3923, 925.0873
488.8744, 931.9672
489.3565, 936.5839
489.8387, 942.5983
490.3208, 951.9297
490.8029, 963.8847
491.2850, 975.9726
491.7671, 986.4729
492.2492, 1001.988
492.7314, 1026.160
493.2135, 1055.590
493.6956, 1088.036
494.1777, 1122.340
494.6598, 1155.865
495.1419, 1186.751
495.6241, 1214.937
496.1062, 1240.808
496.5883, 1263.081
497.0704, 1284.493
497.5525, 1305.129
498.0346, 1325.288
498.5168, 1348.772
498.9989, 1373.793
499.4810, 1389.834
499.9631, 1388.491
500.4452, 1371.229
500.9273, 1341.134
501.4095, 1295.198
501.8916, 1248.843
502.3737, 1208.683
502.8558, 1171.811
503.3379, 1132.490
503.8200, 1088.673
504.3022, 1051.384
504.7843, 1029.662
505.2664, 1013.940
505.7485, 992.4594
506.2306, 965.1788
506.7127, 940.7374
507.1949, 925.0675
507.6770, 916.3539
508.1591, 906.7698
508.6412, 893.6144
509.1233, 883.6224
509.6054, 879.3004
510.0876, 876.4384
510.5697, 871.5666
511.0518, 864.9598
511.5339, 859.7216
512.0161, 859.0319
512.4982, 860.7084
512.9803, 857.6573
513.4624, 848.6243
513.9445, 842.9433
514.4266, 846.7449
514.9088, 852.9873
515.3909, 851.3655
515.8730, 841.0496
516.3551, 833.8339
516.8372, 836.7380
517.3193, 841.7341
517.8015, 840.5928
518.2836, 834.3853
518.7657, 829.0065
519.2478, 827.4844
519.7299, 829.1798
520.2120, 833.0024
520.6942, 842.6638
521.1763, 847.2213
521.6584, 842.4344
522.1405, 837.1409
522.6226, 836.4057
523.1047, 839.1117
523.5869, 841.5410
524.0690, 841.7952
524.5511, 840.6979
525.0332, 839.0892
525.5153, 836.9800
525.9974, 835.8672
526.4796, 835.5640
526.9617, 837.2718
527.4438, 844.9530
527.9259, 857.5207
528.4080, 863.5119
528.8901, 856.1637
529.3723, 846.9107
529.8544, 840.5588
530.3365, 837.5496
530.8186, 839.4702
531.3007, 846.6901
531.7828, 855.1049
532.2650, 859.0258
532.7471, 857.8427
533.2292, 855.9193
533.7113, 848.8903
534.1934, 846.3589
534.6755, 854.3762
535.1577, 867.3162
535.6398, 877.2181
536.1219, 881.5588
536.6040, 885.4579
537.0861, 894.2672
537.5682, 906.4744
538.0504, 917.1938
538.5325, 925.7364
539.0146, 933.2511
539.4967, 939.9845
539.9788, 946.3225
540.4609, 953.9657
540.9431, 960.8610
541.4252, 971.7490
541.9073, 990.0630
542.3894, 1011.169
542.8715, 1030.640
543.3536, 1048.221
543.8358, 1066.281
544.3179, 1086.681
544.8000, 1109.157
545.2821, 1132.446
545.7642, 1156.072
546.2463, 1181.747
546.7285, 1211.049
547.2106, 1241.677
547.6927, 1270.407
548.1748, 1297.761
548.6569, 1330.684
549.1390, 1378.435
549.6211, 1428.607
550.1032, 1467.361
550.5853, 1496.128
551.0674, 1522.222
551.5496, 1549.235
552.0317, 1572.706
552.5138, 1584.954
552.9959, 1582.110
553.4780, 1581.008
553.9601, 1595.135
554.4423, 1596.442
554.9244, 1569.218
555.4065, 1523.132
555.8886, 1471.584
556.3707, 1419.019
556.8528, 1369.413
557.3350, 1329.177
557.8171, 1297.052
558.2992, 1262.877
558.7813, 1225.701
559.2634, 1186.319
559.7455, 1142.409
560.2277, 1097.073
560.7098, 1060.117
561.1919, 1035.496
561.6740, 1012.237
562.1561, 983.8366
562.6382, 957.0082
563.1204, 941.2007
563.6025, 935.3422
564.0846, 928.7177
564.5667, 913.0097
565.0488, 891.0829
565.5309, 874.2018
566.0131, 864.2306
566.4952, 854.6086
566.9773, 842.6931
567.4594, 832.0609
567.9415, 825.6006
568.4236, 822.6931
568.9058, 820.1135
569.3879, 817.2219
569.8700, 813.4013
570.3521, 805.8847
570.8342, 796.6307
571.3163, 793.6647
571.7985, 799.9890
572.2806, 807.6244
572.7627, 806.5380
573.2448, 795.4747
573.7269, 787.4967
574.2090, 783.7411
574.6912, 781.4432
575.1733, 774.0099
575.6554, 762.5827
576.1375, 768.5228
576.6196, 771.6136
577.1017, 772.0084
577.5839, 761.6317
578.0660, 765.1641
578.5481, 763.1224
579.0302, 760.8521
579.5123, 766.3420
579.9944, 775.1567
580.4766, 790.5284
580.9587, 793.7371
581.4408, 781.7378
581.9229, 773.0363
582.4050, 771.4186
582.8871, 772.7348
583.3693, 776.1539
583.8514, 780.0753
584.3335, 780.8777
584.8156, 776.8415
585.2977, 772.5594
585.7798, 778.0682
586.2620, 795.1368
586.7441, 799.5196
587.2262, 781.3569
587.7083, 764.8250
588.1904, 766.6786
588.6725, 778.3958
589.1547, 786.2860
589.6368, 787.0561
590.1189, 787.9543
590.6010, 793.5392
591.0831, 800.6441
591.5652, 806.0067
592.0474, 808.9731
592.5295, 808.8270
593.0116, 804.8661
593.4937, 798.0567
593.9758, 791.2490
594.4579, 784.5515
594.9401, 777.6759
595.4222, 769.9766
595.9043, 762.7177
596.3864, 755.4539
596.8685, 749.2018
597.3506, 746.8395
597.8328, 751.4658
598.3149, 756.3345
598.7970, 756.0752
599.2791, 751.2417
599.7612, 741.8663
600.2433, 727.8980
600.7255, 714.6272
601.2076, 706.1642
601.6897, 702.3994
602.1718, 702.5101
602.6539, 711.7129
603.1360, 717.6796
603.6182, 720.2960
604.1003, 718.7892
604.5824, 709.4335
605.0645, 694.7629
605.5466, 684.0087
606.0287, 683.6252
606.5109, 688.3568
606.9930, 690.7728
607.4751, 691.1189
607.9572, 691.3882
608.4393, 692.1636
608.9214, 692.6006
609.4036, 691.6818
609.8857, 689.3981
610.3678, 687.8113
610.8499, 686.3738
611.3320, 686.2460
611.8141, 689.5783
612.2963, 693.1706
612.7784, 693.7061
613.2605, 690.9603
613.7426, 686.6969
614.2247, 680.7576
614.7068, 675.4750
615.1890, 677.6257
615.6711, 687.5360
616.1532, 698.0597
616.6353, 708.4670
617.1174, 716.3066
617.5995, 717.5454
618.0817, 712.0197
618.5638, 708.9540
619.0459, 711.0332
619.5280, 712.9290
620.0101, 711.2368
620.4922, 708.8786
620.9744, 709.8505
621.4565, 714.6853
621.9386, 720.5790
622.4207, 724.5819
622.9028, 727.8138
623.3849, 735.3846
623.8671, 748.2969
624.3492, 759.8794
624.8313, 768.9380
625.3134, 774.8975
625.7955, 774.0170
626.2776, 766.7949
626.7598, 767.2710
627.2419, 785.6937
627.7240, 803.2423
628.2061, 809.2737
628.6882, 808.8237
629.1703, 810.6825
629.6525, 816.2314
630.1346, 818.3278
630.6167, 808.5715
631.0988, 789.5502
631.5809, 776.4336
632.0630, 771.1869
632.5452, 763.7176
633.0273, 748.2553
633.5094, 731.8779
633.9915, 722.8248
634.4736, 720.7193
634.9557, 718.9083
635.4379, 719.6541
635.9200, 716.6762
636.4021, 701.9353
636.8842, 682.8240
637.3663, 671.2508
637.8484, 669.7370
638.3306, 671.9804
638.8127, 672.1555
639.2948, 670.5609
639.7769, 668.8378
640.2590, 666.7202
640.7411, 665.6678
641.2233, 668.8436
641.7054, 670.5490
642.1875, 662.0086
642.6696, 644.4760
643.1517, 634.4481
643.6339, 641.3774
644.1160, 650.1683
644.5981, 654.2999
645.0802, 654.2387
645.5623, 649.2490
646.0444, 640.1422
646.5266, 632.0717
647.0087, 630.0088
647.4908, 632.8943
647.9729, 636.1241
648.4550, 639.9623
648.9371, 643.1393
649.4193, 646.4228
649.9014, 647.6965
650.3835, 642.6687
650.8656, 632.7289
651.3477, 628.0272
651.8298, 636.4385
652.3120, 643.3972
652.7941, 640.1214
653.2762, 632.2806
653.7583, 626.3528
654.2404, 624.0222
654.7225, 625.8608
655.2047, 633.6985
655.6868, 644.2068
656.1689, 644.5234
656.6510, 632.2352
657.1331, 625.2068
657.6152, 630.5336
658.0974, 637.2620
658.5795, 633.4021
659.0616, 621.8718
659.5437, 615.9446
660.0258, 622.8123
660.5079, 627.9565
660.9901, 625.2997
661.4722, 619.2254
661.9543, 612.9644
662.4364, 607.7811
662.9185, 605.6564
663.4006, 608.6063
663.8828, 613.4141
664.3649, 611.3750
664.8470, 602.0880
665.3291, 600.5203
665.8112, 612.7485
666.2933, 623.8603
666.7755, 620.7791
667.2576, 607.3149
667.7397, 600.6939
668.2218, 605.7055
668.7039, 609.7153
669.1860, 608.6154
669.6682, 607.0083
670.1503, 609.8940
670.6324, 615.4755
671.1145, 617.7395
671.5966, 613.4312
672.0787, 606.7734
672.5609, 603.0390
673.0430, 602.1268
673.5251, 604.1222
674.0072, 609.7313
674.4893, 614.0481
674.9714, 613.7288
675.4536, 610.4879
675.9357, 608.7706
676.4178, 609.4137
676.8999, 609.7511
677.3820, 609.5562
677.8641, 609.2051
678.3463, 609.3973
678.8284, 609.4063
679.3105, 607.7870
679.7926, 604.0868
680.2747, 600.0822
680.7568, 596.6216
681.2390, 594.3209
681.7211, 596.2430
682.2032, 602.0900
682.6853, 603.8790
683.1674, 597.0942
683.6495, 588.2214
684.1317, 587.9835
684.6138, 598.9402
685.0959, 604.9627
685.5780, 600.6021
686.0601, 597.8792
686.5422, 602.1854
687.0244, 608.0028
687.5065, 609.0334
687.9886, 604.8031
688.4707, 600.4036
688.9528, 598.9159
689.4349, 598.5798
689.9171, 597.7932
690.3992, 596.4843
690.8813, 593.6304
691.3634, 589.0659
691.8455, 586.5671
692.3276, 590.6378
692.8098, 600.1395
693.2919, 604.4908
693.7740, 600.4658
694.2561, 598.4958
694.7382, 604.0973
695.2203, 609.0519
695.7025, 605.8277
696.1846, 596.8844
696.6667, 591.9064
697.1488, 596.3510
697.6309, 600.6304
698.1130, 598.5695
698.5952, 594.0762
699.0773, 591.2988
699.5594, 590.9943
700.0415, 593.6664
700.5236, 600.1194
701.0057, 607.0911
701.4879, 607.1793
701.9700, 600.0286
702.4521, 593.3465
702.9342, 587.3824
703.4163, 583.0261
703.8984, 581.2501
704.3806, 581.2966
704.8627, 581.4477
705.3448, 582.0695
705.8269, 581.7563
706.3090, 578.0300
706.7911, 575.5951
707.2733, 578.7298
707.7554, 584.6116
708.2375, 587.7722
708.7196, 586.7338
709.2017, 586.0746
709.6838, 591.3364
710.1660, 599.9847
710.6481, 606.4635
711.1302, 610.5841
711.6123, 610.0358
712.0944, 603.3252
712.5765, 594.3108
713.0587, 587.1136
713.5408, 581.5881
714.0229, 581.1563
714.5050, 592.9476
714.9871, 600.0411
715.4692, 597.5872
715.9514, 591.2934
716.4335, 583.1823
716.9156, 575.0336
717.3977, 572.3577
717.8798, 580.9968
718.3619, 590.6298
718.8441, 592.7680
719.3262, 590.4288
719.8083, 588.1537
720.2904, 586.8038
720.7725, 586.0076
721.2546, 585.4391
721.7368, 585.6268
722.2189, 588.9628
722.7010, 596.6761
723.1831, 598.3233
723.6652, 589.6644
724.1473, 581.7034
724.6295, 581.1841
725.1116, 585.3173
725.5937, 588.3471
726.0758, 590.0983
726.5579, 591.2359
727.0400, 592.3864
727.5222, 592.4507
728.0043, 590.5240
728.4864, 587.1594
728.9685, 582.2914
729.4506, 576.3253
729.9327, 572.5216
730.4149, 575.1470
730.8970, 581.5212
731.3791, 585.5828
731.8612, 587.5613
732.3433, 590.4139
732.8254, 595.5399
733.3076, 597.8059
733.7897, 590.4171
734.2718, 574.7353
734.7539, 568.8043
735.2360, 579.4669
735.7181, 588.4940
736.2003, 595.7737
736.6824, 599.1400
737.1645, 594.3515
737.6466, 584.6856
738.1287, 579.3378
738.6108, 583.0160
739.0930, 585.7206
739.5751, 578.4847
740.0572, 569.4960
740.5393, 569.3130
741.0214, 576.4715
741.5035, 583.8744
741.9857, 588.1733
742.4678, 589.4793
742.9499, 586.7084
743.4320, 580.3098
743.9141, 576.6332
744.3962, 576.0190
744.8784, 576.7064
745.3605, 578.2936
745.8426, 580.5187
746.3247, 583.6979
746.8068, 588.3475
747.2889, 588.7316
747.7711, 579.5261
748.2532, 573.1948
748.7353, 575.0503
749.2174, 579.2098
749.6995, 580.7972
750.1816, 579.5697
750.6638, 577.2722
751.1459, 574.3011
751.6280, 571.3604
752.1101, 567.6868
752.5922, 564.9985
753.0743, 568.2932
753.5565, 576.9321
754.0386, 583.7374
754.5207, 584.5223
755.0028, 580.8632
755.4849, 574.1075
755.9670, 563.1758
756.4492, 560.5830
756.9313, 570.4241
757.4134, 578.7109
757.8955, 578.0461
758.3776, 573.5484
758.8597, 574.2408
759.3419, 581.1682
759.8240, 581.9971
760.3061, 567.7870
760.7882, 556.8367
761.2703, 558.1672
761.7524, 564.7903
762.2346, 569.9268
762.7167, 572.5422
763.1988, 574.4257
763.6809, 577.1847
764.1630, 578.5882
764.6451, 573.5728
765.1273, 565.6328
765.6094, 565.6998
766.0915, 574.0995
766.5736, 577.9964
767.0557, 568.7537
767.5378, 553.4959
768.0200, 548.2754
768.5021, 555.0463
768.9842, 560.2570
769.4663, 563.5829
769.9484, 565.6561
770.4305, 567.0696
770.9127, 567.1182
771.3948, 563.9459
771.8769, 557.1273
772.3590, 552.9576
772.8411, 552.1011
773.3232, 554.1146
773.8054, 563.5007
774.2875, 572.5848
774.7696, 571.0844
775.2517, 560.4557
775.7338, 552.2612
776.2159, 553.5266
776.6981, 558.3315
777.1802, 561.2463
777.6623, 562.3424
778.1444, 560.4006
778.6265, 556.0298
779.1086, 554.9366
779.5908, 560.6791
780.0729, 568.9105
780.5550, 570.9738
781.0371, 565.9778
781.5192, 563.6480
782.0013, 564.2564
782.4835, 567.0723
782.9656, 574.2391
783.4477, 581.1820
783.9298, 580.0885
784.4119, 570.6395
784.8940, 567.8016
785.3762, 582.4807
785.8583, 590.5212
786.3404, 578.5468
786.8225, 562.7424
787.3046, 557.2266
787.7867, 560.8411
788.2689, 565.0618
788.7510, 566.9981
789.2331, 566.3526
789.7152, 560.8234
790.1973, 553.6104
790.6794, 549.2802
791.1616, 548.1522
791.6437, 549.9214
792.1258, 554.4716
792.6079, 559.6329
793.0900, 562.0804
793.5721, 562.2764
794.0543, 566.1068
794.5364, 575.0220
795.0185, 577.3688
795.5006, 566.4077
795.9827, 555.2469
796.4648, 558.2182
796.9470, 573.5469
797.4291, 582.0016
797.9112, 578.0272
798.3933, 574.9891
798.8754, 574.7015
799.3575, 574.2615
799.8397, 571.8051
800.3218, 568.0503
800.8039, 563.5217
801.2860, 557.6081
801.7681, 556.2821
802.2502, 568.3027
802.7324, 581.1449
803.2145, 582.2853
803.6966, 576.0300
804.1787, 570.5046
804.6608, 568.2190
805.1429, 569.1188
805.6251, 574.3912
806.1072, 581.1381
806.5893, 581.4681
807.0714, 576.6942
807.5535, 578.6125
808.0356, 589.8344
808.5178, 596.8895
808.9999, 589.5337
809.4820, 574.7588
809.9641, 570.7695
810.4462, 581.1034
810.9283, 589.3860
811.4105, 595.8073
811.8926, 599.9028
812.3747, 600.5454
812.8568, 599.3355
813.3389, 597.7502
813.8210, 595.8268
814.3032, 594.3879
814.7853, 593.4084
815.2674, 593.1241
815.7495, 593.5888
816.2316, 594.8024
816.7137, 597.3066
817.1959, 600.5498
817.6780, 602.9069
818.1601, 603.4696
818.6422, 604.1100
819.1243, 606.7388
819.6064, 610.3084
820.0886, 614.9860
820.5707, 619.2199
821.0528, 616.9476
821.5349, 606.2820
822.0170, 594.1374
822.4991, 587.6625
822.9813, 586.2383
823.4634, 587.9252
823.9455, 592.9235
824.4276, 597.2070
824.9097, 600.0010
825.3918, 601.6859
825.8740, 602.2887
826.3561, 602.1925
826.8382, 602.6036
827.3203, 603.0853
827.8024, 605.1518
828.2845, 612.3188
828.7667, 616.7051
829.2488, 612.6929
829.7309, 606.0908
830.2130, 603.9949
830.6951, 606.8152
831.1772, 609.6260
831.6594, 610.8898
832.1415, 612.3638
832.6236, 617.4543
833.1057, 621.1998
833.5878, 615.3020
834.0699, 603.2968
834.5521, 598.1900
835.0342, 606.8118
835.5163, 617.7280
835.9984, 619.2023
836.4805, 616.7175
836.9626, 619.5372
837.4448, 626.8623
837.9269, 633.9512
838.4090, 639.1310
838.8911, 643.1001
839.3732, 646.4628
839.8553, 649.2590
840.3375, 650.8651
840.8196, 651.1916
841.3017, 655.8071
841.7838, 666.6846
842.2659, 676.8047
842.7480, 680.6692
843.2302, 681.5657
843.7123, 688.4940
844.1944, 705.1214
844.6765, 715.3061
845.1586, 714.1385
845.6407, 713.8372
846.1229, 718.0432
846.6050, 725.3414
847.0871, 734.1722
847.5692, 744.6627
848.0513, 758.6121
848.5334, 784.6006
849.0156, 802.8724
849.4977, 799.1321
849.9798, 793.6918
850.4619, 803.7278
850.9440, 824.4006
851.4261, 842.5687
851.9083, 854.1802
852.3904, 864.9109
852.8725, 877.6730
853.3546, 892.2662
853.8367, 912.2285
854.3188, 932.8336
854.8010, 943.8282
855.2831, 944.0911
855.7652, 941.2160
856.2473, 940.6204
856.7294, 940.4100
857.2115, 936.8108
857.6937, 930.6076
858.1758, 925.3782
858.6579, 921.4243
859.1400, 917.5620
859.6221, 913.5009
860.1042, 907.2795
860.5864, 895.4034
861.0685, 878.2062
861.5506, 863.2656
862.0327, 850.8447
862.5148, 839.2272
862.9969, 826.3194
863.4791, 817.4955
863.9612, 819.0488
864.4433, 827.4787
864.9254, 830.1614
865.4075, 825.7199
865.8896, 818.3320
866.3718, 803.4618
866.8539, 791.1271
867.3360, 785.2883
867.8181, 783.4734
868.3002, 783.9035
868.7823, 786.1243
869.2645, 787.2615
869.7466, 781.3429
870.2287, 781.0029
870.7108, 798.4833
871.1929, 817.4445
871.6750, 821.1757
872.1572, 814.5801
872.6393, 811.3455
873.1214, 816.0403
873.6035, 823.8667
874.0856, 831.5255
874.5677, 840.3813
875.0499, 854.3306
875.5320, 870.0427
876.0141, 880.0159
876.4962, 883.4561
876.9783, 884.4630
877.4604, 884.5490
877.9426, 888.7813
878.4247, 910.6390
878.9068, 943.5782
879.3889, 960.2231
879.8710, 960.2897
880.3531, 964.7280
880.8353, 982.0916
881.3174, 1003.571
881.7995, 1017.913
882.2816, 1027.359
882.7637, 1047.461
883.2458, 1079.873
883.7280, 1109.925
884.2101, 1134.545
884.6922, 1158.423
885.1743, 1184.422
885.6564, 1211.336
886.1385, 1236.401
886.6207, 1258.409
887.1028, 1284.015
887.5849, 1319.256
888.0670, 1348.098
888.5491, 1359.900
889.0313, 1369.280
889.5134, 1388.943
889.9955, 1417.120
890.4776, 1445.834
890.9597, 1473.852
891.4418, 1503.408
891.9240, 1529.378
892.4061, 1563.039
892.8882, 1616.534
893.3703, 1678.265
893.8524, 1729.927
894.3345, 1770.440
894.8167, 1818.709
895.2988, 1880.411
895.7809, 1953.676
896.2630, 2044.038
896.7451, 2140.914
897.2272, 2225.259
897.7094, 2307.230
898.1915, 2417.318
898.6736, 2566.365
899.1557, 2723.589
899.6378, 2858.082
900.1199, 2991.317
900.6021, 3148.840
901.0842, 3326.105
901.5663, 3511.724
902.0484, 3704.502
902.5305, 3910.970
903.0126, 4133.881
903.4948, 4374.612
903.9769, 4638.308
904.4590, 4920.228
904.9411, 5198.392
905.4232, 5473.696
905.9053, 5755.865
906.3875, 6047.588
906.8696, 6335.211
907.3517, 6606.983
907.8338, 6861.732
908.3159, 7101.874
908.7980, 7327.271
909.2802, 7515.247
909.7623, 7665.725
910.2444, 7758.352
910.7265, 7783.290
911.2086, 7744.029
911.6907, 7641.917
912.1729, 7477.054
912.6550, 7276.673
913.1371, 7037.087
913.6192, 6771.115
914.1013, 6474.006
914.5834, 6162.828
915.0656, 5843.188
915.5477, 5519.099
916.0298, 5195.802
916.5119, 4870.483
916.9940, 4554.225
917.4761, 4234.615
917.9583, 3942.387
918.4404, 3683.591
918.9225, 3453.693
919.4046, 3258.276
919.8867, 3089.208
920.3688, 2916.259
920.8510, 2723.699
921.3331, 2555.582
921.8152, 2429.432
922.2973, 2315.948
922.7794, 2204.801
923.2615, 2095.982
923.7437, 1989.530
924.2258, 1886.352
924.7079, 1793.932
925.1900, 1716.744
925.6721, 1646.180
926.1542, 1580.681
926.6364, 1518.956
927.1185, 1459.942
927.6006, 1404.434
928.0827, 1354.519
928.5648, 1310.340
929.0469, 1266.870
929.5291, 1217.948
930.0112, 1172.671
930.4933, 1140.322
930.9754, 1113.626
931.4575, 1085.569
931.9396, 1054.409
932.4218, 1016.282
932.9039, 969.8903
933.3860, 930.5995
933.8681, 917.8561
934.3502, 914.7061
934.8323, 899.2162
935.3145, 876.6425
935.7966, 858.7849
936.2787, 846.3267
936.7608, 832.0136
937.2429, 811.9086
937.7250, 791.1642
938.2072, 776.3463
938.6893, 765.3621
939.1714, 752.8675
939.6535, 739.6833
940.1356, 730.5738
940.6177, 725.9960
941.0999, 719.1852
941.5820, 704.7105
942.0641, 688.7603
942.5462, 684.8745
943.0283, 689.8474
943.5104, 685.6465
943.9926, 672.3612
944.4747, 660.9712
944.9568, 654.8615
945.4389, 651.2935
945.9210, 648.0994
946.4031, 645.0120
946.8853, 641.2031
947.3674, 636.6688
947.8495, 631.4925
948.3316, 625.3732
948.8137, 623.3814
949.2958, 628.6930
949.7780, 632.2603
950.2601, 622.4190
950.7422, 603.1379
951.2243, 597.2415
951.7064, 607.7173
952.1885, 611.2065
952.6707, 603.0861
953.1528, 597.9664
953.6349, 604.9958
954.1170, 613.1010
954.5991, 605.6614
955.0812, 583.8339
955.5634, 573.2195
956.0455, 578.4592
956.5276, 580.5901
957.0097, 576.0232
957.4918, 570.7372
957.9739, 567.3555
958.4561, 565.8010
958.9382, 566.2079
959.4203, 568.7458
959.9024, 570.8839
960.3845, 572.7162
960.8666, 573.9176
961.3488, 573.8527
961.8309, 573.9832
962.3130, 575.8966
962.7951, 578.2411
963.2772, 578.1184
963.7593, 574.8748
964.2415, 572.6530
964.7236, 571.2141
965.2057, 571.1478
965.6878, 575.9733
966.1699, 578.8704
966.6520, 572.4568
967.1342, 561.5864
967.6163, 558.5237
968.0984, 567.1764
968.5805, 568.9777
969.0626, 554.1184
969.5447, 544.2648
970.0269, 550.0075
970.5090, 558.0037
970.9911, 557.0398
971.4732, 550.3435
971.9553, 547.6615
972.4374, 551.6995
972.9196, 553.2287
973.4017, 547.5264
973.8838, 543.5421
974.3659, 546.8011
974.8480, 551.1119
975.3301, 551.3123
975.8123, 547.8398
976.2944, 542.4794
976.7765, 533.7919
977.2586, 529.0239
977.7407, 532.9867
978.2228, 537.3284
978.7050, 538.9520
979.1871, 538.7789
979.6692, 537.8419
980.1513, 536.0820
980.6334, 532.2720
981.1155, 524.0320
981.5977, 520.4592
982.0798, 530.8849
982.5619, 538.8702
983.0440, 532.7841
983.5261, 522.2221
984.0082, 517.5210
984.4904, 518.5421
984.9725, 520.3804
985.4546, 522.1704
985.9367, 523.4443
986.4188, 524.4978
986.9009, 524.4738
987.3831, 521.5478
987.8652, 518.1743
988.3473, 517.6673
988.8294, 519.5726
989.3115, 520.4821
989.7936, 518.7135
990.2758, 517.8315
990.7579, 521.9520
991.2400, 524.5242
991.7221, 519.5001
992.2042, 511.7114
992.6863, 506.3759
993.1685, 504.2089
993.6506, 504.5733
994.1327, 508.0825
994.6148, 511.6816
995.0969, 516.9475
995.5790, 518.6904
996.0612, 508.7236
996.5433, 496.1352
997.0254, 493.1497
997.5075, 499.1873
997.9896, 504.7182
998.4717, 506.4099
998.9539, 507.4937
999.4360, 508.8992
999.9181, 510.8325
1000.400, 514.2596
1000.882, 517.7542
1001.364, 519.3724
1001.847, 519.2507
1002.329, 518.8227
1002.811, 518.1660
1003.293, 518.5673
1003.775, 523.4083
1004.257, 526.5178
1004.739, 521.4063
1005.221, 513.4934
1005.703, 507.8359
1006.186, 506.1179
1006.668, 512.0048
1007.150, 530.7988
1007.632, 543.3274
1008.114, 534.1907
1008.596, 523.2829
1009.078, 524.4336
1009.560, 530.6310
1010.043, 532.7850
1010.525, 531.0474
1011.007, 530.5797
1011.489, 533.0671
1011.971, 536.5425
1012.453, 542.5300
1012.935, 546.5690
1013.417, 543.0386
1013.899, 538.1848
1014.382, 539.6967
1014.864, 546.4648
1015.346, 552.2536
1015.828, 555.2341
1016.310, 557.6497
1016.792, 560.6851
1017.274, 562.9910
1017.756, 561.0931
1018.239, 560.2456
1018.721, 567.9404
1019.203, 581.2674
1019.685, 590.4546
1020.167, 592.6773
1020.649, 593.6753
1021.131, 591.7955
1021.613, 593.4982
1022.095, 605.8477
1022.578, 619.6671
1023.060, 625.2443
1023.542, 625.4709
1024.024, 628.9067
1024.506, 637.1681
1024.988, 648.1342
1025.470, 667.9680
1025.952, 681.5738
1026.435, 673.9390
1026.917, 666.3907
1027.399, 679.1137
1027.881, 704.2225
1028.363, 723.2272
1028.845, 733.0884
1029.327, 742.3994
1029.809, 754.6069
1030.292, 763.8071
1030.774, 766.3431
1031.256, 767.4980
1031.738, 769.8882
1032.220, 773.8052
1032.702, 782.1679
1033.184, 796.3475
1033.666, 797.3756
1034.148, 772.8895
1034.630, 750.4520
1035.113, 735.9255
1035.595, 722.9529
1036.077, 705.7828
1036.559, 689.2015
1037.041, 683.7186
1037.523, 690.0212
1038.005, 683.6366
1038.487, 650.8182
1038.970, 627.3979
1039.452, 621.7207
1039.934, 617.4832
1040.416, 608.6860
1040.898, 596.8685
1041.380, 582.9720
1041.862, 567.3846
1042.344, 554.0026
1042.826, 541.6990
1043.309, 534.6431
1043.791, 536.4777
1044.273, 537.0151
1044.755, 531.9961
1045.237, 524.8806
1045.719, 519.1547
1046.201, 514.3026
1046.683, 507.2190
1047.166, 494.8961
1047.648, 491.1429
1048.130, 499.0498
1048.612, 507.3650
1049.094, 514.7330
1049.576, 515.7601
1050.058, 503.5582
1050.540, 484.7040
1051.022, 478.4920
1051.505, 487.0962
1051.987, 484.8726
1052.469, 468.9299
1052.951, 461.8553
1053.433, 470.7867
1053.915, 478.9146
1054.397, 474.6071
1054.879, 463.8647
1055.361, 457.3113
1055.844, 454.6939
1056.326, 452.9849
1056.808, 452.1731
1057.290, 451.8235
1057.772, 451.8475
1058.254, 454.2188
1058.736, 460.2659
1059.218, 465.6731
1059.701, 464.4433
1060.183, 458.2061
1060.665, 450.9517
1061.147, 443.4897
1061.629, 441.8967
1062.111, 445.8210
1062.593, 446.3023
1063.075, 440.0509
1063.557, 434.2852
1064.040, 436.8300
1064.522, 442.4421
1065.004, 439.8287
1065.486, 433.3399
1065.968, 434.7965
1066.450, 442.5305
1066.932, 448.5406
1067.414, 450.3409
1067.896, 447.6169
1068.379, 438.7569
1068.861, 430.6094
1069.343, 434.2301
1069.825, 440.8435
1070.307, 435.1421
1070.789, 424.0370
1071.271, 423.5847
1071.753, 433.8227
1072.236, 442.4821
1072.718, 444.2245
1073.200, 442.4290
1073.682, 438.7820
1074.164, 433.4850
1074.646, 422.7150
1075.128, 413.2773
1075.610, 416.5014
1076.093, 427.8126
1076.575, 432.6204
1077.057, 426.8616
1077.539, 422.1563
1078.021, 425.4803
1078.503, 428.3937
1078.985, 425.2584
1079.467, 422.0418
1079.949, 424.3412
1080.432, 429.3205
1080.914, 432.3386
1081.396, 432.8204
1081.878, 431.4662
1082.360, 427.3607
1082.842, 423.0102
1083.324, 417.9729
1083.806, 413.7570
1084.288, 409.5476
1084.771, 407.6532
1085.253, 413.0970
1085.735, 423.4680
1086.217, 426.7067
1086.699, 419.2646
1087.181, 413.9607
1087.663, 410.2657
1088.145, 410.1183
1088.628, 415.8246
1089.110, 422.0049
1089.592, 425.3221
1090.074, 425.6846
1090.556, 422.2266
1091.038, 414.6907
1091.520, 411.4333
1092.002, 413.4376
1092.484, 412.9330
1092.967, 408.0066
1093.449, 405.6535
1093.931, 410.0728
1094.413, 414.8073
1094.895, 410.7045
1095.377, 401.2959
1095.859, 401.2086
1096.341, 408.7048
1096.823, 408.8257
1097.306, 401.4376
1097.788, 398.3132
1098.270, 402.9731
1098.752, 407.9579
1099.234, 407.1510
1099.716, 404.2932
1100.198, 405.4965
1100.680, 408.6235
1101.163, 410.2722
1101.645, 409.8353
1102.127, 404.4159
1102.609, 395.4756
1103.091, 390.5369
1103.573, 393.2654
1104.055, 398.6107
1104.537, 405.0830
1105.020, 409.4206
1105.502, 406.7104
1105.984, 401.5541
1106.466, 399.7157
1106.948, 400.1248
1107.430, 398.4918
1107.912, 394.1636
1108.394, 392.4741
1108.876, 398.1549
1109.359, 402.9760
1109.841, 403.9217
1110.323, 403.0280
1110.805, 399.9257
1111.287, 396.7860
1111.769, 396.8749
1112.251, 399.4508
1112.733, 399.7234
1113.215, 395.0485
1113.698, 393.6596
1114.180, 397.1978
1114.662, 401.9574
1115.144, 410.1589
1115.626, 414.8351
1116.108, 409.1253
1116.590, 399.1193
1117.072, 396.7168
1117.555, 401.9691
1118.037, 402.3590
1118.519, 396.2025
1119.001, 395.7420
1119.483, 403.7068
1119.965, 407.9142
1120.447, 402.4792
1120.929, 397.1015
1121.411, 402.6930
1121.894, 413.4728
1122.376, 413.6525
1122.858, 405.2840
1123.340, 397.7390
1123.822, 391.9173
1124.304, 390.4412
1124.786, 393.3797
1125.268, 397.1946
1125.750, 400.0584
1126.233, 399.9594
1126.715, 389.8344
1127.197, 379.4980
1127.679, 386.4805
1128.161, 400.2714
1128.643, 403.9216
1129.125, 398.9990
1129.607, 394.4086
1130.090, 392.6189
1130.572, 391.7148
1131.054, 390.5685
1131.536, 390.3644
1132.018, 393.0523
1132.500, 395.4125
1132.982, 394.5522
1133.464, 392.6111
1133.947, 391.8917
1134.429, 392.5428
1134.911, 394.2471
1135.393, 397.3102
1135.875, 400.2258
1136.357, 405.8367
1136.839, 406.5823
1137.321, 397.3286
1137.803, 388.4913
1138.286, 385.5508
1138.768, 387.0690
1139.250, 392.1480
1139.732, 399.8246
1140.214, 400.0074
1140.696, 391.1527
1141.178, 387.2062
1141.660, 389.5132
1142.142, 391.4688
1142.625, 390.9182
1143.107, 390.2748
1143.589, 391.3242
1144.071, 393.8483
1144.553, 393.2975
1145.035, 400.5926
1145.517, 405.0383
1145.999, 406.7881
1146.482, 397.7682
1146.964, 402.6554
1147.446, 401.9687
1147.928, 401.0533
1148.410, 407.8983
1148.892, 400.4433
1149.374, 407.1653
1149.856, 408.2279
1150.339, 403.8233
1150.821, 411.6299
1151.303, 419.9032
1151.785, 418.2985
1152.267, 408.3353
1152.749, 401.3342
1153.231, 400.2136
1153.713, 401.4467
1154.195, 405.3797
1154.677, 409.9566
1155.160, 417.6813
1155.642, 422.3171
1156.124, 417.7887
1156.606, 409.8786
1157.088, 407.2051
1157.570, 409.2251
1158.052, 409.3051
1158.534, 406.6371
1159.017, 405.9696
1159.499, 407.9482
1159.981, 409.4339
1160.463, 409.4609
1160.945, 409.1400
1161.427, 409.3330
1161.909, 409.3396
1162.391, 407.0303
1162.874, 403.9210
1163.356, 405.8984
1163.838, 411.3471
1164.320, 415.8041
1164.802, 418.4149
1165.284, 418.4897
1165.766, 415.9861
1166.248, 412.2375
1166.730, 407.1701
1167.213, 403.6369
1167.695, 405.4936
1168.177, 408.3680
1168.659, 407.4235
1169.141, 405.8395
1169.623, 409.5422
1170.105, 416.0857
1170.587, 417.0444
1171.069, 410.2466
1171.552, 403.7643
1172.034, 397.2492
1172.516, 393.7643
1172.998, 394.1191
1173.480, 397.1597
1173.962, 404.2031
1174.444, 411.4004
1174.926, 415.3531
1175.409, 415.7362
1175.891, 409.8333
1176.373, 396.6499
1176.855, 392.4616
1177.337, 397.4821
1177.819, 401.7347
1178.301, 403.3130
1178.783, 402.2701
1179.266, 398.6268
1179.748, 394.9944
1180.230, 393.9464
1180.712, 394.9713
1181.194, 398.7803
1181.676, 403.0872
1182.158, 404.5404
1182.640, 403.0072
1183.122, 396.8051
1183.604, 387.8183
1184.087, 383.8177
1184.569, 388.3617
1185.051, 392.3851
1185.533, 391.6500
1186.015, 389.6550
1186.497, 384.6861
1186.979, 382.3649
1187.461, 390.6724
1187.944, 401.2920
1188.426, 400.9865
1188.908, 391.9723
1189.390, 388.2662
1189.872, 391.4557
1190.354, 394.8101
1190.836, 399.2226
1191.318, 399.0525
1191.801, 392.2003
1192.283, 386.7288
1192.765, 387.3031
1193.247, 390.9903
1193.729, 395.1171
1194.211, 398.0949
1194.693, 393.6027
1195.175, 385.7244
1195.657, 386.4578
1196.140, 393.4610
1196.622, 399.4292
1197.104, 401.9513
1197.586, 398.2954
1198.068, 386.4954
1198.550, 376.5243
1199.032, 376.3848
1199.514, 377.5815
1199.996, 375.2174
1200.479, 372.3116
1200.961, 370.3896
1201.443, 370.0480
1201.925, 372.7052
1202.407, 377.8318
1202.889, 381.2888
1203.371, 382.8976
1203.853, 383.0758
1204.336, 380.8889
1204.818, 380.6964
1205.300, 384.0986
1205.782, 386.1303
1206.264, 384.0302
1206.746, 379.9248
1207.228, 375.8316
1207.710, 372.5754
1208.193, 372.4216
1208.675, 374.7237
1209.157, 379.1353
1209.639, 383.9857
1210.121, 383.5490
1210.603, 378.5693
1211.085, 376.6441
1211.567, 380.8578
1212.049, 384.3913
1212.531, 381.7915
1213.014, 379.1119
1213.496, 381.2109
1213.978, 382.5193
1214.460, 377.5413
1214.942, 370.7151
1215.424, 366.9163
1215.906, 366.3075
1216.388, 369.2421
1216.871, 377.2405
1217.353, 378.6902
1217.835, 371.4933
1218.317, 366.7718
1218.799, 366.3109
1219.281, 366.3837
1219.763, 365.3689
1220.245, 365.6328
1220.728, 369.6938
1221.210, 374.8518
1221.692, 377.1365
1222.174, 376.5454
1222.656, 371.3288
1223.138, 364.0867
1223.620, 360.1349
1224.102, 359.1219
1224.584, 357.5082
1225.067, 354.6121
1225.549, 354.0975
1226.031, 358.4134
1226.513, 363.5931
1226.995, 371.8993
1227.477, 376.1543
1227.959, 367.3190
1228.441, 359.6382
1228.923, 366.1958
1229.406, 378.3385
1229.888, 380.9626
1230.370, 375.0027
1230.852, 369.8010
1231.334, 365.2197
1231.816, 366.1866
1232.298, 372.6278
1232.780, 375.6258
1233.263, 373.2799
1233.745, 372.6472
##END=



