##NAMES=Almandine
##RRUFFID=R040076
##IDEAL CHEMISTRY=Fe^2+^_3_Al_2_(SiO_4_)_3_
##LOCALITY=Barton Garnet mine, Gore Mountain, Warren County, New York, USA
##OWNER=RRUFF
##SOURCE=University of Arizona Mineral Museum
##DESCRIPTION=Red coarsely crystalline
##STATUS=The identification of this mineral has been confirmed by X-ray diffraction and chemical analysis
##URL=rruff.info/R040076
##MEASURED CHEMISTRY=(Fe^2+^_1.38_Mg_1.26_Ca_0.33_Mn_0.03_)_Î£=3_Al_2.00_(Si_1.00_O_4_)_3_; trace amounts of Ti
127.2373, 3102.886
127.7194, 3098.021
128.2015, 3095.471
128.6837, 3098.083
129.1658, 3112.006
129.6479, 3147.615
130.1300, 3174.018
130.6121, 3193.865
131.0942, 3202.954
131.5764, 3193.151
132.0585, 3160.930
132.5406, 3115.349
133.0227, 3088.892
133.5048, 3107.278
133.9869, 3117.973
134.4691, 3107.356
134.9512, 3085.370
135.4333, 3068.216
135.9154, 3065.777
136.3975, 3078.075
136.8796, 3099.991
137.3618, 3139.835
137.8439, 3179.709
138.3260, 3214.983
138.8081, 3244.281
139.2902, 3262.000
139.7723, 3259.208
140.2545, 3236.001
140.7366, 3222.408
141.2187, 3227.384
141.7008, 3239.410
142.1829, 3246.693
142.6650, 3247.718
143.1472, 3244.182
143.6293, 3234.302
144.1114, 3219.680
144.5935, 3208.775
145.0756, 3204.400
145.5577, 3206.281
146.0399, 3215.631
146.5220, 3242.490
147.0041, 3264.426
147.4862, 3260.084
147.9683, 3230.827
148.4504, 3201.569
148.9326, 3195.119
149.4147, 3213.644
149.8968, 3231.310
150.3789, 3245.481
150.8610, 3256.061
151.3431, 3262.778
151.8252, 3265.555
152.3074, 3264.205
152.7895, 3257.603
153.2716, 3242.369
153.7537, 3229.010
154.2358, 3215.432
154.7179, 3205.344
155.2001, 3203.072
155.6822, 3210.509
156.1643, 3224.402
156.6464, 3234.844
157.1285, 3243.324
157.6106, 3245.788
158.0928, 3240.428
158.5749, 3229.202
159.0570, 3213.225
159.5391, 3192.460
160.0212, 3168.085
160.5033, 3154.931
160.9855, 3160.937
161.4676, 3168.224
161.9497, 3174.532
162.4318, 3178.181
162.9139, 3175.359
163.3960, 3161.716
163.8782, 3136.814
164.3603, 3119.543
164.8424, 3111.323
165.3245, 3108.504
165.8066, 3110.027
166.2887, 3115.556
166.7709, 3123.446
167.2530, 3135.658
167.7351, 3151.543
168.2172, 3153.285
168.6993, 3122.433
169.1814, 3082.854
169.6636, 3064.449
170.1457, 3073.370
170.6278, 3095.676
171.1099, 3119.463
171.5920, 3144.682
172.0741, 3173.225
172.5563, 3209.237
173.0384, 3249.560
173.5205, 3283.199
174.0026, 3302.647
174.4847, 3323.998
174.9668, 3364.865
175.4490, 3423.595
175.9311, 3478.456
176.4132, 3515.481
176.8953, 3535.062
177.3774, 3544.873
177.8595, 3544.173
178.3417, 3534.267
178.8238, 3514.767
179.3059, 3485.851
179.7880, 3451.321
180.2701, 3414.427
180.7522, 3374.138
181.2344, 3335.118
181.7165, 3299.868
182.1986, 3264.917
182.6807, 3227.080
183.1628, 3185.766
183.6449, 3144.375
184.1271, 3108.033
184.6092, 3075.605
185.0913, 3051.805
185.5734, 3037.006
186.0555, 3029.206
186.5376, 3028.265
187.0198, 3034.064
187.5019, 3043.763
187.9840, 3050.232
188.4661, 3054.715
188.9482, 3053.387
189.4303, 3036.996
189.9125, 3017.569
190.3946, 3010.912
190.8767, 3025.632
191.3588, 3055.891
191.8409, 3074.480
192.3230, 3067.104
192.8052, 3063.880
193.2873, 3070.399
193.7694, 3084.590
194.2515, 3102.329
194.7336, 3121.250
195.2157, 3141.535
195.6979, 3166.470
196.1800, 3202.282
196.6621, 3235.250
197.1442, 3258.816
197.6263, 3274.974
198.1084, 3290.347
198.5906, 3309.767
199.0727, 3332.623
199.5548, 3351.770
200.0369, 3356.027
200.5190, 3366.049
201.0011, 3400.377
201.4833, 3456.623
201.9654, 3509.254
202.4475, 3537.289
202.9296, 3542.806
203.4117, 3556.641
203.8938, 3581.556
204.3760, 3613.993
204.8581, 3654.480
205.3402, 3703.773
205.8223, 3749.683
206.3044, 3781.048
206.7865, 3800.688
207.2687, 3817.802
207.7508, 3834.746
208.2329, 3849.739
208.7150, 3859.571
209.1971, 3863.091
209.6792, 3865.111
210.1614, 3873.746
210.6435, 3884.588
211.1256, 3885.303
211.6077, 3858.743
212.0898, 3820.328
212.5719, 3807.713
213.0541, 3835.086
213.5362, 3862.856
214.0183, 3867.400
214.5004, 3852.372
214.9825, 3823.897
215.4646, 3776.766
215.9468, 3716.651
216.4289, 3669.252
216.9110, 3642.677
217.3931, 3618.838
217.8752, 3587.470
218.3573, 3550.052
218.8395, 3511.216
219.3216, 3471.949
219.8037, 3432.790
220.2858, 3400.056
220.7679, 3379.551
221.2500, 3359.704
221.7322, 3337.783
222.2143, 3312.545
222.6964, 3281.319
223.1785, 3236.565
223.6606, 3176.950
224.1427, 3133.910
224.6249, 3125.356
225.1070, 3118.873
225.5891, 3103.523
226.0712, 3079.214
226.5533, 3050.163
227.0354, 3017.596
227.5176, 2979.620
227.9997, 2952.318
228.4818, 2946.432
228.9639, 2942.538
229.4460, 2932.253
229.9281, 2916.290
230.4103, 2901.003
230.8924, 2893.921
231.3745, 2897.873
231.8566, 2897.051
232.3387, 2889.194
232.8208, 2878.885
233.3030, 2864.562
233.7851, 2848.338
234.2672, 2837.040
234.7493, 2840.346
235.2314, 2866.494
235.7135, 2876.775
236.1957, 2863.429
236.6778, 2843.638
237.1599, 2823.874
237.6420, 2806.044
238.1241, 2790.901
238.6062, 2779.972
239.0884, 2775.779
239.5705, 2767.295
240.0526, 2746.186
240.5347, 2727.993
241.0168, 2724.648
241.4989, 2735.838
241.9811, 2750.702
242.4632, 2756.424
242.9453, 2748.604
243.4274, 2744.844
243.9095, 2754.779
244.3916, 2761.172
244.8738, 2747.762
245.3559, 2715.066
245.8380, 2680.728
246.3201, 2664.475
246.8022, 2669.381
247.2843, 2688.007
247.7665, 2746.835
248.2486, 2799.874
248.7307, 2807.369
249.2128, 2767.499
249.6949, 2714.174
250.1770, 2686.294
250.6592, 2694.955
251.1413, 2692.192
251.6234, 2668.541
252.1055, 2640.598
252.5876, 2617.332
253.0697, 2601.115
253.5519, 2594.296
254.0340, 2600.846
254.5161, 2625.173
254.9982, 2647.355
255.4803, 2674.240
255.9624, 2694.553
256.4445, 2698.568
256.9267, 2685.272
257.4088, 2660.625
257.8909, 2627.433
258.3730, 2581.726
258.8551, 2553.782
259.3372, 2556.314
259.8194, 2568.466
260.3015, 2575.884
260.7836, 2576.393
261.2657, 2570.562
261.7478, 2555.323
262.2299, 2528.163
262.7121, 2520.116
263.1942, 2551.797
263.6763, 2589.544
264.1584, 2604.866
264.6405, 2595.415
265.1227, 2578.514
265.6048, 2570.146
266.0869, 2570.945
266.5690, 2563.695
267.0511, 2532.427
267.5332, 2503.346
268.0154, 2504.543
268.4975, 2536.453
268.9796, 2567.678
269.4617, 2570.034
269.9438, 2543.363
270.4259, 2527.481
270.9081, 2531.151
271.3902, 2540.434
271.8723, 2545.108
272.3544, 2544.679
272.8365, 2542.753
273.3186, 2542.234
273.8008, 2542.685
274.2829, 2540.522
274.7650, 2532.557
275.2471, 2524.311
275.7292, 2520.707
276.2113, 2521.509
276.6935, 2521.777
277.1756, 2517.355
277.6577, 2509.357
278.1398, 2505.358
278.6219, 2506.878
279.1040, 2511.159
279.5862, 2516.487
280.0683, 2522.898
280.5504, 2531.740
281.0325, 2546.986
281.5146, 2564.346
281.9967, 2568.912
282.4789, 2552.977
282.9610, 2531.624
283.4431, 2508.448
283.9252, 2485.368
284.4073, 2475.035
284.8894, 2488.937
285.3716, 2518.268
285.8537, 2534.313
286.3358, 2528.307
286.8179, 2520.631
287.3000, 2521.077
287.7821, 2528.940
288.2643, 2543.039
288.7464, 2567.262
289.2285, 2593.548
289.7106, 2602.216
290.1927, 2585.254
290.6748, 2567.056
291.1570, 2557.457
291.6391, 2555.484
292.1212, 2559.022
292.6033, 2568.789
293.0854, 2581.669
293.5675, 2591.131
294.0497, 2596.291
294.5318, 2601.393
295.0139, 2608.662
295.4960, 2617.130
295.9781, 2624.882
296.4602, 2631.648
296.9424, 2636.717
297.4245, 2638.019
297.9066, 2634.955
298.3887, 2632.302
298.8708, 2630.405
299.3529, 2630.083
299.8351, 2632.770
300.3172, 2638.871
300.7993, 2647.969
301.2814, 2661.626
301.7635, 2680.781
302.2456, 2695.034
302.7278, 2691.043
303.2099, 2684.612
303.6920, 2703.465
304.1741, 2755.547
304.6562, 2809.057
305.1383, 2821.612
305.6205, 2790.014
306.1026, 2777.897
306.5847, 2808.350
307.0668, 2854.267
307.5489, 2888.186
308.0310, 2906.722
308.5132, 2921.011
308.9953, 2941.123
309.4774, 2967.389
309.9595, 2991.643
310.4416, 3007.780
310.9237, 3025.907
311.4059, 3056.786
311.8880, 3099.644
312.3701, 3142.286
312.8522, 3175.772
313.3343, 3199.964
313.8164, 3224.568
314.2986, 3246.951
314.7807, 3271.847
315.2628, 3306.205
315.7449, 3346.878
316.2270, 3381.367
316.7091, 3401.032
317.1913, 3408.020
317.6734, 3416.208
318.1555, 3432.955
318.6376, 3443.093
319.1197, 3433.338
319.6018, 3412.357
320.0840, 3401.706
320.5661, 3413.467
321.0482, 3439.675
321.5303, 3453.607
322.0124, 3448.079
322.4945, 3442.411
322.9767, 3434.861
323.4588, 3430.950
323.9409, 3440.691
324.4230, 3468.478
324.9051, 3506.645
325.3872, 3540.080
325.8694, 3562.113
326.3515, 3591.163
326.8336, 3631.104
327.3157, 3677.205
327.7978, 3725.205
328.2799, 3773.832
328.7621, 3823.502
329.2442, 3874.096
329.7263, 3918.449
330.2084, 3984.974
330.6905, 4098.870
331.1726, 4215.708
331.6548, 4298.408
332.1369, 4345.998
332.6190, 4388.768
333.1011, 4458.128
333.5832, 4559.478
334.0653, 4658.434
334.5475, 4758.883
335.0296, 4853.960
335.5117, 4931.235
335.9938, 4998.204
336.4759, 5077.963
336.9580, 5189.956
337.4402, 5333.552
337.9223, 5468.383
338.4044, 5591.898
338.8865, 5709.250
339.3686, 5814.717
339.8507, 5916.290
340.3329, 6026.256
340.8150, 6152.629
341.2971, 6292.123
341.7792, 6431.318
342.2613, 6560.404
342.7434, 6702.510
343.2256, 6863.843
343.7077, 7036.950
344.1898, 7215.099
344.6719, 7395.542
345.1540, 7577.032
345.6361, 7755.415
346.1183, 7912.115
346.6004, 8103.768
347.0825, 8346.271
347.5646, 8608.599
348.0467, 8873.178
348.5288, 9133.417
349.0110, 9393.074
349.4931, 9651.565
349.9752, 9905.267
350.4573, 10175.88
350.9394, 10494.23
351.4215, 10807.51
351.9037, 11097.39
352.3858, 11361.27
352.8679, 11600.89
353.3500, 11824.95
353.8321, 12031.83
354.3142, 12174.51
354.7964, 12235.34
355.2785, 12244.30
355.7606, 12217.27
356.2427, 12151.98
356.7248, 12044.14
357.2069, 11895.61
357.6891, 11700.96
358.1712, 11435.17
358.6533, 11065.72
359.1354, 10693.98
359.6175, 10364.57
360.0996, 10054.53
360.5818, 9736.256
361.0639, 9395.334
361.5460, 9056.856
362.0281, 8757.028
362.5102, 8497.046
362.9923, 8254.218
363.4745, 8026.237
363.9566, 7809.909
364.4387, 7604.660
364.9208, 7410.480
365.4029, 7227.202
365.8850, 7051.194
366.3672, 6884.708
366.8493, 6735.795
367.3314, 6607.006
367.8135, 6497.459
368.2956, 6409.474
368.7777, 6341.539
369.2599, 6274.901
369.7420, 6198.726
370.2241, 6120.469
370.7062, 6055.519
371.1883, 6007.480
371.6704, 5961.226
372.1526, 5904.838
372.6347, 5838.782
373.1168, 5766.514
373.5989, 5675.939
374.0810, 5588.245
374.5631, 5528.167
375.0453, 5491.806
375.5274, 5446.520
376.0095, 5372.625
376.4916, 5273.866
376.9737, 5169.646
377.4558, 5051.468
377.9380, 4937.556
378.4201, 4835.403
378.9022, 4741.787
379.3843, 4652.951
379.8664, 4568.172
380.3485, 4483.758
380.8307, 4393.334
381.3128, 4292.281
381.7949, 4193.073
382.2770, 4093.835
382.7591, 3997.990
383.2412, 3911.883
383.7234, 3835.609
384.2055, 3761.874
384.6876, 3682.215
385.1697, 3593.758
385.6518, 3511.263
386.1339, 3437.687
386.6161, 3366.108
387.0982, 3290.727
387.5803, 3213.831
388.0624, 3144.085
388.5445, 3088.688
389.0266, 3045.572
389.5088, 2993.432
389.9909, 2920.753
390.4730, 2851.845
390.9551, 2792.111
391.4372, 2738.227
391.9193, 2685.402
392.4015, 2631.490
392.8836, 2578.980
393.3657, 2533.530
393.8478, 2499.641
394.3299, 2462.535
394.8120, 2412.923
395.2942, 2364.601
395.7763, 2329.232
396.2584, 2307.567
396.7405, 2288.133
397.2226, 2257.830
397.7047, 2216.667
398.1869, 2181.137
398.6690, 2159.028
399.1511, 2134.449
399.6332, 2090.182
400.1153, 2035.321
400.5974, 1996.018
401.0796, 1995.587
401.5617, 2017.315
402.0438, 2023.569
402.5259, 2011.426
403.0080, 1995.411
403.4901, 1983.363
403.9723, 1972.264
404.4544, 1956.779
404.9365, 1932.173
405.4186, 1909.324
405.9007, 1901.034
406.3828, 1904.158
406.8650, 1900.222
407.3471, 1879.355
407.8292, 1852.904
408.3113, 1840.295
408.7934, 1843.603
409.2755, 1846.818
409.7577, 1844.070
410.2398, 1838.770
410.7219, 1837.085
411.2040, 1840.116
411.6861, 1840.728
412.1682, 1831.173
412.6504, 1809.853
413.1325, 1789.854
413.6146, 1768.476
414.0967, 1750.706
414.5788, 1740.793
415.0609, 1737.051
415.5431, 1734.570
416.0252, 1730.592
416.5073, 1725.126
416.9894, 1718.079
417.4715, 1704.484
417.9536, 1695.363
418.4358, 1696.883
418.9179, 1701.062
419.4000, 1698.671
419.8821, 1687.152
420.3642, 1671.861
420.8463, 1660.714
421.3285, 1654.758
421.8106, 1650.324
422.2927, 1646.802
422.7748, 1645.234
423.2569, 1647.847
423.7390, 1653.293
424.2212, 1657.408
424.7033, 1656.768
425.1854, 1652.052
425.6675, 1647.536
426.1496, 1644.308
426.6317, 1639.323
427.1139, 1629.173
427.5960, 1617.578
428.0781, 1608.266
428.5602, 1601.348
429.0423, 1600.590
429.5244, 1617.615
430.0066, 1653.174
430.4887, 1671.417
430.9708, 1652.119
431.4529, 1620.289
431.9350, 1604.506
432.4171, 1605.426
432.8993, 1609.575
433.3814, 1614.202
433.8635, 1616.892
434.3456, 1611.530
434.8277, 1596.444
435.3098, 1580.436
435.7920, 1569.518
436.2741, 1564.193
436.7562, 1564.709
437.2383, 1577.550
437.7204, 1590.275
438.2025, 1595.384
438.6847, 1594.341
439.1668, 1591.659
439.6489, 1589.286
440.1310, 1587.398
440.6131, 1586.519
441.0952, 1587.792
441.5774, 1588.469
442.0595, 1585.411
442.5416, 1583.479
443.0237, 1589.882
443.5058, 1604.384
443.9879, 1617.432
444.4701, 1617.353
444.9522, 1601.541
445.4343, 1591.194
445.9164, 1592.007
446.3985, 1592.636
446.8806, 1589.316
447.3628, 1583.267
447.8449, 1576.605
448.3270, 1569.855
448.8091, 1564.682
449.2912, 1566.556
449.7733, 1579.355
450.2555, 1588.323
450.7376, 1585.188
451.2197, 1579.531
451.7018, 1579.271
452.1839, 1585.619
452.6660, 1591.674
453.1482, 1590.596
453.6303, 1584.145
454.1124, 1580.820
454.5945, 1582.579
455.0766, 1585.341
455.5587, 1583.794
456.0409, 1580.089
456.5230, 1581.429
457.0051, 1596.789
457.4872, 1612.286
457.9693, 1611.303
458.4514, 1597.303
458.9336, 1591.782
459.4156, 1607.927
459.8978, 1635.324
460.3799, 1644.730
460.8620, 1625.541
461.3441, 1611.689
461.8262, 1610.007
462.3083, 1615.939
462.7905, 1627.503
463.2726, 1643.198
463.7547, 1656.822
464.2368, 1660.756
464.7189, 1652.762
465.2010, 1654.734
465.6832, 1678.789
466.1653, 1699.220
466.6474, 1706.033
467.1295, 1703.948
467.6116, 1700.819
468.0938, 1700.318
468.5759, 1702.615
469.0580, 1708.218
469.5401, 1717.558
470.0222, 1729.079
470.5043, 1748.404
470.9865, 1765.475
471.4686, 1769.543
471.9507, 1761.735
472.4328, 1759.012
472.9149, 1778.164
473.3970, 1813.046
473.8792, 1840.901
474.3613, 1858.838
474.8434, 1875.479
475.3255, 1897.952
475.8076, 1922.941
476.2897, 1943.677
476.7719, 1958.025
477.2540, 1969.343
477.7361, 1972.647
478.2182, 1973.950
478.7003, 1995.629
479.1824, 2048.942
479.6646, 2112.110
480.1467, 2149.472
480.6288, 2150.346
481.1109, 2159.454
481.5930, 2186.681
482.0751, 2216.682
482.5573, 2240.615
483.0394, 2257.350
483.5215, 2268.525
484.0036, 2275.897
484.4857, 2278.284
484.9678, 2267.399
485.4500, 2229.471
485.9321, 2196.041
486.4142, 2177.478
486.8963, 2161.771
487.3784, 2134.042
487.8605, 2091.760
488.3427, 2050.067
488.8248, 2028.170
489.3069, 2027.034
489.7890, 2023.273
490.2711, 2011.896
490.7532, 2003.113
491.2354, 2001.428
491.7175, 2006.210
492.1996, 2015.840
492.6817, 2028.559
493.1638, 2046.980
493.6459, 2076.495
494.1281, 2116.454
494.6102, 2156.357
495.0923, 2191.012
495.5744, 2225.121
496.0565, 2268.573
496.5386, 2324.146
497.0208, 2375.338
497.5029, 2404.687
497.9850, 2436.108
498.4671, 2496.340
498.9492, 2585.670
499.4313, 2685.812
499.9135, 2782.912
500.3956, 2876.897
500.8777, 2972.203
501.3598, 3064.893
501.8419, 3163.132
502.3240, 3282.881
502.8062, 3401.671
503.2883, 3495.463
503.7704, 3556.950
504.2525, 3596.925
504.7346, 3631.678
505.2167, 3663.775
505.6989, 3671.054
506.1810, 3655.508
506.6631, 3609.278
507.1452, 3520.593
507.6273, 3401.158
508.1094, 3275.017
508.5916, 3147.438
509.0737, 3024.042
509.5558, 2917.233
510.0379, 2826.675
510.5200, 2729.164
511.0021, 2610.400
511.4843, 2488.674
511.9664, 2392.346
512.4485, 2322.483
512.9306, 2259.959
513.4127, 2199.990
513.8948, 2145.424
514.3770, 2098.221
514.8591, 2058.894
515.3412, 2030.125
515.8233, 2015.429
516.3054, 2011.798
516.7875, 2000.327
517.2697, 1963.479
517.7518, 1940.561
518.2339, 1946.939
518.7160, 1962.281
519.1981, 1966.207
519.6802, 1955.049
520.1624, 1940.266
520.6445, 1936.152
521.1266, 1943.197
521.6087, 1939.245
522.0908, 1910.604
522.5729, 1891.677
523.0551, 1910.972
523.5372, 1945.231
524.0193, 1955.051
524.5014, 1920.265
524.9835, 1877.592
525.4656, 1863.901
525.9478, 1874.745
526.4299, 1887.568
526.9120, 1897.786
527.3941, 1905.561
527.8762, 1910.214
528.3583, 1911.586
528.8405, 1913.981
529.3226, 1922.581
529.8047, 1928.108
530.2868, 1922.179
530.7689, 1907.978
531.2510, 1894.002
531.7332, 1884.359
532.2153, 1878.830
532.6974, 1876.989
533.1795, 1879.721
533.6616, 1884.830
534.1437, 1895.394
534.6259, 1905.376
535.1080, 1908.609
535.5901, 1907.211
536.0722, 1909.346
536.5543, 1921.059
537.0364, 1940.435
537.5186, 1962.587
538.0007, 1989.104
538.4828, 2012.411
538.9649, 2024.292
539.4470, 2034.799
539.9291, 2055.472
540.4113, 2087.802
540.8934, 2124.496
541.3755, 2164.897
541.8576, 2206.194
542.3397, 2243.156
542.8218, 2275.298
543.3040, 2305.411
543.7861, 2332.744
544.2682, 2359.567
544.7503, 2406.391
545.2324, 2494.561
545.7145, 2573.412
546.1967, 2618.466
546.6788, 2656.465
547.1609, 2718.216
547.6430, 2809.035
548.1251, 2910.260
548.6072, 2999.697
549.0894, 3076.669
549.5715, 3169.552
550.0536, 3290.156
550.5357, 3410.752
551.0178, 3513.839
551.4999, 3613.443
551.9821, 3732.450
552.4642, 3881.035
552.9463, 4033.561
553.4284, 4161.668
553.9105, 4273.096
554.3926, 4399.481
554.8748, 4550.571
555.3569, 4703.047
555.8390, 4834.616
556.3211, 4945.780
556.8032, 5056.658
557.2853, 5193.623
557.7675, 5303.705
558.2496, 5368.853
558.7317, 5388.533
559.2138, 5359.256
559.6959, 5280.456
560.1780, 5161.731
560.6602, 5015.308
561.1423, 4837.052
561.6244, 4649.906
562.1065, 4446.412
562.5886, 4242.672
563.0707, 4039.979
563.5529, 3841.487
564.0350, 3649.167
564.5171, 3463.618
564.9992, 3287.835
565.4813, 3127.515
565.9634, 2982.065
566.4456, 2841.113
566.9277, 2698.657
567.4098, 2565.229
567.8919, 2454.437
568.3740, 2364.381
568.8561, 2281.269
569.3383, 2199.971
569.8204, 2127.464
570.3025, 2073.793
570.7846, 2031.791
571.2667, 1983.291
571.7488, 1920.678
572.2310, 1853.657
572.7131, 1800.129
573.1952, 1761.127
573.6773, 1732.870
574.1594, 1728.258
574.6415, 1721.021
575.1237, 1693.209
575.6058, 1654.710
576.0879, 1628.570
576.5700, 1628.990
577.0521, 1638.786
577.5342, 1628.315
578.0164, 1597.426
578.4985, 1575.313
578.9806, 1570.620
579.4627, 1574.077
579.9448, 1577.868
580.4269, 1581.899
580.9091, 1584.795
581.3912, 1587.192
581.8733, 1587.588
582.3554, 1580.021
582.8375, 1569.710
583.3196, 1571.705
583.8018, 1592.696
584.2839, 1620.600
584.7660, 1633.296
585.2481, 1621.904
585.7302, 1620.565
586.2123, 1642.111
586.6945, 1660.280
587.1766, 1663.558
587.6587, 1655.359
588.1408, 1643.242
588.6229, 1629.855
589.1050, 1616.607
589.5872, 1606.967
590.0693, 1600.598
590.5514, 1589.507
591.0335, 1570.712
591.5156, 1549.102
591.9977, 1527.523
592.4799, 1506.406
592.9620, 1490.866
593.4441, 1487.109
593.9262, 1483.732
594.4083, 1471.607
594.8904, 1455.417
595.3726, 1444.845
595.8547, 1443.296
596.3368, 1447.650
596.8189, 1454.573
597.3010, 1465.999
597.7831, 1470.638
598.2653, 1457.526
598.7474, 1449.048
599.2295, 1459.439
599.7116, 1476.913
600.1937, 1481.835
600.6758, 1465.538
601.1580, 1444.313
601.6401, 1435.429
602.1222, 1436.766
602.6043, 1438.200
603.0864, 1438.274
603.5685, 1437.748
604.0507, 1436.748
604.5328, 1435.548
605.0149, 1436.187
605.4970, 1439.815
605.9791, 1443.916
606.4612, 1448.896
606.9434, 1453.271
607.4255, 1455.638
607.9076, 1455.476
608.3897, 1452.027
608.8718, 1443.278
609.3539, 1429.458
609.8361, 1422.485
610.3182, 1429.841
610.8003, 1431.436
611.2824, 1418.900
611.7645, 1398.771
612.2466, 1374.739
612.7288, 1346.704
613.2109, 1326.481
613.6930, 1328.433
614.1751, 1341.394
614.6572, 1344.932
615.1393, 1337.357
615.6215, 1326.289
616.1036, 1315.905
616.5857, 1305.955
617.0678, 1295.261
617.5499, 1277.459
618.0320, 1267.924
618.5142, 1273.072
618.9963, 1282.283
619.4784, 1288.224
619.9605, 1290.516
620.4426, 1291.798
620.9247, 1293.483
621.4069, 1295.971
621.8890, 1299.718
622.3711, 1304.189
622.8532, 1313.295
623.3353, 1330.308
623.8174, 1350.255
624.2996, 1369.404
624.7817, 1387.632
625.2638, 1401.990
625.7459, 1407.500
626.2280, 1412.492
626.7101, 1423.601
627.1923, 1439.483
627.6744, 1455.072
628.1565, 1468.144
628.6386, 1484.152
629.1207, 1513.346
629.6028, 1561.741
630.0850, 1598.774
630.5671, 1606.305
631.0492, 1621.026
631.5313, 1655.797
632.0134, 1704.832
632.4955, 1761.978
632.9777, 1827.538
633.4598, 1886.446
633.9419, 1912.547
634.4240, 1919.126
634.9061, 1956.974
635.3882, 2036.963
635.8704, 2115.840
636.3525, 2162.190
636.8346, 2179.823
637.3167, 2193.038
637.7988, 2200.996
638.2809, 2206.273
638.7631, 2216.561
639.2452, 2219.553
639.7273, 2201.585
640.2094, 2163.389
640.6915, 2116.700
641.1736, 2069.163
641.6558, 2021.353
642.1379, 1979.409
642.6200, 1947.479
643.1021, 1902.225
643.5842, 1825.978
644.0663, 1743.815
644.5485, 1682.664
645.0306, 1642.037
645.5127, 1605.494
645.9948, 1569.304
646.4769, 1534.668
646.9590, 1501.736
647.4412, 1471.421
647.9233, 1447.555
648.4054, 1431.765
648.8875, 1417.498
649.3696, 1393.898
649.8517, 1358.276
650.3339, 1327.608
650.8160, 1300.527
651.2981, 1280.782
651.7802, 1273.653
652.2623, 1272.639
652.7444, 1268.324
653.2266, 1257.816
653.7087, 1247.148
654.1908, 1242.562
654.6729, 1240.821
655.1550, 1234.308
655.6371, 1222.267
656.1193, 1209.516
656.6014, 1199.202
657.0835, 1190.550
657.5656, 1180.889
658.0477, 1169.059
658.5298, 1157.763
659.0120, 1147.397
659.4941, 1137.207
659.9762, 1126.326
660.4583, 1115.057
660.9404, 1104.295
661.4225, 1094.014
661.9047, 1085.382
662.3868, 1080.519
662.8689, 1079.349
663.3510, 1080.785
663.8331, 1086.120
664.3152, 1090.558
664.7974, 1090.323
665.2795, 1085.097
665.7616, 1074.185
666.2437, 1048.225
666.7258, 1027.459
667.2079, 1021.384
667.6901, 1023.699
668.1722, 1028.540
668.6543, 1033.578
669.1364, 1035.873
669.6185, 1031.445
670.1006, 1021.949
670.5828, 1017.781
671.0649, 1020.281
671.5470, 1023.614
672.0291, 1025.330
672.5112, 1027.529
672.9933, 1034.662
673.4755, 1047.094
673.9576, 1052.455
674.4397, 1045.112
674.9218, 1031.172
675.4039, 1008.953
675.8860, 984.5925
676.3682, 972.9579
676.8503, 979.7336
677.3324, 994.1626
677.8145, 1000.184
678.2966, 996.2831
678.7787, 996.8107
679.2609, 1008.520
679.7430, 1014.526
680.2251, 1002.735
680.7072, 984.5132
681.1893, 975.1404
681.6714, 978.2372
682.1536, 981.6796
682.6357, 976.9943
683.1178, 969.7061
683.5999, 967.4050
684.0820, 970.0425
684.5641, 974.2913
685.0463, 978.7917
685.5284, 982.0101
686.0105, 979.5008
686.4926, 965.9498
686.9747, 959.3148
687.4568, 966.6364
687.9390, 973.8425
688.4211, 975.2322
688.9032, 972.3837
689.3853, 968.3265
689.8674, 963.4337
690.3495, 959.6083
690.8317, 961.0503
691.3138, 964.1998
691.7959, 958.1831
692.2780, 942.1760
692.7601, 931.4973
693.2422, 938.4284
693.7244, 957.3752
694.2065, 966.5452
694.6886, 960.3370
695.1707, 953.0079
695.6528, 941.2773
696.1349, 932.0012
696.6171, 931.4429
697.0992, 936.7686
697.5813, 939.7149
698.0634, 935.1906
698.5455, 929.8611
699.0276, 933.2557
699.5098, 942.5198
699.9919, 947.1011
700.4740, 944.8622
700.9561, 939.6557
701.4382, 934.1177
701.9203, 928.4037
702.4025, 923.7499
702.8846, 918.9932
703.3667, 916.9563
703.8488, 918.9581
704.3309, 922.8578
704.8130, 927.9730
705.2952, 933.6033
705.7773, 938.1503
706.2594, 939.8723
706.7415, 941.3427
707.2236, 948.5690
707.7057, 959.8127
708.1879, 962.4869
708.6700, 952.1327
709.1521, 942.5686
709.6342, 949.3845
710.1163, 971.2537
710.5984, 976.2516
711.0806, 943.2452
711.5627, 922.1496
712.0448, 928.6367
712.5269, 943.8550
713.0090, 953.4487
713.4911, 955.7364
713.9733, 954.9445
714.4554, 954.2354
714.9375, 951.3796
715.4196, 938.8442
715.9017, 918.7604
716.3839, 909.8065
716.8660, 918.4186
717.3481, 931.7814
717.8302, 937.2017
718.3123, 934.6941
718.7944, 935.6071
719.2766, 945.6546
719.7587, 951.4486
720.2408, 946.8315
720.7229, 939.6542
721.2050, 937.4988
721.6871, 940.3575
722.1693, 942.4936
722.6514, 938.6778
723.1335, 933.6237
723.6156, 937.9159
724.0977, 949.5755
724.5798, 952.4230
725.0620, 940.6326
725.5441, 927.0453
726.0262, 925.6193
726.5083, 936.3406
726.9904, 941.0646
727.4725, 933.9911
727.9547, 928.6565
728.4368, 928.3669
728.9189, 929.8586
729.4010, 930.8231
729.8831, 930.7662
730.3652, 929.6560
730.8474, 927.7178
731.3295, 924.4426
731.8116, 916.1638
732.2937, 905.0032
732.7758, 902.8925
733.2579, 913.5842
733.7401, 928.1414
734.2222, 937.9601
734.7043, 943.1964
735.1864, 949.0192
735.6685, 961.0769
736.1506, 965.9680
736.6328, 957.6022
737.1149, 945.0791
737.5970, 933.3628
738.0791, 923.9459
738.5612, 919.2208
739.0433, 922.3903
739.5255, 928.3326
740.0076, 929.8105
740.4897, 929.1508
740.9718, 935.7965
741.4539, 951.9463
741.9360, 966.3562
742.4182, 968.5399
742.9003, 959.8567
743.3824, 951.6968
743.8645, 940.4089
744.3466, 936.1221
744.8287, 950.2136
745.3109, 962.5456
745.7930, 956.0695
746.2751, 935.3614
746.7572, 919.8096
747.2393, 918.0682
747.7214, 921.8447
748.2036, 925.9327
748.6857, 930.2759
749.1678, 934.5261
749.6499, 938.7312
750.1320, 944.4843
750.6141, 954.1525
751.0963, 964.4873
751.5784, 960.0342
752.0605, 930.6624
752.5426, 915.5594
753.0247, 933.3655
753.5068, 951.8322
753.9890, 946.4860
754.4711, 926.4547
754.9532, 917.7783
755.4353, 933.1336
755.9174, 947.0842
756.3995, 945.2034
756.8817, 935.6687
757.3638, 927.5334
757.8459, 921.7615
758.3280, 915.4546
758.8101, 906.5288
759.2922, 897.8142
759.7744, 895.6003
760.2565, 900.3072
760.7386, 908.2497
761.2207, 922.2432
761.7028, 933.1824
762.1849, 933.5626
762.6671, 927.0256
763.1492, 922.9046
763.6313, 921.4500
764.1134, 922.2191
764.5955, 928.7930
765.0776, 934.3522
765.5598, 929.9336
766.0419, 920.7339
766.5240, 920.8572
767.0061, 936.6645
767.4882, 955.0012
767.9703, 957.6666
768.4525, 947.5511
768.9346, 940.0590
769.4167, 936.1669
769.8988, 934.5182
770.3809, 935.4179
770.8630, 936.8976
771.3452, 934.6498
771.8273, 925.7964
772.3094, 921.7335
772.7915, 924.1765
773.2736, 929.2693
773.7557, 939.7723
774.2379, 950.0114
774.7200, 949.6818
775.2021, 937.1580
775.6842, 929.0143
776.1663, 945.7820
776.6484, 970.2870
777.1306, 971.8829
777.6127, 954.4222
778.0948, 940.9981
778.5769, 940.0283
779.0590, 943.6041
779.5411, 941.6353
780.0233, 933.9006
780.5054, 930.6085
780.9875, 935.8595
781.4696, 938.7877
781.9517, 934.3536
782.4338, 928.4825
782.9160, 925.0104
783.3981, 924.3239
783.8802, 926.9141
784.3623, 937.0735
784.8444, 946.2145
785.3265, 947.6597
785.8087, 944.9568
786.2908, 941.9285
786.7729, 940.2415
787.2550, 944.3642
787.7371, 960.1418
788.2192, 979.5682
788.7014, 975.5682
789.1835, 944.8485
789.6656, 923.7081
790.1477, 919.8373
790.6298, 923.3246
791.1119, 928.4283
791.5941, 934.8208
792.0762, 941.0740
792.5583, 948.4261
793.0404, 953.6493
793.5225, 953.1591
794.0046, 953.0796
794.4868, 959.8170
794.9689, 970.2546
795.4510, 976.4648
795.9331, 974.7980
796.4152, 970.6530
796.8973, 967.8038
797.3795, 967.1880
797.8616, 973.2640
798.3437, 985.7432
798.8258, 995.1998
799.3079, 996.9203
799.7900, 993.1499
800.2722, 987.2219
800.7543, 977.5926
801.2364, 972.9236
801.7185, 976.6876
802.2006, 980.7725
802.6827, 980.5447
803.1649, 980.4988
803.6470, 987.7511
804.1291, 1002.925
804.6112, 1012.259
805.0933, 1004.115
805.5754, 994.6186
806.0576, 994.5858
806.5397, 1002.128
807.0218, 1017.404
807.5039, 1038.222
807.9860, 1050.950
808.4681, 1039.168
808.9503, 1014.295
809.4324, 1017.610
809.9145, 1051.409
810.3966, 1071.208
810.8787, 1062.811
811.3608, 1049.729
811.8430, 1052.820
812.3251, 1069.357
812.8072, 1079.283
813.2893, 1075.130
813.7714, 1075.339
814.2535, 1090.928
814.7357, 1102.546
815.2178, 1090.571
815.6999, 1065.386
816.1820, 1052.743
816.6641, 1063.592
817.1462, 1080.764
817.6284, 1095.357
818.1105, 1104.914
818.5926, 1101.299
819.0747, 1087.371
819.5568, 1079.132
820.0389, 1084.212
820.5211, 1095.602
821.0032, 1102.072
821.4853, 1103.183
821.9674, 1107.355
822.4495, 1116.086
822.9316, 1124.215
823.4138, 1131.135
823.8959, 1135.377
824.3780, 1132.316
824.8601, 1121.543
825.3422, 1119.601
825.8243, 1139.547
826.3065, 1155.202
826.7886, 1150.517
827.2707, 1140.164
827.7528, 1140.202
828.2349, 1151.598
828.7170, 1165.652
829.1992, 1178.176
829.6813, 1188.745
830.1633, 1195.782
830.6454, 1200.414
831.1276, 1206.439
831.6097, 1214.402
832.0918, 1221.880
832.5739, 1227.172
833.0560, 1230.973
833.5381, 1234.657
834.0203, 1236.854
834.5024, 1244.152
834.9845, 1261.950
835.4666, 1277.381
835.9487, 1281.224
836.4308, 1279.941
836.9130, 1281.567
837.3951, 1285.661
837.8772, 1297.509
838.3593, 1328.479
838.8414, 1357.147
839.3235, 1366.376
839.8057, 1366.630
840.2878, 1372.659
840.7699, 1388.427
841.2520, 1411.737
841.7341, 1443.736
842.2162, 1479.836
842.6984, 1509.156
843.1805, 1534.155
843.6626, 1568.784
844.1447, 1616.485
844.6268, 1663.569
845.1089, 1697.958
845.5911, 1722.847
846.0732, 1754.265
846.5553, 1795.307
847.0374, 1833.689
847.5195, 1860.508
848.0016, 1894.562
848.4838, 1952.966
848.9659, 2024.405
849.4480, 2086.025
849.9301, 2131.828
850.4122, 2182.496
850.8943, 2247.486
851.3765, 2315.622
851.8586, 2374.851
852.3407, 2433.114
852.8228, 2506.573
853.3049, 2598.553
853.7870, 2691.567
854.2692, 2765.842
854.7513, 2832.750
855.2334, 2917.673
855.7155, 3015.572
856.1976, 3099.830
856.6797, 3162.969
857.1619, 3222.675
857.6440, 3296.994
858.1261, 3381.376
858.6082, 3452.052
859.0903, 3505.475
859.5724, 3557.805
860.0546, 3615.603
860.5367, 3666.922
861.0188, 3708.843
861.5009, 3737.551
861.9830, 3742.844
862.4651, 3719.818
862.9473, 3684.987
863.4294, 3636.655
863.9115, 3582.339
864.3936, 3527.161
864.8757, 3468.693
865.3578, 3402.073
865.8400, 3326.186
866.3221, 3248.855
866.8042, 3172.610
867.2863, 3100.001
867.7684, 3037.725
868.2505, 2981.982
868.7327, 2920.030
869.2148, 2848.933
869.6969, 2776.842
870.1790, 2708.943
870.6611, 2647.682
871.1432, 2604.186
871.6254, 2581.365
872.1075, 2552.462
872.5896, 2511.698
873.0717, 2468.934
873.5538, 2425.571
874.0359, 2386.965
874.5181, 2369.288
875.0002, 2386.500
875.4823, 2393.597
875.9644, 2385.237
876.4465, 2372.594
876.9286, 2358.409
877.4108, 2343.480
877.8929, 2325.673
878.3750, 2305.417
878.8571, 2295.094
879.3392, 2304.208
879.8214, 2321.863
880.3035, 2338.728
880.7856, 2358.399
881.2677, 2390.988
881.7498, 2434.830
882.2319, 2472.809
882.7141, 2492.098
883.1962, 2503.039
883.6783, 2522.648
884.1604, 2550.411
884.6425, 2584.553
885.1246, 2625.152
885.6068, 2666.664
886.0889, 2705.880
886.5710, 2745.364
887.0531, 2789.946
887.5352, 2840.188
888.0173, 2892.583
888.4995, 2945.691
888.9816, 3003.774
889.4637, 3071.303
889.9458, 3142.495
890.4279, 3211.842
890.9100, 3279.388
891.3922, 3346.509
891.8743, 3406.921
892.3564, 3475.839
892.8385, 3564.154
893.3206, 3658.024
893.8027, 3746.433
894.2849, 3829.719
894.7670, 3910.357
895.2491, 3988.222
895.7312, 4071.154
896.2133, 4171.476
896.6954, 4278.543
897.1776, 4369.714
897.6597, 4451.155
898.1418, 4545.157
898.6239, 4660.307
899.1060, 4792.275
899.5881, 4940.250
900.0703, 5101.126
900.5524, 5257.549
901.0345, 5407.593
901.5166, 5589.327
901.9987, 5814.192
902.4808, 6062.067
902.9630, 6315.223
903.4451, 6579.207
903.9272, 6876.597
904.4093, 7212.714
904.8914, 7574.257
905.3735, 7940.266
905.8557, 8355.161
906.3378, 8847.920
906.8199, 9394.948
907.3020, 9954.274
907.7841, 10521.94
908.2662, 11132.06
908.7484, 11808.28
909.2305, 12513.82
909.7126, 13224.27
910.1947, 13959.14
910.6768, 14753.24
911.1589, 15600.03
911.6411, 16451.06
912.1232, 17277.88
912.6053, 18098.19
913.0874, 18944.43
913.5695, 19788.09
914.0516, 20592.28
914.5338, 21348.71
915.0159, 22071.66
915.4980, 22768.71
915.9801, 23365.04
916.4622, 23752.02
916.9443, 23944.27
917.4265, 24049.52
917.9086, 24071.01
918.3907, 23915.39
918.8728, 23543.42
919.3549, 23026.09
919.8370, 22425.25
920.3192, 21740.24
920.8013, 20981.48
921.2834, 20141.53
921.7655, 19238.41
922.2476, 18243.51
922.7297, 17227.93
923.2119, 16200.86
923.6940, 15187.97
924.1761, 14244.94
924.6582, 13379.08
925.1403, 12557.60
925.6224, 11767.40
926.1046, 11030.70
926.5867, 10374.16
927.0688, 9768.942
927.5509, 9173.837
928.0330, 8591.147
928.5151, 8060.640
928.9973, 7606.357
929.4794, 7198.727
929.9615, 6824.943
930.4436, 6477.060
930.9257, 6140.778
931.4078, 5817.841
931.8900, 5520.215
932.3721, 5252.770
932.8542, 5010.521
933.3363, 4793.143
933.8184, 4593.723
934.3005, 4393.655
934.7827, 4194.856
935.2648, 4011.716
935.7469, 3848.196
936.2290, 3696.509
936.7111, 3549.236
937.1932, 3409.073
937.6754, 3287.416
938.1575, 3186.992
938.6396, 3086.898
939.1217, 2984.997
939.6038, 2885.688
940.0859, 2791.935
940.5681, 2702.215
941.0502, 2612.537
941.5323, 2519.305
942.0144, 2444.561
942.4965, 2403.205
942.9786, 2359.337
943.4608, 2303.928
943.9429, 2243.627
944.4250, 2180.982
944.9071, 2117.562
945.3892, 2059.200
945.8713, 2005.346
946.3535, 1958.544
946.8356, 1917.753
947.3177, 1885.551
947.7998, 1875.776
948.2819, 1871.178
948.7640, 1837.180
949.2462, 1766.841
949.7283, 1706.628
950.2104, 1694.299
950.6925, 1693.360
951.1746, 1670.609
951.6567, 1637.284
952.1389, 1611.675
952.6210, 1595.759
953.1031, 1583.293
953.5852, 1571.050
954.0673, 1558.047
954.5494, 1542.476
955.0316, 1525.265
955.5137, 1507.348
955.9958, 1489.604
956.4779, 1478.058
956.9600, 1474.968
957.4421, 1471.214
957.9243, 1455.645
958.4064, 1431.486
958.8885, 1412.931
959.3706, 1400.067
959.8527, 1394.033
960.3348, 1397.201
960.8170, 1396.353
961.2991, 1381.499
961.7812, 1358.869
962.2633, 1342.706
962.7454, 1333.233
963.2275, 1329.763
963.7097, 1337.774
964.1918, 1341.161
964.6739, 1332.957
965.1560, 1319.931
965.6381, 1307.685
966.1202, 1296.420
966.6024, 1288.237
967.0845, 1288.996
967.5666, 1284.177
968.0487, 1263.939
968.5308, 1246.660
969.0129, 1245.059
969.4951, 1252.191
969.9772, 1256.828
970.4593, 1257.241
970.9414, 1255.255
971.4235, 1248.624
971.9056, 1243.062
972.3878, 1245.389
972.8699, 1247.704
973.3520, 1237.539
973.8341, 1218.558
974.3162, 1207.846
974.7983, 1214.458
975.2805, 1223.748
975.7626, 1226.578
976.2447, 1224.445
976.7268, 1215.724
977.2089, 1204.250
977.6910, 1199.108
978.1732, 1202.121
978.6553, 1205.912
979.1374, 1205.125
979.6195, 1200.766
980.1016, 1191.202
980.5837, 1179.835
981.0659, 1178.225
981.5480, 1186.367
982.0301, 1193.990
982.5122, 1195.907
982.9943, 1194.350
983.4764, 1192.194
983.9586, 1189.407
984.4407, 1185.854
984.9228, 1181.510
985.4049, 1175.834
985.8870, 1168.490
986.3691, 1161.768
986.8513, 1157.608
987.3334, 1155.266
987.8155, 1152.495
988.2976, 1149.294
988.7797, 1145.364
989.2618, 1139.942
989.7440, 1136.493
990.2261, 1137.519
990.7082, 1139.218
991.1903, 1136.596
991.6724, 1129.774
992.1545, 1124.228
992.6367, 1121.162
993.1188, 1116.948
993.6009, 1111.229
994.0830, 1104.139
994.5651, 1094.526
995.0472, 1084.040
995.5294, 1076.474
996.0115, 1073.004
996.4936, 1067.353
996.9757, 1054.578
997.4578, 1045.756
997.9399, 1047.204
998.4221, 1051.017
998.9042, 1050.819
999.3863, 1047.097
999.8684, 1042.681
1000.351, 1035.945
1000.833, 1033.727
1001.315, 1042.925
1001.797, 1051.781
1002.279, 1052.228
1002.761, 1048.602
1003.243, 1046.660
1003.725, 1047.308
1004.207, 1049.210
1004.690, 1051.096
1005.172, 1055.066
1005.654, 1066.446
1006.136, 1077.212
1006.618, 1076.791
1007.100, 1069.400
1007.582, 1065.741
1008.064, 1069.101
1008.547, 1074.765
1009.029, 1078.265
1009.511, 1083.341
1009.993, 1099.409
1010.475, 1117.080
1010.957, 1117.610
1011.439, 1102.952
1011.921, 1090.735
1012.403, 1089.549
1012.886, 1096.666
1013.368, 1116.377
1013.850, 1138.448
1014.332, 1138.898
1014.814, 1125.526
1015.296, 1126.264
1015.778, 1146.208
1016.260, 1167.602
1016.742, 1177.134
1017.225, 1180.675
1017.707, 1188.239
1018.189, 1198.572
1018.671, 1207.021
1019.153, 1213.468
1019.635, 1220.952
1020.117, 1230.589
1020.599, 1238.117
1021.082, 1238.160
1021.564, 1233.907
1022.046, 1236.181
1022.528, 1244.570
1023.010, 1252.407
1023.492, 1258.625
1023.974, 1272.241
1024.456, 1299.423
1024.938, 1327.673
1025.421, 1336.515
1025.903, 1328.239
1026.385, 1333.582
1026.867, 1354.485
1027.349, 1369.171
1027.831, 1371.136
1028.313, 1377.823
1028.795, 1402.761
1029.278, 1436.952
1029.760, 1460.342
1030.242, 1472.190
1030.724, 1479.753
1031.206, 1481.099
1031.688, 1483.932
1032.170, 1487.818
1032.652, 1499.817
1033.135, 1528.555
1033.617, 1568.933
1034.099, 1601.550
1034.581, 1622.928
1035.063, 1647.044
1035.545, 1679.223
1036.027, 1702.358
1036.509, 1701.377
1036.991, 1699.818
1037.474, 1726.445
1037.956, 1777.775
1038.438, 1817.298
1038.920, 1836.523
1039.402, 1860.617
1039.884, 1898.235
1040.366, 1930.524
1040.848, 1944.204
1041.330, 1951.058
1041.813, 1965.594
1042.295, 1987.752
1042.777, 2018.689
1043.259, 2077.282
1043.741, 2116.573
1044.223, 2116.113
1044.705, 2112.434
1045.187, 2131.180
1045.670, 2157.537
1046.152, 2162.768
1046.634, 2141.752
1047.116, 2130.977
1047.598, 2146.232
1048.080, 2154.296
1048.562, 2145.733
1049.044, 2129.378
1049.526, 2111.925
1050.009, 2091.424
1050.491, 2060.881
1050.973, 2015.917
1051.455, 1977.315
1051.937, 1956.147
1052.419, 1931.607
1052.901, 1895.645
1053.383, 1853.580
1053.865, 1809.297
1054.348, 1763.161
1054.830, 1714.257
1055.312, 1659.622
1055.794, 1611.599
1056.276, 1576.909
1056.758, 1545.100
1057.240, 1515.410
1057.722, 1483.275
1058.205, 1440.692
1058.687, 1390.831
1059.169, 1349.360
1059.651, 1324.786
1060.133, 1297.967
1060.615, 1257.059
1061.097, 1218.641
1061.579, 1195.562
1062.062, 1178.633
1062.544, 1154.371
1063.026, 1123.395
1063.508, 1098.072
1063.990, 1084.449
1064.472, 1073.216
1064.954, 1063.385
1065.436, 1052.144
1065.918, 1036.916
1066.401, 1019.373
1066.883, 999.0996
1067.365, 977.6758
1067.847, 966.3473
1068.329, 982.0553
1068.811, 988.6961
1069.293, 958.4191
1069.775, 924.8385
1070.257, 912.7921
1070.740, 916.4085
1071.222, 928.0156
1071.704, 944.3286
1072.186, 948.7579
1072.668, 922.7316
1073.150, 898.5563
1073.632, 893.0990
1074.114, 894.4100
1074.597, 894.3638
1075.079, 892.6805
1075.561, 890.6695
1076.043, 888.5939
1076.525, 885.7762
1077.007, 882.5989
1077.489, 877.7559
1077.971, 867.8879
1078.453, 858.3993
1078.936, 855.3082
1079.418, 856.0805
1079.900, 854.3125
1080.382, 848.5563
1080.864, 845.2337
1081.346, 850.5280
1081.828, 854.8983
1082.310, 852.9848
1082.792, 848.0876
1083.275, 841.1622
1083.757, 834.4549
1084.239, 833.2932
1084.721, 839.2505
1085.203, 841.3453
1085.685, 831.5486
1086.167, 820.6499
1086.649, 813.9183
1087.131, 809.2177
1087.614, 805.1170
1088.096, 801.0428
1088.578, 795.7238
1089.060, 788.5822
1089.542, 783.9836
1090.024, 782.7258
1090.506, 785.6379
1090.988, 798.9634
1091.471, 811.8078
1091.953, 810.7228
1092.435, 801.1534
1092.917, 798.8837
1093.399, 808.6446
1093.881, 815.3003
1094.363, 811.1708
1094.845, 805.2330
1095.328, 802.2151
1095.810, 799.0103
1096.292, 788.0609
1096.774, 775.3770
1097.256, 777.8082
1097.738, 801.5758
1098.220, 820.5916
1098.702, 827.1089
1099.184, 826.3761
1099.667, 817.2990
1100.149, 804.7360
1100.631, 789.0031
1101.113, 774.0558
1101.595, 769.9681
1102.077, 781.1685
1102.559, 787.2829
1103.041, 779.8071
1103.523, 770.8711
1104.006, 760.1259
1104.488, 754.0309
1104.970, 761.5681
1105.452, 777.1547
1105.934, 787.5536
1106.416, 791.0210
1106.898, 789.6615
1107.380, 779.1667
1107.863, 770.1289
1108.345, 766.8533
1108.827, 765.1779
1109.309, 760.3379
1109.791, 754.9851
1110.273, 756.4936
1110.755, 767.6219
1111.237, 774.8671
1111.719, 776.5307
1112.202, 774.9137
1112.684, 770.3113
1113.166, 762.8330
1113.648, 749.6080
1114.130, 734.2644
1114.612, 724.5129
1115.094, 720.3341
1115.576, 722.5355
1116.058, 736.4416
1116.541, 748.7202
1117.023, 759.3082
1117.505, 765.0807
1117.987, 761.3297
1118.469, 752.8622
1118.951, 748.8331
1119.433, 749.3530
1119.915, 753.9981
1120.398, 767.0584
1120.880, 775.5015
1121.362, 778.0710
1121.844, 773.2809
1122.326, 754.5041
1122.808, 734.0080
1123.290, 736.7487
1123.772, 764.7748
1124.255, 770.0685
1124.737, 741.7492
1125.219, 725.7260
1125.701, 731.6548
1126.183, 743.0810
1126.665, 752.5833
1127.147, 759.3016
1127.629, 761.1313
1128.111, 758.5275
1128.594, 761.0164
1129.076, 770.0995
1129.558, 774.2409
1130.040, 771.5247
1130.522, 765.6279
1131.004, 757.5513
1131.486, 750.8215
1131.968, 751.2508
1132.450, 756.5602
1132.933, 752.2093
1133.415, 738.3152
1133.897, 732.3384
1134.379, 736.3333
1134.861, 740.5530
1135.343, 740.8759
1135.825, 739.2072
1136.307, 737.3245
1136.790, 735.5536
1137.272, 734.7507
1137.754, 734.9021
1138.236, 735.9356
1138.718, 737.8326
1139.200, 740.9431
1139.682, 745.2905
1140.164, 748.8654
1140.646, 749.8251
1141.129, 749.0122
1141.611, 746.1384
1142.093, 743.2922
1142.575, 749.9906
1143.057, 761.9079
1143.539, 758.7327
1144.021, 737.6366
1144.503, 721.6806
1144.985, 728.8635
1145.468, 742.3489
1145.950, 740.8462
1146.432, 733.6778
1146.914, 735.0606
1147.396, 742.1826
1147.878, 748.5740
1148.360, 752.2534
1148.842, 751.1470
1149.325, 742.2383
1149.807, 736.8467
1150.289, 750.9871
1150.771, 765.7474
1151.253, 759.1647
1151.735, 744.3164
1152.217, 740.9263
1152.699, 748.5958
1153.182, 755.4242
1153.664, 757.3436
1154.146, 758.6766
1154.628, 763.7016
1155.110, 766.0208
1155.592, 756.0823
1156.074, 746.6036
1156.556, 755.2238
1157.038, 773.8035
1157.521, 777.9157
1158.003, 760.2746
1158.485, 750.1692
1158.967, 761.5807
1159.449, 770.5374
1159.931, 768.1360
1160.413, 763.1454
1160.895, 758.7226
1161.377, 756.9145
1161.860, 762.3829
1162.342, 776.0894
1162.824, 786.4690
1163.306, 795.2335
1163.788, 796.9343
1164.270, 782.8326
1164.752, 775.8341
1165.234, 793.0981
1165.717, 814.9150
1166.199, 814.4840
1166.681, 794.7105
1167.163, 781.9789
1167.645, 777.0349
1168.127, 776.7692
1168.609, 782.9018
1169.091, 783.8173
1169.573, 773.1487
1170.056, 764.9018
1170.538, 773.7260
1171.020, 793.5487
1171.502, 808.1404
1171.984, 817.3156
1172.466, 814.5662
1172.948, 800.6127
1173.430, 798.6321
1173.912, 814.1595
1174.395, 825.6547
1174.877, 816.9871
1175.359, 802.2689
1175.841, 807.3966
1176.323, 822.5718
1176.805, 818.9714
1177.287, 803.3013
1177.769, 798.9393
1178.252, 807.2961
1178.734, 813.9452
1179.216, 812.0961
1179.698, 807.1043
1180.180, 798.9619
1180.662, 795.1946
1181.144, 811.6027
1181.626, 833.0094
1182.109, 837.3711
1182.591, 827.4445
1183.073, 813.5743
1183.555, 799.3566
1184.037, 792.0114
1184.519, 800.1290
1185.001, 809.6550
1185.483, 817.0079
1185.965, 819.3380
1186.448, 807.3033
1186.930, 792.8535
1187.412, 796.7822
1187.894, 818.1508
1188.376, 830.5509
1188.858, 823.8406
1189.340, 817.7294
1189.822, 813.5739
1190.304, 811.9872
1190.787, 815.2737
1191.269, 819.4054
1191.751, 821.6548
1192.233, 821.7719
1192.715, 817.9741
1193.197, 807.2751
1193.679, 806.9518
1194.161, 821.4899
1194.644, 833.3752
1195.126, 839.5968
1195.608, 839.9644
1196.090, 833.3893
1196.572, 823.2391
1197.054, 814.2091
1197.536, 806.7982
1198.018, 805.4293
1198.500, 809.9205
1198.983, 817.2885
1199.465, 826.7643
1199.947, 831.2721
1200.429, 827.9276
1200.911, 820.1430
1201.393, 809.8301
1201.875, 800.3348
1202.357, 798.3563
1202.839, 801.6544
1203.322, 806.9125
1203.804, 812.7166
1204.286, 816.7503
1204.768, 818.2792
1205.250, 816.5610
1205.732, 810.4351
1206.214, 804.1955
1206.696, 800.4264
1207.179, 798.8693
1207.661, 800.2802
1208.143, 803.1021
1208.625, 808.3602
1209.107, 812.8767
1209.589, 805.9188
1210.071, 782.2911
1210.553, 770.1206
1211.036, 787.0687
1211.518, 803.0217
1212.000, 810.3624
1212.482, 812.2802
1212.964, 804.1109
1213.446, 795.9149
1213.928, 807.0793
1214.410, 836.0165
1214.892, 844.9559
1215.375, 825.6152
1215.857, 807.7620
1216.339, 790.8267
1216.821, 782.7964
1217.303, 789.6807
1217.785, 796.0025
1218.267, 786.9164
1218.749, 769.4899
1219.231, 761.7482
1219.714, 762.9666
1220.196, 761.7211
1220.678, 758.5135
1221.160, 760.8207
1221.642, 769.6037
1222.124, 779.2533
1222.606, 786.8301
1223.088, 791.9589
1223.571, 792.7383
1224.053, 792.3002
1224.535, 798.3629
1225.017, 805.1555
1225.499, 799.0576
1225.981, 785.6339
1226.463, 783.0413
1226.945, 794.0679
1227.427, 801.7122
1227.910, 795.2941
1228.392, 788.1266
1228.874, 788.7686
1229.356, 789.4273
1229.838, 780.9744
1230.320, 772.6555
1230.802, 779.4555
1231.284, 796.0350
1231.766, 799.7074
1232.249, 782.4601
1232.731, 773.2772
1233.213, 779.3688
1233.695, 782.2246
1234.177, 777.2037
1234.659, 771.0038
1235.141, 765.9200
1235.623, 764.3078
1236.106, 771.3831
1236.588, 784.4605
1237.070, 782.6995
1237.552, 765.5005
1238.034, 762.8941
1238.516, 776.6271
1238.998, 778.4164
1239.480, 759.9879
1239.963, 746.3155
1240.445, 757.1970
1240.927, 777.7146
1241.409, 782.0918
1241.891, 783.1221
1242.373, 810.5687
1242.855, 850.6745
1243.337, 879.7386
1243.819, 891.9955
1244.302, 880.6501
1244.784, 843.6761
1245.266, 809.1235
1245.748, 794.4917
1246.230, 784.7032
1246.712, 768.1797
1247.194, 757.3267
1247.676, 769.6756
1248.158, 788.3879
1248.641, 786.2149
1249.123, 765.5552
1249.605, 758.3834
1250.087, 774.0862
1250.569, 784.0642
1251.051, 785.9384
1251.533, 787.2935
1252.015, 790.7747
1252.498, 791.5130
1252.980, 785.0545
1253.462, 776.9850
1253.944, 776.6382
1254.426, 783.1501
1254.908, 793.7240
1255.390, 807.0050
1255.872, 807.8500
1256.354, 796.6886
1256.837, 788.5441
1257.319, 788.2668
1257.801, 790.3209
1258.283, 790.6971
1258.765, 791.1931
1259.247, 795.4796
1259.729, 799.6213
1260.211, 796.6140
1260.693, 791.6059
1261.176, 794.0076
1261.658, 801.7777
1262.140, 804.9644
1262.622, 800.5196
1263.104, 798.8063
1263.586, 808.0512
1264.068, 813.1736
1264.550, 805.6263
1265.033, 798.1488
1265.515, 796.0890
1265.997, 798.8367
1266.479, 806.7639
1266.961, 818.6766
##END=



