##NAMES=Almandine
##RRUFFID=R060099
##IDEAL CHEMISTRY=Fe^2+^_3_Al_2_(SiO_4_)_3_
##LOCALITY=Alaska, USA
##OWNER=RRUFF
##SOURCE=Roland Boehne
##DESCRIPTION=Red cube shaped single crystal
##STATUS=The identification of this mineral is confirmed by single-crystal X-ray diffraction and chemical analysis.
##URL=rruff.info/R060099
##MEASURED CHEMISTRY=(Fe^2+^_1.63_Mg_0.57_Mn_0.56_Ca_0.24_)_Σ=3_(Al_1.98_Fe^3+^_0.02_)_Σ=2_(Si_1.00_O_4_)_3_
91.87140, 0.0000000E+00
92.35352, 6.166831
92.83563, 6.068509
93.31775, 6.026790
93.79987, 6.044244
94.28198, 6.118685
94.76410, 6.246051
95.24622, 6.427435
95.72833, 6.658604
96.21045, 6.940854
96.69257, 7.278213
97.17468, 7.623557
97.65680, 7.925616
98.13892, 8.186702
98.62103, 8.456654
99.10315, 8.736400
99.58527, 9.030934
100.0674, 9.362288
100.5495, 9.729972
101.0316, 10.12941
101.5137, 10.52919
101.9958, 10.90249
102.4780, 11.38109
102.9601, 12.02328
103.4422, 12.85478
103.9243, 13.69731
104.4064, 14.63877
104.8885, 15.54074
105.3707, 16.10479
105.8528, 15.88340
106.3349, 15.94803
106.8170, 16.77488
107.2991, 19.06089
107.7813, 20.78446
108.2634, 21.71782
108.7455, 22.06143
109.2276, 22.45826
109.7097, 22.77279
110.1918, 23.24491
110.6740, 23.97524
111.1561, 25.32132
111.6382, 26.52705
112.1203, 27.25702
112.6024, 27.66570
113.0845, 28.65669
113.5667, 30.92599
114.0488, 33.51202
114.5309, 35.79271
115.0130, 37.40975
115.4951, 38.89246
115.9772, 40.29234
116.4594, 41.63363
116.9415, 43.18746
117.4236, 45.30813
117.9057, 47.61300
118.3878, 49.68371
118.8699, 51.23019
119.3521, 52.62815
119.8342, 54.11837
120.3163, 55.72673
120.7984, 57.30160
121.2805, 58.55632
121.7626, 59.72703
122.2448, 61.21743
122.7269, 63.79967
123.2090, 66.51134
123.6911, 68.42503
124.1732, 69.40768
124.6553, 69.74007
125.1375, 69.01083
125.6196, 67.66279
126.1017, 67.09733
126.5838, 68.90551
127.0659, 71.94013
127.5480, 74.04924
128.0302, 74.70065
128.5123, 74.84023
128.9944, 75.64591
129.4765, 77.09133
129.9586, 78.92960
130.4407, 81.20836
130.9229, 83.79798
131.4050, 86.18635
131.8871, 88.21060
132.3692, 89.97485
132.8513, 91.51147
133.3334, 92.63548
133.8156, 93.56413
134.2977, 94.92947
134.7798, 97.02494
135.2619, 99.12708
135.7440, 101.1598
136.2261, 103.0637
136.7083, 104.6389
137.1904, 105.8150
137.6725, 106.9261
138.1546, 108.5200
138.6367, 110.8130
139.1188, 112.4429
139.6010, 112.9485
140.0831, 112.3322
140.5652, 111.7762
141.0473, 111.1268
141.5294, 110.7220
142.0115, 111.0761
142.4937, 112.4672
142.9758, 113.9537
143.4579, 115.3772
143.9400, 116.8401
144.4221, 117.6539
144.9042, 117.4493
145.3864, 116.8112
145.8685, 116.7311
146.3506, 117.3303
146.8327, 118.2972
147.3148, 119.5492
147.7969, 121.0934
148.2791, 122.8878
148.7612, 125.0971
149.2433, 127.5309
149.7254, 129.7920
150.2075, 131.8132
150.6896, 133.7122
151.1718, 135.5046
151.6539, 137.0157
152.1360, 138.6827
152.6181, 140.6137
153.1002, 142.7225
153.5823, 144.7413
154.0645, 146.6118
154.5466, 148.4394
155.0287, 150.2714
155.5108, 152.2621
155.9929, 154.1109
156.4750, 155.6715
156.9572, 157.0173
157.4393, 158.4157
157.9214, 159.7276
158.4035, 161.2377
158.8856, 163.1253
159.3677, 166.2285
159.8499, 168.9234
160.3320, 170.3419
160.8141, 170.7364
161.2962, 171.6393
161.7783, 174.1209
162.2604, 177.0855
162.7426, 179.6292
163.2247, 181.0109
163.7068, 182.3347
164.1889, 183.9053
164.6710, 185.7374
165.1531, 188.1582
165.6353, 191.7813
166.1174, 195.9192
166.5995, 199.8318
167.0816, 203.3570
167.5637, 206.4967
168.0458, 209.5749
168.5280, 212.5582
169.0101, 214.3706
169.4922, 214.7797
169.9743, 213.4993
170.4564, 210.1049
170.9385, 203.5139
171.4207, 195.2917
171.9028, 186.2597
172.3849, 176.4294
172.8670, 167.1814
173.3491, 159.6557
173.8312, 153.4003
174.3134, 147.5279
174.7955, 141.4366
175.2776, 135.6525
175.7597, 130.8229
176.2418, 126.9606
176.7239, 123.9421
177.2061, 121.9333
177.6882, 120.6442
178.1703, 119.3235
178.6524, 117.5596
179.1345, 115.5226
179.6166, 113.4125
180.0988, 111.1584
180.5809, 109.1553
181.0630, 107.8708
181.5451, 107.2169
182.0272, 106.8974
182.5093, 106.8805
182.9915, 107.0739
183.4736, 107.2833
183.9557, 107.5168
184.4378, 107.6925
184.9199, 107.6751
185.4020, 107.4840
185.8842, 107.2574
186.3663, 106.9042
186.8484, 106.5447
187.3305, 106.7074
187.8126, 107.5358
188.2947, 108.6253
188.7769, 109.3419
189.2590, 109.7008
189.7411, 110.0018
190.2232, 110.3353
190.7053, 110.7272
191.1874, 111.3491
191.6696, 112.2326
192.1517, 113.3313
192.6338, 114.6593
193.1159, 116.2286
193.5980, 117.7176
194.0801, 118.8210
194.5623, 119.5757
195.0444, 120.6049
195.5265, 121.9859
196.0086, 123.6217
196.4907, 125.4243
196.9728, 127.4372
197.4550, 129.2498
197.9371, 130.3948
198.4192, 130.8524
198.9013, 131.9079
199.3834, 133.7907
199.8655, 136.1988
200.3477, 138.5528
200.8298, 140.9062
201.3119, 142.9296
201.7940, 144.2668
202.2761, 144.8251
202.7582, 145.7464
203.2404, 147.1378
203.7225, 148.9474
204.2046, 151.1603
204.6867, 153.9290
205.1688, 156.5939
205.6509, 158.6074
206.1331, 159.8399
206.6152, 161.3936
207.0973, 163.5119
207.5794, 165.9345
208.0615, 167.7889
208.5436, 168.8894
209.0258, 169.9181
209.5079, 171.4423
209.9900, 173.7174
210.4721, 175.2359
210.9542, 175.7395
211.4363, 175.4507
211.9185, 175.0858
212.4006, 174.6265
212.8827, 174.1217
213.3648, 173.6776
213.8469, 173.4184
214.3290, 172.7424
214.8112, 171.5489
215.2933, 169.9208
215.7754, 168.0612
216.2575, 165.8526
216.7396, 163.6236
217.2217, 161.5665
217.7039, 159.6882
218.1860, 158.0020
218.6681, 156.6499
219.1502, 155.4807
219.6323, 153.9534
220.1144, 152.0305
220.5966, 149.8412
221.0787, 147.3942
221.5608, 144.4668
222.0429, 141.9023
222.5250, 139.7672
223.0071, 138.0344
223.4893, 136.7106
223.9714, 135.9056
224.4535, 135.3199
224.9356, 134.8678
225.4177, 134.8313
225.8998, 134.2131
226.3820, 132.7242
226.8641, 130.6449
227.3462, 128.9502
227.8283, 127.5766
228.3104, 126.6795
228.7925, 126.4619
229.2747, 127.4502
229.7568, 127.8929
230.2389, 127.5316
230.7210, 126.6188
231.2031, 125.9611
231.6852, 125.6252
232.1674, 125.4436
232.6495, 125.3993
233.1316, 125.7534
233.6137, 125.6151
234.0958, 124.6526
234.5779, 123.2516
235.0601, 122.5877
235.5422, 123.2306
236.0243, 123.7758
236.5064, 123.5124
236.9885, 121.8052
237.4706, 120.7149
237.9528, 120.4612
238.4349, 120.7804
238.9170, 121.0754
239.3991, 121.5276
239.8812, 121.6820
240.3633, 121.2392
240.8455, 119.7026
241.3276, 118.8442
241.8097, 119.0397
242.2918, 119.7851
242.7739, 119.9361
243.2560, 119.0896
243.7382, 118.2731
244.2203, 117.9075
244.7024, 118.2090
245.1845, 118.3399
245.6666, 118.1789
246.1487, 117.9056
246.6309, 117.8999
247.1130, 118.4085
247.5951, 118.7810
248.0772, 118.7771
248.5593, 118.3226
249.0414, 117.7296
249.5236, 116.8041
250.0057, 115.8623
250.4878, 115.4573
250.9699, 115.8880
251.4520, 116.3232
251.9341, 116.4923
252.4163, 116.3419
252.8984, 116.2012
253.3805, 116.1163
253.8626, 116.0032
254.3447, 115.7020
254.8268, 115.0256
255.3090, 114.5315
255.7911, 114.3824
256.2732, 114.5949
256.7553, 115.0337
257.2374, 115.8715
257.7195, 116.7677
258.2017, 117.2964
258.6838, 117.3562
259.1659, 117.2906
259.6480, 117.1838
260.1301, 117.0403
260.6122, 116.7305
261.0944, 116.0936
261.5765, 115.4896
262.0586, 115.3631
262.5407, 115.9358
263.0228, 116.3760
263.5049, 116.5008
263.9871, 116.3199
264.4692, 115.9914
264.9513, 115.3693
265.4334, 114.8286
265.9155, 114.7699
266.3976, 115.3605
266.8798, 115.8705
267.3619, 116.1608
267.8440, 116.2559
268.3261, 116.3017
268.8082, 116.2362
269.2903, 116.2505
269.7725, 116.5952
270.2546, 117.4094
270.7367, 117.8438
271.2188, 117.5777
271.7009, 116.8734
272.1830, 116.9492
272.6652, 118.0518
273.1473, 119.2560
273.6294, 119.9681
274.1115, 120.1424
274.5936, 120.0055
275.0757, 119.4208
275.5579, 118.6477
276.0400, 118.5048
276.5221, 119.1036
277.0042, 119.8772
277.4863, 120.5477
277.9684, 121.1180
278.4506, 121.5252
278.9327, 121.7440
279.4148, 121.8252
279.8969, 121.8140
280.3790, 121.6797
280.8611, 121.6737
281.3433, 121.9484
281.8254, 122.5048
282.3075, 123.1760
282.7896, 124.0225
283.2717, 124.8493
283.7538, 125.2784
284.2360, 125.2943
284.7181, 125.3327
285.2002, 125.6944
285.6823, 126.3124
286.1644, 126.4347
286.6465, 125.9180
287.1287, 125.4176
287.6108, 125.9982
288.0929, 127.5888
288.5750, 128.8943
289.0571, 129.2514
289.5392, 128.9354
290.0214, 128.9841
290.5035, 129.4007
290.9856, 130.1303
291.4677, 131.3468
291.9498, 132.9416
292.4319, 134.1983
292.9141, 134.8573
293.3962, 135.0775
293.8783, 135.0174
294.3604, 134.6702
294.8425, 134.6406
295.3246, 135.7306
295.8068, 137.6220
296.2889, 139.2060
296.7710, 140.1415
297.2531, 140.7619
297.7352, 141.5508
298.2173, 142.4978
298.6995, 143.5541
299.1816, 144.7544
299.6637, 146.0275
300.1458, 147.1686
300.6279, 148.0955
301.1100, 148.9994
301.5922, 150.0817
302.0743, 151.3287
302.5564, 152.6836
303.0385, 153.9341
303.5206, 155.3311
304.0027, 157.3960
304.4849, 160.3144
304.9670, 163.3201
305.4491, 165.5993
305.9312, 167.3673
306.4133, 169.1411
306.8954, 170.8626
307.3776, 172.8915
307.8597, 175.7700
308.3418, 179.6364
308.8239, 183.4345
309.3060, 186.0405
309.7881, 188.1512
310.2703, 190.7782
310.7524, 194.6469
311.2345, 198.9851
311.7166, 203.3701
312.1987, 207.7774
312.6808, 211.9167
313.1630, 215.9284
313.6451, 219.5095
314.1272, 222.3655
314.6093, 224.1233
315.0914, 225.3543
315.5735, 225.9847
316.0557, 226.1602
316.5378, 226.6626
317.0199, 228.0365
317.5020, 229.7347
317.9841, 231.3290
318.4662, 232.1907
318.9484, 233.6975
319.4305, 236.7357
319.9126, 240.8061
320.3947, 244.5968
320.8768, 247.0225
321.3589, 249.6079
321.8411, 253.1435
322.3232, 257.9084
322.8053, 263.0934
323.2874, 268.9254
323.7695, 275.0131
324.2516, 280.7369
324.7338, 284.6641
325.2159, 289.4422
325.6980, 296.3759
326.1801, 306.3263
326.6622, 314.8658
327.1443, 320.2093
327.6265, 324.7021
328.1086, 330.7359
328.5907, 340.1188
329.0728, 348.9853
329.5549, 356.5653
330.0370, 362.8750
330.5192, 369.4695
331.0013, 376.7819
331.4834, 384.0627
331.9655, 390.8618
332.4476, 396.9647
332.9297, 402.9398
333.4119, 408.4767
333.8940, 413.8559
334.3761, 420.3487
334.8582, 428.2642
335.3403, 436.5574
335.8224, 444.5485
336.3046, 451.7983
336.7867, 460.1125
337.2688, 469.6674
337.7509, 480.2357
338.2330, 491.5996
338.7151, 503.6530
339.1973, 516.5984
339.6794, 530.8384
340.1615, 546.3098
340.6436, 561.7902
341.1257, 577.0224
341.6078, 592.4962
342.0900, 608.9647
342.5721, 626.2026
343.0542, 643.8654
343.5363, 662.0880
344.0184, 680.4523
344.5005, 698.0832
344.9827, 715.0583
345.4648, 729.7339
345.9469, 740.5042
346.4290, 747.5548
346.9111, 751.4068
347.3932, 752.3188
347.8754, 749.9742
348.3575, 743.9434
348.8396, 734.2327
349.3217, 720.4001
349.8038, 700.8087
350.2859, 676.9974
350.7681, 652.4064
351.2502, 627.2293
351.7323, 602.1110
352.2144, 577.5574
352.6965, 553.5105
353.1786, 530.5182
353.6608, 508.7026
354.1429, 488.1275
354.6250, 468.6310
355.1071, 450.1888
355.5892, 433.6909
356.0714, 420.3219
356.5535, 409.2386
357.0356, 399.1886
357.5177, 389.3733
357.9998, 380.6753
358.4819, 374.2277
358.9641, 369.7646
359.4462, 366.0026
359.9283, 362.0316
360.4104, 358.5950
360.8925, 356.3778
361.3746, 355.9689
361.8568, 356.0285
362.3389, 355.9810
362.8210, 355.9961
363.3031, 356.4599
363.7852, 357.8623
364.2673, 359.4400
364.7495, 360.7632
365.2316, 361.6109
365.7137, 362.8593
366.1958, 365.0013
366.6779, 367.5068
367.1600, 369.7719
367.6422, 371.6354
368.1243, 373.3510
368.6064, 375.0807
369.0885, 376.8517
369.5706, 378.0704
370.0527, 379.1947
370.5349, 379.4313
371.0170, 378.2258
371.4991, 375.0359
371.9812, 371.3719
372.4633, 367.4352
372.9454, 363.0732
373.4276, 357.8662
373.9097, 351.7666
374.3918, 344.7964
374.8739, 337.0163
375.3560, 328.2060
375.8381, 319.2017
376.3203, 310.1037
376.8024, 300.8128
377.2845, 291.0417
377.7666, 280.7207
378.2487, 270.6905
378.7308, 261.4500
379.2130, 252.8172
379.6951, 244.4465
380.1772, 236.2552
380.6593, 228.3830
381.1414, 220.8510
381.6235, 213.7100
382.1057, 206.7629
382.5878, 199.9547
383.0699, 193.4385
383.5520, 187.6301
384.0341, 182.4372
384.5162, 177.4573
384.9984, 172.0790
385.4805, 166.7254
385.9626, 162.4025
386.4447, 159.3338
386.9268, 156.6220
387.4089, 153.3526
387.8911, 149.7254
388.3732, 146.2659
388.8553, 143.1456
389.3374, 140.3263
389.8195, 137.9386
390.3016, 135.9810
390.7838, 133.9664
391.2659, 131.3514
391.7480, 128.6543
392.2301, 126.4377
392.7122, 125.1566
393.1943, 123.9722
393.6765, 122.3723
394.1586, 120.5471
394.6407, 119.0647
395.1228, 118.4375
395.6049, 117.9399
396.0870, 117.1493
396.5692, 115.8568
397.0513, 114.8185
397.5334, 114.4954
398.0155, 114.3992
398.4976, 113.9240
398.9797, 112.2506
399.4619, 111.0016
399.9440, 110.6843
400.4261, 111.2914
400.9082, 111.5042
401.3903, 111.1021
401.8724, 110.5119
402.3546, 109.9964
402.8367, 109.6058
403.3188, 109.1875
403.8009, 108.7150
404.2830, 108.2181
404.7651, 107.7590
405.2473, 107.3252
405.7294, 106.9814
406.2115, 106.7911
406.6936, 106.7632
407.1757, 106.6227
407.6578, 106.3291
408.1400, 106.0339
408.6221, 105.9381
409.1042, 106.0371
409.5863, 106.1111
410.0684, 106.1102
410.5505, 106.0408
411.0327, 105.8951
411.5148, 105.6747
411.9969, 105.4515
412.4790, 105.2886
412.9611, 105.1581
413.4432, 105.0147
413.9254, 104.8680
414.4075, 104.6419
414.8896, 104.0647
415.3717, 103.3334
415.8538, 102.9188
416.3359, 103.3037
416.8181, 103.9434
417.3002, 104.3486
417.7823, 104.5178
418.2644, 104.6615
418.7465, 104.9268
419.2286, 105.2188
419.7108, 105.4478
420.1929, 105.6372
420.6750, 105.6977
421.1571, 105.2410
421.6392, 104.5981
422.1213, 104.6442
422.6035, 106.4795
423.0856, 108.3030
423.5677, 109.3186
424.0498, 109.1973
424.5319, 109.2124
425.0140, 109.4651
425.4962, 109.9004
425.9783, 110.4815
426.4604, 111.4976
426.9425, 112.2337
427.4246, 112.4940
427.9067, 112.3590
428.3889, 112.3786
428.8710, 112.6284
429.3531, 112.8995
429.8352, 113.0424
430.3173, 112.9915
430.7994, 113.1485
431.2816, 113.5607
431.7637, 114.1195
432.2458, 114.7309
432.7279, 115.4123
433.2100, 115.8151
433.6921, 115.6706
434.1743, 115.1726
434.6564, 115.0903
435.1385, 115.4343
435.6206, 115.8191
436.1027, 115.8021
436.5848, 115.5643
437.0670, 115.6670
437.5491, 116.3474
438.0312, 117.0692
438.5133, 117.0966
438.9954, 116.6560
439.4775, 116.3735
439.9597, 116.8179
440.4418, 117.4107
440.9239, 117.6525
441.4060, 117.5154
441.8881, 117.1740
442.3702, 116.4646
442.8524, 115.7244
443.3345, 115.2764
443.8166, 115.4210
444.2987, 115.6165
444.7808, 115.7892
445.2629, 115.8969
445.7451, 115.8162
446.2272, 115.4141
446.7093, 114.9126
447.1914, 114.3293
447.6735, 113.5360
448.1556, 113.0956
448.6378, 113.0716
449.1199, 113.3597
449.6020, 113.9568
450.0841, 115.3076
450.5662, 115.9869
451.0483, 115.5960
451.5305, 114.3754
452.0126, 113.3615
452.4947, 112.5209
452.9768, 111.9637
453.4589, 111.8033
453.9410, 112.0482
454.4232, 112.3739
454.9053, 112.8193
455.3874, 113.2010
455.8695, 113.3001
456.3516, 113.1278
456.8337, 112.7470
457.3159, 112.0054
457.7980, 111.2076
458.2801, 110.9362
458.7622, 111.1437
459.2443, 111.4945
459.7264, 111.7964
460.2086, 112.0922
460.6907, 112.4324
461.1728, 112.8253
461.6549, 113.2623
462.1370, 113.7263
462.6191, 114.2278
463.1013, 114.7717
463.5834, 115.4766
464.0655, 116.1163
464.5476, 116.5103
465.0297, 116.6939
465.5118, 116.9995
465.9940, 117.6502
466.4761, 118.3394
466.9582, 118.8819
467.4403, 119.0890
467.9224, 119.4706
468.4045, 120.0675
468.8867, 120.8250
469.3688, 121.6687
469.8509, 122.4977
470.3330, 123.5872
470.8151, 125.1036
471.2972, 126.9864
471.7794, 128.5455
472.2615, 129.6931
472.7436, 130.8026
473.2257, 132.1296
473.7078, 133.6832
474.1899, 135.3423
474.6721, 137.1518
475.1542, 138.9438
475.6363, 140.3726
476.1184, 141.5071
476.6005, 142.8182
477.0826, 144.9149
477.5648, 147.0462
478.0469, 147.7935
478.5290, 147.2776
479.0111, 146.5961
479.4932, 146.7234
479.9753, 147.0334
480.4575, 146.7571
480.9396, 145.6624
481.4217, 144.2844
481.9038, 142.8465
482.3859, 141.3773
482.8680, 139.9365
483.3502, 138.2820
483.8323, 136.9116
484.3144, 135.9415
484.7965, 135.3922
485.2786, 135.3406
485.7607, 136.1496
486.2429, 137.1867
486.7250, 138.0931
487.2071, 138.4903
487.6892, 139.5564
488.1713, 141.4869
488.6534, 143.9486
489.1356, 146.5309
489.6177, 149.2986
490.0998, 152.0265
490.5819, 154.5943
491.0640, 157.1323
491.5461, 160.3196
492.0283, 164.2536
492.5104, 168.2574
492.9925, 171.3856
493.4746, 174.0489
493.9567, 178.2429
494.4388, 184.3138
494.9210, 191.1200
495.4031, 197.5733
495.8852, 203.7781
496.3673, 210.2219
496.8494, 217.5257
497.3315, 224.6330
497.8137, 230.4589
498.2958, 235.2100
498.7779, 239.5013
499.2600, 244.5228
499.7421, 248.6640
500.2242, 250.8687
500.7064, 250.9923
501.1885, 249.3526
501.6706, 245.9689
502.1527, 240.9295
502.6348, 234.3564
503.1169, 225.0624
503.5991, 215.6561
504.0812, 206.3009
504.5633, 197.1085
505.0454, 188.2234
505.5275, 179.6693
506.0096, 171.6358
506.4918, 164.1628
506.9739, 157.1503
507.4560, 151.1991
507.9381, 146.4288
508.4202, 142.3912
508.9023, 138.6683
509.3845, 135.2650
509.8666, 132.2768
510.3487, 129.7225
510.8308, 127.5883
511.3129, 125.9742
511.7950, 124.8077
512.2772, 123.7489
512.7593, 122.5758
513.2414, 121.4375
513.7235, 120.5461
514.2056, 119.8939
514.6877, 119.2374
515.1699, 118.2736
515.6520, 117.3095
516.1341, 116.6470
516.6162, 116.4754
517.0983, 116.3621
517.5804, 116.1032
518.0626, 115.8201
518.5447, 115.7122
519.0268, 116.1183
519.5089, 116.3692
519.9910, 116.2265
520.4731, 115.7256
520.9553, 115.4372
521.4374, 115.4381
521.9195, 115.5417
522.4016, 115.7218
522.8837, 116.0679
523.3658, 115.9371
523.8480, 115.1620
524.3301, 114.2571
524.8122, 114.0161
525.2943, 114.3926
525.7764, 114.5798
526.2585, 114.2491
526.7407, 113.7375
527.2228, 113.6670
527.7049, 113.9874
528.1870, 114.4018
528.6691, 114.7798
529.1512, 115.1309
529.6334, 115.4436
530.1155, 115.7165
530.5976, 116.0372
531.0797, 116.3910
531.5618, 116.8527
532.0439, 117.5100
532.5261, 118.6793
533.0082, 119.6286
533.4903, 119.8761
533.9724, 119.8082
534.4545, 120.2660
534.9366, 121.7745
535.4188, 123.2841
535.9009, 124.3909
536.3830, 125.1213
536.8651, 126.7453
537.3472, 129.6946
537.8293, 132.6844
538.3115, 134.6814
538.7936, 135.5697
539.2757, 137.0439
539.7578, 139.2236
540.2399, 141.8579
540.7220, 144.7805
541.2042, 147.9158
541.6863, 151.0319
542.1684, 154.0684
542.6505, 157.0793
543.1326, 160.1467
543.6147, 163.2538
544.0969, 166.4283
544.5790, 169.2115
545.0611, 172.3068
545.5432, 176.5223
546.0253, 181.9602
546.5074, 187.2258
546.9896, 191.1042
547.4717, 194.8706
547.9538, 199.5736
548.4359, 206.4399
548.9180, 212.8154
549.4001, 218.0493
549.8823, 222.8489
550.3644, 228.4374
550.8465, 235.3390
551.3286, 242.1810
551.8107, 248.7397
552.2928, 255.0075
552.7750, 260.7171
553.2571, 265.9089
553.7392, 270.5106
554.2213, 274.5521
554.7034, 277.9659
555.1855, 280.8005
555.6677, 283.1702
556.1498, 284.1053
556.6319, 282.2911
557.1140, 278.3140
557.5961, 273.3642
558.0782, 267.7966
558.5604, 261.3062
559.0425, 253.4447
559.5246, 244.5182
560.0067, 235.2331
560.4888, 225.3260
560.9709, 215.7106
561.4531, 206.9446
561.9352, 199.0062
562.4173, 191.4065
562.8994, 183.8453
563.3815, 176.8189
563.8636, 170.4921
564.3458, 164.9277
564.8279, 160.0596
565.3100, 156.0127
565.7921, 152.4398
566.2742, 148.9133
566.7563, 145.3777
567.2385, 142.2803
567.7206, 139.8312
568.2027, 137.7578
568.6848, 135.4543
569.1669, 132.9708
569.6490, 130.9285
570.1312, 129.8167
570.6133, 129.2456
571.0954, 128.7970
571.5775, 128.4356
572.0596, 127.9122
572.5417, 126.6838
573.0239, 125.4360
573.5060, 124.8231
573.9881, 125.1385
574.4702, 125.5762
574.9523, 125.9740
575.4344, 126.3390
575.9166, 126.6719
576.3987, 126.7667
576.8808, 127.1175
577.3629, 127.8446
577.8450, 128.8608
578.3271, 129.9045
578.8093, 130.9867
579.2914, 132.0501
579.7735, 133.0454
580.2556, 133.9759
580.7377, 135.0842
581.2198, 136.4010
581.7020, 137.4726
582.1841, 137.7178
582.6662, 137.4481
583.1483, 137.4987
583.6304, 138.0601
584.1125, 138.4856
584.5947, 138.1911
585.0768, 137.3993
585.5589, 136.4320
586.0410, 135.2635
586.5231, 134.1011
587.0052, 132.9731
587.4874, 131.9200
587.9695, 131.0656
588.4516, 130.4748
588.9337, 130.0421
589.4158, 129.7440
589.8979, 129.5811
590.3801, 129.4788
590.8622, 129.2925
591.3443, 129.4206
591.8264, 130.2506
592.3085, 131.8475
592.7906, 133.1242
593.2728, 134.0276
593.7549, 134.6734
594.2370, 135.1152
594.7191, 135.4064
595.2012, 135.7332
595.6833, 136.1091
596.1655, 136.6067
596.6476, 137.5326
597.1297, 138.6420
597.6118, 139.3892
598.0939, 139.2735
598.5760, 138.9568
599.0582, 138.8838
599.5403, 139.0076
600.0224, 138.7895
600.5045, 137.6846
600.9866, 136.5859
601.4688, 135.9240
601.9509, 135.8311
602.4330, 135.6252
602.9151, 135.3672
603.3972, 134.9120
603.8793, 134.0017
604.3615, 132.5524
604.8436, 131.5191
605.3257, 131.0920
605.8078, 130.9440
606.2899, 130.5973
606.7720, 130.0851
607.2542, 129.5811
607.7363, 129.1304
608.2184, 128.7361
608.7005, 128.4952
609.1826, 128.3389
609.6647, 128.0376
610.1469, 127.2160
610.6290, 126.4189
611.1111, 126.0241
611.5932, 126.0590
612.0753, 126.1024
612.5574, 126.3655
613.0396, 126.3766
613.5217, 125.7859
614.0038, 124.0512
614.4859, 123.1414
614.9680, 123.3116
615.4501, 123.9596
615.9323, 124.4325
616.4144, 124.7264
616.8965, 124.8690
617.3786, 124.8290
617.8607, 124.7004
618.3428, 124.4934
618.8250, 124.2949
619.3071, 124.4721
619.7892, 125.6054
620.2713, 126.9062
620.7534, 127.5250
621.2355, 127.5886
621.7177, 127.6512
622.1998, 127.9445
622.6819, 128.3486
623.1640, 128.8467
623.6461, 129.4705
624.1282, 129.9436
624.6104, 129.8660
625.0925, 129.9509
625.5746, 130.6833
626.0567, 132.3337
626.5388, 133.9077
627.0209, 135.4020
627.5031, 136.7559
627.9852, 137.8623
628.4673, 138.7175
628.9494, 139.4095
629.4315, 139.8496
629.9136, 140.3335
630.3958, 141.5006
630.8779, 143.1157
631.3600, 144.4612
631.8421, 145.3364
632.3242, 145.6922
632.8063, 145.3760
633.2885, 144.4624
633.7706, 143.3350
634.2527, 142.1859
634.7348, 140.8077
635.2169, 139.0820
635.6990, 137.0039
636.1812, 134.6279
636.6633, 131.7190
637.1454, 128.7966
637.6275, 126.3660
638.1096, 124.5464
638.5917, 122.0927
639.0739, 118.6952
639.5560, 115.3348
640.0381, 113.2823
640.5202, 112.3271
641.0023, 111.6722
641.4844, 111.3146
641.9666, 110.7488
642.4487, 109.1467
642.9308, 106.9188
643.4129, 104.9853
643.8950, 103.7378
644.3771, 102.8509
644.8593, 102.4024
645.3414, 102.2643
645.8235, 101.7582
646.3056, 100.2814
646.7877, 98.94834
647.2698, 98.16101
647.7520, 97.93307
648.2341, 97.67808
648.7162, 97.42113
649.1983, 97.06924
649.6804, 96.49349
650.1625, 95.72714
650.6447, 95.11748
651.1268, 94.70009
651.6089, 94.30581
652.0910, 93.56534
652.5731, 92.77608
653.0552, 92.55740
653.5374, 93.35880
654.0195, 94.02345
654.5016, 93.67664
654.9837, 92.78828
655.4658, 92.04871
655.9479, 91.79778
656.4301, 91.52860
656.9122, 91.01707
657.3943, 90.41797
657.8764, 90.20499
658.3585, 90.60162
658.8406, 90.85400
659.3228, 90.70188
659.8049, 90.21055
660.2870, 89.68340
660.7691, 89.11466
661.2512, 88.61552
661.7333, 88.17237
662.2155, 87.87523
662.6976, 88.05168
663.1797, 88.69106
663.6618, 89.16941
664.1439, 88.88049
664.6260, 88.34173
665.1082, 88.01286
665.5903, 88.02207
666.0724, 88.07307
666.5545, 88.21326
667.0366, 88.29832
667.5187, 88.20463
668.0009, 87.91122
668.4830, 87.45628
668.9651, 86.72909
669.4472, 85.98333
669.9293, 85.64744
670.4114, 85.72551
670.8936, 85.89370
671.3757, 86.14328
671.8578, 86.31808
672.3399, 86.04971
672.8220, 85.46162
673.3041, 84.98228
673.7863, 84.79480
674.2684, 84.81495
674.7505, 85.21043
675.2326, 85.84223
675.7147, 86.04026
676.1968, 84.92672
676.6790, 83.96059
677.1611, 83.96593
677.6432, 85.00803
678.1253, 85.37995
678.6074, 84.78880
679.0895, 84.06894
679.5717, 83.72288
680.0538, 83.74832
680.5359, 83.97530
681.0180, 84.43624
681.5001, 84.82304
681.9822, 84.77900
682.4644, 84.44396
682.9465, 84.08755
683.4286, 83.74517
683.9107, 83.42709
684.3928, 83.06486
684.8749, 82.75750
685.3571, 82.61752
685.8392, 82.77918
686.3213, 82.97777
686.8034, 83.30794
687.2855, 83.60986
687.7676, 83.59785
688.2498, 83.12598
688.7319, 82.69238
689.2140, 82.35170
689.6961, 82.14819
690.1782, 82.34203
690.6603, 82.90413
691.1425, 83.25323
691.6246, 82.95943
692.1067, 82.39983
692.5888, 82.13717
693.0709, 82.12838
693.5530, 82.19238
694.0352, 82.24226
694.5173, 82.32345
694.9994, 82.54140
695.4815, 82.90730
695.9636, 83.01348
696.4457, 82.62358
696.9279, 82.12442
697.4100, 81.59006
697.8921, 80.92403
698.3742, 80.99377
698.8563, 82.01145
699.3384, 83.11131
699.8206, 83.37963
700.3027, 83.02433
700.7848, 83.16972
701.2669, 84.02097
701.7490, 84.69880
702.2311, 84.07533
702.7133, 82.85754
703.1954, 82.04926
703.6775, 82.10014
704.1596, 82.17232
704.6417, 81.77231
705.1238, 81.26278
705.6060, 81.17016
706.0881, 81.82392
706.5702, 82.38844
707.0523, 82.81156
707.5344, 83.08743
708.0165, 83.18607
708.4987, 83.10262
708.9808, 82.90930
709.4629, 82.57865
709.9450, 82.21024
710.4271, 81.92956
710.9092, 81.76143
711.3914, 81.78858
711.8735, 82.40470
712.3556, 82.93391
712.8377, 82.70299
713.3198, 81.89147
713.8019, 81.42013
714.2841, 81.78476
714.7662, 82.29459
715.2483, 82.71849
715.7304, 83.05766
716.2125, 83.42871
716.6946, 83.95464
717.1768, 84.18385
717.6589, 83.54102
718.1410, 82.23119
718.6231, 82.11661
719.1052, 83.22816
719.5873, 84.22878
720.0695, 83.75455
720.5516, 82.68941
721.0337, 82.23122
721.5158, 82.59914
721.9979, 82.90714
722.4800, 82.52107
722.9622, 82.04548
723.4443, 82.00829
723.9264, 82.85408
724.4085, 83.23547
724.8906, 82.87088
725.3727, 82.37685
725.8549, 82.42373
726.3370, 83.05415
726.8191, 83.61123
727.3012, 84.03663
727.7833, 84.29192
728.2654, 84.29648
728.7476, 84.08564
729.2297, 83.68365
729.7118, 82.89028
730.1939, 82.34892
730.6760, 82.85442
731.1581, 83.80753
731.6403, 84.29243
732.1224, 83.53177
732.6045, 82.98638
733.0866, 82.96272
733.5687, 83.24352
734.0508, 83.38625
734.5330, 83.37478
735.0151, 83.27619
735.4972, 83.04710
735.9793, 82.81118
736.4614, 82.89436
736.9435, 83.24512
737.4257, 83.59763
737.9078, 83.90321
738.3899, 84.08665
738.8720, 83.93498
739.3541, 83.57154
739.8362, 83.43338
740.3184, 83.96564
740.8005, 84.46232
741.2826, 84.58846
741.7647, 84.39877
742.2468, 84.36687
742.7289, 84.56303
743.2111, 84.73536
743.6932, 84.72054
744.1753, 84.57691
744.6574, 84.70741
745.1395, 85.10140
745.6216, 85.42333
746.1038, 85.40945
746.5859, 85.20402
747.0680, 84.88715
747.5501, 84.48080
748.0322, 84.28837
748.5143, 84.63799
748.9965, 85.09496
749.4786, 85.36794
749.9607, 85.36940
750.4428, 85.61982
750.9249, 86.35967
751.4070, 86.94932
751.8892, 86.80437
752.3713, 85.94071
752.8534, 85.47221
753.3355, 85.45091
753.8176, 85.57343
754.2997, 85.55332
754.7819, 85.48995
755.2640, 85.55830
755.7461, 85.80672
756.2282, 86.04264
756.7103, 86.26453
757.1924, 86.36898
757.6746, 86.24036
758.1567, 85.63435
758.6388, 85.26333
759.1209, 85.21027
759.6030, 85.28662
760.0851, 85.25657
760.5673, 85.10869
761.0494, 85.22604
761.5315, 85.68835
762.0136, 86.25729
762.4957, 86.80973
762.9778, 87.22945
763.4600, 87.23964
763.9421, 86.57617
764.4242, 85.97872
764.9063, 85.92809
765.3884, 86.14378
765.8705, 86.28355
766.3527, 86.29110
766.8348, 86.21909
767.3169, 85.99500
767.7990, 85.76081
768.2811, 85.81145
768.7632, 86.17363
769.2454, 86.23525
769.7275, 85.79898
770.2096, 85.20513
770.6917, 84.88733
771.1738, 84.78580
771.6559, 84.76653
772.1381, 84.77370
772.6202, 84.86478
773.1023, 85.23644
773.5844, 85.67789
774.0665, 85.79961
774.5486, 85.15845
775.0308, 84.78850
775.5129, 84.91689
775.9950, 85.32253
776.4771, 85.44547
776.9592, 85.26872
777.4413, 85.42660
777.9235, 86.32568
778.4056, 87.30138
778.8877, 87.16954
779.3698, 86.28020
779.8519, 85.53062
780.3340, 85.32924
780.8162, 85.36433
781.2983, 85.66548
781.7804, 86.09223
782.2625, 86.24430
782.7446, 85.79042
783.2267, 85.58667
783.7089, 85.90921
784.1910, 86.53343
784.6731, 86.73846
785.1552, 86.53034
785.6373, 86.53770
786.1194, 87.22037
786.6016, 88.01069
787.0837, 87.95358
787.5658, 87.30116
788.0479, 86.74792
788.5300, 86.55858
789.0121, 86.60656
789.4943, 86.90389
789.9764, 87.41094
790.4585, 88.01463
790.9406, 89.01636
791.4227, 89.46082
791.9048, 88.83679
792.3870, 87.60439
792.8691, 87.31675
793.3512, 87.91898
793.8333, 88.60641
794.3154, 89.09255
794.7975, 89.38630
795.2797, 89.33550
795.7618, 89.07285
796.2439, 89.02193
796.7260, 89.61255
797.2081, 90.17934
797.6902, 90.58476
798.1724, 90.77274
798.6545, 90.41947
799.1366, 89.19644
799.6187, 88.32198
800.1008, 88.25132
800.5829, 88.77084
801.0651, 89.38371
801.5472, 90.05050
802.0293, 90.53297
802.5114, 90.56524
802.9935, 90.45679
803.4756, 90.44680
803.9578, 90.52678
804.4399, 90.66489
804.9220, 90.93269
805.4041, 91.16423
805.8862, 91.26941
806.3683, 91.29964
806.8505, 91.46339
807.3326, 91.76517
807.8147, 92.20939
808.2968, 92.93523
808.7789, 93.69291
809.2610, 93.75032
809.7432, 93.28917
810.2253, 93.04970
810.7074, 93.74175
811.1895, 94.48226
811.6716, 94.63830
812.1537, 94.36515
812.6359, 94.26225
813.1180, 94.49204
813.6001, 94.81230
814.0822, 95.23722
814.5643, 95.69721
815.0464, 95.90157
815.5286, 95.84580
816.0107, 95.76989
816.4928, 95.73399
816.9749, 95.77256
817.4570, 95.89648
817.9391, 96.13419
818.4213, 96.57224
818.9034, 97.62324
819.3855, 98.48647
819.8676, 98.80762
820.3497, 98.65781
820.8318, 98.27493
821.3140, 97.36673
821.7961, 96.95657
822.2782, 97.46096
822.7603, 98.46095
823.2424, 98.92426
823.7245, 98.93222
824.2067, 98.99555
824.6888, 99.31486
825.1709, 99.78702
825.6530, 100.3613
826.1351, 101.0216
826.6172, 101.7112
827.0994, 102.7278
827.5815, 103.3884
828.0636, 103.4242
828.5457, 103.1101
829.0278, 103.0276
829.5099, 103.2169
829.9921, 103.3482
830.4742, 103.2658
830.9563, 103.2351
831.4384, 103.7603
831.9205, 104.6826
832.4026, 105.5948
832.8848, 106.3091
833.3669, 107.0495
833.8490, 108.1416
834.3311, 109.2809
834.8132, 109.8970
835.2953, 109.5470
835.7775, 109.4912
836.2596, 109.8782
836.7417, 110.5818
837.2238, 111.5324
837.7059, 112.6899
838.1880, 113.5031
838.6702, 113.7158
839.1523, 113.9925
839.6344, 115.0883
840.1165, 116.6566
840.5986, 118.2026
841.0807, 119.6763
841.5629, 120.9771
842.0450, 121.8033
842.5271, 122.6307
843.0092, 124.0191
843.4913, 126.1271
843.9734, 127.8638
844.4556, 129.0743
844.9377, 130.1245
845.4198, 131.1847
845.9019, 132.4564
846.3840, 134.5120
846.8661, 137.6194
847.3483, 140.7212
847.8304, 143.4057
848.3125, 145.7030
848.7946, 147.5287
849.2767, 148.3720
849.7589, 150.1484
850.2410, 153.1508
850.7231, 156.5316
851.2052, 159.5388
851.6873, 162.2302
852.1694, 165.2368
852.6516, 168.6228
853.1337, 171.9167
853.6158, 174.6102
854.0979, 177.1356
854.5800, 179.9235
855.0621, 183.0325
855.5443, 186.3453
856.0264, 189.9114
856.5085, 193.5882
856.9906, 197.4399
857.4727, 201.4565
857.9548, 204.4436
858.4370, 206.3175
858.9191, 208.2136
859.4012, 211.4278
859.8833, 214.9788
860.3654, 217.3092
860.8475, 218.4342
861.3297, 218.9309
861.8118, 218.7234
862.2939, 218.2857
862.7760, 217.9092
863.2581, 217.5506
863.7402, 216.6796
864.2224, 215.1687
864.7045, 213.5939
865.1866, 212.2876
865.6687, 211.0146
866.1508, 209.0499
866.6329, 206.5455
867.1151, 204.2393
867.5972, 202.8232
868.0793, 201.4174
868.5614, 199.4444
869.0435, 197.0488
869.5256, 194.7370
870.0078, 192.4165
870.4899, 190.4083
870.9720, 188.7198
871.4541, 187.4045
871.9362, 186.6644
872.4183, 186.4444
872.9005, 186.3048
873.3826, 186.1065
873.8647, 185.9511
874.3468, 185.8803
874.8289, 185.9347
875.3110, 186.1781
875.7932, 186.4604
876.2753, 187.1920
876.7574, 188.5622
877.2395, 190.2091
877.7216, 191.7297
878.2037, 193.1076
878.6859, 194.4451
879.1680, 195.6832
879.6501, 197.2683
880.1322, 199.8586
880.6143, 203.0603
881.0964, 206.3875
881.5786, 209.8360
882.0607, 213.0042
882.5428, 215.1876
883.0249, 217.5117
883.5070, 220.7425
883.9891, 225.0467
884.4713, 229.2950
884.9534, 233.3881
885.4355, 237.7377
885.9176, 242.8320
886.3997, 248.3687
886.8818, 253.5457
887.3640, 258.3997
887.8461, 263.5807
888.3282, 269.0587
888.8103, 275.2293
889.2924, 282.4620
889.7745, 290.7020
890.2567, 299.2773
890.7388, 308.3733
891.2209, 317.0356
891.7030, 324.6846
892.1851, 331.8168
892.6672, 339.6561
893.1494, 348.2942
893.6315, 357.8972
894.1136, 369.2353
894.5957, 381.0347
895.0778, 392.2756
895.5599, 403.5101
896.0421, 415.8759
896.5242, 429.6149
897.0063, 444.1758
897.4884, 459.3323
897.9705, 475.2920
898.4526, 491.8511
898.9348, 509.2181
899.4169, 528.2202
899.8990, 549.1578
900.3811, 572.0212
900.8632, 597.1549
901.3453, 624.2499
901.8275, 653.5297
902.3096, 685.1262
902.7917, 717.8004
903.2738, 751.5108
903.7559, 786.7951
904.2380, 823.8468
904.7202, 863.0414
905.2023, 905.3320
905.6844, 950.2660
906.1665, 997.6183
906.6486, 1046.537
907.1307, 1097.259
907.6129, 1150.647
908.0950, 1206.576
908.5771, 1264.496
909.0592, 1323.883
909.5413, 1385.906
910.0234, 1451.673
910.5056, 1520.588
910.9877, 1589.727
911.4698, 1658.977
911.9519, 1725.946
912.4340, 1789.937
912.9161, 1850.807
913.3983, 1909.465
913.8804, 1963.890
914.3625, 2007.713
914.8446, 2038.387
915.3267, 2058.670
915.8088, 2070.529
916.2910, 2071.516
916.7731, 2056.580
917.2552, 2025.636
917.7373, 1981.500
918.2194, 1923.754
918.7015, 1855.823
919.1837, 1777.983
919.6658, 1693.667
920.1479, 1607.187
920.6300, 1517.263
921.1121, 1429.482
921.5942, 1342.591
922.0764, 1258.318
922.5585, 1177.565
923.0406, 1100.267
923.5227, 1028.368
924.0048, 962.2798
924.4869, 901.2859
924.9691, 844.4890
925.4512, 791.7891
925.9333, 744.1201
926.4154, 701.1879
926.8975, 661.2234
927.3796, 623.5121
927.8618, 589.2015
928.3439, 558.6736
928.8260, 531.6812
929.3081, 506.5649
929.7902, 483.2134
930.2723, 461.1523
930.7545, 440.5206
931.2366, 420.9516
931.7187, 402.0434
932.2008, 384.1435
932.6829, 368.0230
933.1650, 355.1610
933.6472, 342.2169
934.1293, 328.4743
934.6114, 314.7852
935.0935, 302.5492
935.5756, 291.6655
936.0577, 281.7289
936.5399, 272.8430
937.0220, 264.5675
937.5041, 256.9500
937.9862, 249.6004
938.4683, 242.0132
938.9504, 233.9072
939.4326, 226.7585
939.9147, 221.4069
940.3968, 216.4427
940.8789, 211.0821
941.3610, 205.3988
941.8431, 199.9747
942.3253, 194.7800
942.8074, 190.2045
943.2895, 186.9373
943.7716, 184.0983
944.2537, 180.8224
944.7358, 177.2634
945.2180, 174.0049
945.7001, 171.5749
946.1822, 168.8709
946.6643, 165.4771
947.1464, 161.8742
947.6285, 159.2079
948.1107, 157.3447
948.5928, 155.3036
949.0749, 152.7217
949.5570, 150.2871
950.0391, 148.6688
950.5212, 147.5033
951.0034, 146.4241
951.4855, 145.4828
951.9676, 144.2777
952.4497, 142.5731
952.9318, 141.0103
953.4139, 140.3049
953.8961, 140.2357
954.3782, 139.3520
954.8603, 137.6901
955.3424, 136.1633
955.8245, 135.5751
956.3066, 135.1738
956.7888, 134.4238
957.2709, 133.3494
957.7530, 132.3808
958.2351, 131.5240
958.7172, 130.7892
959.1993, 130.2058
959.6815, 129.6997
960.1636, 129.1043
960.6457, 128.4556
961.1278, 127.8833
961.6099, 127.4740
962.0920, 127.0568
962.5742, 126.4900
963.0563, 125.8867
963.5384, 125.4024
964.0205, 125.1494
964.5026, 124.6420
964.9847, 123.7964
965.4669, 122.9985
965.9490, 122.7480
966.4311, 122.7628
966.9132, 122.3729
967.3953, 121.5750
967.8774, 120.8464
968.3596, 120.3790
968.8417, 120.0968
969.3238, 119.9909
969.8059, 120.0394
970.2880, 120.2128
970.7701, 120.5376
971.2523, 120.7670
971.7344, 120.7962
972.2165, 120.7265
972.6986, 120.7712
973.1807, 120.8105
973.6628, 120.5975
974.1450, 119.6777
974.6271, 119.1334
975.1092, 119.4906
975.5913, 119.9946
976.0734, 119.8882
976.5555, 119.1556
977.0377, 118.7502
977.5198, 118.7396
978.0019, 118.7206
978.4840, 118.2361
978.9661, 117.6700
979.4482, 117.4195
979.9304, 117.4970
980.4125, 117.6214
980.8946, 117.9651
981.3767, 117.9879
981.8588, 117.4012
982.3409, 116.4873
982.8231, 116.1356
983.3052, 116.2194
983.7873, 116.0488
984.2694, 115.2119
984.7515, 114.3705
985.2336, 114.1006
985.7158, 114.0490
986.1979, 113.7212
986.6800, 112.7566
987.1621, 112.3524
987.6442, 112.7089
988.1263, 113.0636
988.6085, 112.6080
989.0906, 111.6519
989.5727, 110.7862
990.0548, 110.0848
990.5369, 109.9526
991.0190, 111.3692
991.5012, 112.6237
991.9833, 112.7383
992.4654, 112.0369
992.9475, 111.5745
993.4296, 111.3602
993.9117, 111.3786
994.3939, 111.7301
994.8760, 112.0802
995.3581, 111.9182
995.8402, 111.4663
996.3223, 111.0399
996.8044, 110.5253
997.2866, 110.5051
997.7687, 111.3603
998.2508, 112.3383
998.7329, 112.8006
999.2150, 112.7808
999.6971, 113.2551
1000.179, 114.2027
1000.661, 115.0073
1001.143, 115.0439
1001.626, 114.9391
1002.108, 115.2947
1002.590, 115.2644
1003.072, 116.1998
1003.554, 115.6011
1004.036, 115.3531
1004.518, 115.7742
1005.000, 116.5042
1005.483, 116.9065
1005.965, 117.1195
1006.447, 117.5078
1006.929, 118.1831
1007.411, 118.9253
1007.893, 119.8368
1008.375, 120.6011
1008.857, 120.9292
1009.339, 120.7701
1009.822, 120.9343
1010.304, 121.4306
1010.786, 122.1370
1011.268, 123.1106
1011.750, 124.1398
1012.232, 125.0580
1012.714, 125.8126
1013.196, 126.2712
1013.679, 126.1744
1014.161, 126.0379
1014.643, 125.8311
1015.125, 125.7417
1015.607, 126.1546
1016.089, 126.9718
1016.571, 127.5699
1017.053, 127.8358
1017.535, 128.1154
1018.018, 128.5983
1018.500, 129.2604
1018.982, 130.2081
1019.464, 131.4514
1019.946, 132.2096
1020.428, 132.2759
1020.910, 132.6339
1021.392, 133.7884
1021.875, 135.4051
1022.357, 136.9062
1022.839, 138.3316
1023.321, 139.7557
1023.803, 141.0619
1024.285, 142.5821
1024.767, 144.6510
1025.249, 146.7573
1025.731, 148.3172
1026.214, 149.3289
1026.696, 150.6275
1027.178, 152.2609
1027.660, 154.0340
1028.142, 155.8186
1028.624, 157.6807
1029.106, 159.7047
1029.588, 161.8741
1030.071, 164.0918
1030.553, 166.4585
1031.035, 168.6053
1031.517, 170.3245
1031.999, 171.9858
1032.481, 174.5208
1032.963, 177.5404
1033.445, 179.9716
1033.927, 181.3393
1034.410, 182.9640
1034.892, 185.8642
1035.374, 188.8392
1035.856, 190.9717
1036.338, 192.2469
1036.820, 193.9987
1037.302, 196.2182
1037.784, 197.9880
1038.266, 198.2245
1038.749, 198.1540
1039.231, 199.4252
1039.713, 201.3214
1040.195, 202.0435
1040.677, 200.5320
1041.159, 199.1672
1041.641, 198.2197
1042.123, 197.2990
1042.605, 195.9809
1043.088, 194.2890
1043.570, 192.1877
1044.052, 189.6751
1044.534, 187.3617
1045.016, 186.4685
1045.498, 184.9220
1045.980, 181.2073
1046.462, 175.9716
1046.945, 172.3204
1047.427, 170.2869
1047.909, 168.0393
1048.391, 164.9327
1048.873, 161.5480
1049.355, 158.5180
1049.837, 155.5641
1050.319, 152.2315
1050.802, 147.9633
1051.284, 144.5072
1051.766, 142.1705
1052.248, 140.0782
1052.730, 137.6596
1053.212, 135.0191
1053.694, 132.4088
1054.176, 129.8580
1054.658, 127.4985
1055.141, 125.2989
1055.623, 123.4220
1056.105, 122.1629
1056.587, 121.0997
1057.069, 119.5048
1057.551, 117.3502
1058.033, 115.7295
1058.515, 114.8243
1058.998, 113.9980
1059.480, 112.4804
1059.962, 110.8922
1060.444, 109.9397
1060.926, 109.6905
1061.408, 108.9594
1061.890, 107.4435
1062.372, 106.1863
1062.854, 105.6284
1063.337, 105.4070
1063.819, 104.9421
1064.301, 104.2713
1064.783, 103.4408
1065.265, 102.3131
1065.747, 101.3989
1066.229, 100.9427
1066.711, 100.6601
1067.193, 100.4094
1067.676, 100.1873
1068.158, 99.88799
1068.640, 99.51316
1069.122, 99.11556
1069.604, 98.73662
1070.086, 98.33106
1070.568, 97.75681
1071.050, 97.15237
1071.532, 96.85338
1072.015, 97.01427
1072.497, 96.89046
1072.979, 96.33685
1073.461, 95.80485
1073.943, 95.89310
1074.425, 96.24004
1074.907, 96.41862
1075.389, 96.37937
1075.872, 96.00882
1076.354, 94.84303
1076.836, 93.98401
1077.318, 93.81728
1077.800, 94.05468
1078.282, 93.96650
1078.764, 93.70030
1079.246, 93.79419
1079.729, 94.40047
1080.211, 95.34140
1080.693, 97.43481
1081.175, 99.02163
1081.657, 98.63528
1082.139, 96.28133
1082.621, 95.01504
1083.103, 94.84544
1083.585, 94.67810
1084.068, 93.71765
1084.550, 92.70299
1085.032, 92.50205
1085.514, 92.71638
1085.996, 92.61208
1086.478, 91.76863
1086.960, 91.39597
1087.442, 91.64870
1087.925, 92.00591
1088.407, 91.90101
1088.889, 91.59653
1089.371, 91.64063
1089.853, 91.99028
1090.335, 92.20681
1090.817, 92.01749
1091.299, 91.82063
1091.781, 91.75542
1092.264, 91.68771
1092.746, 91.22879
1093.228, 90.51730
1093.710, 90.30547
1094.192, 90.77044
1094.674, 91.25145
1095.156, 91.38297
1095.638, 91.32352
1096.120, 91.12542
1096.603, 90.82185
1097.085, 90.60403
1097.567, 90.47248
1098.049, 90.39251
1098.531, 90.35654
1099.013, 90.35509
1099.495, 90.54115
1099.977, 90.67744
1100.459, 90.39851
1100.942, 89.39359
1101.424, 88.80319
1101.906, 88.67859
1102.388, 88.80510
1102.870, 89.16711
1103.352, 89.61848
1103.834, 89.90047
1104.316, 90.03614
1104.799, 90.08146
1105.281, 90.06898
1105.763, 89.92805
1106.245, 89.56837
1106.727, 89.20804
1107.209, 89.14771
1107.691, 89.30449
1108.173, 89.34441
1108.656, 89.25042
1109.138, 89.08646
1109.620, 88.74563
1110.102, 88.50090
1110.584, 88.52670
1111.066, 88.71102
1111.548, 88.82973
1112.030, 88.88448
1112.512, 88.95061
1112.995, 89.05303
1113.477, 89.09032
1113.959, 88.79482
1114.441, 88.53197
1114.923, 88.71690
1115.405, 89.33903
1115.887, 89.61757
1116.369, 89.48354
1116.852, 89.43539
1117.334, 89.75301
1117.816, 90.02170
1118.298, 89.44533
1118.780, 88.56419
1119.262, 88.22624
1119.744, 88.93710
1120.226, 89.12645
1120.708, 88.53188
1121.191, 87.93825
1121.673, 87.79753
1122.155, 87.98997
1122.637, 88.35857
1123.119, 88.81128
1123.601, 89.09328
1124.083, 89.01643
1124.565, 88.86666
1125.047, 88.59171
1125.530, 88.39378
1126.012, 88.59550
1126.494, 89.06583
1126.976, 88.88372
1127.458, 88.13479
1127.940, 87.76903
1128.422, 88.77451
1128.904, 89.78166
1129.386, 90.20501
1129.869, 90.24779
1130.351, 90.09132
1130.833, 89.74341
1131.315, 89.77957
1131.797, 90.29465
1132.279, 90.68312
1132.761, 90.28967
1133.243, 89.74558
1133.726, 89.54826
1134.208, 89.62607
1134.690, 89.44833
1135.172, 88.92923
1135.654, 88.87155
1136.136, 89.57482
1136.618, 90.38012
1137.100, 90.59762
1137.583, 90.49873
1138.065, 90.31858
1138.547, 90.06721
1139.029, 89.98909
1139.511, 90.11049
1139.993, 90.36430
1140.475, 90.88411
1140.957, 91.26537
1141.439, 90.44353
1141.922, 89.16103
1142.404, 88.76164
1142.886, 90.08084
1143.368, 90.90825
1143.850, 90.90246
1144.332, 90.76368
1144.814, 90.96707
1145.296, 91.32178
1145.779, 91.22397
1146.261, 90.85114
1146.743, 90.71982
1147.225, 91.36646
1147.707, 91.79843
1148.189, 91.73880
1148.671, 91.61425
1149.153, 91.88057
1149.635, 92.41880
1150.118, 92.66674
1150.600, 92.62698
1151.082, 92.42960
1151.564, 91.84926
1152.046, 91.48828
1152.528, 91.67141
1153.010, 92.10144
1153.492, 92.37029
1153.974, 92.50411
1154.457, 92.88570
1154.939, 93.53892
1155.421, 94.07906
1155.903, 94.21655
1156.385, 94.19150
1156.867, 94.02690
1157.349, 93.83376
1157.831, 93.84287
1158.313, 94.05514
1158.796, 94.50327
1159.278, 95.23254
1159.760, 95.86733
1160.242, 96.02048
1160.724, 96.00362
1161.206, 96.07357
1161.688, 96.21653
1162.170, 96.14619
1162.653, 95.80574
1163.135, 95.94143
1163.617, 96.93420
1164.099, 97.88963
1164.581, 97.57814
1165.063, 96.92863
1165.545, 97.07341
1166.027, 98.23165
1166.510, 98.65176
1166.992, 98.19601
1167.474, 97.78532
1167.956, 97.81953
1168.438, 98.02658
1168.920, 98.08277
1169.402, 98.06773
1169.884, 98.10992
1170.366, 98.28907
1170.849, 98.30904
1171.331, 98.11718
1171.813, 97.95138
1172.295, 97.91721
1172.777, 98.01814
1173.259, 98.36336
1173.741, 98.82520
1174.223, 99.14497
1174.706, 99.26159
1175.188, 99.16043
1175.670, 98.71586
1176.152, 98.38496
1176.634, 98.67828
1177.116, 99.23864
1177.598, 99.41784
1178.080, 99.25632
1178.563, 98.90539
1179.045, 98.01065
1179.527, 97.55903
1180.009, 97.71413
1180.491, 98.12583
1180.973, 98.55889
1181.455, 98.96117
1181.937, 99.25246
1182.419, 99.40398
1182.901, 99.30103
1183.384, 98.60252
1183.866, 98.04195
1184.348, 97.67772
1184.830, 97.58961
1185.312, 98.01072
1185.794, 98.75978
1186.276, 99.42439
1186.758, 99.96236
1187.240, 100.2664
1187.723, 100.1202
1188.205, 99.94505
1188.687, 99.87929
1189.169, 99.78365
1189.651, 99.25921
1190.133, 98.52547
1190.615, 98.35970
1191.097, 98.86340
1191.580, 99.33849
1192.062, 99.48339
1192.544, 99.53739
1193.026, 99.60909
1193.508, 99.61598
1193.990, 99.27746
1194.472, 98.71584
1194.954, 98.35886
1195.437, 98.28887
1195.919, 98.37321
1196.401, 98.90180
1196.883, 99.13705
1197.365, 98.63298
1197.847, 97.73650
1198.329, 97.48945
1198.811, 97.74545
1199.293, 97.93892
1199.776, 97.92551
1200.258, 97.85863
1200.740, 97.78330
1201.222, 97.69357
1201.704, 97.57935
1202.186, 97.45030
1202.668, 97.31131
1203.150, 97.19158
1203.633, 97.26189
1204.115, 97.73693
1204.597, 97.93726
1205.079, 97.10764
1205.561, 96.36147
1206.043, 96.43897
1206.525, 97.13558
1207.007, 97.40544
1207.490, 97.33031
1207.972, 97.28246
1208.454, 97.39072
1208.936, 97.57879
1209.418, 98.04939
1209.900, 98.35020
1210.382, 98.08793
1210.864, 97.37222
1211.346, 96.94357
1211.828, 96.77419
1212.311, 96.75355
1212.793, 96.92529
1213.275, 97.09473
1213.757, 97.34710
1214.239, 97.41219
1214.721, 96.92465
1215.203, 96.01169
1215.685, 95.64397
1216.167, 95.77371
1216.650, 96.12895
1217.132, 96.85873
1217.614, 97.42258
1218.096, 97.66560
1218.578, 97.66517
1219.060, 97.42683
1219.542, 96.98157
1220.024, 96.44825
1220.507, 95.87825
1220.989, 95.51897
1221.471, 95.47067
1221.953, 95.71471
1222.435, 96.55778
1222.917, 97.31180
1223.399, 97.12000
1223.881, 96.19770
1224.364, 95.46069
1224.846, 94.98666
1225.328, 95.04333
1225.810, 96.34056
1226.292, 97.43157
1226.774, 98.07673
1227.256, 98.25302
1227.738, 97.56867
1228.220, 96.41072
1228.703, 96.37112
1229.185, 97.35611
1229.667, 98.13026
1230.149, 97.89897
1230.631, 97.69571
1231.113, 97.76109
1231.595, 97.93786
1232.077, 98.16492
1232.560, 98.31365
1233.042, 97.75793
1233.524, 96.60491
1234.006, 96.02010
1234.488, 96.99487
1234.970, 97.93987
1235.452, 98.64504
1235.934, 99.02427
1236.417, 98.78593
1236.899, 98.18326
1237.381, 97.71094
1237.863, 97.42582
1238.345, 97.37329
1238.827, 97.72028
1239.309, 98.10476
1239.791, 98.50843
1240.273, 98.85291
1240.755, 98.99455
1241.238, 99.02584
1241.720, 99.10179
1242.202, 99.23707
1242.684, 99.42044
1243.166, 99.76817
1243.648, 99.89725
1244.130, 99.68173
1244.612, 99.36851
1245.094, 99.15629
1245.577, 99.12239
1246.059, 99.56470
1246.541, 100.4412
1247.023, 100.7068
1247.505, 99.98892
1247.987, 99.58134
1248.469, 99.84403
1248.951, 100.1768
1249.434, 99.50820
1249.916, 98.69416
1250.398, 98.98280
1250.880, 100.3686
1251.362, 100.9176
1251.844, 100.2949
1252.326, 100.1159
1252.808, 100.8188
1253.291, 101.7025
1253.773, 102.2540
1254.255, 102.4241
1254.737, 101.8947
1255.219, 100.8057
1255.701, 100.5344
1256.183, 101.1832
1256.665, 101.7887
1257.147, 102.1519
1257.630, 102.3078
1258.112, 102.1958
1258.594, 101.9648
1259.076, 101.5772
1259.558, 101.1704
1260.040, 101.4871
1260.522, 102.5120
1261.004, 103.1409
1261.487, 103.1076
1261.969, 102.8145
1262.451, 102.3681
1262.933, 101.9541
1263.415, 101.6142
1263.897, 101.4209
1264.379, 101.7699
1264.861, 102.5662
1265.344, 103.1025
1265.826, 103.2102
1266.308, 103.1537
1266.790, 103.0235
1267.272, 102.8224
1267.754, 102.5098
1268.236, 102.1744
1268.718, 102.0749
1269.200, 102.1531
1269.682, 102.1509
1270.165, 101.9870
1270.647, 102.0669
1271.129, 102.8707
1271.611, 103.5663
1272.093, 103.9056
1272.575, 103.9719
1273.057, 103.8248
1273.539, 103.5701
1274.021, 103.4999
1274.504, 103.2927
1274.986, 102.9925
1275.468, 103.0004
1275.950, 102.5446
1276.432, 102.4708
1276.914, 102.6726
1277.396, 103.2256
1277.878, 103.8241
1278.361, 103.8988
1278.843, 104.1208
1279.325, 104.2704
1279.807, 103.8523
1280.289, 104.0359
1280.771, 103.3609
1281.253, 102.5140
1281.735, 102.1294
1282.218, 102.1478
1282.700, 102.6634
1283.182, 103.6199
1283.664, 104.2010
1284.146, 104.3995
1284.628, 104.1979
1285.110, 103.4804
1285.592, 102.8977
1286.074, 103.2531
1286.557, 103.7661
1287.039, 103.7626
1287.521, 103.3971
1288.003, 103.3233
1288.485, 103.5031
1288.967, 103.4507
1289.449, 103.0335
1289.931, 102.6342
1290.414, 102.4268
1290.896, 102.3865
1291.378, 102.5054
1291.860, 102.7524
1292.342, 103.1653
1292.824, 103.6356
1293.306, 103.8102
1293.788, 103.6276
1294.271, 103.1548
1294.753, 101.8109
1295.235, 101.0496
1295.717, 101.4467
1296.199, 102.3061
1296.681, 102.2861
1297.163, 101.9224
1297.645, 102.4090
1298.127, 103.8898
1298.609, 104.5014
1299.092, 103.8183
1299.574, 102.8730
1300.056, 101.7815
1300.538, 100.9172
1301.020, 100.8729
1301.502, 101.2029
1301.984, 101.4938
1302.466, 101.6744
1302.948, 101.5782
1303.431, 101.1531
1303.913, 100.8454
1304.395, 100.7419
##END=



