##NAMES=Almandine
##RRUFFID=R060450
##IDEAL CHEMISTRY=Fe^2+^_3_Al_2_(SiO_4_)_3_
##LOCALITY=Canada
##OWNER=RRUFF
##SOURCE=Gemological Institute of America
##DESCRIPTION=Reddish-brown translucent fragment
##STATUS=The identification of this mineral has been confirmed by X-ray diffraction and chemical analysis
##URL=rruff.info/R060450
##MEASURED CHEMISTRY=(Fe^2+^_1.92_Mg_1.03_Ca_0.04_Mn_0.01_)_Î£=3_Al_2.00_(Si_1.00_O_4_)_3_
91.72394, 0.0000000E+00
92.20605, 40.93407
92.68817, 41.67044
93.17029, 42.27851
93.65240, 42.05755
94.13452, 41.52546
94.61664, 40.81607
95.09875, 40.00008
95.58087, 39.17251
96.06299, 38.50562
96.54510, 38.13963
97.02721, 37.72424
97.50933, 37.27223
97.99145, 36.75150
98.47356, 36.10075
98.95568, 35.23758
99.43780, 34.10254
99.91991, 33.17631
100.4020, 32.53994
100.8841, 31.97410
101.3663, 31.38950
101.8484, 30.78291
102.3305, 30.21362
102.8126, 29.75534
103.2947, 29.44701
103.7768, 29.03911
104.2590, 28.37980
104.7411, 27.68443
105.2232, 27.21860
105.7053, 27.06782
106.1874, 27.00591
106.6695, 26.69225
107.1517, 26.14291
107.6338, 25.66452
108.1159, 25.42437
108.5980, 25.38251
109.0801, 25.32693
109.5622, 25.14091
110.0444, 24.98996
110.5265, 25.03303
111.0086, 25.28700
111.4907, 25.58458
111.9728, 25.75351
112.4549, 25.78537
112.9371, 25.70446
113.4192, 25.39902
113.9013, 25.05888
114.3834, 24.81729
114.8655, 24.72641
115.3476, 24.74883
115.8298, 24.78929
116.3119, 24.87609
116.7940, 24.94699
117.2761, 25.00590
117.7582, 25.04400
118.2403, 25.05051
118.7225, 25.01855
119.2046, 24.94946
119.6867, 24.85730
120.1688, 24.62410
120.6509, 24.48523
121.1330, 24.62959
121.6152, 24.98068
122.0973, 25.23694
122.5794, 25.10621
123.0615, 24.60541
123.5436, 24.39122
124.0257, 24.74763
124.5079, 25.22889
124.9900, 25.36311
125.4721, 25.06378
125.9542, 24.73939
126.4363, 24.84936
126.9184, 25.23688
127.4006, 25.55028
127.8827, 25.55281
128.3648, 25.36716
128.8469, 25.39677
129.3290, 25.84399
129.8111, 26.27421
130.2932, 26.42192
130.7754, 26.33102
131.2575, 26.16449
131.7396, 26.03674
132.2217, 25.94924
132.7038, 25.88898
133.1859, 25.81949
133.6681, 25.80724
134.1502, 25.90253
134.6323, 26.10160
135.1144, 26.35075
135.5965, 26.57331
136.0786, 26.71409
136.5608, 26.95146
137.0429, 27.41595
137.5250, 27.88235
138.0071, 28.16436
138.4892, 28.21095
138.9713, 28.12039
139.4535, 28.09423
139.9356, 28.23901
140.4177, 28.29985
140.8998, 28.12686
141.3819, 27.89239
141.8640, 27.85829
142.3462, 28.16208
142.8283, 28.67458
143.3104, 29.04269
143.7925, 29.32487
144.2746, 29.42566
144.7567, 29.11893
145.2388, 28.52622
145.7210, 28.18939
146.2031, 28.51081
146.6852, 29.17552
147.1673, 29.52109
147.6494, 29.36840
148.1315, 29.12156
148.6137, 29.19146
149.0958, 29.62650
149.5779, 30.03663
150.0600, 30.20792
150.5421, 30.26649
151.0242, 30.30688
151.5064, 30.33891
151.9885, 30.39732
152.4706, 30.57319
152.9527, 30.96569
153.4348, 31.29014
153.9169, 31.31864
154.3991, 31.27588
154.8812, 31.47025
155.3633, 32.11776
155.8454, 33.11578
156.3275, 33.83522
156.8096, 34.19896
157.2918, 34.30748
157.7739, 33.94493
158.2560, 33.35198
158.7381, 32.91412
159.2202, 32.92142
159.7023, 33.38360
160.1845, 33.94460
160.6666, 34.82737
161.1487, 35.58599
161.6308, 35.99359
162.1129, 36.10376
162.5950, 36.12879
163.0772, 36.23727
163.5593, 36.43785
164.0414, 36.75048
164.5235, 37.17990
165.0056, 37.70280
165.4877, 38.34699
165.9698, 39.10600
166.4520, 39.85540
166.9341, 40.42787
167.4162, 40.82544
167.8983, 41.38903
168.3804, 42.24558
168.8625, 43.25454
169.3447, 44.23565
169.8268, 45.15135
170.3089, 46.08983
170.7910, 47.29161
171.2731, 48.65233
171.7552, 49.69487
172.2374, 50.37116
172.7195, 50.59551
173.2016, 50.06024
173.6837, 48.47264
174.1658, 46.44674
174.6479, 44.32360
175.1301, 42.15224
175.6122, 40.10305
176.0943, 38.27525
176.5764, 36.66517
177.0585, 35.29818
177.5406, 34.32009
178.0228, 33.48004
178.5049, 32.67396
178.9870, 31.89609
179.4691, 31.18340
179.9512, 30.60061
180.4333, 30.19598
180.9155, 29.69201
181.3976, 28.95036
181.8797, 28.22219
182.3618, 27.60520
182.8439, 27.11614
183.3260, 26.73981
183.8082, 26.47544
184.2903, 26.40413
184.7724, 26.23020
185.2545, 25.80353
185.7366, 25.40262
186.2187, 25.25290
186.7009, 25.37419
187.1830, 25.57557
187.6651, 25.57627
188.1472, 25.21295
188.6293, 24.98400
189.1114, 24.99249
189.5936, 25.07327
190.0757, 25.05214
190.5578, 24.88647
191.0399, 24.71650
191.5220, 24.78294
192.0041, 25.18484
192.4863, 25.55046
192.9684, 25.80308
193.4505, 26.01008
193.9326, 26.27053
194.4147, 26.62277
194.8968, 26.99551
195.3790, 27.23373
195.8611, 27.31077
196.3432, 27.48584
196.8253, 27.92537
197.3074, 28.51633
197.7895, 29.00435
198.2717, 29.29242
198.7538, 29.50705
199.2359, 29.81650
199.7180, 30.22306
200.2001, 30.62684
200.6822, 30.93026
201.1644, 31.17060
201.6465, 31.53111
202.1286, 32.09791
202.6107, 32.76060
203.0928, 33.42028
203.5749, 34.07682
204.0571, 34.70571
204.5392, 35.27000
205.0213, 35.77216
205.5034, 36.30408
205.9855, 36.89800
206.4676, 37.51274
206.9497, 38.17493
207.4319, 38.86584
207.9140, 39.45830
208.3961, 39.80679
208.8782, 39.88475
209.3603, 39.88439
209.8424, 39.79740
210.3246, 39.65072
210.8067, 39.47115
211.2888, 39.25230
211.7709, 38.94841
212.2530, 38.50459
212.7351, 37.91430
213.2173, 37.20159
213.6994, 36.25489
214.1815, 35.28627
214.6636, 34.38825
215.1457, 33.58566
215.6278, 32.85452
216.1100, 32.15934
216.5921, 31.46054
217.0742, 30.91386
217.5563, 30.59516
218.0384, 30.33704
218.5205, 30.08323
219.0027, 29.80121
219.4848, 29.42373
219.9669, 28.84076
220.4490, 27.88351
220.9311, 27.15446
221.4132, 26.65919
221.8954, 26.35369
222.3775, 26.29678
222.8596, 26.46426
223.3417, 26.64546
223.8238, 26.55410
224.3059, 26.02009
224.7881, 25.67717
225.2702, 25.69663
225.7523, 25.80107
226.2344, 25.71459
226.7165, 25.39316
227.1986, 25.06001
227.6807, 25.02289
228.1629, 25.37830
228.6450, 25.52863
229.1271, 25.20128
229.6092, 24.77098
230.0913, 24.64470
230.5734, 24.89972
231.0556, 25.29627
231.5377, 25.58689
232.0198, 25.77285
232.5019, 25.95441
232.9840, 26.18189
233.4661, 26.39722
233.9483, 26.51492
234.4304, 26.51349
234.9125, 26.47855
235.3946, 26.48086
235.8767, 26.51574
236.3588, 26.57734
236.8410, 26.60343
237.3231, 26.67582
237.8052, 27.00621
238.2873, 27.71851
238.7694, 28.30790
239.2515, 28.22892
239.7337, 27.71282
240.2158, 27.22620
240.6979, 26.87973
241.1800, 26.67307
241.6621, 26.64361
242.1442, 26.85431
242.6264, 27.07269
243.1085, 27.14631
243.5906, 27.12937
244.0727, 27.09508
244.5548, 27.02297
245.0369, 26.97355
245.5191, 27.11161
246.0012, 27.53445
246.4833, 27.91275
246.9654, 28.12633
247.4475, 28.19643
247.9296, 28.10960
248.4117, 27.78281
248.8939, 27.37247
249.3760, 27.27053
249.8581, 27.66559
250.3402, 27.97029
250.8223, 27.96795
251.3044, 27.78008
251.7866, 27.49404
252.2687, 27.10978
252.7508, 26.73664
253.2329, 26.65701
253.7150, 27.06286
254.1971, 27.37416
254.6793, 27.40520
255.1614, 27.30926
255.6435, 27.20970
256.1256, 27.15119
256.6077, 27.15269
257.0898, 27.28527
257.5720, 27.70144
258.0541, 27.93794
258.5362, 27.86007
259.0183, 27.64453
259.5004, 27.40401
259.9825, 27.18299
260.4647, 27.01726
260.9468, 26.96921
261.4289, 27.03124
261.9110, 27.24801
262.3931, 27.79899
262.8752, 28.36831
263.3574, 28.70434
263.8395, 28.74543
264.3216, 28.61077
264.8037, 28.47884
265.2858, 28.33512
265.7679, 28.22683
266.2501, 28.08813
266.7322, 28.02226
267.2143, 28.16109
267.6964, 28.49625
268.1785, 28.85462
268.6606, 28.98891
269.1428, 28.76160
269.6249, 28.66599
270.1070, 28.77029
270.5891, 28.92473
271.0712, 29.07321
271.5533, 29.19130
272.0355, 29.24637
272.5176, 29.18721
272.9997, 28.96118
273.4818, 28.85398
273.9639, 28.81310
274.4460, 28.90655
274.9282, 29.30422
275.4103, 29.91504
275.8924, 30.40394
276.3745, 30.42800
276.8566, 29.90220
277.3387, 29.73906
277.8208, 30.27930
278.3029, 30.76648
278.7851, 30.82440
279.2672, 30.53408
279.7493, 30.19848
280.2314, 30.03466
280.7135, 30.03805
281.1956, 30.07767
281.6778, 30.08915
282.1599, 30.19396
282.6420, 30.55863
283.1241, 31.05158
283.6062, 31.36300
284.0883, 31.28164
284.5705, 30.90294
285.0526, 30.79366
285.5347, 31.19122
286.0168, 31.53674
286.4989, 31.63007
286.9810, 31.59382
287.4632, 31.66844
287.9453, 31.98292
288.4274, 32.41102
288.9095, 32.58421
289.3916, 32.29993
289.8737, 32.08141
290.3559, 31.96267
290.8380, 31.96873
291.3201, 32.17521
291.8022, 32.61665
292.2843, 33.16139
292.7664, 33.57512
293.2486, 33.78813
293.7307, 34.03305
294.2128, 34.44731
294.6949, 34.85101
295.1770, 35.00858
295.6591, 34.86770
296.1413, 34.62625
296.6234, 34.51085
297.1055, 34.52719
297.5876, 34.71400
298.0697, 35.22221
298.5518, 35.80854
299.0340, 36.31204
299.5161, 36.69936
299.9982, 36.92191
300.4803, 36.86881
300.9624, 36.50637
301.4445, 36.44703
301.9267, 36.92060
302.4088, 37.50237
302.8909, 37.93140
303.3730, 38.20665
303.8551, 38.45195
304.3372, 38.74810
304.8194, 39.09259
305.3015, 39.44769
305.7836, 39.83866
306.2657, 40.21590
306.7478, 40.44073
307.2299, 40.61209
307.7121, 41.05733
308.1942, 42.00134
308.6763, 43.27793
309.1584, 44.28201
309.6405, 44.74977
310.1227, 45.39539
310.6048, 46.52836
311.0869, 47.98549
311.5690, 49.50591
312.0511, 51.02334
312.5332, 52.43890
313.0154, 53.48307
313.4975, 54.04227
313.9796, 54.66474
314.4617, 55.59875
314.9438, 56.60102
315.4259, 57.36066
315.9081, 57.79752
316.3902, 58.03788
316.8723, 58.20304
317.3544, 58.27533
317.8365, 58.39276
318.3186, 58.52349
318.8007, 58.73075
319.2828, 59.08959
319.7650, 59.60391
320.2471, 60.16743
320.7292, 60.61290
321.2113, 60.96923
321.6934, 61.87660
322.1755, 63.68996
322.6577, 65.72936
323.1398, 67.56374
323.6219, 69.23388
324.1040, 71.03786
324.5861, 73.13744
325.0682, 75.52861
325.5504, 78.06127
326.0325, 80.84848
326.5146, 83.63457
326.9967, 86.22065
327.4788, 88.74789
327.9609, 91.57899
328.4431, 94.91126
328.9252, 98.51955
329.4073, 101.8882
329.8894, 104.9219
330.3715, 107.9652
330.8536, 111.2584
331.3358, 114.5179
331.8179, 117.3651
332.3000, 119.6989
332.7821, 121.7010
333.2642, 123.5650
333.7463, 125.1938
334.2285, 127.0711
334.7106, 129.4395
335.1927, 131.8954
335.6748, 134.1418
336.1569, 136.1358
336.6390, 137.9812
337.1212, 139.6685
337.6033, 141.1990
338.0854, 143.3378
338.5675, 146.1578
339.0496, 149.4496
339.5317, 153.1594
340.0139, 157.2712
340.4960, 161.6830
340.9781, 166.2940
341.4602, 171.1971
341.9423, 176.8966
342.4244, 183.4023
342.9066, 190.5291
343.3887, 198.4535
343.8708, 206.9326
344.3529, 215.6917
344.8350, 224.6017
345.3171, 233.4987
345.7993, 242.0764
346.2814, 250.7632
346.7635, 258.2218
347.2456, 264.6189
347.7277, 269.6211
348.2098, 273.1429
348.6920, 275.0641
349.1741, 274.9780
349.6562, 272.3471
350.1383, 266.8482
350.6204, 259.8844
351.1025, 251.4872
351.5847, 241.8836
352.0668, 230.5942
352.5489, 218.1798
353.0310, 205.8010
353.5131, 194.2617
353.9952, 183.6068
354.4774, 174.1504
354.9595, 167.0601
355.4416, 159.8279
355.9237, 151.4028
356.4058, 142.7359
356.8879, 135.0606
357.3701, 128.9501
357.8522, 124.1003
358.3343, 119.7617
358.8164, 116.0323
359.2985, 112.7488
359.7806, 109.9502
360.2627, 107.5172
360.7448, 105.2956
361.2270, 103.2891
361.7091, 101.7439
362.1912, 101.0030
362.6733, 101.2644
363.1554, 101.4701
363.6375, 101.4813
364.1197, 101.5717
364.6018, 101.7530
365.0839, 102.1035
365.5660, 102.7927
366.0481, 103.9917
366.5302, 105.6171
367.0124, 107.0103
367.4945, 107.8643
367.9766, 108.8806
368.4587, 110.4304
368.9408, 112.1158
369.4229, 113.5088
369.9051, 114.4295
370.3872, 114.9408
370.8693, 115.1454
371.3514, 115.0251
371.8335, 114.6209
372.3156, 114.2769
372.7978, 113.4307
373.2799, 111.6646
373.7620, 108.9628
374.2441, 105.6100
374.7262, 101.7824
375.2083, 97.46980
375.6905, 93.08412
376.1726, 88.48914
376.6547, 83.96947
377.1368, 79.56065
377.6189, 75.30695
378.1010, 71.34435
378.5832, 67.75537
379.0653, 64.46980
379.5474, 61.26029
380.0295, 58.05811
380.5116, 55.12416
380.9937, 52.69167
381.4759, 50.50047
381.9580, 48.32188
382.4401, 46.09726
382.9222, 43.89581
383.4043, 41.75335
383.8864, 39.66686
384.3686, 37.81257
384.8507, 36.24305
385.3328, 34.93176
385.8149, 33.86118
386.2970, 33.01688
386.7791, 32.22147
387.2613, 31.39741
387.7434, 30.55939
388.2255, 29.72720
388.7076, 28.89504
389.1897, 28.10198
389.6718, 27.35235
390.1540, 26.66217
390.6361, 26.08812
391.1182, 25.76959
391.6003, 25.43747
392.0824, 24.75621
392.5645, 23.77486
393.0467, 22.96006
393.5288, 22.53986
394.0109, 22.36384
394.4930, 22.13919
394.9751, 21.84169
395.4572, 21.59048
395.9394, 21.49930
396.4215, 21.46729
396.9036, 21.31266
397.3857, 20.98889
397.8678, 20.61474
398.3499, 20.30582
398.8321, 20.06748
399.3142, 19.83719
399.7963, 19.55813
400.2784, 19.32795
400.7605, 19.26074
401.2426, 19.31878
401.7247, 19.33386
402.2068, 19.19587
402.6890, 18.94707
403.1711, 18.78012
403.6532, 18.79239
404.1353, 18.75168
404.6174, 18.59737
405.0995, 18.37592
405.5817, 18.11773
406.0638, 17.83833
406.5459, 17.59669
407.0280, 17.49063
407.5101, 17.60269
407.9922, 17.58721
408.4744, 17.29376
408.9565, 17.02364
409.4386, 16.97053
409.9207, 17.09311
410.4028, 17.22624
410.8849, 17.25288
411.3671, 17.18693
411.8492, 17.13876
412.3313, 17.17037
412.8134, 17.13940
413.2955, 16.96688
413.7776, 16.75147
414.2598, 16.61459
414.7419, 16.59152
415.2240, 16.59278
415.7061, 16.46643
416.1882, 16.15547
416.6703, 15.91416
417.1525, 15.74585
417.6346, 15.66032
418.1167, 15.72721
418.5988, 15.89539
419.0809, 16.01789
419.5630, 15.98203
420.0452, 15.82093
420.5273, 15.65409
421.0094, 15.42617
421.4915, 15.31638
421.9736, 15.54430
422.4557, 15.85343
422.9379, 15.94050
423.4200, 15.70152
423.9021, 15.36652
424.3842, 15.16844
424.8663, 15.10339
425.3484, 15.05840
425.8306, 14.98990
426.3127, 14.96548
426.7948, 15.08648
427.2769, 15.32401
427.7590, 15.48625
428.2411, 15.46351
428.7233, 15.32912
429.2054, 15.17151
429.6875, 14.98990
430.1696, 14.84375
430.6517, 14.75958
431.1339, 14.74700
431.6160, 14.81374
432.0981, 15.03487
432.5802, 15.21649
433.0623, 15.22713
433.5444, 15.13207
434.0266, 15.07747
434.5087, 15.11290
434.9908, 15.15816
435.4729, 15.09919
435.9550, 14.90675
436.4371, 14.73273
436.9193, 14.51919
437.4014, 14.37615
437.8835, 14.42861
438.3656, 14.63581
438.8477, 14.83833
439.3298, 14.93360
439.8120, 14.93640
440.2941, 14.92297
440.7762, 14.82168
441.2583, 14.79431
441.7404, 14.94437
442.2225, 15.13132
442.7046, 15.19503
443.1867, 15.10382
443.6689, 14.96639
444.1510, 14.92184
444.6331, 14.98863
445.1152, 15.05554
445.5973, 15.21678
446.0794, 15.28282
446.5616, 15.08776
447.0437, 14.75887
447.5258, 14.53525
448.0079, 14.56152
448.4900, 14.74870
448.9721, 14.88301
449.4543, 14.95203
449.9364, 15.00332
450.4185, 15.01780
450.9006, 15.03931
451.3827, 15.12676
451.8648, 15.27691
452.3470, 15.38240
452.8291, 15.32514
453.3112, 15.14469
453.7933, 14.99642
454.2754, 14.85547
454.7575, 14.82963
455.2397, 15.11307
455.7218, 15.54402
456.2039, 15.85166
456.6860, 15.96635
457.1681, 15.95519
457.6502, 15.69559
458.1324, 15.30196
458.6145, 15.39882
459.0966, 16.38130
459.5787, 17.55629
460.0608, 17.77841
460.5429, 16.98793
461.0251, 16.34101
461.5072, 16.02317
461.9893, 15.94783
462.4714, 16.08537
462.9535, 16.40932
463.4356, 16.86611
463.9178, 17.48307
464.3999, 18.16518
464.8820, 18.39091
465.3641, 17.68604
465.8462, 17.16362
466.3283, 17.05069
466.8105, 17.15425
467.2926, 17.30782
467.7747, 17.45400
468.2568, 17.55400
468.7389, 17.53146
469.2210, 17.33125
469.7032, 17.37817
470.1853, 18.00686
470.6674, 18.53704
471.1495, 18.67791
471.6316, 18.60248
472.1137, 18.61366
472.5959, 18.86184
473.0780, 19.21000
473.5601, 19.35392
474.0422, 19.19824
474.5243, 19.24647
475.0064, 19.70274
475.4886, 20.30651
475.9707, 20.92892
476.4528, 21.55751
476.9349, 22.21198
477.4170, 22.94430
477.8991, 23.69844
478.3813, 24.37226
478.8634, 24.97059
479.3455, 25.44033
479.8276, 25.72881
480.3097, 25.87241
480.7918, 25.96087
481.2740, 26.02341
481.7561, 25.95790
482.2382, 25.65737
482.7203, 25.20590
483.2024, 24.75240
483.6845, 24.32616
484.1666, 23.89553
484.6487, 23.41687
485.1309, 22.89011
485.6130, 22.43055
486.0951, 21.94742
486.5772, 21.62220
487.0593, 21.62058
487.5414, 21.81356
488.0236, 21.94960
488.5057, 21.92897
488.9878, 21.88200
489.4699, 22.04762
489.9520, 22.54007
490.4341, 22.97274
490.9163, 23.29418
491.3984, 23.61308
491.8805, 23.89944
492.3626, 24.22774
492.8447, 24.77041
493.3268, 25.66597
493.8090, 26.77888
494.2911, 27.67193
494.7732, 28.18442
495.2553, 28.90916
495.7374, 30.05796
496.2195, 31.41435
496.7017, 32.87258
497.1838, 34.40955
497.6659, 36.00568
498.1480, 37.65700
498.6301, 39.34502
499.1122, 41.07253
499.5944, 42.90293
500.0765, 44.48893
500.5586, 45.70951
501.0407, 46.51060
501.5228, 46.84730
502.0049, 46.72224
502.4871, 46.12565
502.9692, 44.89238
503.4513, 43.22291
503.9334, 41.39669
504.4155, 39.47503
504.8976, 37.58337
505.3798, 35.87286
505.8619, 34.34669
506.3440, 32.69361
506.8261, 30.59670
507.3082, 28.73754
507.7903, 27.42672
508.2725, 26.49602
508.7546, 25.71605
509.2367, 24.99438
509.7188, 24.32149
510.2009, 23.68115
510.6830, 23.05449
511.1652, 22.52288
511.6473, 22.05684
512.1294, 21.71733
512.6115, 21.66893
513.0936, 21.74940
513.5757, 21.60762
514.0579, 21.00417
514.5400, 20.26816
515.0221, 20.04424
515.5042, 20.39950
515.9863, 20.76527
516.4684, 21.13873
516.9506, 21.34632
517.4327, 21.13804
517.9148, 20.58381
518.3969, 20.19667
518.8790, 20.28313
519.3611, 20.60103
519.8433, 20.88678
520.3254, 21.13018
520.8075, 21.29389
521.2896, 21.35069
521.7717, 21.32767
522.2538, 21.27207
522.7360, 21.15670
523.2181, 21.08914
523.7002, 21.16590
524.1823, 21.24374
524.6644, 21.13626
525.1465, 20.87990
525.6287, 20.71373
526.1108, 20.82793
526.5929, 21.15632
527.0750, 21.35001
527.5571, 21.28275
528.0392, 21.25375
528.5214, 21.29662
529.0035, 21.38137
529.4856, 21.49810
529.9677, 21.63628
530.4498, 21.76132
530.9319, 21.78778
531.4141, 21.76495
531.8962, 22.07306
532.3783, 22.95204
532.8604, 23.60111
533.3425, 23.38654
533.8246, 22.90174
534.3068, 22.71564
534.7889, 22.91420
535.2710, 23.39965
535.7531, 24.32771
536.2352, 25.45486
536.7173, 26.19710
537.1995, 26.45244
537.6816, 26.71075
538.1637, 27.36832
538.6458, 28.34517
539.1279, 29.12036
539.6100, 29.34451
540.0922, 29.81519
540.5743, 31.00107
541.0564, 32.44611
541.5385, 33.58242
542.0206, 34.29830
542.5027, 34.84213
542.9849, 35.43533
543.4670, 36.07404
543.9491, 36.93475
544.4312, 38.14513
544.9133, 39.43456
545.3954, 40.75668
545.8775, 42.12431
546.3596, 43.53395
546.8417, 44.98904
547.3239, 46.53512
547.8060, 48.13153
548.2881, 49.80936
548.7702, 51.90899
549.2523, 54.59448
549.7344, 57.37251
550.2166, 59.82426
550.6987, 62.19934
551.1808, 64.95061
551.6629, 68.25002
552.1450, 71.67976
552.6271, 74.92817
553.1093, 78.14137
553.5914, 81.76389
554.0735, 85.89780
554.5556, 89.95299
555.0377, 93.49802
555.5198, 96.52786
556.0020, 98.51659
556.4841, 99.29936
556.9662, 99.41766
557.4483, 99.08572
557.9304, 98.13694
558.4125, 96.36523
558.8947, 93.71782
559.3768, 90.29094
559.8589, 86.02477
560.3410, 80.91896
560.8231, 76.08009
561.3052, 71.59309
561.7874, 67.32700
562.2695, 63.23261
562.7516, 59.30118
563.2337, 55.43156
563.7158, 51.59674
564.1979, 48.07848
564.6801, 45.23565
565.1622, 42.91073
565.6443, 40.54388
566.1264, 38.01789
566.6085, 35.71729
567.0906, 33.94432
567.5728, 32.61942
568.0549, 31.33375
568.5370, 30.03411
569.0191, 28.85652
569.5012, 27.89744
569.9833, 27.06200
570.4655, 26.22559
570.9476, 25.37493
571.4297, 24.55417
571.9118, 23.80721
572.3939, 23.13325
572.8760, 22.55906
573.3582, 22.08494
573.8403, 21.71899
574.3224, 21.53490
574.8045, 21.40470
575.2866, 21.23141
575.7687, 20.99401
576.2509, 20.70585
576.7330, 20.33059
577.2151, 19.91353
577.6972, 19.62213
578.1793, 19.45535
578.6614, 19.42353
579.1436, 19.58676
579.6257, 19.85997
580.1078, 20.13494
580.5899, 20.42575
581.0720, 20.62387
581.5541, 20.61328
582.0363, 20.53552
582.5184, 20.50049
583.0005, 20.53811
583.4826, 20.75978
583.9647, 21.27126
584.4468, 21.92095
584.9290, 22.26344
585.4111, 22.06790
585.8932, 21.91312
586.3753, 21.93148
586.8574, 21.87297
587.3395, 21.46560
587.8217, 20.83794
588.3038, 20.38606
588.7859, 20.38841
589.2680, 20.58960
589.7501, 20.39100
590.2322, 19.71802
590.7144, 19.17320
591.1965, 18.90283
591.6786, 18.77464
592.1607, 18.73132
592.6428, 18.74205
593.1249, 18.66050
593.6071, 18.35878
594.0892, 18.02120
594.5713, 17.79885
595.0534, 17.66629
595.5355, 17.53922
596.0176, 17.38757
596.4998, 17.27371
596.9819, 17.28386
597.4640, 17.44071
597.9461, 17.58584
598.4282, 17.72374
598.9103, 17.84682
599.3925, 17.95618
599.8746, 18.04826
600.3567, 18.12452
600.8388, 18.18372
601.3209, 18.20931
601.8030, 18.16427
602.2852, 18.05260
602.7673, 17.98324
603.2494, 17.97196
603.7315, 17.97164
604.2136, 17.98108
604.6957, 17.97789
605.1779, 17.92652
605.6600, 17.81547
606.1421, 17.68821
606.6242, 17.54501
607.1063, 17.40828
607.5884, 17.37191
608.0706, 17.41566
608.5527, 17.29700
609.0348, 16.82756
609.5169, 16.12590
609.9990, 15.59921
610.4811, 15.40693
610.9633, 15.16580
611.4454, 14.80004
611.9275, 14.44895
612.4096, 14.17303
612.8917, 13.99161
613.3738, 13.94901
613.8560, 14.11026
614.3381, 14.31952
614.8202, 14.21588
615.3023, 13.76229
615.7844, 13.48391
616.2665, 13.58033
616.7487, 13.74424
617.2308, 13.61887
617.7129, 13.30659
618.1950, 13.22849
618.6771, 13.74015
619.1592, 14.23168
619.6414, 14.25772
620.1235, 14.02135
620.6056, 13.89298
621.0877, 13.97015
621.5698, 14.16018
622.0519, 14.36568
622.5341, 14.58704
623.0162, 14.90062
623.4983, 15.48996
623.9804, 15.93519
624.4625, 16.01689
624.9446, 16.02108
625.4268, 16.24767
625.9089, 16.71556
626.3910, 17.17364
626.8730, 17.35567
627.3552, 17.40017
627.8373, 17.69108
628.3194, 18.24803
628.8015, 18.78793
629.2836, 19.15982
629.7657, 19.50646
630.2479, 20.07356
630.7300, 20.86445
631.2121, 21.70316
631.6942, 22.68174
632.1763, 23.59338
632.6584, 24.31702
633.1406, 24.87207
633.6227, 25.32472
634.1048, 25.69893
634.5869, 25.96462
635.0690, 26.07611
635.5511, 26.02997
636.0333, 25.85406
636.5154, 25.53677
636.9975, 25.09738
637.4796, 24.45639
637.9617, 23.75089
638.4438, 23.20388
638.9260, 22.88898
639.4081, 22.45094
639.8902, 21.47473
640.3723, 20.27501
640.8544, 19.44574
641.3365, 19.02434
641.8187, 18.65552
642.3008, 18.14411
642.7829, 17.54905
643.2650, 17.01188
643.7471, 16.56140
644.2292, 16.12233
644.7114, 15.64072
645.1935, 15.22232
645.6756, 14.99332
646.1577, 14.86364
646.6398, 14.62747
647.1219, 14.18517
647.6041, 13.68460
648.0862, 13.33462
648.5683, 13.13379
649.0504, 13.01381
649.5325, 13.01003
650.0146, 12.99396
650.4968, 12.87172
650.9789, 12.67883
651.4610, 12.48680
651.9431, 12.27214
652.4252, 12.12268
652.9073, 12.12219
653.3895, 12.17529
653.8716, 12.17930
654.3537, 12.12786
654.8358, 12.05646
655.3179, 11.98454
655.8000, 11.92146
656.2822, 11.90782
656.7643, 12.00801
657.2464, 11.99346
657.7285, 11.75062
658.2106, 11.47746
658.6927, 11.20780
659.1749, 10.98110
659.6570, 10.87807
660.1391, 10.94777
660.6212, 11.08678
661.1033, 11.27619
661.5854, 11.45498
662.0676, 11.41422
662.5497, 11.11535
663.0318, 10.83315
663.5139, 10.78335
663.9960, 10.91118
664.4781, 10.94711
664.9603, 10.76407
665.4424, 10.66478
665.9245, 10.75234
666.4066, 10.84856
666.8887, 10.81848
667.3708, 10.68615
667.8530, 10.54279
668.3351, 10.42583
668.8172, 10.36213
669.2993, 10.45835
669.7814, 10.70119
670.2635, 10.70980
670.7457, 10.31404
671.2278, 9.969304
671.7099, 10.14364
672.1920, 10.67010
672.6741, 10.82900
673.1563, 10.35788
673.6384, 9.913754
674.1205, 9.655762
674.6026, 9.538381
675.0847, 9.579136
675.5668, 9.728574
676.0490, 9.829516
676.5311, 9.772512
677.0132, 9.630765
677.4953, 9.605115
677.9774, 9.733675
678.4595, 9.787980
678.9417, 9.642565
679.4238, 9.542750
679.9059, 9.743327
680.3880, 10.08980
680.8701, 10.21427
681.3522, 9.932286
681.8344, 9.644376
682.3165, 9.630693
682.7986, 9.731489
683.2807, 9.671000
683.7628, 9.447012
684.2449, 9.305376
684.7271, 9.423380
685.2092, 9.717916
685.6913, 9.936559
686.1734, 10.09974
686.6555, 10.13858
687.1376, 9.888550
687.6198, 9.668797
688.1019, 9.669270
688.5840, 9.802580
689.0661, 9.885666
689.5482, 9.857068
690.0303, 9.769952
690.5125, 9.627866
690.9946, 9.470279
691.4767, 9.389340
691.9588, 9.394483
692.4409, 9.438257
692.9230, 9.500220
693.4052, 9.563819
693.8873, 9.579635
694.3694, 9.517462
694.8515, 9.461164
695.3336, 9.372817
695.8157, 9.327993
696.2979, 9.412525
696.7800, 9.556635
697.2621, 9.624505
697.7442, 9.561129
698.2263, 9.465921
698.7084, 9.435399
699.1906, 9.456111
699.6727, 9.502250
700.1548, 9.575911
700.6369, 9.583291
701.1190, 9.434670
701.6011, 9.229029
702.0833, 9.213516
702.5654, 9.520906
703.0475, 9.706839
703.5296, 9.660076
704.0117, 9.597937
704.4938, 9.635346
704.9760, 9.735041
705.4581, 9.836768
705.9402, 9.917296
706.4223, 9.952444
706.9044, 9.873534
707.3865, 9.719357
707.8687, 9.691090
708.3508, 9.817188
708.8329, 9.889301
709.3149, 9.777437
709.7971, 9.600483
710.2792, 9.570996
710.7613, 9.717706
711.2434, 9.843946
711.7255, 9.985366
712.2076, 10.05242
712.6898, 9.901292
713.1719, 9.687634
713.6540, 9.658819
714.1361, 9.867295
714.6182, 10.13190
715.1003, 10.30428
715.5825, 10.37958
716.0646, 10.29351
716.5467, 10.00907
717.0288, 9.832646
717.5109, 9.891999
717.9930, 10.07259
718.4752, 10.28699
718.9573, 10.53317
719.4394, 10.63994
719.9215, 10.48065
720.4036, 10.30838
720.8857, 10.18119
721.3679, 10.12431
721.8500, 10.21665
722.3321, 10.43229
722.8142, 10.58844
723.2963, 10.51500
723.7784, 10.30801
724.2606, 10.24750
724.7427, 10.34500
725.2248, 10.48938
725.7069, 10.72349
726.1890, 10.88087
726.6711, 10.72534
727.1533, 10.34411
727.6354, 10.17057
728.1175, 10.42346
728.5996, 10.61866
729.0817, 10.55355
729.5638, 10.40750
730.0460, 10.34826
730.5281, 10.37912
731.0102, 10.41145
731.4923, 10.38646
731.9744, 10.37517
732.4565, 10.57653
732.9387, 10.99814
733.4208, 11.13932
733.9029, 10.83763
734.3850, 10.54227
734.8671, 10.55465
735.3492, 10.76184
735.8314, 10.87776
736.3135, 10.88731
736.7956, 10.84901
737.2777, 10.69992
737.7598, 10.57431
738.2419, 10.60445
738.7241, 10.72610
739.2062, 10.80034
739.6883, 10.77449
740.1704, 10.69119
740.6525, 10.56508
741.1346, 10.41361
741.6168, 10.38880
742.0989, 10.50525
742.5810, 10.69327
743.0631, 10.99359
743.5452, 11.27781
744.0273, 11.31940
744.5095, 11.09996
744.9916, 10.96742
745.4737, 11.07325
745.9558, 11.13020
746.4379, 10.93033
746.9200, 10.65721
747.4022, 10.54990
747.8843, 10.63862
748.3664, 10.78971
748.8485, 10.92864
749.3306, 11.02119
749.8127, 10.93041
750.2949, 10.65508
750.7770, 10.54041
751.2591, 10.71312
751.7412, 10.91275
752.2233, 10.87481
752.7054, 10.65356
753.1876, 10.65086
753.6697, 11.14182
754.1518, 11.44477
754.6339, 11.37467
755.1160, 11.17079
755.5981, 10.92298
756.0803, 10.70290
756.5624, 10.64173
757.0445, 10.81416
757.5266, 11.03519
758.0087, 11.05393
758.4908, 10.92768
758.9730, 10.87038
759.4551, 10.89882
759.9372, 11.02511
760.4193, 11.31562
760.9014, 11.60225
761.3835, 11.52246
761.8657, 10.85991
762.3478, 10.56240
762.8299, 10.95354
763.3120, 11.30330
763.7941, 11.31856
764.2762, 11.18267
764.7584, 11.14019
765.2405, 11.21980
765.7226, 11.23279
766.2047, 10.89211
766.6868, 10.52054
767.1689, 10.71262
767.6511, 11.32034
768.1332, 11.68642
768.6153, 11.63366
769.0974, 11.41265
769.5795, 11.23895
770.0616, 11.11541
770.5438, 11.07765
771.0259, 11.16410
771.5080, 11.26911
771.9901, 11.49681
772.4722, 11.63188
772.9543, 11.46805
773.4365, 11.12293
773.9186, 10.87510
774.4007, 10.81364
774.8828, 10.83315
775.3649, 10.93601
775.8470, 11.03825
776.3292, 10.95836
776.8113, 10.74624
777.2934, 10.68915
777.7755, 10.93153
778.2576, 11.26604
778.7397, 11.34116
779.2219, 11.13164
779.7040, 10.97144
780.1861, 10.81216
780.6682, 10.80630
781.1503, 11.16375
781.6324, 11.59165
782.1146, 11.78157
782.5967, 11.73524
783.0788, 11.61591
783.5609, 11.35175
784.0430, 11.14891
784.5251, 11.15367
785.0073, 11.26567
785.4894, 11.37249
785.9715, 11.44419
786.4536, 11.46684
786.9357, 11.41756
787.4178, 11.35054
787.9000, 11.40482
788.3821, 11.57901
788.8642, 11.70736
789.3463, 11.77620
789.8284, 11.75985
790.3105, 11.58632
790.7927, 11.34212
791.2747, 11.28064
791.7568, 11.48370
792.2390, 11.65457
792.7211, 11.80959
793.2032, 11.89499
793.6853, 11.88832
794.1674, 11.79379
794.6495, 11.55680
795.1317, 11.18983
795.6138, 10.93143
796.0959, 11.02516
796.5780, 11.31645
797.0601, 11.57478
797.5422, 11.79890
798.0244, 11.97912
798.5065, 12.11404
798.9886, 12.19133
799.4707, 12.18999
799.9528, 12.12327
800.4349, 12.08283
800.9171, 12.03924
801.3992, 12.08037
801.8813, 12.35132
802.3634, 12.57731
802.8455, 12.53784
803.3276, 12.36566
803.8098, 12.36218
804.2919, 12.64851
804.7740, 12.87851
805.2561, 12.77342
805.7382, 12.60616
806.2203, 12.69172
806.7025, 12.95418
807.1846, 13.15044
807.6667, 13.19072
808.1488, 13.17473
808.6309, 13.20431
809.1130, 13.28143
809.5952, 13.44256
810.0773, 13.71398
810.5594, 13.91176
811.0415, 13.96628
811.5236, 13.96254
812.0057, 13.96516
812.4879, 13.97742
812.9700, 14.02656
813.4521, 14.14114
813.9342, 14.25123
814.4163, 14.40150
814.8984, 14.49414
815.3806, 14.36661
815.8627, 14.13841
816.3448, 14.12166
816.8269, 14.45353
817.3090, 14.74308
817.7911, 14.50227
818.2733, 14.00977
818.7554, 13.84940
819.2375, 13.99881
819.7196, 14.10379
820.2017, 14.02416
820.6838, 13.92263
821.1660, 14.02293
821.6481, 14.31527
822.1302, 14.42305
822.6123, 14.25440
823.0944, 14.09598
823.5765, 13.95325
824.0587, 13.89021
824.5408, 13.98931
825.0229, 14.20475
825.5050, 14.39515
825.9871, 14.54295
826.4692, 14.64801
826.9514, 14.76641
827.4335, 14.79744
827.9156, 14.52882
828.3977, 14.11143
828.8798, 13.90412
829.3619, 14.04244
829.8441, 14.35819
830.3262, 14.72077
830.8083, 15.10085
831.2904, 15.43302
831.7725, 15.71405
832.2546, 15.70616
832.7368, 15.25736
833.2189, 14.80425
833.7010, 14.82167
834.1831, 15.26235
834.6652, 15.59266
835.1473, 15.74508
835.6295, 15.88954
836.1116, 16.09205
836.5937, 16.23636
837.0758, 16.21526
837.5579, 16.09933
838.0400, 16.02196
838.5222, 16.00746
839.0043, 16.06717
839.4864, 16.24138
839.9685, 16.46495
840.4506, 16.69088
840.9327, 16.91005
841.4149, 17.10330
841.8970, 17.26923
842.3791, 17.44985
842.8612, 17.69300
843.3433, 17.97361
843.8254, 18.18556
844.3076, 18.32265
844.7897, 18.55077
845.2718, 18.91293
845.7539, 19.33123
846.2360, 19.75072
846.7181, 20.17727
847.2003, 20.62730
847.6824, 21.07485
848.1645, 21.59676
848.6466, 22.33027
849.1287, 22.98227
849.6108, 23.27319
850.0930, 23.49723
850.5751, 24.12269
851.0572, 25.19051
851.5393, 26.11661
852.0214, 26.44484
852.5035, 26.66406
852.9857, 27.17405
853.4678, 27.89200
853.9499, 28.71777
854.4320, 29.59691
854.9141, 30.41778
855.3962, 31.08682
855.8784, 31.69920
856.3605, 32.40526
856.8426, 33.20831
857.3247, 34.23373
857.8068, 35.53387
858.2889, 36.80489
858.7711, 37.86116
859.2532, 38.86152
859.7353, 40.04258
860.2174, 41.40345
860.6995, 42.94076
861.1816, 44.97673
861.6638, 46.75292
862.1459, 48.02618
862.6280, 49.08082
863.1101, 50.13632
863.5922, 51.18234
864.0743, 52.12601
864.5565, 53.00318
865.0386, 53.61927
865.5207, 53.84170
866.0028, 53.74268
866.4849, 53.40222
866.9670, 52.81378
867.4492, 51.88063
867.9313, 50.58799
868.4134, 49.19573
868.8955, 48.02082
869.3776, 46.98134
869.8597, 45.72718
870.3419, 44.25871
870.8240, 42.83442
871.3061, 41.48336
871.7882, 40.31103
872.2703, 39.42945
872.7524, 38.79247
873.2346, 38.23585
873.7166, 37.83829
874.1987, 37.36426
874.6808, 36.78109
875.1630, 36.16016
875.6451, 35.35975
876.1272, 34.62858
876.6093, 34.32737
877.0914, 34.48768
877.5735, 34.63031
878.0557, 34.59377
878.5378, 34.49471
879.0199, 34.24916
879.5020, 34.07165
879.9841, 34.34310
880.4662, 34.96532
880.9484, 35.42054
881.4305, 35.40462
881.9126, 35.29964
882.3947, 35.64127
882.8768, 36.29317
883.3589, 36.81648
883.8411, 37.20243
884.3232, 37.65771
884.8053, 38.26477
885.2874, 38.92914
885.7695, 39.51608
886.2516, 40.04950
886.7338, 40.82933
887.2159, 42.00590
887.6980, 42.97638
888.1801, 43.38192
888.6622, 43.92926
889.1443, 45.25574
889.6265, 47.04778
890.1086, 48.56007
890.5907, 49.66225
891.0728, 50.85563
891.5549, 52.23360
892.0370, 53.69950
892.5192, 55.10299
893.0013, 56.62755
893.4834, 58.61918
893.9655, 61.01701
894.4476, 63.18795
894.9297, 64.55424
895.4119, 66.00210
895.8940, 68.45629
896.3761, 71.49893
896.8582, 74.51819
897.3403, 77.40611
897.8224, 80.12368
898.3046, 82.63931
898.7867, 85.18159
899.2688, 88.02052
899.7509, 91.14494
900.2330, 94.59121
900.7151, 98.36441
901.1973, 102.2577
901.6794, 106.2260
902.1615, 110.3243
902.6436, 114.5756
903.1257, 119.0166
903.6078, 123.7629
904.0900, 128.5159
904.5721, 134.2579
905.0542, 141.3996
905.5363, 149.0788
906.0184, 157.0722
906.5005, 165.3110
906.9827, 173.5513
907.4648, 181.7661
907.9469, 190.6447
908.4290, 200.2968
908.9111, 210.6601
909.3932, 221.5828
909.8754, 233.1889
910.3575, 245.4221
910.8396, 258.4847
911.3217, 273.0388
911.8038, 289.3413
912.2859, 306.7099
912.7681, 324.6154
913.2502, 343.2674
913.7323, 362.9685
914.2144, 383.5988
914.6965, 405.1513
915.1786, 427.5529
915.6608, 450.3984
916.1429, 473.7289
916.6250, 496.7009
917.1071, 517.9166
917.5892, 537.4102
918.0714, 553.4619
918.5535, 566.2408
919.0356, 574.5062
919.5177, 577.8900
919.9998, 576.0755
920.4819, 568.4589
920.9641, 554.8185
921.4462, 537.4761
921.9283, 515.7062
922.4104, 491.4396
922.8925, 463.3961
923.3746, 434.4307
923.8568, 405.8534
924.3389, 377.8936
924.8210, 350.9061
925.3031, 324.7702
925.7852, 300.2914
926.2673, 277.9807
926.7495, 257.1338
927.2316, 237.4113
927.7137, 219.0001
928.1958, 202.1402
928.6779, 186.8986
929.1600, 173.3588
929.6422, 161.8705
930.1243, 151.5692
930.6064, 141.6118
931.0885, 132.2738
931.5706, 123.9914
932.0527, 116.6571
932.5349, 109.9647
933.0170, 103.7913
933.4991, 98.07570
933.9812, 92.80570
934.4633, 87.95750
934.9454, 83.48939
935.4276, 79.39842
935.9097, 75.56818
936.3918, 72.00156
936.8739, 68.73716
937.3560, 65.83617
937.8381, 63.15650
938.3203, 60.37687
938.8024, 57.43952
939.2845, 54.84906
939.7666, 52.61176
940.2487, 50.71556
940.7308, 49.37988
941.2130, 48.05709
941.6951, 46.11638
942.1772, 43.72386
942.6593, 41.79824
943.1414, 40.53455
943.6235, 39.36054
944.1057, 38.40882
944.5878, 37.36626
945.0699, 35.89357
945.5520, 34.37334
946.0341, 33.33368
946.5162, 32.78362
946.9984, 32.21830
947.4805, 31.45415
947.9626, 30.65114
948.4447, 29.85777
948.9268, 29.09260
949.4089, 28.41462
949.8911, 27.77361
950.3732, 27.00822
950.8553, 26.07463
951.3374, 25.23988
951.8195, 24.74663
952.3016, 24.44570
952.7838, 24.23816
953.2659, 24.03940
953.7480, 23.58403
954.2301, 22.89433
954.7122, 22.33908
955.1943, 22.13689
955.6764, 22.09222
956.1585, 21.91627
956.6406, 21.63333
957.1227, 21.34797
957.6049, 21.06300
958.0870, 20.85810
958.5691, 20.76004
959.0512, 20.70455
959.5333, 20.65182
960.0154, 20.57189
960.4976, 20.32789
960.9797, 19.84800
961.4618, 19.60067
961.9439, 19.69934
962.4260, 19.77193
962.9081, 19.67978
963.3903, 19.47347
963.8724, 19.16384
964.3545, 18.76352
964.8366, 18.56083
965.3187, 18.76418
965.8008, 18.83486
966.2830, 18.61578
966.7651, 18.40252
967.2472, 18.39521
967.7293, 18.44906
968.2114, 18.32230
968.6935, 17.98990
969.1757, 17.72500
969.6578, 17.59844
970.1399, 17.53048
970.6220, 17.54000
971.1041, 17.55612
971.5862, 17.51767
972.0684, 17.43791
972.5505, 17.34118
973.0326, 17.23040
973.5147, 17.18514
973.9968, 17.35740
974.4789, 17.50686
974.9611, 17.39757
975.4432, 17.15085
975.9253, 16.91425
976.4074, 16.72895
976.8895, 16.62066
977.3716, 16.60639
977.8538, 16.63854
978.3359, 16.64697
978.8180, 16.67841
979.3001, 16.86824
979.7822, 17.15468
980.2643, 17.32605
980.7465, 17.33732
981.2286, 17.26710
981.7107, 17.16049
982.1928, 17.06782
982.6749, 17.13826
983.1570, 17.32199
983.6392, 17.29673
984.1213, 17.05408
984.6034, 16.81671
985.0855, 16.65682
985.5676, 16.59233
986.0497, 16.66720
986.5319, 16.81252
987.0140, 16.74867
987.4961, 16.44426
987.9782, 16.16756
988.4603, 15.92591
988.9424, 15.75773
989.4246, 15.69567
989.9067, 15.68665
990.3888, 15.68462
990.8709, 15.68215
991.3530, 15.54751
991.8351, 15.18033
992.3173, 14.91300
992.7994, 14.83279
993.2815, 14.76745
993.7636, 14.60625
994.2457, 14.42514
994.7278, 14.34885
995.2100, 14.38478
995.6921, 14.40850
996.1742, 14.42694
996.6563, 14.42070
997.1384, 14.36451
997.6205, 14.30573
998.1027, 14.27730
998.5848, 14.26385
999.0669, 14.20432
999.5490, 14.07957
1000.031, 14.11781
1000.513, 14.65865
1000.995, 15.00722
1001.477, 14.66281
1001.960, 14.20706
1002.442, 14.21922
1002.924, 14.51521
1003.406, 14.54581
1003.888, 14.14625
1004.370, 13.88785
1004.852, 14.21114
1005.334, 14.60429
1005.817, 14.76829
1006.299, 14.76108
1006.781, 14.58426
1007.263, 14.32449
1007.745, 14.17474
1008.227, 14.20985
1008.709, 14.36440
1009.191, 14.66751
1009.673, 14.99117
1010.156, 15.24742
1010.638, 15.39201
1011.120, 15.25881
1011.602, 14.91698
1012.084, 14.72905
1012.566, 14.89161
1013.048, 15.15363
1013.530, 15.20818
1014.013, 15.17920
1014.495, 15.32443
1014.977, 15.59235
1015.459, 15.83220
1015.941, 16.00236
1016.423, 16.04844
1016.905, 15.92189
1017.387, 15.78792
1017.869, 15.93877
1018.352, 16.28973
1018.834, 16.50619
1019.316, 16.60895
1019.798, 16.85158
1020.280, 17.28724
1020.762, 17.60997
1021.244, 17.58203
1021.726, 17.37343
1022.208, 17.30851
1022.691, 17.38019
1023.173, 17.49584
1023.655, 17.65378
1024.137, 17.89675
1024.619, 18.24581
1025.101, 18.59146
1025.583, 18.83901
1026.065, 19.04090
1026.547, 19.37749
1027.030, 19.87916
1027.512, 20.03026
1027.994, 19.71677
1028.476, 19.71064
1028.958, 20.33785
1029.440, 21.00155
1029.922, 21.14541
1030.404, 20.96740
1030.887, 21.11832
1031.369, 21.69226
1031.851, 22.16173
1032.333, 22.44919
1032.815, 22.87652
1033.297, 23.64084
1033.779, 24.38900
1034.261, 24.76946
1034.744, 24.89648
1035.226, 25.18918
1035.708, 25.66826
1036.190, 26.26761
1036.672, 27.10135
1037.154, 27.83747
1037.636, 28.31417
1038.118, 28.72477
1038.600, 29.24773
1039.083, 29.84587
1039.565, 30.36871
1040.047, 30.74880
1040.529, 31.21218
1041.011, 31.84913
1041.493, 32.43956
1041.975, 32.92611
1042.457, 33.33825
1042.939, 33.66119
1043.422, 33.92796
1043.904, 34.26448
1044.386, 34.74151
1044.868, 35.12293
1045.350, 35.39861
1045.832, 35.57869
1046.314, 35.66743
1046.796, 35.65959
1047.279, 35.53261
1047.761, 35.30449
1048.243, 35.03285
1048.725, 34.72412
1049.207, 34.36859
1049.689, 33.94688
1050.171, 33.50196
1050.653, 33.14849
1051.135, 32.69382
1051.618, 31.84092
1052.100, 30.74957
1052.582, 29.95057
1053.064, 29.68174
1053.546, 29.12260
1054.028, 27.88102
1054.510, 26.59146
1054.992, 25.37960
1055.474, 24.34397
1055.957, 23.71718
1056.439, 23.31034
1056.921, 22.56096
1057.403, 21.23695
1057.885, 20.23195
1058.367, 20.11703
1058.849, 19.97409
1059.331, 19.38921
1059.814, 18.60190
1060.296, 17.72507
1060.778, 16.86148
1061.260, 16.19372
1061.742, 15.76907
1062.224, 15.46233
1062.706, 15.31796
1063.188, 15.16935
1063.671, 15.00319
1064.153, 14.74054
1064.635, 14.20047
1065.117, 13.53819
1065.599, 13.10963
1066.081, 12.99989
1066.563, 12.92336
1067.045, 12.77623
1067.527, 12.62625
1068.010, 12.55175
1068.492, 12.44882
1068.974, 12.17848
1069.456, 11.82228
1069.938, 11.56654
1070.420, 11.44809
1070.902, 11.29543
1071.384, 10.90567
1071.866, 10.63416
1072.349, 10.74105
1072.831, 10.95712
1073.313, 11.13937
1073.795, 11.22033
1074.277, 11.05506
1074.759, 10.64886
1075.241, 10.38441
1075.723, 10.56649
1076.206, 10.72226
1076.688, 10.54949
1077.170, 10.32961
1077.652, 10.28362
1078.134, 10.35599
1078.616, 10.48196
1079.098, 10.61999
1079.580, 10.60805
1080.062, 10.31867
1080.545, 9.986394
1081.027, 9.590093
1081.509, 9.328273
1081.991, 9.432893
1082.473, 9.718944
1082.955, 9.957247
1083.437, 10.10477
1083.919, 10.17789
1084.401, 10.17743
1084.884, 10.11762
1085.366, 10.01870
1085.848, 9.847756
1086.330, 9.478300
1086.812, 9.094980
1087.294, 8.927962
1087.776, 8.963392
1088.258, 9.046947
1088.740, 9.146615
1089.223, 9.233526
1089.705, 9.339135
1090.187, 9.378757
1090.669, 9.191667
1091.151, 8.999345
1091.633, 9.105517
1092.115, 9.401649
1092.597, 9.516031
1093.080, 9.331534
1093.562, 9.193588
1094.044, 9.376603
1094.526, 9.451233
1095.008, 8.981328
1095.490, 8.517911
1095.972, 8.700159
1096.454, 9.222732
1096.937, 9.393571
1097.419, 9.078234
1097.901, 8.704225
1098.383, 8.189699
1098.865, 7.933191
1099.347, 8.305016
1099.829, 8.751143
1100.311, 8.867844
1100.793, 8.790693
1101.276, 8.785972
1101.758, 8.874251
1102.240, 8.853927
1102.722, 8.519484
1103.204, 8.306566
1103.686, 8.397943
1104.168, 8.545650
1104.650, 8.732901
1105.132, 8.817319
1105.615, 8.489705
1106.097, 7.858972
1106.579, 7.631914
1107.061, 8.154512
1107.543, 8.571733
1108.025, 8.800288
1108.507, 8.840073
1108.989, 8.487908
1109.472, 8.115660
1109.954, 8.135171
1110.436, 8.422110
1110.918, 8.524202
1111.400, 8.336501
1111.882, 8.217252
1112.364, 8.214169
1112.846, 8.251193
1113.328, 8.402073
1113.811, 8.497014
1114.293, 8.347911
1114.775, 8.085541
1115.257, 7.978202
1115.739, 8.048375
1116.221, 8.105564
1116.703, 8.176094
1117.185, 8.183932
1117.667, 8.015529
1118.150, 7.932914
1118.632, 8.149996
1119.114, 8.452263
1119.596, 8.549332
1120.078, 8.451402
1120.560, 8.321609
1121.042, 8.133582
1121.524, 7.972578
1122.007, 7.805480
1122.489, 7.754950
1122.971, 7.930086
1123.453, 8.128314
1123.935, 8.137074
1124.417, 8.186192
1124.899, 8.183986
1125.381, 8.066889
1125.864, 8.043654
1126.346, 7.867049
1126.828, 7.707761
1127.310, 7.581110
1127.792, 7.596784
1128.274, 7.886613
1128.756, 8.254248
1129.238, 8.292710
1129.720, 8.011637
1130.203, 7.757983
1130.685, 7.519790
1131.167, 7.492257
1131.649, 7.725940
1132.131, 7.982925
1132.613, 8.146944
1133.095, 8.263864
1133.577, 8.406723
1134.059, 8.532274
1134.542, 8.422765
1135.024, 8.106643
1135.506, 7.957396
1135.988, 7.998056
1136.470, 8.063104
1136.952, 8.095925
1137.434, 8.107118
1137.916, 8.100451
1138.399, 8.098961
1138.881, 8.170666
1139.363, 8.279305
1139.845, 8.289280
1140.327, 8.218701
1140.809, 8.155016
1141.291, 8.119710
1141.773, 8.114482
1142.255, 8.140453
1142.738, 8.188918
1143.220, 8.285197
1143.702, 8.371784
1144.184, 8.321255
1144.666, 8.197074
1145.148, 8.110524
1145.630, 8.081100
1146.112, 8.133414
1146.594, 8.263813
1147.077, 8.353107
1147.559, 8.261415
1148.041, 8.195532
1148.523, 8.434402
1149.005, 8.747708
1149.487, 8.912504
1149.969, 8.917258
1150.451, 8.727393
1150.934, 8.390015
1151.416, 8.077947
1151.898, 7.831435
1152.380, 7.757607
1152.862, 8.073118
1153.344, 8.401932
1153.826, 8.524348
1154.308, 8.499515
1154.791, 8.301829
1155.273, 8.046597
1155.755, 8.009551
1156.237, 8.258163
1156.719, 8.406569
1157.201, 8.206689
1157.683, 8.086290
1158.165, 8.224986
1158.647, 8.423308
1159.130, 8.625513
1159.612, 8.771637
1160.094, 8.733453
1160.576, 8.540277
1161.058, 8.500087
1161.540, 8.770634
1162.022, 8.923750
1162.504, 8.743338
1162.986, 8.778348
1163.469, 9.416754
1163.951, 10.01411
1164.433, 10.02600
1164.915, 9.672688
1165.397, 9.458237
1165.879, 9.397008
1166.361, 9.319851
1166.843, 9.202161
1167.325, 9.168400
1167.808, 9.258074
1168.290, 9.356297
1168.772, 9.409389
1169.254, 9.438041
1169.736, 9.463789
1170.218, 9.490375
1170.700, 9.525311
1171.182, 9.569468
1171.665, 9.704995
1172.147, 9.929396
1172.629, 9.957256
1173.111, 9.713899
1173.593, 9.518941
1174.075, 9.597016
1174.557, 9.801148
1175.039, 9.918562
1175.521, 9.980206
1176.004, 10.10852
1176.486, 10.25095
1176.968, 10.19164
1177.450, 9.969095
1177.932, 9.878295
1178.414, 10.01670
1178.896, 10.17929
1179.378, 10.21002
1179.860, 10.17982
1180.343, 10.16199
1180.825, 10.13323
1181.307, 10.06128
1181.789, 9.956962
1182.271, 9.781586
1182.753, 9.592117
1183.235, 9.638272
1183.717, 10.06926
1184.200, 10.37726
1184.682, 10.17367
1185.164, 9.924563
1185.646, 9.870294
1186.128, 9.906662
1186.610, 9.974221
1187.092, 10.04288
1187.574, 10.08105
1188.057, 10.08446
1188.539, 10.04542
1189.021, 9.888866
1189.503, 9.806880
1189.985, 9.855286
1190.467, 9.936221
1190.949, 10.01810
1191.431, 10.11559
1191.913, 10.27054
1192.396, 10.43469
1192.878, 10.46112
1193.360, 10.56523
1193.842, 10.62074
1194.324, 10.56083
1194.806, 10.62554
1195.288, 10.40703
1195.770, 10.21770
1196.252, 10.22164
1196.735, 10.27539
1197.217, 10.21257
1197.699, 10.06658
1198.181, 9.924822
1198.663, 9.794171
1199.145, 9.720655
1199.627, 9.710391
1200.109, 9.846939
1200.592, 10.12115
1201.074, 10.23573
1201.556, 10.01003
1202.038, 9.717654
1202.520, 9.690008
1203.002, 9.790507
1203.484, 9.794185
1203.966, 9.761211
1204.448, 9.812161
1204.931, 9.921210
1205.413, 9.999104
1205.895, 10.02289
1206.377, 10.01272
1206.859, 9.968657
1207.341, 9.924321
1207.823, 9.865617
1208.305, 9.854321
1208.787, 10.01980
1209.270, 10.18397
1209.752, 10.12580
1210.234, 9.919814
1210.716, 9.762744
1211.198, 9.682467
1211.680, 9.662484
1212.162, 9.754961
1212.644, 9.822390
1213.127, 9.875120
1213.609, 9.856610
1214.091, 9.666339
1214.573, 9.489534
1215.055, 9.509683
1215.537, 9.682692
1216.019, 9.900754
1216.501, 10.19551
1216.984, 10.21046
1217.466, 9.888821
1217.948, 9.666512
1218.430, 9.622516
1218.912, 9.650144
1219.394, 9.707346
1219.876, 9.712998
1220.358, 9.546706
1220.840, 9.337184
1221.323, 9.464003
1221.805, 9.786395
1222.287, 9.797924
1222.769, 9.566098
1223.251, 9.402516
1223.733, 9.363432
1224.215, 9.367000
1224.697, 9.374994
1225.179, 9.371257
1225.662, 9.311627
1226.144, 9.268740
1226.626, 9.351110
1227.108, 9.447444
1227.590, 9.393514
1228.072, 9.291232
1228.554, 9.329436
1229.036, 9.508971
1229.519, 9.686644
1230.001, 9.831801
1230.483, 9.953485
1230.965, 10.11194
1231.447, 10.16647
1231.929, 9.931518
1232.411, 9.738635
1232.893, 9.860209
1233.375, 10.08820
1233.858, 10.14753
1234.340, 10.04179
1234.822, 9.754189
1235.304, 9.164582
1235.786, 8.994749
1236.268, 9.332326
1236.750, 9.733638
1237.232, 10.11209
1237.714, 10.23926
1238.197, 9.942904
1238.679, 9.528736
1239.161, 9.432551
1239.643, 9.305360
1240.125, 9.500828
1240.607, 9.407685
1241.089, 9.559802
1241.571, 9.897354
1242.054, 10.18457
1242.536, 10.34668
1243.018, 10.34926
1243.500, 10.15417
1243.982, 9.947911
1244.464, 9.848861
1244.946, 9.817248
1245.428, 9.837042
1245.910, 9.896123
1246.393, 10.06837
1246.875, 10.22873
1247.357, 10.09344
1247.839, 9.686761
1248.321, 9.517214
1248.803, 9.858691
1249.285, 10.00344
1249.767, 9.697600
1250.250, 9.546607
1250.732, 9.748504
1251.214, 10.02974
1251.696, 10.24580
1252.178, 10.40842
1252.660, 10.53528
1253.142, 10.62499
1253.624, 10.63696
1254.106, 10.57570
1254.589, 10.77289
1255.071, 11.20338
1255.553, 11.13291
1256.035, 10.44476
1256.517, 9.938462
1256.999, 10.07601
1257.481, 10.42053
1257.963, 10.54561
1258.445, 10.54710
1258.928, 10.47015
1259.410, 10.41356
1259.892, 10.54573
1260.374, 10.79044
1260.856, 11.03711
1261.338, 11.23400
1261.820, 11.29167
1262.302, 11.17191
1262.785, 10.97233
1263.267, 10.55378
1263.749, 10.30118
1264.231, 10.46536
1264.713, 10.68078
1265.195, 10.74359
1265.677, 10.74308
1266.159, 10.78214
1266.641, 10.84179
1267.124, 10.84134
1267.606, 10.77116
1268.088, 10.70532
1268.570, 10.63644
1269.052, 10.67629
1269.534, 10.84602
1270.016, 10.98720
1270.498, 11.02929
1270.980, 11.03701
1271.463, 11.07392
1271.945, 11.10775
1272.427, 11.07345
1272.909, 11.01011
1273.391, 11.03103
1273.873, 11.05149
1274.355, 10.83607
1274.837, 10.47790
1275.320, 10.32550
1275.802, 10.46254
1276.284, 10.61455
1276.766, 10.65050
1277.248, 10.71513
1277.730, 10.90709
1278.212, 11.07436
1278.694, 11.21419
1279.177, 11.22481
1279.659, 10.90013
1280.141, 10.48514
1280.623, 10.47972
1281.105, 10.85589
1281.587, 10.94388
1282.069, 10.68013
1282.551, 10.65788
1283.033, 10.92995
1283.516, 11.18299
1283.998, 11.33047
1284.480, 11.24312
1284.962, 10.82372
1285.444, 10.44931
1285.926, 10.49843
##END=



