##NAMES=Almandine
##RRUFFID=R100046
##IDEAL CHEMISTRY=Fe^2+^_3_Al_2_(SiO_4_)_3_
##LOCALITY=Altai, Xinjiang Province, China
##OWNER=RRUFF
##SOURCE=William W Pinch
##DESCRIPTION=Red trapezohedron
##STATUS=The identification of this mineral has been confirmed only by single crystal X-ray diffraction.
##URL=rruff.info/R100046
90.49219, 9.175954
90.97430, 9.380630
91.45642, 9.453723
91.93854, 9.201528
92.42065, 8.874857
92.90277, 8.913470
93.38489, 9.411680
93.86700, 9.971098
94.34912, 10.13587
94.83124, 9.938655
95.31335, 9.555195
95.79547, 8.897760
96.27759, 8.090087
96.75970, 7.646873
97.24182, 7.714090
97.72394, 8.091433
98.20605, 8.420472
98.68817, 8.714679
99.17029, 8.852798
99.65240, 8.633405
100.1345, 8.018832
100.6166, 7.614111
101.0988, 7.613749
101.5809, 7.951272
102.0630, 8.041530
102.5451, 7.813170
103.0272, 7.466144
103.5093, 7.202257
103.9915, 7.023662
104.4736, 6.931078
104.9557, 6.946834
105.4378, 7.097340
105.9199, 7.209495
106.4020, 7.284148
106.8842, 7.320767
107.3663, 7.327242
107.8484, 7.383243
108.3305, 7.316054
108.8126, 7.057708
109.2947, 6.490524
109.7769, 5.925552
110.2590, 5.127143
110.7411, 4.287869
111.2232, 4.027060
111.7053, 4.991215
112.1874, 6.088237
112.6696, 6.821233
113.1517, 6.754745
113.6338, 6.740690
114.1159, 7.021588
114.5980, 7.527195
115.0801, 7.756067
115.5623, 7.524785
116.0444, 7.000777
116.5265, 6.316576
117.0086, 5.060225
117.4907, 4.031856
117.9728, 3.587632
118.4550, 3.749792
118.9371, 4.065089
119.4192, 4.448883
119.9013, 4.844722
120.3834, 5.174531
120.8655, 5.487581
121.3477, 5.673013
121.8298, 5.563699
122.3119, 5.081599
122.7940, 4.677623
123.2761, 4.735059
123.7582, 5.115972
124.2404, 5.513165
124.7225, 5.851644
125.2046, 6.085388
125.6867, 6.118449
126.1688, 5.876430
126.6509, 5.584065
127.1331, 5.418169
127.6152, 5.387969
128.0973, 5.539215
128.5794, 6.244514
129.0615, 7.164543
129.5436, 7.392611
130.0258, 6.405116
130.5079, 4.994243
130.9900, 4.641210
131.4721, 5.348216
131.9542, 6.293943
132.4363, 6.773650
132.9185, 6.851224
133.4006, 6.969645
133.8827, 7.272423
134.3648, 7.699555
134.8469, 8.034000
135.3290, 8.251994
135.8112, 8.482973
136.2933, 8.817183
136.7754, 9.246303
137.2575, 9.926767
137.7396, 11.06034
138.2217, 12.60692
138.7039, 13.76529
139.1860, 14.48050
139.6681, 14.89457
140.1502, 15.16032
140.6323, 15.18690
141.1144, 15.36022
141.5966, 15.90740
142.0787, 16.97034
142.5608, 17.73785
143.0429, 18.10123
143.5250, 18.23013
144.0071, 18.49953
144.4893, 18.93287
144.9714, 19.46536
145.4535, 20.01818
145.9356, 20.34758
146.4177, 21.23145
146.8998, 22.99630
147.3820, 25.36507
147.8641, 27.23315
148.3462, 28.03358
148.8283, 28.84304
149.3104, 30.25108
149.7925, 32.65950
150.2747, 35.14145
150.7568, 37.70357
151.2389, 40.32472
151.7210, 42.73008
152.2031, 44.66291
152.6852, 46.51215
153.1674, 48.54116
153.6495, 51.05106
154.1316, 53.41860
154.6137, 55.60512
155.0958, 57.61036
155.5779, 59.31377
156.0601, 60.46359
156.5422, 61.41600
157.0243, 62.46151
157.5064, 63.80257
157.9885, 65.10240
158.4706, 66.11020
158.9528, 66.73151
159.4349, 67.83658
159.9170, 70.14845
160.3991, 72.91447
160.8812, 75.26472
161.3633, 76.56383
161.8455, 77.70286
162.3276, 78.93568
162.8097, 80.17937
163.2918, 81.98252
163.7739, 84.76411
164.2560, 88.11449
164.7382, 90.96694
165.2203, 93.49584
165.7024, 96.14592
166.1845, 99.24678
166.6666, 103.1397
167.1487, 106.5310
167.6309, 108.5598
168.1130, 109.6242
168.5951, 110.5214
169.0772, 112.6597
169.5593, 114.2847
170.0414, 113.8355
170.5236, 110.7590
171.0057, 106.3346
171.4878, 100.8180
171.9699, 94.52318
172.4520, 88.52837
172.9341, 83.43812
173.4163, 78.90907
173.8984, 74.52214
174.3805, 70.05696
174.8626, 65.88258
175.3447, 62.14077
175.8268, 58.84549
176.3090, 56.08722
176.7911, 54.33250
177.2732, 53.09832
177.7553, 51.57145
178.2374, 49.27342
178.7195, 46.89312
179.2017, 45.41491
179.6838, 44.74968
180.1659, 44.21007
180.6480, 43.14061
181.1301, 41.78601
181.6122, 40.71377
182.0944, 40.22946
182.5765, 40.00880
183.0586, 39.43985
183.5407, 38.53699
184.0228, 37.63740
184.5049, 37.00799
184.9871, 36.62671
185.4692, 36.45398
185.9513, 36.56896
186.4334, 36.84499
186.9155, 36.92398
187.3976, 36.78144
187.8798, 36.72012
188.3619, 37.19893
188.8440, 38.12042
189.3261, 38.81861
189.8082, 38.96342
190.2903, 38.71928
190.7725, 38.67939
191.2546, 38.86081
191.7367, 39.15228
192.2188, 39.38159
192.7009, 39.56228
193.1830, 39.93209
193.6652, 40.67478
194.1473, 41.71887
194.6294, 42.54487
195.1115, 43.11041
195.5936, 43.60095
196.0757, 44.34496
196.5579, 45.35909
197.0400, 46.15307
197.5221, 46.31541
198.0042, 45.92013
198.4863, 46.24622
198.9684, 47.45313
199.4506, 49.02808
199.9327, 50.20321
200.4148, 50.95115
200.8969, 51.61488
201.3790, 52.25332
201.8611, 52.85224
202.3433, 53.78245
202.8254, 55.08708
203.3075, 56.65638
203.7896, 58.39580
204.2717, 60.40039
204.7538, 62.14036
205.2360, 63.25629
205.7181, 63.64423
206.2002, 64.37139
206.6823, 65.48740
207.1644, 66.87889
207.6465, 68.40763
208.1287, 70.12892
208.6108, 71.74405
209.0929, 73.12811
209.5750, 74.27744
210.0571, 75.25023
210.5392, 76.06416
211.0214, 76.70187
211.5035, 77.03442
211.9856, 76.88476
212.4677, 76.91291
212.9498, 77.64144
213.4319, 79.47897
213.9140, 80.21638
214.3962, 79.56428
214.8783, 77.97470
215.3604, 76.49133
215.8425, 75.16679
216.3246, 73.79709
216.8067, 72.17930
217.2889, 70.10706
217.7710, 68.61081
218.2531, 68.01134
218.7352, 67.83931
219.2173, 66.89581
219.6994, 64.84881
220.1816, 62.65181
220.6637, 60.63335
221.1458, 58.68544
221.6279, 57.26768
222.1100, 56.63182
222.5921, 56.42793
223.0743, 55.67857
223.5564, 54.13023
224.0385, 52.49298
224.5206, 51.12862
225.0027, 50.11648
225.4848, 49.09238
225.9670, 47.94160
226.4491, 46.82051
226.9312, 46.18701
227.4133, 46.36127
227.8954, 46.51045
228.3775, 46.24111
228.8597, 45.39557
229.3418, 44.47643
229.8239, 43.34576
230.3060, 42.17627
230.7881, 41.51381
231.2702, 41.59240
231.7524, 41.80994
232.2345, 41.92860
232.7166, 42.02525
233.1987, 41.82829
233.6808, 41.20567
234.1629, 40.32666
234.6451, 39.63019
235.1272, 39.19151
235.6093, 38.83322
236.0914, 38.45753
236.5735, 37.94584
237.0556, 37.70483
237.5378, 37.84898
238.0199, 38.23134
238.5020, 38.49543
238.9841, 38.67690
239.4662, 38.69377
239.9483, 38.46943
240.4305, 37.81234
240.9126, 37.37920
241.3947, 37.26540
241.8768, 37.34443
242.3589, 37.31847
242.8410, 37.20385
243.3232, 36.95880
243.8053, 36.53576
244.2874, 35.79550
244.7695, 35.18979
245.2516, 34.61278
245.7337, 34.20504
246.2159, 34.37104
246.6980, 35.62089
247.1801, 36.64172
247.6622, 36.83466
248.1443, 35.73704
248.6264, 35.14893
249.1086, 35.34382
249.5907, 35.91040
250.0728, 35.95108
250.5549, 35.09996
251.0370, 34.33947
251.5191, 34.07467
252.0013, 34.48348
252.4834, 34.81022
252.9655, 35.07580
253.4476, 35.24382
253.9297, 35.20765
254.4118, 34.81623
254.8940, 34.50484
255.3761, 34.47643
255.8582, 34.85924
256.3403, 34.99694
256.8224, 34.80573
257.3046, 34.43511
257.7867, 34.09684
258.2688, 33.68932
258.7509, 33.52916
259.2330, 33.81451
259.7151, 34.67783
260.1973, 35.21246
260.6794, 35.35638
261.1615, 35.22402
261.6436, 34.90783
262.1257, 34.23916
262.6078, 33.79779
263.0900, 33.84158
263.5721, 34.44341
264.0542, 34.82579
264.5363, 34.99640
265.0184, 34.94239
265.5005, 34.53497
265.9827, 33.53542
266.4648, 32.90372
266.9469, 33.06252
267.4290, 34.03669
267.9111, 34.51006
268.3932, 34.29432
268.8754, 33.86272
269.3575, 33.72343
269.8396, 33.89917
270.3217, 34.30828
270.8038, 35.08189
271.2859, 36.18064
271.7681, 36.56149
272.2502, 35.93151
272.7323, 35.19154
273.2144, 35.50787
273.6965, 37.21153
274.1786, 38.14265
274.6608, 37.59114
275.1429, 35.81585
275.6250, 34.68787
276.1071, 34.30279
276.5892, 34.28942
277.0714, 34.35994
277.5535, 34.51585
278.0356, 34.74593
278.5177, 35.06613
278.9998, 35.45478
279.4819, 35.85835
279.9641, 36.31127
280.4462, 36.65319
280.9283, 36.64802
281.4104, 36.27691
281.8925, 36.19711
282.3746, 36.61272
282.8568, 37.30442
283.3389, 37.61346
283.8210, 37.49853
284.3031, 37.31963
284.7852, 37.27547
285.2673, 37.36817
285.7495, 37.68028
286.2316, 38.29969
286.7137, 39.03004
287.1958, 39.42619
287.6779, 39.47794
288.1600, 39.49395
288.6422, 39.67450
289.1243, 39.99766
289.6064, 40.29918
290.0885, 40.57696
290.5706, 40.81104
291.0527, 40.95747
291.5349, 41.02036
292.0170, 41.05560
292.4991, 41.02037
292.9812, 40.97113
293.4633, 41.10940
293.9454, 41.44907
294.4276, 41.96304
294.9097, 42.74154
295.3918, 43.71986
295.8739, 44.53898
296.3560, 44.87213
296.8381, 44.93427
297.3203, 45.24654
297.8024, 45.83768
298.2845, 46.49018
298.7666, 47.01041
299.2487, 47.40686
299.7308, 47.71970
300.2130, 47.80672
300.6951, 47.87927
301.1772, 48.31353
301.6593, 49.10581
302.1414, 50.04171
302.6235, 51.00530
303.1057, 51.97113
303.5878, 52.85380
304.0699, 53.51207
304.5520, 54.17798
305.0341, 55.18874
305.5162, 56.50306
305.9984, 57.81663
306.4805, 58.87371
306.9626, 59.79485
307.4447, 60.70635
307.9268, 61.55664
308.4089, 62.54030
308.8911, 63.82724
309.3732, 65.39595
309.8553, 67.15995
310.3374, 69.19875
310.8195, 71.35071
311.3016, 73.42123
311.7838, 75.32320
312.2659, 77.23192
312.7480, 79.20091
313.2301, 81.23569
313.7122, 83.38841
314.1943, 86.16940
314.6765, 88.78860
315.1586, 90.68076
315.6407, 91.68433
316.1228, 92.24244
316.6049, 92.34958
317.0870, 92.16667
317.5692, 91.95847
318.0513, 91.62504
318.5334, 91.44335
319.0155, 91.49522
319.4976, 91.76488
319.9797, 92.43373
320.4619, 93.80076
320.9440, 95.51844
321.4261, 97.17869
321.9082, 98.44569
322.3903, 99.88300
322.8724, 101.6712
323.3546, 103.8195
323.8367, 106.1447
324.3188, 108.6471
324.8009, 111.3073
325.2830, 114.0801
325.7651, 116.6741
326.2473, 119.7260
326.7294, 123.5482
327.2115, 128.0349
327.6936, 132.3519
328.1757, 136.1222
328.6578, 139.9110
329.1400, 144.0257
329.6221, 149.1935
330.1042, 153.6297
330.5863, 156.9895
331.0684, 159.6126
331.5505, 162.4188
332.0327, 165.4236
332.5148, 168.6121
332.9969, 172.0089
333.4790, 175.5587
333.9611, 179.2590
334.4432, 183.0319
334.9254, 187.0154
335.4075, 191.3717
335.8896, 196.1231
336.3717, 201.2798
336.8538, 206.8447
337.3359, 212.8982
337.8180, 218.8597
338.3001, 224.1998
338.7823, 230.2400
339.2644, 238.7688
339.7465, 250.5065
340.2286, 261.7385
340.7107, 271.1282
341.1928, 279.2176
341.6750, 288.7639
342.1571, 299.9851
342.6392, 312.2990
343.1213, 326.0681
343.6034, 341.2160
344.0855, 354.9662
344.5677, 366.6586
345.0498, 376.7424
345.5319, 386.2549
346.0140, 395.2377
346.4961, 402.4933
346.9782, 407.7578
347.4604, 410.8272
347.9425, 410.4213
348.4246, 406.3510
348.9067, 399.0188
349.3888, 388.4373
349.8709, 374.8570
350.3531, 359.6362
350.8352, 342.7156
351.3173, 324.8590
351.7994, 307.0397
352.2815, 289.3298
352.7636, 272.1986
353.2458, 255.8469
353.7279, 240.4068
354.2100, 226.1635
354.6921, 213.0593
355.1742, 201.3565
355.6563, 191.5412
356.1385, 183.5427
356.6206, 176.1485
357.1027, 168.0427
357.5848, 160.2738
358.0669, 154.0310
358.5490, 150.1578
359.0312, 147.1206
359.5133, 143.8271
359.9954, 140.5378
360.4775, 138.0079
360.9596, 137.2189
361.4417, 136.9120
361.9239, 136.0881
362.4060, 134.2183
362.8881, 132.9366
363.3702, 133.1222
363.8523, 134.2293
364.3344, 135.4213
364.8166, 136.6568
365.2987, 137.7745
365.7808, 138.5635
366.2629, 138.9468
366.7450, 139.6973
367.2271, 141.2838
367.7093, 143.1205
368.1914, 144.6922
368.6735, 145.8634
369.1556, 146.8796
369.6377, 147.8457
370.1198, 148.7335
370.6020, 149.1737
371.0841, 149.1382
371.5662, 148.6799
372.0483, 147.8179
372.5304, 146.4305
373.0125, 144.8818
373.4947, 143.3890
373.9768, 141.6824
374.4589, 139.0316
374.9410, 135.1120
375.4231, 130.8972
375.9052, 126.7447
376.3874, 122.6870
376.8695, 118.2502
377.3516, 113.2349
377.8337, 108.1005
378.3158, 103.3036
378.7979, 98.87142
379.2801, 94.42836
379.7622, 89.73954
380.2443, 84.95889
380.7264, 80.54133
381.2085, 76.50747
381.6906, 72.85075
382.1728, 69.69505
382.6549, 66.95013
383.1370, 64.22108
383.6191, 61.37462
384.1012, 58.58178
384.5833, 55.94356
385.0655, 53.49952
385.5476, 51.53703
386.0297, 50.62224
386.5118, 50.17426
386.9939, 49.02351
387.4760, 47.00737
387.9582, 44.82055
388.4403, 42.88407
388.9224, 41.24640
389.4045, 40.01265
389.8866, 39.61037
390.3687, 39.34521
390.8509, 38.53793
391.3330, 37.24197
391.8151, 36.05213
392.2972, 35.56188
392.7793, 35.24774
393.2614, 34.57412
393.7436, 33.07055
394.2257, 31.67605
394.7078, 30.80363
395.1899, 30.35180
395.6720, 30.05424
396.1541, 30.03284
396.6363, 29.98270
397.1184, 29.75665
397.6005, 29.30769
398.0826, 28.78406
398.5647, 28.13015
399.0468, 27.43991
399.5290, 26.82722
400.0111, 26.33809
400.4932, 25.88456
400.9753, 25.38692
401.4574, 24.84545
401.9395, 24.62809
402.4217, 25.01841
402.9038, 25.43153
403.3859, 25.44018
403.8680, 24.78591
404.3501, 24.35439
404.8322, 24.29226
405.3144, 24.44964
405.7965, 24.41141
406.2786, 24.11209
406.7607, 23.83590
407.2428, 23.77173
407.7249, 23.93261
408.2071, 23.80509
408.6892, 23.32934
409.1713, 22.74096
409.6534, 22.29685
410.1355, 21.99833
410.6176, 21.82307
411.0998, 21.77361
411.5819, 21.83477
412.0640, 22.03448
412.5461, 22.36333
413.0282, 22.62286
413.5103, 22.68031
413.9925, 22.55449
414.4746, 22.24292
414.9567, 21.68681
415.4388, 21.11699
415.9209, 20.70148
416.4030, 20.45160
416.8852, 20.38455
417.3673, 20.83850
417.8494, 21.26448
418.3315, 21.06793
418.8136, 20.20860
419.2957, 19.47833
419.7779, 19.39359
420.2600, 19.63150
420.7421, 19.87020
421.2242, 20.11762
421.7063, 20.24730
422.1884, 20.14509
422.6706, 19.87582
423.1527, 19.68050
423.6348, 19.68719
424.1169, 19.72392
424.5990, 19.68536
425.0811, 19.42909
425.5633, 19.41626
426.0454, 19.96047
426.5275, 20.62894
427.0096, 20.85455
427.4917, 20.25994
427.9738, 19.79735
428.4560, 19.72969
428.9381, 20.03046
429.4202, 20.07781
429.9023, 19.75440
430.3844, 19.39369
430.8665, 19.26035
431.3487, 19.40008
431.8308, 19.47872
432.3129, 19.44506
432.7950, 19.36569
433.2771, 19.42471
433.7592, 19.63130
434.2414, 19.72631
434.7235, 19.51138
435.2056, 19.07645
435.6877, 18.75564
436.1698, 18.54637
436.6519, 18.48618
437.1341, 18.72578
437.6162, 19.15045
438.0983, 19.46189
438.5804, 19.54841
439.0625, 19.53236
439.5446, 19.53011
440.0268, 19.53936
440.5089, 19.55144
440.9910, 19.64828
441.4731, 19.69495
441.9552, 19.50869
442.4373, 19.01080
442.9195, 18.62415
443.4016, 18.58259
443.8837, 18.76778
444.3658, 19.03586
444.8479, 19.59415
445.3300, 19.97762
445.8122, 19.91785
446.2943, 19.47683
446.7764, 19.21486
447.2585, 19.37603
447.7406, 19.61060
448.2227, 19.73687
448.7049, 19.62712
449.1870, 19.65043
449.6691, 19.86392
450.1512, 20.18229
450.6333, 20.48031
451.1154, 20.79347
451.5976, 21.01429
452.0797, 21.10288
452.5618, 21.06608
453.0439, 20.96222
453.5260, 20.75398
454.0081, 20.60010
454.4903, 20.68719
454.9724, 21.00947
455.4545, 21.15806
455.9366, 21.00641
456.4187, 20.82082
456.9008, 21.13447
457.3830, 21.89022
457.8651, 22.60385
458.3472, 23.14117
458.8293, 23.46432
459.3114, 23.39286
459.7935, 22.93300
460.2757, 22.53108
460.7578, 22.50772
461.2399, 22.77937
461.7220, 23.27192
462.2041, 24.16367
462.6862, 24.94088
463.1684, 25.03678
463.6505, 24.75869
464.1326, 24.81626
464.6147, 25.85492
465.0968, 27.00607
465.5789, 27.77114
466.0611, 28.05272
466.5432, 28.44374
467.0253, 29.27614
467.5074, 30.14692
467.9895, 30.71378
468.4716, 30.59514
468.9538, 30.63679
469.4359, 30.79765
469.9180, 31.15145
470.4001, 32.02072
470.8822, 33.74818
471.3643, 35.37243
471.8465, 36.47175
472.3286, 36.99268
472.8107, 37.52063
473.2928, 37.99759
473.7749, 38.60570
474.2570, 39.65173
474.7392, 41.13141
475.2213, 42.37410
475.7034, 43.10841
476.1855, 43.67681
476.6676, 44.99833
477.1497, 46.97479
477.6319, 48.62185
478.1140, 49.14560
478.5961, 49.03671
479.0782, 49.18620
479.5603, 49.68583
480.0424, 49.96354
480.5246, 49.41242
481.0067, 48.38307
481.4888, 47.37102
481.9709, 46.52253
482.4530, 45.73545
482.9352, 44.98872
483.4173, 44.26662
483.8994, 43.51955
484.3815, 42.42883
484.8636, 41.55508
485.3457, 41.19510
485.8279, 41.46083
486.3100, 41.87709
486.7921, 42.54292
487.2742, 43.26659
487.7563, 43.87136
488.2384, 44.16736
488.7206, 44.66474
489.2027, 45.36127
489.6848, 46.30613
490.1669, 47.72802
490.6490, 49.72028
491.1311, 51.87031
491.6133, 53.94253
492.0954, 55.94928
492.5775, 58.08965
493.0596, 60.31026
493.5417, 62.85403
494.0238, 66.08374
494.5060, 69.90302
494.9881, 73.86464
495.4702, 77.92352
495.9523, 81.91067
496.4344, 85.18861
496.9165, 88.02886
497.3987, 91.43562
497.8808, 96.79976
498.3629, 102.5405
498.8450, 107.1775
499.3271, 110.6195
499.8092, 113.4204
500.2914, 116.2156
500.7735, 118.3716
501.2556, 119.3750
501.7377, 119.4409
502.2198, 117.8959
502.7019, 113.9590
503.1841, 108.2595
503.6662, 102.5092
504.1483, 96.91427
504.6304, 91.08932
505.1125, 84.80320
505.5946, 77.96056
506.0768, 71.79700
506.5589, 66.34322
507.0410, 61.59463
507.5231, 57.67204
508.0052, 54.70387
508.4873, 51.73454
508.9695, 48.60423
509.4516, 45.60909
509.9337, 43.40895
510.4158, 41.97332
510.8979, 40.73896
511.3800, 39.39862
511.8622, 38.09834
512.3443, 37.25484
512.8264, 36.85030
513.3085, 36.42447
513.7906, 35.48912
514.2728, 34.37782
514.7549, 33.56072
515.2370, 33.21631
515.7191, 32.89901
516.2012, 32.15915
516.6833, 31.30440
517.1655, 30.79456
517.6476, 31.19233
518.1297, 31.54868
518.6118, 31.47851
519.0939, 31.01664
519.5760, 30.64709
520.0582, 30.48968
520.5403, 30.38499
521.0224, 30.27572
521.5045, 30.16996
521.9866, 30.02140
522.4688, 29.76938
522.9509, 29.54106
523.4330, 29.51433
523.9151, 29.72822
524.3972, 29.93204
524.8793, 30.08059
525.3615, 30.17666
525.8436, 30.22596
526.3257, 30.22857
526.8078, 30.19366
527.2899, 30.08888
527.7720, 29.95655
528.2542, 29.90008
528.7363, 29.92547
529.2184, 29.97992
529.7005, 30.01906
530.1826, 30.05986
530.6647, 30.11447
531.1469, 30.12690
531.6290, 30.25298
532.1111, 30.69596
532.5932, 31.30691
533.0753, 31.78039
533.5574, 31.84372
534.0396, 31.93585
534.5217, 32.16669
535.0038, 32.53800
535.4859, 33.15599
535.9680, 34.19727
536.4501, 35.30431
536.9323, 36.28101
537.4144, 37.12886
537.8965, 37.82756
538.3786, 38.26052
538.8607, 38.69941
539.3428, 39.58193
539.8250, 40.94484
540.3071, 42.36312
540.7892, 43.69655
541.2713, 45.00966
541.7534, 46.36257
542.2355, 47.76727
542.7177, 49.34296
543.1998, 51.25108
543.6819, 53.37145
544.1640, 55.54647
544.6461, 57.77155
545.1282, 59.93532
545.6104, 61.78307
546.0925, 63.57353
546.5746, 65.59618
547.0567, 67.95965
547.5388, 70.51931
548.0209, 73.13603
548.5031, 75.89456
548.9852, 79.03722
549.4673, 82.77282
549.9494, 86.72475
550.4315, 90.89311
550.9136, 95.27615
551.3958, 99.39749
551.8779, 103.1523
552.3600, 106.8334
552.8421, 110.7084
553.3242, 114.8221
553.8063, 118.7987
554.2885, 122.7411
554.7706, 126.2194
555.2527, 128.6294
555.7348, 130.0367
556.2169, 130.8914
556.6990, 131.5042
557.1812, 131.3906
557.6633, 129.7038
558.1454, 126.6395
558.6275, 122.9178
559.1096, 118.9340
559.5917, 114.4986
560.0739, 109.3798
560.5560, 103.5332
561.0381, 97.63223
561.5202, 91.89323
562.0023, 86.30296
562.4844, 80.85353
562.9666, 75.22429
563.4487, 70.20702
563.9308, 65.95070
564.4129, 62.25953
564.8950, 58.88282
565.3771, 55.92810
565.8593, 53.11433
566.3414, 50.34686
566.8235, 47.68873
567.3056, 45.26484
567.7877, 43.06884
568.2698, 41.25592
568.7520, 40.12181
569.2341, 39.46709
569.7162, 38.40847
570.1983, 36.90362
570.6804, 35.40696
571.1625, 34.32743
571.6447, 33.55922
572.1268, 32.92801
572.6089, 32.35500
573.0910, 31.97628
573.5731, 31.99985
574.0552, 32.25435
574.5374, 32.44057
575.0195, 32.55490
575.5016, 32.49099
575.9837, 32.02361
576.4658, 31.22177
576.9479, 30.89590
577.4301, 31.40366
577.9122, 31.98499
578.3943, 32.30293
578.8764, 32.28728
579.3585, 32.34539
579.8406, 32.39628
580.3228, 32.70095
580.8049, 33.82729
581.2870, 35.69105
581.7691, 36.73224
582.2512, 36.47499
582.7333, 35.76868
583.2155, 35.99063
583.6975, 36.84633
584.1796, 37.42119
584.6617, 37.13579
585.1439, 36.48798
585.6260, 35.87099
586.1081, 35.27380
586.5902, 34.63427
587.0723, 33.97995
587.5544, 33.23465
588.0366, 32.27041
588.5187, 30.97132
589.0008, 29.93841
589.4829, 29.43042
589.9650, 29.08957
590.4471, 28.64735
590.9293, 28.00607
591.4114, 27.49571
591.8935, 27.16854
592.3756, 26.94294
592.8577, 26.59429
593.3398, 26.09982
593.8220, 25.94110
594.3041, 26.43210
594.7862, 27.23913
595.2683, 27.60346
595.7504, 27.55603
596.2325, 27.34555
596.7147, 27.08864
597.1968, 26.77413
597.6789, 26.26091
598.1610, 25.53215
598.6431, 25.13166
599.1252, 25.82775
599.6074, 26.71336
600.0895, 27.03841
600.5716, 26.43518
601.0537, 25.67287
601.5358, 24.68240
602.0179, 23.66685
602.5001, 22.89314
602.9822, 22.42264
603.4643, 22.09366
603.9464, 21.92043
604.4285, 21.85132
604.9106, 21.76148
605.3928, 21.67152
605.8749, 21.37578
606.3570, 20.58134
606.8391, 19.51575
607.3212, 18.96624
607.8033, 18.91799
608.2855, 18.98262
608.7676, 18.88579
609.2497, 18.71692
609.7318, 18.59517
610.2139, 18.54696
610.6960, 18.49810
611.1782, 18.40237
611.6603, 18.28746
612.1424, 18.18156
612.6245, 17.87090
613.1066, 17.83929
613.5887, 18.38313
614.0709, 19.19861
614.5530, 19.67178
615.0351, 19.61702
615.5172, 19.60360
615.9993, 19.81491
616.4814, 20.19220
616.9636, 20.40718
617.4457, 20.44798
617.9278, 20.45918
618.4099, 20.54340
618.8920, 20.66605
619.3741, 20.64617
619.8563, 20.47215
620.3384, 20.51365
620.8205, 21.26123
621.3026, 22.31709
621.7847, 23.18923
622.2668, 23.72810
622.7490, 24.23374
623.2311, 24.83422
623.7132, 25.48547
624.1953, 26.13115
624.6774, 26.68141
625.1595, 27.32627
625.6417, 28.09752
626.1238, 28.97861
626.6059, 29.92345
627.0880, 30.97126
627.5701, 31.97660
628.0522, 32.85656
628.5344, 33.65303
629.0165, 34.60466
629.4986, 35.71544
629.9807, 36.81381
630.4628, 37.82465
630.9449, 38.72252
631.4271, 39.47606
631.9092, 40.08165
632.3913, 40.56438
632.8734, 40.97267
633.3555, 41.25078
633.8376, 41.36829
634.3198, 41.42014
634.8019, 41.10164
635.2840, 40.16283
635.7661, 38.86321
636.2482, 37.55467
636.7303, 36.27792
637.2125, 34.93548
637.6946, 33.44889
638.1767, 31.91398
638.6588, 30.62539
639.1409, 29.61236
639.6230, 28.56136
640.1052, 27.24009
640.5873, 25.81251
641.0694, 24.85207
641.5515, 24.31853
642.0336, 23.84751
642.5157, 23.10855
642.9979, 22.33566
643.4800, 21.86562
643.9621, 21.73626
644.4442, 21.55861
644.9263, 21.10820
645.4084, 20.54321
645.8906, 19.98166
646.3727, 19.36743
646.8548, 18.90107
647.3369, 18.68940
647.8190, 18.55768
648.3011, 18.29023
648.7833, 17.82277
649.2654, 17.43172
649.7475, 17.17742
650.2296, 16.99174
650.7117, 16.70869
651.1938, 16.33681
651.6760, 16.00777
652.1581, 15.77275
652.6402, 15.60999
653.1223, 15.54398
653.6044, 15.53951
654.0865, 15.44164
654.5687, 15.01464
655.0508, 14.58569
655.5329, 14.39265
656.0150, 14.46120
656.4971, 14.50724
656.9792, 14.50206
657.4614, 14.42651
657.9435, 14.25017
658.4256, 13.90763
658.9077, 13.71486
659.3898, 13.75069
659.8719, 13.79727
660.3541, 13.55189
660.8362, 13.03056
661.3183, 12.75682
661.8004, 12.84289
662.2825, 13.09371
662.7646, 13.38764
663.2468, 13.64590
663.7289, 13.66096
664.2110, 13.18308
664.6931, 12.65999
665.1752, 12.36603
665.6573, 12.26765
666.1395, 12.27723
666.6216, 12.39933
667.1037, 12.59458
667.5858, 12.94924
668.0679, 13.41280
668.5500, 13.59556
669.0322, 13.38884
669.5143, 13.11632
669.9964, 12.89684
670.4785, 12.73091
670.9606, 12.62740
671.4427, 12.58601
671.9249, 12.60917
672.4070, 12.77759
672.8891, 12.99653
673.3712, 13.01175
673.8533, 12.77655
674.3354, 12.59849
674.8176, 12.93300
675.2997, 13.32758
675.7818, 13.25574
676.2639, 12.19935
676.7460, 11.43127
677.2281, 11.46667
677.7103, 11.85574
678.1924, 12.05510
678.6745, 11.96227
679.1566, 11.90124
679.6387, 11.92225
680.1208, 11.98944
680.6030, 12.03243
681.0851, 12.05053
681.5672, 12.04713
682.0493, 12.04205
682.5314, 11.99766
683.0135, 11.82104
683.4957, 11.53861
683.9778, 11.26194
684.4599, 11.00924
684.9420, 10.81612
685.4241, 10.67431
685.9063, 10.59336
686.3884, 10.66304
686.8705, 10.98803
687.3526, 11.40139
687.8347, 11.90281
688.3168, 12.55874
688.7990, 12.76495
689.2811, 12.36988
689.7632, 11.87209
690.2453, 11.66333
690.7274, 11.72099
691.2095, 11.78902
691.6917, 11.85578
692.1738, 11.89493
692.6559, 11.84417
693.1380, 11.75436
693.6201, 11.71981
694.1022, 11.78487
694.5844, 11.84291
695.0665, 11.80676
695.5486, 11.73651
696.0307, 11.70919
696.5128, 11.71546
696.9949, 11.80641
697.4771, 12.06209
697.9592, 12.37081
698.4413, 12.49403
698.9234, 12.38994
699.4055, 12.26033
699.8876, 12.13489
700.3698, 12.03879
700.8519, 12.09575
701.3340, 12.27320
701.8161, 12.35015
702.2982, 12.06921
702.7803, 11.72406
703.2625, 11.63449
703.7446, 11.77195
704.2267, 11.97950
704.7088, 12.36971
705.1909, 12.65388
705.6730, 12.59172
706.1552, 12.13102
706.6373, 11.95104
707.1194, 12.18860
707.6015, 12.52157
708.0836, 12.81695
708.5657, 13.08111
709.0479, 13.12908
709.5300, 12.93430
710.0121, 12.68476
710.4942, 12.53266
710.9763, 12.45847
711.4584, 12.39830
711.9406, 12.33543
712.4227, 12.36157
712.9048, 12.74106
713.3869, 13.14827
713.8690, 13.21766
714.3511, 12.61365
714.8333, 12.12964
715.3154, 11.86928
715.7975, 11.82862
716.2796, 12.08386
716.7617, 12.85890
717.2438, 13.21228
717.7260, 12.88333
718.2081, 12.31538
718.6902, 12.38109
719.1723, 12.98901
719.6544, 13.41342
720.1365, 13.36880
720.6187, 13.13249
721.1008, 12.93283
721.5829, 12.79854
722.0650, 12.79210
722.5471, 13.06681
723.0292, 13.34955
723.5114, 13.56334
723.9935, 13.69264
724.4756, 13.67642
724.9577, 13.41425
725.4398, 13.16015
725.9219, 12.94466
726.4041, 12.79571
726.8862, 12.95872
727.3683, 13.47197
727.8504, 13.87654
728.3325, 13.76009
728.8146, 13.40441
729.2968, 13.48432
729.7789, 13.94989
730.2610, 14.32248
730.7431, 14.24306
731.2252, 13.99954
731.7073, 13.75353
732.1895, 13.51185
732.6716, 13.40028
733.1537, 13.53475
733.6358, 13.72119
734.1179, 13.85635
734.6000, 13.91263
735.0822, 14.12057
735.5643, 14.54411
736.0464, 14.90453
736.5285, 14.84397
737.0106, 14.49596
737.4927, 14.40335
737.9749, 14.64202
738.4570, 14.91643
738.9391, 14.92705
739.4212, 14.84724
739.9033, 14.89480
740.3854, 15.21107
740.8676, 15.41818
741.3497, 15.30937
741.8318, 15.09603
742.3139, 15.00325
742.7960, 15.11033
743.2781, 15.13486
743.7603, 15.03774
744.2424, 14.88812
744.7245, 14.72468
745.2066, 14.57051
745.6887, 14.65133
746.1708, 15.10630
746.6530, 15.59155
747.1351, 15.65247
747.6172, 15.47490
748.0993, 15.38547
748.5814, 15.71157
749.0635, 15.90420
749.5457, 15.52357
750.0278, 14.91973
750.5099, 14.86570
750.9920, 15.75029
751.4741, 16.45412
751.9562, 16.72781
752.4384, 16.73431
752.9205, 16.93008
753.4026, 17.30606
753.8847, 17.46176
754.3668, 17.13008
754.8489, 16.62081
755.3311, 16.27464
755.8132, 16.11233
756.2953, 16.20502
756.7774, 16.97367
757.2595, 17.62413
757.7416, 17.65611
758.2238, 17.18807
758.7059, 16.94760
759.1880, 17.05116
759.6701, 17.26127
760.1522, 17.56370
760.6343, 17.91562
761.1165, 18.09006
761.5986, 18.08078
762.0807, 17.99970
762.5628, 17.89097
763.0449, 17.75770
763.5270, 17.58752
764.0092, 17.39097
764.4913, 17.21990
764.9734, 17.10715
765.4555, 17.02704
765.9376, 16.97984
766.4197, 16.96388
766.9019, 16.91489
767.3840, 16.76281
767.8661, 16.67811
768.3482, 16.79649
768.8303, 17.10024
769.3124, 17.05782
769.7946, 16.64130
770.2767, 16.22764
770.7588, 16.05893
771.2409, 16.08185
771.7230, 16.29968
772.2051, 16.69123
772.6873, 16.91614
773.1694, 16.68660
773.6515, 16.28723
774.1336, 15.85182
774.6157, 15.35880
775.0978, 15.07588
775.5800, 15.01321
776.0621, 15.15409
776.5442, 15.64260
777.0263, 16.52304
777.5084, 16.60431
777.9905, 15.80877
778.4727, 14.97780
778.9548, 14.90584
779.4369, 15.26391
779.9190, 15.51761
780.4011, 15.60997
780.8832, 15.60144
781.3654, 15.36276
781.8475, 15.14999
782.3296, 15.18825
782.8117, 15.63841
783.2938, 15.90376
783.7759, 15.91751
784.2581, 15.83968
784.7402, 15.76675
785.2223, 15.69877
785.7044, 15.73243
786.1865, 15.88914
786.6686, 15.98377
787.1508, 15.69401
787.6329, 15.28098
788.1150, 15.18228
788.5971, 15.50795
789.0792, 15.84658
789.5613, 16.04836
790.0435, 16.15135
790.5256, 16.17351
791.0077, 16.06832
791.4898, 16.02756
791.9719, 16.09475
792.4540, 16.15359
792.9362, 16.03877
793.4183, 15.77743
793.9004, 15.76698
794.3825, 16.06811
794.8646, 16.35063
795.3467, 16.24479
795.8289, 15.95064
796.3110, 15.71189
796.7931, 15.54316
797.2752, 15.54042
797.7573, 15.93482
798.2394, 16.37879
798.7216, 16.56923
799.2037, 16.35723
799.6858, 16.28451
800.1679, 16.36271
800.6500, 16.55355
801.1321, 16.93294
801.6143, 17.42079
802.0964, 17.56326
802.5785, 17.27441
803.0606, 16.98051
803.5427, 17.07751
804.0248, 17.36517
804.5070, 17.64638
804.9891, 17.91955
805.4712, 18.07530
805.9533, 18.00468
806.4354, 17.87145
806.9175, 17.78268
807.3997, 17.73696
807.8818, 17.74044
808.3639, 17.79079
808.8460, 17.89979
809.3281, 18.10699
809.8102, 18.37988
810.2924, 18.65089
810.7745, 18.91723
811.2566, 19.12327
811.7387, 19.15527
812.2208, 19.15220
812.7029, 19.25409
813.1851, 19.56353
813.6672, 19.73943
814.1493, 19.64701
814.6314, 19.56306
815.1135, 19.74966
815.5956, 20.22534
816.0778, 20.55806
816.5599, 20.72963
817.0420, 20.77890
817.5241, 20.64587
818.0062, 20.45228
818.4883, 20.41588
818.9705, 20.58918
819.4526, 20.71126
819.9347, 20.49808
820.4168, 20.30328
820.8989, 20.45156
821.3810, 21.10287
821.8632, 21.40672
822.3453, 21.24856
822.8274, 20.99409
823.3095, 20.91598
823.7916, 20.99572
824.2737, 21.17126
824.7559, 21.44147
825.2380, 21.69681
825.7201, 21.83392
826.2022, 21.91918
826.6843, 21.97730
827.1664, 21.99423
827.6486, 22.16451
828.1307, 22.83316
828.6128, 23.38131
829.0949, 23.43594
829.5770, 22.94421
830.0591, 22.80864
830.5413, 23.07765
831.0234, 23.41474
831.5055, 23.48269
831.9876, 23.47026
832.4697, 23.81507
832.9518, 24.50573
833.4340, 25.17435
833.9161, 25.70806
834.3982, 26.05877
834.8803, 26.00959
835.3624, 25.50804
835.8445, 25.77922
836.3267, 27.34106
836.8088, 28.64747
837.2909, 28.74129
837.7730, 27.91153
838.2551, 28.00032
838.7372, 28.94775
839.2194, 29.79363
839.7015, 29.60338
840.1836, 29.24372
840.6657, 29.73996
841.1478, 30.94466
841.6299, 31.79741
842.1121, 31.39332
842.5942, 31.21048
843.0763, 31.81116
843.5584, 33.05082
844.0405, 34.08865
844.5226, 34.87680
845.0048, 35.82471
845.4869, 37.28944
845.9690, 38.88172
846.4511, 39.52389
846.9332, 39.57172
847.4153, 40.18910
847.8975, 42.70117
848.3796, 45.14375
848.8617, 46.46095
849.3438, 46.93438
849.8259, 47.57105
850.3080, 48.41499
850.7902, 49.38509
851.2723, 50.41882
851.7544, 51.60553
852.2365, 53.33585
852.7186, 55.47741
853.2007, 57.18325
853.6829, 57.72892
854.1650, 58.39544
854.6471, 60.64985
855.1292, 63.72826
855.6113, 66.35471
856.0934, 67.64772
856.5756, 69.13850
857.0577, 71.11330
857.5398, 73.26745
858.0219, 75.21761
858.5040, 76.95934
858.9861, 78.67095
859.4683, 80.36771
859.9504, 82.14034
860.4325, 84.20153
860.9146, 86.37540
861.3967, 88.36145
861.8788, 90.14865
862.3610, 91.56091
862.8431, 92.45934
863.3252, 92.96119
863.8073, 93.22746
864.2894, 93.36580
864.7715, 92.89230
865.2537, 91.71687
865.7358, 90.20548
866.2179, 88.57479
866.7000, 86.90079
867.1821, 85.43874
867.6642, 84.21439
868.1464, 82.88863
868.6285, 80.97195
869.1106, 79.03804
869.5927, 77.54308
870.0748, 76.62576
870.5569, 75.62646
871.0391, 74.53636
871.5212, 73.37227
872.0033, 71.99482
872.4854, 70.50243
872.9675, 69.83128
873.4496, 69.92215
873.9318, 70.01521
874.4139, 69.30661
874.8960, 68.58596
875.3781, 68.60704
875.8602, 69.31706
876.3423, 70.09150
876.8245, 71.01344
877.3066, 71.67370
877.7887, 71.80721
878.2708, 71.61936
878.7529, 72.07862
879.2350, 73.18446
879.7172, 74.10722
880.1993, 74.24238
880.6814, 74.27795
881.1635, 75.15295
881.6456, 76.63195
882.1277, 78.16503
882.6099, 79.31721
883.0920, 80.77568
883.5741, 82.88314
884.0562, 85.32907
884.5383, 87.71199
885.0204, 90.01232
885.5026, 92.38448
885.9847, 94.86972
886.4668, 97.39458
886.9489, 99.64164
887.4310, 101.9036
887.9131, 104.8253
888.3953, 108.7980
888.8774, 112.7414
889.3595, 115.9635
889.8416, 119.0629
890.3237, 122.6207
890.8058, 126.6817
891.2880, 131.0265
891.7701, 135.6896
892.2522, 140.4395
892.7343, 144.9415
893.2164, 149.4155
893.6985, 154.5419
894.1807, 160.3266
894.6628, 166.3168
895.1449, 171.9880
895.6270, 177.8583
896.1091, 184.3563
896.5912, 191.4959
897.0734, 198.9325
897.5555, 206.6395
898.0376, 214.5539
898.5197, 222.4819
899.0018, 230.5934
899.4839, 239.0340
899.9661, 247.8952
900.4482, 257.6728
900.9303, 268.9078
901.4124, 280.9957
901.8945, 293.2425
902.3766, 306.0189
902.8588, 321.1572
903.3409, 339.2440
903.8230, 358.2188
904.3051, 377.8697
904.7872, 398.2292
905.2693, 419.4663
905.7515, 441.7023
906.2336, 466.3428
906.7157, 494.2850
907.1978, 523.2943
907.6799, 550.2469
908.1620, 577.5618
908.6442, 608.6151
909.1263, 645.7514
909.6084, 683.4806
910.0905, 721.3953
910.5726, 760.0036
911.0547, 801.0013
911.5369, 844.0475
912.0190, 886.9811
912.5011, 929.6845
912.9832, 972.2816
913.4653, 1017.205
913.9474, 1060.506
914.4296, 1098.635
914.9117, 1131.206
915.3938, 1159.555
915.8759, 1186.590
916.3580, 1206.055
916.8401, 1215.266
917.3223, 1214.714
917.8044, 1207.838
918.2865, 1194.503
918.7686, 1171.704
919.2507, 1135.133
919.7328, 1090.693
920.2150, 1042.149
920.6971, 990.5374
921.1792, 937.3034
921.6613, 881.2126
922.1434, 825.4503
922.6255, 769.1559
923.1077, 714.1674
923.5898, 663.5068
924.0719, 617.4730
924.5540, 574.0784
925.0361, 532.7216
925.5182, 494.4531
926.0004, 460.1670
926.4825, 429.1358
926.9646, 400.0179
927.4467, 372.3779
927.9288, 347.1772
928.4109, 324.3980
928.8931, 303.5541
929.3752, 284.4403
929.8573, 267.1278
930.3394, 252.2766
930.8215, 240.0053
931.3036, 228.3016
931.7858, 215.1224
932.2679, 202.2845
932.7500, 191.5460
933.2321, 182.9233
933.7142, 174.5220
934.1964, 165.8711
934.6785, 157.6133
935.1606, 150.0093
935.6427, 142.9091
936.1248, 136.0422
936.6069, 129.3565
937.0891, 123.3273
937.5712, 118.1054
938.0533, 113.3415
938.5354, 108.8307
939.0175, 104.4755
939.4996, 100.2206
939.9818, 95.81216
940.4639, 91.78304
940.9460, 88.20265
941.4281, 84.98441
941.9102, 82.28891
942.3923, 80.02554
942.8745, 77.11992
943.3566, 73.43731
943.8387, 70.21415
944.3208, 68.98489
944.8029, 68.30373
945.2850, 66.92537
945.7672, 64.72092
946.2493, 62.54018
946.7314, 60.31811
947.2135, 58.38108
947.6956, 56.93375
948.1777, 55.82246
948.6599, 54.57281
949.1420, 53.20797
949.6241, 51.87886
950.1062, 50.49892
950.5883, 49.36602
951.0704, 48.92097
951.5526, 48.81370
952.0347, 48.37728
952.5168, 47.42735
952.9989, 46.36065
953.4810, 45.07032
953.9631, 43.94051
954.4453, 43.60625
954.9274, 43.84341
955.4095, 43.93092
955.8916, 43.78231
956.3737, 43.32050
956.8558, 42.14161
957.3380, 40.90153
957.8201, 40.08715
958.3022, 39.74050
958.7843, 39.54678
959.2664, 39.60708
959.7485, 39.48379
960.2307, 38.82940
960.7128, 37.93250
961.1949, 37.43088
961.6770, 37.28244
962.1591, 37.34345
962.6412, 38.00475
963.1234, 38.34361
963.6055, 37.75708
964.0876, 36.69231
964.5697, 35.83742
965.0518, 35.16700
965.5339, 34.92497
966.0161, 35.22762
966.4982, 35.64555
966.9803, 35.68287
967.4624, 35.47869
967.9445, 35.25095
968.4266, 35.03054
968.9088, 34.79726
969.3909, 34.49009
969.8730, 34.22136
970.3551, 34.10174
970.8372, 34.11068
971.3193, 33.70951
971.8015, 32.87825
972.2836, 32.30619
972.7657, 32.57832
973.2478, 33.13903
973.7299, 33.35516
974.2120, 33.33384
974.6942, 33.34485
975.1763, 33.71701
975.6584, 33.75611
976.1405, 33.19576
976.6226, 32.46642
977.1047, 32.20433
977.5869, 32.36941
978.0690, 32.59370
978.5511, 32.84515
979.0332, 32.96530
979.5153, 32.76355
979.9974, 32.40683
980.4796, 31.99066
980.9617, 31.49987
981.4438, 31.27557
981.9259, 31.49125
982.4080, 31.61517
982.8901, 31.37620
983.3723, 30.88025
983.8544, 30.37286
984.3365, 29.88759
984.8186, 29.56397
985.3007, 29.68209
985.7828, 29.74422
986.2650, 29.38419
986.7471, 28.86075
987.2292, 28.61259
987.7113, 28.71336
988.1934, 28.85482
988.6755, 29.03947
989.1577, 29.15034
989.6398, 28.97738
990.1219, 28.67270
990.6040, 28.54067
991.0861, 28.61905
991.5682, 28.56702
992.0504, 28.12700
992.5325, 27.64387
993.0146, 27.19977
993.4967, 26.84314
993.9788, 26.89105
994.4609, 27.34226
994.9431, 27.73619
995.4252, 27.91073
995.9073, 27.90499
996.3894, 27.59292
996.8715, 27.18155
997.3536, 27.00500
997.8358, 27.48506
998.3179, 27.67386
998.8000, 27.35181
999.2821, 27.04374
999.7642, 27.44183
1000.246, 28.35042
1000.728, 28.57007
1001.211, 28.07130
1001.693, 27.62392
1002.175, 27.89309
1002.657, 28.24032
1003.139, 28.12532
1003.621, 27.65229
1004.103, 27.70501
1004.585, 28.46874
1005.068, 29.04749
1005.550, 29.16041
1006.032, 29.04324
1006.514, 28.98127
1006.996, 28.99836
1007.478, 29.16769
1007.960, 29.61057
1008.442, 29.94628
1008.924, 29.77841
1009.407, 29.71675
1009.889, 30.31742
1010.371, 31.62375
1010.853, 32.10103
1011.335, 31.74598
1011.817, 31.31612
1012.299, 31.24047
1012.781, 31.38848
1013.263, 31.72460
1013.746, 32.19171
1014.228, 32.60329
1014.710, 32.83565
1015.192, 33.19883
1015.674, 33.77925
1016.156, 34.43616
1016.638, 34.94120
1017.120, 35.35266
1017.603, 35.87872
1018.085, 36.57923
1018.567, 37.21682
1019.049, 37.55872
1019.531, 37.86831
1020.013, 38.34465
1020.495, 38.98063
1020.977, 39.57079
1021.459, 40.11379
1021.942, 40.61435
1022.424, 41.02004
1022.906, 41.44884
1023.388, 42.11053
1023.870, 42.91539
1024.352, 43.68776
1024.834, 44.28561
1025.316, 44.96801
1025.799, 45.69458
1026.281, 46.58648
1026.763, 47.85828
1027.245, 49.42576
1027.727, 50.88140
1028.209, 52.20353
1028.691, 53.45562
1029.173, 54.63457
1029.656, 55.80453
1030.138, 56.94495
1030.620, 58.09339
1031.102, 59.44519
1031.584, 61.04765
1032.066, 62.68345
1032.548, 64.31508
1033.030, 65.95002
1033.512, 67.57258
1033.995, 69.20045
1034.477, 70.88818
1034.959, 72.74980
1035.441, 74.25290
1035.923, 74.99636
1036.405, 75.65315
1036.887, 76.54453
1037.369, 77.66172
1037.851, 79.25625
1038.334, 81.20492
1038.816, 82.58193
1039.298, 82.17487
1039.780, 81.70744
1040.262, 82.81072
1040.744, 84.54785
1041.226, 84.97856
1041.708, 83.48206
1042.191, 82.45022
1042.673, 82.18569
1043.155, 81.84974
1043.637, 80.34586
1044.119, 78.25529
1044.601, 76.65455
1045.083, 75.57438
1045.565, 74.22643
1046.047, 72.02299
1046.530, 69.84960
1047.012, 68.04838
1047.494, 66.44612
1047.976, 64.58540
1048.458, 62.46015
1048.940, 60.18987
1049.422, 57.71574
1049.904, 55.35589
1050.386, 53.48397
1050.869, 51.73758
1051.351, 49.66825
1051.833, 47.13243
1052.315, 45.05368
1052.797, 43.48315
1053.279, 42.12364
1053.761, 40.90260
1054.243, 39.67500
1054.726, 37.99723
1055.208, 36.10120
1055.690, 34.60077
1056.172, 34.29805
1056.654, 33.56517
1057.136, 31.93749
1057.618, 30.12261
1058.100, 28.98851
1058.583, 28.43355
1059.065, 27.75049
1059.547, 26.89237
1060.029, 26.21050
1060.511, 26.26256
1060.993, 26.29079
1061.475, 25.72071
1061.957, 24.70645
1062.439, 23.91806
1062.922, 23.36290
1063.404, 23.01350
1063.886, 22.91344
1064.368, 22.87292
1064.850, 22.74920
1065.332, 22.49386
1065.814, 21.98359
1066.296, 21.09808
1066.778, 20.43241
1067.261, 20.10205
1067.743, 19.86983
1068.225, 19.61538
1068.707, 19.36597
1069.189, 19.24278
1069.671, 19.21504
1070.153, 19.17489
1070.635, 19.07907
1071.118, 18.95625
1071.600, 18.86909
1072.082, 18.72510
1072.564, 18.35472
1073.046, 17.71225
1073.528, 17.53276
1074.010, 17.85362
1074.492, 18.18410
1074.974, 18.07468
1075.457, 17.86695
1075.939, 17.93967
1076.421, 18.18989
1076.903, 18.13625
1077.385, 17.60093
1077.867, 17.19913
1078.349, 17.06070
1078.831, 17.01205
1079.313, 16.84674
1079.796, 16.60006
1080.278, 16.26452
1080.760, 15.82099
1081.242, 15.64455
1081.724, 16.22705
1082.206, 16.66599
1082.688, 16.58107
1083.170, 16.15609
1083.652, 15.91053
1084.135, 15.84567
1084.617, 16.03996
1085.099, 16.70990
1085.581, 17.14282
1086.063, 16.62100
1086.545, 15.85884
1087.027, 15.52566
1087.509, 15.68091
1087.992, 15.75262
1088.474, 15.74086
1088.956, 15.64754
1089.438, 15.34124
1089.920, 15.06880
1090.402, 15.20612
1090.884, 15.55093
1091.366, 15.66133
1091.849, 15.26355
1092.331, 15.04738
1092.813, 15.07823
1093.295, 15.20418
1093.777, 15.35944
1094.259, 15.46796
1094.741, 15.30095
1095.223, 14.89653
1095.705, 14.59701
1096.188, 14.61907
1096.670, 14.67812
1097.152, 14.72776
1097.634, 14.74620
1098.116, 14.65589
1098.598, 14.48794
1099.080, 14.44570
1099.562, 14.57740
1100.044, 14.65476
1100.527, 14.44220
1101.009, 14.20193
1101.491, 14.15006
1101.973, 14.23685
1102.455, 14.08977
1102.937, 13.69349
1103.419, 13.53229
1103.901, 13.88573
1104.384, 14.24086
1104.866, 13.98677
1105.348, 13.46797
1105.830, 13.05830
1106.312, 12.78061
1106.794, 12.81170
1107.276, 13.25298
1107.758, 13.64584
1108.240, 13.71064
1108.723, 13.58007
1109.205, 13.38940
1109.687, 13.20484
1110.169, 13.17575
1110.651, 13.55068
1111.133, 13.78998
1111.615, 13.85148
1112.097, 13.78215
1112.579, 13.49054
1113.062, 13.10978
1113.544, 13.29346
1114.026, 13.94520
1114.508, 14.32733
1114.990, 13.69901
1115.472, 13.16638
1115.954, 13.17278
1116.436, 13.46882
1116.919, 13.73587
1117.401, 13.97291
1117.883, 14.15573
1118.365, 14.28522
1118.847, 14.25168
1119.329, 13.70153
1119.811, 13.20424
1120.293, 13.30065
1120.776, 13.80942
1121.258, 13.95707
1121.740, 13.70895
1122.222, 13.39797
1122.704, 13.07056
1123.186, 12.82049
1123.668, 12.84420
1124.150, 12.93036
1124.632, 12.80352
1125.115, 12.39229
1125.597, 12.18204
1126.079, 12.17623
1126.561, 12.41444
1127.043, 13.06674
1127.525, 13.72398
1128.007, 13.59523
1128.489, 13.03153
1128.971, 12.61601
1129.454, 12.47315
1129.936, 12.57065
1130.418, 13.04678
1130.900, 13.45753
1131.382, 13.51089
1131.864, 13.31720
1132.346, 13.17564
1132.828, 13.06998
1133.311, 12.94677
1133.793, 12.59566
1134.275, 12.50821
1134.757, 12.96666
1135.239, 13.51406
1135.721, 13.78052
1136.203, 13.78214
1136.685, 13.56987
1137.167, 13.18351
1137.650, 12.95628
1138.132, 13.32009
1138.614, 13.61724
1139.096, 13.39914
1139.578, 13.01283
1140.060, 12.94121
1140.542, 13.18759
1141.024, 13.51024
1141.506, 13.89429
1141.989, 14.07330
1142.471, 13.51231
1142.953, 12.98832
1143.435, 13.21390
1143.917, 13.93006
1144.399, 14.17444
1144.881, 13.86146
1145.363, 13.74672
1145.846, 13.99658
1146.328, 14.23001
1146.810, 13.87714
1147.292, 13.45444
1147.774, 13.53825
1148.256, 14.15691
1148.738, 14.55286
1149.220, 14.69776
1149.703, 14.66003
1150.185, 14.39985
1150.667, 14.12963
1151.149, 14.11935
1151.631, 14.27856
1152.113, 14.51702
1152.595, 14.84348
1153.077, 15.03526
1153.559, 14.99722
1154.042, 15.06442
1154.524, 15.45583
1155.006, 15.90401
1155.488, 15.75959
1155.970, 15.34285
1156.452, 15.33272
1156.934, 16.13166
1157.416, 16.58886
1157.898, 16.45246
1158.381, 16.20604
1158.863, 16.07261
1159.345, 16.04883
1159.827, 16.19381
1160.309, 16.43902
1160.791, 16.58687
1161.273, 16.43883
1161.755, 16.42852
1162.238, 16.75449
1162.720, 17.08759
1163.202, 17.13344
1163.684, 16.97269
1164.166, 17.09505
1164.648, 17.42491
1165.130, 17.62385
1165.612, 17.47783
1166.094, 17.22655
1166.577, 16.72100
1167.059, 16.35941
1167.541, 16.67999
1168.023, 17.57908
1168.505, 18.09773
1168.987, 18.23165
1169.469, 18.19803
1169.951, 17.91318
1170.433, 17.72860
1170.916, 17.86551
1171.398, 18.15458
1171.880, 18.47233
1172.362, 18.80292
1172.844, 18.65651
1173.326, 18.01210
1173.808, 17.47394
1174.290, 17.58444
1174.773, 17.80281
1175.255, 17.81114
1175.737, 17.70971
1176.219, 17.68800
1176.701, 17.74624
1177.183, 17.83680
1177.665, 17.95556
1178.147, 18.08459
1178.630, 18.29531
1179.112, 18.43232
1179.594, 18.29486
1180.076, 17.99775
1180.558, 17.93404
1181.040, 18.11823
1181.522, 18.24704
1182.004, 18.26568
1182.486, 18.19892
1182.969, 17.90322
1183.451, 17.66720
1183.933, 17.79252
1184.415, 18.22598
1184.897, 18.57689
1185.379, 18.85285
1185.861, 18.97016
1186.343, 18.88108
1186.825, 18.73612
1187.308, 18.67522
1187.790, 18.63520
1188.272, 18.56849
1188.754, 18.46959
1189.236, 18.27811
1189.718, 17.97687
1190.200, 17.75369
1190.682, 17.65857
1191.165, 17.69397
1191.647, 17.96368
1192.129, 18.30035
1192.611, 18.53847
1193.093, 18.65920
1193.575, 18.64841
1194.057, 18.48523
1194.539, 18.34510
1195.021, 18.32307
1195.504, 18.29695
1195.986, 18.06091
1196.468, 17.77315
1196.950, 17.65077
1197.432, 17.73677
1197.914, 17.83448
1198.396, 17.95796
1198.878, 17.99344
1199.360, 17.86106
1199.843, 17.65396
1200.325, 17.43892
1200.807, 17.24067
1201.289, 17.10249
1201.771, 17.04363
1202.253, 16.96315
1202.735, 16.84756
1203.217, 16.80881
1203.700, 17.03362
1204.182, 17.21732
1204.664, 16.82469
1205.146, 16.22179
1205.628, 16.01957
1206.110, 16.39081
1206.592, 16.80182
1207.074, 17.28240
1207.557, 17.63043
1208.039, 17.66209
1208.521, 17.54791
1209.003, 17.49867
1209.485, 17.43317
1209.967, 17.18860
1210.449, 16.69164
1210.931, 16.13416
1211.413, 15.45286
1211.896, 15.09870
1212.378, 15.67132
1212.860, 16.47449
1213.342, 16.76770
1213.824, 16.73134
1214.306, 16.73974
1214.788, 16.89786
1215.270, 16.81632
1215.752, 16.44878
1216.235, 16.15553
1216.717, 16.24018
1217.199, 16.49619
1217.681, 16.87301
1218.163, 17.22557
1218.645, 17.20746
1219.127, 16.70982
1219.609, 16.21813
1220.092, 15.72329
1220.574, 15.48911
1221.056, 15.96474
1221.538, 16.57733
1222.020, 16.81658
1222.502, 16.77091
1222.984, 16.68957
1223.466, 16.56631
1223.948, 16.49590
1224.431, 16.48681
1224.913, 16.49155
1225.395, 16.47905
1225.877, 16.45772
1226.359, 16.44504
1226.841, 16.42489
1227.323, 16.36434
1227.805, 16.26146
1228.287, 16.09278
1228.770, 15.84778
1229.252, 15.72476
1229.734, 16.12921
1230.216, 16.47570
1230.698, 16.08319
1231.180, 15.38176
1231.662, 15.43250
1232.144, 16.31545
1232.627, 16.80757
1233.109, 16.80115
1233.591, 16.65689
1234.073, 16.57141
1234.555, 16.51685
1235.037, 16.43951
1235.519, 16.39659
1236.001, 16.54653
1236.484, 16.88831
1236.966, 17.00818
1237.448, 16.86980
1237.930, 16.73032
1238.412, 16.75221
1238.894, 16.83717
1239.376, 16.91920
1239.858, 17.03482
1240.340, 17.34659
1240.823, 17.80526
1241.305, 17.77056
1241.787, 17.20498
1242.269, 16.81961
1242.751, 17.30942
1243.233, 17.78548
1243.715, 17.80915
1244.197, 17.64264
1244.679, 17.71359
1245.162, 17.96491
1245.644, 18.11179
1246.126, 18.12717
1246.608, 18.00796
1247.090, 17.38171
1247.572, 17.13790
1248.054, 17.70846
1248.536, 18.53725
1249.019, 18.80295
1249.501, 18.61231
1249.983, 18.15478
1250.465, 17.49904
1250.947, 17.15984
1251.429, 17.60177
1251.911, 18.08697
1252.393, 18.53397
1252.875, 18.82686
1253.358, 18.61405
1253.840, 18.19381
1254.322, 18.37854
1254.804, 19.13345
1255.286, 19.55046
1255.768, 19.08316
1256.250, 18.76986
1256.732, 18.79367
1257.214, 18.94600
1257.697, 18.95695
1258.179, 18.93435
1258.661, 19.09902
1259.143, 19.42094
1259.625, 19.60671
1260.107, 19.61458
1260.589, 19.49135
1261.071, 19.20874
1261.554, 18.94302
1262.036, 18.71196
1262.518, 18.72899
1263.000, 19.44079
1263.482, 20.66872
1263.964, 21.55117
1264.446, 22.12048
1264.928, 21.92489
1265.411, 20.80743
1265.893, 19.72969
1266.375, 19.57161
1266.857, 19.80818
1267.339, 20.23845
1267.821, 20.65161
1268.303, 20.44245
1268.785, 19.53391
1269.267, 19.05490
1269.750, 19.13877
1270.232, 19.26574
1270.714, 18.86456
1271.196, 18.56770
1271.678, 19.03284
1272.160, 19.74692
1272.642, 19.81653
1273.124, 19.29866
1273.606, 19.02844
1274.089, 19.06437
1274.571, 19.16991
1275.053, 19.27242
1275.535, 19.33323
1276.017, 19.34220
1276.499, 19.30445
1276.981, 19.20019
1277.463, 19.05486
1277.946, 18.90429
1278.428, 18.78231
1278.910, 18.88476
1279.392, 19.63015
1279.874, 20.12941
1280.356, 20.20777
1280.838, 20.05173
1281.320, 19.82898
1281.802, 19.54117
1282.285, 19.02621
1282.767, 18.41254
1283.249, 18.30122
1283.731, 19.34394
1284.213, 19.89073
1284.695, 19.74098
1285.177, 19.36896
1285.659, 19.10478
1286.141, 18.94868
1286.624, 19.01248
1287.106, 19.17728
1287.588, 19.06169
1288.070, 18.47618
1288.552, 18.40061
1289.034, 18.93397
1289.516, 19.38179
1289.998, 19.04651
1290.481, 18.57709
1290.963, 18.49913
1291.445, 18.64205
1291.927, 18.67204
1292.409, 18.57538
1292.891, 18.66367
1293.373, 18.92374
1293.855, 19.05799
1294.338, 18.71189
1294.820, 18.40923
1295.302, 18.52468
1295.784, 18.68821
1296.266, 18.50017
1296.748, 18.04986
1297.230, 18.01435
1297.712, 18.30476
1298.194, 18.51127
1298.677, 18.39843
1299.159, 18.22808
1299.641, 17.96578
1300.123, 17.81014
1300.605, 18.05150
1301.087, 18.43460
1301.569, 18.25565
1302.051, 17.73255
1302.533, 17.35827
1303.016, 17.22914
##END=



