##NAMES=AlSO4(OH)
##RRUFFID=R141118
##IDEAL CHEMISTRY=AlSO_4_(OH)
##LOCALITY=Only one crystal was synthesized hydrothermally at 700Â°C and ~1.0 GPa.
##OWNER=RRUFF
##SOURCE=Alan J. Anderson
##DESCRIPTION=Prismatic colorless crystal mounted in super glue.
##STATUS=The identification of this mineral is confirmed by single-crystal X-ray diffraction and chemical analysis.
##URL=rruff.info/R141118
##MEASURED CHEMISTRY=AlSO_4_(OH). EDS shows the major elements of Al, S, and O, plus trace Cr. Si is from glass fiber. No electron microprobe analysis was done, because there is only one crystal. The final chemistry was from the structure refinement.
96.50286, 614.1525
96.98498, 609.8080
97.46709, 605.5297
97.94921, 600.9623
98.43133, 595.8000
98.91344, 590.9457
99.39556, 586.5311
99.87768, 582.4147
100.3598, 578.3633
100.8419, 574.0076
101.3240, 569.6623
101.8061, 566.3254
102.2883, 564.4196
102.7704, 563.1182
103.2525, 561.5317
103.7346, 559.4606
104.2167, 557.9207
104.6988, 558.2069
105.1810, 559.2658
105.6631, 559.4958
106.1452, 557.8203
106.6273, 554.6876
107.1094, 552.0035
107.5915, 550.2148
108.0737, 548.2924
108.5558, 545.4622
109.0379, 542.0807
109.5200, 539.0526
110.0021, 537.2283
110.4842, 536.8146
110.9664, 536.5891
111.4485, 536.7811
111.9306, 536.9637
112.4127, 536.8825
112.8948, 536.5297
113.3769, 536.1196
113.8591, 535.9965
114.3412, 536.6819
114.8233, 536.6336
115.3054, 535.2775
115.7875, 533.4792
116.2696, 532.0743
116.7517, 531.3600
117.2339, 531.0794
117.7160, 530.6036
118.1981, 529.5455
118.6802, 529.0405
119.1623, 529.6549
119.6444, 531.1070
120.1266, 532.6859
120.6087, 534.2084
121.0908, 535.5277
121.5729, 536.5099
122.0550, 537.1805
122.5371, 537.4678
123.0193, 537.2591
123.5014, 536.5294
123.9835, 535.5150
124.4656, 533.6778
124.9477, 531.8464
125.4298, 530.8448
125.9120, 531.0586
126.3941, 532.1524
126.8762, 533.4585
127.3583, 535.2673
127.8404, 536.7979
128.3225, 537.8685
128.8047, 538.5749
129.2868, 538.9584
129.7689, 538.9448
130.2510, 538.6083
130.7331, 539.0429
131.2152, 540.9376
131.6974, 542.9993
132.1795, 544.7843
132.6616, 546.4570
133.1437, 548.4514
133.6258, 551.1545
134.1079, 554.6580
134.5901, 558.5193
135.0722, 562.7001
135.5543, 567.1876
136.0364, 572.4583
136.5185, 578.3655
137.0006, 583.7247
137.4828, 586.9571
137.9649, 587.5578
138.4470, 588.3805
138.9291, 589.9012
139.4112, 591.5993
139.8933, 592.7298
140.3755, 593.0014
140.8576, 593.1938
141.3397, 594.4833
141.8218, 596.7594
142.3039, 598.9398
142.7860, 600.8920
143.2681, 602.4646
143.7503, 603.2076
144.2324, 603.3217
144.7145, 601.9998
145.1966, 598.7549
145.6787, 593.5903
146.1608, 587.3018
146.6430, 580.2732
147.1251, 572.4005
147.6072, 564.6789
148.0893, 556.5616
148.5714, 549.0754
149.0535, 542.9015
149.5357, 538.1912
150.0178, 534.4583
150.4999, 531.1649
150.9820, 528.6226
151.4641, 525.7740
151.9462, 522.3401
152.4284, 518.7189
152.9105, 515.0328
153.3926, 511.3745
153.8747, 507.9702
154.3568, 505.4103
154.8389, 504.3833
155.3211, 503.5071
155.8032, 502.6784
156.2853, 501.9658
156.7674, 501.5224
157.2495, 501.4410
157.7316, 501.5973
158.2138, 501.4545
158.6959, 500.8645
159.1780, 500.1921
159.6601, 499.0946
160.1422, 497.9400
160.6243, 497.7895
161.1065, 499.6465
161.5886, 502.7245
162.0707, 503.6076
162.5528, 500.9041
163.0349, 497.5638
163.5170, 494.9490
163.9991, 493.0507
164.4813, 491.8943
164.9634, 491.8319
165.4455, 492.5017
165.9276, 493.0195
166.4097, 493.4130
166.8918, 493.5262
167.3740, 493.0717
167.8561, 491.9393
168.3382, 490.7656
168.8203, 489.6582
169.3024, 488.7890
169.7845, 488.5179
170.2667, 489.3560
170.7488, 490.6573
171.2309, 490.7602
171.7130, 488.7817
172.1951, 487.2283
172.6772, 487.4222
173.1594, 488.5164
173.6415, 489.3222
174.1236, 489.1262
174.6057, 488.0764
175.0878, 487.0222
175.5699, 485.5063
176.0521, 484.5674
176.5342, 484.8509
177.0163, 485.8739
177.4984, 486.7679
177.9805, 486.8439
178.4626, 486.0919
178.9448, 485.9253
179.4269, 486.8659
179.9090, 487.8716
180.3911, 488.7722
180.8732, 489.4953
181.3553, 489.9688
181.8375, 490.1263
182.3196, 489.9491
182.8017, 489.5584
183.2838, 488.7821
183.7659, 487.9895
184.2480, 487.2703
184.7301, 486.6720
185.2123, 486.3177
185.6944, 486.3821
186.1765, 486.9473
186.6586, 487.1998
187.1407, 487.0103
187.6228, 486.6167
188.1050, 486.0649
188.5871, 485.3840
189.0692, 484.8575
189.5513, 484.8404
190.0334, 485.3233
190.5155, 485.7149
190.9977, 486.0174
191.4798, 486.1711
191.9619, 486.0062
192.4440, 485.4365
192.9261, 484.9109
193.4082, 485.1109
193.8904, 485.7850
194.3725, 486.1012
194.8546, 485.4532
195.3367, 484.3343
195.8188, 483.6396
196.3009, 483.3603
196.7831, 483.7296
197.2652, 485.6292
197.7473, 488.3869
198.2294, 490.1511
198.7115, 489.2669
199.1936, 486.4294
199.6758, 484.6745
200.1579, 484.5707
200.6400, 484.9361
201.1221, 485.2026
201.6042, 485.3797
202.0863, 485.5144
202.5685, 485.6346
203.0506, 485.7392
203.5327, 485.8052
204.0148, 485.5976
204.4969, 485.6143
204.9790, 486.2511
205.4612, 487.2831
205.9433, 488.1867
206.4254, 488.5223
206.9075, 488.2657
207.3896, 487.8946
207.8717, 486.7473
208.3539, 486.0958
208.8360, 486.4454
209.3181, 487.6786
209.8002, 489.4886
210.2823, 491.8331
210.7644, 494.9715
211.2466, 496.1504
211.7287, 493.5173
212.2108, 490.8574
212.6929, 489.6900
213.1750, 489.8934
213.6571, 490.5013
214.1393, 490.6496
214.6214, 490.2581
215.1035, 489.9539
215.5856, 489.9986
216.0677, 489.8877
216.5498, 489.1291
217.0320, 487.8771
217.5141, 486.7270
217.9962, 486.0719
218.4783, 485.8823
218.9604, 487.5512
219.4425, 493.7995
219.9247, 499.4984
220.4068, 501.0426
220.8889, 498.5778
221.3710, 495.0981
221.8531, 492.9909
222.3352, 492.4108
222.8174, 492.0770
223.2995, 492.0568
223.7816, 492.2247
224.2637, 492.6851
224.7458, 493.4007
225.2279, 493.7975
225.7100, 493.2118
226.1922, 491.7915
226.6743, 490.8482
227.1564, 490.5945
227.6385, 490.7692
228.1206, 491.3237
228.6027, 492.2720
229.0849, 493.0531
229.5670, 493.0163
230.0491, 492.4924
230.5312, 492.4102
231.0133, 493.4927
231.4954, 494.7681
231.9776, 494.8854
232.4597, 493.6407
232.9418, 492.6740
233.4239, 493.3755
233.9060, 494.9834
234.3881, 496.3935
234.8703, 497.2800
235.3524, 497.8928
235.8345, 498.5729
236.3166, 499.3508
236.7987, 500.0798
237.2808, 500.7632
237.7630, 501.3325
238.2451, 501.6442
238.7272, 501.5324
239.2093, 501.3202
239.6914, 501.5538
240.1735, 502.3548
240.6557, 503.2235
241.1378, 504.0055
241.6199, 504.7429
242.1020, 505.4542
242.5841, 506.1292
243.0662, 506.8296
243.5484, 507.6326
244.0305, 508.4890
244.5126, 509.6011
244.9947, 511.1850
245.4768, 512.9396
245.9589, 514.6556
246.4410, 516.2722
246.9232, 517.7462
247.4053, 518.9824
247.8874, 519.8275
248.3695, 520.7942
248.8516, 521.8420
249.3337, 523.0930
249.8159, 524.7252
250.2980, 526.7829
250.7801, 529.0141
251.2622, 531.0388
251.7443, 532.8348
252.2264, 534.4207
252.7086, 535.0527
253.1907, 535.9774
253.6728, 538.3090
254.1549, 542.2387
254.6370, 546.8615
255.1191, 550.6631
255.6013, 552.5349
256.0834, 556.0636
256.5655, 562.2591
257.0476, 569.1058
257.5297, 575.0938
258.0118, 580.0540
258.4940, 585.1384
258.9761, 591.9482
259.4582, 601.1321
259.9403, 610.5424
260.4224, 620.7535
260.9045, 630.7953
261.3867, 640.1222
261.8688, 648.6740
262.3509, 656.5701
262.8330, 664.0651
263.3151, 671.4090
263.7972, 677.2422
264.2794, 683.2731
264.7615, 686.7582
265.2436, 686.0377
265.7257, 681.1794
266.2078, 673.1166
266.6899, 662.3452
267.1721, 648.1937
267.6542, 635.8682
268.1363, 626.1208
268.6184, 617.0971
269.1005, 608.1046
269.5826, 599.0784
270.0648, 590.0805
270.5469, 580.9907
271.0290, 571.8041
271.5111, 564.6268
271.9932, 560.5682
272.4753, 556.9649
272.9575, 552.4926
273.4396, 547.5111
273.9217, 543.2753
274.4038, 540.7269
274.8859, 539.6983
275.3680, 538.1906
275.8501, 535.7432
276.3322, 533.4315
276.8144, 531.4464
277.2965, 529.8559
277.7786, 528.8974
278.2607, 528.8093
278.7428, 529.2892
279.2249, 528.9930
279.7071, 527.2955
280.1892, 525.7263
280.6713, 524.8400
281.1534, 524.3181
281.6355, 523.5917
282.1176, 522.4109
282.5998, 520.9130
283.0819, 519.4073
283.5640, 517.4996
284.0461, 516.2717
284.5282, 516.5941
285.0103, 517.5639
285.4925, 517.7413
285.9746, 516.5916
286.4567, 514.9182
286.9388, 514.0575
287.4209, 514.1240
287.9030, 514.5085
288.3852, 515.5662
288.8673, 516.7185
289.3494, 517.2177
289.8315, 516.8837
290.3136, 516.1083
290.7957, 515.1836
291.2779, 514.0193
291.7600, 513.5266
292.2421, 514.3240
292.7242, 515.5336
293.2063, 516.4752
293.6884, 517.0483
294.1706, 517.0374
294.6527, 515.9565
295.1348, 513.8142
295.6169, 512.5803
296.0990, 512.8891
296.5811, 513.7208
297.0633, 514.4560
297.5454, 515.0333
298.0275, 515.3445
298.5096, 515.2018
298.9917, 514.7077
299.4738, 514.5460
299.9560, 515.0969
300.4381, 515.6288
300.9202, 515.6003
301.4023, 515.1348
301.8844, 514.8302
302.3665, 515.0505
302.8487, 515.6086
303.3308, 515.9075
303.8129, 515.7372
304.2950, 515.6693
304.7771, 516.2195
305.2592, 517.0847
305.7414, 517.3476
306.2235, 516.4643
306.7056, 515.1902
307.1877, 515.2211
307.6698, 516.9951
308.1519, 518.1190
308.6341, 517.1918
309.1162, 515.2437
309.5983, 514.0385
310.0804, 514.0560
310.5625, 514.7557
311.0446, 515.5886
311.5268, 516.5694
312.0089, 517.4096
312.4910, 518.0405
312.9731, 518.5043
313.4552, 518.7661
313.9373, 518.8069
314.4195, 518.9465
314.9016, 519.6493
315.3837, 520.8390
315.8658, 521.4311
316.3479, 520.7389
316.8300, 519.8401
317.3121, 519.8201
317.7943, 520.6302
318.2764, 521.1115
318.7585, 520.2092
319.2406, 518.3819
319.7227, 517.7831
320.2048, 519.2308
320.6870, 521.0465
321.1691, 522.4852
321.6512, 523.5697
322.1333, 524.4156
322.6154, 525.1031
323.0975, 525.5349
323.5797, 525.3706
324.0618, 524.1976
324.5439, 523.4129
325.0260, 523.9450
325.5081, 525.1406
325.9902, 525.6655
326.4724, 525.0040
326.9545, 523.9288
327.4366, 523.7802
327.9187, 524.7857
328.4008, 525.2390
328.8829, 524.4265
329.3651, 523.0803
329.8472, 521.9880
330.3293, 521.2841
330.8114, 520.8181
331.2935, 520.4266
331.7756, 520.1188
332.2578, 520.1097
332.7399, 520.7672
333.2220, 521.4491
333.7041, 521.4987
334.1862, 521.0059
334.6683, 520.8130
335.1505, 521.6309
335.6326, 523.2606
336.1147, 524.1819
336.5968, 524.1602
337.0789, 523.7908
337.5610, 523.0237
338.0432, 522.0911
338.5253, 521.6553
339.0074, 522.1395
339.4895, 523.0357
339.9716, 522.8441
340.4537, 520.6123
340.9359, 519.1818
341.4180, 519.7082
341.9001, 521.1085
342.3822, 521.8731
342.8643, 521.5671
343.3464, 521.0641
343.8286, 521.6860
344.3107, 524.1883
344.7928, 525.5278
345.2749, 524.8134
345.7570, 523.5269
346.2391, 522.7185
346.7213, 522.5013
347.2034, 522.5169
347.6855, 522.4905
348.1676, 522.4248
348.6497, 522.1736
349.1318, 521.1642
349.6140, 520.5712
350.0961, 521.2673
350.5782, 522.7918
351.0603, 524.0306
351.5424, 524.2991
352.0245, 523.8559
352.5067, 523.8129
352.9888, 524.4225
353.4709, 525.1151
353.9530, 525.5652
354.4351, 526.1615
354.9172, 527.6965
355.3994, 530.3908
355.8815, 533.1688
356.3636, 534.1281
356.8457, 531.7991
357.3278, 530.5941
357.8099, 531.5919
358.2920, 532.7944
358.7741, 532.3339
359.2563, 530.3950
359.7384, 529.0041
360.2205, 530.3759
360.7026, 534.9792
361.1847, 537.7746
361.6668, 537.5691
362.1490, 536.9271
362.6311, 536.1241
363.1132, 535.5538
363.5953, 536.0278
364.0774, 538.1883
364.5595, 541.3110
365.0417, 542.2424
365.5238, 539.1066
366.0059, 536.2155
366.4880, 533.5002
366.9701, 531.5442
367.4522, 531.1743
367.9344, 532.5721
368.4165, 534.7488
368.8986, 536.3301
369.3807, 537.4877
369.8628, 537.4933
370.3449, 535.0439
370.8271, 532.5914
371.3092, 531.4883
371.7913, 531.6777
372.2734, 532.2033
372.7555, 532.1906
373.2376, 531.6708
373.7198, 531.6659
374.2019, 532.6415
374.6840, 533.5905
375.1661, 534.0894
375.6482, 534.3668
376.1303, 534.7566
376.6125, 535.4042
377.0946, 536.3006
377.5767, 537.4030
378.0588, 538.6539
378.5409, 540.2821
379.0230, 543.5658
379.5052, 546.5150
379.9873, 547.2196
380.4694, 545.3255
380.9515, 542.7260
381.4336, 541.0289
381.9157, 540.2280
382.3979, 540.4456
382.8800, 542.4084
383.3621, 544.5882
383.8442, 545.9053
384.3263, 546.5332
384.8084, 547.1725
385.2906, 548.2686
385.7727, 549.6131
386.2548, 550.7002
386.7369, 551.4416
387.2190, 552.2325
387.7011, 553.3792
388.1833, 554.7020
388.6654, 555.9286
389.1475, 556.8985
389.6296, 557.9666
390.1117, 559.3621
390.5938, 561.1030
391.0760, 563.3010
391.5581, 566.0792
392.0402, 569.2541
392.5223, 572.7724
393.0044, 576.7252
393.4865, 580.0609
393.9687, 581.6646
394.4508, 582.6173
394.9329, 584.6995
395.4150, 588.2454
395.8971, 592.2552
396.3792, 596.0500
396.8614, 599.5887
397.3435, 602.7496
397.8256, 605.6191
398.3077, 608.0556
398.7898, 609.9369
399.2719, 611.3005
399.7540, 612.3857
400.2361, 613.4277
400.7183, 614.0789
401.2004, 613.1883
401.6825, 610.2853
402.1646, 606.9611
402.6467, 603.2039
403.1288, 599.2940
403.6110, 595.5248
404.0931, 591.9891
404.5752, 588.6644
405.0573, 585.5038
405.5394, 582.4808
406.0215, 579.9576
406.5037, 578.8932
406.9858, 577.3735
407.4679, 573.9367
407.9500, 569.2296
408.4321, 564.9672
408.9142, 562.2084
409.3964, 560.6553
409.8785, 558.8612
410.3606, 556.0437
410.8427, 554.0416
411.3248, 553.4299
411.8069, 553.4436
412.2891, 553.3497
412.7712, 552.9589
413.2533, 552.5863
413.7354, 552.8057
414.2175, 553.9890
414.6996, 554.2566
415.1818, 552.5863
415.6639, 550.9294
416.1460, 549.8926
416.6281, 549.4805
417.1102, 549.5316
417.5923, 549.9408
418.0745, 550.7326
418.5566, 552.1445
419.0387, 554.6745
419.5208, 556.6908
420.0029, 557.7672
420.4850, 558.0989
420.9672, 557.6024
421.4493, 556.2322
421.9314, 554.7781
422.4135, 553.9966
422.8956, 553.8734
423.3777, 554.0923
423.8599, 554.7384
424.3420, 555.5562
424.8241, 556.3585
425.3062, 557.1577
425.7883, 558.0042
426.2704, 558.9932
426.7526, 560.0129
427.2347, 560.6924
427.7168, 560.9852
428.1989, 561.8610
428.6810, 564.0253
429.1631, 567.0481
429.6453, 569.7836
430.1274, 571.9659
430.6095, 574.4614
431.0916, 577.8010
431.5737, 581.7237
432.0558, 585.6230
432.5380, 589.2703
433.0201, 593.2934
433.5022, 598.5319
433.9843, 605.1646
434.4664, 611.7032
434.9485, 618.7350
435.4307, 625.1143
435.9128, 630.6008
436.3949, 634.8399
436.8770, 636.9500
437.3591, 636.4111
437.8412, 633.3867
438.3234, 628.4531
438.8055, 620.1888
439.2876, 611.7744
439.7697, 602.7655
440.2518, 594.0943
440.7339, 586.6229
441.2160, 580.5764
441.6982, 575.6751
442.1803, 571.6547
442.6624, 568.4935
443.1445, 566.3243
443.6266, 566.2188
444.1087, 566.0148
444.5909, 565.0726
445.0730, 563.5883
445.5551, 561.8177
446.0372, 559.8351
446.5193, 557.9902
447.0014, 557.1885
447.4836, 557.8459
447.9657, 558.3085
448.4478, 557.9485
448.9299, 557.5370
449.4120, 557.6602
449.8941, 558.2946
450.3763, 558.8595
450.8584, 558.6658
451.3405, 557.9846
451.8226, 558.1331
452.3047, 559.5261
452.7868, 560.7591
453.2690, 560.8846
453.7511, 560.3483
454.2332, 559.6682
454.7153, 558.8124
455.1974, 558.1061
455.6795, 557.7087
456.1617, 557.6592
456.6438, 558.2642
457.1259, 559.8624
457.6080, 561.6137
458.0901, 562.4225
458.5722, 562.3392
459.0544, 561.8511
459.5365, 560.4196
460.0186, 559.0709
460.5007, 558.8077
460.9828, 559.5440
461.4649, 560.5643
461.9471, 561.5357
462.4292, 562.3582
462.9113, 562.6078
463.3934, 561.8278
463.8755, 561.1172
464.3576, 560.5475
464.8398, 560.1250
465.3219, 559.8871
465.8040, 559.8225
466.2861, 559.8323
466.7682, 559.7785
467.2503, 559.6154
467.7325, 559.8068
468.2146, 560.5995
468.6967, 561.4872
469.1788, 562.5326
469.6609, 563.5336
470.1430, 564.1581
470.6252, 564.2487
471.1073, 564.0998
471.5894, 564.2054
472.0715, 564.5870
472.5536, 565.1451
473.0357, 566.2603
473.5179, 567.2084
474.0000, 567.6119
474.4821, 567.4827
474.9642, 566.9737
475.4463, 565.8275
475.9284, 564.4867
476.4106, 564.0061
476.8927, 564.5095
477.3748, 565.1063
477.8569, 565.4019
478.3390, 565.5372
478.8211, 565.7067
479.3033, 565.8776
479.7854, 566.2207
480.2675, 566.9939
480.7496, 567.9513
481.2317, 568.6504
481.7138, 569.0098
482.1959, 569.1714
482.6780, 569.2011
483.1602, 569.1077
483.6423, 569.2076
484.1244, 569.6584
484.6065, 570.1166
485.0886, 570.3764
485.5707, 570.5641
486.0529, 570.9879
486.5350, 571.7598
487.0171, 572.5427
487.4992, 572.7430
487.9813, 572.0450
488.4634, 571.6308
488.9456, 571.6425
489.4277, 571.7539
489.9098, 571.7269
490.3919, 571.6754
490.8740, 571.9698
491.3561, 572.9206
491.8383, 574.1117
492.3204, 574.1954
492.8025, 572.4749
493.2846, 571.5798
493.7667, 572.8325
494.2488, 574.5460
494.7310, 575.6232
495.2131, 576.0154
495.6952, 576.3606
496.1773, 577.2823
496.6594, 578.4708
497.1415, 579.0578
497.6237, 578.9690
498.1058, 578.4948
498.5879, 577.2162
499.0700, 575.8860
499.5521, 575.9275
500.0342, 577.7486
500.5164, 580.1104
500.9985, 583.1064
501.4806, 586.0558
501.9627, 587.5467
502.4448, 587.2708
502.9269, 586.5746
503.4091, 586.7828
503.8912, 587.9396
504.3733, 588.4240
504.8554, 587.2413
505.3375, 586.5734
505.8196, 587.5207
506.3018, 589.3845
506.7839, 590.9777
507.2660, 591.8951
507.7481, 592.8198
508.2302, 594.9452
508.7123, 598.8749
509.1945, 601.8228
509.6766, 602.5938
510.1587, 603.5671
510.6408, 605.9719
511.1229, 609.2060
511.6050, 612.0272
512.0872, 613.7886
512.5693, 614.9553
513.0514, 616.2666
513.5335, 617.7052
514.0156, 619.5400
514.4977, 622.6234
514.9799, 625.2972
515.4620, 626.2914
515.9441, 625.6974
516.4262, 624.2402
516.9083, 621.7386
517.3904, 618.8077
517.8726, 616.1208
518.3547, 613.6959
518.8368, 611.6034
519.3189, 609.9550
519.8010, 608.5635
520.2831, 607.1249
520.7653, 605.8636
521.2474, 603.9429
521.7295, 600.3773
522.2116, 596.6910
522.6937, 594.3724
523.1758, 593.3647
523.6580, 592.5302
524.1401, 590.9963
524.6222, 589.0521
525.1043, 588.2130
525.5864, 589.6577
526.0685, 590.5601
526.5507, 590.4873
527.0328, 589.9435
527.5149, 589.1057
527.9970, 588.1409
528.4791, 587.5072
528.9612, 587.8927
529.4434, 589.0066
529.9255, 588.8586
530.4076, 586.7214
530.8897, 585.0199
531.3718, 585.3024
531.8539, 586.3201
532.3361, 586.8353
532.8182, 586.6275
533.3003, 586.2009
533.7824, 585.6603
534.2645, 585.1804
534.7466, 585.2438
535.2288, 585.9515
535.7109, 586.6793
536.1930, 586.9744
536.6751, 586.8797
537.1572, 586.7284
537.6393, 586.4555
538.1215, 586.2080
538.6036, 586.0637
539.0857, 585.9482
539.5678, 585.8088
540.0499, 585.6160
540.5320, 585.2415
541.0142, 584.4377
541.4963, 583.1619
541.9784, 582.8793
542.4604, 584.5305
542.9426, 586.0994
543.4247, 587.3970
543.9068, 588.2980
544.3889, 588.5687
544.8710, 588.1774
545.3531, 587.5735
545.8353, 587.1292
546.3174, 586.8593
546.7995, 587.0275
547.2816, 587.8351
547.7637, 588.6796
548.2458, 589.3334
548.7280, 589.7432
549.2101, 589.6991
549.6922, 588.8672
550.1743, 588.2218
550.6564, 588.6449
551.1385, 589.6480
551.6207, 590.1803
552.1028, 590.0187
552.5849, 589.6299
553.0670, 589.4116
553.5491, 589.3668
554.0313, 589.4593
554.5134, 589.8339
554.9955, 590.1571
555.4776, 590.2013
555.9597, 590.2090
556.4418, 590.5527
556.9240, 591.2921
557.4061, 592.0597
557.8882, 592.3763
558.3703, 592.2111
558.8524, 592.3829
559.3345, 593.1715
559.8167, 593.8886
560.2988, 594.4213
560.7809, 594.7057
561.2630, 594.5359
561.7451, 593.8057
562.2272, 593.1936
562.7094, 593.4828
563.1915, 594.3783
563.6736, 594.8392
564.1557, 594.6745
564.6378, 594.4523
565.1199, 594.6243
565.6021, 595.0742
566.0842, 595.2578
566.5663, 594.8269
567.0484, 594.6354
567.5305, 595.1544
568.0126, 595.9935
568.4948, 596.8964
568.9769, 597.7043
569.4590, 597.8397
569.9411, 596.5535
570.4232, 593.9907
570.9053, 593.0345
571.3875, 595.4025
571.8696, 597.1028
572.3517, 597.1441
572.8338, 596.5179
573.3159, 595.9901
573.7980, 595.7549
574.2802, 595.8467
574.7623, 596.4289
575.2444, 597.3788
575.7265, 598.2070
576.2086, 598.9158
576.6907, 599.4885
577.1729, 599.8823
577.6550, 600.1402
578.1371, 600.3678
578.6192, 600.6022
579.1013, 600.6464
579.5834, 600.1318
580.0656, 599.5627
580.5477, 599.5253
581.0298, 600.0323
581.5119, 600.8235
581.9940, 601.7836
582.4761, 602.8104
582.9583, 603.5681
583.4404, 604.0925
583.9225, 604.2534
584.4046, 603.7536
584.8867, 603.1553
585.3688, 602.4335
585.8510, 601.9116
586.3331, 602.4736
586.8152, 604.9714
587.2973, 608.3271
587.7794, 609.9446
588.2615, 609.5847
588.7437, 609.0699
589.2258, 608.5488
589.7079, 608.3386
590.1900, 608.7966
590.6721, 609.8392
591.1542, 610.9382
591.6364, 612.0402
592.1185, 613.0494
592.6006, 613.9294
593.0827, 614.6468
593.5648, 614.9577
594.0469, 614.7260
594.5291, 614.5720
595.0112, 615.3854
595.4933, 617.3621
595.9754, 619.4890
596.4575, 622.6078
596.9396, 624.9367
597.4218, 625.4909
597.9039, 625.0039
598.3860, 624.2277
598.8681, 623.4733
599.3502, 623.4388
599.8323, 625.2598
600.3145, 628.8681
600.7966, 632.2718
601.2787, 635.4408
601.7608, 638.2530
602.2429, 640.1692
602.7250, 641.8094
603.2072, 643.9861
603.6893, 646.6299
604.1714, 650.3145
604.6535, 656.0416
605.1356, 662.6938
605.6177, 668.5475
606.0999, 673.4467
606.5820, 678.4867
607.0641, 684.6326
607.5462, 691.3058
608.0283, 695.9550
608.5104, 698.7859
608.9926, 699.0135
609.4747, 695.7072
609.9568, 690.6375
610.4389, 684.7928
610.9210, 678.3254
611.4031, 670.9396
611.8853, 662.0280
612.3674, 652.7756
612.8495, 645.5510
613.3316, 640.3851
613.8137, 636.5955
614.2958, 634.5431
614.7780, 633.1078
615.2601, 631.1025
615.7422, 628.6504
616.2243, 626.5637
616.7064, 625.0177
617.1885, 623.8725
617.6707, 623.0213
618.1528, 622.5104
618.6349, 622.6066
619.1170, 623.3573
619.5991, 624.1132
620.0812, 624.0716
620.5634, 623.1666
621.0455, 622.4423
621.5276, 621.9532
622.0097, 621.5915
622.4918, 621.4221
622.9739, 621.3200
623.4561, 621.0803
623.9382, 620.6962
624.4203, 620.5128
624.9023, 621.1019
625.3845, 622.0663
625.8666, 622.1180
626.3487, 621.1249
626.8308, 620.5644
627.3129, 621.2685
627.7950, 622.6412
628.2772, 623.6166
628.7593, 624.2013
629.2414, 624.4989
629.7235, 624.2429
630.2056, 623.9559
630.6877, 624.0043
631.1699, 624.3183
631.6520, 624.6140
632.1341, 624.7594
632.6162, 625.0147
633.0983, 626.0192
633.5804, 628.1119
634.0626, 629.1816
634.5447, 628.3367
635.0268, 627.5850
635.5089, 628.0623
635.9910, 629.0986
636.4731, 629.5635
636.9553, 629.0248
637.4374, 628.6632
637.9195, 629.7578
638.4016, 631.4715
638.8837, 632.0339
639.3658, 631.2843
639.8480, 630.6402
640.3301, 631.0938
640.8122, 632.2454
641.2943, 632.7592
641.7764, 632.0189
642.2585, 631.5129
642.7407, 631.3513
643.2228, 631.3207
643.7049, 631.2194
644.1870, 631.1370
644.6691, 631.2365
645.1512, 631.5441
645.6334, 632.3569
646.1155, 634.6346
646.5976, 638.3577
647.0797, 640.6816
647.5618, 640.7053
648.0439, 640.2844
648.5261, 640.8304
649.0082, 642.0611
649.4903, 643.0441
649.9724, 643.2553
650.4545, 643.9177
650.9366, 646.0067
651.4188, 648.5294
651.9009, 650.1349
652.3830, 650.8011
652.8651, 651.5302
653.3472, 653.0546
653.8293, 655.2267
654.3115, 657.5523
654.7936, 660.0853
655.2757, 662.6144
655.7578, 664.8270
656.2399, 667.2810
656.7220, 670.2032
657.2042, 673.6317
657.6863, 677.6229
658.1684, 682.3970
658.6505, 687.4454
659.1326, 692.2816
659.6147, 697.0016
660.0969, 702.0102
660.5790, 707.3916
661.0611, 712.7744
661.5432, 717.9391
662.0253, 722.8514
662.5074, 727.0201
662.9896, 730.1986
663.4717, 732.9400
663.9538, 735.8989
664.4359, 737.9908
664.9180, 738.3603
665.4001, 737.0385
665.8823, 734.4896
666.3644, 730.7827
666.8465, 726.3523
667.3286, 721.7972
667.8107, 717.1270
668.2928, 712.5320
668.7750, 707.7870
669.2571, 703.8292
669.7392, 701.8814
670.2213, 701.7601
670.7034, 701.2806
671.1855, 700.0706
671.6677, 698.9080
672.1498, 698.4056
672.6319, 697.8585
673.1140, 696.5149
673.5961, 694.2875
674.0782, 691.5257
674.5604, 688.5134
675.0425, 685.1035
675.5246, 680.4689
676.0067, 674.0562
676.4888, 668.9376
676.9709, 666.2681
677.4531, 664.4456
677.9352, 662.1223
678.4173, 659.5300
678.8994, 657.5474
679.3815, 656.9908
679.8636, 656.3067
680.3458, 653.9377
680.8279, 651.1019
681.3100, 650.0208
681.7921, 650.8935
682.2742, 651.8534
682.7563, 651.3496
683.2385, 649.6938
683.7206, 648.3775
684.2027, 647.3209
684.6848, 646.7751
685.1669, 647.2049
685.6490, 647.7765
686.1312, 648.2197
686.6133, 648.4129
687.0954, 648.0386
687.5775, 646.6165
688.0596, 645.2349
688.5417, 644.9578
689.0239, 645.4459
689.5060, 646.0287
689.9881, 646.5753
690.4702, 646.8671
690.9523, 646.6678
691.4344, 646.1276
691.9166, 646.0071
692.3987, 646.7305
692.8808, 647.2049
693.3629, 647.4111
693.8450, 647.3426
694.3271, 646.8200
694.8093, 646.0262
695.2914, 645.3262
695.7735, 644.7822
696.2556, 644.6790
696.7377, 645.4766
697.2198, 646.9867
697.7020, 648.8273
698.1841, 651.0035
698.6662, 652.3928
699.1483, 652.0707
699.6304, 650.4370
700.1125, 649.0001
700.5947, 647.5257
701.0768, 646.6539
701.5589, 646.7990
702.0410, 647.1806
702.5231, 647.5527
703.0052, 647.7538
703.4874, 647.4063
703.9695, 646.2731
704.4516, 645.2781
704.9337, 645.9034
705.4158, 647.7463
705.8979, 648.7848
706.3801, 648.7535
706.8622, 648.4109
707.3442, 648.0702
707.8264, 647.7985
708.3085, 647.7653
708.7906, 647.9352
709.2727, 648.3972
709.7548, 649.6302
710.2369, 650.6893
710.7191, 651.0828
711.2012, 650.8780
711.6833, 650.0078
712.1654, 648.4797
712.6475, 647.2679
713.1296, 647.8709
713.6118, 649.8785
714.0939, 650.9391
714.5760, 650.8599
715.0581, 650.5895
715.5402, 650.3083
716.0223, 650.3339
716.5045, 651.5594
716.9866, 654.4078
717.4687, 655.8281
717.9508, 654.2399
718.4329, 652.5782
718.9150, 652.0914
719.3972, 652.5377
719.8793, 653.8255
720.3614, 655.7392
720.8435, 657.1830
721.3256, 656.8193
721.8077, 655.1716
722.2899, 654.3471
722.7720, 654.4245
723.2541, 654.6215
723.7362, 654.7177
724.2183, 654.7986
724.7004, 655.0246
725.1826, 655.3915
725.6647, 655.4989
726.1468, 654.9499
726.6289, 654.5967
727.1110, 654.7627
727.5931, 655.2807
728.0753, 656.0492
728.5574, 656.9879
729.0395, 657.9455
729.5216, 658.8576
730.0037, 659.6316
730.4858, 659.9700
730.9680, 659.8525
731.4501, 659.8927
731.9322, 660.2923
732.4143, 660.6699
732.8964, 660.7161
733.3785, 660.4639
733.8607, 660.1419
734.3428, 659.5392
734.8249, 659.1894
735.3070, 659.2823
735.7891, 659.5994
736.2712, 660.0826
736.7534, 660.6242
737.2355, 661.0026
737.7176, 661.0997
738.1997, 661.0956
738.6818, 661.2753
739.1639, 661.6139
739.6461, 661.8651
740.1282, 661.9957
740.6103, 662.1212
741.0924, 662.3861
741.5745, 662.6305
742.0566, 662.3304
742.5388, 661.0188
743.0209, 660.7953
743.5030, 662.8735
743.9851, 664.9960
744.4672, 665.9551
744.9493, 666.1797
745.4315, 666.4863
745.9136, 667.0804
746.3957, 667.4517
746.8778, 666.6254
747.3599, 665.2708
747.8420, 665.8959
748.3242, 668.5690
748.8063, 670.2668
749.2884, 669.7483
749.7705, 668.4191
750.2526, 667.6953
750.7347, 667.5702
751.2169, 668.5584
751.6990, 672.7430
752.1811, 675.2409
752.6632, 673.8308
753.1453, 671.1254
753.6274, 669.1647
754.1096, 668.2320
754.5917, 667.9432
755.0738, 668.2204
755.5559, 668.7473
756.0380, 669.1674
756.5201, 669.4664
757.0023, 669.5395
757.4844, 669.3625
757.9665, 669.0614
758.4486, 668.6395
758.9307, 668.2427
759.4128, 668.3716
759.8950, 669.3946
760.3771, 670.2803
760.8592, 670.9241
761.3413, 671.5426
761.8234, 672.2762
762.3055, 673.0352
762.7877, 673.6851
763.2698, 674.1870
763.7519, 674.5671
764.2340, 674.6886
764.7161, 674.7818
765.1982, 675.3708
765.6804, 676.3392
766.1625, 676.9991
766.6446, 677.0956
767.1267, 676.6725
767.6088, 675.6321
768.0909, 673.9006
768.5731, 673.3383
769.0552, 674.7858
769.5373, 676.0319
770.0194, 676.4474
770.5015, 676.6056
770.9836, 677.1072
771.4658, 677.8068
771.9479, 677.8416
772.4300, 676.2468
772.9121, 674.7950
773.3942, 674.9133
773.8763, 675.8947
774.3585, 676.7552
774.8406, 677.3205
775.3227, 677.6691
775.8048, 677.8268
776.2869, 677.9495
776.7690, 678.4948
777.2512, 679.5928
777.7333, 680.2267
778.2154, 680.0367
778.6975, 679.9353
779.1796, 680.5897
779.6617, 681.5686
780.1439, 682.1814
780.6260, 682.4063
781.1081, 682.2881
781.5902, 681.2862
782.0723, 680.4864
782.5544, 680.6689
783.0366, 681.4997
783.5187, 682.5447
784.0008, 683.6006
784.4829, 684.3008
784.9650, 684.0722
785.4471, 683.3741
785.9293, 683.7409
786.4114, 685.1891
786.8935, 686.4906
787.3756, 687.4445
787.8577, 687.8180
788.3398, 687.0667
788.8220, 685.4446
789.3040, 685.1236
789.7861, 687.5463
790.2682, 689.1411
790.7504, 689.2701
791.2325, 688.8489
791.7146, 687.9986
792.1967, 687.1647
792.6788, 687.1124
793.1609, 688.1462
793.6431, 689.7447
794.1252, 692.0784
794.6073, 694.4072
795.0894, 695.2950
795.5715, 694.7552
796.0536, 693.2335
796.5358, 690.8173
797.0179, 688.4562
797.5000, 687.4845
797.9821, 687.9452
798.4642, 688.7119
798.9464, 690.2433
799.4285, 691.2506
799.9106, 690.8314
800.3927, 690.2318
800.8748, 690.4134
801.3569, 691.2643
801.8391, 692.0705
802.3212, 692.5077
802.8033, 693.0729
803.2854, 694.4874
803.7675, 695.8793
804.2496, 695.9202
804.7318, 694.8829
805.2139, 694.1824
805.6960, 694.6039
806.1781, 695.4827
806.6602, 695.6648
807.1423, 695.2297
807.6245, 695.3555
808.1066, 696.2181
808.5887, 696.9769
809.0708, 697.2408
809.5529, 697.2279
810.0350, 697.1912
810.5172, 697.0795
810.9993, 697.3327
811.4814, 698.3976
811.9635, 699.2528
812.4456, 699.4734
812.9277, 699.4672
813.4099, 699.6348
813.8920, 699.9645
814.3741, 700.1603
814.8562, 699.9680
815.3383, 699.8124
815.8204, 700.3370
816.3026, 701.1804
816.7847, 701.3549
817.2668, 700.8558
817.7489, 700.7733
818.2310, 701.7806
818.7131, 703.2338
819.1953, 703.7805
819.6774, 703.1650
820.1595, 703.3002
820.6416, 704.6724
821.1237, 705.8689
821.6058, 706.1982
822.0880, 706.1998
822.5701, 706.4697
823.0522, 707.0035
823.5343, 707.4514
824.0164, 707.8100
824.4985, 707.9901
824.9807, 707.7296
825.4628, 707.4189
825.9449, 707.4749
826.4270, 707.9187
826.9091, 708.6680
827.3912, 709.7844
827.8734, 710.6896
828.3555, 710.1818
828.8376, 708.7178
829.3197, 708.4297
829.8018, 709.5118
830.2839, 710.2489
830.7661, 709.6851
831.2482, 708.6429
831.7303, 708.4929
832.2124, 709.3730
832.6945, 710.1359
833.1766, 710.6902
833.6588, 711.2443
834.1409, 711.9826
834.6230, 712.6229
835.1051, 712.8575
835.5872, 712.7602
836.0693, 712.7600
836.5515, 713.1125
837.0336, 713.3860
837.5157, 713.1799
837.9978, 712.8815
838.4799, 712.8891
838.9620, 713.2369
839.4442, 713.9626
839.9263, 715.0895
840.4084, 716.1038
840.8905, 716.3507
841.3726, 715.8687
841.8547, 714.5342
842.3369, 712.2515
842.8190, 710.7822
843.3011, 710.7451
843.7832, 711.9009
844.2653, 714.3940
844.7474, 718.1520
845.2296, 719.8356
845.7117, 717.5732
846.1938, 715.9362
846.6759, 715.1393
847.1580, 715.2267
847.6401, 717.0818
848.1223, 719.6826
848.6044, 720.7118
849.0865, 719.2835
849.5686, 717.6147
850.0507, 716.7894
850.5328, 716.3954
851.0150, 716.1141
851.4971, 715.8912
851.9792, 715.5608
852.4613, 715.1303
852.9434, 715.0963
853.4255, 716.1449
853.9077, 717.7941
854.3898, 718.4346
854.8719, 718.0682
855.3540, 717.6137
855.8361, 717.1356
856.3182, 717.1447
856.8004, 718.2206
857.2825, 719.9223
857.7646, 720.8030
858.2467, 720.1942
858.7288, 720.2036
859.2109, 721.7068
859.6931, 722.7839
860.1752, 722.4962
860.6573, 721.5682
861.1394, 720.6616
861.6215, 719.9156
862.1036, 719.8543
862.5858, 721.5192
863.0679, 723.0502
863.5500, 722.9642
864.0321, 722.0719
864.5142, 721.4787
864.9963, 721.2853
865.4785, 721.0330
865.9606, 720.4399
866.4427, 719.7733
866.9248, 719.5175
867.4069, 719.5709
867.8890, 719.2631
868.3712, 718.5322
868.8533, 718.2171
869.3354, 718.6714
869.8175, 719.7089
870.2996, 721.2738
870.7817, 723.3836
871.2639, 724.0691
871.7459, 722.0472
872.2280, 720.8593
872.7101, 721.7182
873.1923, 722.9940
873.6744, 724.1453
874.1565, 724.9127
874.6386, 724.5769
875.1207, 722.4601
875.6028, 720.9816
876.0850, 721.6017
876.5671, 722.5731
877.0492, 722.4758
877.5313, 721.8613
878.0134, 721.9886
878.4955, 723.0168
878.9777, 723.6712
879.4598, 722.5399
879.9419, 720.9639
880.4240, 721.3378
880.9061, 723.1859
881.3882, 724.8450
881.8704, 726.0367
882.3525, 727.0334
882.8346, 728.0605
883.3167, 728.7381
883.7988, 728.0562
884.2809, 725.7083
884.7631, 724.3639
885.2452, 724.4182
885.7273, 724.4875
886.2094, 723.9758
886.6915, 723.3896
887.1736, 723.3883
887.6558, 723.9185
888.1379, 724.1603
888.6200, 723.6478
889.1021, 723.4684
889.5842, 724.1136
890.0663, 724.8622
890.5485, 725.1724
891.0306, 725.2214
891.5127, 725.4462
891.9948, 725.9781
892.4769, 726.4913
892.9590, 727.0644
893.4412, 727.2790
893.9233, 726.1869
894.4054, 724.5270
894.8875, 724.0936
895.3696, 725.0707
895.8517, 725.8625
896.3339, 725.2083
896.8160, 723.9051
897.2981, 723.5956
897.7802, 724.1806
898.2623, 724.6656
898.7444, 724.9535
899.2266, 725.2433
899.7087, 725.6767
900.1908, 725.9812
900.6729, 725.5862
901.1550, 724.3997
901.6371, 724.6426
902.1193, 727.5137
902.6014, 729.5886
903.0835, 730.1254
903.5656, 729.7659
904.0477, 728.4506
904.5298, 726.6467
905.0120, 725.5568
905.4941, 725.4277
905.9762, 725.6889
906.4583, 726.8191
906.9404, 727.6609
907.4225, 726.9471
907.9047, 725.8173
908.3868, 725.8309
908.8689, 727.2070
909.3510, 729.2704
909.8331, 732.3688
910.3152, 734.7888
910.7974, 734.1495
911.2795, 731.8500
911.7616, 730.3572
912.2437, 729.8560
912.7258, 729.5399
913.2079, 729.0260
913.6901, 728.6009
914.1722, 728.6541
914.6543, 729.1341
915.1364, 729.9493
915.6185, 731.1314
916.1006, 731.4744
916.5828, 730.4808
917.0649, 729.5016
917.5470, 729.7107
918.0291, 730.7667
918.5112, 731.4528
918.9933, 731.8379
919.4755, 731.6742
919.9576, 730.5583
920.4397, 729.4886
920.9218, 728.6911
921.4039, 728.2547
921.8860, 728.3615
922.3682, 728.9969
922.8503, 729.7418
923.3324, 730.7493
923.8145, 731.5773
924.2966, 731.9406
924.7787, 732.2186
925.2609, 732.6472
925.7430, 733.2367
926.2251, 734.1169
926.7072, 735.3477
927.1893, 735.9931
927.6714, 734.8519
928.1536, 733.3384
928.6357, 732.7051
929.1178, 732.8376
929.5999, 733.5798
930.0820, 734.7946
930.5641, 736.2193
931.0463, 737.7828
931.5284, 738.9212
932.0105, 738.5229
932.4926, 736.9169
932.9747, 735.1025
933.4568, 733.2239
933.9390, 732.7728
934.4211, 734.4205
934.9032, 736.5322
935.3853, 737.3702
935.8674, 737.0866
936.3495, 736.2657
936.8317, 734.3711
937.3138, 734.5781
937.7959, 738.4594
938.2780, 741.7347
938.7601, 741.6815
939.2422, 739.8992
939.7244, 739.2584
940.2065, 740.0150
940.6886, 740.3718
941.1707, 739.8890
941.6528, 739.6086
942.1349, 740.1011
942.6171, 740.5156
943.0992, 739.8505
943.5813, 738.6512
944.0634, 738.4756
944.5455, 739.9538
945.0276, 741.2028
945.5098, 741.5189
945.9919, 741.4482
946.4740, 740.9998
946.9561, 740.5881
947.4382, 740.6592
947.9203, 741.3078
948.4025, 742.6282
948.8846, 745.1213
949.3667, 747.1350
949.8488, 746.4911
950.3309, 744.7006
950.8130, 744.1379
951.2952, 744.6225
951.7773, 744.9324
952.2594, 744.6412
952.7415, 744.0419
953.2236, 743.2159
953.7057, 742.5260
954.1878, 743.1476
954.6699, 744.8288
955.1520, 745.9042
955.6342, 746.1443
956.1163, 745.9303
956.5984, 745.3853
957.0805, 744.9821
957.5626, 745.6136
958.0447, 747.2554
958.5269, 748.0691
959.0090, 747.9334
959.4911, 747.4029
959.9732, 746.2219
960.4553, 745.5911
960.9374, 746.7905
961.4196, 748.9766
961.9017, 749.7133
962.3838, 748.4005
962.8659, 747.4611
963.3480, 746.6145
963.8301, 746.5231
964.3123, 748.0554
964.7944, 749.8134
965.2765, 750.5018
965.7586, 750.3303
966.2407, 750.4196
966.7228, 751.1617
967.2050, 751.6516
967.6871, 751.6413
968.1692, 751.3924
968.6513, 750.9343
969.1334, 750.4058
969.6155, 750.0004
970.0977, 749.7227
970.5798, 749.3577
971.0619, 748.5623
971.5440, 748.0806
972.0261, 748.7694
972.5082, 749.7118
972.9904, 749.8036
973.4725, 749.3472
973.9546, 749.1886
974.4367, 749.5790
974.9188, 750.2064
975.4009, 750.9661
975.8831, 751.6588
976.3652, 752.0939
976.8473, 752.2262
977.3294, 751.7375
977.8115, 750.7836
978.2936, 750.1797
978.7758, 750.3094
979.2579, 750.9946
979.7400, 752.2766
980.2221, 753.8472
980.7042, 754.5631
981.1863, 754.5172
981.6685, 754.3899
982.1506, 754.3214
982.6327, 754.4069
983.1148, 754.7528
983.5969, 755.0944
984.0790, 754.7556
984.5612, 753.7288
985.0433, 753.7467
985.5254, 755.0020
986.0075, 756.1791
986.4896, 756.9503
986.9717, 757.4947
987.4539, 757.8944
987.9360, 758.2312
988.4181, 758.8275
988.9002, 759.9244
989.3823, 760.3619
989.8644, 759.7680
990.3466, 759.2092
990.8287, 758.8878
991.3108, 758.8767
991.7929, 759.3817
992.2750, 760.2952
992.7571, 760.9591
993.2393, 761.1917
993.7214, 761.5154
994.2035, 762.4314
994.6856, 762.8610
995.1677, 761.8350
995.6498, 760.5042
996.1320, 760.1276
996.6141, 760.6611
997.0962, 761.2756
997.5783, 761.9505
998.0604, 762.4612
998.5425, 762.6091
999.0247, 762.7106
999.5068, 762.8223
999.9889, 763.0800
1000.471, 763.9198
1000.953, 765.2376
1001.435, 765.7912
1001.917, 764.4854
1002.399, 763.1790
1002.882, 762.7880
1003.364, 762.9396
1003.846, 763.3811
1004.328, 764.0605
1004.810, 765.3113
1005.292, 767.0370
1005.774, 767.7006
1006.256, 765.2404
1006.739, 762.8007
1007.221, 763.5460
1007.703, 766.0333
1008.185, 769.0752
1008.667, 771.8787
1009.149, 772.8650
1009.631, 771.5638
1010.113, 769.3783
1010.595, 766.9445
1011.078, 765.0010
1011.560, 764.9898
1012.042, 766.2523
1012.524, 767.3867
1013.006, 768.2067
1013.488, 768.7450
1013.970, 769.0397
1014.452, 769.8278
1014.935, 772.5706
1015.417, 775.9191
1015.899, 775.8906
1016.381, 773.2974
1016.863, 772.0458
1017.345, 772.6253
1017.827, 773.3615
1018.309, 773.4053
1018.791, 773.0842
1019.274, 772.8328
1019.756, 772.6154
1020.238, 772.0711
1020.720, 771.2407
1021.202, 771.1562
1021.684, 772.0244
1022.166, 773.2396
1022.648, 774.5270
1023.130, 775.5914
1023.613, 775.7924
1024.095, 775.2337
1024.577, 776.0742
1025.059, 778.6833
1025.541, 779.1545
1026.023, 776.2131
1026.505, 773.5394
1026.987, 773.4678
1027.469, 774.9485
1027.952, 775.9949
1028.434, 776.5522
1028.916, 778.5198
1029.398, 782.9393
1029.880, 784.9362
1030.362, 782.8016
1030.844, 779.9443
1031.326, 778.3733
1031.809, 777.7735
1032.291, 777.5768
1032.773, 777.8649
1033.255, 777.8624
1033.737, 777.0099
1034.219, 777.1844
1034.701, 779.3815
1035.183, 781.7180
1035.666, 782.9188
1036.148, 783.4278
1036.630, 784.2383
1037.112, 785.5508
1037.594, 785.9478
1038.076, 783.5675
1038.558, 783.2943
1039.040, 788.7045
1039.522, 793.4387
1040.005, 792.6581
1040.487, 788.5486
1040.969, 785.4776
1041.451, 783.3648
1041.933, 782.6253
1042.415, 784.5654
1042.897, 786.0490
1043.379, 786.6504
1043.861, 786.4901
1044.344, 784.7639
1044.826, 782.6366
1045.308, 782.6362
1045.790, 785.3525
1046.272, 787.1324
1046.754, 786.9054
1047.236, 786.6639
1047.718, 786.7676
1048.201, 787.1379
1048.683, 788.0740
1049.165, 789.0964
1049.647, 789.1817
1050.129, 788.0977
1050.611, 787.4720
1051.093, 788.1085
1051.575, 788.5568
1052.057, 787.8038
1052.540, 787.2616
1053.022, 788.4786
1053.504, 790.4352
1053.986, 790.9440
1054.468, 789.6469
1054.950, 789.2263
1055.432, 791.2701
1055.914, 793.1076
1056.396, 793.5756
1056.879, 793.7557
1057.361, 794.6801
1057.843, 795.8105
1058.325, 795.9607
1058.807, 794.9845
1059.289, 794.4023
1059.771, 794.9511
1060.253, 795.6576
1060.736, 796.2591
1061.218, 796.7807
1061.700, 797.3968
1062.182, 797.8825
1062.664, 797.6544
1063.146, 796.7217
1063.628, 796.3315
1064.110, 797.5526
1064.593, 798.5203
1065.075, 798.2571
1065.557, 797.6631
1066.039, 796.9378
1066.521, 796.5945
1067.003, 797.5750
1067.485, 799.8302
1067.967, 801.9089
1068.449, 803.6921
1068.932, 804.4642
1069.414, 802.7344
1069.896, 801.0588
1070.378, 801.5377
1070.860, 803.1976
1071.342, 804.7755
1071.824, 805.9608
1072.306, 806.5228
1072.788, 806.0758
1073.271, 805.6791
1073.753, 805.6863
1074.235, 806.0637
1074.717, 806.8783
1075.199, 807.9879
1075.681, 809.3762
1076.163, 810.9118
1076.645, 812.1537
1077.127, 812.9305
1077.610, 813.4888
1078.092, 813.4767
1078.574, 813.8071
1079.056, 815.2111
1079.538, 817.2352
1080.020, 819.6984
1080.502, 822.2391
1080.984, 823.8730
1081.467, 824.0839
1081.949, 824.4525
1082.431, 825.4597
1082.913, 827.1104
1083.395, 829.7596
1083.877, 832.7755
1084.359, 835.1937
1084.841, 837.4286
1085.323, 840.8456
1085.806, 845.8882
1086.288, 851.1109
1086.770, 856.2999
1087.252, 861.0120
1087.734, 863.8597
1088.216, 867.1843
1088.698, 873.7928
1089.180, 882.4133
1089.662, 889.7403
1090.145, 895.1400
1090.627, 901.6915
1091.109, 910.4872
1091.591, 920.8144
1092.073, 932.9576
1092.555, 945.9507
1093.037, 958.8862
1093.519, 972.0827
1094.002, 986.2672
1094.484, 1001.466
1094.966, 1016.935
1095.448, 1034.393
1095.930, 1049.099
1096.412, 1059.557
1096.894, 1066.706
1097.376, 1071.802
1097.859, 1073.652
1098.341, 1070.710
1098.823, 1062.914
1099.305, 1050.879
1099.787, 1033.131
1100.269, 1014.518
1100.751, 994.6931
1101.233, 976.2759
1101.715, 960.4173
1102.198, 946.6178
1102.680, 934.6321
1103.162, 924.2416
1103.644, 914.6603
1104.126, 905.0296
1104.608, 898.5112
1105.090, 897.6750
1105.572, 897.4598
1106.054, 896.0191
1106.537, 894.5889
1107.019, 895.1320
1107.501, 896.2803
1107.983, 894.6318
1108.465, 889.6181
1108.947, 883.6537
1109.429, 875.8553
1109.911, 868.6578
1110.394, 862.8646
1110.876, 857.4973
1111.358, 851.5303
1111.840, 845.7748
1112.322, 841.6741
1112.804, 839.3077
1113.286, 837.3792
1113.768, 835.8143
1114.250, 834.8456
1114.733, 835.3583
1115.215, 835.2719
1115.697, 833.0229
1116.179, 830.3877
1116.661, 829.6851
1117.143, 830.5485
1117.625, 830.1634
1118.107, 827.5922
1118.589, 826.0750
1119.072, 826.1896
1119.554, 826.2285
1120.036, 825.3401
1120.518, 824.7751
1121.000, 825.9055
1121.482, 827.9618
1121.964, 828.5557
1122.446, 827.3033
1122.929, 826.9850
1123.411, 827.9774
1123.893, 828.5150
1124.375, 827.9852
1124.857, 827.6669
1125.339, 828.4424
1125.821, 829.7445
1126.303, 830.5702
1126.786, 830.9608
1127.268, 831.8204
1127.750, 833.2335
1128.232, 834.3117
1128.714, 834.9340
1129.196, 835.1391
1129.678, 834.8575
1130.160, 834.6866
1130.642, 835.3513
1131.125, 836.6141
1131.607, 837.5076
1132.089, 838.0947
1132.571, 839.6086
1133.053, 842.0970
1133.535, 843.9831
1134.017, 844.7906
1134.499, 846.1027
1134.981, 849.2097
1135.464, 853.2184
1135.946, 856.5214
1136.428, 859.3347
1136.910, 862.1516
1137.392, 865.2183
1137.874, 870.0627
1138.356, 876.6656
1138.838, 882.6411
1139.321, 886.7878
1139.803, 890.7343
1140.285, 896.2709
1140.767, 902.9493
1141.249, 910.5827
1141.731, 918.4908
1142.213, 925.6833
1142.695, 931.6390
1143.177, 935.5505
1143.660, 937.0858
1144.142, 935.8552
1144.624, 931.1612
1145.106, 924.6074
1145.588, 917.5209
1146.070, 909.8320
1146.552, 900.8851
1147.034, 891.5284
1147.516, 882.9984
1147.999, 875.6208
1148.481, 869.5144
1148.963, 864.7133
1149.445, 861.1003
1149.927, 859.1534
1150.409, 857.7260
1150.891, 856.1857
1151.373, 854.5526
1151.856, 852.4250
1152.338, 850.3800
1152.820, 850.0668
1153.302, 851.8097
1153.784, 852.3467
1154.266, 849.5673
1154.748, 846.8558
1155.230, 845.0452
1155.713, 843.9567
1156.195, 843.9505
1156.677, 844.2897
1157.159, 843.9882
1157.641, 843.1061
1158.123, 842.4327
1158.605, 841.7103
1159.087, 841.9190
1159.569, 844.4669
1160.052, 846.1015
1160.534, 845.2460
1161.016, 844.0146
1161.498, 843.9824
1161.980, 844.6506
1162.462, 844.8282
1162.944, 844.3677
1163.426, 845.1108
1163.908, 847.7462
1164.391, 849.5408
1164.873, 850.0207
1165.355, 849.8860
1165.837, 849.2913
1166.319, 848.6572
1166.801, 848.4685
1167.283, 848.6670
1167.765, 849.1194
1168.247, 849.8458
1168.730, 850.0770
1169.212, 849.7631
1169.694, 849.6121
1170.176, 849.8172
1170.658, 850.2742
1171.140, 850.9472
1171.622, 851.5810
1172.104, 851.6406
1172.587, 851.3741
1173.069, 851.6969
1173.551, 852.4321
1174.033, 852.8135
1174.515, 852.8668
1174.997, 853.3785
1175.479, 854.5929
1175.961, 855.5741
1176.443, 855.2635
1176.926, 854.9979
1177.408, 857.1048
1177.890, 859.8249
1178.372, 860.5912
1178.854, 859.9401
1179.336, 859.0727
1179.818, 858.2781
1180.300, 857.5187
1180.782, 856.7675
1181.265, 856.1741
1181.747, 855.9516
1182.229, 855.7859
1182.711, 855.3989
1183.193, 855.0463
1183.675, 854.4105
1184.157, 854.2411
1184.639, 856.4459
1185.122, 861.0694
1185.604, 864.1174
1186.086, 863.4141
1186.568, 863.1545
1187.050, 864.8344
1187.532, 866.0889
1188.014, 865.8538
1188.496, 864.7835
1188.979, 862.8747
1189.461, 860.7914
1189.943, 860.6503
1190.425, 862.8953
1190.907, 864.4796
1191.389, 865.3965
1191.871, 865.5865
1192.353, 864.8294
1192.835, 863.8620
1193.318, 862.8599
1193.800, 862.4431
1194.282, 863.5865
1194.764, 865.6948
1195.246, 866.2054
1195.728, 865.2036
1196.210, 864.9758
1196.692, 865.5986
1197.174, 866.3433
1197.657, 867.0334
1198.139, 868.1816
1198.621, 870.1623
1199.103, 871.8887
1199.585, 871.5920
1200.067, 870.2705
1200.549, 869.6080
1201.031, 869.6242
1201.514, 870.9514
1201.996, 872.9155
1202.478, 873.3545
1202.960, 871.8899
1203.442, 870.3627
1203.924, 869.6624
1204.406, 869.7841
1204.888, 871.6335
1205.370, 873.3409
1205.853, 872.9950
1206.335, 871.8674
1206.817, 871.4548
1207.299, 871.6955
1207.781, 871.9367
1208.263, 872.0417
1208.745, 872.3221
1209.227, 873.2611
1209.709, 873.7589
1210.192, 872.8821
1210.674, 872.3405
1211.156, 873.2101
1211.638, 874.6317
1212.120, 876.0360
1212.602, 877.2159
1213.084, 877.2872
1213.566, 875.9257
1214.049, 874.9381
1214.531, 874.0768
1215.013, 874.8334
1215.495, 877.9122
1215.977, 880.5897
1216.459, 881.4118
1216.941, 881.1561
1217.423, 880.5753
1217.906, 879.9952
1218.388, 880.7256
1218.870, 882.3920
1219.352, 882.9662
1219.834, 882.5658
1220.316, 882.2641
1220.798, 882.3730
1221.280, 883.1953
1221.762, 884.9378
1222.245, 886.3225
1222.727, 885.4046
1223.209, 884.1147
1223.691, 884.8275
1224.173, 886.3864
1224.655, 886.9981
1225.137, 887.3440
1225.619, 889.8035
1226.101, 894.0297
1226.584, 895.6473
1227.066, 891.9328
1227.548, 889.1068
1228.030, 890.2093
1228.512, 891.4408
1228.994, 891.0424
1229.476, 890.3357
1229.958, 890.2033
1230.441, 890.5906
1230.923, 891.2506
1231.405, 892.2002
1231.887, 893.9877
1232.369, 896.9505
1232.851, 899.7652
1233.333, 902.5336
1233.815, 904.5154
1234.297, 905.3544
1234.780, 905.9012
1235.262, 906.7393
1235.744, 907.7997
1236.226, 909.1185
1236.708, 910.4803
1237.190, 910.9901
1237.672, 910.7440
1238.154, 909.8825
1238.636, 908.6726
1239.119, 908.3549
1239.601, 909.1202
1240.083, 909.5385
1240.565, 908.6855
1241.047, 907.3057
1241.529, 905.5598
1242.011, 904.2260
1242.493, 904.7957
1242.975, 905.6503
1243.458, 904.3043
1243.940, 901.7975
1244.422, 900.6901
1244.904, 901.3467
1245.386, 902.3445
1245.868, 904.0617
1246.350, 904.7228
1246.832, 902.8790
1247.315, 901.4998
1247.797, 902.0131
1248.279, 902.7762
1248.761, 902.5463
1249.243, 901.8942
1249.725, 901.8634
1250.207, 902.4096
1250.689, 902.9471
1251.172, 903.4788
1251.654, 903.7410
1252.136, 903.6857
1252.618, 904.0762
1253.100, 905.1373
1253.582, 906.2549
1254.064, 907.0253
1254.546, 907.4268
1255.028, 907.1945
1255.510, 906.7469
1255.993, 906.9359
1256.475, 907.4633
1256.957, 907.7409
1257.439, 907.8670
1257.921, 908.2357
1258.403, 908.9032
1258.885, 909.6614
1259.367, 910.5184
1259.850, 911.0945
1260.332, 911.2454
1260.814, 911.0346
1261.296, 909.7012
1261.778, 908.8209
1262.260, 910.1400
1262.742, 912.3815
1263.224, 913.3376
1263.707, 913.2057
1264.189, 913.7803
1264.671, 915.5007
1265.153, 916.3293
1265.635, 915.9719
1266.117, 915.9553
1266.599, 916.6170
1267.081, 917.7782
1267.563, 919.4116
1268.046, 920.8348
1268.528, 921.2305
1269.010, 920.8506
1269.492, 919.7087
1269.974, 918.5096
1270.456, 919.2177
1270.938, 921.4081
1271.420, 924.2264
1271.902, 927.0216
1272.385, 928.2990
1272.867, 927.4807
1273.349, 926.1956
1273.831, 924.5121
1274.313, 923.8652
1274.795, 925.8906
1275.277, 928.1494
1275.759, 928.4589
1276.242, 928.5717
1276.724, 931.4183
1277.206, 935.6898
1277.688, 936.6849
1278.170, 933.8802
1278.652, 932.5626
1279.134, 932.9059
1279.616, 934.2557
1280.099, 936.7460
1280.581, 939.2661
1281.063, 941.4862
1281.545, 942.8483
1282.027, 942.8483
1282.509, 942.1483
1282.991, 941.4015
1283.473, 941.0406
1283.955, 942.1982
##END=



