##NAMES=Alstonite
##RRUFFID=R090049
##IDEAL CHEMISTRY=BaCa(CO_3_)_2_
##LOCALITY=Admiralty flats, Haggs mine, Nentsberry, Cumbria, England
##OWNER=RRUFF
##SOURCE=Bob Jenkins
##DESCRIPTION=Clusters of colorless pyramidal crystals. We have posted cell parameters that match those in the literature, but do not represent the correct cell. The crystals are twinned.
##STATUS=The identification of this mineral is confirmed by single-crystal X-ray diffraction and chemical analysis.
##URL=rruff.info/R090049
##MEASURED CHEMISTRY=Ba_0.99_(Ca_0.99_Sr_0.05_)_Î£=1.04_(CO_3_)_2_
89.78156, 0.0000000E+00
90.26367, 56.58999
90.74579, 56.13499
91.22791, 56.18064
91.71002, 56.70079
92.19214, 57.48613
92.67426, 58.68485
93.15638, 60.06035
93.63850, 60.94405
94.12061, 60.96662
94.60273, 60.39878
95.08485, 59.74196
95.56696, 58.96513
96.04908, 58.34924
96.53120, 58.22302
97.01331, 58.57988
97.49543, 59.25210
97.97755, 60.64212
98.45966, 62.63728
98.94178, 62.99158
99.42390, 61.06233
99.90602, 58.40548
100.3881, 58.29412
100.8703, 61.42426
101.3524, 64.64686
101.8345, 66.36623
102.3166, 66.27939
102.7987, 65.86623
103.2808, 65.03404
103.7630, 63.94736
104.2451, 63.41092
104.7272, 63.71395
105.2093, 64.17846
105.6914, 64.31419
106.1735, 63.68131
106.6557, 63.46839
107.1378, 63.80758
107.6199, 64.70735
108.1020, 66.01808
108.5841, 67.32472
109.0662, 69.27443
109.5484, 72.46034
110.0305, 77.45950
110.5126, 83.15386
110.9947, 89.29646
111.4768, 95.86092
111.9590, 103.2423
112.4411, 111.0720
112.9232, 119.8997
113.4053, 130.1969
113.8874, 141.7284
114.3695, 155.0806
114.8517, 170.1902
115.3338, 186.5818
115.8159, 205.8711
116.2980, 228.5667
116.7801, 254.7061
117.2622, 284.0598
117.7444, 315.2944
118.2265, 350.6854
118.7086, 391.3834
119.1907, 437.3593
119.6728, 489.8790
120.1549, 549.3517
120.6371, 615.8966
121.1192, 690.3232
121.6013, 773.5821
122.0834, 864.1169
122.5655, 960.1523
123.0476, 1064.616
123.5298, 1171.337
124.0119, 1276.144
124.4940, 1378.924
124.9761, 1478.508
125.4582, 1575.402
125.9404, 1667.768
126.4225, 1751.070
126.9046, 1820.123
127.3867, 1880.075
127.8688, 1937.370
128.3509, 1991.641
128.8331, 2046.828
129.3152, 2105.106
129.7973, 2167.427
130.2794, 2236.862
130.7615, 2313.180
131.2436, 2397.533
131.7258, 2493.676
132.2079, 2602.572
132.6900, 2720.846
133.1721, 2844.446
133.6542, 2972.864
134.1364, 3105.962
134.6185, 3245.522
135.1006, 3392.003
135.5827, 3539.939
136.0648, 3689.897
136.5469, 3841.505
137.0291, 3995.848
137.5112, 4153.440
137.9933, 4307.509
138.4754, 4457.474
138.9575, 4603.376
139.4396, 4737.535
139.9218, 4859.690
140.4039, 4968.789
140.8860, 5056.865
141.3681, 5122.266
141.8502, 5168.283
142.3323, 5194.796
142.8145, 5198.420
143.2966, 5192.054
143.7787, 5175.308
144.2608, 5148.218
144.7429, 5122.471
145.2250, 5097.878
145.7072, 5074.496
146.1893, 5052.483
146.6714, 5033.584
147.1535, 5013.636
147.6356, 4993.963
148.1178, 4976.359
148.5999, 4948.031
149.0820, 4916.310
149.5641, 4870.767
150.0462, 4799.186
150.5283, 4684.984
151.0105, 4562.243
151.4926, 4397.404
151.9747, 4225.894
152.4568, 4063.847
152.9389, 3910.167
153.4210, 3767.334
153.9032, 3636.338
154.3853, 3516.326
154.8674, 3410.794
155.3495, 3321.514
155.8316, 3249.008
156.3137, 3187.786
156.7959, 3137.837
157.2780, 3097.960
157.7601, 3066.271
158.2422, 3043.488
158.7243, 3027.157
159.2065, 3015.733
159.6886, 3008.668
160.1707, 3006.624
160.6528, 3010.436
161.1349, 3019.323
161.6170, 3031.382
162.0992, 3047.663
162.5813, 3065.739
163.0634, 3084.019
163.5455, 3101.935
164.0276, 3120.253
164.5097, 3140.584
164.9919, 3162.050
165.4740, 3181.181
165.9561, 3194.907
166.4382, 3206.190
166.9203, 3217.878
167.4024, 3231.347
167.8846, 3244.884
168.3667, 3257.532
168.8488, 3269.402
169.3309, 3281.118
169.8130, 3298.865
170.2952, 3315.112
170.7773, 3320.440
171.2594, 3312.505
171.7415, 3292.122
172.2236, 3259.531
172.7057, 3214.843
173.1879, 3159.105
173.6700, 3087.969
174.1521, 3006.773
174.6342, 2924.456
175.1163, 2840.522
175.5984, 2758.017
176.0806, 2680.101
176.5627, 2606.299
177.0448, 2540.165
177.5269, 2486.527
178.0090, 2443.319
178.4911, 2404.174
178.9733, 2366.659
179.4554, 2331.986
179.9375, 2301.780
180.4196, 2276.418
180.9017, 2254.544
181.3838, 2236.717
181.8660, 2221.969
182.3481, 2206.103
182.8302, 2186.938
183.3123, 2165.505
183.7944, 2143.906
184.2766, 2121.912
184.7587, 2100.430
185.2408, 2080.438
185.7229, 2061.899
186.2050, 2043.367
186.6871, 2022.445
187.1693, 2000.574
187.6514, 1984.751
188.1335, 1975.555
188.6156, 1970.317
189.0977, 1965.538
189.5798, 1961.226
190.0620, 1957.614
190.5441, 1954.697
191.0262, 1952.477
191.5083, 1951.223
191.9904, 1951.055
192.4725, 1951.473
192.9547, 1952.377
193.4368, 1953.855
193.9189, 1953.496
194.4010, 1949.972
194.8831, 1943.376
195.3652, 1935.259
195.8474, 1926.432
196.3295, 1915.069
196.8116, 1896.880
197.2937, 1871.572
197.7758, 1843.268
198.2579, 1814.020
198.7401, 1783.805
199.2222, 1752.925
199.7043, 1721.119
200.1864, 1689.492
200.6685, 1660.238
201.1507, 1633.532
201.6328, 1609.039
202.1149, 1586.084
202.5970, 1564.400
203.0791, 1546.928
203.5612, 1534.539
204.0434, 1526.189
204.5255, 1519.448
205.0076, 1514.389
205.4897, 1510.713
205.9718, 1508.210
206.4539, 1506.837
206.9361, 1507.067
207.4182, 1509.354
207.9003, 1513.095
208.3824, 1516.612
208.8645, 1520.129
209.3466, 1522.891
209.8288, 1524.837
210.3109, 1526.428
210.7930, 1525.181
211.2751, 1520.603
211.7572, 1513.125
212.2393, 1503.956
212.7215, 1492.981
213.2036, 1480.773
213.6857, 1467.609
214.1678, 1453.274
214.6499, 1438.535
215.1320, 1423.459
215.6142, 1407.870
216.0963, 1391.058
216.5784, 1372.128
217.0605, 1353.782
217.5426, 1337.796
218.0247, 1324.818
218.5069, 1312.760
218.9890, 1301.529
219.4711, 1291.096
219.9532, 1281.004
220.4353, 1270.721
220.9175, 1261.519
221.3996, 1254.305
221.8817, 1250.023
222.3638, 1245.336
222.8459, 1239.389
223.3280, 1232.719
223.8102, 1228.569
224.2923, 1227.637
224.7744, 1228.001
225.2565, 1228.350
225.7386, 1227.993
226.2207, 1229.270
226.7029, 1232.641
227.1850, 1237.842
227.6671, 1243.363
228.1492, 1249.040
228.6313, 1255.258
229.1134, 1262.323
229.5956, 1270.822
230.0777, 1278.916
230.5598, 1285.965
231.0419, 1292.472
231.5240, 1301.118
232.0062, 1312.666
232.4883, 1325.339
232.9704, 1338.269
233.4525, 1351.945
233.9346, 1364.722
234.4167, 1376.005
234.8989, 1386.189
235.3810, 1396.985
235.8631, 1408.212
236.3452, 1420.457
236.8273, 1434.325
237.3094, 1450.614
237.7916, 1466.691
238.2737, 1482.620
238.7558, 1498.277
239.2379, 1513.340
239.7200, 1527.053
240.2021, 1541.179
240.6843, 1557.057
241.1664, 1576.278
241.6485, 1593.774
242.1306, 1609.123
242.6127, 1622.673
243.0948, 1635.119
243.5770, 1646.357
244.0591, 1656.753
244.5412, 1666.850
245.0233, 1678.878
245.5054, 1685.895
245.9876, 1687.166
246.4697, 1683.390
246.9518, 1676.792
247.4339, 1667.978
247.9160, 1655.395
248.3981, 1638.259
248.8803, 1615.485
249.3624, 1590.379
249.8445, 1562.343
250.3266, 1532.144
250.8087, 1501.785
251.2908, 1471.775
251.7730, 1441.129
252.2551, 1409.399
252.7372, 1374.936
253.2193, 1343.016
253.7014, 1314.426
254.1835, 1288.269
254.6657, 1262.630
255.1478, 1236.510
255.6299, 1212.617
256.1120, 1192.021
256.5941, 1175.678
257.0763, 1159.993
257.5584, 1144.371
258.0405, 1129.627
258.5226, 1117.773
259.0047, 1109.573
259.4868, 1102.489
259.9690, 1095.526
260.4511, 1088.375
260.9332, 1082.872
261.4153, 1079.411
261.8974, 1077.181
262.3795, 1074.735
262.8617, 1071.555
263.3438, 1069.379
263.8259, 1069.204
264.3080, 1071.514
264.7901, 1072.076
265.2722, 1069.990
265.7544, 1067.211
266.2365, 1066.865
266.7186, 1069.857
267.2007, 1072.457
267.6828, 1073.097
268.1649, 1071.582
268.6471, 1072.049
269.1292, 1075.112
269.6113, 1079.210
270.0934, 1082.308
270.5755, 1084.074
271.0576, 1086.254
271.5398, 1089.389
272.0219, 1093.480
272.5040, 1097.699
272.9861, 1102.185
273.4682, 1106.400
273.9503, 1109.436
274.4325, 1110.880
274.9146, 1113.431
275.3967, 1118.122
275.8788, 1124.615
276.3610, 1129.909
276.8431, 1133.826
277.3252, 1136.941
277.8073, 1139.702
278.2894, 1142.115
278.7715, 1144.103
279.2537, 1145.359
279.7358, 1146.278
280.2179, 1149.035
280.7000, 1154.177
281.1821, 1158.774
281.6642, 1160.025
282.1464, 1157.912
282.6285, 1156.204
283.1106, 1155.480
283.5927, 1155.562
284.0748, 1155.994
284.5569, 1156.761
285.0391, 1157.928
285.5212, 1159.962
286.0033, 1162.706
286.4854, 1164.526
286.9675, 1165.293
287.4496, 1164.891
287.9318, 1162.401
288.4139, 1157.759
288.8960, 1153.711
289.3781, 1152.465
289.8602, 1153.390
290.3423, 1153.221
290.8245, 1151.546
291.3066, 1149.086
291.7887, 1147.392
292.2708, 1146.279
292.7529, 1143.943
293.2350, 1137.960
293.7172, 1129.891
294.1993, 1125.050
294.6814, 1124.016
295.1635, 1124.472
295.6456, 1123.883
296.1277, 1122.382
296.6099, 1120.533
297.0920, 1118.158
297.5741, 1115.716
298.0562, 1114.356
298.5383, 1114.169
299.0204, 1114.170
299.5026, 1113.845
299.9847, 1112.997
300.4668, 1111.024
300.9489, 1106.198
301.4311, 1100.925
301.9132, 1099.140
302.3953, 1100.719
302.8774, 1102.866
303.3595, 1103.771
303.8416, 1103.654
304.3238, 1102.828
304.8059, 1100.735
305.2880, 1098.648
305.7701, 1097.879
306.2522, 1098.323
306.7343, 1099.398
307.2165, 1100.893
307.6986, 1102.736
308.1807, 1104.888
308.6628, 1107.576
309.1449, 1110.208
309.6270, 1112.544
310.1092, 1114.523
310.5913, 1115.891
311.0734, 1115.738
311.5555, 1115.313
312.0376, 1115.958
312.5197, 1118.531
313.0019, 1120.474
313.4840, 1119.965
313.9661, 1117.815
314.4482, 1115.689
314.9303, 1114.324
315.4124, 1113.199
315.8946, 1112.157
316.3767, 1111.291
316.8588, 1109.956
317.3409, 1107.762
317.8230, 1104.986
318.3051, 1102.004
318.7873, 1098.776
319.2694, 1095.474
319.7515, 1092.214
320.2336, 1089.021
320.7157, 1085.580
321.1978, 1081.545
321.6800, 1077.365
322.1621, 1073.460
322.6442, 1070.303
323.1263, 1067.010
323.6084, 1062.984
324.0905, 1058.327
324.5727, 1054.674
325.0548, 1053.099
325.5369, 1052.104
326.0190, 1050.796
326.5012, 1049.306
326.9833, 1047.279
327.4654, 1044.269
327.9475, 1040.600
328.4296, 1037.594
328.9117, 1035.516
329.3939, 1033.871
329.8760, 1032.501
330.3581, 1031.842
330.8402, 1030.597
331.3223, 1028.380
331.8044, 1025.649
332.2866, 1023.357
332.7687, 1021.837
333.2508, 1020.235
333.7329, 1018.052
334.2150, 1014.890
334.6971, 1013.207
335.1793, 1014.116
335.6614, 1015.415
336.1435, 1013.885
336.6256, 1008.112
337.1077, 1003.206
337.5898, 1000.179
338.0720, 999.0362
338.5541, 1001.415
339.0362, 1009.118
339.5183, 1016.451
340.0004, 1017.437
340.4825, 1011.112
340.9647, 1005.327
341.4468, 1001.184
341.9289, 998.6133
342.4110, 997.9122
342.8931, 999.4120
343.3752, 1000.574
343.8574, 998.8429
344.3395, 994.4801
344.8216, 992.2448
345.3037, 992.9401
345.7858, 995.2175
346.2679, 997.0735
346.7501, 998.5078
347.2322, 999.4379
347.7143, 1000.052
348.1964, 1000.142
348.6785, 998.7047
349.1607, 995.4495
349.6428, 992.0804
350.1249, 990.4758
350.6070, 990.3167
351.0891, 990.5804
351.5713, 991.0607
352.0534, 991.6357
352.5355, 992.2384
353.0176, 992.8558
353.4997, 993.2097
353.9818, 992.7851
354.4640, 992.0266
354.9461, 991.6454
355.4282, 992.1137
355.9103, 992.7008
356.3924, 992.7096
356.8745, 992.2675
357.3567, 991.8702
357.8388, 991.8347
358.3209, 991.9480
358.8030, 992.0743
359.2851, 992.2745
359.7672, 992.2521
360.2494, 991.4230
360.7315, 990.2919
361.2136, 989.7984
361.6957, 990.4182
362.1778, 991.6459
362.6599, 993.8057
363.1421, 997.2264
363.6242, 998.9431
364.1063, 996.3535
364.5884, 992.2965
365.0705, 989.6970
365.5526, 990.0101
366.0348, 990.9109
366.5169, 992.0924
366.9990, 993.5126
367.4811, 994.7885
367.9632, 995.5855
368.4453, 996.4296
368.9275, 997.6402
369.4096, 1000.398
369.8917, 1001.879
370.3738, 1001.367
370.8559, 999.5684
371.3380, 998.4234
371.8202, 997.9284
372.3023, 998.0977
372.7844, 999.2667
373.2665, 1002.096
373.7487, 1003.097
374.2308, 1001.484
374.7129, 998.8406
375.1950, 997.2971
375.6771, 997.1429
376.1592, 997.1686
376.6414, 996.9761
377.1235, 996.6505
377.6056, 997.1549
378.0877, 998.7359
378.5698, 1000.377
379.0519, 1001.090
379.5341, 1000.867
380.0162, 1000.908
380.4983, 1001.599
380.9804, 1002.442
381.4625, 1001.972
381.9446, 1000.216
382.4268, 998.7946
382.9089, 999.0753
383.3910, 1000.505
383.8731, 1001.258
384.3552, 1001.119
384.8373, 1000.619
385.3195, 1000.043
385.8016, 999.5569
386.2837, 999.6572
386.7658, 1001.122
387.2479, 1003.018
387.7300, 1004.152
388.2122, 1004.538
388.6943, 1004.706
389.1764, 1005.143
389.6585, 1005.560
390.1406, 1005.518
390.6227, 1004.435
391.1049, 1003.523
391.5870, 1003.618
392.0691, 1004.541
392.5512, 1005.753
393.0333, 1007.545
393.5154, 1009.175
393.9976, 1010.112
394.4797, 1010.129
394.9618, 1009.993
395.4439, 1009.478
395.9260, 1009.084
396.4081, 1009.476
396.8903, 1011.990
397.3724, 1014.135
397.8545, 1015.112
398.3366, 1014.865
398.8188, 1014.611
399.3009, 1014.510
399.7830, 1014.373
400.2651, 1014.050
400.7472, 1012.903
401.2293, 1012.543
401.7115, 1013.365
402.1936, 1014.986
402.6757, 1016.242
403.1578, 1016.907
403.6399, 1017.591
404.1220, 1018.667
404.6042, 1020.331
405.0863, 1021.183
405.5684, 1021.017
406.0505, 1020.349
406.5326, 1019.635
407.0147, 1018.781
407.4969, 1018.737
407.9790, 1020.228
408.4611, 1022.629
408.9432, 1023.006
409.4253, 1021.163
409.9074, 1019.393
410.3896, 1019.668
410.8717, 1021.604
411.3538, 1023.544
411.8359, 1025.275
412.3180, 1026.803
412.8001, 1028.386
413.2823, 1029.828
413.7644, 1030.460
414.2465, 1029.187
414.7286, 1027.211
415.2107, 1026.129
415.6928, 1026.035
416.1750, 1026.258
416.6571, 1026.274
417.1392, 1026.301
417.6213, 1026.660
418.1034, 1028.041
418.5855, 1029.154
419.0677, 1029.056
419.5498, 1028.008
420.0319, 1026.975
420.5140, 1025.619
420.9961, 1024.912
421.4782, 1025.760
421.9604, 1029.245
422.4425, 1031.672
422.9246, 1031.312
423.4067, 1029.684
423.8889, 1028.862
424.3710, 1030.033
424.8531, 1031.050
425.3352, 1031.266
425.8173, 1030.673
426.2994, 1030.704
426.7816, 1031.758
427.2637, 1033.030
427.7458, 1034.048
428.2279, 1034.911
428.7100, 1035.239
429.1921, 1034.773
429.6743, 1033.909
430.1564, 1033.762
430.6385, 1034.644
431.1206, 1035.013
431.6027, 1033.708
432.0848, 1030.863
432.5670, 1030.377
433.0491, 1032.769
433.5312, 1035.396
434.0133, 1034.901
434.4954, 1031.818
434.9775, 1029.796
435.4597, 1030.004
435.9418, 1031.405
436.4239, 1032.090
436.9060, 1032.222
437.3881, 1032.870
437.8702, 1035.490
438.3524, 1038.756
438.8345, 1040.579
439.3166, 1040.560
439.7987, 1040.258
440.2808, 1040.885
440.7629, 1042.037
441.2451, 1043.077
441.7272, 1043.724
442.2093, 1044.211
442.6914, 1044.903
443.1735, 1045.671
443.6556, 1045.671
444.1378, 1043.498
444.6199, 1041.216
445.1020, 1040.174
445.5841, 1041.070
446.0662, 1042.251
446.5483, 1043.992
447.0305, 1045.811
447.5126, 1046.873
447.9947, 1046.111
448.4768, 1045.907
448.9590, 1047.335
449.4411, 1050.457
449.9232, 1051.144
450.4053, 1047.737
450.8874, 1044.264
451.3695, 1044.046
451.8517, 1048.009
452.3338, 1051.113
452.8159, 1052.945
453.2980, 1053.597
453.7801, 1052.707
454.2622, 1050.120
454.7444, 1048.329
455.2265, 1048.726
455.7086, 1050.887
456.1907, 1053.453
456.6728, 1056.564
457.1549, 1058.699
457.6371, 1057.686
458.1192, 1054.680
458.6013, 1052.454
459.0834, 1051.804
459.5655, 1051.979
460.0476, 1052.359
460.5298, 1052.940
461.0119, 1053.683
461.4940, 1055.097
461.9761, 1056.322
462.4582, 1056.549
462.9403, 1055.655
463.4225, 1054.682
463.9046, 1053.913
464.3867, 1053.383
464.8688, 1053.142
465.3509, 1053.730
465.8330, 1054.022
466.3152, 1053.556
466.7973, 1052.573
467.2794, 1051.938
467.7615, 1051.415
468.2436, 1051.540
468.7257, 1052.756
469.2079, 1055.513
469.6900, 1057.104
470.1721, 1056.742
470.6542, 1056.050
471.1363, 1057.020
471.6184, 1060.349
472.1006, 1062.537
472.5827, 1062.818
473.0648, 1061.664
473.5469, 1060.210
474.0291, 1058.391
474.5112, 1057.084
474.9933, 1056.947
475.4754, 1057.781
475.9575, 1058.811
476.4396, 1060.041
476.9218, 1061.247
477.4039, 1062.523
477.8860, 1063.582
478.3681, 1063.622
478.8502, 1061.527
479.3323, 1059.353
479.8145, 1059.037
480.2966, 1060.346
480.7787, 1062.408
481.2608, 1065.755
481.7429, 1069.004
482.2250, 1071.277
482.7072, 1072.471
483.1893, 1072.677
483.6714, 1071.188
484.1535, 1069.053
484.6356, 1067.339
485.1177, 1066.163
485.5999, 1065.488
486.0820, 1065.317
486.5641, 1065.662
487.0462, 1066.668
487.5283, 1069.065
488.0104, 1071.172
488.4926, 1072.177
488.9747, 1071.786
489.4568, 1072.396
489.9389, 1074.579
490.4210, 1076.735
490.9031, 1076.670
491.3853, 1074.203
491.8674, 1072.533
492.3495, 1072.472
492.8316, 1073.369
493.3137, 1073.829
493.7958, 1073.890
494.2780, 1074.064
494.7601, 1074.423
495.2422, 1075.147
495.7243, 1076.879
496.2064, 1079.714
496.6885, 1082.266
497.1707, 1083.352
497.6528, 1083.537
498.1349, 1083.623
498.6170, 1084.091
499.0992, 1084.140
499.5813, 1082.726
500.0634, 1080.536
500.5455, 1079.248
501.0276, 1079.848
501.5097, 1081.065
501.9919, 1082.766
502.4740, 1085.165
502.9561, 1086.320
503.4382, 1084.674
503.9203, 1082.766
504.4024, 1082.400
504.8846, 1084.600
505.3667, 1086.258
505.8488, 1087.159
506.3309, 1087.441
506.8130, 1087.143
507.2951, 1085.973
507.7773, 1085.623
508.2594, 1087.454
508.7415, 1090.743
509.2236, 1090.824
509.7057, 1087.462
510.1878, 1083.939
510.6700, 1083.036
511.1521, 1084.132
511.6342, 1085.486
512.1163, 1086.916
512.5984, 1088.193
513.0806, 1088.793
513.5627, 1089.064
514.0448, 1089.740
514.5269, 1092.339
515.0090, 1094.457
515.4911, 1093.948
515.9733, 1091.189
516.4554, 1088.854
516.9375, 1087.930
517.4196, 1087.744
517.9017, 1087.956
518.3839, 1088.656
518.8660, 1089.411
519.3481, 1090.563
519.8302, 1091.562
520.3123, 1091.783
520.7944, 1090.938
521.2766, 1089.790
521.7587, 1087.983
522.2408, 1086.043
522.7229, 1086.147
523.2050, 1088.716
523.6871, 1091.844
524.1693, 1095.222
524.6514, 1098.641
525.1335, 1099.286
525.6156, 1096.746
526.0977, 1094.182
526.5798, 1095.653
527.0620, 1099.758
527.5441, 1102.182
528.0262, 1101.416
528.5083, 1099.615
528.9904, 1098.656
529.4725, 1098.427
529.9547, 1098.687
530.4368, 1099.516
530.9189, 1100.611
531.4010, 1102.272
531.8831, 1104.447
532.3652, 1105.146
532.8474, 1101.595
533.3295, 1097.842
533.8116, 1096.538
534.2937, 1100.095
534.7758, 1102.530
535.2579, 1102.938
535.7401, 1102.552
536.2222, 1103.209
536.7043, 1105.572
537.1864, 1107.536
537.6685, 1108.763
538.1506, 1109.271
538.6328, 1108.782
539.1149, 1107.119
539.5970, 1105.628
540.0791, 1105.036
540.5612, 1105.292
541.0433, 1106.344
541.5255, 1108.232
542.0076, 1110.418
542.4897, 1112.881
542.9718, 1115.193
543.4539, 1116.443
543.9360, 1115.911
544.4182, 1115.012
544.9003, 1114.725
545.3824, 1114.892
545.8645, 1115.172
546.3466, 1116.048
546.8287, 1116.431
547.3109, 1115.241
547.7930, 1112.417
548.2751, 1110.971
548.7572, 1112.175
549.2393, 1114.261
549.7214, 1116.390
550.2036, 1118.978
550.6857, 1120.644
551.1678, 1121.053
551.6499, 1120.911
552.1320, 1121.284
552.6141, 1122.336
553.0963, 1122.877
553.5784, 1122.453
554.0605, 1121.513
554.5426, 1121.083
555.0247, 1121.170
555.5068, 1121.836
555.9890, 1124.145
556.4711, 1126.725
556.9532, 1126.526
557.4353, 1123.441
557.9174, 1120.600
558.3995, 1120.302
558.8817, 1121.536
559.3638, 1123.509
559.8459, 1127.095
560.3281, 1129.159
560.8102, 1126.820
561.2923, 1122.504
561.7744, 1120.030
562.2565, 1122.169
562.7386, 1123.937
563.2208, 1123.884
563.7029, 1122.400
564.1850, 1122.336
564.6671, 1124.516
565.1492, 1126.672
565.6313, 1127.612
566.1135, 1127.221
566.5956, 1127.091
567.0777, 1127.253
567.5598, 1127.566
568.0419, 1127.971
568.5240, 1128.418
569.0062, 1128.729
569.4883, 1128.899
569.9704, 1128.821
570.4525, 1127.868
570.9346, 1126.519
571.4167, 1126.048
571.8989, 1127.654
572.3810, 1129.816
572.8631, 1131.973
573.3452, 1133.948
573.8273, 1134.869
574.3094, 1133.058
574.7916, 1131.153
575.2737, 1130.612
575.7558, 1131.953
576.2379, 1133.512
576.7200, 1136.049
577.2021, 1138.109
577.6843, 1137.960
578.1664, 1134.044
578.6485, 1132.854
579.1306, 1136.097
579.6127, 1141.203
580.0948, 1142.818
580.5770, 1140.932
581.0591, 1138.860
581.5412, 1137.635
582.0233, 1137.245
582.5054, 1137.997
582.9875, 1139.749
583.4697, 1141.518
583.9518, 1142.865
584.4339, 1143.745
584.9160, 1144.063
585.3981, 1143.788
585.8802, 1143.232
586.3624, 1142.349
586.8445, 1141.377
587.3266, 1140.538
587.8087, 1139.798
588.2908, 1139.307
588.7729, 1138.877
589.2551, 1138.762
589.7372, 1139.539
590.2193, 1141.942
590.7014, 1143.749
591.1835, 1144.227
591.6656, 1143.663
592.1478, 1143.519
592.6299, 1143.809
593.1120, 1144.328
593.5941, 1145.128
594.0762, 1146.059
594.5583, 1146.581
595.0405, 1146.667
595.5226, 1146.459
596.0047, 1145.960
596.4868, 1145.297
596.9689, 1144.539
597.4510, 1143.459
597.9332, 1142.975
598.4153, 1144.042
598.8974, 1145.957
599.3795, 1147.686
599.8616, 1149.550
600.3438, 1150.597
600.8259, 1150.015
601.3080, 1148.313
601.7901, 1147.475
602.2722, 1147.823
602.7543, 1148.530
603.2365, 1149.634
603.7186, 1151.078
604.2007, 1150.414
604.6828, 1147.107
605.1649, 1144.140
605.6470, 1144.432
606.1292, 1147.237
606.6113, 1149.522
607.0934, 1150.892
607.5755, 1151.824
608.0576, 1153.125
608.5398, 1154.241
609.0219, 1154.090
609.5040, 1151.054
609.9861, 1148.492
610.4683, 1148.998
610.9504, 1151.318
611.4325, 1152.731
611.9146, 1152.115
612.3967, 1150.982
612.8788, 1149.365
613.3610, 1147.411
613.8431, 1146.640
614.3252, 1147.591
614.8073, 1148.854
615.2894, 1149.649
615.7715, 1149.911
616.2537, 1151.005
616.7358, 1153.131
617.2179, 1155.042
617.7000, 1154.877
618.1821, 1153.336
618.6642, 1153.061
619.1464, 1154.708
619.6285, 1156.833
620.1106, 1158.223
620.5927, 1159.021
621.0748, 1159.484
621.5569, 1159.632
622.0391, 1159.549
622.5212, 1158.941
623.0033, 1158.105
623.4854, 1157.937
623.9675, 1159.401
624.4496, 1160.773
624.9318, 1161.704
625.4139, 1162.205
625.8960, 1161.946
626.3781, 1160.667
626.8602, 1159.278
627.3423, 1158.058
627.8245, 1157.038
628.3066, 1157.565
628.7887, 1159.874
629.2708, 1162.366
629.7529, 1163.163
630.2350, 1162.873
630.7172, 1162.858
631.1993, 1163.324
631.6814, 1164.306
632.1635, 1166.714
632.6456, 1169.439
633.1277, 1170.765
633.6099, 1167.131
634.0920, 1165.204
634.5741, 1169.320
635.0562, 1177.228
635.5383, 1180.232
636.0204, 1174.807
636.5026, 1169.307
636.9847, 1166.185
637.4668, 1165.339
637.9489, 1164.658
638.4310, 1164.105
638.9131, 1163.936
639.3953, 1164.290
639.8774, 1165.174
640.3595, 1166.915
640.8416, 1169.617
641.3237, 1171.867
641.8058, 1171.796
642.2880, 1170.590
642.7701, 1170.044
643.2522, 1170.969
643.7343, 1171.396
644.2164, 1169.399
644.6985, 1166.598
645.1807, 1165.171
645.6628, 1165.918
646.1449, 1167.736
646.6270, 1171.585
647.1091, 1176.151
647.5912, 1177.842
648.0734, 1175.846
648.5555, 1173.211
649.0376, 1170.416
649.5197, 1167.818
650.0018, 1167.340
650.4839, 1168.958
650.9661, 1170.793
651.4482, 1171.303
651.9303, 1171.367
652.4124, 1172.865
652.8945, 1175.841
653.3766, 1178.368
653.8588, 1179.139
654.3409, 1178.941
654.8230, 1178.223
655.3051, 1176.581
655.7872, 1175.847
656.2693, 1177.270
656.7515, 1179.305
657.2336, 1180.439
657.7158, 1180.149
658.1979, 1180.019
658.6800, 1180.058
659.1621, 1180.389
659.6442, 1181.375
660.1263, 1183.003
660.6085, 1184.534
661.0906, 1185.803
661.5727, 1186.722
662.0548, 1186.911
662.5369, 1186.566
663.0190, 1186.438
663.5012, 1186.544
663.9833, 1187.347
664.4654, 1190.422
664.9475, 1195.197
665.4296, 1197.364
665.9117, 1192.385
666.3939, 1187.180
666.8760, 1185.270
667.3581, 1187.083
667.8402, 1189.582
668.3223, 1193.280
668.8044, 1196.920
669.2866, 1199.538
669.7687, 1201.119
670.2508, 1202.181
670.7329, 1202.633
671.2150, 1203.029
671.6971, 1203.021
672.1793, 1203.460
672.6614, 1206.607
673.1435, 1213.244
673.6256, 1222.020
674.1077, 1231.827
674.5898, 1243.166
675.0720, 1256.650
675.5541, 1272.656
676.0362, 1290.819
676.5183, 1312.266
677.0004, 1335.677
677.4825, 1357.687
677.9647, 1377.093
678.4468, 1397.025
678.9289, 1418.357
679.4110, 1440.816
679.8931, 1463.996
680.3752, 1487.794
680.8574, 1512.643
681.3395, 1538.461
681.8216, 1565.669
682.3037, 1594.346
682.7858, 1624.752
683.2679, 1656.986
683.7501, 1690.608
684.2322, 1726.697
684.7143, 1766.881
685.1964, 1810.958
685.6785, 1859.323
686.1606, 1910.074
686.6428, 1966.140
687.1249, 2030.168
687.6070, 2104.773
688.0891, 2182.129
688.5712, 2266.586
689.0533, 2346.825
689.5355, 2413.098
690.0176, 2465.461
690.4997, 2491.216
690.9818, 2486.572
691.4639, 2459.187
691.9460, 2409.658
692.4282, 2346.064
692.9103, 2286.535
693.3924, 2238.849
693.8745, 2196.035
694.3566, 2158.813
694.8387, 2123.721
695.3209, 2082.657
695.8030, 2025.364
696.2851, 1971.080
696.7672, 1921.159
697.2493, 1876.765
697.7314, 1846.372
698.2136, 1831.071
698.6957, 1826.370
699.1778, 1832.031
699.6599, 1846.709
700.1420, 1868.667
700.6241, 1897.248
701.1063, 1917.449
701.5884, 1922.862
702.0705, 1911.810
702.5526, 1878.480
703.0347, 1822.652
703.5168, 1761.072
703.9990, 1694.908
704.4811, 1631.429
704.9632, 1576.205
705.4453, 1529.931
705.9274, 1491.453
706.4095, 1461.589
706.8917, 1438.562
707.3738, 1421.583
707.8560, 1411.379
708.3381, 1403.440
708.8202, 1397.910
709.3023, 1393.005
709.7844, 1388.587
710.2665, 1383.053
710.7487, 1370.877
711.2308, 1348.604
711.7129, 1324.979
712.1950, 1305.192
712.6771, 1288.836
713.1592, 1275.236
713.6414, 1265.790
714.1235, 1257.386
714.6056, 1248.875
715.0877, 1241.094
715.5698, 1236.258
716.0519, 1235.482
716.5341, 1234.741
717.0162, 1233.143
717.4983, 1230.882
717.9804, 1228.287
718.4625, 1225.397
718.9446, 1223.089
719.4268, 1222.126
719.9089, 1221.756
720.3910, 1221.035
720.8731, 1220.041
721.3552, 1219.076
721.8373, 1218.190
722.3195, 1217.489
722.8016, 1217.205
723.2837, 1217.357
723.7658, 1217.039
724.2479, 1215.670
724.7300, 1214.622
725.2122, 1214.816
725.6943, 1216.286
726.1764, 1216.172
726.6585, 1214.180
727.1406, 1212.451
727.6227, 1213.080
728.1049, 1215.144
728.5870, 1216.517
729.0691, 1217.024
729.5512, 1217.166
730.0333, 1217.219
730.5154, 1217.114
730.9976, 1216.725
731.4797, 1215.878
731.9618, 1215.231
732.4439, 1214.723
732.9260, 1214.600
733.4081, 1215.221
733.8903, 1217.042
734.3724, 1218.036
734.8545, 1217.982
735.3366, 1217.383
735.8187, 1216.753
736.3008, 1216.104
736.7830, 1215.287
737.2651, 1213.947
737.7472, 1213.515
738.2293, 1217.014
738.7114, 1221.893
739.1935, 1224.277
739.6757, 1219.993
740.1578, 1216.816
740.6399, 1217.361
741.1220, 1220.222
741.6041, 1223.081
742.0862, 1226.801
742.5684, 1228.378
743.0505, 1226.650
743.5326, 1223.226
744.0147, 1221.971
744.4968, 1222.694
744.9789, 1222.730
745.4611, 1220.539
745.9432, 1217.864
746.4253, 1217.080
746.9074, 1217.660
747.3895, 1218.241
747.8716, 1217.819
748.3538, 1217.718
748.8359, 1219.260
749.3180, 1221.865
749.8001, 1222.387
750.2822, 1219.020
750.7643, 1216.721
751.2465, 1217.635
751.7286, 1220.763
752.2107, 1220.897
752.6928, 1217.992
753.1749, 1214.913
753.6570, 1212.449
754.1392, 1211.214
754.6213, 1213.102
755.1034, 1217.556
755.5855, 1221.337
756.0676, 1222.340
756.5498, 1222.453
757.0319, 1222.811
757.5140, 1223.479
757.9962, 1223.331
758.4783, 1221.282
758.9604, 1219.868
759.4425, 1220.573
759.9246, 1223.305
760.4067, 1224.411
760.8889, 1223.682
761.3710, 1223.165
761.8531, 1225.396
762.3352, 1228.574
762.8173, 1228.894
763.2994, 1226.260
763.7816, 1223.492
764.2637, 1221.943
764.7458, 1221.251
765.2279, 1221.349
765.7100, 1222.443
766.1921, 1223.279
766.6743, 1223.742
767.1564, 1224.020
767.6385, 1224.251
768.1206, 1224.465
768.6027, 1224.298
769.0848, 1223.676
769.5670, 1223.052
770.0491, 1222.873
770.5312, 1222.968
771.0133, 1223.018
771.4954, 1222.974
771.9775, 1222.906
772.4597, 1222.404
772.9418, 1222.166
773.4239, 1222.993
773.9060, 1226.011
774.3881, 1227.378
774.8702, 1226.119
775.3524, 1224.184
775.8345, 1222.946
776.3166, 1222.367
776.7987, 1223.621
777.2808, 1227.190
777.7629, 1230.484
778.2451, 1229.922
778.7272, 1227.201
779.2093, 1225.808
779.6914, 1226.713
780.1735, 1227.621
780.6556, 1226.773
781.1378, 1225.455
781.6199, 1224.936
782.1020, 1226.155
782.5841, 1226.889
783.0662, 1226.811
783.5483, 1226.585
784.0305, 1227.115
784.5126, 1228.447
784.9947, 1228.921
785.4768, 1228.191
785.9589, 1227.276
786.4410, 1227.379
786.9232, 1228.142
787.4053, 1229.013
787.8874, 1230.078
788.3695, 1230.634
788.8516, 1229.780
789.3337, 1228.518
789.8159, 1228.002
790.2980, 1228.762
790.7801, 1229.481
791.2622, 1230.121
791.7443, 1230.712
792.2264, 1231.418
792.7086, 1232.211
793.1907, 1232.360
793.6728, 1231.695
794.1549, 1230.574
794.6370, 1228.954
795.1191, 1227.268
795.6013, 1226.243
796.0834, 1226.367
796.5655, 1226.604
797.0476, 1226.579
797.5297, 1226.483
798.0118, 1226.507
798.4940, 1226.467
798.9761, 1227.075
799.4582, 1228.624
799.9403, 1230.399
800.4224, 1231.488
800.9045, 1231.949
801.3867, 1232.119
801.8688, 1231.976
802.3509, 1231.872
802.8330, 1232.486
803.3151, 1233.234
803.7972, 1233.265
804.2794, 1231.757
804.7615, 1230.521
805.2436, 1230.222
805.7258, 1230.204
806.2079, 1229.577
806.6900, 1227.804
807.1721, 1227.768
807.6542, 1230.170
808.1364, 1233.235
808.6185, 1234.703
809.1006, 1234.890
809.5827, 1234.689
810.0648, 1234.248
810.5469, 1233.621
811.0291, 1232.339
811.5112, 1231.118
811.9933, 1230.805
812.4754, 1232.669
812.9575, 1233.693
813.4396, 1233.243
813.9218, 1232.404
814.4039, 1232.743
814.8860, 1234.436
815.3681, 1234.339
815.8502, 1231.838
816.3323, 1228.761
816.8145, 1226.657
817.2966, 1225.671
817.7787, 1226.301
818.2608, 1229.248
818.7429, 1231.866
819.2250, 1232.523
819.7072, 1232.456
820.1893, 1233.013
820.6714, 1235.720
821.1535, 1235.453
821.6356, 1230.588
822.1177, 1225.639
822.5999, 1226.512
823.0820, 1232.161
823.5641, 1235.391
824.0462, 1235.198
824.5283, 1234.135
825.0104, 1234.165
825.4926, 1234.826
825.9747, 1235.825
826.4568, 1237.558
826.9389, 1238.028
827.4210, 1234.785
827.9031, 1231.690
828.3853, 1231.549
828.8674, 1235.168
829.3495, 1237.968
829.8316, 1239.920
830.3137, 1240.970
830.7958, 1240.674
831.2780, 1239.505
831.7601, 1238.174
832.2422, 1236.736
832.7243, 1236.214
833.2064, 1238.617
833.6885, 1241.259
834.1707, 1241.951
834.6528, 1239.867
835.1349, 1238.228
835.6170, 1237.012
836.0991, 1236.296
836.5812, 1236.358
837.0634, 1237.119
837.5455, 1237.236
838.0276, 1236.687
838.5097, 1236.310
838.9918, 1237.113
839.4739, 1238.175
839.9561, 1238.186
840.4382, 1237.089
840.9203, 1236.787
841.4024, 1239.227
841.8845, 1241.280
842.3666, 1241.403
842.8488, 1239.643
843.3309, 1238.404
843.8130, 1237.766
844.2951, 1237.249
844.7772, 1236.446
845.2593, 1235.617
845.7415, 1235.430
846.2236, 1235.809
846.7057, 1236.326
847.1878, 1236.997
847.6699, 1237.518
848.1520, 1238.167
848.6342, 1238.699
849.1163, 1237.143
849.5984, 1231.416
850.0805, 1227.854
850.5626, 1229.233
851.0447, 1233.873
851.5269, 1236.334
852.0090, 1236.821
852.4911, 1237.102
852.9732, 1238.457
853.4553, 1239.554
853.9374, 1238.620
854.4196, 1236.473
854.9017, 1235.143
855.3839, 1235.408
855.8660, 1236.417
856.3481, 1238.553
856.8302, 1241.022
857.3123, 1242.094
857.7944, 1241.732
858.2766, 1240.465
858.7587, 1238.015
859.2408, 1235.637
859.7229, 1235.854
860.2050, 1237.437
860.6871, 1237.791
861.1693, 1234.885
861.6514, 1232.507
862.1335, 1231.988
862.6156, 1232.900
863.0977, 1234.761
863.5798, 1238.457
864.0620, 1240.497
864.5441, 1240.347
865.0262, 1239.103
865.5083, 1237.571
865.9904, 1236.079
866.4725, 1235.870
866.9547, 1237.375
867.4368, 1238.827
867.9189, 1238.381
868.4010, 1237.641
868.8831, 1238.435
869.3652, 1242.805
869.8474, 1243.675
870.3295, 1239.421
870.8116, 1234.274
871.2937, 1231.283
871.7758, 1230.368
872.2579, 1231.068
872.7401, 1233.390
873.2222, 1235.380
873.7043, 1234.948
874.1864, 1233.782
874.6685, 1233.738
875.1506, 1234.980
875.6328, 1235.495
876.1149, 1233.720
876.5970, 1232.291
877.0791, 1232.402
877.5612, 1233.837
878.0433, 1234.187
878.5255, 1233.399
879.0076, 1232.921
879.4897, 1233.543
879.9718, 1234.999
880.4539, 1237.868
880.9360, 1241.422
881.4182, 1243.126
881.9003, 1240.005
882.3824, 1236.984
882.8645, 1235.971
883.3466, 1236.262
883.8287, 1235.956
884.3109, 1234.808
884.7930, 1234.397
885.2751, 1235.231
885.7572, 1236.794
886.2393, 1238.554
886.7214, 1240.339
887.2036, 1241.677
887.6857, 1242.023
888.1678, 1242.523
888.6499, 1244.043
889.1320, 1245.844
889.6141, 1246.988
890.0963, 1247.442
890.5784, 1247.192
891.0605, 1245.968
891.5426, 1244.736
892.0247, 1244.900
892.5068, 1245.954
892.9890, 1245.999
893.4711, 1244.581
893.9532, 1244.184
894.4353, 1247.970
894.9174, 1252.470
895.3995, 1254.584
895.8817, 1253.127
896.3638, 1253.332
896.8459, 1255.549
897.3280, 1258.679
897.8101, 1262.238
898.2922, 1266.145
898.7744, 1269.951
899.2565, 1273.615
899.7386, 1276.845
900.2207, 1280.812
900.7028, 1283.127
901.1849, 1281.646
901.6671, 1276.676
902.1492, 1270.697
902.6313, 1263.036
903.1134, 1256.324
903.5955, 1251.400
904.0776, 1247.756
904.5598, 1243.361
905.0419, 1238.537
905.5240, 1235.704
906.0062, 1236.557
906.4883, 1238.481
906.9704, 1239.494
907.4525, 1239.899
907.9346, 1240.188
908.4167, 1240.180
908.8989, 1240.578
909.3810, 1242.062
909.8631, 1243.215
910.3452, 1241.260
910.8273, 1236.574
911.3094, 1235.701
911.7916, 1239.861
912.2737, 1244.183
912.7558, 1243.771
913.2379, 1241.305
913.7200, 1239.410
914.2021, 1238.385
914.6843, 1238.566
915.1664, 1241.151
915.6485, 1243.475
916.1306, 1243.922
916.6127, 1242.642
917.0948, 1242.246
917.5770, 1242.731
918.0591, 1243.185
918.5412, 1243.031
919.0233, 1242.540
919.5054, 1241.766
919.9875, 1240.856
920.4697, 1240.351
920.9518, 1240.506
921.4339, 1241.011
921.9160, 1242.074
922.3981, 1243.261
922.8802, 1243.225
923.3624, 1242.011
923.8445, 1241.400
924.3266, 1242.145
924.8087, 1243.090
925.2908, 1243.213
925.7729, 1242.625
926.2551, 1241.416
926.7372, 1238.673
927.2193, 1237.079
927.7014, 1237.518
928.1835, 1238.520
928.6656, 1238.765
929.1478, 1238.270
929.6299, 1237.869
930.1120, 1237.620
930.5941, 1237.449
931.0762, 1237.333
931.5583, 1237.247
932.0405, 1237.103
932.5226, 1236.897
933.0047, 1236.911
933.4868, 1237.847
933.9689, 1238.099
934.4510, 1236.445
934.9332, 1233.661
935.4153, 1234.384
935.8974, 1238.432
936.3795, 1242.105
936.8616, 1243.489
937.3438, 1243.929
937.8259, 1244.717
938.3080, 1245.584
938.7901, 1245.983
939.2722, 1245.324
939.7543, 1244.770
940.2365, 1244.408
940.7186, 1244.253
941.2007, 1244.538
941.6828, 1245.190
942.1649, 1245.172
942.6470, 1244.293
943.1292, 1243.219
943.6113, 1241.984
944.0934, 1241.227
944.5755, 1241.875
945.0576, 1244.459
945.5397, 1245.953
946.0219, 1245.500
946.5040, 1245.070
946.9861, 1246.217
947.4682, 1248.314
947.9503, 1246.791
948.4324, 1242.105
948.9146, 1238.193
949.3967, 1237.980
949.8788, 1238.809
950.3609, 1238.862
950.8430, 1238.383
951.3251, 1238.183
951.8073, 1238.371
952.2894, 1238.822
952.7715, 1239.685
953.2536, 1240.548
953.7357, 1240.624
954.2179, 1240.094
954.7000, 1239.576
955.1821, 1239.107
955.6642, 1239.184
956.1464, 1241.204
956.6285, 1243.255
957.1106, 1243.256
957.5927, 1240.272
958.0748, 1239.137
958.5569, 1240.392
959.0391, 1242.007
959.5212, 1242.834
960.0033, 1242.941
960.4854, 1241.956
960.9675, 1240.196
961.4496, 1239.487
961.9318, 1242.589
962.4139, 1245.137
962.8960, 1244.471
963.3781, 1241.593
963.8602, 1239.161
964.3423, 1237.099
964.8245, 1235.960
965.3066, 1235.890
965.7887, 1236.762
966.2708, 1239.092
966.7529, 1242.063
967.2350, 1244.066
967.7172, 1244.706
968.1993, 1244.581
968.6814, 1242.554
969.1635, 1241.018
969.6456, 1242.086
970.1277, 1246.141
970.6099, 1246.912
971.0920, 1244.096
971.5741, 1241.775
972.0562, 1243.571
972.5383, 1246.932
973.0204, 1248.915
973.5026, 1249.608
973.9847, 1249.766
974.4668, 1248.928
974.9489, 1248.514
975.4310, 1249.260
975.9131, 1250.258
976.3953, 1249.122
976.8774, 1246.080
977.3595, 1244.743
977.8416, 1246.147
978.3237, 1248.464
978.8058, 1250.697
979.2880, 1252.598
979.7701, 1253.875
980.2522, 1254.338
980.7343, 1254.661
981.2164, 1255.091
981.6985, 1254.963
982.1807, 1253.167
982.6628, 1250.460
983.1449, 1250.931
983.6270, 1254.030
984.1091, 1256.380
984.5912, 1254.787
985.0734, 1253.171
985.5555, 1254.544
986.0376, 1257.431
986.5197, 1257.620
987.0018, 1253.803
987.4839, 1251.811
987.9661, 1252.932
988.4482, 1255.042
988.9303, 1255.478
989.4124, 1254.762
989.8945, 1253.647
990.3766, 1252.142
990.8588, 1251.256
991.3409, 1251.798
991.8230, 1252.800
992.3051, 1253.970
992.7872, 1255.248
993.2693, 1254.595
993.7515, 1251.892
994.2336, 1250.594
994.7157, 1253.950
995.1978, 1258.461
995.6799, 1260.250
996.1620, 1260.022
996.6442, 1259.431
997.1263, 1258.002
997.6084, 1257.617
998.0905, 1258.979
998.5726, 1260.712
999.0547, 1260.669
999.5369, 1259.268
1000.019, 1259.509
1000.501, 1261.854
1000.983, 1263.729
1001.465, 1263.028
1001.947, 1261.334
1002.430, 1259.422
1002.912, 1257.393
1003.394, 1257.213
1003.876, 1259.827
1004.358, 1261.116
1004.840, 1258.786
1005.322, 1255.075
1005.804, 1254.702
1006.287, 1256.469
1006.769, 1257.337
1007.251, 1254.693
1007.733, 1253.302
1008.215, 1256.319
1008.697, 1260.024
1009.179, 1260.697
1009.661, 1257.896
1010.143, 1257.477
1010.626, 1259.790
1011.108, 1261.996
1011.590, 1261.307
1012.072, 1259.742
1012.554, 1259.205
1013.036, 1259.721
1013.518, 1260.588
1014.000, 1262.240
1014.483, 1263.217
1014.965, 1262.908
1015.447, 1262.072
1015.929, 1262.618
1016.411, 1264.021
1016.893, 1263.967
1017.375, 1261.122
1017.857, 1259.451
1018.339, 1262.716
1018.822, 1267.297
1019.304, 1270.195
1019.786, 1271.300
1020.268, 1270.741
1020.750, 1268.171
1021.232, 1266.070
1021.714, 1266.462
1022.196, 1267.993
1022.679, 1269.031
1023.161, 1269.458
1023.643, 1268.918
1024.125, 1265.856
1024.607, 1263.757
1025.089, 1263.310
1025.571, 1263.898
1026.053, 1264.698
1026.535, 1265.747
1027.018, 1267.839
1027.500, 1271.195
1027.982, 1273.417
1028.464, 1270.233
1028.946, 1267.105
1029.428, 1269.156
1029.910, 1276.581
1030.392, 1281.387
1030.875, 1282.788
1031.357, 1284.627
1031.839, 1288.721
1032.321, 1293.342
1032.803, 1295.216
1033.285, 1295.254
1033.767, 1295.345
1034.249, 1296.253
1034.731, 1296.868
1035.214, 1296.240
1035.696, 1295.904
1036.178, 1297.193
1036.660, 1300.084
1037.142, 1302.352
1037.624, 1304.015
1038.106, 1306.601
1038.588, 1311.292
1039.071, 1317.154
1039.553, 1323.684
1040.035, 1330.874
1040.517, 1338.876
1040.999, 1348.421
1041.481, 1357.381
1041.963, 1366.286
1042.445, 1372.555
1042.927, 1372.357
1043.410, 1367.241
1043.892, 1358.652
1044.374, 1346.090
1044.856, 1338.011
1045.338, 1338.427
1045.820, 1343.251
1046.302, 1350.198
1046.784, 1360.000
1047.266, 1375.677
1047.749, 1397.506
1048.231, 1426.413
1048.713, 1456.983
1049.195, 1504.236
1049.677, 1569.396
1050.159, 1663.652
1050.641, 1802.563
1051.123, 1973.033
1051.606, 2225.165
1052.088, 2572.883
1052.570, 2953.458
1053.052, 3361.620
1053.534, 3757.439
1054.016, 4060.489
1054.498, 4281.899
1054.980, 4481.353
1055.463, 4650.007
1055.945, 4841.001
1056.427, 5059.603
1056.909, 5308.296
1057.391, 5580.817
1057.873, 5881.914
1058.355, 6243.234
1058.837, 6666.819
1059.319, 7186.042
1059.802, 7835.567
1060.284, 8569.079
1060.766, 9346.673
1061.248, 10169.04
1061.730, 11096.86
1062.212, 12145.69
1062.694, 13298.63
1063.176, 14812.76
1063.658, 15951.25
1064.141, 15634.33
1064.623, 14198.87
1065.105, 12116.31
1065.587, 8978.038
1066.069, 6438.613
1066.551, 4684.042
1067.033, 3459.922
1067.515, 2676.882
1067.998, 2272.649
1068.480, 1995.805
1068.962, 1834.003
1069.444, 1725.645
1069.926, 1663.292
1070.408, 1619.119
1070.890, 1586.125
1071.372, 1562.350
1071.854, 1545.941
1072.337, 1536.977
1072.819, 1535.755
1073.301, 1542.230
1073.783, 1557.400
1074.265, 1580.721
1074.747, 1614.192
1075.229, 1658.613
1075.711, 1714.440
1076.193, 1786.127
1076.676, 1868.768
1077.158, 1976.681
1077.640, 2117.225
1078.122, 2276.854
1078.604, 2440.540
1079.086, 2603.492
1079.568, 2753.023
1080.051, 2883.787
1080.533, 3018.288
1081.015, 3158.485
1081.497, 3311.052
1081.979, 3478.479
1082.461, 3659.623
1082.943, 3851.627
1083.425, 4057.866
1083.907, 4291.274
1084.390, 4557.307
1084.872, 4853.854
1085.354, 5209.444
1085.836, 5577.610
1086.318, 5902.687
1086.800, 6162.755
1087.282, 6478.867
1087.764, 6865.515
1088.246, 7206.669
1088.729, 7542.123
1089.211, 7685.672
1089.693, 7335.354
1090.175, 6590.319
1090.657, 5845.455
1091.139, 5130.913
1091.621, 4497.756
1092.103, 3959.350
1092.586, 3491.304
1093.068, 3055.630
1093.550, 2694.949
1094.032, 2358.916
1094.514, 2133.242
1094.996, 1951.514
1095.478, 1813.546
1095.960, 1703.229
1096.443, 1616.483
1096.925, 1550.470
1097.407, 1496.767
1097.889, 1454.559
1098.371, 1419.845
1098.853, 1391.907
1099.335, 1368.714
1099.817, 1350.847
1100.299, 1335.625
1100.781, 1320.232
1101.264, 1304.306
1101.746, 1292.611
1102.228, 1285.251
1102.710, 1279.975
1103.192, 1276.705
1103.674, 1273.717
1104.156, 1267.702
1104.638, 1261.125
1105.121, 1258.180
1105.603, 1262.865
1106.085, 1264.586
1106.567, 1262.742
1107.049, 1259.683
1107.531, 1256.526
1108.013, 1253.822
1108.495, 1253.302
1108.978, 1254.282
1109.460, 1254.001
1109.942, 1249.456
1110.424, 1246.290
1110.906, 1245.731
1111.388, 1246.469
1111.870, 1247.273
1112.352, 1247.901
1112.834, 1246.853
1113.317, 1244.070
1113.799, 1242.175
1114.281, 1244.193
1114.763, 1245.842
1115.245, 1244.562
1115.727, 1241.599
1116.209, 1240.165
1116.691, 1240.208
1117.173, 1239.974
1117.656, 1239.062
1118.138, 1238.074
1118.620, 1237.690
1119.102, 1237.354
1119.584, 1236.390
1120.066, 1234.826
1120.548, 1234.146
1121.030, 1234.500
1121.513, 1234.658
1121.995, 1234.135
1122.477, 1233.243
1122.959, 1231.186
1123.441, 1229.493
1123.923, 1230.643
1124.405, 1236.719
1124.887, 1240.791
1125.370, 1242.534
1125.852, 1242.929
1126.334, 1242.421
1126.816, 1241.043
1127.298, 1237.782
1127.780, 1233.799
1128.262, 1231.904
1128.744, 1235.136
1129.226, 1237.590
1129.709, 1238.757
1130.191, 1238.903
1130.673, 1238.008
1131.155, 1236.290
1131.637, 1234.265
1132.119, 1232.094
1132.601, 1230.629
1133.083, 1230.242
1133.566, 1230.760
1134.048, 1232.765
1134.530, 1235.034
1135.012, 1235.803
1135.494, 1235.216
1135.976, 1234.893
1136.458, 1234.976
1136.940, 1234.907
1137.422, 1234.235
1137.905, 1233.384
1138.387, 1232.600
1138.869, 1231.837
1139.351, 1230.694
1139.833, 1229.101
1140.315, 1229.269
1140.797, 1231.928
1141.279, 1234.017
1141.761, 1231.183
1142.244, 1227.825
1142.726, 1228.361
1143.208, 1232.664
1143.690, 1234.894
1144.172, 1234.574
1144.654, 1235.054
1145.136, 1237.792
1145.618, 1240.319
1146.101, 1239.225
1146.583, 1236.305
1147.065, 1233.343
1147.547, 1230.331
1148.029, 1229.682
1148.511, 1232.170
1148.993, 1234.578
1149.475, 1235.873
1149.958, 1235.789
1150.440, 1232.257
1150.922, 1227.495
1151.404, 1225.773
1151.886, 1230.269
1152.368, 1232.553
1152.850, 1231.379
1153.332, 1229.565
1153.814, 1228.576
1154.297, 1228.381
1154.779, 1229.576
1155.261, 1231.501
1155.743, 1232.256
1156.225, 1229.583
1156.707, 1228.047
1157.189, 1228.657
1157.671, 1229.721
1158.153, 1229.944
1158.636, 1229.398
1159.118, 1227.939
1159.600, 1225.874
1160.082, 1224.673
1160.564, 1225.754
1161.046, 1226.873
1161.528, 1227.051
1162.010, 1227.354
1162.493, 1229.767
1162.975, 1233.663
1163.457, 1234.155
1163.939, 1231.309
1164.421, 1229.116
1164.903, 1230.884
1165.385, 1232.736
1165.867, 1232.993
1166.349, 1232.225
1166.832, 1230.942
1167.314, 1229.244
1167.796, 1228.938
1168.278, 1230.232
1168.760, 1231.367
1169.242, 1230.383
1169.724, 1229.580
1170.206, 1231.157
1170.688, 1230.286
1171.171, 1233.706
1171.653, 1230.962
1172.135, 1229.813
1172.617, 1231.235
1173.099, 1232.809
1173.581, 1232.326
1174.063, 1231.398
1174.545, 1231.483
1175.028, 1232.268
1175.510, 1232.009
1175.992, 1230.657
1176.474, 1229.291
1176.956, 1228.090
1177.438, 1227.299
1177.920, 1227.418
1178.402, 1227.843
1178.885, 1227.835
1179.367, 1227.416
1179.849, 1228.362
1180.331, 1230.932
1180.813, 1232.067
1181.295, 1230.293
1181.777, 1227.826
1182.259, 1226.973
1182.741, 1226.726
1183.224, 1225.705
1183.706, 1223.625
1184.188, 1223.254
1184.670, 1224.790
1185.152, 1226.685
1185.634, 1228.599
1186.116, 1229.887
1186.598, 1229.165
1187.081, 1227.636
1187.563, 1226.902
1188.045, 1227.176
1188.527, 1228.187
1189.009, 1230.044
1189.491, 1231.886
1189.973, 1233.583
1190.455, 1234.608
1190.938, 1233.674
1191.420, 1231.862
1191.902, 1230.998
1192.384, 1231.957
1192.866, 1232.058
1193.348, 1231.100
1193.830, 1230.335
1194.312, 1230.903
1194.794, 1231.875
1195.276, 1231.830
1195.759, 1231.325
1196.241, 1231.551
1196.723, 1233.391
1197.205, 1234.155
1197.687, 1233.551
1198.169, 1233.001
1198.651, 1234.000
1199.133, 1235.403
1199.616, 1235.418
1200.098, 1236.118
1200.580, 1236.488
1201.062, 1236.037
1201.544, 1236.406
1202.026, 1235.205
1202.508, 1233.984
1202.990, 1234.398
1203.473, 1235.375
1203.955, 1235.380
1204.437, 1234.714
1204.919, 1234.580
1205.401, 1235.791
1205.883, 1235.773
1206.365, 1234.027
1206.847, 1232.297
1207.329, 1232.650
1207.812, 1233.738
1208.294, 1233.951
1208.776, 1233.352
1209.258, 1232.404
1209.740, 1230.548
1210.222, 1230.184
1210.704, 1231.869
1211.186, 1233.942
1211.668, 1234.472
1212.151, 1234.597
1212.633, 1236.303
1213.115, 1239.136
1213.597, 1239.803
1214.079, 1237.134
1214.561, 1235.178
1215.043, 1234.475
1215.525, 1234.652
1216.008, 1235.963
1216.490, 1237.462
1216.972, 1237.959
1217.454, 1237.482
1217.936, 1236.813
1218.418, 1235.744
1218.900, 1235.434
1219.382, 1236.165
1219.865, 1237.249
1220.347, 1237.808
1220.829, 1238.380
1221.311, 1240.052
1221.793, 1242.552
1222.275, 1243.218
1222.757, 1241.420
1223.239, 1240.147
1223.721, 1240.029
1224.203, 1240.337
1224.686, 1240.551
1225.168, 1240.585
1225.650, 1240.209
1226.132, 1239.491
1226.614, 1239.159
1227.096, 1239.219
1227.578, 1239.705
1228.061, 1240.684
1228.543, 1241.775
1229.025, 1242.807
1229.507, 1243.550
1229.989, 1243.516
1230.471, 1242.832
1230.953, 1243.051
1231.435, 1244.377
1231.917, 1244.451
1232.400, 1242.368
1232.882, 1240.707
1233.364, 1243.077
1233.846, 1246.072
1234.328, 1246.413
1234.810, 1244.437
1235.292, 1242.748
1235.774, 1241.349
1236.256, 1240.902
1236.739, 1241.787
1237.221, 1242.602
1237.703, 1241.906
1238.185, 1240.883
1238.667, 1240.532
1239.149, 1240.723
1239.631, 1241.028
1240.113, 1241.413
1240.596, 1240.643
1241.078, 1238.053
1241.560, 1236.366
1242.042, 1238.482
1242.524, 1241.410
1243.006, 1243.113
1243.488, 1243.899
1243.970, 1245.583
1244.453, 1247.818
1244.935, 1247.100
1245.417, 1241.848
1245.899, 1238.038
1246.381, 1240.976
1246.863, 1244.739
1247.345, 1246.165
1247.827, 1245.765
1248.309, 1244.627
1248.792, 1243.019
1249.274, 1241.980
1249.756, 1241.738
1250.238, 1242.300
1250.720, 1245.513
1251.202, 1247.190
1251.684, 1244.784
1252.166, 1240.460
1252.648, 1240.101
1253.131, 1242.491
1253.613, 1243.972
1254.095, 1243.601
1254.577, 1243.420
1255.059, 1244.264
1255.541, 1245.131
1256.023, 1245.772
1256.505, 1246.094
1256.988, 1245.689
1257.470, 1244.883
1257.952, 1244.386
1258.434, 1244.375
1258.916, 1244.369
1259.398, 1244.267
1259.880, 1244.256
1260.362, 1244.377
1260.844, 1244.703
1261.327, 1245.735
1261.809, 1246.875
1262.291, 1246.816
1262.773, 1245.148
1263.255, 1245.916
1263.737, 1250.724
1264.219, 1252.279
1264.701, 1246.875
1265.183, 1241.105
1265.666, 1245.021
1266.148, 1252.221
1266.630, 1254.713
1267.112, 1251.550
1267.594, 1251.102
1268.076, 1253.792
1268.558, 1255.741
1269.040, 1255.640
1269.523, 1255.183
1270.005, 1256.416
1270.487, 1257.780
1270.969, 1257.609
1271.451, 1256.183
1271.933, 1254.842
1272.415, 1253.618
1272.897, 1253.716
1273.380, 1255.814
1273.862, 1257.025
1274.344, 1254.011
1274.826, 1250.579
1275.308, 1248.885
1275.790, 1248.775
1276.272, 1250.261
1276.754, 1252.961
1277.236, 1254.962
1277.719, 1255.888
1278.201, 1255.762
1278.683, 1253.057
1279.165, 1251.214
1279.647, 1251.943
1280.129, 1253.926
1280.611, 1254.358
1281.093, 1253.731
1281.576, 1253.484
1282.058, 1253.884
1282.540, 1253.701
1283.022, 1251.876
1283.504, 1250.663
1283.986, 1250.837
1284.468, 1251.431
1284.950, 1250.447
1285.432, 1249.088
1285.915, 1249.549
1286.397, 1252.020
1286.879, 1254.182
1287.361, 1256.005
1287.843, 1256.764
1288.325, 1256.107
1288.807, 1255.059
1289.289, 1254.547
1289.771, 1254.458
1290.254, 1254.683
1290.736, 1255.244
1291.218, 1256.362
1291.700, 1258.193
1292.182, 1258.802
1292.664, 1257.760
1293.146, 1256.539
1293.628, 1256.212
1294.111, 1256.293
1294.593, 1256.570
1295.075, 1256.949
1295.557, 1257.422
1296.039, 1257.931
1296.521, 1257.574
1297.003, 1256.345
1297.485, 1255.684
1297.968, 1257.413
1298.450, 1258.164
1298.932, 1256.005
1299.414, 1253.402
1299.896, 1254.899
1300.378, 1258.941
1300.860, 1260.585
1301.342, 1259.624
1301.824, 1258.270
##END=



