##NAMES=Alum-(K)
##RRUFFID=R060014
##IDEAL CHEMISTRY=KAl(S^6+^O_4_)_2_&#183;12H_2_O
##LOCALITY=Tolfa, Italy
##OWNER=RRUFF
##SOURCE=American Museum of Natural History
##DESCRIPTION=Colorless fragment
##STATUS=The identification of this mineral has been confirmed by X-ray diffraction.
##URL=rruff.info/R060014
120.8869, 183.6480
121.3690, 185.2191
121.8511, 187.5841
122.3332, 190.4920
122.8154, 193.4141
123.2975, 195.9720
123.7796, 198.4419
124.2617, 201.1558
124.7438, 204.1591
125.2259, 207.3283
125.7081, 210.5584
126.1902, 213.7468
126.6723, 215.9116
127.1544, 217.2722
127.6365, 218.7254
128.1186, 220.5647
128.6008, 223.2127
129.0829, 225.8027
129.5650, 226.6306
130.0471, 225.8143
130.5292, 225.1334
131.0113, 226.5480
131.4935, 229.4999
131.9756, 231.6088
132.4577, 231.8405
132.9398, 230.9390
133.4219, 231.1531
133.9040, 232.6109
134.3862, 234.1244
134.8683, 234.1145
135.3504, 232.6196
135.8325, 231.6452
136.3146, 231.9998
136.7967, 233.5327
137.2789, 234.8094
137.7610, 235.8385
138.2431, 236.6295
138.7252, 237.2158
139.2073, 237.6082
139.6894, 237.7579
140.1716, 237.4926
140.6537, 236.6765
141.1358, 236.5334
141.6179, 237.2760
142.1000, 238.4714
142.5821, 239.2002
143.0643, 239.0986
143.5464, 239.3175
144.0285, 240.4734
144.5106, 243.1896
144.9927, 245.1852
145.4748, 246.2293
145.9570, 246.5896
146.4391, 246.9965
146.9212, 247.6813
147.4033, 248.1423
147.8854, 248.1008
148.3675, 246.8676
148.8497, 246.2189
149.3318, 246.5337
149.8139, 247.5742
150.2960, 248.1658
150.7781, 247.9051
151.2602, 247.4837
151.7424, 247.2748
152.2245, 247.7973
152.7066, 247.9370
153.1887, 247.3678
153.6708, 246.1728
154.1529, 245.3461
154.6351, 245.3796
155.1172, 245.5398
155.5993, 245.3366
156.0814, 244.8698
156.5635, 243.8814
157.0456, 241.9248
157.5278, 239.0238
158.0099, 236.8198
158.4920, 236.1938
158.9741, 236.1391
159.4562, 235.7565
159.9383, 234.4165
160.4205, 233.1040
160.9026, 232.1562
161.3847, 231.6047
161.8668, 231.1807
162.3489, 231.0860
162.8310, 230.9857
163.3132, 230.4886
163.7953, 228.8150
164.2774, 227.2110
164.7595, 226.4586
165.2416, 226.7427
165.7237, 226.9179
166.2059, 226.1255
166.6880, 224.9024
167.1701, 224.0664
167.6522, 224.3132
168.1343, 224.8469
168.6164, 225.1279
169.0985, 225.0814
169.5807, 224.8539
170.0628, 224.5213
170.5449, 224.0820
171.0270, 223.5334
171.5091, 222.6582
171.9912, 221.7828
172.4734, 221.2564
172.9555, 221.1883
173.4376, 221.2649
173.9197, 221.1167
174.4018, 220.8768
174.8839, 220.9143
175.3661, 221.5642
175.8482, 222.5701
176.3303, 223.6277
176.8124, 224.7227
177.2945, 225.7844
177.7766, 226.5821
178.2588, 227.2246
178.7409, 228.1296
179.2230, 229.7889
179.7051, 231.8735
180.1872, 233.8034
180.6693, 235.5792
181.1515, 237.0175
181.6336, 237.6449
182.1157, 237.5601
182.5978, 237.4630
183.0799, 237.7882
183.5620, 238.4738
184.0442, 239.4063
184.5263, 240.7331
185.0084, 242.0783
185.4905, 242.7634
185.9726, 242.8027
186.4547, 242.6597
186.9369, 242.6450
187.4190, 242.7387
187.9011, 242.9116
188.3832, 243.3227
188.8653, 243.6631
189.3474, 243.1078
189.8296, 241.6280
190.3117, 239.9852
190.7938, 238.9487
191.2759, 238.4087
191.7580, 237.4873
192.2401, 235.9173
192.7223, 233.8675
193.2044, 231.7977
193.6865, 229.6927
194.1686, 227.5172
194.6507, 225.3700
195.1328, 223.2336
195.6150, 220.6172
196.0971, 217.2226
196.5792, 213.3144
197.0613, 209.9181
197.5434, 207.0724
198.0255, 204.5722
198.5077, 202.5422
198.9898, 201.0146
199.4719, 198.8591
199.9540, 195.4993
200.4361, 191.2855
200.9182, 188.1778
201.4004, 186.4394
201.8825, 185.0694
202.3646, 183.0022
202.8467, 180.1618
203.3288, 177.4352
203.8109, 175.0312
204.2931, 172.9292
204.7752, 170.9983
205.2573, 169.3050
205.7394, 167.6254
206.2215, 165.6210
206.7036, 163.1907
207.1858, 161.0714
207.6679, 159.4967
208.1500, 158.4331
208.6321, 157.3886
209.1142, 156.3711
209.5963, 155.3574
210.0785, 154.2958
210.5606, 153.1528
211.0427, 152.1136
211.5248, 151.2266
212.0069, 150.4896
212.4890, 149.7775
212.9712, 149.0398
213.4533, 148.4040
213.9354, 148.0653
214.4175, 148.1406
214.8996, 148.1535
215.3817, 148.0049
215.8639, 147.6962
216.3460, 147.2347
216.8281, 146.5455
217.3102, 145.7982
217.7923, 145.1476
218.2744, 144.5104
218.7565, 144.1918
219.2387, 144.4333
219.7208, 145.2628
220.2029, 145.4553
220.6850, 144.7683
221.1671, 143.7290
221.6492, 142.9168
222.1314, 142.3944
222.6135, 141.9401
223.0956, 141.5193
223.5777, 141.1263
224.0598, 140.7896
224.5419, 140.5643
225.0241, 140.3321
225.5062, 139.9556
225.9883, 139.3872
226.4704, 138.7760
226.9525, 138.1541
227.4346, 137.5118
227.9168, 136.8947
228.3989, 136.3301
228.8810, 135.7622
229.3631, 135.0950
229.8452, 134.0980
230.3273, 133.4666
230.8095, 133.5112
231.2916, 134.2749
231.7737, 134.4823
232.2558, 133.9042
232.7379, 133.0094
233.2200, 132.2546
233.7022, 131.6564
234.1843, 131.1693
234.6664, 130.8053
235.1485, 130.5683
235.6306, 130.3564
236.1127, 130.1655
236.5949, 130.0005
237.0770, 129.8777
237.5591, 129.8580
238.0412, 129.7606
238.5233, 129.5385
239.0054, 129.1906
239.4876, 128.8689
239.9697, 128.7031
240.4518, 128.4234
240.9339, 127.7325
241.4160, 126.2847
241.8981, 125.1241
242.3803, 124.5568
242.8624, 124.5554
243.3445, 124.1804
243.8266, 123.1593
244.3087, 122.0688
244.7908, 121.4063
245.2730, 121.4039
245.7551, 121.3655
246.2372, 121.2077
246.7193, 120.9318
247.2014, 120.5558
247.6835, 120.0323
248.1657, 119.4667
248.6478, 118.9304
249.1299, 118.3722
249.6120, 117.9551
250.0941, 117.7740
250.5762, 117.7820
251.0584, 117.5846
251.5405, 117.0918
252.0226, 116.5191
252.5047, 116.0190
252.9868, 115.6119
253.4689, 115.2382
253.9511, 114.9564
254.4332, 114.7171
254.9153, 114.1781
255.3974, 113.0578
255.8795, 112.0773
256.3616, 111.7763
256.8438, 112.5186
257.3259, 112.9608
257.8080, 112.8498
258.2901, 112.3745
258.7722, 112.3400
259.2543, 113.0747
259.7365, 113.6946
260.2186, 113.6371
260.7007, 112.5878
261.1828, 111.8193
261.6649, 111.5060
262.1470, 111.4799
262.6292, 111.2052
263.1113, 110.5613
263.5934, 109.9112
264.0755, 109.4074
264.5576, 109.0158
265.0397, 108.9134
265.5219, 109.2449
266.0040, 109.7758
266.4861, 109.9395
266.9682, 109.6089
267.4503, 109.2281
267.9324, 108.9949
268.4146, 108.9250
268.8967, 108.9213
269.3788, 108.9863
269.8609, 109.1174
270.3430, 109.3349
270.8251, 109.6808
271.3073, 109.9747
271.7894, 110.1515
272.2715, 110.2141
272.7536, 110.1143
273.2357, 109.7896
273.7178, 109.3919
274.2000, 109.1346
274.6821, 109.0246
275.1642, 109.0289
275.6463, 109.1602
276.1284, 109.4180
276.6105, 109.6939
277.0927, 110.0284
277.5748, 110.2919
278.0569, 110.2935
278.5390, 110.0095
279.0211, 109.6572
279.5032, 109.2043
279.9854, 108.7054
280.4675, 108.6884
280.9496, 109.2517
281.4317, 109.9723
281.9138, 110.3853
282.3959, 110.4794
282.8781, 110.6062
283.3602, 110.9243
283.8423, 111.3364
284.3244, 111.3159
284.8065, 110.7893
285.2886, 110.2912
285.7708, 110.3971
286.2529, 111.0702
286.7350, 111.6273
287.2171, 111.9154
287.6992, 112.0027
288.1813, 111.9917
288.6635, 111.8681
289.1456, 111.8838
289.6277, 112.4508
290.1098, 113.4391
290.5919, 113.8805
291.0740, 113.4329
291.5562, 112.6572
292.0383, 112.7044
292.5204, 113.5426
293.0025, 114.4971
293.4846, 115.2346
293.9667, 115.7536
294.4489, 115.9983
294.9310, 115.8979
295.4131, 115.6895
295.8952, 115.7379
296.3773, 116.0081
296.8594, 116.2675
297.3416, 116.2336
297.8237, 116.1121
298.3058, 116.4469
298.7879, 117.3439
299.2700, 118.3659
299.7521, 118.9164
300.2343, 119.1387
300.7164, 119.4641
301.1985, 120.1681
301.6806, 121.0855
302.1627, 121.9913
302.6448, 122.8913
303.1270, 123.6866
303.6091, 124.3482
304.0912, 124.8392
304.5733, 125.1147
305.0554, 124.8042
305.5375, 124.4541
306.0197, 124.7974
306.5018, 125.7947
306.9839, 126.7985
307.4660, 127.1728
307.9481, 127.2817
308.4302, 127.6544
308.9124, 128.7287
309.3945, 129.8627
309.8766, 130.5114
310.3587, 130.7443
310.8408, 130.8924
311.3229, 131.0843
311.8051, 131.3249
312.2872, 131.6249
312.7693, 132.0405
313.2514, 132.4294
313.7335, 132.7239
314.2156, 132.9293
314.6978, 133.0669
315.1799, 133.0057
315.6620, 132.9678
316.1441, 133.1474
316.6262, 133.6763
317.1083, 134.1469
317.5905, 134.1929
318.0726, 134.0816
318.5547, 134.2833
319.0368, 135.6255
319.5189, 136.7933
320.0010, 136.9874
320.4832, 135.9236
320.9653, 135.0279
321.4474, 134.7606
321.9295, 134.8549
322.4116, 134.9989
322.8937, 135.3568
323.3759, 135.5340
323.8580, 135.3299
324.3401, 134.7196
324.8222, 134.2144
325.3043, 133.8237
325.7864, 133.6020
326.2686, 133.5911
326.7507, 134.1404
327.2328, 134.5184
327.7149, 134.6176
328.1970, 134.4479
328.6791, 134.1462
329.1613, 133.5444
329.6434, 132.9471
330.1255, 132.5126
330.6076, 132.4314
331.0897, 132.2346
331.5718, 131.8638
332.0540, 131.3728
332.5361, 130.9259
333.0182, 130.6475
333.5003, 130.2422
333.9824, 129.5383
334.4645, 128.3212
334.9467, 127.4679
335.4288, 127.1245
335.9109, 127.0480
336.3930, 126.8423
336.8751, 126.4291
337.3572, 126.0762
337.8394, 125.9416
338.3215, 126.0526
338.8036, 125.7213
339.2857, 124.7771
339.7678, 123.6850
340.2499, 122.9473
340.7320, 122.6302
341.2141, 122.3520
341.6963, 122.0482
342.1784, 121.7174
342.6605, 121.3588
343.1426, 120.9760
343.6247, 120.5602
344.1068, 120.0665
344.5890, 119.5076
345.0711, 119.0702
345.5532, 118.8301
346.0353, 118.6622
346.5174, 118.2100
346.9995, 117.4768
347.4817, 116.9468
347.9638, 117.1375
348.4459, 117.8051
348.9280, 118.0452
349.4101, 117.7578
349.8922, 117.1885
350.3744, 116.5069
350.8565, 115.7731
351.3386, 115.2069
351.8207, 114.9504
352.3028, 114.9223
352.7849, 115.1078
353.2671, 115.5132
353.7492, 115.7375
354.2313, 115.2451
354.7134, 114.3610
355.1955, 113.6537
355.6776, 113.4569
356.1598, 113.3889
356.6419, 112.9777
357.1240, 112.3165
357.6061, 111.9033
358.0882, 112.2044
358.5703, 112.8251
359.0525, 113.4136
359.5346, 113.9832
360.0167, 114.3263
360.4988, 114.2045
360.9809, 113.7612
361.4630, 113.3118
361.9452, 112.8770
362.4273, 112.5510
362.9094, 112.4432
363.3915, 112.6330
363.8736, 112.7097
364.3557, 112.3564
364.8379, 111.8765
365.3200, 111.6269
365.8021, 111.8057
366.2842, 112.1081
366.7663, 112.5888
367.2484, 113.2515
367.7306, 113.5354
368.2127, 113.0759
368.6948, 112.4065
369.1769, 111.8770
369.6590, 111.2484
370.1411, 111.0855
370.6233, 111.7930
371.1054, 113.0475
371.5875, 113.5774
372.0696, 112.7265
372.5517, 111.9450
373.0338, 111.9243
373.5160, 113.1495
373.9981, 113.6929
374.4802, 113.2029
374.9623, 112.3171
375.4444, 112.1085
375.9265, 112.8210
376.4087, 113.5290
376.8908, 113.9594
377.3729, 114.1229
377.8550, 114.3064
378.3371, 114.5529
378.8192, 114.7003
379.3014, 114.4558
379.7835, 113.7849
380.2656, 113.4876
380.7477, 113.8257
381.2298, 114.5260
381.7119, 114.8897
382.1941, 114.9071
382.6762, 114.8909
383.1583, 115.1181
383.6404, 115.4986
384.1225, 115.6293
384.6046, 115.4196
385.0868, 115.1456
385.5689, 115.1354
386.0510, 115.3560
386.5331, 115.6788
387.0152, 116.2550
387.4973, 116.8140
387.9795, 116.8632
388.4616, 116.4011
388.9437, 115.9472
389.4258, 115.9702
389.9079, 116.2404
390.3900, 116.4258
390.8722, 116.3538
391.3543, 116.2511
391.8364, 116.2890
392.3185, 116.4367
392.8006, 116.5795
393.2827, 116.7577
393.7649, 116.8486
394.2470, 116.6730
394.7291, 115.9801
395.2112, 115.6439
395.6933, 116.3898
396.1754, 117.5928
396.6576, 118.3186
397.1397, 117.7574
397.6218, 117.2377
398.1039, 117.1930
398.5860, 117.6742
399.0681, 118.2558
399.5503, 119.1787
400.0324, 120.0206
400.5145, 120.4562
400.9966, 120.0081
401.4787, 119.8389
401.9608, 120.2124
402.4430, 120.9415
402.9251, 121.2517
403.4072, 120.7966
403.8893, 120.4517
404.3714, 120.6697
404.8535, 121.6421
405.3357, 122.3976
405.8178, 122.9380
406.2999, 123.2484
406.7820, 123.1839
407.2641, 122.6347
407.7462, 122.3461
408.2284, 122.5884
408.7105, 123.2701
409.1926, 124.0319
409.6747, 124.9017
410.1568, 125.6515
410.6389, 125.9507
411.1211, 125.9011
411.6032, 126.1388
412.0853, 126.8582
412.5674, 127.7321
413.0495, 128.2296
413.5316, 128.4298
414.0138, 128.7197
414.4959, 129.4391
414.9780, 130.3416
415.4601, 130.9756
415.9422, 131.3006
416.4243, 131.7218
416.9065, 132.7404
417.3886, 134.0327
417.8707, 135.0900
418.3528, 135.3971
418.8349, 135.7480
419.3170, 136.7044
419.7992, 138.1767
420.2813, 139.6838
420.7634, 140.9765
421.2455, 142.2863
421.7276, 143.7851
422.2097, 145.6063
422.6919, 147.3884
423.1740, 149.1257
423.6561, 150.7566
424.1382, 152.2298
424.6203, 153.2231
425.1024, 154.3334
425.5846, 155.7694
426.0667, 157.5484
426.5488, 159.2245
427.0309, 160.4698
427.5130, 161.9206
427.9951, 164.1266
428.4773, 167.7692
428.9594, 170.6264
429.4415, 172.2114
429.9236, 173.0706
430.4057, 174.6387
430.8878, 177.0480
431.3700, 179.7469
431.8521, 182.5948
432.3342, 185.5933
432.8163, 188.3676
433.2984, 190.8872
433.7805, 193.2973
434.2627, 195.7612
434.7448, 198.2705
435.2269, 200.7641
435.7090, 203.3873
436.1911, 205.8610
436.6732, 207.4625
437.1554, 208.2847
437.6375, 209.0231
438.1196, 210.0278
438.6017, 211.2790
439.0838, 212.8445
439.5659, 214.8096
440.0480, 216.6737
440.5302, 218.0555
441.0123, 219.0600
441.4944, 219.8638
441.9765, 220.4202
442.4586, 220.8990
442.9407, 221.3299
443.4229, 221.7362
443.9050, 222.3112
444.3871, 223.3201
444.8692, 224.3984
445.3513, 225.3019
445.8334, 225.9137
446.3156, 226.4941
446.7977, 227.0142
447.2798, 227.5397
447.7619, 228.1860
448.2440, 229.0374
448.7261, 229.9198
449.2083, 230.7638
449.6904, 231.5637
450.1725, 232.5163
450.6546, 233.6982
451.1367, 234.9231
451.6188, 236.0943
452.1010, 237.3018
452.5831, 238.1617
453.0652, 238.6253
453.5473, 238.7604
454.0294, 238.6813
454.5115, 238.3681
454.9937, 237.9990
455.4758, 237.6723
455.9579, 237.3618
456.4400, 236.9624
456.9221, 236.4840
457.4042, 235.7808
457.8864, 234.6728
458.3685, 233.2190
458.8506, 231.5218
459.3327, 229.5139
459.8148, 227.4489
460.2969, 225.6258
460.7791, 223.9895
461.2612, 222.4170
461.7433, 221.0904
462.2254, 219.6363
462.7075, 217.6227
463.1896, 214.9402
463.6718, 212.3878
464.1539, 210.6479
464.6360, 209.1462
465.1181, 207.3400
465.6002, 204.7917
466.0823, 202.2447
466.5645, 199.7051
467.0466, 197.2801
467.5287, 195.3748
468.0108, 194.7617
468.4929, 194.0111
468.9750, 192.5459
469.4572, 190.1044
469.9393, 187.9139
470.4214, 185.9557
470.9035, 184.2812
471.3856, 182.9940
471.8677, 182.2089
472.3499, 181.4574
472.8320, 180.7065
473.3141, 179.8990
473.7962, 178.7798
474.2783, 177.3140
474.7604, 175.7992
475.2426, 174.4449
475.7247, 173.2042
476.2068, 171.7529
476.6889, 170.0248
477.1710, 168.4008
477.6531, 167.4150
478.1353, 166.8826
478.6174, 166.2838
479.0995, 165.3572
479.5816, 164.3915
480.0637, 163.8277
480.5458, 163.5412
481.0280, 163.0803
481.5101, 161.8966
481.9922, 160.6159
482.4743, 159.8097
482.9564, 159.6248
483.4385, 159.3959
483.9207, 158.6133
484.4028, 157.7528
484.8849, 157.3166
485.3670, 157.9544
485.8491, 158.4255
486.3312, 158.5452
486.8134, 158.3207
487.2955, 157.8149
487.7776, 156.8227
488.2597, 155.8154
488.7418, 154.9196
489.2239, 154.0780
489.7061, 153.7349
490.1882, 154.1229
490.6703, 154.6671
491.1524, 154.7095
491.6345, 154.1902
492.1166, 153.5528
492.5988, 152.7472
493.0809, 151.9880
493.5630, 151.9465
494.0451, 152.6004
494.5272, 153.3074
495.0093, 153.8165
495.4915, 154.0846
495.9736, 153.9764
496.4557, 153.4767
496.9378, 152.7969
497.4199, 151.8034
497.9020, 150.8324
498.3842, 150.4579
498.8663, 151.1956
499.3484, 152.0732
499.8305, 152.5845
500.3126, 152.7662
500.7947, 152.7098
501.2769, 151.9980
501.7590, 151.4444
502.2411, 151.5879
502.7232, 152.6184
503.2053, 153.2210
503.6874, 153.0014
504.1696, 152.4218
504.6517, 151.7917
505.1338, 150.9310
505.6159, 150.3280
506.0980, 150.0047
506.5801, 149.9586
507.0623, 150.2764
507.5444, 151.1363
508.0265, 151.7905
508.5086, 151.9048
508.9907, 151.5517
509.4728, 151.3430
509.9550, 151.2977
510.4371, 151.2563
510.9192, 151.1082
511.4013, 150.8533
511.8834, 150.4160
512.3655, 149.6835
512.8477, 149.0962
513.3298, 149.4103
513.8119, 150.2813
514.2940, 150.8867
514.7761, 150.5408
515.2582, 150.0290
515.7404, 149.9301
516.2225, 150.2158
516.7046, 150.6084
517.1867, 151.2666
517.6688, 151.7942
518.1509, 151.8830
518.6331, 151.2642
519.1152, 150.7588
519.5973, 150.4258
520.0794, 150.3041
520.5615, 150.4460
521.0436, 151.0422
521.5258, 151.6230
522.0079, 152.2801
522.4900, 152.8783
522.9721, 152.5617
523.4542, 150.9264
523.9363, 149.5799
524.4185, 149.6356
524.9006, 151.0817
525.3827, 151.6371
525.8648, 151.1929
526.3469, 150.4448
526.8290, 150.0691
527.3112, 150.0207
527.7933, 150.1382
528.2754, 150.4572
528.7575, 150.7954
529.2396, 150.8940
529.7217, 150.8282
530.2039, 150.8152
530.6860, 151.1079
531.1681, 151.3871
531.6502, 151.3256
532.1323, 150.9197
532.6144, 150.7075
533.0966, 151.2505
533.5787, 151.8335
534.0608, 151.9120
534.5429, 150.7128
535.0250, 150.1338
535.5071, 150.8337
535.9893, 152.0465
536.4714, 152.6484
536.9535, 152.3419
537.4356, 151.9989
537.9177, 151.8096
538.3998, 151.7422
538.8820, 151.6303
539.3641, 151.4936
539.8462, 151.2371
540.3283, 150.7247
540.8104, 150.0089
541.2925, 149.4688
541.7747, 149.1424
542.2568, 148.8604
542.7389, 148.2948
543.2210, 147.6376
543.7031, 147.4076
544.1852, 148.0565
544.6674, 148.6839
545.1495, 148.3487
545.6316, 147.3357
546.1137, 146.3558
546.5958, 145.7396
547.0779, 145.2341
547.5601, 144.6724
548.0422, 144.0413
548.5243, 143.5920
549.0064, 143.6364
549.4885, 143.6941
549.9706, 143.4504
550.4528, 142.6361
550.9349, 142.0155
551.4170, 141.5892
551.8991, 141.3412
552.3812, 141.3133
552.8633, 141.6094
553.3455, 141.6850
553.8276, 141.3526
554.3097, 140.7416
554.7918, 140.2361
555.2739, 139.8448
555.7560, 139.5415
556.2382, 139.4116
556.7203, 139.3434
557.2024, 139.0376
557.6845, 138.4748
558.1666, 137.9326
558.6487, 137.5902
559.1309, 137.4277
559.6130, 137.4539
560.0951, 137.7952
560.5772, 138.0780
561.0593, 138.1175
561.5414, 137.9781
562.0236, 137.7749
562.5057, 137.2627
562.9878, 136.9696
563.4699, 137.0935
563.9520, 137.5981
564.4341, 138.1865
564.9163, 139.0768
565.3984, 139.7406
565.8805, 139.8610
566.3626, 139.3252
566.8447, 138.8902
567.3268, 138.5190
567.8090, 138.3296
568.2911, 138.5210
568.7732, 139.0584
569.2553, 139.6589
569.7374, 140.3668
570.2195, 140.9136
570.7017, 140.6653
571.1838, 139.9044
571.6659, 139.5269
572.1480, 140.4225
572.6301, 141.5556
573.1122, 141.9401
573.5944, 141.6657
574.0765, 141.6058
574.5586, 142.3763
575.0407, 143.3093
575.5228, 144.0280
576.0049, 144.4692
576.4871, 144.7248
576.9692, 144.6165
577.4513, 144.4490
577.9334, 144.4943
578.4155, 144.7579
578.8976, 145.2429
579.3798, 146.0240
579.8619, 146.9702
580.3440, 147.8313
580.8261, 148.6272
581.3082, 149.0536
581.7903, 148.6973
582.2725, 147.9548
582.7546, 148.1102
583.2367, 149.1011
583.7188, 150.1425
584.2009, 150.4547
584.6830, 150.5500
585.1652, 151.1769
585.6473, 152.5130
586.1294, 153.8319
586.6115, 154.5472
587.0936, 155.1036
587.5757, 155.9603
588.0578, 157.6871
588.5399, 159.1856
589.0220, 160.2226
589.5042, 160.8924
589.9863, 161.3879
590.4684, 161.3118
590.9505, 161.7197
591.4326, 163.0872
591.9147, 165.2543
592.3969, 166.7005
592.8790, 167.2623
593.3611, 167.8089
593.8432, 168.9518
594.3253, 170.5741
594.8074, 172.2115
595.2896, 173.8660
595.7717, 175.3454
596.2538, 176.2325
596.7359, 176.8584
597.2180, 177.8396
597.7001, 179.3879
598.1823, 181.1568
598.6644, 182.9532
599.1465, 184.8019
599.6286, 186.7529
600.1107, 188.6595
600.5928, 190.8113
601.0750, 193.5566
601.5571, 196.7560
602.0392, 199.3443
602.5213, 200.8501
603.0034, 202.3938
603.4855, 204.4090
603.9677, 206.9421
604.4498, 209.5355
604.9319, 212.2274
605.4140, 214.9166
605.8961, 217.5356
606.3782, 220.0762
606.8604, 222.1357
607.3425, 223.5579
607.8246, 224.9919
608.3067, 227.2056
608.7888, 230.0104
609.2709, 232.9802
609.7531, 236.2868
610.2352, 239.3174
610.7173, 241.5338
611.1994, 243.1621
611.6815, 244.8375
612.1636, 247.3119
612.6458, 249.3684
613.1279, 250.4751
613.6100, 250.5694
614.0921, 250.5637
614.5742, 250.4184
615.0563, 250.2309
615.5385, 250.2651
616.0206, 250.7926
616.5027, 249.7487
616.9848, 246.8166
617.4669, 243.2828
617.9490, 240.6370
618.4312, 238.7339
618.9133, 236.9383
619.3954, 235.1541
619.8775, 233.2947
620.3596, 231.2786
620.8417, 229.0904
621.3239, 226.7445
621.8060, 223.8951
622.2881, 221.1532
622.7702, 218.8280
623.2523, 216.8914
623.7344, 215.2157
624.2166, 214.0553
624.6987, 212.8733
625.1808, 211.5293
625.6629, 210.0311
626.1450, 208.1329
626.6271, 205.5513
627.1093, 202.9914
627.5914, 200.9881
628.0735, 199.5851
628.5556, 198.1046
629.0377, 196.5310
629.5198, 194.8622
630.0020, 192.8869
630.4841, 190.7835
630.9662, 189.2533
631.4483, 188.8784
631.9304, 188.2704
632.4125, 185.5997
632.8947, 181.7518
633.3768, 178.4465
633.8589, 176.5667
634.3410, 175.2362
634.8231, 174.3682
635.3052, 173.8447
635.7874, 173.0223
636.2695, 171.4456
636.7516, 170.0090
637.2337, 169.1748
637.7158, 168.9899
638.1979, 167.9787
638.6801, 165.8812
639.1622, 163.6688
639.6443, 162.0412
640.1264, 160.9747
640.6085, 160.2404
641.0906, 159.8697
641.5728, 159.5473
642.0549, 159.0688
642.5370, 158.3752
643.0191, 157.2955
643.5012, 155.5686
643.9833, 153.8811
644.4655, 152.6987
644.9476, 151.8434
645.4297, 150.9628
645.9118, 149.7626
646.3939, 148.7649
646.8760, 148.2314
647.3582, 148.0290
647.8403, 147.6935
648.3224, 147.2240
648.8045, 146.5992
649.2866, 145.6878
649.7687, 144.5579
650.2509, 144.0147
650.7330, 144.0987
651.2151, 144.2842
651.6972, 144.3212
652.1793, 144.1447
652.6614, 143.4802
653.1436, 142.2846
653.6257, 141.1392
654.1078, 140.3544
654.5899, 139.9465
655.0720, 140.0151
655.5541, 140.9762
656.0363, 141.5831
656.5184, 141.2955
657.0005, 140.4968
657.4826, 139.6563
657.9647, 138.5907
658.4468, 137.8449
658.9290, 137.5753
659.4111, 137.6096
659.8932, 137.5906
660.3753, 137.5368
660.8574, 137.2353
661.3395, 136.4364
661.8217, 135.4430
662.3038, 135.0803
662.7859, 135.2706
663.2680, 135.4844
663.7501, 135.3802
664.2322, 135.1453
664.7144, 134.9315
665.1965, 134.7499
665.6786, 134.6324
666.1607, 134.7936
666.6428, 134.8763
667.1249, 134.5695
667.6071, 133.4872
668.0892, 133.0769
668.5713, 133.8366
669.0534, 134.7262
669.5355, 134.7157
670.0176, 133.6318
670.4998, 132.8837
670.9819, 132.6497
671.4640, 132.6593
671.9461, 132.5487
672.4282, 132.3506
672.9103, 132.1794
673.3925, 132.0500
673.8746, 131.9912
674.3567, 132.1070
674.8388, 132.3109
675.3209, 132.4172
675.8030, 132.1147
676.2852, 131.9343
676.7673, 132.1909
677.2494, 132.7998
677.7315, 133.2209
678.2136, 133.5458
678.6957, 133.5204
679.1779, 132.9396
679.6600, 131.8313
680.1421, 131.0437
680.6242, 130.5827
681.1063, 130.3438
681.5884, 130.3017
682.0706, 130.4220
682.5527, 130.6321
683.0348, 130.9355
683.5169, 131.1882
683.9990, 131.4517
684.4811, 131.5240
684.9633, 130.9920
685.4454, 129.3664
685.9275, 128.4918
686.4096, 129.9142
686.8917, 131.9661
687.3738, 132.7840
687.8560, 131.2892
688.3381, 130.3929
688.8202, 130.4577
689.3023, 130.9816
689.7844, 131.0852
690.2665, 130.7246
690.7487, 130.5827
691.2308, 130.9997
691.7129, 131.4757
692.1950, 130.9002
692.6771, 129.5681
693.1592, 128.5492
693.6414, 128.4488
694.1235, 128.7940
694.6056, 129.4852
695.0877, 130.3800
695.5698, 130.9312
696.0519, 130.5867
696.5341, 130.2368
697.0162, 130.3166
697.4983, 130.8204
697.9804, 130.9693
698.4625, 130.6080
698.9446, 130.2155
699.4268, 130.1005
699.9089, 130.2436
700.3910, 130.2139
700.8731, 129.9964
701.3552, 129.7985
701.8373, 129.8315
702.3195, 129.9983
702.8016, 130.1962
703.2837, 130.4480
703.7658, 130.4541
704.2479, 129.5915
704.7300, 128.6249
705.2122, 128.3162
705.6943, 129.4585
706.1764, 130.1834
706.6585, 130.2015
707.1406, 129.8574
707.6227, 129.4913
708.1049, 129.0300
708.5870, 128.9061
709.0691, 129.3105
709.5512, 129.8512
710.0333, 129.7597
710.5154, 129.1471
710.9976, 128.5842
711.4797, 128.1423
711.9618, 128.0093
712.4439, 128.7139
712.9260, 129.8846
713.4081, 130.6400
713.8903, 130.2737
714.3724, 129.7847
714.8545, 129.5963
715.3366, 129.6437
715.8187, 129.4209
716.3008, 128.5695
716.7830, 128.0755
717.2651, 128.3959
717.7472, 129.4055
718.2293, 130.1021
718.7114, 130.4827
719.1935, 130.6093
719.6757, 130.3892
720.1578, 129.9874
720.6399, 129.7401
721.1220, 129.6468
721.6041, 129.4920
722.0862, 128.9535
722.5684, 128.4314
723.0505, 128.2396
723.5326, 128.4726
724.0147, 128.7567
724.4968, 129.1506
724.9789, 129.4755
725.4611, 129.6202
725.9432, 129.5603
726.4253, 129.3876
726.9074, 129.0714
727.3895, 128.7353
727.8716, 128.4801
728.3538, 128.3138
728.8359, 128.2788
729.3180, 128.3915
729.8001, 128.6030
730.2822, 129.0257
730.7643, 129.4673
731.2465, 129.6516
731.7286, 129.3211
732.2107, 129.0070
732.6928, 128.7886
733.1749, 128.6950
733.6570, 128.7726
734.1392, 129.1013
734.6213, 129.4200
735.1034, 129.7118
735.5855, 129.9505
736.0676, 130.0632
736.5497, 130.0563
737.0319, 130.0610
737.5140, 130.2058
737.9961, 130.2647
738.4782, 129.7862
738.9603, 128.9757
739.4424, 128.3605
739.9246, 128.1660
740.4067, 128.2348
740.8888, 128.7012
741.3709, 129.4273
741.8530, 129.7846
742.3351, 129.4903
742.8173, 129.2331
743.2994, 129.2503
743.7815, 129.4630
744.2636, 129.3388
744.7457, 128.8362
745.2278, 128.5658
745.7100, 129.1703
746.1921, 130.1307
746.6742, 130.3466
747.1563, 129.9160
747.6384, 129.5330
748.1205, 129.6551
748.6027, 129.9240
749.0848, 130.0797
749.5669, 130.0961
750.0490, 130.2479
750.5311, 130.6807
751.0132, 131.1349
751.4954, 131.5840
751.9775, 132.0648
752.4596, 131.8464
752.9417, 130.7670
753.4238, 129.7759
753.9059, 129.7272
754.3881, 130.3136
754.8702, 130.8126
755.3523, 131.1701
755.8344, 131.3391
756.3165, 131.1214
756.7986, 130.7980
757.2808, 130.6024
757.7629, 130.5650
758.2450, 130.6739
758.7271, 131.2071
759.2092, 131.6564
759.6913, 131.6123
760.1735, 130.8885
760.6556, 130.4620
761.1377, 130.4022
761.6198, 130.4887
762.1019, 130.3756
762.5840, 130.2002
763.0662, 130.5122
763.5483, 131.4977
764.0304, 132.4409
764.5125, 132.7324
764.9946, 132.6342
765.4767, 132.4187
765.9589, 131.9577
766.4410, 131.7224
766.9231, 132.0898
767.4052, 132.5354
767.8873, 132.4100
768.3694, 131.4296
768.8516, 131.0632
769.3337, 131.6050
769.8158, 132.4896
770.2979, 132.9627
770.7800, 133.0786
771.2621, 132.9999
771.7443, 132.6949
772.2264, 132.3924
772.7085, 132.2611
773.1906, 132.2657
773.6727, 132.3533
774.1548, 132.5537
774.6370, 132.7892
775.1191, 133.2691
775.6012, 133.6795
776.0833, 133.3673
776.5654, 132.0144
777.0475, 131.3172
777.5297, 131.7288
778.0118, 132.6874
778.4939, 133.3458
778.9760, 133.7057
779.4581, 133.7451
779.9402, 133.2439
780.4224, 132.7243
780.9045, 132.5907
781.3866, 132.7376
781.8687, 132.9717
782.3508, 133.3582
782.8329, 133.6798
783.3151, 133.8903
783.7972, 134.0103
784.2793, 134.0960
784.7614, 134.1577
785.2435, 134.1173
785.7256, 133.9226
786.2077, 133.6582
786.6898, 133.4511
787.1719, 133.3158
787.6541, 133.3097
788.1362, 133.6685
788.6183, 133.9642
789.1004, 133.8778
789.5825, 133.5089
790.0646, 133.1050
790.5468, 132.3855
791.0289, 132.0752
791.5110, 132.5557
791.9931, 133.4715
792.4752, 133.6006
792.9573, 132.8369
793.4395, 132.2469
793.9216, 132.2469
794.4037, 132.5907
794.8858, 132.8998
795.3679, 133.1623
795.8500, 133.3292
796.3322, 133.2006
796.8143, 133.1402
797.2964, 133.5454
797.7785, 134.2165
798.2606, 134.3978
798.7427, 133.5509
799.2249, 132.9320
799.7070, 132.8760
800.1891, 133.2352
800.6712, 133.5190
801.1533, 133.7259
801.6354, 134.0230
802.1176, 134.6303
802.5997, 135.2244
803.0818, 135.2340
803.5639, 134.8150
804.0460, 134.4408
804.5281, 134.2011
805.0103, 134.1801
805.4924, 134.5120
805.9745, 135.1194
806.4566, 135.6847
806.9387, 136.3952
807.4208, 136.5869
807.9030, 135.8428
808.3851, 134.6020
808.8672, 134.1956
809.3493, 134.5664
809.8314, 135.2140
810.3135, 136.2832
810.7957, 137.1581
811.2778, 136.9643
811.7599, 136.0386
812.2420, 135.3265
812.7241, 135.2897
813.2062, 135.3786
813.6884, 135.5257
814.1705, 135.6662
814.6526, 135.5511
815.1347, 135.0933
815.6168, 134.7489
816.0989, 134.7070
816.5811, 134.8105
817.0632, 134.6451
817.5453, 134.2956
818.0274, 134.1075
818.5095, 134.4412
818.9916, 134.8086
819.4738, 134.7467
819.9559, 134.4669
820.4380, 134.5345
820.9201, 135.8267
821.4022, 136.4393
821.8843, 135.6941
822.3665, 134.2434
822.8486, 133.9189
823.3307, 134.7608
823.8128, 135.4520
824.2949, 135.4781
824.7770, 135.2426
825.2592, 135.3423
825.7413, 135.6546
826.2234, 135.8903
826.7055, 135.9986
827.1876, 135.9283
827.6697, 135.4608
828.1519, 134.8303
828.6340, 134.5724
829.1161, 134.8695
829.5982, 135.1061
830.0803, 135.1370
830.5624, 135.0975
831.0446, 135.2785
831.5267, 135.6387
832.0088, 135.9765
832.4909, 136.2389
832.9730, 136.4292
833.4551, 136.4383
833.9373, 136.4074
834.4194, 136.5620
834.9015, 137.2098
835.3836, 137.7291
835.8657, 138.0236
836.3478, 138.1722
836.8300, 138.3090
837.3121, 138.4498
837.7942, 138.3568
838.2763, 137.9127
838.7584, 137.4428
839.2405, 137.4049
839.7227, 137.6685
840.2048, 137.9902
840.6869, 138.3730
841.1690, 138.6505
841.6511, 138.7020
842.1332, 138.6271
842.6154, 138.5441
843.0975, 138.4734
843.5796, 138.3497
844.0617, 138.1227
844.5438, 137.9319
845.0259, 138.0305
845.5081, 138.3388
845.9902, 138.3708
846.4723, 137.9860
846.9544, 137.7686
847.4365, 138.4715
847.9186, 139.4926
848.4008, 140.1757
848.8829, 140.3477
849.3650, 140.3344
849.8471, 140.0161
850.3292, 139.7045
850.8113, 139.6616
851.2935, 139.9268
851.7756, 140.0855
852.2577, 140.1239
852.7398, 140.0744
853.2219, 139.7985
853.7040, 139.5210
854.1862, 139.6613
854.6683, 140.2801
855.1504, 140.8994
855.6325, 141.2734
856.1146, 141.5923
856.5967, 141.9947
857.0789, 142.5037
857.5610, 142.9120
858.0431, 143.2383
858.5252, 143.3875
859.0073, 143.1610
859.4894, 142.7047
859.9716, 142.6299
860.4537, 142.8949
860.9358, 143.0368
861.4179, 142.3783
861.9000, 141.8086
862.3821, 142.1429
862.8643, 143.3486
863.3464, 144.0916
863.8285, 144.0642
864.3106, 143.9112
864.7927, 143.8128
865.2748, 143.7751
865.7570, 143.8596
866.2391, 144.0591
866.7212, 144.2286
867.2033, 144.3504
867.6854, 144.3596
868.1675, 143.9706
868.6497, 143.3956
869.1318, 143.2557
869.6139, 144.3659
870.0960, 145.1955
870.5781, 145.2703
871.0602, 144.8602
871.5424, 144.5907
872.0245, 144.4597
872.5066, 144.5002
872.9887, 144.7688
873.4708, 145.1202
873.9529, 145.3879
874.4351, 145.5657
874.9172, 145.6301
875.3993, 145.4911
875.8814, 145.3693
876.3635, 145.3457
876.8456, 145.3921
877.3278, 145.5019
877.8099, 145.8068
878.2920, 145.6919
878.7741, 144.9302
879.2562, 144.1753
879.7383, 144.3680
880.2205, 145.2293
880.7026, 146.0192
881.1847, 146.6293
881.6668, 147.0272
882.1489, 146.9328
882.6310, 146.7757
883.1132, 146.9958
883.5953, 147.8808
884.0774, 148.3791
884.5595, 148.3981
885.0416, 148.1973
885.5237, 147.9283
886.0059, 147.5994
886.4880, 147.2317
886.9701, 146.8326
887.4522, 146.5527
887.9343, 146.7057
888.4164, 146.8783
888.8986, 146.5427
889.3807, 145.6860
889.8628, 145.4213
890.3449, 146.2849
890.8270, 147.2021
891.3091, 147.8294
891.7913, 148.1859
892.2734, 148.3214
892.7555, 148.2395
893.2376, 148.0232
893.7197, 147.5527
894.2018, 147.1026
894.6840, 147.0185
895.1661, 147.1832
895.6482, 147.2740
896.1303, 146.8838
896.6124, 146.8181
897.0945, 147.4534
897.5767, 148.3761
898.0588, 148.6435
898.5409, 148.2334
899.0230, 147.8268
899.5051, 147.5412
899.9872, 147.4235
900.4694, 147.5805
900.9515, 147.9309
901.4336, 148.3737
901.9157, 149.0904
902.3978, 149.4783
902.8799, 149.1033
903.3621, 148.5089
903.8442, 148.1408
904.3263, 148.0364
904.8084, 147.9514
905.2905, 147.8696
905.7726, 147.8387
906.2548, 147.9214
906.7369, 148.0771
907.2190, 148.2201
907.7011, 148.3384
908.1832, 148.5527
908.6653, 149.2419
909.1475, 149.7313
909.6296, 149.5136
910.1117, 148.6108
910.5938, 148.3550
911.0759, 148.8830
911.5580, 149.3427
912.0402, 149.1983
912.5223, 148.7047
913.0044, 148.2100
913.4865, 147.7857
913.9686, 147.7243
914.4507, 148.5417
914.9329, 149.3491
915.4150, 149.7476
915.8971, 149.8613
916.3792, 149.9996
916.8613, 150.1628
917.3434, 150.3708
917.8256, 150.6926
918.3077, 150.9212
918.7898, 150.5437
919.2719, 149.8259
919.7540, 149.4208
920.2361, 149.6382
920.7183, 149.9015
921.2004, 149.8390
921.6825, 149.7533
922.1646, 150.0028
922.6467, 150.8693
923.1288, 151.1277
923.6110, 150.5943
924.0931, 150.0523
924.5752, 150.3572
925.0573, 151.1850
925.5394, 151.8545
926.0215, 152.3159
926.5037, 152.6727
926.9858, 153.1203
927.4679, 153.3686
927.9500, 153.0611
928.4321, 152.2679
928.9142, 151.9595
929.3964, 152.2568
929.8785, 152.5894
930.3606, 152.7302
930.8427, 152.7249
931.3248, 152.5918
931.8069, 152.3887
932.2891, 152.3066
932.7712, 152.5160
933.2533, 152.7688
933.7354, 152.8774
934.2175, 152.9914
934.6996, 153.4211
935.1818, 154.3223
935.6639, 155.0576
936.1460, 155.6000
936.6281, 155.8344
937.1102, 155.3286
937.5923, 154.4594
938.0745, 154.0400
938.5566, 154.2471
939.0387, 154.7862
939.5208, 155.8174
940.0029, 156.8819
940.4850, 157.5976
940.9672, 157.8973
941.4493, 158.3545
941.9314, 158.9799
942.4135, 159.6862
942.8956, 160.6455
943.3777, 161.5526
943.8599, 161.5608
944.3420, 160.8820
944.8241, 160.6246
945.3062, 161.6588
945.7883, 162.8667
946.2704, 163.8239
946.7526, 164.6069
947.2347, 165.4417
947.7168, 166.3557
948.1989, 167.1355
948.6810, 167.6591
949.1631, 168.1882
949.6453, 169.0350
950.1274, 170.1817
950.6095, 171.6303
951.0916, 173.6449
951.5737, 175.3867
952.0558, 176.2836
952.5380, 177.0428
953.0201, 178.2135
953.5022, 179.8432
953.9843, 181.4313
954.4664, 182.9193
954.9485, 184.7276
955.4307, 187.3898
955.9128, 190.4632
956.3949, 193.2952
956.8770, 195.9055
957.3591, 198.9265
957.8412, 202.8808
958.3234, 206.9330
958.8055, 210.7202
959.2876, 214.4822
959.7697, 219.2212
960.2518, 224.9435
960.7339, 230.7386
961.2161, 236.0609
961.6982, 241.8222
962.1803, 249.1605
962.6624, 257.6067
963.1445, 266.5435
963.6266, 276.0558
964.1088, 285.6802
964.5909, 295.1606
965.0730, 305.1367
965.5551, 315.8185
966.0372, 327.2998
966.5193, 341.2753
967.0015, 357.7619
967.4836, 375.4072
967.9657, 393.0231
968.4478, 411.2373
968.9299, 430.2658
969.4120, 450.1658
969.8942, 471.3298
970.3763, 494.6502
970.8584, 517.7398
971.3405, 540.5414
971.8226, 562.1399
972.3047, 581.2843
972.7869, 597.6207
973.2690, 610.0554
973.7511, 617.8048
974.2332, 622.0193
974.7153, 622.9882
975.1974, 620.9129
975.6796, 615.8793
976.1617, 606.5384
976.6438, 598.1021
977.1259, 590.5388
977.6080, 585.0901
978.0901, 583.6075
978.5723, 585.1371
979.0544, 587.2637
979.5365, 589.8174
980.0186, 595.7853
980.5007, 606.2150
980.9828, 620.8670
981.4650, 639.7418
981.9471, 662.5882
982.4291, 688.2465
982.9113, 716.4559
983.3934, 750.2656
983.8755, 790.3737
984.3576, 837.5444
984.8397, 892.6837
985.3218, 956.3782
985.8040, 1028.756
986.2861, 1111.489
986.7682, 1201.467
987.2503, 1302.320
987.7324, 1405.663
988.2145, 1508.679
988.6967, 1610.307
989.1788, 1682.876
989.6609, 1725.133
990.1430, 1727.272
990.6251, 1676.144
991.1072, 1586.275
991.5894, 1459.925
992.0715, 1300.196
992.5536, 1142.546
993.0357, 982.1022
993.5178, 838.4559
993.9999, 719.3268
994.4821, 621.3505
994.9642, 539.7819
995.4463, 474.1434
995.9284, 420.5608
996.4105, 380.9212
996.8926, 348.2179
997.3748, 320.0945
997.8569, 296.7099
998.3390, 277.6865
998.8211, 263.8112
999.3032, 251.2924
999.7853, 240.3335
1000.267, 230.5760
1000.750, 222.0443
1001.232, 214.5627
1001.714, 207.9220
1002.196, 202.1630
1002.678, 197.1996
1003.160, 193.6434
1003.642, 190.3201
1004.124, 186.9263
1004.607, 183.5094
1005.089, 180.1200
1005.571, 176.7669
1006.053, 174.3537
1006.535, 173.3445
1007.017, 172.6034
1007.499, 170.8203
1007.981, 168.7620
1008.463, 167.3726
1008.946, 167.3386
1009.428, 166.6038
1009.910, 164.8763
1010.392, 162.9924
1010.874, 161.4059
1011.356, 160.1453
1011.838, 159.6114
1012.320, 159.6685
1012.802, 159.5304
1013.285, 158.7867
1013.767, 157.7264
1014.249, 156.1048
1014.731, 154.3702
1015.213, 153.6427
1015.695, 154.1664
1016.177, 154.1025
1016.659, 152.9930
1017.142, 151.8356
1017.624, 152.0430
1018.106, 152.8768
1018.588, 153.3441
1019.070, 153.2691
1019.552, 152.8998
1020.034, 152.0335
1020.516, 151.2151
1020.998, 150.6776
1021.481, 150.3938
1021.963, 150.3295
1022.445, 150.4372
1022.927, 150.3834
1023.409, 149.6615
1023.891, 149.1205
1024.373, 149.7296
1024.855, 150.7717
1025.338, 150.9180
1025.820, 149.6775
1026.302, 148.8153
1026.784, 148.4707
1027.266, 148.3996
1027.748, 148.4042
1028.230, 148.4821
1028.712, 148.6972
1029.194, 149.0353
1029.677, 149.2094
1030.159, 149.0713
1030.641, 148.7527
1031.123, 148.1438
1031.605, 147.4526
1032.087, 147.6120
1032.569, 148.5510
1033.051, 148.9252
1033.534, 148.1010
1034.016, 147.1177
1034.498, 146.8125
1034.980, 146.9350
1035.462, 147.2353
1035.944, 147.8297
1036.426, 148.1376
1036.908, 148.0787
1037.391, 147.9600
1037.873, 148.0491
1038.355, 148.2296
1038.837, 148.1168
1039.319, 147.7941
1039.801, 147.6411
1040.283, 148.1376
1040.765, 148.4674
1041.247, 148.2575
1041.729, 147.7953
1042.212, 147.5140
1042.694, 147.4160
1043.176, 147.3443
1043.658, 147.2523
1044.140, 147.3644
1044.622, 148.1984
1045.104, 149.1235
1045.586, 149.4126
1046.069, 148.9404
1046.551, 148.9326
1047.033, 149.7049
1047.515, 150.2370
1047.997, 150.0235
1048.479, 149.4601
1048.961, 149.4606
1049.443, 149.8153
1049.926, 149.9822
1050.408, 149.6511
1050.890, 149.3211
1051.372, 149.1283
1051.854, 149.0390
1052.336, 149.0295
1052.818, 149.0999
1053.300, 149.2657
1053.782, 149.5275
1054.265, 149.8515
1054.747, 150.2879
1055.229, 150.7119
1055.711, 151.0827
1056.193, 151.3579
1056.675, 151.3797
1057.157, 151.0196
1057.639, 150.7129
1058.121, 150.4820
1058.604, 150.4357
1059.086, 150.9105
1059.568, 151.6256
1060.050, 151.9600
1060.532, 151.7730
1061.014, 151.7462
1061.496, 152.3759
1061.978, 152.9773
1062.461, 153.2683
1062.943, 153.2927
1063.425, 153.2152
1063.907, 153.0514
1064.389, 152.9342
1064.871, 152.8813
1065.353, 152.9554
1065.835, 153.4466
1066.318, 153.9750
1066.800, 153.9667
1067.282, 153.0102
1067.764, 152.9158
1068.246, 153.8283
1068.728, 154.9155
1069.210, 155.7240
1069.692, 156.1982
1070.174, 155.9801
1070.656, 155.3026
1071.139, 155.0571
1071.621, 156.1323
1072.103, 156.8250
1072.585, 156.6717
1073.067, 156.2641
1073.549, 156.6627
1074.031, 157.6204
1074.513, 157.9634
1074.996, 157.4944
1075.478, 157.1702
1075.960, 157.7016
1076.442, 158.4863
1076.924, 159.2510
1077.406, 159.9570
1077.888, 160.2675
1078.370, 160.1550
1078.853, 160.2350
1079.335, 160.8157
1079.817, 161.4402
1080.299, 161.3269
1080.781, 161.0718
1081.263, 161.5466
1081.745, 163.4214
1082.227, 164.6163
1082.709, 164.9345
1083.192, 165.0504
1083.674, 165.3103
1084.156, 165.7257
1084.638, 166.3319
1085.120, 167.1182
1085.602, 168.0607
1086.084, 169.4586
1086.566, 170.6170
1087.048, 171.3595
1087.531, 171.8238
1088.013, 172.0695
1088.495, 172.1320
1088.977, 172.3640
1089.459, 172.7932
1089.941, 173.5092
1090.423, 174.9322
1090.905, 176.3337
1091.387, 177.1532
1091.870, 177.5246
1092.352, 177.9701
1092.834, 178.4412
1093.316, 179.4223
1093.798, 181.1630
1094.280, 182.9480
1094.762, 183.9406
1095.244, 184.4753
1095.727, 184.9581
1096.209, 185.4599
1096.691, 185.7349
1097.173, 185.5438
1097.655, 185.6792
1098.137, 186.6663
1098.619, 188.0528
1099.101, 188.8870
1099.583, 189.2310
1100.066, 189.2480
1100.548, 188.6175
1101.030, 188.3441
1101.512, 188.7711
1101.994, 189.5617
1102.476, 190.7083
1102.958, 192.1304
1103.440, 192.4241
1103.922, 191.7097
1104.405, 191.3518
1104.887, 192.6907
1105.369, 194.0595
1105.851, 194.5820
1106.333, 194.4606
1106.815, 194.0284
1107.297, 193.1729
1107.779, 192.8412
1108.262, 193.1444
1108.744, 193.7736
1109.226, 194.7498
1109.708, 195.6867
1110.190, 196.1445
1110.672, 196.1388
1111.154, 196.1633
1111.636, 196.0871
1112.119, 196.5457
1112.601, 197.8439
1113.083, 199.3819
1113.565, 200.3855
1114.047, 200.9657
1114.529, 201.2107
1115.011, 201.0490
1115.493, 201.2128
1115.975, 201.8461
1116.458, 202.8636
1116.940, 204.3962
1117.422, 206.2102
1117.904, 207.5427
1118.386, 208.4924
1118.868, 209.4326
1119.350, 210.3375
1119.832, 211.5557
1120.314, 213.3566
1120.797, 215.4476
1121.279, 217.7216
1121.761, 220.1703
1122.243, 221.9874
1122.725, 223.2185
1123.207, 224.5834
1123.689, 226.5972
1124.171, 228.7979
1124.654, 231.0104
1125.136, 233.1653
1125.618, 235.1763
1126.100, 237.1062
1126.582, 238.5651
1127.064, 239.4997
1127.546, 240.2371
1128.028, 240.7974
1128.510, 241.5042
1128.993, 243.1114
1129.475, 245.2702
1129.957, 246.2106
1130.439, 245.4843
1130.921, 244.5334
1131.403, 243.5092
1131.885, 242.5989
1132.367, 242.6067
1132.849, 242.6294
1133.332, 240.9352
1133.814, 237.2911
1134.296, 234.2132
1134.778, 232.7703
1135.260, 231.0580
1135.742, 228.4365
1136.224, 225.2979
1136.706, 222.3585
1137.189, 219.5455
1137.671, 216.7014
1138.153, 213.8502
1138.635, 210.6183
1139.117, 206.3078
1139.599, 202.2139
1140.081, 198.9722
1140.563, 196.4974
1141.046, 194.1687
1141.528, 192.0056
1142.010, 190.0136
1142.492, 188.3225
1142.974, 186.6138
1143.456, 184.8473
1143.938, 182.9031
1144.420, 180.5547
1144.902, 177.7408
1145.385, 175.7854
1145.867, 174.6621
1146.349, 173.6931
1146.831, 172.4774
1147.313, 171.2679
1147.795, 170.2811
1148.277, 169.4294
1148.759, 168.4934
1149.241, 167.3685
1149.724, 166.8712
1150.206, 167.1029
1150.688, 167.1855
1151.170, 166.3521
1151.652, 165.0724
1152.134, 163.4614
1152.616, 161.7587
1153.098, 160.8287
1153.581, 160.8980
1154.063, 161.1246
1154.545, 161.4937
1155.027, 161.5810
1155.509, 160.5812
1155.991, 159.2256
1156.473, 158.4762
1156.955, 158.3684
1157.438, 158.1499
1157.920, 157.5799
1158.402, 157.3134
1158.884, 157.6133
1159.366, 158.0239
1159.848, 157.9387
1160.330, 157.4606
1160.812, 156.6223
1161.294, 155.3598
1161.776, 154.5578
1162.259, 154.5269
1162.741, 154.7000
1163.223, 154.9294
1163.705, 155.1779
1164.187, 155.4095
1164.669, 155.5852
1165.151, 155.6319
1165.633, 155.5464
1166.116, 155.2458
1166.598, 154.4550
1167.080, 153.7857
1167.562, 153.5748
1168.044, 153.6985
1168.526, 153.7307
1169.008, 153.7089
1169.490, 153.7907
1169.973, 154.2747
1170.455, 154.3977
1170.937, 153.3926
1171.419, 152.4504
1171.901, 152.5139
1172.383, 153.4126
1172.865, 153.7622
1173.347, 153.6287
1173.829, 153.4166
1174.312, 153.3467
1174.794, 153.2178
1175.276, 152.7739
1175.758, 152.3613
1176.240, 152.3526
1176.722, 152.7344
1177.204, 153.1087
1177.686, 153.4498
1178.168, 153.6019
1178.651, 153.1858
1179.133, 152.8617
1179.615, 153.1144
1180.097, 153.5970
1180.579, 153.8067
1181.061, 153.7370
1181.543, 153.6581
1182.025, 153.5885
1182.508, 153.6151
1182.990, 154.0125
1183.472, 154.3170
1183.954, 154.0722
1184.436, 153.5478
1184.918, 153.2808
1185.400, 153.2679
1185.882, 153.7956
1186.365, 154.9612
1186.847, 155.8970
1187.329, 155.8893
1187.811, 155.3768
1188.293, 154.3153
1188.775, 153.0451
1189.257, 152.8746
1189.739, 153.9046
1190.221, 154.6914
1190.703, 154.9529
1191.186, 154.9575
1191.668, 154.6587
1192.150, 154.4543
1192.632, 154.9026
1193.114, 155.8783
1193.596, 156.1625
1194.078, 155.6885
1194.560, 155.1026
1195.043, 154.5222
1195.525, 154.1106
1196.007, 154.1563
1196.489, 154.3731
1196.971, 154.5043
1197.453, 154.5291
1197.935, 154.4401
1198.417, 154.2409
1198.900, 153.8596
1199.382, 153.1437
1199.864, 152.5695
1200.346, 152.8837
1200.828, 153.4741
1201.310, 153.5722
1201.792, 153.0510
1202.274, 152.8407
1202.756, 152.9899
1203.239, 153.0298
1203.721, 152.6877
1204.203, 152.2600
1204.685, 151.9665
1205.167, 151.8371
1205.649, 151.9602
1206.131, 152.3952
1206.613, 152.7738
1207.095, 153.1228
1207.578, 153.1959
1208.060, 152.6579
1208.542, 152.0386
1209.024, 151.9784
1209.506, 152.2075
1209.988, 152.3584
1210.470, 152.5323
1210.952, 151.9646
1211.435, 150.5200
1211.917, 149.4272
1212.399, 149.8439
1212.881, 150.6241
1213.363, 150.3819
1213.845, 149.7119
1214.327, 149.7856
1214.809, 151.0553
1215.292, 151.6755
1215.774, 151.5822
1216.256, 151.2275
1216.738, 150.6738
1217.220, 150.2503
1217.702, 150.4066
1218.184, 150.8889
1218.666, 151.1431
1219.148, 151.0703
1219.630, 151.0785
1220.113, 151.1987
1220.595, 151.2618
1221.077, 151.0144
1221.559, 150.7646
1222.041, 150.8602
1222.523, 151.1609
1223.005, 151.2961
1223.487, 151.2171
1223.970, 151.1538
1224.452, 151.1157
1224.934, 151.1714
1225.416, 151.6405
1225.898, 151.9855
1226.380, 151.5666
1226.862, 150.6748
1227.344, 150.1837
1227.827, 150.1615
1228.309, 150.1263
1228.791, 150.0366
1229.273, 149.8920
1229.755, 149.5106
1230.237, 149.2416
1230.719, 149.4769
1231.201, 150.0352
1231.683, 150.3703
1232.166, 150.4603
1232.648, 150.5773
1233.130, 150.7575
1233.612, 150.8694
1234.094, 150.8224
1234.576, 150.6509
1235.058, 150.1843
1235.540, 149.6638
1236.022, 149.7815
1236.505, 150.5547
1236.987, 150.9156
1237.469, 150.7155
1237.951, 150.3153
1238.433, 149.7899
1238.915, 149.3630
1239.397, 149.2947
1239.879, 149.4024
1240.362, 149.2052
1240.844, 148.7431
1241.326, 148.5969
1241.808, 148.8637
1242.290, 149.3466
1242.772, 150.2888
1243.254, 150.9892
1243.736, 151.0899
1244.219, 150.7046
1244.701, 149.7849
1245.183, 148.5098
1245.665, 148.2154
1246.147, 149.1933
1246.629, 150.0330
1247.111, 149.6620
1247.593, 149.2995
1248.075, 149.5600
1248.557, 150.1136
1249.040, 150.1735
1249.522, 149.8555
1250.004, 149.6057
1250.486, 149.5017
1250.968, 149.4504
1251.450, 149.4604
1251.932, 149.4545
1252.414, 149.3730
1252.897, 149.3040
1253.379, 149.4802
1253.861, 149.8143
1254.343, 150.1015
1254.825, 150.3099
1255.307, 150.3931
1255.789, 150.0362
1256.271, 150.0668
1256.754, 150.9720
1257.236, 152.0015
1257.718, 151.4021
1258.200, 150.0208
1258.682, 149.5749
1259.164, 150.4183
1259.646, 150.9679
1260.128, 150.9178
1260.610, 150.7161
1261.093, 150.4589
1261.575, 150.2006
1262.057, 150.0463
1262.539, 149.9367
1263.021, 149.7388
1263.503, 149.4238
1263.985, 149.4107
1264.467, 149.8582
1264.949, 150.0710
1265.432, 149.7775
1265.914, 149.3722
1266.396, 149.4045
1266.878, 149.5809
1267.360, 149.5062
1267.842, 149.1444
1268.324, 149.1460
1268.806, 149.5805
1269.289, 149.7299
1269.771, 149.2687
1270.253, 148.9020
1270.735, 149.6472
1271.217, 150.5683
1271.699, 150.6824
1272.181, 150.1138
1272.663, 149.5915
1273.146, 149.1247
1273.628, 149.0976
1274.110, 149.7330
1274.592, 150.2609
1275.074, 149.8836
1275.556, 149.4166
1276.038, 149.4361
1276.520, 149.8065
1277.002, 150.0701
1277.484, 150.2103
1277.967, 150.0222
1278.449, 149.3366
1278.931, 149.0395
1279.413, 150.1917
1279.895, 151.1480
1280.377, 151.0776
1280.859, 150.3969
1281.341, 150.1144
1281.823, 150.1254
1282.306, 150.0746
1282.788, 149.8460
1283.270, 149.9267
1283.752, 150.8446
1284.234, 151.4613
1284.716, 151.3296
1285.198, 150.8214
1285.680, 150.5298
1286.163, 150.3865
1286.645, 150.2566
1287.127, 150.1147
1287.609, 150.0542
1288.091, 150.0451
1288.573, 150.2418
1289.055, 150.7690
1289.537, 151.3016
1290.020, 151.3504
1290.502, 151.1812
1290.984, 151.1344
1291.466, 151.2336
1291.948, 151.0071
1292.430, 150.3547
1292.912, 150.1993
1293.394, 150.8925
1293.876, 151.6171
1294.359, 151.4302
1294.841, 151.0722
1295.323, 151.3061
1295.805, 151.9382
1296.287, 152.2128
1296.769, 152.1361
1297.251, 151.6822
1297.733, 150.7878
1298.215, 150.0473
1298.698, 149.8968
1299.180, 149.9639
1299.662, 149.9847
1300.144, 150.1090
1300.626, 150.9881
1301.108, 152.2818
##END=



