##NAMES=Alumoklyuchevskite
##RRUFFID=R070041
##IDEAL CHEMISTRY=K_3_Cu^2+^_3_AlO_2_(S^6+^O_4_)_4_
##LOCALITY=main fracture, N breakthrough, Tolbachik Volcano, Kamchatka Peninsula, Russia
##OWNER=RRUFF
##SOURCE=Michael Scott
##DESCRIPTION=Green blebs to prismatic or needle-like crystals associated with vergasovaite, co-type material
##STATUS=The identification of this mineral has been confirmed by single-crystal X-ray diffraction.
##URL=rruff.info/R070041
142.3917, 2804.180
142.8738, 2771.067
143.3559, 2774.224
143.8380, 2809.521
144.3201, 2841.554
144.8022, 2834.705
145.2844, 2784.086
145.7665, 2754.099
146.2486, 2764.370
146.7307, 2787.875
147.2128, 2797.643
147.6949, 2788.971
148.1771, 2769.500
148.6592, 2745.228
149.1413, 2717.004
149.6234, 2686.048
150.1055, 2649.816
150.5876, 2610.883
151.0698, 2575.204
151.5519, 2542.469
152.0340, 2516.535
152.5161, 2501.878
152.9982, 2498.721
153.4803, 2495.631
153.9625, 2481.525
154.4446, 2455.861
154.9267, 2435.560
155.4088, 2426.776
155.8909, 2423.995
156.3730, 2425.448
156.8552, 2431.019
157.3373, 2437.151
157.8194, 2439.075
158.3015, 2436.181
158.7836, 2430.206
159.2657, 2419.309
159.7479, 2406.958
160.2300, 2397.442
160.7121, 2392.949
161.1942, 2389.543
161.6763, 2373.821
162.1584, 2319.017
162.6406, 2289.470
163.1227, 2317.701
163.6048, 2370.343
164.0869, 2403.186
164.5690, 2387.410
165.0511, 2328.862
165.5333, 2290.127
166.0154, 2280.678
166.4975, 2280.938
166.9796, 2292.551
167.4617, 2310.899
167.9438, 2328.970
168.4260, 2342.331
168.9081, 2351.502
169.3902, 2343.205
169.8723, 2296.449
170.3544, 2253.677
170.8365, 2238.045
171.3187, 2249.402
171.8008, 2272.851
172.2829, 2296.726
172.7650, 2322.240
173.2471, 2334.945
173.7292, 2319.316
174.2114, 2299.771
174.6935, 2300.475
175.1756, 2326.230
175.6577, 2359.259
176.1398, 2379.499
176.6219, 2387.235
177.1041, 2386.588
177.5862, 2372.762
178.0683, 2352.034
178.5504, 2335.695
179.0325, 2328.053
179.5146, 2321.128
179.9968, 2302.449
180.4789, 2271.640
180.9610, 2244.292
181.4431, 2227.103
181.9252, 2219.120
182.4073, 2216.947
182.8895, 2219.785
183.3716, 2216.112
183.8537, 2233.736
184.3358, 2244.816
184.8179, 2249.704
185.3000, 2229.852
185.7822, 2241.947
186.2643, 2241.239
186.7464, 2240.005
187.2285, 2256.596
187.7106, 2240.342
188.1927, 2256.650
188.6749, 2259.960
189.1570, 2269.218
189.6391, 2273.677
190.1212, 2260.641
190.6033, 2299.447
191.0854, 2325.862
191.5676, 2340.592
192.0497, 2306.538
192.5318, 2337.074
193.0139, 2342.703
193.4960, 2347.979
193.9781, 2389.600
194.4603, 2366.234
194.9424, 2408.685
195.4245, 2425.838
195.9066, 2455.586
196.3887, 2460.269
196.8708, 2473.606
197.3530, 2513.417
197.8351, 2539.651
198.3172, 2544.158
198.7993, 2578.848
199.2814, 2561.555
199.7635, 2591.187
200.2457, 2576.996
200.7278, 2586.457
201.2099, 2667.496
201.6920, 2732.829
202.1741, 2755.491
202.6563, 2752.061
203.1384, 2752.933
203.6205, 2779.302
204.1026, 2830.376
204.5847, 2875.602
205.0668, 2901.920
205.5490, 2936.281
206.0311, 2994.752
206.5132, 3069.850
206.9953, 3141.499
207.4774, 3194.146
207.9595, 3226.916
208.4417, 3256.712
208.9238, 3275.932
209.4059, 3299.503
209.8880, 3336.631
210.3701, 3385.641
210.8522, 3437.517
211.3344, 3484.067
211.8165, 3524.246
212.2986, 3570.420
212.7807, 3634.105
213.2628, 3694.623
213.7449, 3738.760
214.2271, 3765.457
214.7092, 3781.172
215.1913, 3790.684
215.6734, 3793.029
216.1555, 3790.906
216.6376, 3779.061
217.1198, 3765.845
217.6019, 3735.255
218.0840, 3740.561
218.5661, 3733.686
219.0482, 3715.285
219.5303, 3650.836
220.0125, 3645.844
220.4946, 3617.027
220.9767, 3587.232
221.4588, 3590.614
221.9409, 3532.862
222.4230, 3535.718
222.9052, 3514.376
223.3873, 3504.111
223.8694, 3464.273
224.3515, 3396.184
224.8336, 3301.601
225.3158, 3208.113
225.7979, 3117.143
226.2800, 3033.403
226.7621, 2966.074
227.2442, 2911.854
227.7263, 2853.823
228.2085, 2784.600
228.6906, 2707.396
229.1727, 2626.119
229.6548, 2536.245
230.1369, 2453.613
230.6190, 2394.016
231.1012, 2354.248
231.5833, 2320.558
232.0654, 2291.126
232.5475, 2263.459
233.0296, 2226.683
233.5117, 2171.273
233.9939, 2119.315
234.4760, 2093.535
234.9581, 2088.818
235.4402, 2077.253
235.9223, 2033.774
236.4044, 1965.881
236.8866, 1914.622
237.3687, 1892.666
237.8508, 1878.870
238.3329, 1857.011
238.8150, 1828.697
239.2971, 1803.066
239.7793, 1790.124
240.2614, 1788.098
240.7435, 1778.132
241.2256, 1754.801
241.7077, 1726.672
242.1898, 1695.663
242.6720, 1663.518
243.1541, 1636.684
243.6362, 1622.805
244.1183, 1621.532
244.6004, 1617.743
245.0825, 1608.564
245.5647, 1598.456
246.0468, 1588.198
246.5289, 1578.564
247.0110, 1571.893
247.4931, 1573.126
247.9752, 1582.801
248.4574, 1584.579
248.9395, 1578.430
249.4216, 1562.365
249.9037, 1525.451
250.3858, 1473.962
250.8679, 1431.742
251.3501, 1426.419
251.8322, 1462.080
252.3143, 1482.376
252.7964, 1479.375
253.2785, 1465.343
253.7606, 1434.808
254.2428, 1394.234
254.7249, 1363.438
255.2070, 1367.317
255.6891, 1411.305
256.1712, 1435.208
256.6533, 1418.135
257.1354, 1396.999
257.6176, 1385.121
258.0997, 1381.786
258.5818, 1379.237
259.0639, 1369.906
259.5460, 1352.926
260.0281, 1338.653
260.5103, 1325.937
260.9924, 1317.384
261.4745, 1317.678
261.9566, 1323.991
262.4387, 1327.982
262.9208, 1320.379
263.4030, 1299.541
263.8851, 1287.560
264.3672, 1297.018
264.8493, 1304.700
265.3314, 1276.048
265.8135, 1303.204
266.2957, 1317.374
266.7778, 1319.260
267.2599, 1271.768
267.7420, 1288.271
268.2241, 1279.270
268.7062, 1269.320
269.1884, 1295.120
269.6705, 1255.333
270.1526, 1280.770
270.6347, 1280.314
271.1168, 1291.857
271.5989, 1277.738
272.0811, 1271.678
272.5632, 1291.491
273.0453, 1297.136
273.5274, 1280.458
274.0095, 1293.366
274.4916, 1253.696
274.9738, 1260.355
275.4559, 1287.061
275.9380, 1272.187
276.4201, 1286.074
276.9022, 1289.148
277.3843, 1242.716
277.8665, 1282.658
278.3486, 1285.391
278.8307, 1249.917
279.3128, 1287.208
279.7949, 1257.219
280.2770, 1266.990
280.7592, 1263.041
281.2413, 1256.618
281.7234, 1259.742
282.2055, 1281.856
282.6876, 1317.885
283.1697, 1335.590
283.6519, 1317.047
284.1340, 1299.495
284.6161, 1288.783
285.0982, 1283.625
285.5803, 1281.734
286.0624, 1281.911
286.5446, 1284.265
287.0267, 1290.127
287.5088, 1311.866
287.9909, 1319.889
288.4730, 1296.303
288.9551, 1261.648
289.4373, 1242.267
289.9194, 1251.760
290.4015, 1277.971
290.8836, 1284.052
291.3657, 1252.457
291.8478, 1226.376
292.3300, 1205.178
292.8121, 1194.272
293.2942, 1204.823
293.7763, 1241.285
294.2584, 1286.396
294.7405, 1300.775
295.2227, 1262.811
295.7048, 1231.708
296.1869, 1221.615
296.6690, 1215.466
297.1511, 1195.504
297.6332, 1156.899
298.1154, 1114.085
298.5975, 1092.972
299.0796, 1103.585
299.5617, 1114.102
300.0438, 1122.443
300.5259, 1129.682
301.0081, 1139.894
301.4902, 1152.587
301.9723, 1159.211
302.4544, 1142.873
302.9365, 1088.738
303.4186, 1057.864
303.9008, 1076.736
304.3829, 1099.800
304.8650, 1099.140
305.3471, 1073.807
305.8292, 1044.381
306.3113, 1033.818
306.7935, 1046.246
307.2756, 1058.210
307.7577, 1073.440
308.2398, 1084.870
308.7219, 1088.357
309.2040, 1084.684
309.6862, 1077.845
310.1683, 1068.954
310.6504, 1057.496
311.1325, 1056.086
311.6146, 1074.490
312.0967, 1094.016
312.5789, 1111.457
313.0610, 1124.759
313.5431, 1130.591
314.0252, 1124.843
314.5073, 1108.980
314.9894, 1094.482
315.4716, 1077.761
315.9537, 1068.028
316.4358, 1079.603
316.9179, 1098.272
317.4000, 1097.056
317.8821, 1051.070
318.3643, 982.0546
318.8464, 966.1754
319.3285, 1038.754
319.8106, 1098.403
320.2927, 1104.263
320.7748, 1081.662
321.2570, 1060.997
321.7391, 1055.550
322.2212, 1055.166
322.7033, 1035.904
323.1854, 986.0383
323.6675, 953.3040
324.1497, 965.0381
324.6318, 994.4984
325.1139, 1022.352
325.5960, 1044.449
326.0781, 1057.792
326.5602, 1054.968
327.0424, 1033.467
327.5245, 1016.161
328.0066, 1015.161
328.4887, 1016.832
328.9708, 1010.761
329.4529, 995.5283
329.9351, 975.9481
330.4172, 949.8603
330.8993, 918.5529
331.3814, 906.0333
331.8635, 925.6249
332.3456, 956.7894
332.8278, 984.3857
333.3099, 1008.002
333.7920, 1025.212
334.2741, 1031.026
334.7563, 1028.790
335.2384, 1032.340
335.7205, 1049.272
336.2026, 1060.579
336.6847, 1041.562
337.1668, 1001.026
337.6490, 973.9496
338.1311, 986.8973
338.6132, 1017.954
339.0953, 1028.084
339.5774, 1011.974
340.0595, 990.0519
340.5417, 973.6187
341.0238, 962.6669
341.5059, 958.4349
341.9880, 966.6691
342.4701, 978.1522
342.9522, 984.0237
343.4344, 984.3516
343.9165, 983.1650
344.3986, 983.0942
344.8807, 982.8903
345.3628, 979.1716
345.8449, 967.4968
346.3271, 957.6290
346.8092, 956.9750
347.2913, 963.3331
347.7734, 969.4734
348.2555, 973.6380
348.7376, 974.1144
349.2198, 965.1953
349.7019, 940.0380
350.1840, 922.0502
350.6661, 925.4443
351.1482, 939.1364
351.6303, 941.6890
352.1125, 925.1389
352.5946, 906.8716
353.0767, 917.1080
353.5588, 971.2463
354.0409, 1004.711
354.5230, 995.2475
355.0052, 972.6889
355.4873, 967.1725
355.9694, 982.4667
356.4515, 999.3624
356.9336, 996.4760
357.4157, 968.0532
357.8979, 953.2994
358.3800, 964.5458
358.8621, 977.1307
359.3442, 972.7684
359.8263, 956.2278
360.3084, 948.0565
360.7906, 966.0658
361.2727, 1008.115
361.7548, 1026.944
362.2369, 1000.826
362.7190, 977.4752
363.2011, 968.1129
363.6833, 969.4818
364.1654, 976.2265
364.6475, 985.8455
365.1296, 997.1664
365.6117, 1006.828
366.0938, 1020.473
366.5760, 1023.353
367.0581, 1007.970
367.5402, 985.6080
368.0223, 963.5572
368.5044, 944.8294
368.9865, 933.0170
369.4687, 935.4784
369.9508, 958.5828
370.4329, 978.1621
370.9150, 995.7490
371.3971, 1007.832
371.8792, 1011.561
372.3614, 1007.302
372.8435, 997.8210
373.3256, 984.7080
373.8077, 967.9173
374.2898, 949.9329
374.7719, 920.0235
375.2541, 902.5568
375.7362, 913.1429
376.2183, 942.7723
376.7004, 973.1787
377.1825, 998.2056
377.6646, 1014.677
378.1468, 1010.961
378.6289, 979.0645
379.1110, 947.1389
379.5931, 919.5678
380.0752, 901.3900
380.5573, 902.0648
381.0395, 928.9108
381.5216, 963.6567
382.0037, 987.6667
382.4858, 1000.836
382.9679, 1007.496
383.4500, 1008.297
383.9322, 1003.009
384.4143, 989.9449
384.8964, 967.2200
385.3785, 949.1249
385.8606, 945.9498
386.3427, 953.3270
386.8249, 960.9294
387.3070, 967.3651
387.7891, 971.8781
388.2712, 971.4176
388.7533, 966.5224
389.2354, 966.4404
389.7176, 975.6788
390.1997, 989.0086
390.6818, 1004.572
391.1639, 1021.342
391.6460, 1029.520
392.1281, 1017.237
392.6103, 988.2659
393.0924, 955.1543
393.5745, 989.9161
394.0566, 1010.281
394.5387, 1017.022
395.0208, 969.3358
395.5030, 991.9315
395.9851, 986.3613
396.4672, 979.6361
396.9493, 1012.123
397.4314, 972.3536
397.9135, 1004.219
398.3957, 1007.489
398.8778, 1023.847
399.3599, 1011.865
399.8420, 1008.635
400.3241, 1033.755
400.8062, 1043.178
401.2884, 1027.934
401.7705, 1045.123
402.2526, 1004.363
402.7347, 1014.455
403.2168, 1046.486
403.6989, 1038.807
404.1811, 1049.013
404.6632, 1048.653
405.1453, 1038.843
405.6274, 1028.500
406.1095, 1010.256
406.5916, 1002.653
407.0738, 1020.814
407.5559, 1047.467
408.0380, 1060.076
408.5201, 1048.398
409.0022, 1025.932
409.4843, 1013.002
409.9665, 1009.887
410.4486, 1015.065
410.9307, 1039.945
411.4128, 1064.881
411.8949, 1073.015
412.3770, 1063.157
412.8592, 1052.139
413.3413, 1055.343
413.8234, 1068.202
414.3055, 1071.119
414.7876, 1058.557
415.2697, 1042.944
415.7519, 1030.157
416.2340, 1021.521
416.7161, 1024.544
417.1982, 1053.951
417.6803, 1087.927
418.1624, 1101.694
418.6446, 1095.877
419.1267, 1086.704
419.6088, 1081.205
420.0909, 1080.046
420.5730, 1084.901
421.0551, 1102.679
421.5373, 1116.165
422.0194, 1119.063
422.5015, 1113.768
422.9836, 1101.691
423.4657, 1082.910
423.9478, 1064.602
424.4300, 1058.250
424.9121, 1069.408
425.3942, 1080.379
425.8763, 1088.458
426.3584, 1098.449
426.8405, 1118.397
427.3227, 1145.051
427.8048, 1163.868
428.2869, 1160.473
428.7690, 1135.979
429.2511, 1127.270
429.7332, 1148.444
430.2154, 1171.645
430.6975, 1195.405
431.1796, 1217.101
431.6617, 1233.924
432.1438, 1244.595
432.6259, 1250.627
433.1081, 1253.547
433.5902, 1250.638
434.0723, 1229.842
434.5544, 1264.939
435.0365, 1286.948
435.5186, 1296.571
436.0008, 1256.717
436.4829, 1280.753
436.9650, 1279.185
437.4471, 1276.566
437.9292, 1309.595
438.4113, 1276.936
438.8935, 1309.401
439.3756, 1315.869
439.8577, 1334.235
440.3398, 1326.837
440.8219, 1327.397
441.3040, 1353.728
441.7862, 1365.791
442.2683, 1355.427
442.7504, 1374.549
443.2325, 1340.990
443.7146, 1353.660
444.1967, 1386.274
444.6789, 1377.207
445.1610, 1396.800
445.6431, 1405.477
446.1252, 1338.032
446.6073, 1373.261
447.0894, 1395.402
447.5716, 1405.159
448.0537, 1365.436
448.5358, 1389.605
449.0179, 1388.169
449.5000, 1385.683
449.9821, 1418.844
450.4643, 1386.319
450.9464, 1418.915
451.4285, 1425.516
451.9106, 1444.014
452.3927, 1436.749
452.8748, 1437.441
453.3570, 1463.906
453.8391, 1466.702
454.3212, 1473.121
454.8033, 1474.261
455.2854, 1482.183
455.7675, 1471.984
456.2497, 1503.673
456.7318, 1522.272
457.2139, 1528.487
457.6960, 1485.223
458.1781, 1505.850
458.6602, 1500.873
459.1424, 1494.846
459.6245, 1524.466
460.1066, 1488.398
460.5887, 1517.453
461.0708, 1520.512
461.5529, 1535.469
462.0351, 1524.663
462.5172, 1521.814
462.9993, 1544.737
463.4814, 1553.389
463.9635, 1539.617
464.4456, 1521.490
464.9278, 1509.995
465.4099, 1476.492
465.8920, 1438.741
466.3741, 1424.274
466.8562, 1436.937
467.3383, 1455.864
467.8205, 1461.399
468.3026, 1452.427
468.7847, 1446.763
469.2668, 1452.787
469.7489, 1452.844
470.2310, 1436.451
470.7132, 1410.173
471.1953, 1383.667
471.6774, 1361.259
472.1595, 1344.981
472.6416, 1342.013
473.1237, 1367.444
473.6059, 1373.487
474.0880, 1349.356
474.5701, 1313.374
475.0522, 1269.258
475.5343, 1199.372
476.0164, 1222.348
476.4986, 1232.234
476.9807, 1229.736
477.4628, 1177.759
477.9449, 1189.674
478.4270, 1175.984
478.9091, 1161.245
479.3913, 1182.151
479.8734, 1137.370
480.3555, 1157.713
480.8376, 1152.060
481.3197, 1158.304
481.8018, 1138.785
482.2840, 1127.222
482.7661, 1141.432
483.2482, 1129.384
483.7303, 1139.842
484.2124, 1143.943
484.6945, 1142.038
485.1767, 1115.579
485.6588, 1121.253
486.1409, 1114.312
486.6230, 1107.033
487.1051, 1117.763
487.5872, 1095.837
488.0694, 1106.658
488.5515, 1104.668
489.0336, 1108.813
489.5157, 1100.264
489.9978, 1095.880
490.4799, 1104.569
490.9621, 1106.308
491.4442, 1097.023
491.9263, 1102.666
492.4084, 1082.156
492.8905, 1084.947
493.3727, 1097.897
493.8548, 1090.192
494.3369, 1097.004
494.8190, 1098.545
495.3011, 1075.470
495.7832, 1095.716
496.2654, 1097.495
496.7475, 1080.306
497.2296, 1099.635
497.7117, 1085.459
498.1938, 1083.168
498.6759, 1077.975
499.1581, 1090.698
499.6402, 1070.671
500.1223, 1083.298
500.6044, 1083.021
501.0865, 1088.785
501.5686, 1081.761
502.0508, 1078.808
502.5329, 1088.834
503.0150, 1091.818
503.4971, 1083.683
503.9792, 1090.383
504.4613, 1070.836
504.9435, 1074.497
505.4256, 1088.223
505.9077, 1081.200
506.3898, 1088.601
506.8719, 1090.638
507.3540, 1067.963
507.8362, 1088.518
508.3183, 1090.511
508.8004, 1073.442
509.2825, 1092.798
509.7646, 1078.556
510.2467, 1076.433
510.7289, 1083.452
511.2110, 1096.281
511.6931, 1106.611
512.1752, 1109.441
512.6573, 1108.720
513.1394, 1110.422
513.6215, 1114.000
514.1036, 1110.762
514.5858, 1095.572
515.0679, 1077.054
515.5500, 1063.438
516.0321, 1053.961
516.5142, 1055.508
516.9963, 1081.539
517.4785, 1110.238
517.9606, 1125.540
518.4427, 1126.598
518.9248, 1113.984
519.4069, 1085.513
519.8890, 1048.471
520.3712, 1028.125
520.8533, 1039.730
521.3354, 1048.876
521.8175, 1055.954
522.2996, 1059.373
522.7817, 1057.819
523.2639, 1051.240
523.7460, 1039.774
524.2281, 1019.662
524.7102, 993.3568
525.1923, 987.1650
525.6744, 1010.727
526.1566, 1036.974
526.6387, 1067.060
527.1208, 1089.117
527.6029, 1082.709
528.0850, 1036.571
528.5671, 992.2610
529.0493, 989.1535
529.5314, 1015.621
530.0135, 1035.325
530.4956, 1041.806
530.9777, 1039.888
531.4598, 1031.527
531.9420, 1016.743
532.4241, 1006.740
532.9062, 1010.058
533.3883, 1009.685
533.8704, 990.9537
534.3525, 963.7990
534.8347, 946.8824
535.3168, 947.6815
535.7989, 959.9009
536.2810, 974.0298
536.7631, 993.7957
537.2452, 1005.557
537.7274, 1004.093
538.2095, 1000.012
538.6916, 998.9302
539.1737, 998.9769
539.6558, 993.1404
540.1379, 973.0784
540.6201, 952.6221
541.1022, 965.2162
541.5843, 1015.507
542.0664, 1049.438
542.5485, 1042.591
543.0306, 1020.396
543.5128, 1013.874
543.9949, 1023.495
544.4770, 1029.273
544.9591, 1025.926
545.4412, 1014.584
545.9233, 991.4455
546.4055, 959.0957
546.8876, 931.3450
547.3697, 915.2328
547.8518, 910.9594
548.3339, 919.1862
548.8160, 963.1334
549.2982, 989.3891
549.7803, 981.2896
550.2624, 966.4759
550.7445, 970.8079
551.2266, 992.8689
551.7087, 1008.978
552.1909, 994.7438
552.6730, 958.2357
553.1551, 948.0610
553.6372, 974.9470
554.1193, 1003.603
554.6014, 1030.909
555.0836, 1048.550
555.5657, 1043.340
556.0478, 1010.987
556.5299, 976.9329
557.0120, 952.1765
557.4941, 937.6121
557.9763, 938.6812
558.4584, 956.3452
558.9405, 973.2646
559.4226, 974.8154
559.9047, 963.9627
560.3868, 964.9112
560.8690, 981.1657
561.3511, 1002.753
561.8332, 1043.779
562.3153, 1080.626
562.7974, 1081.601
563.2795, 1043.492
563.7617, 995.2620
564.2438, 965.0752
564.7259, 952.9211
565.2080, 957.5015
565.6901, 994.1819
566.1722, 1023.926
566.6544, 1033.375
567.1365, 1028.896
567.6186, 1014.201
568.1007, 987.2410
568.5828, 966.9843
569.0649, 977.2335
569.5471, 1006.513
570.0292, 1020.488
570.5113, 1012.813
570.9934, 997.1243
571.4755, 981.6028
571.9576, 967.1350
572.4398, 962.3601
572.9219, 977.8786
573.4040, 989.9099
573.8861, 989.4707
574.3682, 981.8069
574.8503, 970.4761
575.3325, 957.8188
575.8146, 951.5909
576.2967, 965.2350
576.7788, 1001.273
577.2609, 1013.736
577.7430, 979.7451
578.2252, 953.5239
578.7073, 954.8124
579.1894, 974.0441
579.6715, 1002.114
580.1536, 1039.257
580.6357, 1070.244
581.1179, 1076.641
581.6000, 1065.698
582.0822, 1061.547
582.5643, 1069.186
583.0464, 1075.058
583.5285, 1065.971
584.0106, 1043.459
584.4927, 1029.787
584.9749, 1029.567
585.4570, 1031.960
585.9391, 1032.401
586.4212, 1034.209
586.9033, 1043.144
587.3854, 1059.897
587.8676, 1078.090
588.3497, 1091.098
588.8318, 1098.937
589.3139, 1103.503
589.7960, 1101.919
590.2781, 1101.532
590.7603, 1104.818
591.2424, 1110.687
591.7245, 1118.516
592.2066, 1128.577
592.6887, 1137.846
593.1708, 1145.434
593.6530, 1150.345
594.1351, 1134.458
594.6172, 1153.059
595.0993, 1164.759
595.5814, 1169.910
596.0635, 1149.965
596.5457, 1161.610
597.0278, 1160.096
597.5099, 1157.700
597.9920, 1172.772
598.4741, 1154.644
598.9562, 1168.720
599.4384, 1169.442
599.9205, 1175.756
600.4026, 1168.833
600.8847, 1165.531
601.3668, 1174.760
601.8489, 1176.496
602.3311, 1166.664
602.8132, 1171.218
603.2953, 1149.075
603.7774, 1149.690
604.2595, 1135.201
604.7416, 1126.095
605.2238, 1141.452
605.7059, 1164.792
606.1880, 1173.493
606.6701, 1166.896
607.1522, 1156.371
607.6343, 1148.162
608.1165, 1142.123
608.5986, 1137.701
609.0807, 1132.268
609.5628, 1132.708
610.0449, 1144.135
610.5270, 1157.093
611.0092, 1172.400
611.4913, 1184.382
611.9734, 1176.275
612.4555, 1129.534
612.9376, 1066.468
613.4197, 1038.614
613.9019, 1048.541
614.3840, 1062.381
614.8661, 1074.079
615.3482, 1081.704
615.8303, 1081.983
616.3124, 1075.219
616.7946, 1067.531
617.2767, 1054.707
617.7588, 1046.177
618.2409, 1054.008
618.7230, 1071.052
619.2051, 1079.304
619.6873, 1071.295
620.1694, 1056.164
620.6515, 1048.323
621.1336, 1047.286
621.6157, 1055.541
622.0978, 1089.688
622.5800, 1115.277
623.0621, 1115.697
623.5442, 1099.903
624.0263, 1081.355
624.5084, 1061.252
624.9905, 1050.063
625.4727, 1065.117
625.9548, 1097.171
626.4369, 1118.007
626.9190, 1122.641
627.4011, 1116.293
627.8832, 1100.099
628.3654, 1075.403
628.8475, 1060.891
629.3296, 1061.491
629.8117, 1064.197
630.2938, 1068.714
630.7759, 1072.764
631.2581, 1069.746
631.7402, 1061.611
632.2223, 1063.147
632.7044, 1093.342
633.1865, 1142.729
633.6686, 1166.032
634.1508, 1157.113
634.6329, 1145.563
635.1150, 1144.100
635.5971, 1143.237
636.0792, 1125.531
636.5613, 1087.419
637.0435, 1069.148
637.5256, 1096.207
638.0077, 1137.982
638.4898, 1172.839
638.9719, 1198.584
639.4540, 1213.773
639.9362, 1217.435
640.4183, 1213.531
640.9004, 1211.021
641.3825, 1215.360
641.8646, 1205.428
642.3467, 1152.916
642.8289, 1114.437
643.3110, 1122.147
643.7931, 1159.075
644.2752, 1192.557
644.7573, 1213.558
645.2394, 1223.145
645.7216, 1218.350
646.2037, 1203.017
646.6858, 1165.558
647.1679, 1190.813
647.6500, 1202.980
648.1321, 1202.763
648.6143, 1153.064
649.0964, 1167.260
649.5785, 1155.849
650.0606, 1143.389
650.5427, 1166.577
651.0248, 1124.077
651.5070, 1146.698
651.9891, 1143.325
652.4712, 1151.849
652.9533, 1134.609
653.4354, 1125.327
653.9175, 1097.813
654.3997, 1058.384
654.8818, 1033.083
655.3639, 1041.600
655.8460, 1057.935
656.3281, 1039.651
656.8102, 984.3529
657.2924, 948.7393
657.7745, 951.8719
658.2566, 964.8959
658.7387, 971.5342
659.2208, 975.2065
659.7029, 987.9231
660.1851, 1013.333
660.6672, 1035.585
661.1493, 1027.707
661.6314, 986.5281
662.1135, 962.4478
662.5956, 962.7006
663.0778, 967.2706
663.5599, 972.9210
664.0420, 974.7316
664.5241, 962.8141
665.0062, 930.9783
665.4883, 905.0934
665.9705, 898.6304
666.4526, 903.9694
666.9347, 914.9893
667.4168, 929.5477
667.8989, 943.1828
668.3810, 953.4619
668.8632, 960.0478
669.3453, 962.0943
669.8274, 959.9027
670.3095, 952.4233
670.7916, 921.3061
671.2737, 902.1418
671.7559, 926.8403
672.2380, 976.1559
672.7201, 1002.032
673.2022, 979.3117
673.6843, 943.3933
674.1664, 923.2087
674.6486, 915.1022
675.1307, 912.8549
675.6128, 915.2657
676.0949, 911.0682
676.5770, 886.0092
677.0591, 845.0054
677.5413, 837.2211
678.0234, 910.1126
678.5055, 951.9986
678.9876, 924.5275
679.4697, 883.5048
679.9518, 877.0234
680.4340, 902.2537
680.9161, 919.7017
681.3982, 897.5566
681.8803, 860.7335
682.3624, 849.7053
682.8445, 861.6880
683.3267, 874.7458
683.8088, 882.6469
684.2909, 888.7618
684.7730, 896.5927
685.2551, 906.1375
685.7372, 917.5087
686.2194, 941.1234
686.7015, 953.8810
687.1836, 943.9882
687.6657, 922.7482
688.1478, 900.0202
688.6299, 879.1171
689.1121, 862.7881
689.5942, 853.0261
690.0763, 849.7894
690.5584, 855.7585
691.0405, 871.7981
691.5226, 883.1627
692.0048, 882.3932
692.4869, 877.0269
692.9690, 879.3680
693.4511, 892.3509
693.9332, 898.8029
694.4153, 891.1446
694.8975, 884.2577
695.3796, 889.7645
695.8617, 899.1060
696.3438, 896.7025
696.8259, 878.2754
697.3080, 857.5559
697.7902, 851.6356
698.2723, 857.5809
698.7544, 856.0901
699.2365, 844.5965
699.7186, 837.0163
700.2007, 842.2578
700.6829, 853.4546
701.1650, 856.1332
701.6471, 846.5389
702.1292, 844.1037
702.6113, 862.7756
703.0934, 878.5295
703.5756, 867.4548
704.0577, 843.8672
704.5398, 841.5572
705.0219, 874.0345
705.5040, 911.1718
705.9861, 907.1207
706.4683, 865.6152
706.9504, 842.0848
707.4325, 840.1333
707.9146, 853.5674
708.3967, 891.9044
708.8788, 937.2974
709.3610, 947.6076
709.8431, 909.6823
710.3252, 877.9634
710.8073, 857.5788
711.2894, 851.1168
711.7715, 872.3791
712.2537, 908.0065
712.7358, 927.7435
713.2179, 917.3736
713.7000, 893.9257
714.1821, 874.8845
714.6642, 886.7034
715.1464, 892.4229
715.6285, 892.3968
716.1106, 868.0765
716.5927, 876.1484
717.0748, 871.8635
717.5569, 867.4996
718.0391, 881.4053
718.5212, 862.9127
719.0033, 877.4276
719.4854, 879.3903
719.9675, 887.7478
720.4496, 883.6692
720.9318, 884.0162
721.4139, 897.6938
721.8960, 904.6827
722.3781, 900.4903
722.8602, 890.3469
723.3423, 878.0195
723.8245, 862.9543
724.3066, 852.0182
724.7887, 849.9997
725.2708, 854.9427
725.7529, 861.9318
726.2350, 874.5453
726.7172, 881.1646
727.1993, 874.3567
727.6814, 865.7064
728.1635, 861.3297
728.6456, 862.2699
729.1277, 869.8160
729.6099, 884.8680
730.0920, 902.3509
730.5741, 918.7087
731.0562, 932.6325
731.5383, 929.2883
732.0204, 903.6042
732.5026, 877.9159
732.9847, 864.4894
733.4668, 860.6824
733.9489, 860.2678
734.4310, 867.4952
734.9131, 868.4327
735.3953, 852.8571
735.8774, 839.0917
736.3595, 842.6382
736.8416, 855.9465
737.3237, 861.3170
737.8058, 851.1373
738.2880, 837.9948
738.7701, 837.8561
739.2522, 847.5118
739.7343, 851.6112
740.2164, 848.0450
740.6985, 851.9224
741.1807, 876.9662
741.6628, 908.3458
742.1449, 909.3737
742.6270, 855.0644
743.1091, 825.0605
743.5912, 844.7429
744.0734, 861.7617
744.5555, 839.2510
745.0376, 800.9188
745.5197, 790.2402
746.0018, 821.8542
746.4839, 861.0240
746.9661, 878.6000
747.4482, 880.1401
747.9303, 874.6661
748.4124, 863.4063
748.8945, 846.1805
749.3766, 855.9263
749.8588, 859.6319
750.3409, 857.6519
750.8230, 831.4366
751.3051, 837.6727
751.7872, 831.6115
752.2693, 825.5301
752.7515, 837.7772
753.2336, 817.6859
753.7157, 830.6609
754.1978, 831.1431
754.6799, 838.0792
755.1620, 832.6386
755.6442, 831.6823
756.1263, 844.1163
756.6084, 849.9206
757.0905, 845.0175
757.5726, 855.3618
758.0547, 839.8709
758.5369, 848.0005
759.0190, 866.6063
759.5011, 878.3414
759.9832, 812.7775
760.4653, 761.9587
760.9474, 769.9388
761.4296, 800.8677
761.9117, 828.9888
762.3938, 851.9574
762.8759, 858.2503
763.3580, 823.8344
763.8401, 790.8524
764.3223, 797.1332
764.8044, 824.8784
765.2865, 839.4830
765.7686, 832.9972
766.2507, 822.5561
766.7328, 826.2016
767.2150, 839.5148
767.6971, 839.1081
768.1792, 822.1891
768.6613, 805.0831
769.1434, 788.0522
769.6255, 777.6880
770.1077, 787.8496
770.5898, 815.5751
771.0719, 824.1375
771.5540, 790.5135
772.0361, 763.6962
772.5182, 763.4064
773.0004, 774.1940
773.4825, 780.5949
773.9646, 781.6757
774.4467, 785.6814
774.9288, 800.0739
775.4109, 815.7440
775.8931, 817.1007
776.3752, 805.5463
776.8573, 785.1549
777.3394, 753.4695
777.8215, 737.9723
778.3036, 766.9269
778.7858, 825.9551
779.2679, 847.6161
779.7500, 786.9028
780.2321, 759.1611
780.7142, 799.5530
781.1964, 840.3292
781.6785, 839.5873
782.1606, 811.0911
782.6427, 788.4844
783.1248, 783.3190
783.6069, 783.1245
784.0891, 778.5982
784.5712, 773.0369
785.0533, 771.4401
785.5354, 774.0412
786.0175, 780.9911
786.4996, 793.0192
786.9818, 803.3417
787.4639, 796.0405
787.9460, 765.7836
788.4281, 753.6413
788.9102, 769.2008
789.3923, 785.4423
789.8745, 787.4803
790.3566, 785.4133
790.8387, 796.0508
791.3208, 823.1962
791.8029, 835.8867
792.2850, 815.1114
792.7672, 789.0176
793.2493, 771.3726
793.7314, 761.6965
794.2135, 759.2292
794.6956, 763.0030
795.1777, 768.5494
795.6599, 771.9219
796.1420, 773.8558
796.6241, 774.2990
797.1062, 773.3384
797.5883, 783.9459
798.0704, 814.0453
798.5526, 841.4886
799.0347, 841.2870
799.5168, 814.6198
799.9989, 797.0712
800.4810, 793.8740
800.9631, 793.1445
801.4453, 798.7974
801.9274, 802.3222
802.4095, 794.3901
802.8916, 778.6110
803.3737, 767.6871
803.8558, 767.1174
804.3380, 771.4668
804.8201, 778.8833
805.3022, 787.2479
805.7843, 794.8320
806.2664, 800.3419
806.7485, 797.9682
807.2307, 783.3747
807.7128, 764.0086
808.1949, 756.3062
808.6770, 761.9008
809.1591, 764.2802
809.6412, 758.8836
810.1234, 759.1433
810.6055, 778.4825
811.0876, 804.2723
811.5697, 812.2795
812.0518, 798.8320
812.5339, 784.5114
813.0161, 764.1304
813.4982, 752.0541
813.9803, 761.5173
814.4624, 781.3472
814.9445, 798.0421
815.4266, 807.4433
815.9088, 808.3857
816.3909, 796.8603
816.8730, 777.9435
817.3551, 756.2648
817.8372, 734.2290
818.3193, 726.2314
818.8015, 736.6195
819.2836, 753.4077
819.7657, 765.5690
820.2478, 773.2534
820.7299, 777.5674
821.2120, 779.4092
821.6942, 775.6045
822.1763, 756.9940
822.6584, 741.3752
823.1405, 741.1586
823.6226, 752.8094
824.1047, 767.2966
824.5869, 789.6390
825.0690, 801.4539
825.5511, 785.5075
826.0332, 763.8708
826.5153, 754.1992
826.9974, 756.8361
827.4796, 767.9020
827.9617, 785.8392
828.4438, 806.4572
828.9259, 826.8392
829.4080, 845.7365
829.8901, 859.3693
830.3723, 867.5953
830.8544, 863.4754
831.3365, 841.7939
831.8186, 814.2147
832.3007, 796.9977
832.7828, 790.4492
833.2650, 791.1246
833.7471, 811.7601
834.2292, 820.8391
834.7113, 795.1161
835.1934, 768.6287
835.6755, 778.6728
836.1577, 818.8010
836.6398, 840.2591
837.1219, 808.9620
837.6040, 777.9938
838.0861, 784.7377
838.5682, 803.5120
839.0504, 797.8230
839.5325, 770.4528
840.0146, 753.5400
840.4967, 767.2557
840.9788, 791.1771
841.4609, 786.7758
841.9431, 760.7229
842.4252, 762.9201
842.9073, 800.5540
843.3894, 831.1016
843.8715, 831.6944
844.3536, 813.8503
844.8358, 797.9524
845.3179, 782.1763
845.8000, 776.1862
846.2821, 787.0468
846.7642, 798.8940
847.2463, 814.5907
847.7285, 824.5756
848.2106, 815.3026
848.6927, 787.4413
849.1748, 763.4762
849.6569, 746.8255
850.1390, 740.9314
850.6212, 757.7594
851.1033, 781.3466
851.5854, 785.7166
852.0675, 772.3862
852.5496, 767.6873
853.0317, 791.5121
853.5139, 823.4063
853.9960, 827.2863
854.4781, 807.8954
854.9602, 790.0091
855.4423, 776.0538
855.9244, 776.4705
856.4066, 802.2999
856.8887, 834.8279
857.3708, 831.2833
857.8529, 776.5994
858.3350, 746.0112
858.8171, 752.8411
859.2993, 764.9452
859.7814, 776.5370
860.2635, 784.7293
860.7456, 783.5926
861.2277, 773.1635
861.7098, 768.8773
862.1920, 773.6819
862.6741, 786.6213
863.1562, 819.4719
863.6383, 852.6827
864.1204, 860.7128
864.6025, 844.4992
865.0847, 822.2228
865.5668, 801.3958
866.0489, 788.1870
866.5310, 788.8730
867.0131, 804.6517
867.4952, 813.8863
867.9774, 816.9286
868.4595, 795.2310
868.9416, 805.4796
869.4237, 802.9257
869.9058, 799.8467
870.3879, 814.5916
870.8701, 796.4926
871.3522, 810.9547
871.8343, 812.4190
872.3164, 819.8322
872.7985, 809.3845
873.2806, 810.9035
873.7628, 813.1495
874.2449, 814.2506
874.7270, 812.1848
875.2091, 811.4223
875.6912, 813.7109
876.1733, 817.3693
876.6555, 825.1255
877.1376, 832.9899
877.6197, 827.7609
878.1018, 798.2590
878.5839, 771.8720
879.0660, 776.0399
879.5482, 795.0305
880.0303, 807.7629
880.5124, 812.8555
880.9945, 812.2198
881.4766, 806.7657
881.9587, 803.4078
882.4409, 800.5065
882.9230, 814.8414
883.4051, 822.7773
883.8872, 824.6658
884.3693, 801.9599
884.8514, 811.3453
885.3336, 808.0733
885.8157, 804.4215
886.2978, 818.7387
886.7799, 800.3570
887.2620, 814.6819
887.7441, 816.1539
888.2263, 823.7203
888.7084, 818.5499
889.1905, 817.5035
889.6726, 829.4880
890.1547, 834.4828
890.6368, 828.4101
891.1190, 837.2259
891.6011, 819.8457
892.0832, 825.7251
892.5653, 841.7224
893.0474, 847.6172
893.5295, 851.2092
894.0117, 838.4376
894.4938, 819.9575
894.9759, 797.3706
895.4580, 780.0723
895.9401, 790.2873
896.4222, 817.5692
896.9044, 828.5796
897.3865, 818.0336
897.8686, 801.8757
898.3507, 790.4072
898.8328, 783.4926
899.3149, 780.5677
899.7971, 781.5749
900.2792, 789.1178
900.7613, 806.9944
901.2434, 818.1107
901.7255, 810.1431
902.2076, 796.5859
902.6898, 800.5345
903.1719, 826.6378
903.6540, 840.3429
904.1361, 831.8924
904.6182, 823.8301
905.1003, 818.0623
905.5825, 816.1821
906.0646, 824.9681
906.5467, 839.6719
907.0288, 840.4948
907.5109, 810.0693
907.9930, 787.7584
908.4752, 797.5118
908.9573, 817.6701
909.4394, 832.4298
909.9215, 840.1031
910.4036, 840.0386
910.8857, 832.1762
911.3679, 825.3505
911.8500, 829.5076
912.3321, 838.9796
912.8142, 846.2652
913.2963, 850.2116
913.7784, 837.5253
914.2606, 852.4479
914.7427, 860.8264
915.2248, 863.0125
915.7069, 840.4588
916.1890, 849.8513
916.6711, 846.4413
917.1533, 842.5062
917.6354, 856.3951
918.1175, 837.4398
918.5996, 851.0460
919.0817, 851.6543
919.5638, 825.9620
920.0460, 831.4715
920.5281, 830.3250
921.0102, 810.1902
921.4923, 800.7819
921.9744, 815.0048
922.4565, 838.3518
922.9387, 866.4113
923.4208, 894.7621
923.9029, 899.9741
924.3850, 853.7690
924.8671, 818.1353
925.3492, 811.6703
925.8314, 822.9188
926.3135, 856.5512
926.7956, 897.2066
927.2777, 914.5594
927.7598, 898.3601
928.2419, 876.2927
928.7241, 864.9284
929.2062, 860.8019
929.6883, 865.3661
930.1704, 872.5889
930.6525, 866.0720
931.1346, 844.6068
931.6168, 826.5186
932.0989, 826.0187
932.5810, 837.2877
933.0631, 853.3862
933.5452, 872.0206
934.0273, 876.1870
934.5095, 864.0598
934.9916, 856.0684
935.4737, 863.1493
935.9558, 879.0212
936.4379, 895.7167
936.9200, 913.9077
937.4022, 914.3323
937.8843, 889.4858
938.3664, 870.0194
938.8485, 864.3037
939.3306, 866.2961
939.8127, 872.8997
940.2949, 882.9005
940.7770, 887.8663
941.2591, 881.3825
941.7412, 879.6283
942.2233, 880.1517
942.7054, 888.2619
943.1876, 918.2632
943.6697, 952.0375
944.1518, 958.2683
944.6339, 931.2732
945.1160, 914.7346
945.5981, 937.2975
946.0803, 955.2934
946.5624, 933.2853
947.0445, 904.1667
947.5266, 907.1453
948.0087, 939.8732
948.4908, 976.6375
948.9730, 1009.641
949.4551, 1030.947
949.9372, 1023.605
950.4193, 1007.336
950.9014, 1010.397
951.3835, 1028.968
951.8657, 1048.204
952.3478, 1062.593
952.8299, 1071.364
953.3120, 1068.362
953.7941, 1064.277
954.2762, 1088.169
954.7584, 1135.038
955.2405, 1178.247
955.7226, 1213.166
956.2047, 1239.391
956.6868, 1255.620
957.1689, 1268.126
957.6511, 1293.523
958.1332, 1333.747
958.6153, 1349.929
959.0974, 1334.801
959.5795, 1329.433
960.0616, 1350.240
960.5438, 1380.823
961.0259, 1405.246
961.5080, 1423.492
961.9901, 1434.181
962.4722, 1434.152
962.9543, 1432.659
963.4365, 1421.076
963.9186, 1419.574
964.4007, 1455.047
964.8828, 1501.679
965.3649, 1512.063
965.8470, 1476.271
966.3292, 1455.072
966.8113, 1462.544
967.2934, 1475.365
967.7755, 1502.088
968.2576, 1518.149
968.7397, 1486.881
969.2219, 1423.608
969.7040, 1390.730
970.1861, 1420.224
970.6682, 1447.097
971.1503, 1433.440
971.6324, 1412.538
972.1146, 1408.703
972.5967, 1419.062
973.0788, 1439.421
973.5609, 1466.619
974.0430, 1486.694
974.5251, 1487.019
975.0073, 1479.807
975.4894, 1473.405
975.9715, 1470.390
976.4536, 1477.334
976.9357, 1492.568
977.4178, 1508.417
977.9000, 1521.253
978.3821, 1528.282
978.8642, 1519.539
979.3463, 1504.326
979.8284, 1505.099
980.3105, 1521.835
980.7927, 1555.646
981.2748, 1606.021
981.7569, 1658.882
982.2390, 1704.490
982.7211, 1739.047
983.2032, 1748.313
983.6854, 1733.322
984.1675, 1728.384
984.6496, 1737.229
985.1317, 1740.413
985.6138, 1727.881
986.0959, 1712.867
986.5781, 1712.749
987.0602, 1726.709
987.5423, 1745.100
988.0244, 1774.549
988.5065, 1782.250
988.9886, 1751.258
989.4708, 1723.783
989.9529, 1731.667
990.4350, 1757.429
990.9171, 1759.129
991.3992, 1725.385
991.8813, 1713.205
992.3635, 1744.860
992.8456, 1764.934
993.3277, 1753.556
993.8098, 1729.637
994.2919, 1704.791
994.7740, 1680.377
995.2562, 1662.398
995.7383, 1659.342
996.2204, 1647.989
996.7025, 1607.257
997.1846, 1578.441
997.6667, 1592.825
998.1489, 1624.129
998.6310, 1636.699
999.1131, 1627.924
999.5952, 1622.105
1000.077, 1636.137
1000.559, 1641.559
1001.042, 1620.049
1001.524, 1591.594
1002.006, 1565.519
1002.488, 1548.310
1002.970, 1555.737
1003.452, 1593.516
1003.934, 1618.145
1004.416, 1582.984
1004.898, 1548.432
1005.381, 1573.430
1005.863, 1622.296
1006.345, 1644.680
1006.827, 1639.164
1007.309, 1632.274
1007.791, 1636.366
1008.273, 1643.596
1008.755, 1650.677
1009.238, 1648.100
1009.720, 1659.717
1010.202, 1664.790
1010.684, 1663.671
1011.166, 1637.812
1011.648, 1643.899
1012.130, 1637.184
1012.612, 1629.944
1013.094, 1640.527
1013.577, 1618.259
1014.059, 1628.560
1014.541, 1625.863
1015.023, 1629.115
1015.505, 1619.485
1015.987, 1613.834
1016.469, 1599.758
1016.951, 1598.108
1017.434, 1605.164
1017.916, 1617.253
1018.398, 1609.166
1018.880, 1578.660
1019.362, 1550.346
1019.844, 1537.240
1020.326, 1535.456
1020.808, 1542.359
1021.290, 1555.815
1021.773, 1558.099
1022.255, 1549.117
1022.737, 1539.247
1023.219, 1530.611
1023.701, 1522.908
1024.183, 1516.027
1024.665, 1509.484
1025.147, 1499.566
1025.630, 1484.703
1026.112, 1489.852
1026.594, 1520.289
1027.076, 1543.722
1027.558, 1550.764
1028.040, 1544.906
1028.522, 1524.830
1029.004, 1497.887
1029.486, 1498.687
1029.969, 1537.868
1030.451, 1560.756
1030.933, 1560.563
1031.415, 1555.186
1031.897, 1548.798
1032.379, 1545.554
1032.861, 1552.291
1033.343, 1567.850
1033.825, 1573.970
1034.308, 1564.813
1034.790, 1559.558
1035.272, 1557.195
1035.754, 1563.480
1036.236, 1584.262
1036.718, 1613.312
1037.200, 1643.117
1037.682, 1674.869
1038.165, 1693.630
1038.647, 1693.260
1039.129, 1689.896
1039.611, 1678.947
1040.093, 1673.039
1040.575, 1686.913
1041.057, 1708.864
1041.539, 1714.217
1042.021, 1699.755
1042.504, 1682.889
1042.986, 1652.668
1043.468, 1635.358
1043.950, 1652.688
1044.432, 1670.330
1044.914, 1657.430
1045.396, 1625.468
1045.878, 1608.178
1046.360, 1614.622
1046.843, 1614.777
1047.325, 1598.168
1047.807, 1583.963
1048.289, 1585.420
1048.771, 1586.591
1049.253, 1572.195
1049.735, 1544.283
1050.217, 1513.263
1050.700, 1475.511
1051.182, 1446.316
1051.664, 1438.016
1052.146, 1427.690
1052.628, 1399.086
1053.110, 1366.661
1053.592, 1352.348
1054.074, 1352.060
1054.557, 1332.874
1055.039, 1265.572
1055.521, 1220.402
1056.003, 1235.186
1056.485, 1257.231
1056.967, 1257.959
1057.449, 1245.820
1057.931, 1232.987
1058.413, 1220.893
1058.896, 1206.318
1059.378, 1179.147
1059.860, 1163.325
1060.342, 1182.025
1060.824, 1199.647
1061.306, 1181.916
1061.788, 1150.841
1062.270, 1146.081
1062.752, 1171.556
1063.235, 1186.224
1063.717, 1170.780
1064.199, 1147.985
1064.681, 1119.234
1065.163, 1093.786
1065.645, 1077.745
1066.127, 1070.904
1066.609, 1072.987
1067.092, 1083.708
1067.574, 1096.536
1068.056, 1119.862
1068.538, 1130.646
1069.020, 1101.395
1069.502, 1069.507
1069.984, 1077.446
1070.466, 1106.288
1070.948, 1108.775
1071.431, 1073.820
1071.913, 1048.199
1072.395, 1063.977
1072.877, 1079.896
1073.359, 1068.185
1073.841, 1051.587
1074.323, 1055.705
1074.805, 1072.261
1075.288, 1074.530
1075.770, 1054.377
1076.252, 1046.868
1076.734, 1086.110
1077.216, 1120.149
1077.698, 1112.857
1078.180, 1091.155
1078.662, 1084.242
1079.145, 1086.251
1079.627, 1071.834
1080.109, 1031.533
1080.591, 1003.707
1081.073, 1013.295
1081.555, 1030.814
1082.037, 1048.535
1082.519, 1058.414
1083.001, 1044.661
1083.484, 1017.526
1083.966, 1005.734
1084.448, 1019.062
1084.930, 1032.695
1085.412, 1037.921
1085.894, 1038.124
1086.376, 1032.304
1086.858, 1024.683
1087.340, 1019.276
1087.823, 1015.889
1088.305, 1014.438
1088.787, 1016.917
1089.269, 1008.948
1089.751, 968.7939
1090.233, 935.6537
1090.715, 939.4149
1091.197, 954.0383
1091.680, 949.2968
1092.162, 931.7513
1092.644, 929.3799
1093.126, 952.8508
1093.608, 971.9441
1094.090, 971.7922
1094.572, 969.5862
1095.054, 976.6182
1095.536, 983.5004
1096.019, 980.8173
1096.501, 969.7160
1096.983, 953.9455
1097.465, 930.7393
1097.947, 919.4337
1098.429, 944.1774
1098.911, 959.4528
1099.393, 926.5770
1099.875, 890.2482
1100.358, 897.1899
1100.840, 935.8754
1101.322, 965.6093
1101.804, 979.9174
1102.286, 983.7256
1102.768, 976.7651
1103.250, 961.3077
1103.732, 919.7549
1104.215, 886.0302
1104.697, 898.5161
1105.179, 941.7487
1105.661, 969.8033
1106.143, 974.2737
1106.625, 975.0344
1107.107, 968.6342
1107.589, 967.2081
1108.072, 981.4803
1108.554, 995.7662
1109.036, 997.4679
1109.518, 989.3608
1110.000, 978.4044
1110.482, 962.5917
1110.964, 953.1459
1111.446, 960.2043
1111.928, 960.5710
1112.411, 934.5269
1112.893, 914.0868
1113.375, 930.3644
1113.857, 966.8297
1114.339, 985.9993
1114.821, 985.7689
1115.303, 977.3162
1115.785, 948.2936
1116.267, 931.9208
1116.750, 941.2461
1117.232, 955.7273
1117.714, 964.8201
1118.196, 968.0733
1118.678, 962.7105
1119.160, 946.3815
1119.642, 941.4435
1120.124, 958.3489
1120.607, 960.1722
1121.089, 927.7669
1121.571, 906.3240
1122.053, 932.5720
1122.535, 974.5751
1123.017, 972.5704
1123.499, 924.7056
1123.981, 895.2686
1124.464, 886.5206
1124.946, 890.7913
1125.428, 915.1351
1125.910, 921.6546
1126.392, 881.5661
1126.874, 832.8734
1127.356, 836.1094
1127.838, 885.3310
1128.320, 911.8189
1128.802, 913.1719
1129.285, 917.0016
1129.767, 927.8276
1130.249, 931.0866
1130.731, 918.6143
1131.213, 902.5975
1131.695, 899.0417
1132.177, 904.2600
1132.659, 900.0114
1133.142, 887.4389
1133.624, 890.2117
1134.106, 909.8422
1134.588, 912.0041
1135.070, 882.4330
1135.552, 854.2324
1136.034, 863.7311
1136.516, 893.7647
1136.999, 901.5773
1137.481, 893.0078
1137.963, 891.9126
1138.445, 898.5188
1138.927, 901.8512
1139.409, 898.5334
1139.891, 893.8575
1140.373, 893.4835
1140.855, 890.0012
1141.338, 860.4675
1141.820, 824.7611
1142.302, 832.3945
1142.784, 870.5535
1143.266, 895.0978
1143.748, 896.8616
1144.230, 894.5042
1144.712, 899.5982
1145.194, 904.8122
1145.677, 903.1757
1146.159, 896.7784
1146.641, 884.5777
1147.123, 871.2858
1147.605, 865.4362
1148.087, 867.0150
1148.569, 869.4133
1149.051, 869.8384
1149.534, 870.1635
1150.016, 875.9083
1150.498, 877.4088
1150.980, 859.5537
1151.462, 838.5038
1151.944, 834.2769
1152.426, 844.7557
1152.908, 859.5262
1153.391, 877.6843
1153.873, 884.9442
1154.355, 860.6974
1154.837, 843.9579
1155.319, 859.7834
1155.801, 883.0665
1156.283, 898.3484
1156.765, 903.3512
1157.247, 895.0538
1157.729, 872.0562
1158.212, 848.5032
1158.694, 803.9009
1159.176, 791.6384
1159.658, 856.2880
1160.140, 915.9781
1160.622, 922.8966
1161.104, 901.6680
1161.586, 883.2101
1162.069, 867.4947
1162.551, 854.2554
1163.033, 839.1671
1163.515, 838.7910
1163.997, 865.5003
1164.479, 880.2501
1164.961, 861.2606
1165.443, 836.4092
1165.926, 837.0286
1166.408, 855.2947
1166.890, 856.5723
1167.372, 837.3278
1167.854, 832.6664
1168.336, 846.0797
1168.818, 852.8223
1169.300, 845.2291
1169.782, 831.7876
1170.265, 818.0731
1170.747, 807.1006
1171.229, 806.9238
1171.711, 815.3606
1172.193, 814.9465
1172.675, 808.6096
1173.157, 822.3192
1173.639, 858.0767
1174.121, 886.2801
1174.604, 890.7977
1175.086, 879.6392
1175.568, 848.3568
1176.050, 817.6542
1176.532, 839.7114
1177.014, 886.3732
1177.496, 897.5110
1177.978, 874.6649
1178.461, 845.0737
1178.943, 819.8146
1179.425, 812.2880
1179.907, 845.1784
1180.389, 881.1028
1180.871, 886.9057
1181.353, 880.1321
1181.835, 875.6749
1182.318, 874.5647
1182.800, 877.4213
1183.282, 882.9597
1183.764, 883.1401
1184.246, 872.8064
1184.728, 861.4171
1185.210, 843.2277
1185.692, 835.5085
1186.174, 856.2695
1186.656, 885.8525
1187.139, 908.3615
1187.621, 920.9760
1188.103, 916.6967
1188.585, 888.1180
1189.067, 862.6008
1189.549, 835.0994
1190.031, 819.5166
1190.513, 816.6301
1190.996, 831.0225
1191.478, 877.3386
1191.960, 930.9030
1192.442, 944.1689
1192.924, 916.7964
1193.406, 893.7013
1193.888, 873.6630
1194.370, 866.0957
1194.853, 873.5963
1195.335, 885.8407
1195.817, 899.5360
1196.299, 906.8596
1196.781, 896.8064
1197.263, 877.8309
1197.745, 876.5159
1198.227, 889.5287
1198.709, 901.1816
1199.192, 909.6234
1199.674, 909.3013
1200.156, 899.9291
1200.638, 891.9908
1201.120, 892.3314
1201.602, 898.5707
1202.084, 911.3223
1202.566, 925.4332
1203.048, 936.6186
1203.531, 941.9015
1204.013, 929.2408
1204.495, 906.1743
1204.977, 902.8894
1205.459, 931.0200
1205.941, 951.8779
1206.423, 930.0175
1206.905, 911.4644
1207.388, 933.5427
1207.870, 959.5628
1208.352, 951.3116
1208.834, 928.1894
1209.316, 930.0987
1209.798, 959.4856
1210.280, 974.8035
1210.762, 955.1688
1211.245, 944.8240
1211.727, 950.4531
1212.209, 961.9135
1212.691, 953.1956
1213.173, 986.7762
1213.655, 1007.269
1214.137, 1015.377
1214.619, 974.0056
1215.101, 996.5259
1215.583, 993.4420
1216.066, 989.3155
1216.548, 1020.828
1217.030, 986.6539
1217.512, 1017.601
1217.994, 1022.554
1218.476, 1039.403
1218.958, 1030.490
1219.440, 1029.534
1219.923, 1054.357
1220.405, 1064.903
1220.887, 1053.023
1221.369, 1070.630
1221.851, 1035.554
1222.333, 1046.708
1222.815, 1077.806
1223.297, 1067.223
1223.780, 1085.308
1224.262, 1092.469
1224.744, 1050.023
1225.226, 1055.418
1225.708, 1033.060
1226.190, 1019.922
1226.672, 1019.777
1227.154, 1038.132
1227.636, 1081.515
1228.119, 1107.888
1228.601, 1088.218
1229.083, 1070.371
1229.565, 1070.789
1230.047, 1078.210
1230.529, 1080.463
1231.011, 1087.908
1231.493, 1126.123
1231.975, 1190.816
1232.458, 1205.440
1232.940, 1140.924
1233.422, 1118.178
1233.904, 1155.589
1234.386, 1187.126
1234.868, 1191.852
1235.350, 1184.182
1235.832, 1173.264
1236.315, 1165.299
1236.797, 1177.141
1237.279, 1203.916
1237.761, 1215.733
1238.243, 1214.961
1238.725, 1212.415
1239.207, 1209.939
1239.689, 1205.839
1240.172, 1199.653
1240.654, 1196.131
1241.136, 1199.760
1241.618, 1207.291
1242.100, 1215.291
1242.582, 1225.126
1243.064, 1241.125
1243.546, 1258.763
1244.028, 1268.176
1244.510, 1270.993
1244.993, 1283.220
1245.475, 1317.578
1245.957, 1333.266
1246.439, 1303.527
1246.921, 1273.636
1247.403, 1263.629
1247.885, 1254.632
1248.367, 1225.559
1248.850, 1194.460
1249.332, 1194.590
1249.814, 1224.459
1250.296, 1236.733
1250.778, 1229.812
1251.260, 1208.406
1251.742, 1168.440
1252.224, 1146.987
1252.707, 1158.738
1253.189, 1172.038
1253.671, 1162.196
1254.153, 1132.906
1254.635, 1075.043
1255.117, 1009.146
1255.599, 1003.681
1256.081, 1039.423
1256.563, 1071.088
1257.046, 1086.157
1257.528, 1064.657
1258.010, 1002.170
1258.492, 953.5685
1258.974, 965.2404
1259.456, 987.6333
1259.938, 992.7093
1260.420, 990.2971
1260.902, 987.0024
1261.385, 981.8715
1261.867, 971.8498
1262.349, 957.9340
1262.831, 945.6735
1263.313, 937.3503
1263.795, 923.9642
1264.277, 883.1246
1264.759, 885.2779
1265.242, 967.9120
1265.724, 1037.604
1266.206, 1039.398
1266.688, 1013.132
1267.170, 1012.776
1267.652, 1027.474
1268.134, 1002.948
1268.616, 948.2655
1269.099, 947.9456
1269.581, 997.1041
1270.063, 1033.065
1270.545, 1040.691
1271.027, 1033.776
1271.509, 1018.654
1271.991, 1009.307
1272.473, 1023.062
1272.955, 1045.480
1273.438, 1070.820
1273.920, 1089.493
1274.402, 1084.228
1274.884, 1066.356
1275.366, 1061.096
1275.848, 1070.415
1276.330, 1069.576
1276.812, 1038.921
1277.294, 1024.395
1277.777, 1050.924
1278.259, 1065.897
1278.741, 1048.611
1279.223, 1027.270
1279.705, 1023.742
1280.187, 1025.702
1280.669, 1009.171
1281.151, 976.5888
1281.634, 952.1261
1282.116, 935.5151
1282.598, 919.2993
1283.080, 902.9874
1283.562, 891.9742
1284.044, 887.3557
1284.526, 880.8062
1285.008, 866.0882
1285.490, 849.0180
1285.973, 831.7119
1286.455, 820.2363
1286.937, 820.0198
##END=



