##NAMES=Alum-(Na)
##RRUFFID=R110204
##IDEAL CHEMISTRY=NaAl(S^6+^O_4_)_2_&#183;12H_2_O
##LOCALITY=Flux mine, near Patagonia, Arizona
##OWNER=RRUFF
##SOURCE=Gordon W Downs
##DESCRIPTION=Colorless ram's horn
##STATUS=The identification of this mineral has been confirmed only by single crystal X-ray diffraction.
##URL=rruff.info/R110204
169.0772, 78.70593
169.5593, 80.48717
170.0414, 82.53837
170.5236, 84.89095
171.0057, 87.56700
171.4878, 91.08653
171.9699, 94.57363
172.4520, 97.05901
172.9341, 98.63142
173.4163, 100.2646
173.8984, 102.6442
174.3805, 105.5820
174.8626, 108.6798
175.3447, 111.9884
175.8268, 115.3343
176.3090, 118.4197
176.7911, 121.2142
177.2732, 124.1944
177.7553, 127.3410
178.2374, 130.3849
178.7195, 133.3105
179.2017, 135.9315
179.6838, 138.5432
180.1659, 141.6600
180.6480, 145.3497
181.1301, 149.0182
181.6122, 152.3512
182.0944, 155.3035
182.5765, 157.6214
183.0586, 158.7092
183.5407, 159.1831
184.0228, 160.4455
184.5049, 162.5605
184.9871, 165.1301
185.4692, 167.8568
185.9513, 170.7020
186.4334, 173.3011
186.9155, 175.6935
187.3976, 177.7500
187.8798, 178.9114
188.3619, 179.0235
188.8440, 178.7759
189.3261, 179.4002
189.8082, 180.7961
190.2903, 181.5371
190.7725, 180.5668
191.2546, 178.1767
191.7367, 176.1449
192.2188, 174.6013
192.7009, 173.2798
193.1830, 171.8445
193.6652, 170.3047
194.1473, 168.5837
194.6294, 166.6675
195.1115, 164.5551
195.5936, 162.2046
196.0757, 159.5899
196.5579, 156.7809
197.0400, 153.8220
197.5221, 150.6846
198.0042, 147.6973
198.4863, 145.0611
198.9684, 142.7912
199.4506, 140.5188
199.9327, 138.2784
200.4148, 135.9864
200.8969, 133.4433
201.3790, 130.5822
201.8611, 127.7063
202.3433, 124.8805
202.8254, 122.0677
203.3075, 119.7949
203.7896, 118.3346
204.2717, 117.2551
204.7538, 115.3793
205.2360, 112.5140
205.7181, 109.5632
206.2002, 107.0491
206.6823, 105.0146
207.1644, 103.1038
207.6465, 101.2532
208.1287, 99.52676
208.6108, 98.06596
209.0929, 96.88242
209.5750, 95.92091
210.0571, 95.22264
210.5392, 94.86527
211.0214, 94.40321
211.5035, 93.84407
211.9856, 93.14597
212.4677, 92.00907
212.9498, 90.13341
213.4319, 88.48765
213.9140, 87.77895
214.3962, 88.36430
214.8783, 88.59504
215.3604, 88.24092
215.8425, 87.44360
216.3246, 86.80500
216.8067, 86.42702
217.2889, 85.99934
217.7710, 85.28896
218.2531, 84.15555
218.7352, 83.13313
219.2173, 82.22248
219.6994, 81.44261
220.1816, 80.95375
220.6637, 80.85988
221.1458, 80.85648
221.6279, 80.79790
222.1100, 80.77505
222.5921, 80.42321
223.0743, 79.53139
223.5564, 78.28027
224.0385, 77.52470
224.5206, 77.54062
225.0027, 77.64275
225.4848, 77.38840
225.9670, 76.58121
226.4491, 75.90421
226.9312, 75.43108
227.4133, 75.13026
227.8954, 74.84370
228.3775, 74.63926
228.8597, 74.36019
229.3418, 73.89069
229.8239, 73.11292
230.3060, 72.41872
230.7881, 71.84842
231.2702, 71.38305
231.7524, 70.96472
232.2345, 70.61206
232.7166, 70.28312
233.1987, 69.98695
233.6808, 69.84871
234.1629, 69.45076
234.6451, 68.64999
235.1272, 67.55824
235.6093, 66.65495
236.0914, 66.00179
236.5735, 65.45216
237.0556, 64.93642
237.5378, 64.48531
238.0199, 64.01109
238.5020, 63.55372
238.9841, 63.07170
239.4662, 62.37260
239.9483, 61.21806
240.4305, 60.17444
240.9126, 59.56425
241.3947, 59.62897
241.8768, 59.59803
242.3589, 59.41978
242.8410, 59.12589
243.3232, 58.84800
243.8053, 58.74836
244.2874, 58.43944
244.7695, 57.68193
245.2516, 56.18157
245.7337, 54.87122
246.2159, 53.76687
246.6980, 52.86654
247.1801, 52.22102
247.6622, 52.01017
248.1443, 51.77065
248.6264, 51.26347
249.1086, 50.32220
249.5907, 49.50470
250.0728, 48.83489
250.5549, 48.28999
251.0370, 47.84641
251.5191, 47.66705
252.0013, 47.33120
252.4834, 46.53239
252.9655, 44.80595
253.4476, 43.92678
253.9297, 44.37539
254.4118, 45.45814
254.8940, 45.54354
255.3761, 44.07524
255.8582, 42.59135
256.3403, 41.80167
256.8224, 42.02772
257.3046, 41.83024
257.7867, 40.90948
258.2688, 39.75633
258.7509, 39.45750
259.2330, 40.55473
259.7151, 41.40132
260.1973, 41.25879
260.6794, 39.83447
261.1615, 38.76587
261.6436, 38.19831
262.1257, 37.87223
262.6078, 37.27040
263.0900, 36.11934
263.5721, 35.37527
264.0542, 35.59219
264.5363, 37.04958
265.0184, 37.49709
265.5005, 36.49603
265.9827, 35.01390
266.4648, 34.51860
266.9469, 35.37914
267.4290, 36.17478
267.9111, 36.52218
268.3932, 36.41127
268.8754, 35.86184
269.3575, 34.64449
269.8396, 33.34098
270.3217, 32.72007
270.8038, 32.89046
271.2859, 33.35222
271.7681, 34.19041
272.2502, 35.36421
272.7323, 35.49926
273.2144, 34.21452
273.6965, 32.65890
274.1786, 32.16743
274.6608, 32.95257
275.1429, 33.63401
275.6250, 33.88224
276.1071, 33.74079
276.5892, 33.47709
277.0714, 33.03406
277.5535, 32.64420
278.0356, 32.58913
278.5177, 32.91099
278.9998, 33.10590
279.4819, 32.98387
279.9641, 32.67331
280.4462, 32.84058
280.9283, 33.60620
281.4104, 34.33318
281.8925, 34.42131
282.3746, 33.86073
282.8568, 33.42533
283.3389, 33.28375
283.8210, 33.31508
284.3031, 33.11815
284.7852, 32.65280
285.2673, 32.30260
285.7495, 32.40614
286.2316, 32.92781
286.7137, 33.41878
287.1958, 33.85636
287.6779, 34.18780
288.1600, 34.23304
288.6422, 33.98717
289.1243, 33.75668
289.6064, 33.79663
290.0885, 34.04166
290.5706, 34.11050
291.0527, 33.90632
291.5349, 33.66746
292.0170, 33.88720
292.4991, 34.51462
292.9812, 35.00645
293.4633, 34.78033
293.9454, 34.15639
294.4276, 34.32460
294.9097, 35.49535
295.3918, 36.79280
295.8739, 36.91137
296.3560, 36.09335
296.8381, 35.49022
297.3203, 35.78948
297.8024, 36.65400
298.2845, 37.40910
298.7666, 38.03547
299.2487, 38.65034
299.7308, 39.58282
300.2130, 40.64154
300.6951, 41.25200
301.1772, 40.63724
301.6593, 39.71318
302.1414, 39.93955
302.6235, 41.29207
303.1057, 42.82980
303.5878, 43.91640
304.0699, 44.61666
304.5520, 45.00045
305.0341, 44.82845
305.5162, 44.59499
305.9984, 44.88114
306.4805, 45.62314
306.9626, 46.40399
307.4447, 46.97747
307.9268, 47.40429
308.4089, 47.72441
308.8911, 47.82557
309.3732, 48.01411
309.8553, 48.66566
310.3374, 49.64297
310.8195, 50.49625
311.3016, 50.81814
311.7838, 50.96906
312.2659, 51.27814
312.7480, 51.84523
313.2301, 52.48480
313.7122, 53.29150
314.1943, 54.10005
314.6765, 54.54309
315.1586, 54.10296
315.6407, 53.49558
316.1228, 53.16994
316.6049, 53.23074
317.0870, 53.37847
317.5692, 53.45765
318.0513, 53.54814
318.5334, 53.76184
319.0155, 54.20140
319.4976, 54.71457
319.9797, 55.33607
320.4619, 56.09946
320.9440, 56.55001
321.4261, 56.26242
321.9082, 55.72003
322.3903, 55.38093
322.8724, 55.72682
323.3546, 55.89722
323.8367, 55.49388
324.3188, 54.54560
324.8009, 53.94508
325.2830, 54.06636
325.7651, 54.44248
326.2473, 54.77238
326.7294, 55.29192
327.2115, 55.46325
327.6936, 55.06691
328.1757, 54.22313
328.6578, 53.51197
329.1400, 53.02970
329.6221, 52.60829
330.1042, 52.18561
330.5863, 51.88250
331.0684, 51.35763
331.5505, 50.31277
332.0327, 49.10255
332.5148, 48.57476
332.9969, 49.34145
333.4790, 49.96584
333.9611, 49.91099
334.4432, 48.95670
334.9254, 48.20204
335.4075, 47.75285
335.8896, 47.41986
336.3717, 46.96084
336.8538, 46.39062
337.3359, 45.65003
337.8180, 44.61554
338.3001, 43.30178
338.7823, 42.48454
339.2644, 42.35032
339.7465, 42.36290
340.2286, 41.92456
340.7107, 40.92183
341.1928, 40.18940
341.6750, 39.97629
342.1571, 40.13146
342.6392, 40.16754
343.1213, 40.12612
343.6034, 39.75344
344.0855, 38.56681
344.5677, 36.63141
345.0498, 35.43437
345.5319, 35.35459
346.0140, 35.77234
346.4961, 35.39682
346.9782, 34.26513
347.4604, 33.26508
347.9425, 33.05613
348.4246, 33.41398
348.9067, 33.50596
349.3888, 33.25204
349.8709, 32.91317
350.3531, 32.85527
350.8352, 32.99634
351.3173, 33.03225
351.7994, 32.76237
352.2815, 32.32798
352.7636, 32.01722
353.2458, 31.82942
353.7279, 31.50474
354.2100, 30.64428
354.6921, 29.52271
355.1742, 28.62075
355.6563, 28.13384
356.1385, 27.86378
356.6206, 27.61886
357.1027, 27.41865
357.5848, 27.36404
358.0669, 27.67642
358.5490, 28.08086
359.0312, 28.35649
359.5133, 28.54895
359.9954, 28.40858
360.4775, 27.38198
360.9596, 25.91534
361.4417, 24.96973
361.9239, 25.54004
362.4060, 26.25996
362.8881, 26.21505
363.3702, 25.08530
363.8523, 24.41363
364.3344, 25.31778
364.8166, 26.72949
365.2987, 27.43542
365.7808, 26.17105
366.2629, 25.13646
366.7450, 25.10113
367.2271, 26.06982
367.7093, 26.72097
368.1914, 26.70217
368.6735, 26.44447
369.1556, 26.22372
369.6377, 25.99378
370.1198, 25.88604
370.6020, 26.11050
371.0841, 26.49005
371.5662, 26.33328
372.0483, 25.04057
372.5304, 23.94429
373.0125, 23.68211
373.4947, 24.70510
373.9768, 25.23448
374.4589, 25.00417
374.9410, 24.49926
375.4231, 24.55058
375.9052, 25.38370
376.3874, 26.14349
376.8695, 26.57053
377.3516, 26.67534
377.8337, 26.71268
378.3158, 26.69283
378.7979, 26.58357
379.2801, 26.29340
379.7622, 25.80574
380.2443, 25.46708
380.7264, 25.38915
381.2085, 25.46147
381.6906, 25.41401
382.1728, 25.24752
382.6549, 24.96242
383.1370, 24.28085
383.6191, 23.42088
384.1012, 23.41184
384.5833, 24.52668
385.0655, 25.92645
385.5476, 26.49452
386.0297, 26.39394
386.5118, 26.18382
386.9939, 26.06030
387.4760, 26.01754
387.9582, 26.08143
388.4403, 26.25377
388.9224, 26.40767
389.4045, 26.38643
389.8866, 26.29540
390.3687, 26.27838
390.8509, 26.33035
391.3330, 26.52860
391.8151, 27.13323
392.2972, 27.99993
392.7793, 28.55323
393.2614, 28.24313
393.7436, 27.68103
394.2257, 27.27496
394.7078, 27.09276
395.1899, 27.08782
395.6720, 27.33688
396.1541, 27.73624
396.6363, 28.11940
397.1184, 28.28517
397.6005, 28.57757
398.0826, 29.26880
398.5647, 30.47151
399.0468, 31.18219
399.5290, 30.81871
400.0111, 30.19698
400.4932, 29.97675
400.9753, 30.59461
401.4574, 31.02543
401.9395, 31.03993
402.4217, 30.76807
402.9038, 30.83935
403.3859, 31.42167
403.8680, 32.10128
404.3501, 32.71537
404.8322, 33.29715
405.3144, 33.67952
405.7965, 33.85236
406.2786, 33.83375
406.7607, 33.50780
407.2428, 32.74324
407.7249, 32.41975
408.2071, 33.06443
408.6892, 34.45063
409.1713, 34.98542
409.6534, 34.54232
410.1355, 33.98927
410.6176, 34.11047
411.0998, 34.82596
411.5819, 35.71855
412.0640, 36.79142
412.5461, 37.86547
413.0282, 38.62902
413.5103, 39.12048
413.9925, 39.58650
414.4746, 40.11658
414.9567, 40.73685
415.4388, 41.62646
415.9209, 42.87087
416.4030, 43.79723
416.8852, 43.25532
417.3673, 42.12515
417.8494, 41.83506
418.3315, 43.97912
418.8136, 46.27583
419.2957, 46.97652
419.7779, 46.34397
420.2600, 46.18784
420.7421, 47.56767
421.2242, 49.59823
421.7063, 51.66866
422.1884, 53.94401
422.6706, 55.79698
423.1527, 56.78451
423.6348, 57.29360
424.1169, 58.05799
424.5990, 59.04338
425.0811, 60.44367
425.5633, 62.47799
426.0454, 65.27779
426.5275, 67.75023
427.0096, 69.77526
427.4917, 71.59098
427.9738, 73.34472
428.4560, 74.78439
428.9381, 76.69172
429.4202, 79.25990
429.9023, 82.30199
430.3844, 85.34515
430.8665, 88.36750
431.3487, 91.40215
431.8308, 94.57108
432.3129, 97.89196
432.7950, 100.6568
433.2771, 102.7049
433.7592, 104.5841
434.2414, 107.1212
434.7235, 110.2573
435.2056, 113.2945
435.6877, 116.1034
436.1698, 118.6059
436.6519, 120.4012
437.1341, 121.5446
437.6162, 122.9770
438.0983, 125.8751
438.5804, 129.4377
439.0625, 132.2269
439.5446, 133.8830
440.0268, 135.1658
440.5089, 136.8288
440.9910, 138.6217
441.4731, 140.0094
441.9552, 140.4930
442.4373, 140.7126
442.9195, 140.9504
443.4016, 141.2300
443.8837, 141.8130
444.3658, 143.2129
444.8479, 144.7338
445.3300, 145.7970
445.8122, 145.5992
446.2943, 145.8512
446.7764, 147.2348
447.2585, 149.2893
447.7406, 150.8356
448.2227, 151.3773
448.7049, 151.8140
449.1870, 152.3530
449.6691, 152.9657
450.1512, 153.8333
450.6333, 154.9742
451.1154, 156.3404
451.5976, 158.0213
452.0797, 160.2812
452.5618, 161.9019
453.0439, 162.5670
453.5260, 162.5391
454.0081, 162.6861
454.4903, 163.0595
454.9724, 163.2774
455.4545, 163.0873
455.9366, 162.5349
456.4187, 161.8843
456.9008, 161.1225
457.3830, 160.3961
457.8651, 160.1321
458.3472, 160.0971
458.8293, 159.5281
459.3114, 157.9527
459.7935, 155.9436
460.2757, 154.1778
460.7578, 152.6048
461.2399, 150.9383
461.7220, 149.1925
462.2041, 147.1626
462.6862, 144.5965
463.1684, 141.3702
463.6505, 138.0581
464.1326, 134.6152
464.6147, 131.4033
465.0968, 128.8394
465.5789, 127.8925
466.0611, 126.8343
466.5432, 125.1363
467.0253, 122.8315
467.5074, 120.3672
467.9895, 117.3605
468.4716, 114.5555
468.9538, 112.3559
469.4359, 111.1369
469.9180, 109.7564
470.4001, 108.1834
470.8822, 106.4528
471.3643, 104.5413
471.8465, 102.2907
472.3286, 100.3401
472.8107, 98.99306
473.2928, 98.10592
473.7749, 96.61246
474.2570, 94.39797
474.7392, 92.21472
475.2213, 90.70010
475.7034, 89.75650
476.1855, 88.70377
476.6676, 87.44798
477.1497, 86.15053
477.6319, 85.11091
478.1140, 84.23629
478.5961, 83.23574
479.0782, 81.89582
479.5603, 80.41830
480.0424, 78.90571
480.5246, 77.39084
481.0067, 76.18943
481.4888, 75.85748
481.9709, 75.72520
482.4530, 75.12258
482.9352, 73.63204
483.4173, 72.39079
483.8994, 72.10340
484.3815, 72.28853
484.8636, 72.21627
485.3457, 71.65269
485.8279, 70.88752
486.3100, 69.86748
486.7921, 68.59516
487.2742, 67.61419
487.7563, 67.11256
488.2384, 66.70298
488.7206, 66.16293
489.2027, 65.39573
489.6848, 64.78252
490.1669, 64.39135
490.6490, 64.08788
491.1311, 63.60620
491.6133, 62.90495
492.0954, 62.34169
492.5775, 62.04390
493.0596, 61.96370
493.5417, 61.90993
494.0238, 61.88041
494.5060, 61.94863
494.9881, 62.31332
495.4702, 62.80818
495.9523, 63.04916
496.4344, 62.99150
496.9165, 62.63669
497.3987, 61.62756
497.8808, 60.35192
498.3629, 59.56195
498.8450, 59.91472
499.3271, 60.56055
499.8092, 61.25489
500.2914, 61.88832
500.7735, 61.84447
501.2556, 59.85532
501.7377, 57.88348
502.2198, 57.18278
502.7019, 58.44640
503.1841, 59.52151
503.6662, 60.21323
504.1483, 60.54941
504.6304, 60.52645
505.1125, 59.80235
505.5946, 59.28243
506.0768, 59.17882
506.5589, 59.39300
507.0410, 59.41200
507.5231, 59.17405
508.0052, 58.91340
508.4873, 58.75420
508.9695, 58.69905
509.4516, 58.64330
509.9337, 58.59994
510.4158, 58.49638
510.8979, 58.16866
511.3800, 57.68109
511.8622, 57.31916
512.3443, 57.10670
512.8264, 57.13124
513.3085, 57.72387
513.7906, 58.71040
514.2728, 59.46563
514.7549, 59.65548
515.2370, 59.45172
515.7191, 58.86788
516.2012, 57.88151
516.6833, 57.03468
517.1655, 56.52034
517.6476, 56.27912
518.1297, 56.26561
518.6118, 56.79261
519.0939, 57.14521
519.5760, 57.10976
520.0582, 56.82888
520.5403, 56.64563
521.0224, 56.58683
521.5045, 56.59381
521.9866, 56.68365
522.4688, 56.85585
522.9509, 56.90170
523.4330, 56.77180
523.9151, 56.62938
524.3972, 56.59496
524.8793, 56.66985
525.3615, 56.80956
525.8436, 57.03405
526.3257, 57.25672
526.8078, 57.33967
527.2899, 57.30192
527.7720, 57.22866
528.2542, 57.12355
528.7363, 57.02483
529.2184, 56.96070
529.7005, 56.93945
530.1826, 57.00277
530.6647, 57.39811
531.1469, 57.75484
531.6290, 57.63634
532.1111, 56.83002
532.5932, 56.31719
533.0753, 56.88995
533.5574, 57.77601
534.0396, 58.16502
534.5217, 57.42736
535.0038, 56.76303
535.4859, 56.17286
535.9680, 55.76307
536.4501, 55.95935
536.9323, 57.32818
537.4144, 58.33402
537.8965, 58.28782
538.3786, 57.16046
538.8607, 56.34219
539.3428, 55.87818
539.8250, 55.60220
540.3071, 55.42578
540.7892, 55.33556
541.2713, 55.20225
541.7534, 55.03090
542.2355, 54.74408
542.7177, 54.12532
543.1998, 53.27749
543.6819, 52.54482
544.1640, 52.21363
544.6461, 51.98891
545.1282, 51.55161
545.6104, 50.94569
546.0925, 50.43483
546.5746, 50.23137
547.0567, 50.11801
547.5388, 49.97897
548.0209, 49.84056
548.5031, 49.52805
548.9852, 48.90567
549.4673, 48.13643
549.9494, 47.37806
550.4315, 46.44098
550.9136, 45.83151
551.3958, 45.74904
551.8779, 45.99006
552.3600, 45.97704
552.8421, 45.70797
553.3242, 45.18476
553.8063, 44.26825
554.2885, 43.04702
554.7706, 42.26788
555.2527, 41.95778
555.7348, 41.80458
556.2169, 41.47597
556.6990, 41.09661
557.1812, 41.03634
557.6633, 41.42516
558.1454, 41.85981
558.6275, 41.94430
559.1096, 41.80335
559.5917, 41.65807
560.0739, 41.64568
560.5560, 41.60664
561.0381, 41.49861
561.5202, 41.30806
562.0023, 40.97696
562.4844, 40.19140
562.9666, 39.51723
563.4487, 39.22414
563.9308, 39.35933
564.4129, 39.64570
564.8950, 40.24183
565.3771, 40.81504
565.8593, 41.07186
566.3414, 40.93604
566.8235, 40.79642
567.3056, 40.66710
567.7877, 40.58411
568.2698, 40.61290
568.7520, 40.75175
569.2341, 40.97482
569.7162, 41.37413
570.1983, 41.78550
570.6804, 41.80127
571.1625, 41.48920
571.6447, 41.31755
572.1268, 41.74144
572.6089, 42.36798
573.0910, 42.81417
573.5731, 43.02592
574.0552, 43.17701
574.5374, 43.25802
575.0195, 43.36279
575.5016, 43.57884
575.9837, 43.92724
576.4658, 44.38187
576.9479, 45.04067
577.4301, 45.78195
577.9122, 46.36808
578.3943, 46.75035
578.8764, 47.07302
579.3585, 47.32487
579.8406, 47.53898
580.3228, 48.00961
580.8049, 48.78248
581.2870, 49.51225
581.7691, 49.82917
582.2512, 49.89068
582.7333, 50.41285
583.2155, 51.47790
583.6975, 52.61927
584.1796, 53.56216
584.6617, 54.26606
585.1439, 54.60695
585.6260, 54.24981
586.1081, 54.07425
586.5902, 54.62131
587.0723, 55.73410
587.5544, 57.09009
588.0366, 59.42388
588.5187, 61.17559
589.0008, 61.33725
589.4829, 60.04177
589.9650, 59.99595
590.4471, 61.97176
590.9293, 64.20119
591.4114, 65.82962
591.8935, 66.76633
592.3756, 67.78165
592.8577, 68.86488
593.3398, 70.06219
593.8220, 71.60513
594.3041, 73.40698
594.7862, 74.65006
595.2683, 74.96263
595.7504, 75.27641
596.2325, 77.04144
596.7147, 79.81273
597.1968, 82.39470
597.6789, 84.24979
598.1610, 85.76286
598.6431, 86.95727
599.1252, 87.96473
599.6074, 89.38682
600.0895, 91.61958
600.5716, 94.17290
601.0537, 96.92521
601.5358, 99.94604
602.0179, 102.6033
602.5001, 104.4490
602.9822, 106.3775
603.4643, 109.2041
603.9464, 113.3827
604.4285, 116.6301
604.9106, 118.5134
605.3928, 120.0222
605.8749, 122.9110
606.3570, 127.0710
606.8391, 130.8757
607.3212, 133.6891
607.8033, 136.0649
608.2855, 138.8009
608.7676, 141.8282
609.2497, 145.0004
609.7318, 148.2059
610.2139, 151.5113
610.6960, 155.0694
611.1782, 158.8627
611.6603, 162.3103
612.1424, 165.3671
612.6245, 167.9383
613.1066, 169.9507
613.5887, 171.3342
614.0709, 172.3365
614.5530, 172.8546
615.0351, 173.0987
615.5172, 173.3994
615.9993, 173.9392
616.4814, 173.6911
616.9636, 172.4191
617.4457, 170.4356
617.9278, 168.1775
618.4099, 165.6635
618.8920, 163.1264
619.3741, 160.6812
619.8563, 158.2205
620.3384, 155.5249
620.8205, 152.6646
621.3026, 149.9950
621.7847, 148.1873
622.2668, 146.3004
622.7490, 143.4617
623.2311, 139.4650
623.7132, 135.9605
624.1953, 133.7371
624.6774, 131.9250
625.1595, 129.9255
625.6417, 127.6866
626.1238, 125.3221
626.6059, 122.7688
627.0880, 120.1938
627.5701, 117.8057
628.0522, 115.6016
628.5344, 113.6628
629.0165, 112.1289
629.4986, 110.6843
629.9807, 108.6085
630.4628, 106.0044
630.9449, 103.4976
631.4271, 101.4392
631.9092, 99.57868
632.3913, 97.68237
632.8734, 95.73995
633.3555, 93.77391
633.8376, 91.73594
634.3198, 89.70133
634.8019, 87.71294
635.2840, 85.78917
635.7661, 83.79819
636.2482, 81.48524
636.7303, 79.28132
637.2125, 77.56021
637.6946, 76.65916
638.1767, 75.16613
638.6588, 72.82398
639.1409, 70.24264
639.6230, 68.37427
640.1052, 67.16725
640.5873, 65.97741
641.0694, 64.68980
641.5515, 63.28133
642.0336, 61.55482
642.5157, 59.67805
642.9979, 58.11139
643.4800, 57.41091
643.9621, 56.84597
644.4442, 55.86581
644.9263, 54.54139
645.4084, 53.35774
645.8906, 52.63842
646.3727, 51.95879
646.8548, 51.10548
647.3369, 50.05199
647.8190, 49.03933
648.3011, 48.05348
648.7833, 47.14216
649.2654, 46.40908
649.7475, 45.87395
650.2296, 45.06605
650.7117, 43.86555
651.1938, 42.74271
651.6760, 42.52266
652.1581, 42.89261
652.6402, 42.84740
653.1223, 41.95656
653.6044, 40.92735
654.0865, 40.42191
654.5687, 40.22219
655.0508, 39.90541
655.5329, 39.24834
656.0150, 38.50819
656.4971, 37.70494
656.9792, 36.87577
657.4614, 36.20200
657.9435, 35.81892
658.4256, 35.40327
658.9077, 34.79399
659.3898, 34.00930
659.8719, 33.54258
660.3541, 33.44686
660.8362, 33.42080
661.3183, 33.20391
661.8004, 32.87457
662.2825, 32.81201
662.7646, 33.05743
663.2468, 33.20573
663.7289, 32.80650
664.2110, 32.13184
664.6931, 31.51254
665.1752, 30.98385
665.6573, 30.61389
666.1395, 30.51675
666.6216, 30.55821
667.1037, 30.57304
667.5858, 30.41593
668.0679, 30.41282
668.5500, 30.79784
669.0322, 31.25741
669.5143, 30.98804
669.9964, 29.79838
670.4785, 28.81716
670.9606, 28.42841
671.4427, 28.45141
671.9249, 28.44261
672.4070, 28.40277
672.8891, 28.33808
673.3712, 28.23837
673.8533, 28.12417
674.3354, 28.07923
674.8176, 28.08286
675.2997, 27.91715
675.7818, 27.07141
676.2639, 26.32958
676.7460, 26.29787
677.2281, 27.33624
677.7103, 27.88840
678.1924, 27.53008
678.6745, 27.04766
679.1566, 27.09964
679.6387, 27.89582
680.1208, 28.20105
680.6030, 27.89900
681.0851, 27.24370
681.5672, 26.32098
682.0493, 25.26514
682.5314, 24.65470
683.0135, 24.73575
683.4957, 25.06841
683.9778, 25.26624
684.4599, 25.37600
684.9420, 25.47863
685.4241, 25.76792
685.9063, 25.88718
686.3884, 25.47541
686.8705, 24.75556
687.3526, 24.51145
687.8347, 25.09091
688.3168, 25.70340
688.7990, 26.22980
689.2811, 26.63140
689.7632, 26.46125
690.2453, 25.61626
690.7274, 24.91548
691.2095, 25.12311
691.6917, 25.82568
692.1738, 25.64729
692.6559, 24.61236
693.1380, 23.57723
693.6201, 23.07994
694.1022, 22.94167
694.5844, 23.08610
695.0665, 23.56719
695.5486, 23.86843
696.0307, 23.58012
696.5128, 23.19105
696.9949, 23.09788
697.4771, 23.50194
697.9592, 23.81515
698.4413, 24.10608
698.9234, 24.21404
699.4055, 23.78330
699.8876, 22.79725
700.3698, 22.27417
700.8519, 22.49932
701.3340, 22.96054
701.8161, 22.97616
702.2982, 22.65847
702.7803, 22.27343
703.2625, 21.73824
703.7446, 21.39051
704.2267, 21.65400
704.7088, 22.26276
705.1909, 22.63131
705.6730, 22.33197
706.1552, 22.07561
706.6373, 22.01782
707.1194, 22.13683
707.6015, 22.35993
708.0836, 22.73528
708.5657, 23.07181
709.0479, 23.36691
709.5300, 23.55378
710.0121, 23.19551
710.4942, 22.31678
710.9763, 21.56776
711.4584, 21.59000
711.9406, 21.87656
712.4227, 21.70910
712.9048, 21.06735
713.3869, 20.58826
713.8690, 20.63858
714.3511, 20.91633
714.8333, 21.27938
715.3154, 21.81943
715.7975, 22.06141
716.2796, 21.88617
716.7617, 21.56100
717.2438, 21.27384
717.7260, 21.02829
718.2081, 20.78689
718.6902, 20.52800
719.1723, 20.36203
719.6544, 20.57545
720.1365, 20.97834
720.6187, 21.04971
721.1008, 20.57664
721.5829, 20.05355
722.0650, 19.69823
722.5471, 19.56858
723.0292, 19.73739
723.5114, 20.65978
723.9935, 21.34787
724.4756, 21.60126
724.9577, 21.55410
725.4398, 21.37655
725.9219, 20.96959
726.4041, 20.76867
726.8862, 20.96129
727.3683, 21.31502
727.8504, 21.21060
728.3325, 20.71252
728.8146, 20.25093
729.2968, 20.03482
729.7789, 19.94482
730.2610, 19.87577
730.7431, 19.82347
731.2252, 19.77395
731.7073, 19.83832
732.1895, 19.79108
732.6716, 19.35047
733.1537, 18.58277
733.6358, 18.41160
734.1179, 19.21859
734.6000, 19.97567
735.0822, 20.26291
735.5643, 20.11624
736.0464, 19.74001
736.5285, 19.11135
737.0106, 18.70800
737.4927, 19.10555
737.9749, 19.86610
738.4570, 20.23326
738.9391, 20.17257
739.4212, 20.02036
739.9033, 19.93655
740.3854, 19.86204
740.8676, 19.76355
741.3497, 19.64678
741.8318, 19.44973
742.3139, 19.02576
742.7960, 18.68006
743.2781, 18.62845
743.7603, 18.90383
744.2424, 19.28718
744.7245, 19.81854
745.2066, 20.27386
745.6887, 20.35221
746.1708, 20.17971
746.6530, 20.09653
747.1351, 20.18049
747.6172, 20.25144
748.0993, 20.08905
748.5814, 19.88025
749.0635, 19.84092
749.5457, 20.15118
750.0278, 20.42280
750.5099, 20.57482
750.9920, 20.68122
751.4741, 20.86878
751.9562, 21.22364
752.4384, 21.23991
752.9205, 20.75706
753.4026, 20.10727
753.8847, 19.77294
754.3668, 19.72478
754.8489, 19.86764
755.3311, 20.28838
755.8132, 20.67029
756.2953, 20.68461
756.7774, 20.47172
757.2595, 20.27783
757.7416, 20.20560
758.2238, 20.12848
758.7059, 19.98846
759.1880, 19.83010
759.6701, 19.72232
760.1522, 19.61740
760.6343, 19.75953
761.1165, 20.36477
761.5986, 21.10064
762.0807, 21.01013
762.5628, 20.23540
763.0449, 19.60603
763.5270, 19.58264
764.0092, 19.80910
764.4913, 20.01846
764.9734, 20.20894
765.4555, 20.37875
765.9376, 20.49199
766.4197, 20.61879
766.9019, 20.80808
767.3840, 21.03595
767.8661, 21.20520
768.3482, 21.34452
768.8303, 21.33273
769.3124, 21.05954
769.7946, 20.61917
770.2767, 20.30091
770.7588, 20.10620
771.2409, 20.04878
771.7230, 20.21202
772.2051, 20.46396
772.6873, 20.70566
773.1694, 20.92820
773.6515, 21.09259
774.1336, 21.21422
774.6157, 21.24731
775.0978, 21.15429
775.5800, 20.94122
776.0621, 20.69720
776.5442, 20.36490
777.0263, 20.16482
777.5084, 20.23848
777.9905, 20.54716
778.4727, 21.01501
778.9548, 21.62319
779.4369, 22.03784
779.9190, 21.88421
780.4011, 21.50963
780.8832, 21.19939
781.3654, 20.98084
781.8475, 20.90153
782.3296, 21.23356
782.8117, 21.47019
783.2938, 21.27063
783.7759, 20.55645
784.2581, 20.39468
784.7402, 20.96890
785.2223, 21.52507
785.7044, 21.39983
786.1865, 20.81364
786.6686, 20.68530
787.1508, 21.03666
787.6329, 21.44137
788.1150, 21.63223
788.5971, 21.69470
789.0792, 21.72985
789.5613, 21.76595
790.0435, 21.61773
790.5256, 21.08727
791.0077, 20.48870
791.4898, 19.93136
791.9719, 19.38145
792.4540, 19.19035
792.9362, 19.42639
793.4183, 19.75043
793.9004, 19.88405
794.3825, 19.88173
794.8646, 19.86933
795.3467, 19.85515
795.8289, 19.89560
796.3110, 20.14487
796.7931, 20.39116
797.2752, 20.42983
797.7573, 20.17903
798.2394, 19.98224
798.7216, 19.93419
799.2037, 19.89014
799.6858, 19.72338
800.1679, 19.38952
800.6500, 19.30021
801.1321, 19.47619
801.6143, 19.75588
802.0964, 20.24915
802.5785, 20.67013
803.0606, 20.19266
803.5427, 18.64346
804.0248, 17.60356
804.5070, 18.45529
804.9891, 19.86900
805.4712, 20.88798
805.9533, 21.38780
806.4354, 21.49088
806.9175, 21.06011
807.3997, 20.43612
807.8818, 19.75019
808.3639, 19.01730
808.8460, 18.74292
809.3281, 18.96393
809.8102, 19.39736
810.2924, 19.87207
810.7745, 20.36482
811.2566, 20.90522
811.7387, 21.51980
812.2208, 21.89000
812.7029, 21.73593
813.1851, 21.39865
813.6672, 21.10181
814.1493, 20.85598
814.6314, 20.64967
815.1135, 20.52231
815.5956, 20.33984
816.0778, 19.84721
816.5599, 19.17945
817.0420, 19.14189
817.5241, 19.79218
818.0062, 20.26024
818.4883, 19.40429
818.9705, 18.32155
819.4526, 18.22322
819.9347, 19.42026
820.4168, 20.30996
820.8989, 20.27276
821.3810, 20.10543
821.8632, 20.23458
822.3453, 20.71251
822.8274, 20.95365
823.3095, 20.92989
823.7916, 20.82100
824.2737, 20.78853
824.7559, 20.76752
825.2380, 20.53787
825.7201, 20.10279
826.2022, 19.86347
826.6843, 20.21771
827.1664, 20.73307
827.6486, 21.18299
828.1307, 21.57123
828.6128, 21.61540
829.0949, 21.06242
829.5770, 20.60756
830.0591, 20.74236
830.5413, 21.38576
831.0234, 21.57281
831.5055, 21.30883
831.9876, 21.00695
832.4697, 20.87823
832.9518, 20.91939
833.4340, 21.21162
833.9161, 21.73211
834.3982, 22.14203
834.8803, 22.44998
835.3624, 22.47744
835.8445, 22.01792
836.3267, 21.11236
836.8088, 20.74192
837.2909, 20.99283
837.7730, 21.39701
838.2551, 21.67192
838.7372, 21.91922
839.2194, 22.53733
839.7015, 23.43231
840.1836, 24.05978
840.6657, 23.88356
841.1478, 23.54143
841.6299, 23.45660
842.1121, 23.59770
842.5942, 23.52393
843.0763, 22.98100
843.5584, 22.63090
844.0405, 22.72214
844.5226, 23.15072
845.0048, 23.55033
845.4869, 23.91853
845.9690, 24.22400
846.4511, 24.53307
846.9332, 24.69877
847.4153, 24.37356
847.8975, 23.75938
848.3796, 23.42726
848.8617, 24.04985
849.3438, 24.42390
849.8259, 23.96075
850.3080, 23.08116
850.7902, 22.94273
851.2723, 23.67715
851.7544, 24.37789
852.2365, 24.82102
852.7186, 25.04406
853.2007, 24.95230
853.6829, 24.68954
854.1650, 24.65465
854.6471, 25.23042
855.1292, 25.77694
855.6113, 25.82560
856.0934, 25.67797
856.5756, 25.94630
857.0577, 27.18369
857.5398, 27.68061
858.0219, 27.03386
858.5040, 25.92273
858.9861, 25.44438
859.4683, 25.49677
859.9504, 25.57613
860.4325, 25.60564
860.9146, 25.49505
861.3967, 24.83528
861.8788, 24.12783
862.3610, 24.01590
862.8431, 25.09768
863.3252, 25.99128
863.8073, 26.55862
864.2894, 26.91725
864.7715, 27.14233
865.2537, 27.22750
865.7358, 27.30703
866.2179, 27.38750
866.7000, 27.49366
867.1821, 27.70102
867.6642, 27.93022
868.1464, 28.03614
868.6285, 27.97383
869.1106, 27.96967
869.5927, 28.09804
870.0748, 28.32920
870.5569, 28.65137
871.0391, 29.07958
871.5212, 29.53342
872.0033, 30.07388
872.4854, 30.37710
872.9675, 29.94436
873.4496, 29.14688
873.9318, 28.99898
874.4139, 29.47064
874.8960, 29.82619
875.3781, 29.55424
875.8602, 29.09695
876.3423, 28.64273
876.8245, 28.22124
877.3066, 28.05185
877.7887, 28.27843
878.2708, 28.41675
878.7529, 28.15690
879.2350, 27.71339
879.7172, 27.92823
880.1993, 28.70015
880.6814, 29.38216
881.1635, 29.61028
881.6456, 29.62980
882.1277, 29.51890
882.6099, 29.34033
883.0920, 29.27489
883.5741, 29.39520
884.0562, 29.58527
884.5383, 29.86029
885.0204, 30.16777
885.5026, 30.43849
885.9847, 30.66195
886.4668, 30.64516
886.9489, 30.20667
887.4310, 29.79862
887.9131, 30.07145
888.3953, 30.65912
888.8774, 31.00779
889.3595, 30.76410
889.8416, 30.57524
890.3237, 30.59517
890.8058, 30.65499
891.2880, 30.56686
891.7701, 30.31758
892.2522, 30.07374
892.7343, 29.83430
893.2164, 29.68693
893.6985, 29.76102
894.1807, 29.96958
894.6628, 30.22526
895.1449, 30.53521
895.6270, 30.71991
896.1091, 30.69459
896.5912, 30.53453
897.0734, 30.23244
897.5555, 29.75711
898.0376, 29.57028
898.5197, 29.69455
899.0018, 29.98059
899.4839, 30.53761
899.9661, 31.09824
900.4482, 31.03349
900.9303, 30.43342
901.4124, 29.93475
901.8945, 29.84844
902.3766, 29.93249
902.8588, 30.19470
903.3409, 30.55105
903.8230, 30.58400
904.3051, 30.15479
904.7872, 29.98549
905.2693, 30.47401
905.7515, 31.16335
906.2336, 31.01588
906.7157, 30.28226
907.1978, 29.68633
907.6799, 29.50032
908.1620, 29.55157
908.6442, 29.95262
909.1263, 30.47986
909.6084, 30.76074
910.0905, 30.70730
910.5726, 30.62927
911.0547, 30.55395
911.5369, 30.46197
912.0190, 30.26885
912.5011, 30.04067
912.9832, 30.00199
913.4653, 30.22359
913.9474, 30.41474
914.4296, 30.32813
914.9117, 30.17305
915.3938, 30.12422
915.8759, 30.20640
916.3580, 30.36005
916.8401, 30.64167
917.3223, 30.85353
917.8044, 30.76483
918.2865, 30.49473
918.7686, 30.52752
919.2507, 30.83707
919.7328, 31.14307
920.2150, 31.31283
920.6971, 31.38591
921.1792, 31.28397
921.6613, 31.06802
922.1434, 31.18188
922.6255, 31.89348
923.1077, 32.28962
923.5898, 31.95234
924.0719, 31.30652
924.5540, 31.53629
925.0361, 32.38282
925.5182, 32.74181
926.0004, 31.78714
926.4825, 30.92122
926.9646, 31.25071
927.4467, 32.14434
927.9288, 32.62106
928.4109, 32.21624
928.8931, 32.29462
929.3752, 33.15956
929.8573, 34.02168
930.3394, 33.76842
930.8215, 32.74937
931.3036, 32.27089
931.7858, 32.51464
932.2679, 32.83490
932.7500, 32.70219
933.2321, 32.52562
933.7142, 32.69959
934.1964, 33.33680
934.6785, 33.52596
935.1606, 32.99165
935.6427, 32.69449
936.1248, 33.31404
936.6069, 34.50943
937.0891, 35.10996
937.5712, 35.19523
938.0533, 35.11869
938.5354, 34.70669
939.0175, 34.55682
939.4996, 35.36151
939.9818, 36.68507
940.4639, 37.22480
940.9460, 36.58360
941.4281, 36.08519
941.9102, 35.91692
942.3923, 36.07553
942.8745, 36.72108
943.3566, 37.69030
943.8387, 38.51815
944.3208, 39.10698
944.8029, 39.46237
945.2850, 39.19825
945.7672, 38.95250
946.2493, 39.38503
946.7314, 40.69011
947.2135, 41.90030
947.6956, 43.01784
948.1777, 44.02913
948.6599, 44.97187
949.1420, 45.76820
949.6241, 46.00727
950.1062, 45.78800
950.5883, 45.92729
951.0704, 47.14317
951.5526, 48.55795
952.0347, 49.71641
952.5168, 50.69573
952.9989, 51.80280
953.4810, 53.06121
953.9631, 54.29993
954.4453, 55.37293
954.9274, 56.57778
955.4095, 58.63231
955.8916, 61.15936
956.3737, 63.35102
956.8558, 64.62244
957.3380, 66.15798
957.8201, 68.37039
958.3022, 71.05850
958.7843, 74.06536
959.2664, 77.44429
959.7485, 80.86947
960.2307, 84.28210
960.7128, 88.00224
961.1949, 92.26453
961.6770, 97.04365
962.1591, 102.1286
962.6412, 107.5805
963.1234, 113.8556
963.6055, 121.5225
964.0876, 129.6870
964.5697, 137.9683
965.0518, 146.4883
965.5339, 156.1642
966.0161, 167.0373
966.4982, 178.5295
966.9803, 190.0733
967.4624, 202.6942
967.9445, 217.5900
968.4266, 234.2293
968.9088, 251.4226
969.3909, 268.2064
969.8730, 286.8353
970.3551, 308.2241
970.8372, 330.5899
971.3193, 353.0472
971.8015, 375.3380
972.2836, 397.3362
972.7657, 418.9897
973.2478, 438.0709
973.7299, 454.2759
974.2120, 466.3331
974.6942, 473.0228
975.1763, 474.1064
975.6584, 471.3648
976.1405, 464.0065
976.6226, 454.8463
977.1047, 444.2326
977.5869, 433.0430
978.0690, 423.0349
978.5511, 414.7093
979.0332, 409.6019
979.5153, 407.9781
979.9974, 410.1788
980.4796, 417.0103
980.9617, 427.6306
981.4438, 440.4510
981.9259, 454.9828
982.4080, 473.1988
982.8901, 495.1013
983.3723, 521.3352
983.8544, 551.7324
984.3365, 587.2148
984.8186, 628.9307
985.3007, 677.2662
985.7828, 733.7248
986.2650, 798.9844
986.7471, 873.6840
987.2292, 958.1910
987.7113, 1051.686
988.1934, 1153.221
988.6755, 1263.410
989.1577, 1369.344
989.6398, 1473.511
990.1219, 1556.738
990.6040, 1604.415
991.0861, 1612.093
991.5682, 1571.937
992.0504, 1462.806
992.5325, 1330.191
993.0146, 1165.640
993.4967, 996.9238
993.9788, 842.3114
994.4609, 702.4423
994.9431, 583.5247
995.4252, 485.4946
995.9073, 404.7296
996.3894, 341.4387
996.8715, 290.5983
997.3536, 249.2645
997.8358, 217.5560
998.3179, 191.0660
998.8000, 170.4222
999.2821, 152.7839
999.7642, 137.3624
1000.246, 124.0202
1000.728, 113.4188
1001.211, 104.8673
1001.693, 97.00185
1002.175, 89.18456
1002.657, 82.27718
1003.139, 76.91362
1003.621, 72.55964
1004.103, 68.81539
1004.585, 65.76638
1005.068, 62.86686
1005.550, 60.09873
1006.032, 57.42693
1006.514, 54.78571
1006.996, 52.21513
1007.478, 49.60022
1007.960, 47.01668
1008.442, 44.88597
1008.924, 43.52258
1009.407, 42.35374
1009.889, 41.32917
1010.371, 40.36317
1010.853, 39.24192
1011.335, 37.98492
1011.817, 36.78522
1012.299, 35.64183
1012.781, 34.72650
1013.263, 34.35192
1013.746, 34.14197
1014.228, 33.73851
1014.710, 33.09899
1015.192, 32.31403
1015.674, 31.29037
1016.156, 30.43966
1016.638, 30.13918
1017.120, 30.11527
1017.603, 29.75746
1018.085, 29.14448
1018.567, 28.56650
1019.049, 28.14897
1019.531, 27.78794
1020.013, 27.43662
1020.495, 27.12649
1020.977, 26.91732
1021.459, 26.81079
1021.942, 26.71378
1022.424, 26.61141
1022.906, 26.54081
1023.388, 26.71051
1023.870, 26.81371
1024.352, 26.44979
1024.834, 25.53583
1025.316, 24.86421
1025.799, 24.51847
1026.281, 24.34735
1026.763, 24.31652
1027.245, 24.40043
1027.727, 24.64716
1028.209, 24.96216
1028.691, 25.01278
1029.173, 24.47115
1029.656, 23.95505
1030.138, 23.68921
1030.620, 23.64148
1031.102, 23.83062
1031.584, 24.36299
1032.066, 24.46601
1032.548, 24.08492
1033.030, 23.65401
1033.512, 23.43018
1033.995, 23.42865
1034.477, 23.89298
1034.959, 24.69031
1035.441, 24.98872
1035.923, 24.20449
1036.405, 23.50298
1036.887, 23.14331
1037.369, 22.94538
1037.851, 22.44693
1038.334, 21.78638
1038.816, 21.50030
1039.298, 21.77356
1039.780, 22.13626
1040.262, 22.40192
1040.744, 22.55947
1041.226, 22.55852
1041.708, 22.38512
1042.191, 22.47386
1042.673, 22.88712
1043.155, 23.02139
1043.637, 22.11316
1044.119, 21.12146
1044.601, 21.80798
1045.083, 23.41536
1045.565, 24.18566
1046.047, 22.40242
1046.530, 21.55377
1047.012, 22.32189
1047.494, 23.52271
1047.976, 23.77114
1048.458, 23.27913
1048.940, 23.04894
1049.422, 23.15254
1049.904, 23.32780
1050.386, 23.35432
1050.869, 23.45532
1051.351, 23.92615
1051.833, 24.60555
1052.315, 24.78069
1052.797, 24.38155
1053.279, 23.97260
1053.761, 23.64240
1054.243, 23.51910
1054.726, 23.94126
1055.208, 24.59535
1055.690, 25.04955
1056.172, 25.19248
1056.654, 25.16359
1057.136, 24.79400
1057.618, 24.60711
1058.100, 25.02957
1058.583, 25.86696
1059.065, 26.40237
1059.547, 26.65918
1060.029, 26.74582
1060.511, 26.57145
1060.993, 26.40358
1061.475, 26.28231
1061.957, 26.27359
1062.439, 26.46832
1062.922, 26.87410
1063.404, 27.53836
1063.886, 28.51806
1064.368, 29.20132
1064.850, 28.64823
1065.332, 27.81694
1065.814, 27.76432
1066.296, 28.48890
1066.778, 28.94812
1067.261, 28.96616
1067.743, 28.88977
1068.225, 28.73249
1068.707, 28.65289
1069.189, 29.06109
1069.671, 29.76191
1070.153, 30.27828
1070.635, 30.43200
1071.118, 30.61811
1071.600, 31.19026
1072.082, 31.63348
1072.564, 31.55087
1073.046, 31.01480
1073.528, 30.93359
1074.010, 31.28997
1074.492, 31.83259
1074.974, 32.56331
1075.457, 33.27517
1075.939, 33.88879
1076.421, 34.35096
1076.903, 34.55184
1077.385, 34.37250
1077.867, 34.26731
1078.349, 34.21961
1078.831, 34.40495
1079.313, 35.26701
1079.796, 36.31229
1080.278, 36.62490
1080.760, 36.30873
1081.242, 36.35297
1081.724, 37.40823
1082.206, 38.40892
1082.688, 39.08990
1083.170, 39.65991
1083.652, 40.62804
1084.135, 41.83009
1084.617, 42.47779
1085.099, 42.31817
1085.581, 42.43012
1086.063, 43.82017
1086.545, 45.33867
1087.027, 46.22271
1087.509, 46.54802
1087.992, 47.23077
1088.474, 48.27673
1088.956, 49.16838
1089.438, 49.55207
1089.920, 49.95005
1090.402, 51.09649
1090.884, 52.48896
1091.366, 53.36200
1091.849, 53.12286
1092.331, 53.84053
1092.813, 55.80162
1093.295, 57.74919
1093.777, 58.50054
1094.259, 58.73582
1094.741, 59.90902
1095.223, 61.73922
1095.705, 63.20163
1096.188, 63.36481
1096.670, 63.89147
1097.152, 65.25214
1097.634, 66.80277
1098.116, 67.70634
1098.598, 68.07837
1099.080, 68.40417
1099.562, 68.73312
1100.044, 69.10254
1100.527, 69.63065
1101.009, 70.10644
1101.491, 70.25874
1101.973, 70.29881
1102.455, 71.03246
1102.937, 72.47350
1103.419, 73.55977
1103.901, 73.98071
1104.384, 74.14764
1104.866, 74.39055
1105.348, 74.61485
1105.830, 74.66371
1106.312, 74.47334
1106.794, 74.66534
1107.276, 75.36922
1107.758, 75.93216
1108.240, 75.98042
1108.723, 75.81752
1109.205, 75.80743
1109.687, 75.98226
1110.169, 76.42111
1110.651, 77.48739
1111.133, 78.16534
1111.615, 78.26022
1112.097, 78.21012
1112.579, 78.29300
1113.062, 78.51151
1113.544, 78.86805
1114.026, 79.36880
1114.508, 80.03003
1114.990, 80.66530
1115.472, 81.73291
1115.954, 83.63443
1116.436, 85.79023
1116.919, 87.36436
1117.401, 88.43166
1117.883, 89.98393
1118.365, 92.11012
1118.847, 94.01488
1119.329, 94.66694
1119.811, 95.33976
1120.293, 96.95734
1120.776, 99.30626
1121.258, 101.5927
1121.740, 103.7877
1122.222, 106.2489
1122.704, 109.1248
1123.186, 111.9753
1123.668, 114.2287
1124.150, 116.3682
1124.632, 119.1229
1125.115, 121.1133
1125.597, 125.0216
1126.079, 125.6551
1126.561, 126.7810
1127.043, 129.4338
1127.525, 132.7170
1128.007, 135.3902
1128.489, 137.5741
1128.971, 139.4371
1129.454, 140.9708
1129.936, 142.3340
1130.418, 143.7416
1130.900, 144.6538
1131.382, 144.5028
1131.864, 143.7160
1132.346, 143.8698
1132.828, 144.5605
1133.311, 144.4568
1133.793, 142.6546
1134.275, 140.3794
1134.757, 137.8090
1135.239, 134.9793
1135.721, 131.8334
1136.203, 128.4301
1136.685, 125.2472
1137.167, 122.2103
1137.650, 118.5741
1138.132, 113.1612
1138.614, 107.8461
1139.096, 103.7146
1139.578, 100.1438
1140.060, 96.21597
1140.542, 91.89188
1141.024, 87.68990
1141.506, 83.65627
1141.989, 79.91161
1142.471, 76.45987
1142.953, 73.37487
1143.435, 70.89272
1143.917, 68.84864
1144.399, 66.27388
1144.881, 63.04806
1145.363, 60.25547
1145.846, 58.22413
1146.328, 56.50529
1146.810, 54.77341
1147.292, 53.03907
1147.774, 51.26050
1148.256, 49.43603
1148.738, 47.76892
1149.220, 46.25095
1149.703, 44.94039
1150.185, 43.90133
1150.667, 42.99669
1151.149, 42.06988
1151.631, 41.10748
1152.113, 40.04741
1152.595, 38.78178
1153.077, 37.80425
1153.559, 37.25096
1154.042, 36.72158
1154.524, 36.00913
1155.006, 35.17802
1155.488, 34.39605
1155.970, 33.60402
1156.452, 32.67339
1156.934, 31.29051
1157.416, 30.26563
1157.898, 29.71036
1158.381, 29.45368
1158.863, 29.57231
1159.345, 29.87442
1159.827, 29.44206
1160.309, 28.45591
1160.791, 27.65374
1161.273, 27.50876
1161.755, 27.42815
1162.238, 27.39679
1162.720, 27.21761
1163.202, 26.45074
1163.684, 25.27887
1164.166, 25.00676
1164.648, 25.60070
1165.130, 26.19962
1165.612, 26.50812
1166.094, 26.47629
1166.577, 25.84335
1167.059, 25.02698
1167.541, 24.77280
1168.023, 25.01363
1168.505, 24.81829
1168.987, 24.08703
1169.469, 23.50413
1169.951, 23.59509
1170.433, 23.93304
1170.916, 24.42716
1171.398, 24.93119
1171.880, 25.05948
1172.362, 24.81775
1172.844, 24.56857
1173.326, 24.38661
1173.808, 24.15802
1174.290, 23.58722
1174.773, 23.10328
1175.255, 23.21796
1175.737, 23.76291
1176.219, 23.79005
1176.701, 23.26907
1177.183, 22.89335
1177.665, 22.89383
1178.147, 22.93071
1178.630, 22.60437
1179.112, 22.20688
1179.594, 22.03759
1180.076, 22.11010
1180.558, 22.18197
1181.040, 22.25530
1181.522, 22.31631
1182.004, 22.36603
1182.486, 22.38795
1182.969, 22.21445
1183.451, 22.08490
1183.933, 22.39064
1184.415, 23.29832
1184.897, 23.67387
1185.379, 23.44010
1185.861, 23.18060
1186.343, 23.22396
1186.825, 23.35242
1187.308, 23.29918
1187.790, 23.15949
1188.272, 23.08957
1188.754, 23.15629
1189.236, 23.12721
1189.718, 22.96783
1190.200, 22.89340
1190.682, 23.15422
1191.165, 23.48694
1191.647, 23.50560
1192.129, 23.34790
1192.611, 23.30137
1193.093, 23.54660
1193.575, 23.55497
1194.057, 23.23053
1194.539, 23.03473
1195.021, 23.61611
1195.504, 24.34144
1195.986, 24.17681
1196.468, 23.42692
1196.950, 23.04301
1197.432, 23.52415
1197.914, 23.55903
1198.396, 22.96453
1198.878, 22.29604
1199.360, 22.06109
1199.843, 22.09697
1200.325, 22.30748
1200.807, 22.60184
1201.289, 22.63263
1201.771, 22.19366
1202.253, 21.83867
1202.735, 21.63987
1203.217, 21.50063
1203.700, 21.36844
1204.182, 21.19937
1204.664, 20.81457
1205.146, 20.28177
1205.628, 20.12591
1206.110, 20.78331
1206.592, 20.96315
1207.074, 20.37293
1207.557, 19.50644
1208.039, 18.81410
1208.521, 18.33588
1209.003, 18.22187
1209.485, 18.45117
1209.967, 18.51385
1210.449, 18.21671
1210.931, 18.12412
1211.413, 18.48562
1211.896, 18.73228
1212.378, 17.68002
1212.860, 16.24091
1213.342, 15.97845
1213.824, 17.05894
1214.306, 17.37531
1214.788, 16.24330
1215.270, 15.73518
1215.752, 16.61837
1216.235, 17.78838
1216.717, 17.57508
1217.199, 16.66992
1217.681, 16.01893
1218.163, 15.75835
1218.645, 15.73141
1219.127, 15.95924
1219.609, 16.28420
1220.092, 16.72304
1220.574, 17.09100
1221.056, 17.03259
1221.538, 16.76733
1222.020, 16.62512
1222.502, 16.68808
1222.984, 16.59886
1223.466, 16.27214
1223.948, 16.04095
1224.431, 16.04585
1224.913, 16.16514
1225.395, 16.37136
1225.877, 16.50488
1226.359, 16.27741
1226.841, 15.51276
1227.323, 15.12327
1227.805, 15.21287
1228.287, 15.27788
1228.770, 15.10730
1229.252, 14.80978
1229.734, 14.23507
1230.216, 13.77742
1230.698, 14.13501
1231.180, 15.69974
1231.662, 16.44476
1232.144, 16.28287
1232.627, 15.78881
1233.109, 14.97579
1233.591, 14.37744
1234.073, 14.94510
1234.555, 15.95735
1235.037, 16.43314
1235.519, 16.22698
1236.001, 15.76173
1236.484, 14.98344
1236.966, 14.46622
1237.448, 14.58391
1237.930, 14.96350
1238.412, 15.51603
1238.894, 15.95195
1239.376, 15.78677
1239.858, 14.92209
1240.340, 14.18534
1240.823, 13.57687
1241.305, 13.35112
1241.787, 13.92196
1242.269, 14.54189
1242.751, 14.45021
1243.233, 14.76732
1243.715, 14.81765
1244.197, 14.65000
1244.679, 14.67274
1245.162, 14.22576
1245.644, 13.88224
1246.126, 14.07741
1246.608, 14.30745
1247.090, 14.14497
1247.572, 13.89674
1248.054, 13.96081
1248.536, 14.35978
1249.019, 14.38206
1249.501, 14.06427
1249.983, 13.79854
1250.465, 13.88276
1250.947, 13.97355
1251.429, 13.75523
1251.911, 13.57644
1252.393, 13.82236
1252.875, 14.45940
1253.358, 14.91680
1253.840, 15.18484
1254.322, 15.22049
1254.804, 14.82042
1255.286, 14.41790
1255.768, 14.25432
1256.250, 14.04721
1256.732, 13.38043
1257.214, 12.42483
1257.697, 12.41280
1258.179, 13.14217
1258.661, 13.66466
1259.143, 13.32370
1259.625, 13.06249
1260.107, 13.08813
1260.589, 13.19451
1261.071, 13.17018
1261.554, 13.09551
1262.036, 13.23891
1262.518, 13.56166
1263.000, 13.92877
1263.482, 14.46308
1263.964, 14.75560
1264.446, 14.74714
1264.928, 14.57077
1265.411, 14.19219
1265.893, 13.80121
1266.375, 13.98037
1266.857, 14.44239
1267.339, 14.39326
1267.821, 13.06456
1268.303, 12.21726
1268.785, 11.88780
1269.267, 12.03628
1269.750, 13.14084
1270.232, 14.31184
1270.714, 14.23223
1271.196, 13.34199
1271.678, 12.66307
1272.160, 12.29027
1272.642, 12.14536
1273.124, 12.23919
1273.606, 12.46418
1274.089, 13.03968
1274.571, 13.42602
1275.053, 12.65855
1275.535, 11.56567
1276.017, 11.75642
1276.499, 13.62603
1276.981, 13.99794
1277.463, 12.83487
1277.946, 11.89154
1278.428, 12.81719
1278.910, 13.76473
1279.392, 13.24323
1279.874, 13.90823
1280.356, 12.52495
1280.838, 13.73773
1281.320, 13.87856
1281.802, 13.03431
1282.285, 12.24015
1282.767, 11.95790
1283.249, 11.96423
1283.731, 12.38331
1284.213, 12.83155
1284.695, 12.81891
1285.177, 12.53856
1285.659, 13.26067
1286.141, 14.64388
1286.624, 15.24901
1287.106, 13.43320
1287.588, 12.35408
1288.070, 12.59320
1288.552, 13.23486
1289.034, 13.60164
1289.516, 13.79305
1289.998, 14.03459
1290.481, 14.28917
1290.963, 14.46051
1291.445, 14.65383
1291.927, 14.42229
1292.409, 13.62750
1292.891, 12.94763
1293.373, 12.96730
1293.855, 13.29807
1294.338, 13.60618
1294.820, 13.81391
1295.302, 13.72227
1295.784, 13.20996
1296.266, 12.90669
1296.748, 12.81593
1297.230, 12.87535
1297.712, 13.20105
1298.194, 13.48189
1298.677, 13.44499
1299.159, 13.22833
1299.641, 12.95149
1300.123, 12.60243
1300.605, 12.79588
1301.087, 13.45357
1301.569, 13.66541
1302.051, 9.470856
1302.533, 10.23632
1303.016, 19.47165
##END=



