##NAMES=Alum-(Na)
##RRUFFID=R110204
##IDEAL CHEMISTRY=NaAl(S^6+^O_4_)_2_&#183;12H_2_O
##LOCALITY=Flux mine, near Patagonia, Arizona
##OWNER=RRUFF
##SOURCE=Gordon W Downs
##DESCRIPTION=Colorless ram's horn
##STATUS=The identification of this mineral has been confirmed only by single crystal X-ray diffraction.
##URL=rruff.info/R110204
103.6564, 176.2017
104.1385, 176.8086
104.6207, 177.8446
105.1028, 179.1806
105.5849, 180.3739
106.0670, 181.0901
106.5491, 181.7251
107.0313, 182.7609
107.5134, 184.2746
107.9955, 185.8479
108.4776, 187.0309
108.9597, 187.7405
109.4418, 188.3979
109.9240, 189.0497
110.4061, 189.7255
110.8882, 190.5161
111.3703, 191.4767
111.8524, 192.4335
112.3345, 192.8940
112.8167, 192.3765
113.2988, 191.9641
113.7809, 191.8910
114.2630, 191.9967
114.7451, 192.0963
115.2272, 192.0862
115.7094, 191.9581
116.1915, 191.5381
116.6736, 190.9806
117.1557, 190.0388
117.6378, 188.4700
118.1199, 186.3848
118.6021, 184.1408
119.0842, 182.0105
119.5663, 180.0105
120.0484, 178.1032
120.5305, 176.4631
121.0126, 174.7984
121.4948, 172.7530
121.9769, 170.2366
122.4590, 167.7468
122.9411, 166.0667
123.4232, 164.9424
123.9053, 163.4605
124.3875, 160.9295
124.8696, 157.7836
125.3517, 155.2835
125.8338, 153.8261
126.3159, 152.7249
126.7980, 151.4442
127.2802, 150.0218
127.7623, 148.6636
128.2444, 147.5390
128.7265, 146.6712
129.2086, 145.8446
129.6907, 144.8864
130.1729, 144.0871
130.6550, 143.7062
131.1371, 143.7227
131.6192, 143.8264
132.1013, 143.5457
132.5834, 142.5075
133.0656, 141.8253
133.5477, 141.5497
134.0298, 141.5430
134.5119, 141.8119
134.9940, 142.3323
135.4761, 142.9199
135.9583, 143.1440
136.4404, 142.4881
136.9225, 142.0962
137.4046, 142.0742
137.8867, 142.3405
138.3688, 142.8169
138.8510, 143.4942
139.3331, 144.3070
139.8152, 145.0409
140.2973, 145.7169
140.7794, 146.3146
141.2615, 146.8421
141.7437, 147.2891
142.2258, 147.6015
142.7079, 147.6533
143.1900, 147.5962
143.6721, 147.7438
144.1542, 148.1663
144.6364, 148.7281
145.1185, 149.3790
145.6006, 150.1634
146.0827, 150.7633
146.5648, 150.8532
147.0469, 150.7209
147.5291, 150.6202
148.0112, 150.6007
148.4933, 150.7056
148.9754, 151.1080
149.4575, 152.1732
149.9396, 152.8833
150.4218, 152.9420
150.9039, 152.5199
151.3860, 151.8091
151.8681, 150.8840
152.3502, 149.7699
152.8323, 148.7405
153.3145, 147.6540
153.7966, 146.8154
154.2787, 146.5761
154.7608, 146.6398
155.2429, 146.4410
155.7250, 145.5062
156.2072, 143.7776
156.6893, 142.1631
157.1714, 140.6583
157.6535, 139.2353
158.1356, 137.9702
158.6177, 136.8081
159.0999, 135.5289
159.5820, 133.8786
160.0641, 131.7565
160.5462, 130.0538
161.0283, 128.9620
161.5104, 128.1389
161.9926, 127.4702
162.4747, 126.9314
162.9568, 126.2227
163.4389, 124.9328
163.9210, 123.0913
164.4031, 121.3307
164.8853, 119.6391
165.3674, 118.1235
165.8495, 117.0230
166.3316, 116.4481
166.8137, 116.0699
167.2958, 115.6347
167.7780, 115.1460
168.2601, 114.5851
168.7422, 113.9323
169.2243, 113.1971
169.7064, 112.3788
170.1885, 111.2242
170.6707, 110.3487
171.1528, 110.2004
171.6349, 110.6671
172.1170, 111.2639
172.5991, 111.6399
173.0812, 111.7871
173.5634, 111.8872
174.0455, 111.8029
174.5276, 111.7926
175.0097, 111.9612
175.4918, 112.3116
175.9739, 112.7942
176.4561, 113.3867
176.9382, 114.1604
177.4203, 114.8108
177.9024, 115.0537
178.3845, 115.4021
178.8666, 116.1835
179.3488, 117.4034
179.8309, 118.8186
180.3130, 120.0856
180.7951, 121.1133
181.2772, 122.1846
181.7593, 123.4052
182.2415, 124.5948
182.7236, 125.6657
183.2057, 126.5826
183.6878, 127.2818
184.1699, 127.6370
184.6520, 127.3357
185.1342, 127.3113
185.6163, 127.8168
186.0984, 128.5067
186.5805, 129.0780
187.0626, 129.4521
187.5447, 129.5763
188.0269, 129.2793
188.5090, 128.4926
188.9911, 127.6766
189.4732, 126.9163
189.9553, 126.1931
190.4374, 125.5261
190.9196, 124.9693
191.4017, 124.3373
191.8838, 123.3250
192.3659, 121.9363
192.8480, 120.4604
193.3301, 119.0219
193.8123, 117.6014
194.2944, 116.1299
194.7765, 114.6312
195.2586, 113.0118
195.7407, 111.1279
196.2228, 108.9780
196.7050, 106.9097
197.1871, 105.2874
197.6692, 104.0830
198.1513, 102.6482
198.6334, 100.6913
199.1155, 98.59191
199.5977, 96.50672
200.0798, 94.46725
200.5619, 92.64214
201.0440, 91.28427
201.5261, 90.47818
202.0082, 89.52458
202.4904, 88.15687
202.9725, 86.74138
203.4546, 85.36713
203.9367, 84.08257
204.4188, 82.99222
204.9009, 82.35609
205.3831, 82.49915
205.8652, 82.07751
206.3473, 80.51497
206.8294, 78.82684
207.3115, 77.58868
207.7936, 76.89564
208.2758, 76.47328
208.7579, 75.92517
209.2400, 75.03713
209.7221, 74.52577
210.2042, 74.54345
210.6863, 74.75772
211.1685, 74.99411
211.6506, 75.19636
212.1327, 75.35742
212.6148, 75.46474
213.0969, 75.48251
213.5790, 75.51508
214.0612, 75.59641
214.5433, 75.67075
215.0254, 75.66371
215.5075, 75.56644
215.9896, 75.48044
216.4717, 75.57287
216.9539, 76.02074
217.4360, 76.19527
217.9181, 75.88813
218.4002, 75.40234
218.8823, 75.05766
219.3644, 74.93327
219.8466, 74.83058
220.3287, 74.44424
220.8108, 73.70327
221.2929, 73.08305
221.7750, 72.77501
222.2571, 72.57222
222.7393, 72.20016
223.2214, 71.58828
223.7035, 70.89513
224.1856, 70.31204
224.6677, 69.83024
225.1498, 69.36934
225.6320, 68.99107
226.1141, 68.60179
226.5962, 68.01104
227.0783, 67.13409
227.5604, 66.21161
228.0425, 65.46661
228.5247, 64.87222
229.0068, 64.34508
229.4889, 63.92135
229.9710, 63.54217
230.4531, 63.05146
230.9352, 62.38166
231.4174, 61.71554
231.8995, 61.15794
232.3816, 60.70497
232.8637, 60.37048
233.3458, 60.26582
233.8279, 60.29516
234.3101, 60.14289
234.7922, 59.77111
235.2743, 59.25311
235.7564, 58.57236
236.2385, 57.79975
236.7206, 57.07463
237.2028, 56.49851
237.6849, 56.03785
238.1670, 55.54253
238.6491, 55.01939
239.1312, 54.44418
239.6133, 53.78080
240.0955, 53.06886
240.5776, 52.36261
241.0597, 51.69245
241.5418, 51.05606
242.0239, 50.45630
242.5060, 49.88519
242.9882, 49.36662
243.4703, 48.93285
243.9524, 48.54313
244.4345, 48.13552
244.9166, 47.67117
245.3987, 47.16555
245.8809, 46.71569
246.3630, 46.52882
246.8451, 46.10989
247.3272, 45.18811
247.8093, 44.03735
248.2914, 43.02500
248.7736, 42.35730
249.2557, 41.93695
249.7378, 41.37302
250.2199, 40.48979
250.7020, 39.67099
251.1841, 38.94439
251.6663, 38.31784
252.1484, 37.83105
252.6305, 37.50308
253.1126, 37.27079
253.5947, 36.92391
254.0768, 36.31372
254.5590, 35.76574
255.0411, 35.30121
255.5232, 34.90674
256.0053, 34.57728
256.4874, 34.31150
256.9695, 34.07991
257.4517, 33.81247
257.9338, 33.59949
258.4159, 33.22262
258.8980, 32.34311
259.3801, 31.44334
259.8622, 31.14052
260.3444, 31.63416
260.8265, 32.45421
261.3086, 32.71376
261.7907, 31.98886
262.2728, 31.31646
262.7549, 30.70072
263.2371, 30.14421
263.7192, 29.57572
264.2013, 28.98578
264.6834, 28.59449
265.1655, 28.80834
265.6476, 30.15162
266.1298, 30.77250
266.6119, 30.06144
267.0940, 28.93257
267.5761, 28.22379
268.0582, 28.09691
268.5403, 28.21540
269.0225, 28.22166
269.5046, 28.10354
269.9867, 27.85577
270.4688, 27.27691
270.9509, 26.69383
271.4330, 26.40312
271.9152, 26.43460
272.3973, 26.61602
272.8794, 26.85877
273.3615, 27.15940
273.8436, 27.14480
274.3257, 26.45008
274.8079, 25.69087
275.2900, 25.40659
275.7721, 25.60123
276.2542, 25.87286
276.7363, 25.97618
277.2184, 25.88247
277.7006, 25.61142
278.1827, 24.85376
278.6648, 24.16628
279.1469, 24.00503
279.6290, 24.32248
280.1111, 24.71197
280.5933, 24.97988
281.0754, 25.11632
281.5575, 25.15050
282.0396, 25.00976
282.5217, 24.85675
283.0038, 24.80896
283.4860, 24.84457
283.9681, 24.84670
284.4502, 24.75564
284.9323, 24.60275
285.4144, 24.45760
285.8965, 24.31483
286.3787, 24.19121
286.8608, 24.10944
287.3429, 24.05788
287.8250, 23.98269
288.3071, 23.83867
288.7892, 23.70436
289.2714, 23.69257
289.7535, 23.80865
290.2356, 23.96433
290.7177, 24.16177
291.1998, 24.36934
291.6819, 24.50107
292.1641, 24.52639
292.6462, 24.49199
293.1283, 24.46374
293.6104, 24.43828
294.0925, 24.34177
294.5746, 23.98783
295.0568, 23.56927
295.5389, 23.54766
296.0210, 24.09992
296.5031, 24.67888
296.9852, 24.71462
297.4673, 24.38543
297.9495, 24.15954
298.4316, 24.24482
298.9137, 24.49796
299.3958, 24.69212
299.8779, 24.79772
300.3600, 24.96700
300.8422, 25.41641
301.3243, 25.98278
301.8064, 26.36762
302.2885, 26.42394
302.7706, 26.35661
303.2527, 26.38754
303.7349, 26.52125
304.2170, 26.69485
304.6991, 26.92686
305.1812, 27.15806
305.6633, 27.30326
306.1454, 27.33161
306.6276, 27.32245
307.1097, 27.30216
307.5918, 27.27712
308.0739, 27.37156
308.5560, 27.67805
309.0381, 28.08367
309.5203, 28.49020
310.0024, 28.90772
310.4845, 29.21081
310.9666, 29.24733
311.4487, 29.07284
311.9308, 28.95859
312.4130, 28.96188
312.8951, 29.03559
313.3772, 29.12566
313.8593, 29.23501
314.3414, 29.39072
314.8235, 29.69649
315.3057, 30.05553
315.7878, 30.18373
316.2699, 29.96986
316.7520, 29.73507
317.2341, 29.77491
317.7162, 29.97489
318.1984, 30.08330
318.6805, 29.90239
319.1626, 29.62784
319.6447, 29.59844
320.1268, 29.86166
320.6089, 30.13266
321.0911, 30.27485
321.5732, 30.31711
322.0553, 30.27138
322.5374, 30.08420
323.0195, 29.90133
323.5016, 29.91773
323.9838, 30.13563
324.4659, 30.27877
324.9480, 30.20607
325.4301, 30.02512
325.9122, 29.84374
326.3943, 29.64755
326.8765, 29.54976
327.3586, 29.76984
327.8407, 30.21651
328.3228, 30.33764
328.8049, 29.84970
329.2870, 29.21252
329.7692, 28.91398
330.2513, 28.92571
330.7334, 28.95487
331.2155, 28.92270
331.6976, 28.80225
332.1797, 28.46653
332.6619, 27.80218
333.1440, 27.20514
333.6261, 27.13384
334.1082, 27.39120
334.5903, 27.51830
335.0724, 27.22213
335.5546, 26.80044
336.0367, 26.71111
336.5188, 26.99757
337.0009, 27.16879
337.4830, 26.87147
337.9651, 26.28589
338.4473, 25.74775
338.9294, 25.26270
339.4115, 24.87821
339.8936, 24.72561
340.3757, 24.76092
340.8578, 24.62613
341.3400, 24.05768
341.8221, 23.39211
342.3042, 23.17035
342.7863, 23.46609
343.2684, 23.75111
343.7505, 23.73191
344.2327, 23.51243
344.7148, 23.34091
345.1969, 23.27449
345.6790, 23.25166
346.1611, 23.24860
346.6432, 23.25724
347.1254, 23.14665
347.6075, 22.74488
348.0896, 22.27261
348.5717, 22.04636
349.0538, 22.10009
349.5359, 22.15185
350.0181, 21.93492
350.5002, 21.53857
350.9823, 21.36426
351.4644, 21.68143
351.9465, 22.01490
352.4286, 21.99368
352.9108, 21.68693
353.3929, 21.44019
353.8750, 21.45473
354.3571, 21.59724
354.8392, 21.52841
355.3214, 21.18082
355.8035, 20.81420
356.2856, 20.45676
356.7677, 20.15469
357.2498, 20.00624
357.7319, 20.04897
358.2141, 20.20106
358.6962, 20.40232
359.1783, 20.69581
359.6604, 20.76740
360.1425, 20.43828
360.6246, 19.96019
361.1068, 19.48954
361.5889, 19.06240
362.0710, 18.82764
362.5531, 18.97026
363.0352, 19.47955
363.5173, 19.70987
363.9995, 19.40936
364.4816, 19.10868
364.9637, 19.11004
365.4458, 19.31690
365.9279, 19.43794
366.4100, 19.30045
366.8922, 19.02500
367.3743, 19.01770
367.8564, 19.60392
368.3385, 19.97996
368.8206, 19.93546
369.3027, 19.67415
369.7849, 19.36412
370.2670, 19.06652
370.7491, 18.88230
371.2312, 18.98655
371.7133, 19.56864
372.1954, 19.84455
372.6776, 19.53831
373.1597, 19.18130
373.6418, 19.13319
374.1239, 19.35978
374.6060, 19.57611
375.0881, 19.53874
375.5703, 19.26087
376.0524, 19.20147
376.5345, 19.59245
377.0166, 19.93073
377.4987, 20.05494
377.9808, 20.06980
378.4630, 20.17228
378.9451, 20.45465
379.4272, 20.77652
379.9093, 20.78243
380.3914, 20.15266
380.8735, 19.73735
381.3557, 19.68307
381.8378, 19.74718
382.3199, 19.77633
382.8020, 19.73517
383.2841, 19.64341
383.7662, 19.47846
384.2484, 19.18680
384.7305, 19.19672
385.2126, 19.90647
385.6947, 20.54442
386.1768, 20.88544
386.6589, 20.96527
387.1411, 20.86860
387.6232, 20.60612
388.1053, 20.26661
388.5874, 20.19454
389.0695, 20.56590
389.5516, 20.87684
390.0338, 20.97317
390.5159, 20.98783
390.9980, 21.01852
391.4801, 21.09442
391.9622, 21.23590
392.4443, 21.55480
392.9265, 22.10030
393.4086, 22.33191
393.8907, 21.84314
394.3728, 21.33879
394.8549, 21.25775
395.3370, 21.53082
395.8192, 21.82825
396.3013, 21.93048
396.7834, 21.89678
397.2655, 21.89681
397.7476, 21.89145
398.2297, 22.02296
398.7119, 22.57836
399.1940, 23.25138
399.6761, 23.60784
400.1582, 23.44615
400.6403, 23.14889
401.1224, 23.11517
401.6046, 23.32845
402.0867, 23.50422
402.5688, 23.51455
403.0509, 23.50269
403.5330, 23.63342
404.0151, 23.90623
404.4973, 24.23591
404.9794, 24.69669
405.4615, 25.15909
405.9436, 25.35898
406.4257, 25.24147
406.9078, 25.05249
407.3900, 24.95257
407.8721, 24.94760
408.3542, 25.03503
408.8363, 25.36877
409.3184, 25.65723
409.8005, 25.57867
410.2827, 25.26652
410.7648, 25.20663
411.2469, 25.64707
411.7290, 26.39027
412.2111, 27.00531
412.6932, 27.47343
413.1754, 27.88641
413.6575, 28.26515
414.1396, 28.59249
414.6217, 28.77620
415.1038, 28.82692
415.5859, 29.00487
416.0681, 29.64481
416.5502, 30.83847
417.0323, 31.39536
417.5144, 30.54559
417.9965, 29.96563
418.4786, 30.59975
418.9608, 31.97249
419.4429, 33.06484
419.9250, 33.33418
420.4071, 33.14925
420.8892, 33.54319
421.3713, 34.99448
421.8535, 36.32955
422.3356, 37.69707
422.8177, 38.82591
423.2998, 39.36237
423.7819, 39.35303
424.2640, 39.24592
424.7462, 39.45309
425.2283, 39.96978
425.7104, 40.89373
426.1925, 42.67476
426.6746, 44.39525
427.1567, 45.79432
427.6389, 46.96315
428.1210, 48.02998
428.6031, 49.04181
429.0852, 50.04803
429.5673, 51.09227
430.0494, 52.10119
430.5316, 53.41431
431.0137, 55.33540
431.4958, 57.44036
431.9779, 59.55861
432.4600, 61.64660
432.9421, 63.54931
433.4243, 65.03706
433.9064, 66.21685
434.3885, 67.56880
434.8706, 69.15793
435.3527, 70.83301
435.8348, 72.68237
436.3170, 74.52920
436.7991, 76.03426
437.2812, 76.90596
437.7633, 77.69504
438.2454, 78.98703
438.7275, 80.70704
439.2097, 82.29992
439.6918, 83.55692
440.1739, 84.62004
440.6560, 85.70889
441.1381, 86.84712
441.6202, 87.84853
442.1024, 88.45628
442.5845, 89.01041
443.0666, 90.05506
443.5487, 91.58926
444.0308, 92.86864
444.5129, 93.23742
444.9951, 92.82381
445.4772, 92.90695
445.9593, 93.69382
446.4414, 94.65150
446.9235, 95.86495
447.4056, 97.07844
447.8878, 97.84397
448.3699, 98.01840
448.8520, 97.96867
449.3341, 98.26954
449.8162, 99.10442
450.2983, 99.77447
450.7805, 100.2558
451.2626, 100.6213
451.7447, 100.9541
452.2268, 101.2073
452.7089, 101.2555
453.1910, 101.0069
453.6732, 100.5048
454.1553, 99.91080
454.6374, 99.08971
455.1195, 98.41237
455.6016, 98.18797
456.0837, 97.95535
456.5659, 97.23663
457.0480, 95.97906
457.5301, 94.66356
458.0122, 93.88241
458.4943, 93.61648
458.9764, 92.99824
459.4586, 91.83493
459.9407, 90.55561
460.4228, 89.43961
460.9049, 88.37166
461.3870, 87.13234
461.8691, 85.60236
462.3513, 83.94362
462.8334, 82.25728
463.3155, 80.55555
463.7976, 79.19441
464.2797, 78.44048
464.7618, 77.89462
465.2440, 77.08993
465.7261, 76.03408
466.2082, 74.79166
466.6903, 73.23896
467.1724, 71.58463
467.6545, 70.04711
468.1367, 68.65377
468.6188, 67.41926
469.1009, 66.41915
469.5830, 65.58092
470.0651, 64.50367
470.5472, 62.78427
471.0294, 61.37444
471.5115, 60.81631
471.9936, 60.57662
472.4757, 59.90975
472.9578, 58.65041
473.4399, 57.27776
473.9221, 56.39145
474.4042, 56.11690
474.8863, 55.60248
475.3684, 54.75490
475.8505, 53.79379
476.3326, 52.64140
476.8148, 51.46460
477.2969, 50.58057
477.7790, 50.15999
478.2611, 49.92210
478.7432, 49.23975
479.2253, 47.91829
479.7075, 46.71235
480.1896, 45.73760
480.6717, 44.87737
481.1538, 44.08733
481.6359, 43.36196
482.1180, 42.69421
482.6002, 42.01640
483.0823, 41.41348
483.5644, 41.22187
484.0465, 41.60842
484.5286, 41.78865
485.0107, 41.18972
485.4929, 40.31126
485.9750, 39.75594
486.4571, 39.63615
486.9392, 39.58178
487.4213, 39.45013
487.9034, 39.21105
488.3856, 38.73948
488.8677, 37.98131
489.3498, 37.23732
489.8319, 36.76926
490.3140, 36.57071
490.7961, 36.38204
491.2783, 36.16346
491.7604, 35.99484
492.2425, 35.94616
492.7246, 35.96617
493.2067, 35.93770
493.6888, 35.81943
494.1710, 35.71731
494.6531, 35.82235
495.1352, 36.28926
495.6173, 36.46125
496.0994, 36.26184
496.5815, 35.88931
497.0637, 35.25956
497.5458, 34.54540
498.0279, 34.07798
498.5100, 34.05453
498.9921, 34.33324
499.4742, 34.60715
499.9564, 34.99770
500.4385, 35.06226
500.9206, 34.29774
501.4027, 33.53935
501.8848, 33.33419
502.3669, 33.65490
502.8491, 34.10720
503.3312, 34.51152
503.8133, 34.83110
504.2954, 34.95785
504.7775, 34.88023
505.2596, 34.65016
505.7418, 34.11528
506.2239, 33.54072
506.7060, 33.33857
507.1881, 33.62123
507.6702, 33.89079
508.1523, 33.82116
508.6345, 33.60217
509.1166, 33.58717
509.5987, 33.82917
510.0808, 34.06217
510.5629, 34.05426
511.0450, 33.83069
511.5272, 33.70601
512.0093, 33.64318
512.4914, 33.70634
512.9735, 34.00865
513.4556, 34.40874
513.9377, 34.75862
514.4199, 35.00490
514.9020, 35.12528
515.3841, 35.08203
515.8662, 34.86217
516.3483, 34.57067
516.8304, 33.87695
517.3126, 33.47106
517.7947, 33.80294
518.2768, 34.47103
518.7589, 34.85912
519.2410, 34.71244
519.7231, 34.38421
520.2053, 34.40752
520.6874, 34.81252
521.1695, 35.12071
521.6516, 35.20053
522.1337, 35.25918
522.6158, 35.45515
523.0980, 35.74489
523.5801, 36.00543
524.0622, 36.19956
524.5443, 36.33927
525.0264, 36.42174
525.5085, 36.45459
525.9907, 36.47159
526.4728, 36.47475
526.9549, 36.48971
527.4370, 36.55769
527.9191, 36.68457
528.4012, 36.82708
528.8834, 36.98065
529.3655, 37.14918
529.8476, 37.39044
530.3297, 37.65334
530.8118, 37.73799
531.2939, 37.51191
531.7761, 37.20376
532.2582, 37.45070
532.7403, 38.90242
533.2224, 39.69628
533.7045, 39.38126
534.1866, 38.85709
534.6688, 38.54602
535.1509, 38.49787
535.6330, 38.68095
536.1151, 39.15827
536.5972, 39.74258
537.0793, 39.89701
537.5615, 39.52394
538.0436, 39.11713
538.5257, 38.74357
539.0078, 38.45617
539.4899, 38.35774
539.9720, 38.43467
540.4542, 38.43126
540.9363, 38.10858
541.4184, 37.69005
541.9005, 37.54061
542.3826, 37.65701
542.8647, 37.72731
543.3469, 37.58435
543.8290, 37.29610
544.3111, 37.03935
544.7932, 36.87196
545.2753, 36.60158
545.7574, 35.99601
546.2396, 35.42073
546.7217, 35.31840
547.2038, 35.59533
547.6859, 35.73577
548.1680, 35.36261
548.6501, 34.59225
549.1323, 33.93152
549.6144, 33.38213
550.0965, 32.95565
550.5786, 32.68220
551.0607, 32.48817
551.5428, 32.36378
552.0250, 32.28107
552.5071, 32.15091
552.9892, 31.86844
553.4713, 31.50346
553.9534, 31.30192
554.4355, 31.32338
554.9177, 31.18492
555.3998, 30.51617
555.8819, 29.77206
556.3640, 29.61165
556.8461, 30.12123
557.3282, 30.57612
557.8104, 30.65206
558.2925, 30.55200
558.7746, 30.53968
559.2567, 30.60984
559.7388, 30.55300
560.2209, 30.21707
560.7031, 29.70429
561.1852, 29.33911
561.6673, 29.10093
562.1494, 29.05331
562.6315, 29.29964
563.1136, 29.65682
563.5958, 30.05061
564.0779, 30.43863
564.5600, 30.75541
565.0421, 30.96174
565.5242, 31.05365
566.0063, 30.96814
566.4885, 30.57760
566.9706, 30.38381
567.4527, 30.71080
567.9348, 31.12490
568.4169, 31.35449
568.8990, 31.39108
569.3812, 31.33627
569.8633, 31.07740
570.3454, 30.84407
570.8275, 31.06926
571.3096, 31.71812
571.7917, 32.24316
572.2739, 32.37571
572.7560, 32.33209
573.2381, 32.49617
573.7202, 32.90022
574.2023, 33.36838
574.6844, 34.04751
575.1666, 34.64720
575.6487, 34.90767
576.1308, 34.92104
576.6129, 34.96477
577.0950, 35.18794
577.5771, 35.47509
578.0593, 35.51980
578.5414, 35.10004
579.0235, 35.04673
579.5056, 35.70854
579.9877, 36.46296
580.4698, 37.10349
580.9520, 37.61423
581.4341, 37.99944
581.9162, 38.21692
582.3983, 38.40176
582.8804, 38.79115
583.3625, 39.35491
583.8447, 39.72387
584.3268, 39.74443
584.8089, 39.70079
585.2910, 39.83101
585.7731, 40.13840
586.2552, 40.67363
586.7374, 41.98452
587.2195, 42.95677
587.7016, 42.61459
588.1837, 41.64056
588.6658, 41.23029
589.1479, 41.73913
589.6301, 42.70955
590.1122, 43.64147
590.5943, 44.56168
591.0764, 45.16419
591.5585, 44.97031
592.0406, 45.01996
592.5228, 45.79084
593.0049, 46.82517
593.4870, 47.53756
593.9691, 47.78795
594.4512, 47.98398
594.9333, 48.55114
595.4155, 49.40083
595.8976, 50.14374
596.3797, 50.74891
596.8618, 51.28360
597.3439, 51.74253
597.8260, 52.17102
598.3082, 52.65804
598.7903, 53.17155
599.2724, 53.82299
599.7545, 54.70482
600.2366, 55.70781
600.7188, 56.71040
601.2009, 57.70966
601.6830, 58.78059
602.1651, 59.99396
602.6472, 61.28351
603.1293, 62.38681
603.6115, 63.10791
604.0936, 64.00768
604.5757, 65.18691
605.0578, 66.47413
605.5399, 67.85767
606.0220, 69.26156
606.5042, 70.51089
606.9863, 71.43803
607.4684, 72.25223
607.9505, 73.22934
608.4326, 74.37547
608.9147, 75.88550
609.3969, 77.96135
609.8790, 80.14232
610.3611, 81.98309
610.8432, 83.50357
611.3253, 84.72100
611.8074, 85.51660
612.2896, 86.13553
612.7717, 86.54971
613.2538, 86.91873
613.7359, 87.58861
614.2180, 88.63425
614.7001, 89.67352
615.1823, 90.29128
615.6644, 90.48723
616.1465, 90.24187
616.6286, 89.19893
617.1107, 88.19441
617.5928, 87.46719
618.0750, 86.86935
618.5571, 86.26456
619.0392, 85.62521
619.5213, 84.95972
620.0034, 84.43118
620.4855, 83.84576
620.9677, 82.57426
621.4498, 80.56490
621.9319, 78.85458
622.4140, 78.03616
622.8961, 77.73947
623.3782, 77.17653
623.8604, 76.25056
624.3425, 75.40459
624.8246, 74.80654
625.3067, 74.20386
625.7888, 73.36804
626.2709, 72.38872
626.7531, 71.55826
627.2352, 71.03262
627.7173, 70.50224
628.1994, 69.31030
628.6815, 67.27207
629.1636, 65.58453
629.6458, 64.48961
630.1279, 63.54045
630.6100, 62.58438
631.0921, 61.58400
631.5742, 60.46511
632.0563, 59.17876
632.5385, 57.86381
633.0206, 56.57944
633.5027, 55.35015
633.9848, 54.25393
634.4669, 53.29816
634.9490, 52.32035
635.4312, 51.19554
635.9133, 49.95227
636.3954, 48.70827
636.8775, 47.35894
637.3596, 46.16689
637.8417, 45.19484
638.3239, 44.34395
638.8060, 43.63554
639.2881, 42.99087
639.7702, 42.20073
640.2523, 41.09511
640.7344, 39.89063
641.2166, 39.06334
641.6987, 38.63024
642.1808, 38.10276
642.6629, 37.33503
643.1450, 36.52702
643.6271, 35.89039
644.1093, 35.36789
644.5914, 34.75692
645.0735, 33.88988
645.5556, 33.09350
646.0377, 32.57753
646.5198, 32.20145
647.0020, 31.78149
647.4841, 31.27942
647.9662, 30.72226
648.4483, 30.11180
648.9304, 29.48078
649.4125, 29.05583
649.8947, 28.98364
650.3768, 28.84802
650.8589, 28.57545
651.3410, 28.22107
651.8231, 27.81190
652.3052, 27.35312
652.7874, 26.84418
653.2695, 26.22965
653.7516, 25.61737
654.2337, 25.12662
654.7158, 24.75455
655.1979, 24.51079
655.6801, 24.41307
656.1622, 24.36218
656.6443, 24.27313
657.1264, 24.15275
657.6085, 23.85336
658.0906, 23.08110
658.5728, 22.52272
659.0549, 22.45274
659.5370, 22.60511
660.0191, 22.74952
660.5012, 22.82221
660.9833, 22.81339
661.4655, 22.70486
661.9476, 22.51488
662.4297, 22.27006
662.9118, 21.94998
663.3939, 21.75293
663.8760, 21.81824
664.3582, 21.93920
664.8403, 21.81003
665.3224, 21.45741
665.8045, 21.28173
666.2866, 21.62599
666.7687, 21.87020
667.2509, 21.55520
667.7330, 20.94642
668.2151, 20.48002
668.6972, 20.27042
669.1793, 20.15720
669.6614, 19.95763
670.1436, 19.68939
670.6257, 19.62686
671.1078, 19.91927
671.5899, 20.10818
672.0720, 20.02175
672.5541, 19.81280
673.0363, 19.52078
673.5184, 19.17769
674.0005, 18.99401
674.4826, 19.25984
674.9647, 19.56321
675.4468, 19.36702
675.9290, 18.86016
676.4111, 18.68311
676.8932, 19.04125
677.3753, 19.49531
677.8574, 19.52283
678.3395, 19.10594
678.8217, 18.72605
679.3038, 18.32074
679.7859, 18.03951
680.2680, 17.99883
680.7501, 18.03247
681.2322, 17.96160
681.7144, 17.79131
682.1965, 17.70295
682.6786, 17.90336
683.1607, 18.19643
683.6428, 18.21713
684.1249, 18.00108
684.6071, 17.85518
685.0892, 17.87596
685.5713, 17.98439
686.0534, 18.11386
686.5355, 18.26973
687.0176, 18.32393
687.4998, 18.18951
687.9819, 18.07245
688.4640, 18.13272
688.9461, 18.16749
689.4282, 17.88444
689.9103, 17.31430
690.3925, 16.82649
690.8746, 16.73026
691.3567, 16.88343
691.8388, 16.94414
692.3209, 16.90674
692.8030, 16.93436
693.2852, 17.10103
693.7673, 17.28924
694.2494, 17.39869
694.7315, 17.42639
695.2136, 17.36001
695.6957, 17.16756
696.1779, 16.91902
696.6600, 16.49226
697.1421, 16.10748
697.6242, 16.07022
698.1063, 16.36733
698.5884, 16.71624
699.0706, 16.93424
699.5527, 16.99469
700.0348, 16.73494
700.5169, 16.06771
700.9990, 15.65996
701.4811, 15.74503
701.9633, 15.97537
702.4454, 16.09296
702.9275, 16.11791
703.4096, 16.10835
703.8917, 16.03834
704.3738, 15.98094
704.8560, 15.91801
705.3381, 15.91138
705.8202, 16.13066
706.3023, 16.51764
706.7844, 16.74134
707.2665, 16.56167
707.7487, 16.11161
708.2308, 15.73843
708.7129, 15.44275
709.1950, 15.21948
709.6771, 15.05408
710.1592, 14.98279
710.6414, 15.10308
711.1235, 15.31888
711.6056, 15.41575
712.0877, 15.30781
712.5698, 15.19885
713.0519, 15.24578
713.5341, 15.31028
714.0162, 15.19301
714.4983, 14.91926
714.9804, 14.65658
715.4625, 14.49342
715.9446, 14.44357
716.4268, 14.60097
716.9089, 15.09126
717.3910, 15.20390
717.8731, 14.61404
718.3552, 14.06275
718.8373, 13.92872
719.3195, 14.02906
719.8016, 14.11066
720.2837, 14.13137
720.7658, 14.16979
721.2479, 14.32585
721.7300, 14.47429
722.2122, 14.49396
722.6943, 14.38274
723.1764, 14.11497
723.6585, 13.67519
724.1406, 13.27400
724.6227, 13.28794
725.1049, 13.79118
725.5870, 13.98417
726.0691, 13.63516
726.5512, 13.34970
727.0333, 13.39662
727.5154, 13.56478
727.9976, 13.68134
728.4797, 13.72663
728.9618, 13.66372
729.4439, 13.31784
729.9260, 12.99366
730.4081, 13.03699
730.8903, 13.31412
731.3724, 13.51668
731.8545, 13.55049
732.3366, 13.44254
732.8187, 13.18023
733.3008, 12.79614
733.7830, 12.70032
734.2651, 13.05255
734.7472, 13.34845
735.2293, 13.49160
735.7114, 13.52675
736.1935, 13.43339
736.6757, 13.24597
737.1578, 13.10759
737.6399, 13.12932
738.1220, 13.12402
738.6041, 12.90242
739.0862, 12.59853
739.5684, 12.40326
740.0505, 12.35482
740.5326, 12.45969
741.0147, 12.74488
741.4968, 13.12460
741.9789, 13.32304
742.4611, 13.27751
742.9432, 13.28735
743.4253, 13.46999
743.9074, 13.59671
744.3895, 13.48094
744.8716, 13.23825
745.3538, 13.07558
745.8359, 13.02515
746.3180, 13.05440
746.8001, 13.22621
747.2822, 13.41420
747.7643, 13.50626
748.2465, 13.49519
748.7286, 13.37770
749.2107, 13.15220
749.6928, 12.90770
750.1749, 12.77469
750.6570, 12.75631
751.1392, 12.79232
751.6213, 12.91190
752.1034, 13.01975
752.5855, 13.08384
753.0676, 13.11238
753.5497, 13.13451
754.0319, 13.15260
754.5140, 13.07080
754.9961, 12.72190
755.4782, 12.41718
755.9603, 12.32892
756.4424, 12.41521
756.9246, 12.69495
757.4067, 13.11541
757.8888, 13.39415
758.3709, 13.26136
758.8530, 12.83383
759.3351, 12.46788
759.8173, 12.14984
760.2994, 12.02908
760.7815, 12.19980
761.2636, 12.46856
761.7457, 12.72407
762.2278, 12.94569
762.7100, 13.04416
763.1921, 12.87942
763.6742, 12.80557
764.1563, 13.01431
764.6384, 13.25507
765.1205, 13.34530
765.6027, 13.28530
766.0848, 13.09564
766.5669, 12.77378
767.0490, 12.51328
767.5311, 12.65887
768.0132, 13.11687
768.4954, 13.35464
768.9775, 13.32439
769.4596, 13.19817
769.9417, 13.01454
770.4238, 12.84604
770.9059, 12.84179
771.3881, 13.07774
771.8702, 13.16809
772.3523, 12.92393
772.8344, 12.76396
773.3165, 12.89537
773.7986, 13.14908
774.2808, 13.36432
774.7629, 13.50036
775.2450, 13.55038
775.7271, 13.47539
776.2092, 13.34388
776.6913, 13.23904
777.1735, 13.16423
777.6556, 13.12725
778.1377, 13.12871
778.6198, 13.22204
779.1019, 13.50195
779.5840, 13.87773
780.0662, 13.84853
780.5483, 13.01390
781.0304, 12.53689
781.5125, 12.73870
781.9946, 13.05304
782.4767, 13.29182
782.9589, 13.42582
783.4410, 13.38758
783.9231, 13.11250
784.4052, 12.91631
784.8873, 13.09669
785.3694, 13.38763
785.8516, 13.46131
786.3337, 13.34445
786.8158, 13.20127
787.2979, 13.09789
787.7800, 13.00336
788.2621, 12.86534
788.7443, 12.68832
789.2264, 12.59215
789.7085, 12.58725
790.1906, 12.63991
790.6727, 12.80726
791.1548, 12.96434
791.6370, 12.93933
792.1191, 12.76874
792.6012, 12.71609
793.0833, 13.02976
793.5654, 13.20573
794.0475, 12.93299
794.5297, 12.51415
795.0118, 12.19036
795.4939, 12.01914
795.9760, 12.05516
796.4581, 12.35208
796.9402, 12.71172
797.4224, 12.89719
797.9045, 12.89569
798.3866, 12.47749
798.8687, 11.54418
799.3508, 10.96258
799.8329, 11.26399
800.3151, 12.04027
800.7972, 12.55493
801.2793, 12.76688
801.7614, 12.87753
802.2435, 12.94575
802.7256, 12.85239
803.2078, 12.34485
803.6899, 11.80000
804.1720, 11.61999
804.6541, 11.82124
805.1362, 12.12349
805.6183, 12.41563
806.1005, 12.69658
806.5826, 13.04394
807.0647, 13.36119
807.5468, 13.36677
808.0289, 13.04466
808.5110, 12.71035
808.9932, 12.58426
809.4753, 12.60712
809.9574, 12.64387
810.4395, 12.72575
810.9216, 12.66808
811.4037, 12.36713
811.8859, 12.08471
812.3680, 12.00383
812.8501, 11.99573
813.3322, 11.83365
813.8143, 11.46357
814.2964, 11.27606
814.7786, 11.42332
815.2607, 11.70946
815.7428, 12.12952
816.2249, 12.56499
816.7070, 12.86545
817.1891, 13.00254
817.6713, 13.02876
818.1534, 12.96178
818.6355, 12.84076
819.1176, 12.75459
819.5997, 12.69170
820.0818, 12.50859
820.5640, 12.15075
821.0461, 11.95466
821.5282, 12.20790
822.0103, 12.74105
822.4924, 13.03920
822.9745, 13.03504
823.4567, 12.94777
823.9388, 12.60636
824.4209, 12.37777
824.9030, 12.45258
825.3851, 12.68257
825.8672, 12.92405
826.3494, 13.15004
826.8315, 13.23531
827.3136, 12.96892
827.7957, 12.68321
828.2778, 12.68145
828.7599, 12.85647
829.2421, 13.06709
829.7242, 13.24885
830.2063, 13.24820
830.6884, 12.90961
831.1705, 12.41558
831.6526, 12.24035
832.1348, 12.39502
832.6169, 12.52656
833.0990, 12.56702
833.5811, 12.68274
834.0632, 13.03185
834.5453, 13.47677
835.0275, 13.71928
835.5096, 13.70642
835.9917, 13.63181
836.4738, 13.40715
836.9559, 13.22598
837.4380, 13.13010
837.9202, 13.13241
838.4023, 13.28425
838.8844, 13.56363
839.3665, 13.81925
839.8486, 13.98761
840.3307, 14.07646
840.8129, 14.09355
841.2950, 14.03739
841.7771, 13.83618
842.2592, 13.52310
842.7413, 13.36773
843.2234, 13.55926
843.7056, 13.89125
844.1877, 13.89667
844.6698, 13.53259
845.1519, 13.39734
845.6340, 13.58572
846.1161, 13.78547
846.5983, 13.89323
847.0804, 13.91942
847.5625, 13.81716
848.0446, 13.56457
848.5267, 13.55395
849.0089, 13.99413
849.4910, 14.42860
849.9731, 14.76598
850.4552, 15.01753
850.9373, 15.21868
851.4194, 15.34857
851.9016, 15.31802
852.3837, 15.04685
852.8658, 14.75739
853.3479, 14.67557
853.8300, 14.70144
854.3121, 14.68844
854.7943, 14.61611
855.2764, 14.41897
855.7585, 14.06710
856.2406, 13.76925
856.7227, 13.81516
857.2048, 14.17952
857.6870, 14.57274
858.1691, 15.04263
858.6512, 15.32708
859.1333, 15.27932
859.6154, 15.15486
860.0975, 15.14498
860.5797, 15.24799
861.0618, 15.44310
861.5439, 15.81865
862.0260, 16.13580
862.5081, 16.41280
862.9902, 16.58273
863.4724, 16.50587
863.9545, 16.33402
864.4366, 16.32846
864.9187, 16.54885
865.4008, 16.77270
865.8829, 16.89684
866.3651, 16.91319
866.8472, 16.74626
867.3293, 16.47681
867.8114, 16.28219
868.2935, 16.20424
868.7756, 16.22506
869.2578, 16.34985
869.7399, 16.50178
870.2220, 16.43227
870.7041, 16.12087
871.1862, 16.07033
871.6683, 16.40256
872.1505, 16.69252
872.6326, 16.67287
873.1147, 16.54424
873.5968, 16.67152
874.0789, 17.13653
874.5610, 17.41228
875.0432, 17.37784
875.5253, 17.32086
876.0074, 17.28989
876.4895, 17.27457
876.9716, 17.26182
877.4537, 17.25456
877.9359, 17.27056
878.4180, 17.33335
878.9001, 17.37704
879.3822, 17.33636
879.8643, 17.27340
880.3464, 17.20411
880.8286, 17.18045
881.3107, 17.37547
881.7928, 17.83087
882.2749, 18.24789
882.7570, 18.25146
883.2391, 17.98713
883.7213, 17.92267
884.2034, 18.04605
884.6855, 18.15986
885.1676, 18.21948
885.6497, 18.24563
886.1318, 18.22686
886.6140, 18.21899
887.0961, 18.44543
887.5782, 19.11886
888.0603, 19.47362
888.5424, 19.34022
889.0245, 19.11490
889.5067, 18.98717
889.9888, 18.83344
890.4709, 18.39806
890.9530, 17.67961
891.4351, 17.33423
891.9172, 17.71964
892.3994, 18.22273
892.8815, 18.75685
893.3636, 19.16967
893.8457, 19.26117
894.3278, 19.10275
894.8099, 18.90641
895.2921, 18.74915
895.7742, 18.68698
896.2563, 18.87235
896.7384, 19.13680
897.2205, 19.07797
897.7026, 18.81129
898.1848, 18.94192
898.6669, 19.63270
899.1490, 20.22984
899.6311, 20.05661
900.1132, 19.33704
900.5953, 18.87910
901.0775, 18.68296
901.5596, 18.82325
902.0417, 19.46662
902.5238, 19.90950
903.0059, 19.60835
903.4880, 18.97075
903.9702, 18.87744
904.4523, 19.55766
904.9344, 19.85744
905.4165, 19.38197
905.8986, 19.03778
906.3807, 19.08670
906.8629, 19.29681
907.3450, 19.52794
907.8271, 19.74347
908.3092, 19.85446
908.7913, 19.77114
909.2734, 19.72240
909.7556, 19.85101
910.2377, 20.02319
910.7198, 20.12339
911.2019, 20.17222
911.6840, 20.25053
912.1661, 20.37244
912.6483, 20.42708
913.1304, 20.26686
913.6125, 20.03237
914.0946, 19.90558
914.5767, 19.90151
915.0588, 20.16107
915.5410, 20.66666
916.0231, 20.99352
916.5052, 20.85182
916.9873, 20.50708
917.4694, 20.53913
917.9515, 20.39664
918.4337, 20.22101
918.9158, 20.44980
919.3979, 20.15036
919.8800, 20.46259
920.3621, 20.91772
920.8442, 20.99186
921.3264, 20.73676
921.8085, 20.70326
922.2906, 21.18522
922.7727, 21.40636
923.2548, 21.03732
923.7369, 20.73432
924.2191, 20.89624
924.7012, 21.27752
925.1833, 21.50036
925.6654, 21.51674
926.1475, 21.51614
926.6296, 21.60211
927.1118, 21.62796
927.5939, 21.33535
928.0760, 21.07301
928.5581, 21.31572
929.0402, 21.95686
929.5223, 22.52243
930.0045, 22.81341
930.4866, 22.93115
930.9687, 22.83886
931.4508, 22.71191
931.9329, 22.91901
932.4150, 23.33411
932.8972, 23.49426
933.3793, 23.29240
933.8614, 23.03975
934.3435, 22.99470
934.8256, 23.11383
935.3077, 23.34183
935.7899, 23.66368
936.2720, 23.85806
936.7541, 23.89581
937.2362, 23.82121
937.7183, 23.59877
938.2004, 23.45963
938.6826, 23.78787
939.1647, 24.59762
939.6468, 25.25932
940.1289, 25.75217
940.6110, 26.14734
941.0931, 26.47235
941.5753, 26.67756
942.0574, 26.66543
942.5395, 26.51726
943.0216, 26.44610
943.5037, 26.44209
943.9858, 26.54689
944.4680, 26.77496
944.9501, 27.09844
945.4322, 27.61706
945.9143, 28.14884
946.3964, 28.39274
946.8785, 28.44859
947.3607, 28.86343
947.8428, 30.07024
948.3249, 31.12694
948.8070, 31.31040
949.2891, 31.29477
949.7712, 31.65000
950.2534, 32.32578
950.7355, 33.17385
951.2176, 34.11984
951.6997, 35.00156
952.1818, 35.61579
952.6639, 36.19646
953.1461, 37.12120
953.6282, 38.24153
954.1103, 39.10642
954.5924, 39.74854
955.0745, 40.70090
955.5566, 42.23906
956.0388, 43.97837
956.5209, 45.38060
957.0030, 46.54013
957.4851, 47.89207
957.9672, 49.44514
958.4493, 51.29800
958.9315, 53.48960
959.4136, 55.93033
959.8957, 58.58488
960.3778, 61.40638
960.8599, 64.20763
961.3420, 66.82468
961.8242, 70.23483
962.3063, 74.57939
962.7884, 79.32373
963.2705, 84.14750
963.7526, 89.46719
964.2347, 95.64808
964.7169, 102.6722
965.1990, 110.5302
965.6811, 119.1488
966.1632, 128.7221
966.6453, 138.8947
967.1274, 150.4100
967.6096, 163.8836
968.0917, 178.7759
968.5738, 194.3539
969.0559, 210.6319
969.5380, 227.9066
970.0201, 247.3285
970.5023, 266.5364
970.9844, 285.7360
971.4665, 303.5295
971.9486, 319.6638
972.4307, 333.4198
972.9128, 344.0833
973.3950, 351.4329
973.8771, 354.6364
974.3592, 352.4796
974.8413, 346.7288
975.3234, 337.7032
975.8055, 326.7745
976.2877, 315.3338
976.7698, 303.9526
977.2519, 293.0965
977.7340, 282.9362
978.2161, 274.6281
978.6982, 269.2031
979.1804, 266.6324
979.6625, 266.8851
980.1446, 270.0204
980.6267, 276.0989
981.1088, 285.1845
981.5909, 297.5738
982.0731, 313.3467
982.5552, 333.4301
983.0373, 359.0802
983.5194, 390.5407
984.0015, 429.5749
984.4836, 476.3896
984.9658, 530.7900
985.4479, 592.6231
985.9300, 663.4673
986.4121, 745.3411
986.8942, 836.4294
987.3763, 931.5479
987.8585, 1033.605
988.3406, 1124.079
988.8227, 1207.830
989.3048, 1261.511
989.7869, 1277.080
990.2690, 1254.088
990.7512, 1188.025
991.2333, 1081.278
991.7154, 963.3994
992.1975, 823.1575
992.6796, 694.8950
993.1617, 578.3601
993.6439, 477.9314
994.1260, 396.9757
994.6081, 331.9012
995.0902, 277.9776
995.5723, 235.3134
996.0544, 199.9883
996.5366, 174.1140
997.0187, 152.0805
997.5008, 133.8154
997.9829, 118.3005
998.4650, 105.1975
998.9471, 94.18798
999.4293, 85.24180
999.9114, 78.38059
1000.393, 72.23946
1000.876, 66.53136
1001.358, 61.39856
1001.840, 57.01282
1002.322, 53.19981
1002.804, 49.86273
1003.286, 46.94467
1003.768, 44.35884
1004.250, 42.10062
1004.733, 40.04583
1005.215, 38.16523
1005.697, 36.43895
1006.179, 34.83872
1006.661, 33.40435
1007.143, 32.26463
1007.625, 31.34386
1008.107, 30.34659
1008.589, 29.14105
1009.072, 28.02032
1009.554, 27.30308
1010.036, 26.75223
1010.518, 26.12822
1011.000, 25.43405
1011.482, 24.61280
1011.964, 23.72118
1012.446, 23.01810
1012.929, 22.64957
1013.411, 22.41795
1013.893, 22.11922
1014.375, 21.76804
1014.857, 21.38119
1015.339, 20.96807
1015.821, 20.54174
1016.303, 20.11081
1016.785, 19.69641
1017.268, 19.30891
1017.750, 18.96856
1018.232, 18.70083
1018.714, 18.50514
1019.196, 18.44215
1019.678, 18.47912
1020.160, 18.25399
1020.642, 17.66982
1021.125, 17.20639
1021.607, 17.27618
1022.089, 17.61287
1022.571, 17.62283
1023.053, 17.31741
1023.535, 16.81414
1024.017, 16.09441
1024.499, 15.85892
1024.981, 16.40607
1025.464, 16.89541
1025.946, 16.51961
1026.428, 15.58093
1026.910, 15.03304
1027.392, 14.91631
1027.874, 14.79410
1028.356, 14.62908
1028.838, 14.59590
1029.321, 14.81004
1029.803, 15.01131
1030.285, 14.92807
1030.767, 14.62972
1031.249, 14.41436
1031.731, 14.26225
1032.213, 14.31571
1032.695, 14.77766
1033.177, 14.87701
1033.660, 14.04800
1034.142, 13.23534
1034.624, 13.60076
1035.106, 14.85450
1035.588, 15.12121
1036.070, 13.71012
1036.552, 12.99877
1037.034, 13.45223
1037.516, 13.88028
1037.999, 13.82193
1038.481, 13.55804
1038.963, 13.33773
1039.445, 13.16818
1039.927, 13.10403
1040.409, 13.11215
1040.891, 13.28888
1041.373, 13.94151
1041.855, 14.36882
1042.338, 14.13209
1042.820, 13.67766
1043.302, 13.40506
1043.784, 13.31363
1044.266, 13.37846
1044.748, 13.83959
1045.230, 14.05103
1045.712, 13.76645
1046.195, 13.48296
1046.677, 13.32911
1047.159, 13.32227
1047.641, 13.53423
1048.123, 13.92601
1048.605, 14.25535
1049.087, 14.59198
1049.569, 14.69306
1050.052, 14.36769
1050.534, 13.98334
1051.016, 13.53229
1051.498, 13.23175
1051.980, 13.39560
1052.462, 13.95671
1052.944, 14.46483
1053.426, 14.99857
1053.908, 15.15620
1054.391, 14.38932
1054.873, 13.75297
1055.355, 13.90470
1055.837, 14.38653
1056.319, 14.73353
1056.801, 14.89540
1057.283, 14.90194
1057.765, 14.64472
1058.248, 14.50768
1058.730, 14.72967
1059.212, 14.95645
1059.694, 14.94499
1060.176, 14.86292
1060.658, 14.91865
1061.140, 15.10091
1061.622, 15.25862
1062.104, 15.31955
1062.587, 15.44345
1063.069, 15.83700
1063.551, 16.13906
1064.033, 16.00713
1064.515, 15.76128
1064.997, 15.80470
1065.479, 16.09346
1065.961, 16.31570
1066.443, 16.38934
1066.926, 16.36280
1067.408, 16.02947
1067.890, 15.85979
1068.372, 16.32317
1068.854, 16.96671
1069.336, 17.28417
1069.818, 17.29389
1070.300, 17.25547
1070.782, 17.22666
1071.265, 17.23680
1071.747, 17.18532
1072.229, 17.30806
1072.711, 18.02293
1073.193, 18.77800
1073.675, 18.83126
1074.157, 18.39751
1074.639, 18.26944
1075.122, 18.71128
1075.604, 19.11832
1076.086, 19.08985
1076.568, 19.09456
1077.050, 19.49615
1077.532, 19.99836
1078.014, 20.24897
1078.496, 20.33702
1078.979, 20.59965
1079.461, 21.13932
1079.943, 21.53646
1080.425, 21.35287
1080.907, 21.27472
1081.389, 21.83259
1081.871, 22.54234
1082.353, 22.85197
1082.835, 22.96387
1083.318, 23.45385
1083.800, 24.44344
1084.282, 25.27871
1084.764, 25.43963
1085.246, 25.68439
1085.728, 26.51608
1086.210, 27.47925
1086.692, 28.22467
1087.175, 28.78688
1087.657, 29.25263
1088.139, 29.64961
1088.621, 30.07471
1089.103, 30.65842
1089.585, 31.14836
1090.067, 31.16796
1090.549, 31.31879
1091.031, 32.29768
1091.514, 33.59069
1091.996, 34.35683
1092.478, 34.54099
1092.960, 34.76026
1093.442, 35.25690
1093.924, 35.74773
1094.406, 36.10032
1094.888, 36.44745
1095.370, 36.94104
1095.853, 37.43996
1096.335, 37.74657
1096.817, 37.87384
1097.299, 37.98405
1097.781, 38.10401
1098.263, 38.25217
1098.745, 38.54516
1099.227, 38.73788
1099.709, 38.70013
1100.192, 38.49780
1100.674, 38.10870
1101.156, 37.62569
1101.638, 37.32990
1102.120, 37.32709
1102.602, 37.30760
1103.084, 37.00959
1103.566, 36.91912
1104.049, 37.50312
1104.531, 38.12735
1105.013, 38.15026
1105.495, 37.80873
1105.977, 37.78347
1106.459, 38.24313
1106.941, 38.40956
1107.423, 37.97439
1107.906, 37.48134
1108.388, 37.06270
1108.870, 36.64412
1109.352, 36.03835
1109.834, 35.46056
1110.316, 35.36903
1110.798, 35.81764
1111.280, 36.02096
1111.762, 35.59602
1112.245, 35.40957
1112.727, 35.98648
1113.209, 36.34336
1113.691, 35.59333
1114.173, 34.61795
1114.655, 34.62164
1115.137, 35.52738
1115.619, 36.25620
1116.102, 36.78550
1116.584, 37.16552
1117.066, 37.19947
1117.548, 37.37913
1118.030, 37.96474
1118.512, 38.66859
1118.994, 39.20851
1119.476, 39.64216
1119.958, 40.19915
1120.441, 40.88247
1120.923, 41.70708
1121.405, 42.85411
1121.887, 43.70560
1122.369, 43.89717
1122.851, 44.12605
1123.333, 44.90843
1123.815, 46.08940
1124.297, 47.38895
1124.780, 48.84585
1125.262, 49.85936
1125.744, 50.32573
1126.226, 50.67560
1126.708, 50.89847
1127.190, 51.31114
1127.672, 52.14396
1128.154, 53.12592
1128.636, 53.88191
1129.119, 54.41860
1129.601, 54.69996
1130.083, 54.66901
1130.565, 55.17474
1131.047, 56.41149
1131.529, 57.11790
1132.011, 56.75834
1132.493, 55.87146
1132.976, 54.95119
1133.458, 54.02229
1133.940, 53.24318
1134.422, 52.57002
1134.904, 51.37184
1135.386, 49.65051
1135.868, 47.95945
1136.350, 46.45121
1136.833, 45.07447
1137.315, 43.79333
1137.797, 42.57318
1138.279, 41.45705
1138.761, 40.33643
1139.243, 38.67035
1139.725, 36.64807
1140.207, 35.16399
1140.689, 34.27527
1141.172, 33.29791
1141.654, 31.90444
1142.136, 30.44004
1142.618, 29.27378
1143.100, 28.27906
1143.582, 27.24949
1144.064, 26.22918
1144.546, 25.24215
1145.029, 24.35419
1145.511, 23.83213
1145.993, 23.68496
1146.475, 23.36379
1146.957, 22.37040
1147.439, 21.37795
1147.921, 21.23031
1148.403, 21.30700
1148.885, 20.87542
1149.368, 20.10367
1149.850, 19.27094
1150.332, 18.48958
1150.814, 17.86794
1151.296, 17.44898
1151.778, 17.23902
1152.260, 17.48457
1152.742, 17.66217
1153.224, 17.31561
1153.707, 16.79731
1154.189, 16.46723
1154.671, 16.29367
1155.153, 16.10684
1155.635, 15.87102
1156.117, 15.70165
1156.599, 15.63327
1157.081, 15.63895
1157.563, 15.82093
1158.046, 15.95360
1158.528, 15.88447
1159.010, 15.69066
1159.492, 15.45222
1159.974, 15.18515
1160.456, 14.95003
1160.938, 14.74358
1161.420, 14.58581
1161.903, 14.50367
1162.385, 14.43478
1162.867, 14.40399
1163.349, 14.33067
1163.831, 14.13204
1164.313, 13.85635
1164.795, 13.62752
1165.277, 13.45599
1165.760, 13.21377
1166.242, 12.81082
1166.724, 12.65157
1167.206, 12.87675
1167.688, 13.10215
1168.170, 13.13814
1168.652, 13.05115
1169.134, 12.89796
1169.616, 12.72060
1170.099, 12.75514
1170.581, 13.00548
1171.063, 13.15899
1171.545, 13.19701
1172.027, 13.06636
1172.509, 12.74716
1172.991, 12.43807
1173.473, 12.28418
1173.956, 12.26004
1174.438, 12.40198
1174.920, 12.61687
1175.402, 12.53221
1175.884, 12.25119
1176.366, 12.12674
1176.848, 12.21407
1177.330, 12.54085
1177.813, 13.09805
1178.295, 13.44328
1178.777, 13.03535
1179.259, 12.43456
1179.741, 12.33919
1180.223, 12.49747
1180.705, 12.64404
1181.187, 12.71233
1181.669, 12.56393
1182.151, 12.24327
1182.634, 12.09468
1183.116, 12.33895
1183.598, 12.53169
1184.080, 12.27535
1184.562, 12.03946
1185.044, 12.15126
1185.526, 12.43266
1186.008, 12.78569
1186.490, 13.11835
1186.973, 13.23171
1187.455, 13.07468
1187.937, 13.04724
1188.419, 13.44200
1188.901, 13.65254
1189.383, 13.36524
1189.865, 13.09825
1190.347, 13.11848
1190.830, 13.28927
1191.312, 13.53399
1191.794, 13.80471
1192.276, 13.85486
1192.758, 13.60472
1193.240, 13.39409
1193.722, 13.19430
1194.204, 13.13556
1194.687, 13.28456
1195.169, 13.46657
1195.651, 13.58059
1196.133, 13.64494
1196.615, 13.71276
1197.097, 13.74844
1197.579, 13.45944
1198.061, 12.87107
1198.543, 12.55329
1199.026, 12.53562
1199.508, 12.34872
1199.990, 11.85526
1200.472, 11.63215
1200.954, 12.21744
1201.436, 12.93133
1201.918, 12.59189
1202.400, 11.72862
1202.883, 11.31393
1203.365, 11.28912
1203.847, 11.53450
1204.329, 11.94677
1204.811, 12.36257
1205.293, 12.70993
1205.775, 12.81956
1206.257, 12.40219
1206.740, 11.94772
1207.222, 11.83935
1207.704, 11.82657
1208.186, 11.69091
1208.668, 11.49230
1209.150, 11.33651
1209.632, 11.23035
1210.114, 11.13207
1210.596, 11.03685
1211.078, 10.93600
1211.561, 10.81197
1212.043, 10.70251
1212.525, 10.64235
1213.007, 10.57479
1213.489, 10.46510
1213.971, 10.31945
1214.453, 10.07707
1214.935, 9.766118
1215.417, 9.982047
1215.900, 11.01414
1216.382, 11.42289
1216.864, 10.99284
1217.346, 10.50640
1217.828, 10.15815
1218.310, 10.11626
1218.792, 10.56610
1219.274, 11.17363
1219.757, 11.31635
1220.239, 11.07727
1220.721, 10.77596
1221.203, 10.45607
1221.685, 10.33466
1222.167, 10.42896
1222.649, 10.76200
1223.131, 11.29427
1223.614, 11.55322
1224.096, 11.11369
1224.578, 10.45887
1225.060, 9.965198
1225.542, 9.693480
1226.024, 9.886806
1226.506, 10.25269
1226.988, 10.28626
1227.470, 10.07494
1227.953, 10.12333
1228.435, 10.58673
1228.917, 10.79746
1229.399, 10.20870
1229.881, 9.745327
1230.363, 9.817041
1230.845, 9.975093
1231.327, 9.939623
1231.810, 9.857702
1232.292, 9.948266
1232.774, 10.15305
1233.256, 10.22871
1233.738, 10.14083
1234.220, 10.06965
1234.702, 10.01706
1235.184, 9.966895
1235.667, 9.897131
1236.149, 9.907380
1236.631, 10.05229
1237.113, 10.30196
1237.595, 10.67202
1238.077, 11.02874
1238.559, 10.88984
1239.041, 10.37245
1239.523, 10.11062
1240.005, 10.06098
1240.488, 9.793013
1240.970, 9.289577
1241.452, 9.054255
1241.934, 9.337050
1242.416, 9.686905
1242.898, 9.670506
1243.380, 9.541215
1243.862, 9.554853
1244.344, 9.593505
1244.827, 9.474583
1245.309, 9.307519
1245.791, 9.256067
1246.273, 9.356174
1246.755, 9.663301
1247.237, 10.33218
1247.719, 10.71740
1248.201, 10.54202
1248.684, 10.25221
1249.166, 9.802815
1249.648, 9.483454
1250.130, 9.572458
1250.612, 9.762262
1251.094, 9.607696
1251.576, 9.183171
1252.058, 8.954164
1252.541, 8.915544
1253.023, 9.205165
1253.505, 9.884192
1253.987, 10.14512
1254.469, 9.793633
1254.951, 9.353700
1255.433, 9.120433
1255.915, 9.045656
1256.397, 9.098006
1256.880, 9.231570
1257.362, 9.473207
1257.844, 9.664161
1258.326, 9.233154
1258.808, 8.560830
1259.290, 8.777076
1259.772, 9.816182
1260.254, 10.38688
1260.737, 9.908838
1261.219, 9.394766
1261.701, 9.460867
1262.183, 9.511471
1262.665, 9.034823
1263.147, 8.673325
1263.629, 9.187457
1264.111, 9.922047
1264.594, 9.823883
1265.076, 9.043448
1265.558, 8.605815
1266.040, 8.548983
1266.522, 8.736864
1267.004, 9.289968
1267.486, 9.629440
1267.968, 9.582393
1268.450, 9.687427
1268.932, 10.27915
1269.415, 10.70484
1269.897, 10.12827
1270.379, 9.085861
1270.861, 8.897213
1271.343, 9.307941
1271.825, 9.638966
1272.307, 9.854795
1272.789, 9.924362
1273.271, 9.887788
1273.754, 9.945250
1274.236, 10.16280
1274.718, 10.19097
1275.200, 9.595973
1275.682, 9.057798
1276.164, 8.989247
1276.646, 9.110833
1277.128, 9.364120
1277.611, 9.585406
1278.093, 9.568595
1278.575, 9.376050
1279.057, 9.204331
1279.539, 9.036459
1280.021, 9.119744
1280.503, 9.657070
1280.985, 9.827678
1281.468, 9.445094
1281.950, 9.084377
1282.432, 8.939091
1282.914, 8.999684
1283.396, 9.297659
1283.878, 9.628141
1284.360, 9.551913
1284.842, 9.223010
1285.324, 9.077713
##END=



