##NAMES=Alum-(K)
##RRUFFID=R060528
##IDEAL CHEMISTRY=KAl(S^6+^O_4_)_2_&#183;12H_2_O
##LOCALITY=El Desierto mine fumaroles, Potos√≠, Bolivia
##OWNER=Michael Scott
##SOURCE=Michael Scott
##DESCRIPTION=Colorless thin tabular crystals associated with yellow sulfur and colorless tamarugite
##STATUS=The identification of this mineral has been confirmed by single-crystal X-ray diffraction.
##URL=rruff.info/R060528
148.039, 83539.203
148.522, 83711.812
149.004, 83805.609
149.486, 83734.438
149.968, 83633.961
150.450, 83610.609
150.932, 83780.672
151.414, 83914.883
151.896, 83976.508
152.378, 83956.812
152.861, 83934.594
153.343, 83910.078
153.825, 83894.906
154.307, 83902.141
154.789, 83964.773
155.271, 84031.953
155.753, 84075.859
156.235, 84050.102
156.717, 84109.094
157.200, 84348.273
157.682, 84692.922
158.164, 84977.273
158.646, 85078.430
159.128, 85154.000
159.610, 85288.750
160.092, 85534.578
160.574, 85781.242
161.057, 85987.156
161.539, 86154.594
162.021, 86310.398
162.503, 86466.172
162.985, 86607.938
163.467, 86724.727
163.949, 86782.688
164.431, 86836.219
164.913, 86918.406
165.396, 87029.031
165.878, 87128.227
166.360, 87197.609
166.842, 87246.500
167.324, 87286.594
167.806, 87328.281
168.288, 87365.453
168.770, 87398.383
169.253, 87430.633
169.735, 87451.352
170.217, 87438.406
170.699, 87410.406
171.181, 87403.094
171.663, 87477.578
172.145, 87564.859
172.627, 87567.227
173.109, 87429.633
173.592, 87321.023
174.074, 87448.969
174.556, 87757.391
175.038, 88032.344
175.520, 88083.906
176.002, 88027.641
176.484, 88056.047
176.966, 88247.820
177.449, 88485.000
177.931, 88624.383
178.413, 88671.172
178.895, 88689.781
179.377, 88726.000
179.859, 88771.352
180.341, 88803.039
180.823, 88788.953
181.305, 88771.398
181.788, 88841.688
182.270, 89001.781
182.752, 89169.406
183.234, 89253.523
183.716, 89271.250
184.198, 89290.898
184.680, 89341.867
185.162, 89412.859
185.645, 89480.344
186.127, 89544.289
186.609, 89596.859
187.091, 89615.211
187.573, 89603.312
188.055, 89603.867
188.537, 89651.758
189.019, 89733.820
189.501, 89786.812
189.984, 89805.977
190.466, 89802.727
190.948, 89791.070
191.430, 89771.438
191.912, 89753.078
192.394, 89731.203
192.876, 89709.773
193.358, 89731.406
193.840, 89812.781
194.323, 89926.094
194.805, 90004.023
195.287, 90041.719
195.769, 90085.898
196.251, 90193.953
196.733, 90370.477
197.215, 90467.602
197.697, 90422.367
198.180, 90300.227
198.662, 90357.578
199.144, 90626.922
199.626, 90946.406
200.108, 91160.109
200.590, 91254.188
201.072, 91381.922
201.554, 91594.898
202.036, 91873.906
202.519, 92068.133
203.001, 92147.992
203.483, 92205.844
203.965, 92354.727
204.447, 92615.602
204.929, 92844.594
205.411, 92992.969
205.893, 93059.633
206.376, 93107.562
206.858, 93129.906
207.340, 93140.102
207.822, 93167.719
208.304, 93231.008
208.786, 93251.953
209.268, 93198.750
209.750, 93064.781
210.232, 92927.023
210.715, 92782.594
211.197, 92644.867
211.679, 92542.977
212.161, 92498.641
212.643, 92445.938
213.125, 92353.070
213.607, 92202.633
214.089, 92083.352
214.572, 91994.594
215.054, 91936.977
215.536, 91917.000
216.018, 91951.633
216.500, 91982.359
216.982, 91967.680
217.464, 91872.508
217.946, 91830.547
218.428, 91868.352
218.911, 91954.750
219.393, 91983.227
219.875, 91925.797
220.357, 91853.047
220.839, 91808.930
221.321, 91807.906
221.803, 91802.953
222.285, 91793.578
222.768, 91780.930
223.250, 91762.180
223.732, 91732.773
224.214, 91710.227
224.696, 91708.938
225.178, 91740.750
225.660, 91772.617
226.142, 91797.469
226.624, 91817.172
227.107, 91854.227
227.589, 91915.859
228.071, 91983.781
228.553, 92039.523
229.035, 92065.352
229.517, 92108.938
229.999, 92176.969
230.481, 92268.133
230.964, 92378.727
231.446, 92533.383
231.928, 92683.406
232.410, 92779.828
232.892, 92797.797
233.374, 92809.344
233.856, 92827.047
234.338, 92851.578
234.820, 92879.633
235.303, 92905.422
235.785, 92941.742
236.267, 93002.531
236.749, 93089.406
237.231, 93201.969
237.713, 93349.977
238.195, 93545.398
238.677, 93703.383
239.159, 93815.797
239.642, 93898.656
240.124, 93966.344
240.606, 93989.852
241.088, 94051.008
241.570, 94189.727
242.052, 94440.109
242.534, 94610.477
243.016, 94667.641
243.499, 94663.383
243.981, 94683.078
244.463, 94768.922
244.945, 94801.617
245.427, 94720.562
245.909, 94471.703
246.391, 94309.352
246.873, 94298.227
247.355, 94333.508
247.837, 94214.594
248.320, 93843.781
248.802, 93479.117
249.284, 93224.180
249.766, 93138.461
250.248, 92982.977
250.730, 92735.789
251.212, 92434.297
251.695, 92157.258
252.177, 91921.094
252.659, 91689.883
253.141, 91447.258
253.623, 91183.461
254.105, 90955.641
254.587, 90771.117
255.069, 90622.148
255.551, 90487.188
256.034, 90361.492
256.516, 90262.344
256.998, 90199.227
257.480, 90181.359
257.962, 90171.367
258.444, 90168.180
258.926, 90168.500
259.408, 90163.781
259.890, 90140.648
260.373, 90128.633
260.855, 90144.500
261.337, 90200.227
261.819, 90235.344
262.301, 90230.047
262.783, 90208.156
263.265, 90239.797
263.747, 90343.133
264.229, 90459.453
264.712, 90566.188
265.194, 90668.570
265.676, 90735.477
266.158, 90753.508
266.640, 90741.156
267.122, 90748.812
267.604, 90783.633
268.086, 90826.633
268.569, 90873.141
269.051, 90930.703
269.533, 90966.961
270.015, 90975.992
270.497, 90968.141
270.979, 90967.039
271.461, 90971.453
271.943, 90991.742
272.426, 91036.141
272.908, 91107.523
273.390, 91192.242
273.872, 91293.930
274.354, 91404.453
274.836, 91508.680
275.318, 91615.367
275.800, 91684.570
276.282, 91678.727
276.764, 91588.328
277.247, 91508.141
277.729, 91446.562
278.211, 91395.289
278.693, 91332.023
279.175, 91254.406
279.657, 91168.773
280.139, 91087.977
280.621, 91012.297
281.104, 90875.539
281.586, 90635.844
282.068, 90369.578
282.550, 90287.898
283.032, 90414.680
283.514, 90509.961
283.996, 90394.500
284.478, 90081.000
284.961, 89801.539
285.443, 89581.469
285.925, 89406.648
286.407, 89250.391
286.889, 89112.352
287.371, 89002.219
287.853, 88947.867
288.335, 88938.562
288.817, 88885.039
289.299, 88762.492
289.782, 88618.531
290.264, 88550.172
290.746, 88553.023
291.228, 88549.492
291.710, 88464.703
292.192, 88325.023
292.674, 88259.227
293.156, 88304.391
293.639, 88372.547
294.121, 88307.953
294.603, 88126.320
295.085, 87946.727
295.567, 87853.594
296.049, 87820.773
296.531, 87776.359
297.013, 87713.789
297.496, 87642.883
297.978, 87572.070
298.460, 87503.711
298.942, 87445.062
299.424, 87382.508
299.906, 87335.789
300.388, 87349.602
300.870, 87440.656
301.352, 87545.344
301.835, 87573.859
302.317, 87548.328
302.799, 87546.047
303.281, 87635.617
303.763, 87759.148
304.245, 87829.562
304.727, 87825.859
305.209, 87811.117
305.691, 87830.602
306.174, 87881.289
306.656, 87957.844
307.138, 88128.227
307.620, 88288.477
308.102, 88330.617
308.584, 88235.117
309.066, 88085.617
309.548, 87906.703
310.030, 87721.953
310.513, 87568.359
310.995, 87482.883
311.477, 87422.250
311.959, 87347.594
312.441, 87252.031
312.923, 87180.719
313.405, 87186.500
313.888, 87228.633
314.370, 87247.172
314.852, 87219.203
315.334, 87162.242
315.816, 87074.070
316.298, 86951.328
316.780, 86844.312
317.262, 86788.797
317.744, 86755.820
318.227, 86711.578
318.709, 86614.172
319.191, 86534.109
319.673, 86499.969
320.155, 86514.633
320.637, 86552.719
321.119, 86642.547
321.601, 86736.852
322.083, 86790.188
322.566, 86766.500
323.048, 86725.227
323.530, 86659.961
324.012, 86570.047
324.494, 86525.594
324.976, 86585.852
325.458, 86665.797
325.940, 86703.344
326.422, 86649.094
326.905, 86597.930
327.387, 86546.797
327.869, 86497.820
328.351, 86495.273
328.833, 86603.383
329.315, 86710.758
329.797, 86750.852
330.279, 86665.922
330.762, 86598.023
331.244, 86564.227
331.726, 86558.398
332.208, 86545.188
332.690, 86521.539
333.172, 86495.883
333.654, 86473.773
334.136, 86461.688
334.618, 86440.500
335.101, 86400.422
335.583, 86354.547
336.065, 86345.656
336.547, 86389.742
337.029, 86438.094
337.511, 86465.477
337.993, 86465.453
338.475, 86462.117
338.957, 86452.531
339.440, 86438.781
339.922, 86433.297
340.404, 86442.109
340.886, 86426.602
341.368, 86357.797
341.850, 86231.992
342.332, 86135.406
342.815, 86076.953
343.297, 86030.047
343.779, 85937.602
344.261, 85800.156
344.743, 85704.773
345.225, 85712.156
345.707, 85802.383
346.189, 85856.117
346.671, 85868.406
347.154, 85873.023
347.636, 85907.023
348.118, 85965.602
348.600, 86027.477
349.082, 86066.148
349.564, 86103.859
350.046, 86217.430
350.528, 86406.219
351.010, 86558.922
351.493, 86524.023
351.975, 86374.844
352.457, 86285.789
352.939, 86358.148
353.421, 86471.859
353.903, 86487.469
354.385, 86412.992
354.867, 86305.289
355.349, 86161.523
355.832, 86025.078
356.314, 85960.742
356.796, 86039.961
357.278, 86119.383
357.760, 86077.773
358.242, 85944.680
358.724, 85817.828
359.206, 85735.047
359.689, 85686.023
360.171, 85665.133
360.653, 85678.211
361.135, 85701.578
361.617, 85714.523
362.099, 85728.812
362.581, 85769.750
363.063, 85892.648
363.546, 86004.453
364.028, 86055.180
364.510, 86022.172
364.992, 85981.852
365.474, 85967.719
365.956, 85951.727
366.438, 85895.094
366.920, 85697.297
367.402, 85552.797
367.884, 85544.977
368.367, 85718.406
368.849, 85802.922
369.331, 85689.320
369.813, 85544.289
370.295, 85526.578
370.777, 85766.477
371.259, 85947.203
371.741, 86000.367
372.224, 85931.703
372.706, 85896.367
373.188, 85912.539
373.670, 85935.359
374.152, 85919.883
374.634, 85828.344
375.116, 85806.359
375.598, 85894.102
376.081, 86053.383
376.563, 86153.047
377.045, 86185.180
377.527, 86181.953
378.009, 86160.328
378.491, 86121.609
378.973, 86064.156
379.455, 85982.648
379.937, 85896.117
380.419, 85833.828
380.902, 85798.203
381.384, 85786.562
381.866, 85809.367
382.348, 85861.031
382.830, 85909.867
383.312, 85956.250
383.794, 86000.094
384.276, 86038.703
384.759, 86072.648
385.241, 86103.867
385.723, 86119.562
386.205, 86134.961
386.687, 86173.883
387.169, 86233.930
387.651, 86303.000
388.133, 86375.156
388.616, 86445.531
389.098, 86508.656
389.580, 86555.781
390.062, 86598.570
390.544, 86668.891
391.026, 86752.930
391.508, 86787.344
391.990, 86676.000
392.472, 86540.383
392.955, 86491.680
393.437, 86623.102
393.919, 86718.070
394.401, 86636.289
394.883, 86460.312
395.365, 86363.703
395.847, 86480.406
396.329, 86616.008
396.811, 86688.430
397.294, 86678.141
397.776, 86641.562
398.258, 86528.969
398.740, 86409.617
399.222, 86371.367
399.704, 86495.773
400.186, 86607.906
400.668, 86666.367
401.151, 86666.281
401.633, 86696.883
402.115, 86792.273
402.597, 86885.602
403.079, 86911.133
403.561, 86812.453
404.043, 86796.852
404.525, 86926.180
405.008, 87156.547
405.490, 87289.008
405.972, 87303.539
406.454, 87286.406
406.936, 87268.906
407.418, 87247.922
407.900, 87303.172
408.382, 87453.094
408.864, 87652.641
409.346, 87834.156
409.829, 87998.617
410.311, 88144.094
410.793, 88253.727
411.275, 88345.953
411.757, 88469.406
412.239, 88621.977
412.721, 88824.406
413.203, 89130.438
413.686, 89504.883
414.168, 89856.219
414.650, 90110.180
415.132, 90361.039
415.614, 90744.703
416.096, 91240.031
416.578, 91722.523
417.060, 92057.438
417.543, 92354.617
418.025, 92725.922
418.507, 93214.773
418.989, 93747.000
419.471, 94250.812
419.953, 94765.773
420.435, 95371.820
420.917, 96209.594
421.399, 97068.547
421.882, 97835.297
422.364, 98464.227
422.846, 99128.430
423.328, 99887.273
423.810, 100696.297
424.292, 101501.000
424.774, 102333.703
425.256, 103132.398
425.738, 103876.297
426.221, 104556.797
426.703, 105301.000
427.185, 106175.703
427.667, 107040.000
428.149, 107772.102
428.631, 108303.500
429.113, 108888.297
429.595, 109597.602
430.078, 110345.203
430.560, 110937.102
431.042, 111395.000
431.524, 111599.000
432.006, 111453.203
432.488, 110961.602
432.970, 110318.602
433.452, 109532.398
433.934, 108584.000
434.417, 107373.203
434.899, 105936.898
435.381, 104537.203
435.863, 103317.000
436.345, 102180.398
436.827, 100910.203
437.309, 99506.547
437.791, 98137.633
438.273, 96891.672
438.756, 95762.461
439.238, 94742.109
439.720, 93834.289
440.202, 93022.953
440.684, 92302.828
441.166, 91668.711
441.648, 91105.523
442.130, 90644.758
442.612, 90228.594
443.095, 89829.750
443.577, 89443.617
444.059, 89067.062
444.541, 88655.977
445.023, 88268.922
445.505, 87975.094
445.987, 87863.672
446.470, 87774.508
446.952, 87695.242
447.434, 87625.617
447.916, 87491.172
448.398, 87222.828
448.880, 86956.906
449.362, 86779.469
449.844, 86737.406
450.326, 86684.227
450.809, 86606.930
451.291, 86515.453
451.773, 86438.273
452.255, 86379.570
452.737, 86313.312
453.219, 86218.297
453.701, 86094.156
454.183, 86006.453
454.665, 85954.547
455.148, 85933.508
455.630, 85953.898
456.112, 86008.391
456.594, 86050.211
457.076, 86081.156
457.558, 86079.648
458.040, 85989.203
458.522, 85821.078
459.004, 85647.547
459.487, 85495.281
459.969, 85377.953
460.451, 85327.422
460.933, 85366.922
461.415, 85413.977
461.897, 85409.492
462.379, 85371.422
462.862, 85330.641
463.344, 85290.406
463.826, 85258.242
464.308, 85233.906
464.790, 85217.070
465.272, 85223.703
465.754, 85306.297
466.236, 85385.219
466.718, 85402.820
467.201, 85269.383
467.683, 85173.594
468.165, 85132.250
468.647, 85135.078
469.129, 85154.531
469.611, 85208.156
470.093, 85248.203
470.575, 85247.242
471.057, 85192.172
471.539, 85175.227
472.022, 85209.953
472.504, 85256.609
472.986, 85265.633
473.468, 85234.648
473.950, 85196.727
474.432, 85161.633
474.914, 85125.953
475.397, 85082.719
475.879, 85033.398
476.361, 84972.094
476.843, 84893.727
477.325, 84804.367
477.807, 84701.406
478.289, 84574.961
478.771, 84484.797
479.253, 84513.133
479.736, 84620.328
480.218, 84724.383
480.700, 84773.922
481.182, 84818.383
481.664, 84900.922
482.146, 85017.312
482.628, 85104.289
483.110, 85058.539
483.592, 85013.469
484.075, 85069.883
484.557, 85372.773
485.039, 85598.906
485.521, 85678.859
486.003, 85647.844
486.485, 85593.758
486.967, 85498.469
487.449, 85403.656
487.931, 85322.562
488.414, 85258.883
488.896, 85205.508
489.378, 85179.906
489.860, 85145.094
490.342, 85050.281
490.824, 84884.641
491.306, 84773.711
491.788, 84756.258
492.271, 84790.359
492.753, 84760.969
493.235, 84669.773
493.717, 84599.133
494.199, 84627.477
494.681, 84703.711
495.163, 84699.344
495.645, 84598.273
496.128, 84487.320
496.610, 84421.594
497.092, 84404.641
497.574, 84445.992
498.056, 84641.656
498.538, 84805.727
499.020, 84782.547
499.502, 84616.312
499.984, 84489.977
500.466, 84519.688
500.949, 84578.094
501.431, 84588.031
501.913, 84512.773
502.395, 84466.523
502.877, 84493.906
503.359, 84545.828
503.841, 84559.648
504.323, 84487.570
504.806, 84447.422
505.288, 84466.023
505.770, 84533.906
506.252, 84594.797
506.734, 84648.039
507.216, 84692.047
507.698, 84726.789
508.180, 84752.250
508.663, 84762.344
509.145, 84754.523
509.627, 84741.344
510.109, 84743.148
510.591, 84757.641
511.073, 84767.609
511.555, 84772.398
512.037, 84767.406
512.519, 84728.758
513.002, 84664.703
513.484, 84628.594
513.966, 84693.039
514.448, 84784.570
514.930, 84817.750
515.412, 84748.203
515.894, 84703.062
516.376, 84749.562
516.859, 84853.969
517.341, 84967.258
517.823, 85146.297
518.305, 85260.109
518.787, 85229.391
519.269, 85054.578
519.751, 84971.727
520.233, 85058.508
520.715, 85158.188
521.198, 85175.562
521.680, 85058.438
522.162, 85019.031
522.644, 85086.711
523.126, 85204.672
523.608, 85296.867
524.090, 85366.703
524.572, 85374.281
525.054, 85270.062
525.537, 85108.578
526.019, 85063.508
526.501, 85132.383
526.983, 85222.703
527.465, 85288.477
527.947, 85321.594
528.429, 85297.539
528.911, 85198.023
529.393, 85097.523
529.876, 85066.594
530.358, 85071.523
530.840, 85057.188
531.322, 84952.773
531.804, 84871.281
532.286, 84884.352
532.768, 84982.156
533.250, 85051.930
533.732, 85070.656
534.215, 85057.203
534.697, 85020.523
535.179, 84958.648
535.661, 84879.602
536.143, 84751.812
536.625, 84632.953
537.107, 84609.172
537.589, 84711.156
538.072, 84800.789
538.554, 84849.938
539.036, 84862.297
539.518, 84841.898
540.000, 84785.289
540.482, 84735.602
540.964, 84715.930
541.446, 84723.977
541.929, 84758.320
542.411, 84818.609
542.893, 84895.977
543.375, 84985.094
543.857, 85084.641
544.339, 85193.562
544.821, 85354.562
545.303, 85479.797
545.786, 85503.430
546.268, 85445.172
546.750, 85380.953
547.232, 85315.711
547.714, 85269.062
548.196, 85256.352
548.678, 85293.523
549.160, 85318.953
549.642, 85337.352
550.125, 85341.047
550.607, 85320.453
551.089, 85264.953
551.571, 85212.797
552.053, 85166.797
552.535, 85128.711
553.017, 85092.422
553.499, 85053.969
553.981, 85056.750
554.464, 85174.453
554.946, 85356.070
555.428, 85375.797
555.910, 85229.039
556.392, 85076.188
556.874, 85060.109
557.356, 85128.977
557.838, 85208.133
558.320, 85302.023
558.803, 85358.430
559.285, 85286.922
559.767, 85157.578
560.249, 85104.539
560.731, 85247.602
561.213, 85403.242
561.695, 85498.297
562.177, 85529.133
562.659, 85579.906
563.142, 85691.812
563.624, 85788.047
564.106, 85817.227
564.588, 85727.797
565.070, 85707.531
565.552, 85772.547
566.034, 85882.523
566.516, 85990.492
566.999, 86097.758
567.481, 86183.477
567.963, 86242.438
568.445, 86277.211
568.927, 86285.492
569.409, 86270.992
569.891, 86264.758
570.373, 86283.633
570.856, 86324.141
571.338, 86392.008
571.820, 86490.070
572.302, 86575.156
572.784, 86616.039
573.266, 86630.492
573.748, 86636.852
574.230, 86618.844
574.713, 86617.383
575.195, 86663.617
575.677, 86734.594
576.159, 86764.023
576.641, 86712.703
577.123, 86675.742
577.605, 86689.844
578.087, 86755.477
578.569, 86785.758
579.052, 86766.094
579.534, 86753.680
580.016, 86796.062
580.498, 86890.953
580.980, 86996.227
581.462, 87108.508
581.944, 87226.938
582.426, 87361.859
582.908, 87503.859
583.391, 87624.523
583.873, 87696.188
584.355, 87755.883
584.837, 87795.227
585.319, 87836.703
585.801, 87840.875
586.283, 87983.070
586.765, 88091.758
587.247, 88168.742
587.730, 88119.086
588.212, 88232.961
588.694, 88281.297
589.176, 88326.945
589.658, 88463.844
590.140, 88432.586
590.622, 88559.109
591.104, 88630.398
591.586, 88791.070
592.069, 88847.789
592.551, 88790.609
593.033, 88757.547
593.515, 88815.227
593.997, 88930.812
594.479, 89032.219
594.961, 89118.203
595.443, 89160.023
595.925, 89119.117
596.408, 89031.328
596.890, 88931.094
597.372, 88816.867
597.854, 88731.633
598.336, 88725.156
598.818, 88751.906
599.300, 88758.781
599.782, 88752.711
600.265, 88703.047
600.747, 88550.430
601.229, 88348.273
601.711, 88247.570
602.193, 88312.211
602.675, 88370.008
603.157, 88360.961
603.639, 88288.047
604.122, 88232.953
604.604, 88200.000
605.086, 88160.797
605.568, 88096.680
606.050, 88006.648
606.532, 87869.844
607.014, 87667.289
607.496, 87498.883
607.979, 87526.188
608.461, 87652.227
608.943, 87698.727
609.425, 87544.344
609.907, 87349.383
610.389, 87174.320
610.871, 87027.688
611.353, 86927.750
611.835, 86967.211
612.318, 86974.109
612.800, 86858.953
613.282, 86609.672
613.764, 86438.367
614.246, 86390.148
614.728, 86360.844
615.210, 86267.492
615.692, 86098.578
616.174, 85985.133
616.657, 85942.406
617.139, 85936.797
617.621, 85937.703
618.103, 85939.344
618.585, 85899.203
619.067, 85730.070
619.549, 85803.086
620.031, 85817.344
620.513, 85775.961
620.996, 85512.359
621.478, 85535.711
621.960, 85444.078
622.442, 85347.703
622.924, 85411.453
623.406, 85286.906
623.888, 85209.172
624.370, 85145.219
624.852, 85103.141
625.335, 85097.820
625.817, 85082.773
626.299, 85067.047
626.781, 85030.406
627.263, 84927.344
627.745, 84754.594
628.227, 84623.383
628.709, 84568.656
629.192, 84556.969
629.674, 84542.977
630.156, 84523.133
630.638, 84478.461
631.120, 84394.547
631.602, 84285.672
632.084, 84153.750
632.566, 84002.539
633.049, 83866.219
633.531, 83742.906
634.013, 83654.156
634.495, 83622.977
634.977, 83686.969
635.459, 83716.672
635.941, 83687.344
636.423, 83638.023
636.906, 83607.500
637.388, 83600.797
637.870, 83587.297
638.352, 83556.133
638.834, 83522.602
639.316, 83536.859
639.798, 83591.297
640.280, 83605.133
640.762, 83521.609
641.245, 83392.328
641.727, 83282.812
642.209, 83195.828
642.691, 83147.344
643.173, 83166.023
643.655, 83217.023
644.137, 83288.438
644.619, 83388.867
645.101, 83453.047
645.584, 83453.102
646.066, 83419.594
646.548, 83369.344
647.030, 83252.188
647.512, 83226.477
647.994, 83327.180
648.476, 83481.977
648.958, 83572.969
649.440, 83594.453
649.923, 83618.422
650.405, 83670.961
650.887, 83722.703
651.369, 83710.859
651.851, 83646.430
652.333, 83583.156
652.815, 83531.758
653.297, 83509.148
653.779, 83568.906
654.262, 83703.539
654.744, 83761.703
655.226, 83604.906
655.708, 83416.133
656.190, 83302.500
656.672, 83300.250
657.154, 83311.539
657.636, 83353.203
658.119, 83390.102
658.601, 83384.820
659.083, 83329.883
659.565, 83269.180
660.047, 83203.594
660.529, 83141.312
661.011, 83105.344
661.493, 83089.008
661.976, 83058.141
662.458, 82983.094
662.940, 82907.289
663.422, 82885.773
663.904, 82907.461
664.386, 82928.062
664.868, 82936.648
665.350, 82933.312
665.833, 82910.133
666.315, 82863.820
666.797, 82838.039
667.279, 82816.617
667.761, 82829.594
668.243, 82907.359
668.725, 83080.156
669.207, 83159.047
669.689, 83122.617
670.171, 83039.391
670.654, 82976.039
671.136, 82930.383
671.618, 82906.617
672.100, 82919.477
672.582, 82919.789
673.064, 82840.102
673.546, 82711.719
674.028, 82596.453
674.510, 82555.062
674.993, 82503.531
675.475, 82379.078
675.957, 82212.148
676.439, 82115.977
676.921, 82164.922
677.403, 82228.578
677.885, 82280.430
678.367, 82319.797
678.849, 82319.500
679.332, 82264.297
679.814, 82213.852
680.296, 82205.078
680.778, 82231.938
681.260, 82275.680
681.742, 82333.078
682.224, 82396.062
682.706, 82478.219
683.189, 82551.328
683.671, 82560.711
684.153, 82448.859
684.635, 82385.656
685.117, 82502.820
685.599, 82697.594
686.081, 82831.594
686.563, 82886.578
687.045, 82877.883
687.528, 82779.562
688.010, 82631.023
688.492, 82539.359
688.974, 82515.477
689.456, 82494.141
689.938, 82434.656
690.420, 82370.117
690.903, 82431.203
691.385, 82600.953
691.867, 82724.273
692.349, 82631.047
692.831, 82478.953
693.313, 82468.898
693.795, 82607.953
694.277, 82669.258
694.759, 82458.812
695.242, 82202.422
695.724, 82051.219
696.206, 82072.992
696.688, 82076.773
697.170, 82063.844
697.652, 82034.078
698.134, 81978.812
698.616, 81894.070
699.098, 81850.281
699.581, 81871.141
700.063, 81902.539
700.545, 81847.188
701.027, 81734.109
701.509, 81653.672
701.991, 81663.609
702.473, 81682.031
702.955, 81626.906
703.438, 81527.570
703.920, 81455.172
704.402, 81412.930
704.884, 81418.852
705.366, 81534.344
705.848, 81724.523
706.330, 81761.703
706.812, 81566.039
707.294, 81377.703
707.777, 81318.883
708.259, 81372.391
708.741, 81349.219
709.223, 81245.039
709.705, 81166.844
710.187, 81245.352
710.669, 81392.703
711.151, 81447.039
711.633, 81383.797
712.116, 81324.141
712.598, 81364.609
713.080, 81430.094
713.562, 81447.688
714.044, 81353.656
714.526, 81304.773
715.008, 81331.297
715.490, 81392.742
715.972, 81446.523
716.455, 81489.594
716.937, 81532.844
717.419, 81582.023
717.901, 81622.203
718.383, 81610.172
718.865, 81558.430
719.347, 81534.812
719.830, 81591.141
720.312, 81656.867
720.794, 81653.992
721.276, 81603.062
721.758, 81561.008
722.240, 81528.344
722.722, 81532.094
723.204, 81607.883
723.686, 81746.203
724.169, 81834.656
724.651, 81866.156
725.133, 81859.594
725.615, 81814.578
726.097, 81733.188
726.579, 81655.742
727.061, 81582.719
727.543, 81517.641
728.026, 81474.992
728.508, 81440.102
728.990, 81380.523
729.472, 81291.273
729.954, 81215.406
730.436, 81223.297
730.918, 81232.133
731.400, 81161.102
731.882, 80925.633
732.365, 80769.023
732.847, 80745.031
733.329, 80772.242
733.811, 80773.461
734.293, 80746.602
734.775, 80686.273
735.257, 80571.203
735.739, 80467.531
736.221, 80510.281
736.704, 80656.133
737.186, 80750.023
737.668, 80731.797
738.150, 80662.406
738.632, 80574.188
739.114, 80477.906
739.596, 80394.961
740.078, 80321.742
740.560, 80278.828
741.043, 80276.594
741.525, 80311.617
742.007, 80386.148
742.489, 80530.844
742.971, 80623.008
743.453, 80587.797
743.935, 80472.047
744.417, 80475.188
744.899, 80589.039
745.382, 80706.859
745.864, 80770.547
746.346, 80793.070
746.828, 80766.344
747.310, 80696.211
747.792, 80665.977
748.274, 80818.352
748.756, 80937.156
749.239, 80868.594
749.721, 80553.469
750.203, 80355.828
750.685, 80325.109
751.167, 80335.133
751.649, 80302.422
752.131, 80229.750
752.613, 80148.258
753.096, 80054.820
753.578, 79991.477
754.060, 80034.844
754.542, 80125.797
755.024, 80154.773
755.506, 80077.172
755.988, 80018.594
756.470, 80083.320
756.952, 80178.156
757.435, 80203.172
757.917, 80065.797
758.399, 79973.188
758.881, 79961.609
759.363, 79963.398
759.845, 79866.461
760.327, 79664.156
760.809, 79516.156
761.291, 79465.156
761.774, 79463.633
762.256, 79453.398
762.738, 79437.641
763.220, 79419.102
763.702, 79375.477
764.184, 79359.961
764.666, 79418.094
765.148, 79525.109
765.630, 79620.508
766.113, 79686.477
766.595, 79745.156
767.077, 79797.273
767.559, 79840.727
768.041, 79864.211
768.523, 79859.250
769.005, 79888.180
769.487, 80001.242
769.969, 80142.383
770.452, 80200.109
770.934, 80185.258
771.416, 80155.203
771.898, 80147.578
772.380, 80132.156
772.862, 80082.992
773.344, 80003.859
773.826, 79939.227
774.309, 79903.602
774.791, 79879.633
775.273, 79870.711
775.755, 79877.047
776.237, 79841.820
776.719, 79758.531
777.201, 79693.883
777.683, 79705.742
778.166, 79765.633
778.648, 79813.867
779.130, 79847.898
779.612, 79874.008
780.094, 79882.953
780.576, 79892.344
781.058, 79915.977
781.540, 79957.094
782.023, 79996.203
782.505, 80040.047
782.987, 80068.359
783.469, 80055.953
783.951, 79990.242
784.433, 79985.047
784.915, 80048.242
785.397, 80133.539
785.879, 80199.883
786.362, 80255.953
786.844, 80319.047
787.326, 80393.594
787.808, 80469.906
788.290, 80536.039
788.772, 80603.883
789.254, 80682.906
789.736, 80770.273
790.218, 80879.633
790.701, 81035.930
791.183, 81183.477
791.665, 81241.742
792.147, 81201.672
792.629, 81232.781
793.111, 81362.953
793.593, 81521.547
794.075, 81628.406
794.557, 81701.922
795.040, 81778.688
795.522, 81868.383
796.004, 81965.422
796.486, 82073.797
796.968, 82188.469
797.450, 82300.898
797.932, 82410.367
798.414, 82523.656
798.896, 82637.461
799.379, 82762.703
799.861, 82927.961
800.343, 83131.039
800.825, 83297.883
801.307, 83392.000
801.789, 83496.461
802.271, 83730.539
802.753, 84043.641
803.236, 84342.922
803.718, 84540.188
804.200, 84781.297
804.682, 85157.812
805.164, 85596.781
805.646, 85959.406
806.128, 86201.391
806.610, 86464.727
807.093, 86764.477
807.575, 87107.938
808.057, 87561.758
808.539, 88099.242
809.021, 88544.047
809.503, 88808.852
809.985, 88997.758
810.467, 89213.141
810.950, 89429.000
811.432, 89597.188
811.914, 89626.703
812.396, 89693.109
812.878, 89860.891
813.360, 90086.477
813.842, 90267.727
814.324, 90383.391
814.806, 90537.367
815.289, 90740.344
815.771, 91012.812
816.253, 91435.156
816.735, 91970.648
817.217, 92486.109
817.699, 92842.133
818.181, 93230.641
818.663, 93801.500
819.145, 94503.070
819.628, 95186.547
820.110, 95804.859
820.592, 96438.672
821.074, 97080.359
821.556, 97751.648
822.038, 98548.883
822.520, 99479.258
823.002, 100313.898
823.484, 100930.000
823.967, 101462.297
824.449, 102154.500
824.931, 102942.703
825.413, 103668.000
825.895, 104275.102
826.377, 104780.203
826.859, 105238.797
827.341, 105601.297
827.823, 105746.203
828.306, 105655.500
828.788, 105375.102
829.270, 104904.102
829.752, 104262.102
830.234, 103479.797
830.716, 102581.297
831.198, 101646.797
831.680, 100638.797
832.163, 99702.250
832.645, 99080.383
833.127, 98655.523
833.609, 98108.461
834.091, 97418.242
834.573, 96505.273
835.055, 95351.109
835.537, 93974.812
836.019, 92427.781
836.502, 90687.797
836.984, 88946.328
837.466, 87229.781
837.948, 85614.211
838.430, 84174.438
838.912, 82927.594
839.394, 81901.961
839.877, 81239.047
840.359, 80688.250
840.841, 80134.453
841.323, 79594.078
841.805, 79128.477
842.287, 78751.938
842.769, 78413.297
843.251, 78092.203
843.733, 77811.062
844.216, 77654.273
844.698, 77607.797
845.180, 77518.547
845.662, 77300.703
846.144, 77053.391
846.626, 76877.938
847.108, 76752.828
847.590, 76629.297
848.072, 76470.539
848.555, 76337.922
849.037, 76252.852
849.519, 76199.156
850.001, 76154.797
850.483, 76129.906
850.965, 76054.023
851.447, 75896.297
851.929, 75708.219
852.411, 75558.188
852.894, 75445.656
853.376, 75365.898
853.858, 75358.727
854.340, 75331.250
854.822, 75208.906
855.304, 75044.570
855.786, 74935.477
856.268, 74900.062
856.750, 74887.898
857.233, 74899.156
857.715, 74919.648
858.197, 74924.594
858.679, 74915.523
859.161, 74907.281
859.643, 74903.492
860.125, 74896.594
860.607, 74854.656
861.089, 74812.312
861.572, 74818.250
862.054, 74990.062
862.536, 75058.953
863.018, 74954.969
863.500, 74784.711
863.982, 74675.711
864.464, 74635.156
864.946, 74571.508
865.429, 74466.250
865.911, 74364.172
866.393, 74330.859
866.875, 74332.500
867.357, 74316.602
867.839, 74279.141
868.321, 74203.531
868.803, 74027.141
869.286, 73847.727
869.768, 73758.703
870.250, 73801.609
870.732, 73810.891
871.214, 73777.312
871.696, 73735.461
872.178, 73728.812
872.660, 73741.867
873.143, 73722.367
873.625, 73660.438
874.107, 73612.078
874.589, 73646.906
875.071, 73688.383
875.553, 73662.273
876.035, 73524.547
876.517, 73446.742
876.999, 73466.109
877.482, 73476.117
877.964, 73367.961
878.446, 73165.344
878.928, 73113.617
879.410, 73216.492
879.892, 73308.094
880.374, 73263.383
880.856, 73149.977
881.338, 73013.961
881.821, 72860.203
882.303, 72733.727
882.785, 72669.148
883.267, 72603.078
883.749, 72490.672
884.231, 72343.656
884.713, 72334.648
885.195, 72467.812
885.677, 72573.906
886.160, 72537.359
886.642, 72421.656
887.124, 72272.789
887.606, 72110.219
888.088, 72015.547
888.570, 72105.078
889.052, 72179.453
889.534, 72154.883
890.016, 72060.773
890.499, 72016.711
890.981, 72032.023
891.463, 72032.883
891.945, 71976.281
892.427, 71909.547
892.909, 71943.750
893.391, 72035.453
893.873, 72071.109
894.356, 71930.453
894.838, 71797.297
895.320, 71739.102
895.802, 71733.461
896.284, 71739.953
896.766, 71775.930
897.248, 71767.383
897.730, 71697.109
898.213, 71591.773
898.695, 71492.172
899.177, 71394.156
899.659, 71280.773
900.141, 71147.867
900.623, 71009.430
901.105, 70858.844
901.587, 70718.523
902.070, 70619.008
902.552, 70562.367
903.034, 70549.320
903.516, 70601.109
903.998, 70651.367
904.480, 70631.430
904.962, 70549.000
905.444, 70416.961
905.926, 70232.523
906.409, 70079.477
906.891, 70033.023
907.373, 70035.133
907.855, 70044.078
908.337, 70057.469
908.819, 70065.312
909.301, 70085.523
909.783, 70069.406
910.265, 69961.312
910.748, 69783.938
911.230, 69717.750
911.712, 69754.641
912.194, 69775.359
912.676, 69655.453
913.158, 69519.602
913.640, 69481.023
914.122, 69529.008
914.604, 69548.781
915.087, 69508.852
915.569, 69461.453
916.051, 69419.109
916.533, 69382.008
917.015, 69358.773
917.497, 69347.117
917.979, 69308.438
918.461, 69203.781
918.943, 69097.742
919.426, 69052.883
919.908, 69052.062
920.390, 69060.344
920.872, 69065.547
921.354, 69084.633
921.836, 69122.930
922.318, 69169.078
922.800, 69210.992
923.283, 69245.867
923.765, 69246.031
924.247, 69193.656
924.729, 69150.531
925.211, 69208.602
925.693, 69295.109
926.175, 69314.477
926.657, 69212.242
927.140, 69146.047
927.622, 69165.367
928.104, 69189.953
928.586, 69161.891
929.068, 69082.977
929.550, 68990.727
930.032, 68885.477
930.514, 68805.281
930.997, 68810.383
931.479, 68835.992
931.961, 68814.508
932.443, 68743.242
932.925, 68663.773
933.407, 68559.594
933.889, 68481.039
934.371, 68461.703
934.853, 68478.648
935.336, 68395.844
935.818, 68218.508
936.300, 68083.812
936.782, 68072.469
937.264, 68116.602
937.746, 68190.297
938.228, 68262.383
938.710, 68264.133
939.192, 68072.422
939.674, 67948.469
940.157, 67949.500
940.639, 68008.672
941.121, 68027.344
941.603, 68006.117
942.085, 67940.648
942.567, 67821.883
943.049, 67696.156
943.531, 67615.719
944.013, 67550.406
944.496, 67455.977
944.978, 67286.367
945.460, 67206.117
945.942, 67283.844
946.424, 67372.383
946.906, 67358.000
947.388, 67249.477
947.870, 67177.648
948.353, 67143.742
948.835, 67110.570
949.317, 67052.344
949.799, 66982.250
950.281, 66882.781
950.763, 66763.969
951.245, 66750.688
951.727, 66964.938
952.209, 67085.008
952.692, 66971.289
953.174, 66724.031
953.656, 66669.844
954.138, 66776.062
954.620, 66837.008
955.102, 66732.203
955.584, 66612.367
956.067, 66600.297
956.549, 66646.844
957.031, 66671.930
957.513, 66671.656
957.995, 66632.023
958.477, 66532.953
958.959, 66433.156
959.441, 66420.383
959.923, 66469.859
960.406, 66483.312
960.888, 66446.023
961.370, 66396.047
961.852, 66337.000
962.334, 66292.320
962.816, 66287.688
963.298, 66330.883
963.780, 66344.727
964.263, 66312.922
964.745, 66298.883
965.227, 66356.844
965.709, 66450.977
966.191, 66489.609
966.673, 66473.797
967.155, 66403.867
967.637, 66186.773
968.119, 66014.992
968.602, 66032.047
969.084, 66155.430
969.566, 66174.703
970.048, 66059.672
970.530, 65967.273
971.012, 65929.383
971.494, 65914.992
971.976, 65902.883
972.458, 65877.438
972.941, 65792.773
973.423, 65602.844
973.905, 65477.211
974.387, 65541.047
974.869, 65643.273
975.351, 65674.977
975.833, 65625.758
976.315, 65603.570
976.797, 65610.023
977.280, 65620.500
977.762, 65614.406
978.244, 65602.406
978.726, 65601.406
979.208, 65607.773
979.690, 65602.219
980.172, 65570.297
980.654, 65533.219
981.136, 65497.520
981.619, 65460.250
982.101, 65404.129
982.583, 65333.328
983.065, 65307.520
983.547, 65376.820
984.029, 65418.328
984.511, 65249.660
984.994, 65010.180
985.476, 64881.730
985.958, 64995.551
986.440, 65046.629
986.922, 65018.781
987.404, 64952.391
987.886, 64855.289
988.368, 64744.820
988.850, 64729.020
989.333, 64805.031
989.815, 64854.320
990.297, 64773.180
990.779, 64665.922
991.261, 64590.578
991.743, 64548.891
992.225, 64527.090
992.707, 64535.012
993.190, 64524.230
993.672, 64465.289
994.154, 64402.762
994.636, 64437.930
995.118, 64531.941
995.600, 64587.969
996.082, 64542.539
996.564, 64515.660
997.046, 64577.430
997.529, 64654.730
998.011, 64680.172
998.493, 64646.059
998.975, 64603.059
999.457, 64547.090
999.939, 64530.520
1000.421, 64643.430
1000.903, 64791.000
1001.385, 64848.898
1001.868, 64818.379
1002.350, 64816.328
1002.832, 64912.762
1003.314, 64979.270
1003.796, 64965.672
1004.278, 64908.191
1004.760, 64913.680
1005.242, 64975.059
1005.724, 65051.961
1006.207, 65153.102
1006.689, 65221.320
1007.171, 65216.512
1007.653, 65152.609
1008.135, 65040.852
1008.617, 64861.020
1009.099, 64690.430
1009.581, 64530.199
1010.064, 64378.230
1010.546, 64232.961
1011.028, 64096.570
1011.510, 63956.328
1011.992, 63815.809
1012.474, 63731.852
1012.956, 63812.488
1013.438, 63867.449
1013.920, 63789.301
1014.403, 63624.320
1014.885, 63549.000
1015.367, 63567.820
1015.849, 63548.879
1016.331, 63441.559
1016.813, 63306.738
1017.295, 63187.570
1017.777, 63097.988
1018.260, 63064.289
1018.742, 63134.789
1019.224, 63169.230
1019.706, 63144.398
1020.188, 63109.629
1020.670, 63109.820
1021.152, 63135.699
1021.634, 63128.398
1022.116, 63089.852
1022.599, 63056.129
1023.081, 63021.531
1023.563, 63023.969
1024.045, 63130.371
1024.527, 63294.031
1025.009, 63335.559
1025.491, 63217.910
1025.973, 63126.891
1026.455, 63110.379
1026.938, 63112.590
1027.420, 63054.840
1027.902, 62960.730
1028.384, 62863.750
1028.866, 62758.328
1029.348, 62699.250
1029.830, 62763.590
1030.312, 62810.551
1030.795, 62733.680
1031.277, 62548.230
1031.759, 62503.551
1032.241, 62591.328
1032.723, 62679.059
1033.205, 62710.641
1033.687, 62685.922
1034.169, 62542.578
1034.651, 62345.578
1035.134, 62276.090
1035.616, 62401.879
1036.098, 62491.430
1036.580, 62507.852
1037.062, 62491.309
1037.544, 62497.852
1038.026, 62508.469
1038.508, 62478.359
1038.990, 62395.180
1039.473, 62320.930
1039.955, 62305.711
1040.437, 62280.281
1040.919, 62198.738
1041.401, 62074.820
1041.883, 62039.012
1042.365, 62087.910
1042.847, 62102.941
1043.330, 62001.020
1043.812, 61881.340
1044.294, 61852.969
1044.776, 61867.621
1045.258, 61839.859
1045.740, 61709.641
1046.222, 61643.359
1046.704, 61663.891
1047.187, 61703.730
1047.669, 61698.641
1048.151, 61659.000
1048.633, 61598.219
1049.115, 61519.680
1049.597, 61457.000
1050.079, 61421.340
1050.561, 61411.879
1051.043, 61430.262
1051.526, 61472.148
1052.008, 61535.301
1052.490, 61618.422
1052.972, 61655.410
1053.454, 61615.691
1053.936, 61554.211
1054.418, 61500.160
1054.900, 61464.789
1055.382, 61467.109
1055.865, 61527.488
1056.347, 61563.531
1056.829, 61576.199
1057.311, 61557.039
1057.793, 61439.949
1058.275, 61340.223
1058.757, 61329.766
1059.239, 61297.625
1059.722, 61244.863
1060.204, 61110.324
1060.686, 61081.543
1061.168, 61010.387
1061.650, 60937.477
1062.132, 60923.598
1062.614, 60800.957
1063.096, 60786.141
1063.578, 60728.273
1064.061, 60689.980
1064.543, 60600.359
1065.025, 60643.180
1065.507, 60609.398
1065.989, 60489.270
1066.471, 60418.719
1066.953, 60406.051
1067.435, 60416.031
1067.917, 60451.281
1068.400, 60478.922
1068.882, 60410.301
1069.364, 60295.270
1069.846, 60236.180
1070.328, 60294.648
1070.810, 60355.172
1071.292, 60407.020
1071.774, 60438.609
1072.256, 60434.949
1072.739, 60397.699
1073.221, 60352.352
1073.703, 60299.449
1074.185, 60251.840
1074.667, 60239.520
1075.149, 60211.910
1075.631, 60109.781
1076.113, 59975.309
1076.596, 59921.078
1077.078, 59968.602
1077.560, 59994.621
1078.042, 59980.211
1078.524, 59954.859
1079.006, 59954.281
1079.488, 59962.172
1079.970, 59941.379
1080.453, 59880.488
1080.935, 59912.879
1081.417, 60140.988
1081.899, 60284.910
1082.381, 60209.941
1082.863, 60002.230
1083.345, 59866.980
1083.827, 59792.410
1084.309, 59744.750
1084.792, 59712.410
1085.274, 59700.109
1085.756, 59728.262
1086.238, 59760.641
1086.720, 59765.660
1087.202, 59741.250
1087.684, 59730.289
1088.166, 59732.891
1088.648, 59715.719
1089.131, 59619.801
1089.613, 59530.672
1090.095, 59539.988
1090.577, 59610.660
1091.059, 59617.520
1091.541, 59532.039
1092.023, 59464.172
1092.505, 59428.180
1092.988, 59418.250
1093.470, 59434.770
1093.952, 59468.910
1094.434, 59509.180
1094.916, 59553.391
1095.398, 59597.270
1095.880, 59642.730
1096.362, 59681.199
1096.844, 59712.289
1097.327, 59732.238
1097.809, 59732.891
1098.291, 59714.250
1098.773, 59672.148
1099.255, 59588.301
1099.737, 59525.629
1100.219, 59535.879
1100.701, 59563.539
1101.183, 59561.270
1101.666, 59527.609
1102.148, 59525.270
1102.630, 59553.910
1103.112, 59584.199
1103.594, 59566.391
1104.076, 59571.590
1104.558, 59675.512
1105.040, 59839.031
1105.523, 59975.621
1106.005, 60058.391
1106.487, 60177.430
1106.969, 60342.039
1107.451, 60529.262
1107.933, 60740.590
1108.415, 60947.180
1108.897, 61106.141
1109.380, 61217.820
1109.862, 61294.551
1110.344, 61271.000
1110.826, 61331.730
1111.308, 61534.430
1111.790, 61821.781
1112.272, 62089.109
1112.754, 62348.750
1113.236, 62627.371
1113.719, 62930.500
1114.201, 63248.629
1114.683, 63612.262
1115.165, 63946.520
1115.647, 64246.629
1116.129, 64486.910
1116.611, 64472.000
1117.093, 64214.199
1117.575, 63828.289
1118.058, 63330.281
1118.540, 62773.219
1119.022, 62106.949
1119.504, 61452.879
1119.986, 60967.270
1120.468, 60702.859
1120.950, 60355.141
1121.432, 59914.230
1121.915, 59502.910
1122.397, 59182.770
1122.879, 58953.020
1123.361, 58854.828
1123.843, 58847.898
1124.325, 58808.031
1124.807, 58707.531
1125.289, 58603.430
1125.771, 58494.090
1126.254, 58407.172
1126.736, 58394.270
1127.218, 58415.160
1127.700, 58405.289
1128.182, 58358.281
1128.664, 58292.648
1129.146, 58187.441
1129.628, 58100.289
1130.110, 58050.820
1130.593, 58016.551
1131.075, 57953.801
1131.557, 57868.109
1132.039, 57773.750
1132.521, 57666.922
1133.003, 57587.039
1133.485, 57572.730
1133.967, 57573.719
1134.450, 57579.711
1134.932, 57580.910
1135.414, 57487.859
1135.896, 57316.781
1136.378, 57177.660
1136.860, 57126.941
1137.342, 57097.430
1137.824, 57054.941
1138.307, 57007.641
1138.789, 56962.480
1139.271, 56917.891
1139.753, 56874.570
1140.235, 56830.590
1140.717, 56792.719
1141.199, 56782.680
1141.681, 56760.719
1142.163, 56665.160
1142.646, 56537.262
1143.128, 56477.961
1143.610, 56533.480
1144.092, 56504.750
1144.574, 56365.410
1145.056, 56221.750
1145.538, 56188.922
1146.020, 56198.781
1146.502, 56168.520
1146.985, 56100.988
1147.467, 56044.531
1147.949, 56025.109
1148.431, 55965.250
1148.913, 55830.090
1149.395, 55702.891
1149.877, 55720.230
1150.359, 55820.930
1150.842, 55901.301
1151.324, 55944.641
1151.806, 55974.078
1152.288, 55985.160
1152.770, 55994.449
1153.252, 56014.020
1153.734, 56024.090
1154.216, 55943.750
1154.698, 55820.078
1155.181, 55799.020
1155.663, 55964.680
1156.145, 56071.891
1156.627, 55982.012
1157.109, 55861.559
1157.591, 55786.949
1158.073, 55749.820
1158.555, 55711.648
1159.037, 55672.211
1159.520, 55627.051
1160.002, 55554.129
1160.484, 55507.359
1160.966, 55545.328
1161.448, 55591.500
1161.930, 55581.570
1162.412, 55515.059
1162.894, 55420.590
1163.376, 55301.172
1163.859, 55205.520
1164.341, 55195.980
1164.823, 55182.859
1165.305, 55090.539
1165.787, 54976.879
1166.269, 54935.898
1166.751, 54977.672
1167.233, 54996.539
1167.716, 54987.461
1168.198, 54958.160
1168.680, 54890.711
1169.162, 54827.469
1169.644, 54809.078
1170.126, 54821.422
1170.608, 54812.840
1171.090, 54776.051
1171.573, 54748.328
1172.055, 54731.559
1172.537, 54734.012
1173.019, 54789.051
1173.501, 54846.609
1173.983, 54843.910
1174.465, 54784.320
1174.947, 54776.340
1175.429, 54839.270
1175.911, 54872.211
1176.394, 54844.750
1176.876, 54801.469
1177.358, 54802.359
1177.840, 54815.930
1178.322, 54801.609
1178.804, 54750.711
1179.286, 54708.969
1179.768, 54682.559
1180.251, 54643.449
1180.733, 54561.699
1181.215, 54497.629
1181.697, 54594.730
1182.179, 54750.988
1182.661, 54795.039
1183.143, 54643.059
1183.625, 54548.480
1184.108, 54535.730
1184.590, 54539.379
1185.072, 54533.930
1185.554, 54514.328
1186.036, 54469.230
1186.518, 54403.410
1187.000, 54324.219
1187.482, 54204.750
1187.964, 54136.070
1188.447, 54137.789
1188.929, 54152.969
1189.411, 54144.141
1189.893, 54119.570
1190.375, 54099.641
1190.857, 54080.551
1191.339, 54049.738
1191.821, 53994.680
1192.303, 53939.789
1192.786, 53886.660
1193.268, 53834.789
1193.750, 53780.789
1194.232, 53727.828
1194.714, 53677.840
1195.196, 53635.141
1195.678, 53617.602
1196.160, 53675.660
1196.643, 53695.410
1197.125, 53654.500
1197.607, 53580.090
1198.089, 53472.738
1198.571, 53365.352
1199.053, 53374.840
1199.535, 53489.781
1200.017, 53545.672
1200.500, 53406.941
1200.982, 53293.039
1201.464, 53247.379
1201.946, 53257.781
1202.428, 53354.590
1202.910, 53484.770
1203.392, 53470.371
1203.874, 53296.941
1204.356, 53173.648
1204.839, 53237.520
1205.321, 53304.590
1205.803, 53331.559
1206.285, 53322.980
1206.767, 53267.090
1207.249, 53186.148
1207.731, 53144.551
1208.213, 53156.148
1208.695, 53175.160
1209.178, 53183.711
1209.660, 53197.609
1210.142, 53226.789
1210.624, 53259.578
1211.106, 53268.828
1211.588, 53257.461
1212.070, 53233.809
1212.552, 53199.359
1213.035, 53151.461
1213.517, 53059.672
1213.999, 52993.609
1214.481, 52993.102
1214.963, 53030.422
1215.445, 53041.281
1215.927, 53023.641
1216.409, 52966.090
1216.891, 52849.309
1217.374, 52747.949
1217.856, 52676.129
1218.338, 52639.910
1218.820, 52661.539
1219.302, 52712.359
1219.784, 52691.750
1220.266, 52619.969
1220.748, 52554.328
1221.230, 52512.129
1221.713, 52480.020
1222.195, 52454.422
1222.677, 52436.461
1223.159, 52422.621
1223.641, 52417.801
1224.123, 52456.520
1224.605, 52519.078
1225.087, 52547.250
1225.570, 52487.301
1226.052, 52447.602
1226.534, 52458.371
1227.016, 52467.270
1227.498, 52416.102
1227.980, 52337.852
1228.462, 52349.051
1228.944, 52423.129
1229.427, 52476.199
1229.909, 52460.379
1230.391, 52443.871
1230.873, 52432.609
1231.355, 52428.238
1231.837, 52443.801
1232.319, 52464.031
1232.801, 52441.000
1233.283, 52386.871
1233.766, 52344.852
1234.248, 52331.949
1234.730, 52331.961
1235.212, 52346.191
1235.694, 52363.391
1236.176, 52364.941
1236.658, 52364.141
1237.140, 52416.590
1237.622, 52495.172
1238.105, 52495.328
1238.587, 52290.320
1239.069, 52166.422
1239.551, 52163.500
1240.033, 52193.531
1240.515, 52169.961
1240.997, 52119.629
1241.479, 52091.391
1241.962, 52079.738
1242.444, 52043.430
1242.926, 51943.891
1243.408, 51900.180
1243.890, 51940.578
1244.372, 51981.090
1244.854, 51885.551
1245.336, 51767.398
1245.818, 51813.441
1246.301, 51988.309
1246.783, 52061.531
1247.265, 51968.289
1247.747, 51923.691
1248.229, 51965.379
1248.711, 52004.570
1249.193, 51928.770
1249.675, 51818.141
1250.157, 51753.059
1250.640, 51735.129
1251.122, 51735.309
1251.604, 51766.090
1252.086, 51755.672
1252.568, 51690.449
1253.050, 51610.789
1253.532, 51522.980
1254.014, 51465.012
1254.496, 51486.988
1254.979, 51574.461
1255.461, 51659.039
1255.943, 51746.629
1256.425, 51731.859
1256.907, 51582.121
1257.389, 51452.078
1257.871, 51515.301
1258.353, 51610.480
1258.836, 51612.820
1259.318, 51544.820
1259.800, 51477.699
1260.282, 51410.910
1260.764, 51323.281
1261.246, 51207.430
1261.728, 51123.719
1262.210, 51169.559
1262.693, 51207.930
1263.175, 51146.270
1263.657, 51027.309
1264.139, 50955.469
1264.621, 50926.910
1265.103, 50914.602
1265.585, 50915.750
1266.067, 50918.699
1266.549, 50915.172
1267.031, 50912.012
1267.514, 50895.441
1267.996, 50893.430
1268.478, 51007.559
1268.960, 51189.289
1269.442, 51258.750
1269.924, 51174.148
1270.406, 51112.340
1270.888, 51163.020
1271.371, 51223.609
1271.853, 51268.141
1272.335, 51297.891
1272.817, 51316.250
1273.299, 51321.672
1273.781, 51307.180
1274.263, 51270.578
1274.745, 51244.570
1275.228, 51250.109
1275.710, 51239.422
1276.192, 51197.199
1276.674, 51142.898
1277.156, 51107.059
1277.638, 51080.301
1278.120, 51050.531
1278.602, 51017.430
1279.084, 50967.891
1279.567, 50890.488
1280.049, 50847.738
1280.531, 50864.840
1281.013, 50897.211
1281.495, 50898.270
1281.977, 50880.711
1282.459, 50854.328
1282.941, 50819.809
1283.423, 50778.020
1283.906, 50722.750
1284.388, 50734.672
1284.870, 50851.648
1285.352, 50952.148
1285.834, 50878.930
1286.316, 50782.879
1286.798, 50802.488
1287.280, 50902.762
1287.763, 50931.738
1288.245, 50894.270
1288.727, 50856.988
1289.209, 50837.121
1289.691, 50810.262
1290.173, 50747.371
1290.655, 50690.281
1291.137, 50663.949
1291.620, 50657.230
1292.102, 50620.641
1292.584, 50564.430
1293.066, 50581.750
1293.548, 50699.539
1294.030, 50753.789
1294.512, 50579.590
1294.994, 50459.691
1295.476, 50495.480
1295.958, 50593.340
1296.441, 50604.000
1296.923, 50556.281
1297.405, 50564.621
1297.887, 50603.012
1298.369, 50588.441
1298.851, 50670.051
1299.333, 50708.578
1299.815, 50658.859
1300.298, 50578.371
1300.780, 50522.691
##END=



