##NAMES=Alumoklyuchevskite
##RRUFFID=R070041
##IDEAL CHEMISTRY=K_3_Cu^2+^_3_AlO_2_(S^6+^O_4_)_4_
##LOCALITY=main fracture, N breakthrough, Tolbachik Volcano, Kamchatka Peninsula, Russia
##OWNER=RRUFF
##SOURCE=Michael Scott
##DESCRIPTION=Green blebs to prismatic or needle-like crystals associated with vergasovaite, co-type material
##STATUS=The identification of this mineral has been confirmed by single-crystal X-ray diffraction.
##URL=rruff.info/R070041
162.3005, 4215.655
162.7826, 4185.992
163.2647, 4181.194
163.7468, 4244.415
164.2289, 4321.171
164.7111, 4370.354
165.1932, 4379.294
165.6753, 4375.544
166.1574, 4368.056
166.6395, 4359.896
167.1216, 4360.649
167.6038, 4387.598
168.0859, 4421.675
168.5680, 4441.203
169.0501, 4432.739
169.5322, 4418.432
170.0143, 4418.521
170.4965, 4431.099
170.9786, 4442.050
171.4607, 4432.262
171.9428, 4415.511
172.4249, 4414.433
172.9070, 4454.159
173.3892, 4503.615
173.8713, 4521.973
174.3534, 4508.411
174.8355, 4493.846
175.3176, 4511.050
175.7997, 4549.286
176.2818, 4580.753
176.7640, 4593.575
177.2461, 4591.916
177.7282, 4578.781
178.2103, 4508.965
178.6924, 4560.662
179.1745, 4589.313
179.6567, 4596.159
180.1388, 4515.885
180.6209, 4548.107
181.1030, 4535.246
181.5851, 4520.536
182.0672, 4568.592
182.5494, 4500.989
183.0315, 4548.049
183.5136, 4549.338
183.9957, 4571.576
184.4778, 4548.451
184.9599, 4539.337
185.4421, 4575.600
185.9242, 4586.737
186.4063, 4558.391
186.8884, 4581.959
187.3705, 4512.771
187.8526, 4524.979
188.3348, 4572.304
188.8169, 4546.238
189.2990, 4531.856
189.7811, 4542.682
190.2632, 4559.504
190.7453, 4563.468
191.2275, 4551.701
191.7096, 4542.014
192.1917, 4554.157
192.6738, 4588.511
193.1559, 4628.405
193.6380, 4670.357
194.1202, 4713.959
194.6023, 4759.167
195.0844, 4807.289
195.5665, 4852.795
196.0486, 4884.780
196.5307, 4901.308
197.0129, 4922.766
197.4950, 4959.789
197.9771, 5012.769
198.4592, 5061.101
198.9413, 5104.852
199.4234, 5143.874
199.9055, 5170.909
200.3877, 5179.524
200.8698, 5206.592
201.3519, 5280.506
201.8340, 5409.246
202.3161, 5511.382
202.7982, 5580.179
203.2804, 5623.546
203.7625, 5655.836
204.2446, 5671.260
204.7267, 5693.358
205.2088, 5737.549
205.6909, 5806.759
206.1731, 5880.986
206.6552, 5961.134
207.1373, 6044.415
207.6194, 6119.193
208.1015, 6181.751
208.5836, 6242.590
209.0658, 6314.445
209.5479, 6406.600
210.0300, 6470.913
210.5121, 6489.239
210.9942, 6470.550
211.4763, 6486.184
211.9585, 6548.203
212.4406, 6625.049
212.9227, 6690.936
213.4048, 6747.745
213.8869, 6789.097
214.3690, 6808.750
214.8512, 6806.956
215.3333, 6821.271
215.8154, 6865.813
216.2975, 6909.078
216.7796, 6915.169
217.2617, 6869.791
217.7439, 6818.319
218.2260, 6766.993
218.7081, 6714.837
219.1902, 6680.159
219.6723, 6673.186
220.1544, 6674.453
220.6366, 6658.888
221.1187, 6626.833
221.6008, 6576.863
222.0829, 6503.750
222.5650, 6398.767
223.0471, 6311.916
223.5293, 6256.850
224.0114, 6210.655
224.4935, 6129.126
224.9756, 5991.696
225.4577, 5854.960
225.9398, 5743.551
226.4220, 5668.134
226.9041, 5583.276
227.3862, 5486.710
227.8683, 5381.824
228.3504, 5277.872
228.8325, 5174.087
229.3147, 5072.176
229.7968, 4974.984
230.2789, 4883.741
230.7610, 4793.021
231.2431, 4700.416
231.7252, 4608.098
232.2074, 4521.685
232.6895, 4440.045
233.1716, 4364.441
233.6537, 4296.211
234.1358, 4241.569
234.6179, 4182.067
235.1001, 4112.252
235.5822, 4036.468
236.0643, 3972.284
236.5464, 3924.847
237.0285, 3882.445
237.5106, 3838.918
237.9928, 3797.188
238.4749, 3748.269
238.9570, 3682.959
239.4391, 3607.212
239.9212, 3563.363
240.4033, 3573.931
240.8855, 3589.421
241.3676, 3574.047
241.8497, 3508.954
242.3318, 3451.457
242.8139, 3406.424
243.2960, 3373.869
243.7781, 3356.600
244.2603, 3368.604
244.7424, 3380.038
245.2245, 3363.701
245.7066, 3294.455
246.1887, 3248.506
246.6708, 3248.697
247.1530, 3291.799
247.6351, 3293.267
248.1172, 3229.081
248.5993, 3149.961
249.0814, 3101.570
249.5635, 3098.584
250.0457, 3097.175
250.5278, 3091.638
251.0099, 3081.998
251.4920, 3063.315
251.9741, 3028.964
252.4562, 2993.222
252.9384, 2971.448
253.4205, 2970.917
253.9026, 2968.801
254.3847, 2959.004
254.8668, 2940.843
255.3489, 2929.886
255.8311, 2929.935
256.3132, 2932.793
256.7953, 2929.749
257.2774, 2920.481
257.7595, 2905.859
258.2416, 2885.737
258.7238, 2859.621
259.2059, 2832.005
259.6880, 2802.583
260.1701, 2771.741
260.6522, 2737.847
261.1343, 2697.448
261.6165, 2663.553
262.0986, 2638.856
262.5807, 2623.077
263.0628, 2622.949
263.5449, 2646.674
264.0270, 2675.807
264.5092, 2683.063
264.9913, 2659.104
265.4734, 2641.513
265.9555, 2647.078
266.4376, 2678.438
266.9197, 2687.532
267.4019, 2666.898
267.8840, 2633.920
268.3661, 2614.129
268.8482, 2610.664
269.3303, 2608.863
269.8124, 2603.317
270.2946, 2593.659
270.7767, 2586.615
271.2588, 2581.009
271.7409, 2579.646
272.2230, 2590.125
272.7051, 2616.142
273.1873, 2635.563
273.6694, 2637.874
274.1515, 2622.359
274.6336, 2607.897
275.1157, 2592.310
275.5978, 2581.671
276.0800, 2593.831
276.5620, 2634.705
277.0442, 2656.761
277.5263, 2628.399
278.0084, 2550.125
278.4905, 2509.831
278.9726, 2516.391
279.4547, 2539.967
279.9369, 2531.550
280.4190, 2488.596
280.9011, 2453.820
281.3832, 2444.948
281.8653, 2461.010
282.3474, 2496.145
282.8296, 2557.784
283.3117, 2617.203
283.7938, 2625.933
284.2759, 2584.363
284.7580, 2540.863
285.2401, 2521.619
285.7223, 2521.379
286.2044, 2502.615
286.6865, 2460.682
287.1686, 2415.116
287.6507, 2392.955
288.1328, 2392.847
288.6150, 2401.778
289.0971, 2416.975
289.5792, 2436.890
290.0613, 2460.449
290.5434, 2490.994
291.0255, 2510.287
291.5077, 2482.530
291.9898, 2415.906
292.4719, 2361.512
292.9540, 2350.421
293.4361, 2368.356
293.9182, 2380.312
294.4004, 2385.132
294.8825, 2384.752
295.3646, 2379.655
295.8467, 2370.779
296.3288, 2361.504
296.8109, 2350.636
297.2931, 2341.129
297.7752, 2341.085
298.2573, 2352.068
298.7394, 2362.232
299.2215, 2359.087
299.7036, 2345.539
300.1858, 2329.309
300.6679, 2300.627
301.1500, 2276.752
301.6321, 2288.906
302.1142, 2341.958
302.5963, 2391.544
303.0785, 2394.770
303.5606, 2367.015
304.0427, 2338.504
304.5248, 2322.406
305.0069, 2311.884
305.4890, 2302.851
305.9712, 2295.329
306.4533, 2283.242
306.9354, 2248.230
307.4175, 2207.756
307.8996, 2189.430
308.3817, 2231.287
308.8639, 2280.893
309.3460, 2296.520
309.8281, 2275.612
310.3102, 2252.432
310.7923, 2250.665
311.2744, 2257.019
311.7566, 2254.806
312.2387, 2225.130
312.7208, 2195.673
313.2029, 2179.170
313.6850, 2176.146
314.1671, 2185.769
314.6493, 2227.085
315.1314, 2273.385
315.6135, 2297.071
316.0956, 2267.477
316.5777, 2234.383
317.0598, 2218.861
317.5420, 2221.192
318.0241, 2217.371
318.5062, 2190.531
318.9883, 2159.327
319.4704, 2139.353
319.9525, 2143.409
320.4347, 2149.253
320.9168, 2145.311
321.3989, 2132.810
321.8810, 2140.798
322.3631, 2201.710
322.8452, 2268.648
323.3273, 2309.123
323.8094, 2301.221
324.2916, 2287.552
324.7737, 2269.582
325.2558, 2247.943
325.7379, 2231.255
326.2200, 2220.210
326.7021, 2213.879
327.1843, 2212.350
327.6664, 2231.034
328.1485, 2232.703
328.6306, 2202.013
329.1127, 2147.798
329.5948, 2121.863
330.0770, 2145.881
330.5591, 2174.748
331.0412, 2181.143
331.5233, 2148.822
332.0054, 2129.518
332.4875, 2130.927
332.9697, 2146.786
333.4518, 2156.520
333.9339, 2161.409
334.4160, 2157.821
334.8981, 2139.597
335.3802, 2098.238
335.8624, 2075.182
336.3445, 2076.266
336.8266, 2093.589
337.3087, 2112.278
337.7908, 2135.821
338.2729, 2147.088
338.7551, 2128.050
339.2372, 2075.885
339.7193, 2049.874
340.2014, 2057.624
340.6835, 2083.597
341.1656, 2102.087
341.6478, 2113.066
342.1299, 2119.956
342.6120, 2126.243
343.0941, 2130.823
343.5762, 2121.519
344.0583, 2093.901
344.5405, 2067.038
345.0226, 2075.561
345.5047, 2113.902
345.9868, 2139.382
346.4689, 2119.389
346.9510, 2073.750
347.4332, 2055.125
347.9153, 2066.012
348.3974, 2084.799
348.8795, 2089.362
349.3616, 2083.888
349.8438, 2079.843
350.3259, 2083.481
350.8080, 2090.504
351.2901, 2095.489
351.7722, 2098.420
352.2543, 2100.525
352.7365, 2101.605
353.2186, 2102.646
353.7007, 2105.231
354.1828, 2111.240
354.6649, 2117.881
355.1470, 2125.664
355.6292, 2133.769
356.1113, 2135.403
356.5934, 2119.564
357.0755, 2098.358
357.5576, 2083.569
358.0397, 2078.489
358.5219, 2080.533
359.0040, 2090.529
359.4861, 2107.326
359.9682, 2126.041
360.4503, 2153.375
360.9324, 2176.632
361.4146, 2187.151
361.8967, 2176.364
362.3788, 2163.115
362.8609, 2151.546
363.3430, 2140.785
363.8251, 2128.489
364.3073, 2098.126
364.7894, 2079.200
365.2715, 2086.330
365.7536, 2140.249
366.2357, 2183.607
366.7178, 2215.125
367.1999, 2234.281
367.6820, 2239.555
368.1642, 2220.777
368.6463, 2199.666
369.1284, 2179.783
369.6105, 2157.172
370.0926, 2152.849
370.5747, 2175.726
371.0569, 2210.233
371.5390, 2238.134
372.0211, 2261.361
372.5032, 2273.067
372.9853, 2267.394
373.4674, 2244.031
373.9496, 2233.145
374.4317, 2240.772
374.9138, 2248.754
375.3959, 2232.735
375.8780, 2188.041
376.3601, 2157.375
376.8423, 2151.903
377.3244, 2167.200
377.8065, 2188.908
378.2886, 2218.927
378.7707, 2243.336
379.2528, 2243.083
379.7350, 2223.127
380.2171, 2218.097
380.6992, 2239.615
381.1813, 2272.485
381.6634, 2286.799
382.1455, 2284.536
382.6277, 2286.993
383.1098, 2320.407
383.5919, 2366.796
384.0740, 2388.594
384.5561, 2374.427
385.0382, 2351.666
385.5204, 2349.048
386.0025, 2361.502
386.4846, 2374.636
386.9667, 2383.675
387.4488, 2388.229
387.9309, 2381.556
388.4131, 2358.738
388.8952, 2352.358
389.3773, 2403.437
389.8594, 2479.923
390.3415, 2535.141
390.8236, 2528.502
391.3058, 2513.270
391.7879, 2512.064
392.2700, 2526.188
392.7521, 2553.294
393.2342, 2605.181
393.7163, 2663.950
394.1985, 2713.115
394.6806, 2751.486
395.1627, 2777.021
395.6448, 2777.163
396.1269, 2755.599
396.6090, 2758.291
397.0912, 2817.168
397.5733, 2880.380
398.0554, 2920.137
398.5375, 2919.406
399.0196, 2920.158
399.5017, 2918.783
399.9839, 2920.022
400.4660, 2941.206
400.9481, 2997.227
401.4302, 3048.492
401.9123, 3074.514
402.3944, 3065.806
402.8766, 3071.100
403.3587, 3096.098
403.8408, 3127.889
404.3229, 3143.630
404.8050, 3140.818
405.2871, 3137.913
405.7693, 3139.460
406.2514, 3146.074
406.7335, 3168.545
407.2156, 3210.612
407.6977, 3249.629
408.1798, 3253.661
408.6620, 3228.725
409.1441, 3209.178
409.6262, 3187.786
410.1083, 3195.096
410.5904, 3192.805
411.0725, 3181.427
411.5546, 3133.750
412.0367, 3132.946
412.5189, 3113.355
413.0010, 3092.996
413.4831, 3098.790
413.9652, 3056.392
414.4473, 3061.769
414.9294, 3089.826
415.4116, 3100.676
415.8937, 3046.514
416.3758, 2975.965
416.8579, 2927.044
417.3400, 2911.988
417.8221, 2896.449
418.3043, 2860.315
418.7864, 2815.726
419.2685, 2780.854
419.7506, 2776.259
420.2327, 2767.822
420.7148, 2739.318
421.1970, 2686.026
421.6791, 2644.558
422.1612, 2631.801
422.6433, 2625.882
423.1254, 2608.048
423.6075, 2562.392
424.0897, 2525.957
424.5718, 2507.717
425.0539, 2504.243
425.5360, 2464.750
426.0181, 2479.044
426.5002, 2481.218
426.9824, 2471.961
427.4645, 2414.990
427.9466, 2421.203
428.4287, 2403.053
428.9108, 2384.561
429.3929, 2401.623
429.8751, 2355.114
430.3572, 2372.992
430.8393, 2366.126
431.3214, 2371.583
431.8035, 2352.523
432.2856, 2341.932
432.7678, 2357.233
433.2499, 2359.261
433.7320, 2340.039
434.2141, 2350.343
434.6962, 2309.800
435.1783, 2315.161
435.6605, 2340.717
436.1426, 2326.184
436.6247, 2311.814
437.1068, 2308.701
437.5889, 2329.293
438.0710, 2340.282
438.5532, 2342.185
439.0353, 2307.789
439.5174, 2320.266
439.9995, 2313.958
440.4816, 2306.880
440.9637, 2325.954
441.4459, 2296.837
441.9280, 2315.497
442.4101, 2315.085
442.8922, 2323.402
443.3743, 2312.818
443.8564, 2308.072
444.3386, 2322.232
444.8207, 2325.923
445.3028, 2313.164
445.7849, 2279.724
446.2670, 2334.569
446.7491, 2366.370
447.2313, 2376.364
447.7134, 2299.239
448.1955, 2334.610
448.6776, 2324.898
449.1597, 2313.337
449.6418, 2364.541
450.1240, 2300.087
450.6061, 2350.297
451.0882, 2354.734
451.5703, 2380.121
452.0524, 2360.145
452.5345, 2354.180
453.0167, 2393.592
453.4988, 2407.878
453.9809, 2382.680
454.4630, 2409.398
454.9451, 2343.360
455.4272, 2418.556
455.9094, 2450.017
456.3914, 2459.670
456.8736, 2382.204
457.3557, 2417.235
457.8378, 2407.182
458.3199, 2395.281
458.8020, 2446.145
459.2841, 2381.350
459.7663, 2431.219
460.2484, 2435.316
460.7305, 2460.362
461.2126, 2440.045
461.6947, 2433.740
462.1768, 2472.811
462.6590, 2486.757
463.1411, 2461.219
463.6232, 2487.596
464.1053, 2421.217
464.5874, 2436.233
465.0695, 2486.367
465.5517, 2463.110
466.0338, 2490.316
466.5159, 2498.303
466.9980, 2418.946
467.4801, 2491.490
467.9622, 2498.341
468.4444, 2437.741
468.9265, 2505.080
469.4086, 2453.779
469.8907, 2444.824
470.3728, 2467.740
470.8549, 2457.432
471.3371, 2499.504
471.8192, 2455.743
472.3013, 2473.101
472.7834, 2490.611
473.2655, 2487.609
473.7477, 2471.062
474.2298, 2466.057
474.7119, 2474.509
475.1940, 2483.778
475.6761, 2479.558
476.1582, 2466.763
476.6404, 2456.290
477.1225, 2458.832
477.6046, 2459.076
478.0867, 2441.192
478.5688, 2407.800
479.0509, 2349.142
479.5331, 2370.331
480.0152, 2378.720
480.4973, 2374.993
480.9794, 2322.867
481.4615, 2333.240
481.9436, 2318.565
482.4258, 2302.862
482.9079, 2322.030
483.3900, 2276.944
483.8721, 2295.559
484.3542, 2288.746
484.8363, 2293.571
485.3185, 2273.192
485.8006, 2260.600
486.2827, 2273.217
486.7648, 2271.875
487.2469, 2248.598
487.7290, 2205.730
488.2112, 2168.386
488.6933, 2133.240
489.1754, 2136.515
489.6575, 2183.333
490.1396, 2220.910
490.6217, 2208.304
491.1039, 2158.839
491.5860, 2139.304
492.0681, 2156.533
492.5502, 2175.959
493.0323, 2151.795
493.5144, 2099.949
493.9966, 2060.558
494.4787, 2055.240
494.9608, 2062.893
495.4429, 2064.328
495.9250, 2061.007
496.4071, 2061.071
496.8893, 2066.577
497.3714, 2078.735
497.8535, 2100.296
498.3356, 2139.776
498.8177, 2171.128
499.2998, 2186.906
499.7820, 2190.191
500.2641, 2186.349
500.7462, 2162.469
501.2283, 2145.752
501.7104, 2146.772
502.1925, 2166.581
502.6746, 2172.503
503.1567, 2156.919
503.6389, 2137.066
504.1210, 2127.286
504.6031, 2131.258
505.0852, 2128.376
505.5673, 2114.212
506.0494, 2094.731
506.5316, 2080.613
507.0137, 2071.822
507.4958, 2071.127
507.9779, 2089.656
508.4600, 2117.545
508.9421, 2121.925
509.4243, 2101.077
509.9064, 2072.549
510.3885, 2044.594
510.8706, 2021.269
511.3527, 2010.615
511.8348, 2023.690
512.3170, 2039.488
512.7991, 2043.492
513.2812, 2037.686
513.7633, 2028.753
514.2454, 2014.366
514.7275, 2001.573
515.2097, 1995.014
515.6918, 1997.369
516.1739, 1998.599
516.6560, 1994.747
517.1381, 1990.003
517.6202, 1968.253
518.1024, 1992.929
518.5845, 2004.803
519.0666, 2004.562
519.5487, 1955.922
520.0308, 1969.780
520.5129, 1958.591
520.9951, 1946.374
521.4772, 1969.029
521.9593, 1927.428
522.4414, 1949.529
522.9235, 1946.201
523.4056, 1954.512
523.8878, 1937.620
524.3699, 1928.514
524.8520, 1944.616
525.3341, 1946.759
525.8162, 1886.673
526.2983, 1884.212
526.7805, 1905.976
527.2626, 1925.441
527.7447, 1921.059
528.2268, 1908.948
528.7089, 1905.318
529.1910, 1918.276
529.6732, 1903.672
530.1553, 1930.725
530.6374, 1945.034
531.1195, 1947.287
531.6016, 1901.200
532.0837, 1917.669
532.5659, 1909.151
533.0480, 1899.665
533.5301, 1925.107
534.0122, 1886.353
534.4943, 1911.360
534.9764, 1910.997
535.4586, 1922.331
535.9407, 1908.523
536.4228, 1902.558
536.9049, 1921.860
537.3870, 1927.263
537.8691, 1910.789
538.3513, 1923.216
538.8334, 1884.171
539.3155, 1890.404
539.7976, 1916.205
540.2797, 1901.293
540.7618, 1914.475
541.2440, 1917.038
541.7261, 1871.136
542.2082, 1909.682
542.6903, 1911.791
543.1724, 1876.485
543.6545, 1912.316
544.1367, 1882.295
544.6188, 1875.858
545.1009, 1887.186
545.5830, 1880.115
546.0651, 1902.203
546.5472, 1896.316
547.0294, 1887.983
547.5115, 1890.640
547.9936, 1862.382
548.4757, 1867.948
548.9578, 1850.102
549.4399, 1846.778
549.9221, 1863.522
550.4042, 1889.507
550.8863, 1905.715
551.3684, 1911.909
551.8505, 1911.115
552.3326, 1898.000
552.8148, 1880.151
553.2969, 1888.316
553.7790, 1921.425
554.2611, 1946.819
554.7432, 1928.142
555.2253, 1888.433
555.7075, 1861.513
556.1896, 1854.116
556.6717, 1859.676
557.1538, 1884.395
557.6359, 1917.267
558.1180, 1939.765
558.6002, 1945.017
559.0823, 1939.467
559.5644, 1917.491
560.0465, 1879.285
560.5286, 1859.981
561.0107, 1875.935
561.4929, 1897.675
561.9750, 1909.350
562.4571, 1905.703
562.9392, 1906.477
563.4213, 1914.677
563.9034, 1924.012
564.3856, 1922.644
564.8677, 1909.637
565.3498, 1901.107
565.8319, 1906.588
566.3140, 1917.470
566.7961, 1903.723
567.2783, 1867.676
567.7604, 1845.183
568.2424, 1885.468
568.7245, 1945.283
569.2067, 1959.839
569.6888, 1910.817
570.1709, 1860.545
570.6530, 1843.595
571.1351, 1850.895
571.6172, 1870.517
572.0994, 1918.309
572.5815, 1957.532
573.0636, 1975.218
573.5457, 1973.997
574.0278, 1972.575
574.5099, 1973.271
574.9921, 1971.878
575.4742, 1965.940
575.9563, 1954.082
576.4384, 1943.975
576.9205, 1934.517
577.4026, 1929.278
577.8848, 1936.567
578.3669, 1955.843
578.8490, 1964.584
579.3311, 1952.194
579.8132, 1934.152
580.2953, 1938.772
580.7775, 1962.750
581.2596, 1990.225
581.7417, 2020.828
582.2238, 2045.242
582.7059, 2050.694
583.1880, 2035.801
583.6702, 2020.427
584.1523, 2016.172
584.6344, 2015.221
585.1165, 2010.608
585.5986, 1991.195
586.0807, 1980.387
586.5629, 1984.422
587.0450, 1998.085
587.5271, 2011.217
588.0092, 2020.945
588.4913, 2036.181
588.9734, 2064.487
589.4556, 2103.469
589.9377, 2120.180
590.4198, 2112.281
590.9019, 2093.607
591.3840, 2069.723
591.8661, 2043.273
592.3483, 2025.392
592.8304, 2017.451
593.3125, 2017.576
593.7946, 2030.524
594.2767, 2049.606
594.7589, 2061.228
595.2410, 2049.703
595.7231, 2037.632
596.2052, 2039.001
596.6873, 2052.008
597.1694, 2066.500
597.6516, 2087.422
598.1337, 2102.708
598.6158, 2105.672
599.0979, 2093.303
599.5800, 2077.504
600.0621, 2054.841
600.5443, 2032.427
601.0264, 2016.671
601.5085, 2007.390
601.9906, 2007.264
602.4727, 2020.985
602.9548, 2039.074
603.4370, 2041.261
603.9191, 2027.936
604.4012, 2006.392
604.8833, 1971.710
605.3654, 1934.536
605.8475, 1910.576
606.3297, 1900.163
606.8118, 1897.936
607.2939, 1906.511
607.7760, 1918.427
608.2581, 1928.029
608.7402, 1939.117
609.2224, 1937.664
609.7045, 1899.723
610.1866, 1851.839
610.6687, 1839.584
611.1508, 1906.362
611.6329, 1945.004
612.1151, 1924.751
612.5972, 1836.885
613.0793, 1863.439
613.5614, 1877.408
614.0435, 1879.480
614.5256, 1833.370
615.0078, 1849.976
615.4899, 1841.753
615.9720, 1832.721
616.4541, 1858.776
616.9362, 1820.795
617.4183, 1846.733
617.9005, 1847.460
618.3826, 1860.042
618.8647, 1847.642
619.3468, 1843.243
619.8289, 1864.271
620.3110, 1871.558
620.7932, 1857.127
621.2753, 1871.756
621.7574, 1835.071
622.2395, 1843.824
622.7216, 1872.304
623.2037, 1860.229
623.6859, 1876.408
624.1680, 1882.126
624.6501, 1839.538
625.1322, 1881.556
625.6143, 1887.297
626.0964, 1855.782
626.5786, 1895.563
627.0607, 1869.650
627.5428, 1867.480
628.0249, 1883.234
628.5070, 1861.274
628.9891, 1886.534
629.4713, 1902.193
629.9534, 1908.766
630.4355, 1879.038
630.9176, 1896.184
631.3997, 1894.546
631.8818, 1892.137
632.3640, 1915.881
632.8461, 1891.434
633.3282, 1914.762
633.8103, 1919.020
634.2924, 1932.005
634.7745, 1926.090
635.2567, 1926.014
635.7388, 1944.843
636.2209, 1953.204
636.7030, 1945.114
637.1851, 1958.654
637.6672, 1948.379
638.1494, 1955.836
638.6315, 1959.542
639.1136, 1960.649
639.5957, 1964.708
640.0778, 1972.062
640.5599, 2002.504
641.0421, 2023.347
641.5242, 2035.101
642.0063, 2010.556
642.4884, 2032.885
642.9705, 2036.430
643.4526, 2039.203
643.9348, 2068.132
644.4169, 2062.365
644.8990, 2072.020
645.3811, 2071.548
645.8632, 2062.276
646.3453, 2040.817
646.8275, 2024.477
647.3096, 2017.960
647.7917, 2018.677
648.2738, 2026.718
648.7559, 2040.268
649.2380, 2037.881
649.7202, 1989.264
650.2023, 1925.000
650.6844, 1886.361
651.1665, 1875.551
651.6486, 1875.659
652.1307, 1884.264
652.6129, 1895.297
653.0950, 1904.386
653.5771, 1916.340
654.0592, 1916.252
654.5413, 1890.243
655.0234, 1856.601
655.5056, 1840.272
655.9877, 1850.922
656.4698, 1853.804
656.9519, 1840.040
657.4340, 1815.081
657.9161, 1794.194
658.3982, 1777.299
658.8803, 1766.820
659.3624, 1767.070
659.8445, 1773.540
660.3267, 1778.174
660.8088, 1780.847
661.2909, 1783.062
661.7730, 1786.144
662.2551, 1789.076
662.7372, 1791.422
663.2194, 1794.521
663.7015, 1793.469
664.1836, 1777.447
664.6657, 1760.832
665.1478, 1762.323
665.6299, 1798.054
666.1121, 1820.611
666.5942, 1820.196
667.0763, 1804.904
667.5584, 1796.572
668.0405, 1795.730
668.5226, 1793.229
669.0048, 1785.816
669.4869, 1773.460
669.9690, 1750.782
670.4511, 1719.438
670.9332, 1698.801
671.4153, 1717.213
671.8975, 1743.883
672.3796, 1746.037
672.8617, 1711.315
673.3438, 1687.373
673.8259, 1704.503
674.3080, 1731.563
674.7902, 1737.148
675.2723, 1698.814
675.7544, 1679.116
676.2365, 1690.418
676.7186, 1715.661
677.2007, 1718.276
677.6829, 1695.773
678.1650, 1679.520
678.6471, 1681.653
679.1292, 1695.410
679.6113, 1712.748
680.0934, 1731.407
680.5756, 1736.254
681.0577, 1701.762
681.5398, 1660.118
682.0219, 1642.843
682.5040, 1654.144
682.9861, 1659.980
683.4683, 1638.275
683.9504, 1613.692
684.4325, 1605.202
684.9146, 1626.125
685.3967, 1636.121
685.8788, 1629.320
686.3610, 1618.372
686.8431, 1622.780
687.3252, 1644.095
687.8073, 1656.528
688.2894, 1651.694
688.7715, 1639.265
689.2537, 1637.944
689.7358, 1644.597
690.2179, 1647.736
690.7000, 1634.973
691.1821, 1621.507
691.6642, 1623.694
692.1464, 1639.091
692.6285, 1645.861
693.1106, 1625.590
693.5927, 1604.225
694.0748, 1597.368
694.5569, 1594.471
695.0391, 1617.042
695.5212, 1630.010
696.0033, 1633.892
696.4854, 1601.475
696.9675, 1615.931
697.4496, 1611.603
697.9318, 1606.504
698.4139, 1627.557
698.8960, 1600.420
699.3781, 1621.058
699.8602, 1622.625
700.3423, 1632.921
700.8245, 1624.316
701.3066, 1621.549
701.7887, 1637.689
702.2708, 1643.359
702.7529, 1632.579
703.2350, 1643.429
703.7172, 1615.631
704.1993, 1621.748
704.6814, 1642.497
705.1635, 1632.667
705.6456, 1643.863
706.1277, 1647.051
706.6099, 1613.846
707.0920, 1643.932
707.5741, 1646.647
708.0562, 1626.712
708.5383, 1612.410
709.0204, 1589.861
709.5026, 1562.830
709.9847, 1525.641
710.4668, 1504.903
710.9489, 1535.462
711.4310, 1582.442
711.9131, 1602.481
712.3953, 1546.422
712.8774, 1517.216
713.3595, 1537.000
713.8416, 1583.032
714.3237, 1598.163
714.8058, 1576.871
715.2880, 1555.676
715.7701, 1546.690
716.2522, 1546.403
716.7343, 1547.417
717.2164, 1549.310
717.6985, 1548.948
718.1807, 1542.821
718.6628, 1534.493
719.1449, 1525.009
719.6270, 1514.277
720.1091, 1511.544
720.5912, 1528.999
721.0734, 1548.865
721.5555, 1560.216
722.0376, 1563.640
722.5197, 1554.605
723.0018, 1524.758
723.4839, 1495.065
723.9661, 1490.315
724.4482, 1510.034
724.9303, 1533.133
725.4124, 1560.264
725.8945, 1579.208
726.3766, 1566.948
726.8588, 1534.449
727.3409, 1505.638
727.8230, 1487.167
728.3051, 1478.857
728.7872, 1488.986
729.2693, 1510.143
729.7515, 1520.069
730.2336, 1505.034
730.7157, 1489.090
731.1978, 1477.361
731.6799, 1469.672
732.1620, 1462.758
732.6442, 1455.773
733.1263, 1453.630
733.6084, 1463.027
734.0905, 1479.687
734.5726, 1487.774
735.0547, 1486.931
735.5369, 1487.048
736.0190, 1505.905
736.5011, 1524.038
736.9832, 1516.855
737.4653, 1468.278
737.9474, 1434.855
738.4296, 1453.948
738.9117, 1483.220
739.3938, 1477.617
739.8759, 1407.603
740.3580, 1376.849
740.8401, 1404.725
741.3223, 1456.739
741.8044, 1476.698
742.2865, 1466.804
742.7686, 1450.966
743.2507, 1433.256
743.7328, 1418.225
744.2150, 1417.432
744.6971, 1424.484
745.1792, 1422.289
745.6613, 1396.408
746.1434, 1366.221
746.6255, 1335.995
747.1077, 1307.533
747.5898, 1292.296
748.0718, 1294.185
748.5540, 1303.979
749.0361, 1323.800
749.5182, 1351.945
750.0003, 1351.786
750.4824, 1320.346
750.9645, 1289.844
751.4467, 1292.267
751.9288, 1311.575
752.4109, 1314.399
752.8930, 1296.015
753.3751, 1283.635
753.8572, 1310.441
754.3394, 1342.650
754.8215, 1346.517
755.3036, 1286.621
755.7857, 1257.616
756.2678, 1283.260
756.7499, 1325.478
757.2321, 1340.689
757.7142, 1325.452
758.1963, 1304.247
758.6784, 1277.412
759.1605, 1254.078
759.6426, 1254.625
760.1248, 1272.012
760.6069, 1284.228
761.0890, 1281.096
761.5711, 1271.458
762.0532, 1259.108
762.5353, 1245.139
763.0175, 1232.420
763.4996, 1218.807
763.9817, 1209.785
764.4638, 1205.211
764.9459, 1205.819
765.4280, 1220.629
765.9102, 1256.192
766.3923, 1279.897
766.8744, 1268.529
767.3565, 1233.820
767.8386, 1214.724
768.3207, 1210.392
768.8029, 1210.912
769.2850, 1209.225
769.7671, 1209.156
770.2492, 1216.074
770.7313, 1231.695
771.2134, 1243.018
771.6956, 1251.437
772.1777, 1250.357
772.6598, 1232.144
773.1419, 1183.662
773.6240, 1164.616
774.1061, 1182.734
774.5883, 1211.080
775.0704, 1219.411
775.5525, 1212.983
776.0346, 1216.094
776.5167, 1236.263
776.9988, 1253.545
777.4810, 1244.025
777.9631, 1221.924
778.4452, 1206.660
778.9273, 1211.598
779.4094, 1214.437
779.8915, 1209.305
780.3737, 1199.954
780.8558, 1190.896
781.3379, 1179.951
781.8200, 1177.281
782.3021, 1188.670
782.7842, 1205.160
783.2664, 1202.211
783.7485, 1184.096
784.2306, 1174.191
784.7127, 1195.554
785.1948, 1220.209
785.6769, 1216.465
786.1591, 1193.526
786.6412, 1185.538
787.1233, 1234.592
787.6054, 1268.138
788.0875, 1252.290
788.5696, 1193.294
789.0518, 1157.201
789.5339, 1148.564
790.0160, 1149.336
790.4981, 1153.060
790.9802, 1158.522
791.4623, 1160.625
791.9445, 1159.449
792.4266, 1156.272
792.9087, 1140.009
793.3908, 1129.998
793.8729, 1153.852
794.3550, 1221.251
794.8372, 1261.493
795.3193, 1234.533
795.8014, 1192.816
796.2835, 1165.241
796.7656, 1153.137
797.2477, 1151.260
797.7299, 1161.776
798.2120, 1175.264
798.6941, 1183.546
799.1762, 1186.963
799.6583, 1185.132
800.1404, 1176.503
800.6226, 1169.729
801.1047, 1170.640
801.5868, 1177.338
802.0689, 1188.276
802.5510, 1218.414
803.0331, 1228.798
803.5153, 1202.477
803.9974, 1165.626
804.4795, 1154.785
804.9616, 1174.392
805.4437, 1186.470
805.9258, 1183.228
806.4080, 1173.010
806.8901, 1165.049
807.3722, 1160.457
807.8543, 1162.934
808.3364, 1185.687
808.8185, 1200.871
809.3007, 1181.274
809.7828, 1143.726
810.2649, 1125.342
810.7470, 1146.425
811.2291, 1166.339
811.7112, 1181.007
812.1934, 1188.854
812.6755, 1182.267
813.1576, 1160.897
813.6397, 1141.927
814.1218, 1131.900
814.6039, 1128.768
815.0861, 1131.763
815.5682, 1139.459
816.0503, 1146.502
816.5324, 1152.033
817.0145, 1154.767
817.4966, 1152.837
817.9788, 1146.673
818.4609, 1141.842
818.9430, 1138.089
819.4251, 1136.300
819.9072, 1136.958
820.3893, 1139.924
820.8715, 1146.898
821.3536, 1157.586
821.8357, 1162.915
822.3178, 1150.172
822.7999, 1133.262
823.2820, 1126.443
823.7642, 1130.430
824.2463, 1139.316
824.7284, 1155.180
825.2105, 1171.870
825.6926, 1187.828
826.1747, 1203.532
826.6569, 1211.771
827.1390, 1212.903
827.6211, 1204.869
828.1032, 1175.272
828.5853, 1135.668
829.0674, 1125.771
829.5496, 1148.039
830.0317, 1174.805
830.5138, 1195.950
830.9959, 1205.801
831.4780, 1195.037
831.9601, 1152.327
832.4423, 1129.014
832.9244, 1138.543
833.4065, 1156.701
833.8886, 1166.220
834.3707, 1166.237
834.8528, 1172.201
835.3350, 1186.701
835.8171, 1194.796
836.2992, 1172.269
836.7813, 1136.181
837.2634, 1115.463
837.7455, 1118.605
838.2276, 1123.253
838.7097, 1108.838
839.1918, 1096.944
839.6740, 1110.555
840.1561, 1176.989
840.6382, 1205.380
841.1203, 1183.126
841.6024, 1145.616
842.0845, 1132.115
842.5667, 1139.529
843.0488, 1149.482
843.5309, 1159.349
844.0130, 1169.646
844.4951, 1190.246
844.9772, 1207.719
845.4594, 1203.743
845.9415, 1145.402
846.4236, 1112.564
846.9057, 1131.625
847.3878, 1167.168
847.8699, 1178.686
848.3521, 1162.899
848.8342, 1145.722
849.3163, 1128.250
849.7984, 1117.071
850.2805, 1128.067
850.7626, 1151.025
851.2448, 1164.027
851.7269, 1156.422
852.2090, 1145.422
852.6911, 1131.702
853.1732, 1122.117
853.6553, 1129.406
854.1375, 1172.954
854.6196, 1189.773
855.1017, 1164.439
855.5838, 1123.659
856.0659, 1111.295
856.5480, 1123.732
857.0302, 1139.580
857.5123, 1155.651
857.9944, 1167.288
858.4765, 1170.229
858.9586, 1165.927
859.4407, 1156.764
859.9229, 1118.837
860.4050, 1109.909
860.8871, 1158.309
861.3692, 1225.277
861.8513, 1241.353
862.3334, 1200.983
862.8156, 1169.749
863.2977, 1163.142
863.7798, 1168.074
864.2619, 1167.961
864.7440, 1164.457
865.2261, 1143.658
865.7083, 1166.062
866.1904, 1178.865
866.6725, 1182.582
867.1546, 1149.999
867.6367, 1164.290
868.1188, 1159.795
868.6010, 1154.531
869.0831, 1175.419
869.5652, 1148.116
870.0473, 1168.589
870.5294, 1169.990
871.0115, 1180.120
871.4937, 1171.350
871.9758, 1168.417
872.4579, 1184.391
872.9400, 1189.896
873.4221, 1178.950
873.9042, 1189.635
874.3864, 1161.672
874.8685, 1167.623
875.3506, 1188.206
875.8327, 1178.210
876.3148, 1131.262
876.7969, 1109.842
877.2791, 1126.002
877.7612, 1153.009
878.2433, 1161.276
878.7254, 1157.369
879.2075, 1153.292
879.6896, 1148.594
880.1718, 1149.801
880.6539, 1163.216
881.1360, 1181.167
881.6181, 1193.564
882.1002, 1201.685
882.5823, 1194.413
883.0645, 1164.196
883.5466, 1129.510
884.0287, 1124.041
884.5108, 1136.302
884.9929, 1138.899
885.4750, 1105.115
885.9572, 1085.125
886.4393, 1114.419
886.9214, 1168.007
887.4035, 1204.813
887.8856, 1220.669
888.3677, 1227.414
888.8499, 1225.261
889.3320, 1217.151
889.8141, 1201.403
890.2962, 1182.760
890.7783, 1182.649
891.2604, 1218.973
891.7426, 1248.067
892.2247, 1230.172
892.7068, 1188.847
893.1889, 1156.648
893.6710, 1137.532
894.1531, 1131.873
894.6353, 1145.356
895.1174, 1165.370
895.5995, 1175.068
896.0816, 1174.968
896.5637, 1170.214
897.0458, 1159.925
897.5280, 1152.219
898.0101, 1156.305
898.4922, 1167.562
898.9743, 1180.792
899.4564, 1206.856
899.9385, 1212.428
900.4207, 1179.053
900.9028, 1139.001
901.3849, 1128.591
901.8670, 1149.263
902.3491, 1173.584
902.8312, 1200.639
903.3134, 1220.825
903.7955, 1217.952
904.2776, 1203.579
904.7597, 1194.918
905.2418, 1197.751
905.7239, 1199.787
906.2061, 1194.534
906.6882, 1189.008
907.1703, 1188.263
907.6524, 1192.277
908.1345, 1203.479
908.6166, 1224.043
909.0988, 1241.970
909.5809, 1244.569
910.0630, 1236.282
910.5451, 1221.240
911.0272, 1197.661
911.5093, 1186.040
911.9915, 1213.851
912.4736, 1243.573
912.9557, 1245.636
913.4378, 1211.950
913.9199, 1190.241
914.4020, 1182.654
914.8842, 1179.317
915.3663, 1163.926
915.8484, 1148.304
916.3305, 1171.065
916.8126, 1233.583
917.2947, 1281.391
917.7769, 1272.990
918.2590, 1246.771
918.7411, 1225.121
919.2232, 1209.427
919.7053, 1198.018
920.1874, 1188.465
920.6696, 1189.971
921.1517, 1217.645
921.6338, 1260.785
922.1159, 1278.558
922.5980, 1273.344
923.0801, 1262.313
923.5623, 1249.471
924.0444, 1239.824
924.5265, 1233.057
925.0086, 1230.559
925.4907, 1248.541
925.9728, 1301.446
926.4550, 1341.015
926.9371, 1345.130
927.4191, 1323.320
927.9012, 1298.734
928.3834, 1273.367
928.8655, 1257.206
929.3476, 1267.786
929.8297, 1278.539
930.3118, 1267.382
930.7939, 1241.363
931.2761, 1230.102
931.7582, 1241.238
932.2403, 1255.394
932.7224, 1269.641
933.2045, 1282.711
933.6866, 1290.826
934.1688, 1294.515
934.6509, 1295.347
935.1330, 1289.896
935.6151, 1287.388
936.0972, 1301.555
936.5793, 1322.048
937.0615, 1327.702
937.5436, 1302.965
938.0257, 1287.227
938.5078, 1286.064
938.9899, 1293.289
939.4720, 1298.946
939.9542, 1304.114
940.4363, 1315.940
940.9184, 1339.119
941.4005, 1358.677
941.8826, 1352.173
942.3647, 1340.004
942.8469, 1346.878
943.3290, 1401.261
943.8111, 1430.519
944.2932, 1425.773
944.7753, 1409.736
945.2574, 1406.271
945.7396, 1412.255
946.2217, 1405.449
946.7038, 1381.514
947.1859, 1371.492
947.6680, 1414.626
948.1501, 1472.647
948.6323, 1512.766
949.1144, 1526.553
949.5965, 1537.422
950.0786, 1543.736
950.5607, 1550.966
951.0428, 1563.397
951.5250, 1579.990
952.0071, 1597.191
952.4892, 1614.379
952.9713, 1624.398
953.4534, 1607.774
953.9355, 1594.245
954.4177, 1608.852
954.8998, 1652.149
955.3819, 1688.608
955.8640, 1712.787
956.3461, 1738.558
956.8282, 1771.480
957.3104, 1809.693
957.7925, 1854.436
958.2746, 1901.344
958.7567, 1927.418
959.2388, 1895.356
959.7209, 1863.822
960.2031, 1871.937
960.6852, 1907.783
961.1673, 1934.482
961.6494, 1944.185
962.1315, 1960.387
962.6136, 1991.687
963.0958, 2024.561
963.5779, 2023.928
964.0600, 2002.736
964.5421, 2005.129
965.0242, 2061.650
965.5063, 2109.405
965.9885, 2098.507
966.4706, 2064.979
966.9527, 2056.463
967.4348, 2068.985
967.9169, 2104.599
968.3990, 2130.613
968.8812, 2147.544
969.3633, 2128.170
969.8454, 2155.671
970.3275, 2164.387
970.8096, 2172.332
971.2917, 2206.431
971.7739, 2192.342
972.2560, 2226.024
972.7381, 2240.636
973.2202, 2263.977
973.7023, 2268.415
974.1844, 2278.693
974.6666, 2307.881
975.1487, 2326.595
975.6308, 2328.860
976.1129, 2352.756
976.5950, 2338.001
977.0771, 2357.163
977.5593, 2390.961
978.0414, 2394.174
978.5235, 2418.415
979.0056, 2434.648
979.4877, 2414.486
979.9698, 2457.617
980.4520, 2473.381
980.9341, 2461.231
981.4162, 2479.972
981.8983, 2525.770
982.3804, 2588.946
982.8625, 2648.485
983.3447, 2709.256
983.8268, 2748.972
984.3089, 2760.854
984.7910, 2754.316
985.2731, 2738.460
985.7552, 2713.301
986.2374, 2696.195
986.7195, 2690.108
987.2016, 2690.883
987.6837, 2699.462
988.1658, 2709.912
988.6479, 2715.739
989.1301, 2716.068
989.6122, 2708.934
990.0943, 2685.880
990.5764, 2668.486
991.0585, 2685.314
991.5406, 2727.345
992.0228, 2709.252
992.5049, 2631.565
992.9870, 2567.454
993.4691, 2592.909
993.9512, 2630.445
994.4333, 2618.857
994.9155, 2556.695
995.3976, 2489.727
995.8797, 2514.623
996.3618, 2529.917
996.8439, 2536.124
997.3260, 2506.032
997.8082, 2522.815
998.2903, 2520.812
998.7724, 2518.038
999.2545, 2541.417
999.7366, 2516.605
1000.219, 2539.571
1000.701, 2543.463
1001.183, 2556.083
1001.665, 2549.803
1002.147, 2549.361
1002.629, 2567.826
1003.111, 2575.821
1003.594, 2567.371
1004.076, 2580.547
1004.558, 2555.074
1005.040, 2563.515
1005.522, 2586.590
1006.004, 2553.504
1006.486, 2521.409
1006.968, 2514.707
1007.451, 2534.755
1007.933, 2548.002
1008.415, 2554.210
1008.897, 2555.090
1009.379, 2541.983
1009.861, 2531.282
1010.343, 2549.885
1010.825, 2592.725
1011.307, 2606.344
1011.790, 2551.105
1012.272, 2516.402
1012.754, 2533.780
1013.236, 2580.996
1013.718, 2606.335
1014.200, 2609.096
1014.682, 2584.249
1015.164, 2504.160
1015.646, 2434.533
1016.129, 2423.742
1016.611, 2445.797
1017.093, 2461.794
1017.575, 2471.874
1018.057, 2469.860
1018.539, 2454.031
1019.021, 2430.089
1019.503, 2400.124
1019.985, 2368.331
1020.468, 2342.644
1020.950, 2324.198
1021.432, 2311.078
1021.914, 2304.594
1022.396, 2301.602
1022.878, 2301.172
1023.360, 2303.150
1023.842, 2302.687
1024.325, 2299.763
1024.807, 2295.531
1025.289, 2292.700
1025.771, 2287.399
1026.253, 2272.080
1026.735, 2250.513
1027.217, 2234.588
1027.699, 2221.201
1028.182, 2224.710
1028.664, 2255.309
1029.146, 2294.350
1029.628, 2304.354
1030.110, 2291.377
1030.592, 2280.148
1031.074, 2275.925
1031.556, 2277.018
1032.038, 2281.940
1032.521, 2292.118
1033.003, 2311.470
1033.485, 2346.496
1033.967, 2363.222
1034.449, 2359.547
1034.931, 2347.396
1035.413, 2326.706
1035.895, 2308.149
1036.377, 2315.530
1036.860, 2345.889
1037.342, 2367.588
1037.824, 2353.344
1038.306, 2345.373
1038.788, 2355.306
1039.270, 2381.264
1039.752, 2427.499
1040.234, 2490.476
1040.717, 2525.726
1041.199, 2507.670
1041.681, 2474.459
1042.163, 2447.157
1042.645, 2430.177
1043.127, 2431.355
1043.609, 2467.258
1044.091, 2489.308
1044.573, 2496.104
1045.056, 2491.176
1045.538, 2469.233
1046.020, 2440.613
1046.502, 2432.594
1046.984, 2447.372
1047.466, 2460.747
1047.948, 2455.191
1048.430, 2451.234
1048.912, 2462.300
1049.395, 2484.578
1049.877, 2487.249
1050.359, 2469.678
1050.841, 2462.389
1051.323, 2487.083
1051.805, 2517.687
1052.287, 2524.990
1052.769, 2518.104
1053.252, 2514.703
1053.734, 2515.640
1054.216, 2526.206
1054.698, 2550.820
1055.180, 2577.575
1055.662, 2590.171
1056.144, 2593.164
1056.626, 2601.763
1057.109, 2618.299
1057.591, 2632.490
1058.073, 2636.990
1058.555, 2638.598
1059.037, 2638.744
1059.519, 2638.188
1060.001, 2653.878
1060.483, 2686.838
1060.965, 2718.352
1061.448, 2738.241
1061.930, 2752.293
1062.412, 2765.134
1062.894, 2777.829
1063.376, 2793.211
1063.858, 2825.643
1064.340, 2836.706
1064.822, 2813.678
1065.304, 2783.665
1065.786, 2788.856
1066.269, 2817.903
1066.751, 2832.093
1067.233, 2825.337
1067.715, 2808.147
1068.197, 2783.131
1068.679, 2752.301
1069.161, 2714.734
1069.643, 2670.572
1070.126, 2638.211
1070.608, 2617.850
1071.090, 2602.181
1071.572, 2593.227
1072.054, 2581.550
1072.536, 2550.746
1073.018, 2509.261
1073.500, 2477.579
1073.983, 2476.061
1074.465, 2456.684
1074.947, 2406.032
1075.429, 2351.606
1075.911, 2338.632
1076.393, 2350.825
1076.875, 2337.380
1077.357, 2287.906
1077.839, 2237.065
1078.322, 2203.326
1078.804, 2173.680
1079.286, 2137.588
1079.768, 2096.141
1080.250, 2070.203
1080.732, 2059.645
1081.214, 2059.941
1081.696, 2082.167
1082.178, 2101.187
1082.661, 2091.526
1083.143, 2060.947
1083.625, 2026.055
1084.107, 1977.231
1084.589, 1951.454
1085.071, 1958.157
1085.553, 1974.569
1086.035, 1973.126
1086.518, 1959.519
1087.000, 1945.363
1087.482, 1932.278
1087.964, 1919.092
1088.446, 1900.337
1088.928, 1886.903
1089.410, 1883.986
1089.892, 1890.739
1090.375, 1907.348
1090.857, 1932.164
1091.339, 1945.076
1091.821, 1921.545
1092.303, 1899.690
1092.785, 1923.929
1093.267, 1963.916
1093.749, 1958.861
1094.231, 1884.927
1094.714, 1839.929
1095.196, 1834.286
1095.678, 1844.057
1096.160, 1848.093
1096.642, 1849.022
1097.124, 1852.307
1097.606, 1858.593
1098.088, 1857.894
1098.570, 1845.798
1099.053, 1828.228
1099.535, 1801.792
1100.017, 1774.394
1100.499, 1777.466
1100.981, 1803.270
1101.463, 1817.847
1101.945, 1800.058
1102.427, 1780.685
1102.910, 1776.938
1103.392, 1778.375
1103.874, 1770.583
1104.356, 1749.967
1104.838, 1750.983
1105.320, 1776.440
1105.802, 1802.262
1106.284, 1808.843
1106.766, 1806.273
1107.249, 1804.013
1107.731, 1802.084
1108.213, 1792.575
1108.695, 1766.246
1109.177, 1757.716
1109.659, 1782.741
1110.141, 1819.553
1110.623, 1834.315
1111.105, 1831.250
1111.588, 1817.247
1112.070, 1784.194
1112.552, 1765.539
1113.034, 1780.696
1113.516, 1797.842
1113.998, 1793.491
1114.480, 1770.026
1114.962, 1749.805
1115.445, 1733.167
1115.927, 1719.622
1116.409, 1710.644
1116.891, 1703.144
1117.373, 1694.813
1117.855, 1686.832
1118.337, 1682.773
1118.819, 1683.143
1119.302, 1682.097
1119.784, 1678.697
1120.266, 1672.784
1120.748, 1662.671
1121.230, 1650.828
1121.712, 1639.395
1122.194, 1628.195
1122.676, 1621.320
1123.158, 1620.243
1123.641, 1619.468
1124.123, 1615.668
1124.605, 1610.684
1125.087, 1612.368
1125.569, 1616.166
1126.051, 1609.151
1126.533, 1558.905
1127.015, 1538.929
1127.497, 1577.069
1127.980, 1624.087
1128.462, 1609.977
1128.944, 1550.735
1129.426, 1528.601
1129.908, 1552.003
1130.390, 1575.211
1130.872, 1575.811
1131.354, 1562.998
1131.837, 1533.404
1132.319, 1495.040
1132.801, 1488.783
1133.283, 1514.634
1133.765, 1537.874
1134.247, 1547.174
1134.729, 1548.622
1135.211, 1542.877
1135.693, 1534.674
1136.176, 1529.458
1136.658, 1525.057
1137.140, 1535.556
1137.622, 1565.727
1138.104, 1587.489
1138.586, 1539.517
1139.068, 1560.275
1139.550, 1571.432
1140.032, 1573.503
1140.515, 1539.271
1140.997, 1551.916
1141.479, 1545.775
1141.961, 1538.864
1142.443, 1558.106
1142.925, 1529.157
1143.407, 1547.984
1143.889, 1547.739
1144.372, 1556.221
1144.854, 1545.805
1145.336, 1541.226
1145.818, 1555.554
1146.300, 1546.926
1146.782, 1526.168
1147.264, 1494.941
1147.746, 1457.004
1148.229, 1433.938
1148.711, 1445.350
1149.193, 1460.916
1149.675, 1470.657
1150.157, 1473.051
1150.639, 1462.679
1151.121, 1436.899
1151.603, 1434.504
1152.085, 1458.437
1152.568, 1478.288
1153.050, 1467.472
1153.532, 1445.328
1154.014, 1424.080
1154.496, 1404.984
1154.978, 1388.714
1155.460, 1374.428
1155.942, 1368.740
1156.424, 1376.516
1156.906, 1383.329
1157.389, 1365.885
1157.871, 1339.453
1158.353, 1324.745
1158.835, 1328.999
1159.317, 1329.846
1159.799, 1326.592
1160.281, 1319.254
1160.763, 1302.875
1161.246, 1285.813
1161.728, 1290.569
1162.210, 1309.437
1162.692, 1322.058
1163.174, 1319.015
1163.656, 1311.573
1164.138, 1300.340
1164.620, 1286.927
1165.103, 1267.756
1165.585, 1247.953
1166.067, 1249.453
1166.549, 1272.389
1167.031, 1291.076
1167.513, 1292.966
1167.995, 1287.572
1168.477, 1276.998
1168.959, 1263.381
1169.442, 1249.218
1169.924, 1236.043
1170.406, 1238.317
1170.888, 1266.630
1171.370, 1282.991
1171.852, 1242.012
1172.334, 1197.995
1172.816, 1197.668
1173.298, 1239.436
1173.781, 1250.466
1174.263, 1231.501
1174.745, 1209.805
1175.227, 1200.308
1175.709, 1192.505
1176.191, 1172.756
1176.673, 1152.278
1177.155, 1152.102
1177.638, 1180.126
1178.120, 1188.799
1178.602, 1157.517
1179.084, 1180.822
1179.566, 1194.525
1180.048, 1199.142
1180.530, 1167.460
1181.012, 1182.651
1181.495, 1179.060
1181.977, 1174.696
1182.459, 1196.484
1182.941, 1170.081
1183.423, 1191.455
1183.905, 1193.757
1184.387, 1204.787
1184.869, 1196.917
1185.351, 1194.885
1185.833, 1211.760
1186.316, 1218.168
1186.798, 1208.122
1187.280, 1219.708
1187.762, 1192.644
1188.244, 1199.496
1188.726, 1220.980
1189.208, 1211.885
1189.690, 1223.815
1190.173, 1227.741
1190.655, 1195.271
1191.137, 1226.092
1191.619, 1229.542
1192.101, 1204.887
1192.583, 1233.539
1193.065, 1212.759
1193.547, 1209.623
1194.030, 1219.769
1194.512, 1216.069
1194.994, 1234.194
1195.476, 1231.293
1195.958, 1226.515
1196.440, 1229.933
1196.922, 1212.078
1197.404, 1189.692
1197.886, 1172.560
1198.369, 1162.371
1198.851, 1166.321
1199.333, 1193.706
1199.815, 1233.885
1200.297, 1248.682
1200.779, 1242.308
1201.261, 1231.432
1201.743, 1218.316
1202.225, 1209.010
1202.708, 1203.215
1203.190, 1205.736
1203.672, 1224.261
1204.154, 1256.843
1204.636, 1276.833
1205.118, 1284.246
1205.600, 1280.382
1206.082, 1243.766
1206.565, 1221.055
1207.047, 1255.778
1207.529, 1305.179
1208.011, 1309.870
1208.493, 1271.481
1208.975, 1248.155
1209.457, 1244.497
1209.939, 1249.903
1210.422, 1262.386
1210.904, 1276.138
1211.386, 1288.233
1211.868, 1298.749
1212.350, 1307.051
1212.832, 1313.165
1213.314, 1321.576
1213.796, 1335.154
1214.278, 1342.484
1214.760, 1325.730
1215.243, 1305.689
1215.725, 1301.885
1216.207, 1313.171
1216.689, 1313.111
1217.171, 1301.638
1217.653, 1305.058
1218.135, 1348.939
1218.617, 1388.290
1219.100, 1379.348
1219.582, 1350.229
1220.064, 1337.164
1220.546, 1344.122
1221.028, 1346.245
1221.510, 1342.821
1221.992, 1352.248
1222.474, 1413.673
1222.957, 1467.401
1223.439, 1453.197
1223.921, 1398.535
1224.403, 1372.895
1224.885, 1355.863
1225.367, 1380.377
1225.849, 1395.291
1226.331, 1401.118
1226.813, 1370.645
1227.296, 1387.052
1227.778, 1384.667
1228.260, 1381.514
1228.742, 1404.511
1229.224, 1379.319
1229.706, 1401.903
1230.188, 1405.414
1230.670, 1417.655
1231.152, 1410.994
1231.635, 1410.177
1232.117, 1428.261
1232.599, 1435.877
1233.081, 1422.748
1233.563, 1446.219
1234.045, 1458.379
1234.527, 1439.045
1235.009, 1411.830
1235.492, 1393.062
1235.974, 1385.121
1236.456, 1395.256
1236.938, 1429.274
1237.420, 1447.910
1237.902, 1450.237
1238.384, 1447.400
1238.866, 1446.141
1239.349, 1443.837
1239.831, 1429.358
1240.313, 1414.551
1240.795, 1430.639
1241.277, 1492.919
1241.759, 1503.565
1242.241, 1449.490
1242.723, 1399.964
1243.205, 1432.988
1243.688, 1483.156
1244.170, 1493.726
1244.652, 1468.971
1245.134, 1443.428
1245.616, 1415.170
1246.098, 1404.226
1246.580, 1418.084
1247.062, 1430.365
1247.544, 1407.104
1248.026, 1376.729
1248.509, 1366.761
1248.991, 1376.862
1249.473, 1389.561
1249.955, 1405.929
1250.437, 1409.204
1250.919, 1388.108
1251.401, 1366.820
1251.883, 1368.537
1252.366, 1381.014
1252.848, 1392.516
1253.330, 1402.798
1253.812, 1404.384
1254.294, 1397.061
1254.776, 1392.377
1255.258, 1403.593
1255.740, 1409.962
1256.223, 1391.582
1256.705, 1360.821
1257.187, 1333.817
1257.669, 1310.520
1258.151, 1290.960
1258.633, 1275.436
1259.115, 1275.276
1259.597, 1317.151
1260.079, 1357.303
1260.562, 1367.999
1261.044, 1356.949
1261.526, 1328.845
1262.008, 1282.927
1262.490, 1289.702
1262.972, 1357.129
1263.454, 1417.239
1263.936, 1416.716
1264.418, 1398.907
1264.901, 1375.322
1265.383, 1359.348
1265.865, 1392.139
1266.347, 1467.951
1266.829, 1520.744
1267.311, 1536.235
1267.793, 1545.125
1268.275, 1572.788
1268.758, 1593.573
1269.240, 1586.626
1269.722, 1563.848
1270.204, 1573.598
1270.686, 1610.440
1271.168, 1646.536
1271.650, 1675.346
1272.132, 1696.016
1272.615, 1704.976
1273.097, 1707.418
1273.579, 1705.038
1274.061, 1698.744
1274.543, 1685.426
1275.025, 1670.708
1275.507, 1678.591
1275.989, 1740.818
1276.471, 1787.092
1276.953, 1794.199
1277.436, 1787.255
1277.918, 1788.217
1278.400, 1790.044
1278.882, 1751.065
1279.364, 1683.434
1279.846, 1639.976
1280.328, 1680.749
1280.810, 1689.023
1281.293, 1639.320
1281.775, 1571.249
1282.257, 1521.675
1282.739, 1485.737
1283.221, 1453.598
1283.703, 1425.452
1284.185, 1404.499
1284.667, 1400.158
1285.150, 1387.385
1285.632, 1358.843
1286.114, 1330.687
1286.596, 1331.072
1287.078, 1341.248
1287.560, 1327.309
1288.042, 1288.259
1288.524, 1267.469
1289.006, 1276.741
1289.489, 1279.500
1289.971, 1264.288
1290.453, 1248.355
1290.935, 1261.948
1291.417, 1282.746
1291.899, 1281.687
1292.381, 1253.029
1292.863, 1229.845
1293.345, 1212.430
1293.828, 1198.341
1294.310, 1184.761
1294.792, 1178.672
1295.274, 1202.323
1295.756, 1228.861
1296.238, 1221.093
1296.720, 1177.229
1297.202, 1148.867
1297.685, 1135.877
1298.167, 1134.749
1298.649, 1143.486
1299.131, 1162.174
##END=



