##NAMES=Alunite
##RRUFFID=R060430
##IDEAL CHEMISTRY=KAl_3_(S^6+^O_4_)_2_(OH)_6_
##LOCALITY=Wendy Pit, El Indio Gold mine, Tambo, Coquimbo District, Chile
##OWNER=RRUFF
##SOURCE=Michael Scott
##DESCRIPTION=Colorless transparent hexagonal plates
##STATUS=The identification of this mineral is confirmed by single-crystal X-ray diffraction and chemical analysis.
##URL=rruff.info/R060430
##MEASURED CHEMISTRY=(K_0.94_Na_0.06_)_Î£=1_Al_3.00_(S_1.00_O_4_)_2_(OH)_6_
127.2463, 60.74812
127.7284, 60.16029
128.2105, 58.95344
128.6927, 57.77680
129.1748, 56.59554
129.6569, 55.53681
130.1390, 54.81342
130.6211, 54.50164
131.1032, 54.06901
131.5854, 52.88062
132.0675, 51.58661
132.5496, 50.85461
133.0317, 51.02002
133.5138, 51.76189
133.9959, 52.30371
134.4781, 52.43166
134.9602, 52.71191
135.4423, 53.25923
135.9244, 54.03707
136.4065, 54.97771
136.8886, 56.02781
137.3708, 57.20834
137.8529, 58.71236
138.3350, 60.54276
138.8171, 62.72712
139.2992, 65.06818
139.7813, 67.75844
140.2635, 71.25290
140.7456, 76.00053
141.2277, 82.21155
141.7098, 88.03564
142.1919, 94.02457
142.6740, 99.28101
143.1561, 103.4702
143.6383, 106.4999
144.1204, 108.2281
144.6025, 108.1985
145.0846, 106.0287
145.5667, 104.5879
146.0488, 104.0229
146.5310, 104.2191
147.0131, 105.1595
147.4952, 106.9025
147.9773, 109.0930
148.4594, 111.2734
148.9415, 113.4618
149.4237, 116.2840
149.9058, 120.2350
150.3879, 125.0166
150.8700, 129.7693
151.3521, 134.4742
151.8342, 139.0048
152.3164, 143.0839
152.7985, 146.7928
153.2806, 150.9191
153.7627, 156.0487
154.2448, 162.2012
154.7269, 168.7739
155.2091, 175.2665
155.6912, 182.5615
156.1733, 190.8252
156.6554, 200.2209
157.1375, 211.1371
157.6196, 223.8012
158.1018, 237.6973
158.5839, 255.2123
159.0660, 277.7254
159.5481, 302.4913
160.0302, 331.4946
160.5123, 363.8203
160.9945, 392.5149
161.4766, 405.5150
161.9587, 400.2290
162.4408, 379.6273
162.9229, 334.4188
163.4050, 279.8878
163.8871, 228.1925
164.3693, 183.8668
164.8514, 146.9236
165.3335, 117.9642
165.8156, 100.2067
166.2977, 86.06761
166.7798, 75.77386
167.2620, 68.42484
167.7441, 62.99268
168.2262, 59.23946
168.7083, 56.68370
169.1904, 54.04508
169.6725, 51.18042
170.1547, 48.49266
170.6368, 45.96849
171.1189, 43.70877
171.6010, 42.10473
172.0831, 41.48834
172.5652, 41.57988
173.0474, 41.70252
173.5295, 42.00757
174.0116, 42.06138
174.4937, 41.32395
174.9758, 39.79639
175.4579, 38.49447
175.9401, 37.91875
176.4222, 37.79248
176.9043, 37.89852
177.3864, 38.29137
177.8685, 38.68778
178.3506, 38.66737
178.8328, 38.09137
179.3149, 37.59370
179.7970, 37.42593
180.2791, 37.41328
180.7612, 37.45465
181.2433, 37.53292
181.7255, 37.57317
182.2076, 37.35761
182.6897, 36.57391
183.1718, 36.12969
183.6539, 36.31064
184.1360, 36.81721
184.6181, 37.40501
185.1003, 37.97020
185.5824, 38.45550
186.0645, 38.63877
186.5466, 38.07811
187.0287, 37.74890
187.5108, 37.78770
187.9930, 38.12046
188.4751, 38.72654
188.9572, 39.61492
189.4393, 40.67540
189.9214, 41.26472
190.4035, 41.02040
190.8857, 40.70908
191.3678, 40.28518
191.8499, 39.90186
192.3320, 39.83707
192.8141, 40.29703
193.2962, 41.18928
193.7784, 41.79727
194.2605, 41.93638
194.7426, 42.06340
195.2247, 42.36340
195.7068, 42.78336
196.1889, 43.14162
196.6711, 43.28889
197.1532, 43.30367
197.6353, 43.56800
198.1174, 44.43058
198.5995, 45.20121
199.0816, 45.38105
199.5638, 45.05650
200.0459, 44.80537
200.5280, 44.96328
201.0101, 45.46308
201.4922, 45.99790
201.9743, 46.51842
202.4565, 47.11463
202.9386, 47.93336
203.4207, 48.98508
203.9028, 49.94998
204.3849, 50.56628
204.8670, 51.01326
205.3492, 51.51503
205.8313, 52.04388
206.3134, 52.73010
206.7955, 53.68792
207.2776, 54.89180
207.7597, 56.49397
208.2419, 58.92124
208.7240, 61.65684
209.2061, 64.06032
209.6882, 65.68974
210.1703, 67.39111
210.6524, 70.63353
211.1346, 75.63113
211.6167, 81.66740
212.0988, 88.35922
212.5809, 95.86830
213.0630, 104.6134
213.5451, 114.8056
214.0273, 125.9232
214.5094, 136.9400
214.9915, 148.5714
215.4736, 158.6428
215.9557, 166.9836
216.4378, 173.8100
216.9200, 179.1699
217.4021, 183.0152
217.8842, 185.8379
218.3663, 188.8934
218.8484, 191.8496
219.3305, 195.6231
219.8127, 200.2413
220.2948, 205.6790
220.7769, 211.9902
221.2590, 219.2001
221.7411, 227.1470
222.2232, 235.3489
222.7054, 243.4479
223.1875, 252.3316
223.6696, 262.4455
224.1517, 273.2353
224.6338, 283.8418
225.1159, 293.9117
225.5980, 303.9590
226.0802, 315.5276
226.5623, 328.5655
227.0444, 343.2674
227.5265, 359.7378
228.0086, 377.8752
228.4907, 397.2728
228.9729, 417.7260
229.4550, 439.5399
229.9371, 463.4391
230.4192, 490.2910
230.9013, 517.6989
231.3834, 548.1292
231.8656, 578.2109
232.3477, 604.9686
232.8298, 628.3124
233.3119, 643.6871
233.7940, 638.6965
234.2761, 611.8007
234.7583, 575.2471
235.2404, 526.1260
235.7225, 470.1905
236.2046, 416.2148
236.6867, 366.0288
237.1688, 320.8347
237.6510, 282.8205
238.1331, 251.7525
238.6152, 224.8360
239.0973, 202.0732
239.5794, 182.7422
240.0615, 165.5809
240.5437, 150.3168
241.0258, 136.8996
241.5079, 125.2328
241.9900, 115.1259
242.4721, 106.4498
242.9542, 99.57130
243.4364, 94.12057
243.9185, 89.16656
244.4006, 84.53503
244.8827, 80.41662
245.3648, 76.98695
245.8469, 74.18813
246.3290, 71.86678
246.8112, 70.07335
247.2933, 68.71889
247.7754, 67.55327
248.2575, 66.71833
248.7396, 65.77810
249.2217, 64.10891
249.7039, 61.98042
250.1860, 60.36482
250.6681, 60.13220
251.1502, 60.89211
251.6323, 61.18480
252.1144, 60.81935
252.5966, 60.16300
253.0787, 59.23809
253.5608, 58.21716
254.0429, 57.49718
254.5250, 57.48383
255.0071, 57.95927
255.4893, 58.08592
255.9714, 57.81799
256.4535, 57.22549
256.9356, 56.40476
257.4177, 55.34217
257.8998, 53.97742
258.3820, 52.19299
258.8641, 50.12729
259.3462, 48.27192
259.8283, 46.71512
260.3104, 45.24321
260.7925, 43.73233
261.2747, 42.24797
261.7568, 40.86306
262.2389, 39.58751
262.7210, 38.46444
263.2031, 37.63469
263.6852, 37.30022
264.1674, 36.92532
264.6495, 36.33064
265.1316, 35.65864
265.6137, 35.05240
266.0958, 34.57203
266.5779, 34.20295
267.0601, 33.91976
267.5422, 33.75502
268.0243, 33.62893
268.5064, 33.62738
268.9885, 33.60252
269.4706, 33.42399
269.9528, 33.04622
270.4349, 32.51681
270.9170, 31.87127
271.3991, 30.84406
271.8812, 30.26487
272.3633, 30.47454
272.8455, 30.88990
273.3276, 31.02996
273.8097, 30.79548
274.2918, 30.46917
274.7739, 30.51518
275.2560, 31.23519
275.7382, 31.68400
276.2202, 31.88660
276.7024, 31.86605
277.1845, 31.55770
277.6666, 30.99650
278.1487, 30.35414
278.6308, 29.82890
279.1129, 29.43379
279.5951, 29.12552
280.0772, 28.87222
280.5593, 28.71186
281.0414, 28.67892
281.5235, 28.76383
282.0056, 28.93722
282.4878, 29.19524
282.9699, 29.58027
283.4520, 29.73610
283.9341, 29.53743
284.4162, 29.27029
284.8983, 28.99166
285.3805, 28.73571
285.8626, 28.55588
286.3447, 28.50548
286.8268, 28.58130
287.3089, 28.56335
287.7910, 28.38357
288.2732, 28.19232
288.7553, 27.98131
289.2374, 27.79308
289.7195, 27.67797
290.2016, 27.65629
290.6837, 27.75048
291.1659, 28.10945
291.6480, 29.43308
292.1301, 30.20011
292.6122, 29.70858
293.0943, 28.62261
293.5764, 27.90160
294.0586, 27.99073
294.5407, 28.58736
295.0228, 28.87258
295.5049, 28.59226
295.9870, 28.28991
296.4691, 27.93082
296.9513, 27.58152
297.4334, 27.27461
297.9155, 27.02780
298.3976, 26.91837
298.8797, 27.10195
299.3618, 27.92488
299.8440, 28.37553
300.3261, 28.05632
300.8082, 27.61861
301.2903, 27.65294
301.7724, 28.24102
302.2545, 28.97459
302.7367, 29.37952
303.2188, 29.35771
303.7009, 29.33036
304.1830, 29.33757
304.6651, 29.30807
305.1472, 29.15615
305.6294, 28.90537
306.1115, 28.66454
306.5936, 28.50306
307.0757, 28.41604
307.5578, 28.62845
308.0399, 29.41935
308.5221, 30.17707
309.0042, 30.62005
309.4863, 30.80844
309.9684, 30.95740
310.4505, 31.22636
310.9326, 31.55604
311.4148, 31.50206
311.8969, 30.49687
312.3790, 29.82106
312.8611, 29.90916
313.3432, 30.50351
313.8253, 31.22008
314.3075, 31.89424
314.7896, 32.51955
315.2717, 33.08067
315.7538, 33.57909
316.2359, 34.01186
316.7180, 34.39260
317.2001, 34.70134
317.6823, 34.89215
318.1644, 34.95621
318.6465, 34.95592
319.1286, 34.94837
319.6107, 34.74419
320.0928, 35.08100
320.5750, 36.28910
321.0571, 37.79243
321.5392, 39.21173
322.0213, 40.47492
322.5034, 41.66908
322.9855, 42.86953
323.4677, 44.09335
323.9498, 45.24521
324.4319, 46.10669
324.9140, 47.10849
325.3961, 48.47406
325.8782, 50.16993
326.3604, 52.11904
326.8425, 54.33453
327.3246, 56.74640
327.8067, 58.57764
328.2888, 59.37329
328.7709, 60.19756
329.2531, 61.23640
329.7352, 62.49300
330.2173, 63.98354
330.6994, 65.72512
331.1815, 67.62540
331.6636, 69.45016
332.1458, 71.23045
332.6279, 72.88351
333.1100, 74.16602
333.5921, 75.42950
334.0742, 77.06391
334.5563, 79.15537
335.0385, 81.48518
335.5206, 83.71426
336.0027, 85.75650
336.4848, 87.94670
336.9669, 90.32764
337.4490, 92.82262
337.9312, 95.44926
338.4133, 98.17631
338.8954, 100.8680
339.3775, 103.3984
339.8596, 105.7645
340.3417, 108.0708
340.8239, 110.6140
341.3060, 112.8026
341.7881, 114.2807
342.2702, 115.2500
342.7523, 116.1851
343.2344, 117.4130
343.7166, 118.7412
344.1987, 119.2139
344.6808, 118.7852
345.1629, 117.4093
345.6450, 114.5429
346.1271, 110.9420
346.6093, 107.4475
347.0914, 104.3860
347.5735, 101.4051
348.0556, 97.85703
348.5377, 93.15585
349.0198, 88.91982
349.5020, 85.24149
349.9841, 81.88388
350.4662, 78.79253
350.9483, 75.92357
351.4304, 73.14872
351.9125, 70.24411
352.3947, 67.03996
352.8768, 64.89083
353.3589, 64.76837
353.8410, 64.72684
354.3231, 64.04359
354.8052, 62.91176
355.2874, 61.87650
355.7695, 61.33495
356.2516, 61.17076
356.7337, 60.65343
357.2158, 58.92514
357.6979, 58.06536
358.1800, 58.82854
358.6621, 60.42203
359.1443, 61.99873
359.6264, 63.23985
360.1085, 64.35876
360.5906, 65.68104
361.0727, 67.05811
361.5548, 69.06869
362.0370, 72.32983
362.5191, 75.76704
363.0012, 78.75944
363.4833, 81.25596
363.9654, 83.49239
364.4475, 85.68703
364.9297, 87.84103
365.4118, 89.93589
365.8939, 91.98856
366.3760, 93.95075
366.8581, 95.69846
367.3402, 97.34135
367.8224, 99.09387
368.3045, 101.0650
368.7866, 103.2276
369.2687, 105.4845
369.7508, 107.7344
370.2329, 110.3167
370.7151, 113.5345
371.1972, 117.0251
371.6793, 120.4745
372.1614, 123.7545
372.6435, 127.0722
373.1256, 130.6477
373.6078, 134.4803
374.0899, 138.4709
374.5720, 142.5372
375.0541, 146.8476
375.5362, 151.5148
376.0183, 156.5472
376.5005, 161.8005
376.9826, 167.4588
377.4647, 173.3167
377.9468, 178.7110
378.4289, 183.6834
378.9110, 187.9832
379.3932, 192.0394
379.8753, 195.3217
380.3574, 196.5484
380.8395, 195.2153
381.3216, 191.7414
381.8037, 186.5127
382.2859, 179.5171
382.7680, 171.0139
383.2501, 160.3991
383.7322, 148.7243
384.2143, 137.5213
384.6964, 126.8013
385.1786, 116.8270
385.6607, 107.8403
386.1428, 99.80767
386.6249, 92.59227
387.1070, 86.21018
387.5891, 80.59791
388.0713, 75.86543
388.5534, 71.93164
389.0355, 68.27692
389.5176, 64.80135
389.9997, 61.55497
390.4818, 58.57270
390.9640, 55.84953
391.4461, 53.43480
391.9282, 51.36395
392.4103, 49.64921
392.8924, 48.21951
393.3745, 47.09355
393.8567, 46.19924
394.3388, 45.82306
394.8209, 45.62619
395.3030, 44.85529
395.7851, 43.16998
396.2672, 41.11456
396.7494, 39.63708
397.2315, 38.98696
397.7136, 38.36912
398.1957, 37.71128
398.6778, 37.09378
399.1599, 36.66826
399.6420, 36.39876
400.1241, 35.99561
400.6063, 35.15187
401.0884, 33.83932
401.5705, 32.97050
402.0526, 32.77176
402.5347, 32.69469
403.0168, 32.72010
403.4990, 32.72717
403.9811, 32.50347
404.4632, 31.94393
404.9453, 31.21937
405.4274, 30.75383
405.9095, 30.74972
406.3917, 30.67879
406.8738, 30.56069
407.3559, 30.35346
407.8380, 29.97938
408.3201, 29.45990
408.8022, 28.92186
409.2844, 28.45949
409.7665, 28.06703
410.2486, 27.89310
410.7307, 28.27586
411.2128, 28.51102
411.6949, 28.24929
412.1771, 27.73279
412.6592, 27.34173
413.1413, 27.25691
413.6234, 27.42002
414.1055, 27.79586
414.5876, 28.56766
415.0698, 28.99271
415.5519, 28.53861
416.0340, 27.91290
416.5161, 27.61963
416.9982, 27.70548
417.4803, 27.82115
417.9625, 27.62085
418.4446, 27.16408
418.9267, 26.87226
419.4088, 26.85275
419.8909, 26.86031
420.3730, 26.67594
420.8552, 26.40538
421.3373, 26.28138
421.8194, 26.47982
422.3015, 26.75619
422.7836, 26.77909
423.2657, 26.55235
423.7479, 26.39343
424.2300, 26.46489
424.7121, 26.63987
425.1942, 26.70136
425.6763, 26.62030
426.1584, 26.57726
426.6406, 26.71840
427.1227, 26.92849
427.6048, 26.98315
428.0869, 26.83532
428.5690, 26.66883
429.0511, 26.64009
429.5333, 26.75911
430.0154, 26.93085
430.4975, 27.18990
430.9796, 27.46918
431.4617, 27.78955
431.9438, 28.10173
432.4260, 28.29379
432.9081, 28.31348
433.3902, 28.17480
433.8723, 27.89183
434.3544, 27.19239
434.8365, 26.81254
435.3187, 26.97016
435.8008, 27.32700
436.2829, 27.62141
436.7650, 27.81790
437.2471, 28.01814
437.7292, 28.32425
438.2114, 28.74181
438.6935, 29.08842
439.1756, 29.30757
439.6577, 29.51832
440.1398, 29.74862
440.6219, 29.98552
441.1040, 30.18280
441.5862, 30.32100
442.0683, 30.48257
442.5504, 30.87506
443.0325, 31.67459
443.5146, 32.16476
443.9967, 31.76999
444.4789, 31.48257
444.9610, 31.98951
445.4431, 33.12753
445.9252, 34.16578
446.4073, 34.48894
446.8894, 34.30495
447.3716, 34.41844
447.8537, 34.90388
448.3358, 35.50261
448.8179, 36.11031
449.3000, 36.76958
449.7821, 37.61770
450.2643, 38.76202
450.7464, 39.71684
451.2285, 39.73909
451.7106, 39.09675
452.1927, 39.24217
452.6748, 40.72054
453.1570, 42.50835
453.6391, 43.50011
454.1212, 43.87183
454.6033, 44.39014
455.0854, 45.27418
455.5675, 46.34241
456.0497, 47.48783
456.5318, 48.68816
457.0139, 49.83451
457.4960, 50.79977
457.9781, 51.76527
458.4602, 53.27667
458.9424, 55.50712
459.4245, 57.80540
459.9066, 60.15415
460.3887, 62.45714
460.8708, 64.51478
461.3529, 66.34767
461.8351, 68.28146
462.3172, 70.64259
462.7993, 73.42760
463.2814, 76.34003
463.7635, 79.56332
464.2456, 82.69324
464.7278, 85.61861
465.2099, 88.41946
465.6920, 91.09737
466.1741, 93.68301
466.6562, 96.43813
467.1383, 99.90207
467.6205, 104.4548
468.1026, 108.6247
468.5847, 112.1822
469.0668, 115.5100
469.5489, 118.9398
470.0310, 122.2855
470.5132, 124.9127
470.9953, 126.1036
471.4774, 126.6378
471.9595, 128.5738
472.4416, 132.1621
472.9237, 136.2031
473.4059, 140.2244
473.8880, 144.5645
474.3701, 149.6514
474.8522, 155.5226
475.3343, 161.5828
475.8164, 167.2241
476.2986, 172.7531
476.7807, 178.9403
477.2628, 185.8181
477.7449, 193.4834
478.2270, 202.0858
478.7091, 211.6179
479.1913, 221.7124
479.6734, 232.6709
480.1555, 243.8123
480.6376, 254.9165
481.1197, 265.9293
481.6018, 277.3106
482.0839, 289.3445
482.5660, 300.2170
483.0482, 307.7748
483.5303, 312.2347
484.0124, 311.0213
484.4945, 303.5269
484.9766, 291.3637
485.4587, 273.4206
485.9409, 251.4696
486.4230, 228.8830
486.9051, 207.3623
487.3872, 187.0367
487.8693, 168.3564
488.3514, 150.3567
488.8336, 135.8096
489.3157, 125.2427
489.7978, 117.3400
490.2799, 111.9150
490.7620, 108.5212
491.2441, 106.0981
491.7263, 103.9251
492.2084, 102.0251
492.6905, 100.5275
493.1726, 99.50110
493.6547, 98.72310
494.1368, 98.34173
494.6190, 98.05470
495.1011, 97.45779
495.5832, 96.41826
496.0653, 95.57682
496.5474, 95.44475
497.0295, 95.89930
497.5117, 96.54694
497.9938, 97.29587
498.4759, 98.38607
498.9580, 100.0578
499.4401, 102.2877
499.9222, 104.8138
500.4044, 107.4532
500.8865, 110.5598
501.3686, 114.3819
501.8507, 118.8086
502.3328, 123.7193
502.8149, 129.0668
503.2971, 134.7335
503.7792, 140.5429
504.2613, 146.5591
504.7434, 152.6915
505.2255, 158.9687
505.7076, 165.3163
506.1898, 172.8258
506.6719, 180.2674
507.1540, 185.5768
507.6361, 187.7435
508.1182, 186.5227
508.6003, 181.1002
509.0825, 170.5092
509.5646, 158.2581
510.0467, 143.1736
510.5288, 127.8351
511.0109, 112.8911
511.4930, 98.77110
511.9752, 86.34243
512.4573, 76.17110
512.9394, 68.03022
513.4215, 61.54308
513.9036, 56.81038
514.3857, 52.97158
514.8679, 49.98041
515.3500, 47.54356
515.8321, 45.17649
516.3142, 42.82238
516.7963, 40.98532
517.2784, 40.37336
517.7606, 40.17036
518.2427, 38.99528
518.7248, 36.79615
519.2069, 34.96521
519.6890, 34.54797
520.1711, 35.20401
520.6533, 35.24595
521.1354, 34.04549
521.6175, 33.16841
522.0996, 33.17586
522.5817, 33.45190
523.0638, 33.24413
523.5460, 32.52010
524.0281, 31.97713
524.5102, 32.37630
524.9923, 33.67421
525.4744, 34.32981
525.9565, 33.67812
526.4387, 33.22841
526.9208, 33.39342
527.4029, 33.84344
527.8850, 34.28745
528.3671, 34.63812
528.8492, 34.84787
529.3314, 34.65367
529.8135, 34.15096
530.2956, 34.40844
530.7777, 35.87372
531.2598, 37.29158
531.7419, 37.63802
532.2241, 37.47023
532.7062, 37.72980
533.1883, 38.82906
533.6704, 39.88102
534.1525, 39.98658
534.6346, 39.62154
535.1168, 39.99514
535.5989, 41.41928
536.0810, 43.18203
536.5631, 44.57841
537.0452, 45.59136
537.5273, 46.72063
538.0095, 48.15590
538.4916, 49.48888
538.9737, 50.49533
539.4558, 51.33440
539.9379, 52.17534
540.4200, 53.09275
540.9022, 54.22474
541.3843, 55.78370
541.8664, 57.83580
542.3485, 59.94824
542.8306, 62.21934
543.3127, 64.43070
543.7948, 66.43083
544.2769, 68.34594
544.7590, 70.35373
545.2411, 72.52446
545.7233, 74.79476
546.2054, 77.09073
546.6875, 79.41541
547.1696, 81.69122
547.6517, 83.92217
548.1339, 86.06464
548.6160, 87.96023
549.0981, 89.71653
549.5802, 91.68919
550.0623, 93.95815
550.5444, 96.43132
551.0266, 99.19276
551.5087, 102.1098
551.9908, 104.9099
552.4729, 107.5134
552.9550, 109.9292
553.4371, 112.1306
553.9193, 114.0635
554.4014, 116.1676
554.8835, 118.9431
555.3656, 121.3155
555.8477, 122.6229
556.3298, 123.3842
556.8120, 124.4346
557.2941, 126.0688
557.7762, 127.7397
558.2583, 128.7589
558.7404, 129.1268
559.2225, 128.8204
559.7047, 127.8807
560.1868, 126.1379
560.6689, 123.2628
561.1510, 119.6974
561.6331, 116.1432
562.1152, 112.8163
562.5974, 109.5629
563.0795, 106.2404
563.5616, 102.8732
564.0437, 99.58675
564.5258, 96.42137
565.0079, 93.18478
565.4901, 89.58638
565.9722, 85.67689
566.4543, 82.25418
566.9364, 79.66015
567.4185, 77.15937
567.9006, 74.34321
568.3828, 71.50311
568.8649, 69.08913
569.3470, 67.20818
569.8291, 65.50150
570.3112, 63.55386
570.7933, 61.32450
571.2755, 59.46514
571.7576, 58.16887
572.2397, 57.01607
572.7218, 56.02270
573.2039, 55.05019
573.6860, 53.91319
574.1682, 52.56631
574.6503, 51.22136
575.1324, 49.99624
575.6145, 48.92536
576.0966, 48.25766
576.5787, 48.13761
577.0609, 47.91148
577.5430, 47.15081
578.0251, 46.01077
578.5072, 44.87653
578.9893, 43.67011
579.4714, 42.66273
579.9536, 41.97308
580.4357, 41.53203
580.9178, 41.40607
581.3999, 41.52004
581.8820, 41.41177
582.3641, 40.69139
582.8463, 39.48077
583.3284, 38.47742
583.8105, 37.63011
584.2926, 37.08842
584.7747, 37.05788
585.2568, 37.16938
585.7390, 37.14132
586.2211, 36.96998
586.7032, 36.81837
587.1853, 36.78796
587.6674, 36.87081
588.1495, 37.11300
588.6317, 37.57318
589.1138, 37.80713
589.5959, 37.49192
590.0780, 37.05863
590.5601, 37.10646
591.0422, 37.62494
591.5244, 37.89347
592.0065, 37.28747
592.4886, 36.65505
592.9707, 36.91973
593.4528, 37.85709
593.9349, 38.62053
594.4171, 38.83056
594.8992, 38.72690
595.3813, 38.72328
595.8634, 38.86429
596.3455, 38.97485
596.8276, 39.00234
597.3098, 39.05836
597.7919, 39.21051
598.2740, 39.41826
598.7561, 39.59549
599.2382, 39.70430
599.7203, 39.83346
600.2025, 40.11150
600.6846, 40.53633
601.1667, 41.02268
601.6488, 41.66330
602.1309, 42.15684
602.6130, 42.01411
603.0952, 41.61274
603.5773, 41.79930
604.0594, 43.10328
604.5415, 44.20582
605.0236, 44.34101
605.5057, 43.88646
605.9879, 43.32935
606.4700, 42.78064
606.9521, 42.31673
607.4342, 42.01966
607.9163, 41.86025
608.3984, 41.61204
608.8806, 41.22330
609.3627, 40.81104
609.8448, 40.51194
610.3269, 40.09956
610.8090, 39.30015
611.2911, 38.18095
611.7733, 37.09544
612.2554, 36.23099
612.7375, 35.61743
613.2196, 35.44093
613.7017, 35.76423
614.1838, 35.83440
614.6660, 35.34424
615.1481, 34.60577
615.6302, 33.85056
616.1123, 33.08712
616.5944, 32.70332
617.0765, 33.06752
617.5587, 33.56108
618.0408, 33.78893
618.5229, 33.82372
619.0050, 33.83461
619.4871, 33.88338
619.9692, 33.98759
620.4514, 34.17024
620.9335, 34.43365
621.4156, 34.76432
621.8977, 35.22438
622.3798, 35.68116
622.8619, 36.01142
623.3441, 36.36281
623.8262, 36.96234
624.3083, 37.85191
624.7904, 38.71371
625.2725, 39.18361
625.7546, 39.42564
626.2367, 39.84267
626.7188, 40.44584
627.2009, 41.36160
627.6830, 42.74788
628.1652, 44.41963
628.6473, 45.97541
629.1294, 47.36770
629.6115, 48.80392
630.0936, 50.28375
630.5757, 51.84829
631.0579, 53.24249
631.5400, 54.76003
632.0221, 57.10580
632.5042, 60.62945
632.9863, 65.05524
633.4684, 69.82861
633.9506, 74.88311
634.4327, 80.68668
634.9148, 86.80212
635.3969, 94.30624
635.8790, 103.7882
636.3611, 114.8266
636.8433, 126.8695
637.3254, 139.9837
637.8075, 153.2631
638.2896, 166.7551
638.7717, 179.6556
639.2538, 190.4492
639.7360, 198.8965
640.2181, 205.8953
640.7002, 211.7948
641.1823, 216.9764
641.6644, 223.0654
642.1465, 230.4863
642.6287, 238.2750
643.1108, 245.4231
643.5929, 253.7620
644.0750, 264.8144
644.5571, 278.1759
645.0392, 292.5550
645.5214, 307.2310
646.0035, 322.3412
646.4856, 337.9315
646.9677, 354.0060
647.4498, 371.1398
647.9319, 389.1494
648.4141, 408.6909
648.8962, 430.5493
649.3783, 454.4799
649.8604, 478.9072
650.3425, 505.8546
650.8246, 530.3546
651.3068, 553.5370
651.7889, 571.4893
652.2710, 580.9058
652.7531, 580.3515
653.2352, 566.5700
653.7173, 536.1965
654.1995, 492.0038
654.6816, 444.0579
655.1637, 389.2025
655.6458, 338.4971
656.1279, 293.1366
656.6100, 253.0914
657.0922, 219.0354
657.5743, 190.4896
658.0564, 166.2251
658.5385, 146.0503
659.0206, 129.3614
659.5027, 116.3843
659.9849, 106.4487
660.4670, 97.50333
660.9491, 89.10625
661.4312, 81.85371
661.9133, 76.42982
662.3954, 72.69170
662.8776, 68.72974
663.3597, 63.92523
663.8418, 59.72031
664.3239, 56.37738
664.8060, 53.57366
665.2881, 51.13424
665.7703, 48.98415
666.2524, 47.02657
666.7345, 45.18667
667.2166, 43.50412
667.6987, 42.08068
668.1808, 40.90916
668.6630, 39.69559
669.1451, 38.32457
669.6272, 37.01701
670.1093, 35.97306
670.5914, 35.19976
671.0735, 34.65745
671.5557, 34.70858
672.0378, 34.54580
672.5199, 33.75030
673.0020, 32.70484
673.4841, 31.80995
673.9662, 31.12179
674.4484, 30.46157
674.9305, 29.65304
675.4126, 28.82195
675.8947, 28.46170
676.3768, 28.72784
676.8589, 28.75789
677.3411, 28.14454
677.8232, 27.51035
678.3053, 27.49952
678.7874, 27.90706
679.2695, 27.96649
679.7516, 27.16970
680.2338, 26.40610
680.7159, 26.41250
681.1980, 26.70914
681.6801, 26.40392
682.1622, 25.42302
682.6443, 24.53880
683.1265, 24.40589
683.6086, 24.86596
684.0907, 25.16070
684.5728, 25.28006
685.0549, 25.25386
685.5370, 25.02235
686.0192, 24.69942
686.5013, 24.25888
686.9834, 23.77668
687.4655, 23.44584
687.9476, 23.35850
688.4297, 23.41103
688.9119, 23.59830
689.3940, 23.84170
689.8761, 23.95681
690.3582, 23.91193
690.8403, 23.75921
691.3224, 23.50668
691.8046, 23.20619
692.2867, 23.10374
692.7688, 23.33199
693.2509, 23.55248
693.7330, 23.77153
694.2151, 23.95998
694.6973, 24.14358
695.1794, 24.28011
695.6615, 24.27301
696.1436, 24.06956
696.6257, 23.75012
697.1078, 23.36619
697.5900, 22.93754
698.0721, 22.48865
698.5542, 22.01478
699.0363, 21.69039
699.5184, 21.66123
700.0005, 21.85211
700.4827, 22.00198
700.9648, 22.07787
701.4469, 22.16436
701.9290, 22.39585
702.4111, 22.51268
702.8932, 22.14048
703.3754, 21.57493
703.8575, 21.48834
704.3396, 22.18759
704.8217, 23.02377
705.3038, 23.14420
705.7859, 22.70202
706.2681, 22.43075
706.7502, 22.40131
707.2323, 22.45760
707.7144, 22.52920
708.1965, 22.61920
708.6786, 22.76465
709.1607, 23.07700
709.6428, 23.11856
710.1249, 22.47864
710.6071, 21.94128
711.0892, 21.99763
711.5713, 22.45168
712.0534, 23.07113
712.5355, 23.74674
713.0176, 24.09954
713.4998, 23.39611
713.9819, 21.92685
714.4640, 21.39006
714.9461, 21.96833
715.4282, 22.40306
715.9103, 22.00418
716.3925, 21.36931
716.8746, 21.55911
717.3567, 22.71668
717.8388, 23.34472
718.3209, 22.88468
718.8030, 22.34181
719.2852, 22.10121
719.7673, 22.10702
720.2494, 22.41199
720.7315, 22.93354
721.2136, 23.15763
721.6957, 22.41065
722.1779, 21.08582
722.6600, 20.71072
723.1421, 21.40699
723.6242, 21.98139
724.1063, 22.12067
724.5884, 21.97746
725.0706, 21.58367
725.5527, 20.97373
726.0348, 20.65586
726.5169, 20.81775
726.9990, 21.07553
727.4811, 21.41768
727.9633, 21.71805
728.4454, 21.78822
728.9275, 21.66003
729.4096, 21.54509
729.8917, 21.57162
730.3738, 21.74163
730.8560, 22.20715
731.3381, 22.98943
731.8202, 23.16492
732.3023, 22.32995
732.7844, 21.48964
733.2665, 21.41328
733.7487, 21.93033
734.2308, 22.34666
734.7129, 22.67735
735.1950, 22.87720
735.6771, 22.99557
736.1592, 22.93116
736.6414, 22.45634
737.1235, 21.74556
737.6056, 21.18608
738.0877, 20.94727
738.5698, 20.96556
739.0519, 21.24250
739.5341, 21.73700
740.0162, 22.09512
740.4983, 22.30564
740.9804, 22.33785
741.4625, 22.13177
741.9446, 21.77519
742.4268, 21.38698
742.9089, 20.92023
743.3910, 20.65190
743.8731, 20.72045
744.3552, 20.86662
744.8373, 20.94532
745.3195, 21.03287
745.8016, 21.31989
746.2837, 21.80709
746.7658, 22.17844
747.2479, 22.05035
747.7300, 21.64987
748.2122, 21.65989
748.6943, 22.08850
749.1764, 22.38051
749.6585, 22.35007
750.1406, 22.21165
750.6227, 22.16843
751.1049, 22.21937
751.5870, 22.28883
752.0691, 22.55501
752.5512, 22.59944
753.0333, 22.09576
753.5154, 21.53882
753.9976, 21.38985
754.4797, 21.57273
754.9618, 21.69525
755.4439, 21.53992
755.9260, 21.30464
756.4081, 21.20060
756.8903, 21.23450
757.3724, 21.48884
757.8545, 21.98809
758.3366, 22.46730
758.8187, 22.79166
759.3008, 22.94821
759.7830, 22.89592
760.2651, 22.53428
760.7472, 22.19593
761.2293, 21.69363
761.7114, 21.42141
762.1935, 21.69746
762.6757, 22.22570
763.1578, 22.64398
763.6399, 22.86345
764.1220, 22.93783
764.6041, 22.81183
765.0862, 22.61795
765.5684, 22.61810
766.0505, 22.75294
766.5326, 22.62922
767.0147, 22.09792
767.4968, 21.70032
767.9789, 22.11617
768.4611, 23.29285
768.9432, 23.90522
769.4253, 23.66835
769.9074, 23.34907
770.3895, 22.82396
770.8716, 22.46547
771.3538, 22.62327
771.8359, 23.17039
772.3180, 23.68415
772.8001, 24.04978
773.2822, 24.31161
773.7643, 24.41855
774.2465, 24.47902
774.7286, 24.72628
775.2107, 25.11654
775.6928, 25.33160
776.1749, 25.18964
776.6570, 24.82207
777.1392, 24.39864
777.6213, 23.84805
778.1034, 23.81368
778.5855, 24.65331
779.0676, 25.31903
779.5497, 25.16015
780.0319, 24.68962
780.5140, 24.55433
780.9961, 24.78347
781.4782, 25.10298
781.9603, 25.61319
782.4424, 26.01795
782.9246, 26.09516
783.4067, 25.98162
783.8888, 25.78948
784.3709, 25.60060
784.8530, 25.65235
785.3351, 26.22444
785.8173, 27.02383
786.2994, 27.29023
786.7815, 27.02181
787.2636, 26.65298
787.7457, 26.19757
788.2278, 25.86428
788.7100, 25.83002
789.1921, 26.04215
789.6742, 26.30515
790.1563, 26.74693
790.6384, 27.00491
791.1205, 26.99569
791.6026, 26.86301
792.0847, 26.46025
792.5668, 26.06928
793.0490, 26.24111
793.5311, 27.12331
794.0132, 27.96773
794.4953, 27.96246
794.9774, 27.61106
795.4595, 27.93551
795.9417, 28.80943
796.4238, 29.37068
796.9059, 29.33452
797.3880, 28.95122
797.8701, 28.42518
798.3522, 27.78675
798.8344, 27.59175
799.3165, 28.09211
799.7986, 28.54875
800.2807, 28.87116
800.7628, 29.09181
801.2449, 29.12502
801.7271, 29.07156
802.2092, 29.25549
802.6913, 29.99859
803.1734, 30.36562
803.6555, 29.29641
804.1376, 28.02223
804.6198, 28.04536
805.1019, 29.07412
805.5840, 29.98062
806.0661, 30.27077
806.5482, 30.23099
807.0303, 30.23881
807.5125, 30.26992
807.9946, 30.04196
808.4767, 29.49637
808.9588, 29.00482
809.4409, 28.65832
809.9230, 28.47276
810.4052, 28.53150
810.8873, 28.83353
811.3694, 28.95551
811.8515, 28.78753
812.3336, 28.59189
812.8157, 28.22271
813.2979, 28.00815
813.7800, 28.40788
814.2621, 29.18077
814.7442, 29.62516
815.2263, 29.40238
815.7084, 29.01099
816.1906, 29.03205
816.6727, 29.20080
817.1548, 28.92109
817.6369, 28.20461
818.1190, 27.42185
818.6011, 26.72335
819.0833, 26.16720
819.5654, 25.84275
820.0475, 25.75393
820.5296, 25.80528
821.0117, 26.12063
821.4938, 26.31992
821.9760, 26.16766
822.4581, 25.98217
822.9402, 26.06446
823.4223, 26.35409
823.9044, 26.55776
824.3865, 26.61086
824.8687, 26.58445
825.3508, 26.47717
825.8329, 26.32514
826.3150, 26.19262
826.7971, 26.04590
827.2792, 25.72353
827.7614, 25.14823
828.2435, 24.65961
828.7256, 24.84345
829.2077, 25.46331
829.6898, 25.52557
830.1719, 25.00667
830.6541, 24.62375
831.1362, 24.66285
831.6183, 24.85266
832.1004, 24.84617
832.5825, 24.64922
833.0646, 24.74534
833.5468, 25.51502
834.0289, 25.98032
834.5110, 25.84029
834.9931, 25.55294
835.4752, 25.36651
835.9573, 25.26724
836.4395, 25.17118
836.9216, 25.04693
837.4037, 24.95914
837.8858, 24.92686
838.3679, 24.95930
838.8500, 25.18970
839.3322, 25.47784
839.8143, 25.39121
840.2964, 24.81801
840.7785, 24.28476
841.2606, 24.44229
841.7427, 25.08619
842.2249, 25.42650
842.7070, 25.45585
843.1891, 25.29841
843.6712, 24.93536
844.1533, 24.54117
844.6354, 24.23354
845.1176, 24.02578
845.5997, 23.98809
846.0818, 24.17044
846.5639, 24.45086
847.0460, 24.98515
847.5281, 25.44712
848.0103, 25.77278
848.4924, 25.89159
848.9745, 25.61854
849.4566, 24.91869
849.9387, 24.34089
850.4208, 24.15930
850.9030, 24.23154
851.3851, 24.55015
851.8672, 24.98413
852.3493, 25.36642
852.8314, 25.62239
853.3135, 25.58216
853.7957, 25.06162
854.2778, 24.33274
854.7599, 24.00021
855.2420, 24.05826
855.7241, 24.34227
856.2062, 24.91058
856.6884, 25.32942
857.1705, 25.34176
857.6526, 25.08922
858.1347, 24.80366
858.6168, 24.44714
859.0989, 24.23446
859.5811, 24.23123
860.0632, 24.28222
860.5453, 24.41822
861.0274, 24.54385
861.5095, 24.57432
861.9916, 24.51508
862.4738, 24.40967
862.9559, 24.18993
863.4380, 24.08793
863.9201, 24.51926
864.4022, 24.97538
864.8843, 24.69296
865.3665, 23.84958
865.8486, 23.13597
866.3307, 22.84916
866.8128, 22.86460
867.2949, 23.07282
867.7770, 23.45397
868.2592, 24.07625
868.7413, 24.94888
869.2234, 25.14413
869.7055, 24.23849
870.1876, 23.31045
870.6697, 23.42433
871.1519, 24.36579
871.6340, 24.92988
872.1161, 24.94787
872.5981, 24.91131
873.0803, 24.66829
873.5624, 24.55989
874.0445, 25.01308
874.5266, 25.55759
875.0087, 25.39286
875.4908, 24.36998
875.9730, 23.62171
876.4551, 23.68823
876.9372, 23.98020
877.4193, 24.34423
877.9014, 24.59777
878.3835, 24.38481
878.8657, 23.79584
879.3478, 23.36248
879.8299, 23.40686
880.3120, 23.72515
880.7941, 24.19446
881.2762, 24.69280
881.7584, 24.72884
882.2405, 24.30849
882.7226, 23.98243
883.2047, 24.00010
883.6868, 24.17198
884.1689, 24.23395
884.6511, 24.19317
885.1332, 24.33500
885.6153, 24.87250
886.0974, 24.95011
886.5795, 23.87541
887.0616, 22.97867
887.5438, 23.66703
888.0259, 25.30778
888.5080, 25.95018
888.9901, 25.09468
889.4722, 24.33383
889.9543, 23.67320
890.4365, 23.39596
890.9186, 23.95491
891.4007, 24.83076
891.8828, 25.36652
892.3649, 25.45907
892.8470, 25.34655
893.3292, 25.02502
893.8113, 24.73090
894.2934, 24.74930
894.7755, 24.92876
895.2576, 25.02630
895.7397, 25.01224
896.2219, 24.92791
896.7040, 24.79291
897.1861, 24.65938
897.6682, 24.55041
898.1503, 24.49349
898.6324, 24.83499
899.1146, 25.62459
899.5967, 25.98120
900.0788, 25.53158
900.5609, 24.95080
901.0430, 24.91520
901.5251, 25.32341
902.0073, 25.53758
902.4894, 25.43766
902.9715, 25.39239
903.4536, 25.50454
903.9357, 25.57355
904.4178, 25.56653
904.9000, 25.43799
905.3821, 24.99603
905.8642, 24.19422
906.3463, 23.82958
906.8284, 24.54559
907.3105, 25.19566
907.7927, 25.27142
908.2748, 25.00288
908.7569, 24.45277
909.2390, 23.80127
909.7211, 23.45098
910.2032, 23.60239
910.6854, 23.97299
911.1675, 24.53314
911.6496, 25.01673
912.1317, 24.86201
912.6138, 24.22499
913.0959, 23.67182
913.5781, 23.38421
914.0602, 23.28018
914.5423, 23.28305
915.0244, 23.41121
915.5065, 23.81643
915.9886, 24.50375
916.4708, 24.84719
916.9529, 24.73760
917.4350, 24.45465
917.9171, 24.10684
918.3992, 23.74696
918.8813, 23.42921
919.3635, 23.10269
919.8456, 23.22559
920.3277, 24.26115
920.8098, 24.98561
921.2919, 25.05275
921.7740, 24.80059
922.2562, 24.23740
922.7383, 23.54671
923.2204, 23.29515
923.7025, 23.78098
924.1846, 24.10176
924.6667, 23.91235
925.1489, 23.62460
925.6310, 23.40192
926.1131, 23.28089
926.5952, 23.38243
927.0773, 23.65682
927.5594, 23.71541
928.0416, 23.13597
928.5237, 22.60155
929.0058, 22.89859
929.4879, 23.56165
929.9700, 23.85293
930.4521, 23.78297
930.9343, 23.66942
931.4164, 23.65391
931.8985, 23.79542
932.3806, 24.24310
932.8627, 24.87128
933.3448, 25.29180
933.8270, 25.50860
934.3091, 25.56711
934.7912, 25.47677
935.2733, 25.17266
935.7554, 24.53764
936.2375, 23.83886
936.7197, 23.80395
937.2018, 24.62315
937.6839, 24.98156
938.1660, 24.67267
938.6481, 24.42938
939.1302, 24.52986
939.6124, 24.74584
940.0945, 24.89167
940.5766, 24.95819
941.0587, 24.85554
941.5408, 24.41822
942.0229, 24.07073
942.5051, 23.61690
942.9872, 23.49330
943.4693, 24.24188
943.9514, 25.27710
944.4335, 25.72979
944.9156, 25.51903
945.3978, 25.43635
945.8799, 26.12249
946.3620, 26.55160
946.8441, 25.89073
947.3262, 24.94878
947.8083, 24.43727
948.2905, 24.40445
948.7726, 24.80507
949.2547, 25.63031
949.7368, 26.31680
950.2189, 26.31968
950.7010, 25.97151
951.1832, 25.53049
951.6653, 25.14661
952.1474, 25.29925
952.6295, 25.96352
953.1116, 26.38693
953.5938, 26.04302
954.0759, 25.51179
954.5580, 25.91455
955.0400, 27.02102
955.5222, 27.56816
956.0043, 27.52357
956.4864, 27.36476
956.9685, 27.22828
957.4506, 27.21451
957.9327, 27.44864
958.4149, 27.85298
958.8970, 28.05637
959.3791, 27.97953
959.8612, 28.14256
960.3433, 28.71442
960.8254, 29.15929
961.3076, 29.15502
961.7897, 28.98610
962.2718, 29.01153
962.7539, 29.23158
963.2360, 29.60643
963.7181, 30.41839
964.2003, 30.94414
964.6824, 30.91430
965.1645, 30.80661
965.6466, 30.79783
966.1287, 30.90907
966.6108, 31.22240
967.0930, 31.78059
967.5751, 32.15687
968.0572, 32.07227
968.5393, 32.02884
969.0214, 32.20144
969.5035, 32.52086
969.9857, 32.98886
970.4678, 33.53307
970.9499, 34.00312
971.4320, 34.34773
971.9141, 34.64209
972.3962, 34.94444
972.8784, 35.20173
973.3605, 35.29897
973.8426, 35.35115
974.3247, 35.52098
974.8068, 35.83593
975.2889, 36.26484
975.7711, 36.79599
976.2532, 37.39937
976.7353, 38.16619
977.2174, 38.91760
977.6995, 39.25483
978.1816, 39.27891
978.6638, 39.33980
979.1459, 39.55170
979.6280, 39.98916
980.1101, 40.77601
980.5922, 41.61304
981.0743, 41.74477
981.5565, 41.31591
982.0386, 41.17268
982.5207, 41.37828
983.0028, 41.97754
983.4849, 43.03217
983.9670, 44.01387
984.4492, 44.28248
984.9313, 45.01886
985.4134, 45.38353
985.8955, 45.44092
986.3776, 45.84352
986.8597, 45.17065
987.3419, 44.96518
987.8240, 46.17271
988.3061, 47.85283
988.7882, 48.62904
989.2703, 48.50511
989.7524, 48.77849
990.2346, 49.73323
990.7167, 50.42985
991.1988, 50.38348
991.6809, 50.59623
992.1630, 51.87826
992.6451, 53.65045
993.1273, 54.89893
993.6094, 55.57575
994.0915, 56.07748
994.5736, 56.01133
995.0557, 56.33138
995.5378, 57.18276
996.0200, 58.50458
996.5021, 60.61842
996.9842, 63.06384
997.4663, 64.82802
997.9484, 65.63029
998.4305, 66.82900
998.9127, 69.02819
999.3948, 71.34737
999.8769, 73.31587
1000.359, 75.29444
1000.841, 77.45460
1001.323, 79.93864
1001.805, 83.05579
1002.287, 86.95202
1002.770, 90.98486
1003.252, 94.70650
1003.734, 98.55915
1004.216, 102.8369
1004.698, 107.5025
1005.180, 112.3129
1005.662, 117.4740
1006.144, 123.6533
1006.627, 131.1770
1007.109, 139.7023
1007.591, 148.2196
1008.073, 158.1386
1008.555, 170.9700
1009.037, 186.5192
1009.519, 203.7643
1010.001, 222.9556
1010.483, 246.4710
1010.966, 275.7414
1011.448, 308.3896
1011.930, 342.9463
1012.412, 378.1876
1012.894, 412.1667
1013.376, 444.7515
1013.858, 475.8516
1014.340, 505.5446
1014.823, 533.3060
1015.305, 558.5101
1015.787, 583.2679
1016.269, 610.7883
1016.751, 640.8971
1017.233, 672.2933
1017.715, 705.0290
1018.197, 740.7155
1018.679, 779.7961
1019.162, 821.8981
1019.644, 866.9207
1020.126, 914.2426
1020.608, 963.0613
1021.090, 1013.213
1021.572, 1065.990
1022.054, 1121.697
1022.536, 1175.453
1023.018, 1226.980
1023.501, 1266.469
1023.983, 1286.886
1024.465, 1285.476
1024.947, 1252.024
1025.429, 1185.335
1025.911, 1099.797
1026.393, 992.5553
1026.875, 880.8417
1027.358, 767.5715
1027.840, 660.5915
1028.322, 567.7338
1028.804, 487.8064
1029.286, 419.1805
1029.768, 362.3707
1030.250, 314.1536
1030.732, 275.4030
1031.214, 242.4028
1031.697, 214.3258
1032.179, 190.7096
1032.661, 171.4774
1033.143, 156.2054
1033.625, 142.6155
1034.107, 130.7437
1034.589, 120.4572
1035.071, 112.0498
1035.553, 104.7142
1036.036, 98.48513
1036.518, 92.94359
1037.000, 87.61655
1037.482, 82.60925
1037.964, 78.50874
1038.446, 75.95943
1038.928, 73.08622
1039.410, 69.20033
1039.893, 65.94471
1040.375, 64.40832
1040.857, 63.31307
1041.339, 61.25008
1041.821, 58.47913
1042.303, 56.47593
1042.785, 55.69312
1043.267, 54.82742
1043.750, 53.99112
1044.232, 52.85972
1044.714, 50.91395
1045.196, 48.93818
1045.678, 47.69964
1046.160, 47.12443
1046.642, 46.75253
1047.124, 46.78116
1047.606, 46.46847
1048.089, 45.47717
1048.571, 44.42385
1049.053, 43.51369
1049.535, 42.68895
1050.017, 41.72541
1050.499, 40.76904
1050.981, 40.42437
1051.463, 41.11469
1051.945, 41.53310
1052.428, 41.11907
1052.910, 40.72408
1053.392, 40.70736
1053.874, 40.91375
1054.356, 41.30536
1054.838, 41.76677
1055.320, 41.92779
1055.802, 41.55505
1056.285, 41.43821
1056.767, 42.01137
1057.249, 42.63722
1057.731, 42.70795
1058.213, 42.91446
1058.695, 44.12276
1059.177, 46.07215
1059.659, 47.79497
1060.141, 48.97849
1060.624, 50.37433
1061.106, 52.28077
1061.588, 54.42669
1062.070, 56.35025
1062.552, 58.71914
1063.034, 62.40232
1063.516, 67.06462
1063.998, 71.64027
1064.480, 75.82422
1064.963, 80.46601
1065.445, 86.35997
1065.927, 92.24099
1066.409, 97.44722
1066.891, 102.3269
1067.373, 107.0475
1067.855, 111.7483
1068.337, 116.6288
1068.820, 121.7228
1069.302, 127.2478
1069.784, 133.7155
1070.266, 140.1184
1070.748, 145.6891
1071.230, 151.1843
1071.712, 157.2591
1072.194, 163.9047
1072.677, 171.0698
1073.159, 178.7166
1073.641, 186.4217
1074.123, 193.9831
1074.605, 201.5896
1075.087, 210.3560
1075.569, 218.2766
1076.051, 224.1933
1076.533, 227.7459
1077.016, 228.8934
1077.498, 227.5342
1077.980, 222.6405
1078.462, 212.8716
1078.944, 200.7504
1079.426, 186.1967
1079.908, 170.9933
1080.390, 155.7167
1080.872, 141.1494
1081.354, 128.3501
1081.837, 117.3980
1082.319, 107.3204
1082.801, 97.54205
1083.283, 88.89257
1083.765, 81.98379
1084.247, 76.15372
1084.729, 71.13176
1085.211, 66.76270
1085.694, 62.94041
1086.176, 59.61028
1086.658, 56.62167
1087.140, 53.95875
1087.622, 51.53251
1088.104, 49.22662
1088.586, 47.19815
1089.068, 45.68584
1089.551, 44.41191
1090.033, 43.11475
1090.515, 41.75727
1090.997, 40.34508
1091.479, 38.79244
1091.961, 37.55492
1092.443, 36.92257
1092.925, 36.50298
1093.407, 36.14335
1093.890, 35.86676
1094.372, 35.81976
1094.854, 35.85723
1095.336, 35.62231
1095.818, 35.02244
1096.300, 34.35537
1096.782, 33.56468
1097.264, 32.92361
1097.746, 32.67403
1098.229, 32.48150
1098.711, 32.15807
1099.193, 31.66474
1099.675, 30.78256
1100.157, 29.48667
1100.639, 28.87722
1101.121, 29.95168
1101.603, 30.71167
1102.086, 30.41361
1102.568, 29.86209
1103.050, 29.34632
1103.532, 29.01095
1104.014, 29.15506
1104.496, 29.71928
1104.978, 29.94632
1105.460, 29.51128
1105.943, 29.06735
1106.425, 28.58773
1106.907, 28.27312
1107.389, 28.37957
1107.871, 28.56910
1108.353, 28.35180
1108.835, 27.87255
1109.317, 27.90295
1109.799, 28.89868
1110.281, 29.41308
1110.764, 29.05896
1111.246, 28.58827
1111.728, 27.95463
1112.210, 27.52080
1112.692, 27.80735
1113.174, 28.46690
1113.656, 28.56887
1114.138, 27.95886
1114.621, 27.48454
1115.103, 27.03465
1115.585, 26.91600
1116.067, 27.41651
1116.549, 27.94701
1117.031, 28.22446
1117.513, 28.28200
1117.995, 28.16055
1118.478, 27.86069
1118.960, 27.41387
1119.442, 26.54996
1119.924, 26.21057
1120.406, 26.68336
1120.888, 27.28616
1121.370, 27.87230
1121.852, 28.21837
1122.334, 27.99609
1122.817, 27.32510
1123.299, 26.81762
1123.781, 26.39471
1124.263, 26.55958
1124.745, 27.59229
1125.227, 28.19219
1125.709, 27.84553
1126.191, 27.32626
1126.673, 27.26557
1127.156, 27.50131
1127.638, 27.66446
1128.120, 27.75574
1128.602, 27.66437
1129.084, 27.34373
1129.566, 27.37340
1130.048, 27.90344
1130.530, 28.49066
1131.013, 28.89603
1131.495, 29.12229
1131.977, 29.12829
1132.459, 28.98252
1132.941, 28.96027
1133.423, 29.07749
1133.905, 29.66140
1134.387, 30.71845
1134.870, 31.59664
1135.352, 32.03894
1135.834, 32.40315
1136.316, 33.03883
1136.798, 33.80606
1137.280, 34.33234
1137.762, 34.74608
1138.244, 35.60086
1138.726, 36.80597
1139.208, 37.71017
1139.691, 38.22545
1140.173, 39.00558
1140.655, 40.50151
1141.137, 42.13793
1141.619, 43.04335
1142.101, 44.56054
1142.583, 45.09064
1143.065, 46.84998
1143.548, 47.96648
1144.030, 48.52477
1144.512, 49.38054
1144.994, 50.86307
1145.476, 52.54549
1145.958, 54.20802
1146.440, 55.75759
1146.922, 57.10929
1147.405, 58.28591
1147.887, 59.13934
1148.369, 59.90897
1148.851, 61.16679
1149.333, 62.91173
1149.815, 64.41745
1150.297, 65.37872
1150.779, 65.94231
1151.261, 66.34103
1151.744, 66.21675
1152.226, 65.14054
1152.708, 63.50744
1153.190, 61.64952
1153.672, 59.68909
1154.154, 57.80524
1154.636, 56.05164
1155.118, 54.22259
1155.600, 52.02311
1156.083, 50.06150
1156.565, 48.64393
1157.047, 47.42749
1157.529, 46.28288
1158.011, 45.10748
1158.493, 43.65482
1158.975, 41.92043
1159.457, 40.64894
1159.940, 40.01942
1160.422, 39.63768
1160.904, 39.78775
1161.386, 39.73861
1161.868, 39.06171
1162.350, 38.30682
1162.832, 38.02297
1163.314, 38.02641
1163.796, 37.69239
1164.279, 37.65219
1164.761, 37.65042
1165.243, 37.34085
1165.725, 37.65859
1166.207, 37.18972
1166.689, 37.01210
1167.171, 37.86604
1167.653, 38.95749
1168.135, 39.05918
1168.618, 39.87611
1169.100, 40.20323
1169.582, 40.34134
1170.064, 40.69029
1170.546, 39.78640
1171.028, 39.72833
1171.510, 41.21545
1171.992, 43.13334
1172.474, 44.65069
1172.957, 45.74180
1173.439, 46.12400
1173.921, 46.12443
1174.403, 46.79585
1174.885, 47.94398
1175.367, 48.74624
1175.849, 49.21291
1176.331, 50.11892
1176.814, 51.79211
1177.296, 53.65755
1177.778, 55.22418
1178.260, 56.69752
1178.742, 58.43754
1179.224, 60.14294
1179.706, 61.28496
1180.188, 62.11481
1180.671, 63.24798
1181.153, 64.70055
1181.635, 65.88290
1182.117, 66.49660
1182.599, 66.94846
1183.081, 67.44146
1183.563, 67.85378
1184.045, 68.09386
1184.527, 68.22971
1185.010, 68.43182
1185.492, 68.55724
1185.974, 68.26835
1186.456, 67.50785
1186.938, 66.56039
1187.420, 65.32031
1187.902, 64.12557
1188.384, 63.08927
1188.866, 62.04273
1189.349, 61.11248
1189.831, 59.95425
1190.313, 58.15416
1190.795, 55.85160
1191.277, 53.51927
1191.759, 50.99995
1192.241, 49.26420
1192.723, 48.60888
1193.206, 47.69800
1193.688, 46.23640
1194.170, 44.53153
1194.652, 42.69788
1195.134, 40.98766
1195.616, 39.84508
1196.098, 39.05830
1196.580, 37.45451
1197.063, 36.80000
1197.545, 34.41857
1198.027, 35.01556
1198.509, 35.02119
1198.991, 33.89588
1199.473, 32.51977
1199.955, 31.47964
1200.437, 30.65808
1200.919, 29.93989
1201.401, 29.29725
1201.884, 28.61539
1202.366, 27.99821
1202.848, 27.72475
1203.330, 27.69990
1203.812, 27.54475
1204.294, 27.16794
1204.776, 26.91368
1205.258, 27.17037
1205.741, 27.23306
1206.223, 26.25552
1206.705, 25.33498
1207.187, 25.50364
1207.669, 26.08445
1208.151, 26.30978
1208.633, 26.14478
1209.115, 25.72233
1209.598, 24.96446
1210.080, 24.53274
1210.562, 24.83074
1211.044, 25.00683
1211.526, 24.70649
1212.008, 24.49684
1212.490, 24.88412
1212.972, 25.22073
1213.454, 24.60933
1213.937, 23.31659
1214.419, 22.66088
1214.901, 22.77369
1215.383, 22.87972
1215.865, 22.98471
1216.347, 23.05812
1216.829, 23.11158
1217.311, 22.91283
1217.793, 22.28324
1218.276, 21.68332
1218.758, 21.81953
1219.240, 21.40567
1219.722, 21.36370
1220.204, 21.42015
1220.686, 21.38532
1221.168, 21.89228
1221.650, 22.09122
1222.133, 21.84386
1222.615, 21.77512
1223.097, 22.26977
1223.579, 22.71623
1224.061, 22.39790
1224.543, 21.93898
1225.025, 21.78692
1225.507, 21.97481
1225.990, 22.99669
1226.472, 24.18058
1226.954, 24.04676
1227.436, 22.52902
1227.918, 21.46578
1228.400, 21.62193
1228.882, 21.77453
1229.364, 21.62005
1229.846, 21.44113
1230.328, 21.26055
1230.811, 21.18676
1231.293, 21.34772
1231.775, 21.63595
1232.257, 21.88209
1232.739, 22.08492
1233.221, 22.06085
1233.703, 21.77813
1234.185, 21.35867
1234.668, 20.74871
1235.150, 20.35856
1235.632, 20.31970
1236.114, 20.60465
1236.596, 21.25358
1237.078, 21.89429
1237.560, 21.74016
1238.042, 22.04853
1238.525, 21.17643
1239.007, 21.63494
1239.489, 21.29821
1239.971, 20.31076
1240.453, 19.68042
1240.935, 19.70473
1241.417, 20.05343
1241.899, 20.60968
1242.381, 21.12235
1242.864, 21.42933
1243.346, 21.57412
1243.828, 21.57805
1244.310, 21.45291
1244.792, 21.07010
1245.274, 20.61515
1245.756, 20.51834
1246.238, 20.83881
1246.720, 21.07592
1247.203, 21.07290
1247.685, 21.10856
1248.167, 21.17836
1248.649, 21.34660
1249.131, 21.80935
1249.613, 22.08168
1250.095, 21.74573
1250.577, 21.03540
1251.059, 20.32977
1251.542, 19.67184
1252.024, 19.71179
1252.506, 20.44281
1252.988, 20.80492
1253.470, 20.71267
1253.952, 20.46424
1254.434, 20.17427
1254.916, 20.00617
1255.399, 20.06513
1255.881, 20.38772
1256.363, 21.34385
1256.845, 22.31013
1257.327, 22.23794
1257.809, 21.64715
1258.291, 21.25460
1258.773, 21.06873
1259.255, 20.91887
1259.738, 20.75654
1260.220, 20.52373
1260.702, 20.05168
1261.184, 19.92260
1261.666, 20.71197
1262.148, 21.35760
1262.630, 21.26427
1263.112, 21.06800
1263.594, 21.32507
1264.077, 21.68187
1264.559, 21.54541
1265.041, 21.00875
1265.523, 20.91671
1266.005, 21.39303
1266.487, 21.59745
1266.969, 21.50108
1267.451, 21.04718
1267.934, 20.20054
1268.416, 19.82218
1268.898, 20.42121
1269.380, 21.18658
1269.862, 21.11327
1270.344, 20.66568
1270.826, 20.73178
1271.308, 21.01747
1271.791, 20.89571
1272.273, 20.99547
1272.755, 21.07009
1273.237, 20.92588
1273.719, 21.10330
1274.201, 20.94034
1274.683, 20.81503
1275.165, 21.02778
1275.647, 21.12173
1276.130, 20.77099
1276.612, 20.43368
1277.094, 20.43625
1277.576, 20.53606
1278.058, 20.42072
1278.540, 20.21267
1279.022, 20.26943
1279.504, 20.61447
1279.986, 20.93510
1280.469, 21.27455
1280.951, 21.18202
1281.433, 20.56488
1281.915, 20.23171
1282.397, 20.47518
1282.879, 20.75379
1283.361, 20.63123
1283.843, 20.39350
1284.326, 20.37981
1284.808, 20.58952
##END=



