##NAMES=Alunogen
##RRUFFID=R060015
##IDEAL CHEMISTRY=Al_2_(S^6+^O_4_)_3_(H_2_O)_12_&#183;5H_2_O
##LOCALITY=Saxony, Germany
##OWNER=RRUFF
##SOURCE=American Museum of Natural History
##DESCRIPTION=Colorless compact mass of fibers, along with some sprays of acicular single crystals
##STATUS=The identification of this mineral has been confirmed by X-ray diffraction and chemical analysis
##URL=rruff.info/R060015
##MEASURED CHEMISTRY=(Al_1.77_Fe^3+^_0.23_)_Σ=2_(S_1.00_O_4_)_3_·17H_2_O
110.9020, 27.22007
111.3842, 27.09420
111.8663, 27.04959
112.3484, 27.06415
112.8305, 27.10688
113.3126, 27.15765
113.7947, 27.21656
114.2769, 27.28099
114.7590, 27.38607
115.2411, 27.46417
115.7232, 27.47285
116.2053, 27.42418
116.6874, 27.36847
117.1695, 27.35608
117.6517, 27.39962
118.1338, 27.44325
118.6159, 27.49907
119.0980, 27.54808
119.5801, 27.56678
120.0622, 27.54846
120.5444, 27.52321
121.0265, 27.53611
121.5086, 27.58623
121.9907, 27.63838
122.4728, 27.69978
122.9549, 27.75680
123.4371, 27.76886
123.9192, 27.70289
124.4013, 27.61491
124.8834, 27.56461
125.3655, 27.55230
125.8476, 27.56349
126.3298, 27.59524
126.8119, 27.64968
127.2940, 27.69573
127.7761, 27.74812
128.2582, 27.77452
128.7404, 27.73583
129.2225, 27.62126
129.7046, 27.48469
130.1867, 27.42958
130.6688, 27.54112
131.1509, 27.56948
131.6331, 27.42545
132.1152, 27.22222
132.5973, 27.06400
133.0794, 27.00238
133.5615, 27.01485
134.0436, 27.00907
134.5258, 26.95996
135.0079, 26.91851
135.4900, 26.88251
135.9721, 26.85916
136.4542, 26.86737
136.9363, 26.92715
137.4184, 27.03042
137.9006, 27.05236
138.3827, 26.96339
138.8648, 26.84148
139.3469, 26.71730
139.8290, 26.59258
140.3111, 26.45779
140.7933, 26.29718
141.2754, 26.11684
141.7575, 25.96595
142.2396, 25.84148
142.7217, 25.75112
143.2038, 25.72569
143.6860, 25.78442
144.1681, 25.82754
144.6502, 25.74017
145.1323, 25.57104
145.6144, 25.42214
146.0965, 25.35462
146.5787, 25.34160
147.0608, 25.29667
147.5429, 25.20204
148.0250, 25.09192
148.5071, 24.96802
148.9892, 24.84252
149.4714, 24.74720
149.9535, 24.72706
150.4356, 24.79091
150.9177, 24.81130
151.3998, 24.73303
151.8819, 24.65196
152.3641, 24.61357
152.8462, 24.61251
153.3283, 24.60658
153.8104, 24.53992
154.2925, 24.37516
154.7746, 24.25581
155.2568, 24.20975
155.7389, 24.17838
156.2210, 24.11683
156.7031, 24.01999
157.1852, 23.92366
157.6673, 23.88592
158.1495, 23.96333
158.6316, 24.00690
159.1137, 24.01227
159.5958, 23.98716
160.0779, 23.92480
160.5600, 23.82045
161.0422, 23.70952
161.5243, 23.50476
162.0064, 23.68005
162.4885, 23.76355
162.9706, 23.76022
163.4527, 23.40823
163.9349, 23.50780
164.4170, 23.42723
164.8991, 23.33983
165.3812, 23.50463
165.8633, 23.20638
166.3454, 23.36836
166.8276, 23.34744
167.3097, 23.41109
167.7918, 23.29347
168.2739, 23.23261
168.7560, 23.35424
169.2381, 23.37574
169.7203, 23.23953
170.2024, 23.31203
170.6845, 23.01328
171.1666, 23.04141
171.6487, 23.21091
172.1308, 23.08678
172.6130, 23.16553
173.0951, 23.16783
173.5772, 22.82057
174.0593, 23.08283
174.5414, 23.08233
175.0235, 22.81202
175.5057, 23.05517
175.9878, 22.92139
176.4699, 23.01345
176.9520, 23.05378
177.4341, 22.99546
177.9162, 22.87157
178.3984, 22.78643
178.8805, 22.80709
179.3626, 22.77979
179.8447, 22.63704
180.3268, 22.45085
180.8089, 22.31374
181.2911, 22.28047
181.7732, 22.32894
182.2553, 22.33318
182.7374, 22.24021
183.2195, 22.16178
183.7016, 22.14439
184.1838, 22.15538
184.6659, 22.12756
185.1480, 22.01220
185.6301, 21.82360
186.1122, 21.71204
186.5943, 21.73190
187.0765, 21.75419
187.5586, 21.73153
188.0407, 21.66990
188.5228, 21.59102
189.0049, 21.49908
189.4870, 21.40420
189.9692, 21.35397
190.4513, 21.38699
190.9334, 21.42965
191.4155, 21.43540
191.8976, 21.40504
192.3797, 21.36057
192.8619, 21.29923
193.3440, 21.23798
193.8261, 21.22203
194.3082, 21.31277
194.7903, 21.41331
195.2724, 21.40522
195.7546, 21.27273
196.2367, 21.13678
196.7188, 21.07619
197.2009, 21.06034
197.6830, 21.05527
198.1651, 21.05349
198.6473, 21.05529
199.1294, 21.06691
199.6115, 21.10052
200.0936, 21.11174
200.5757, 21.04246
201.0578, 20.94943
201.5400, 20.91139
202.0221, 20.98505
202.5042, 21.12346
202.9863, 21.18669
203.4684, 21.13319
203.9505, 21.06586
204.4327, 20.99737
204.9148, 20.94221
205.3969, 20.92696
205.8790, 20.97740
206.3611, 21.07126
206.8432, 21.09075
207.3254, 20.92368
207.8075, 20.81540
208.2896, 20.85503
208.7717, 20.97964
209.2538, 21.10046
209.7359, 21.16292
210.2181, 21.17049
210.7002, 21.15175
211.1823, 21.06375
211.6644, 20.99300
212.1465, 20.96555
212.6286, 20.96660
213.1108, 20.96978
213.5929, 20.95792
214.0750, 20.93195
214.5571, 20.90561
215.0392, 20.86449
215.5213, 20.83779
216.0035, 20.85847
216.4856, 20.90153
216.9677, 20.90837
217.4498, 20.83346
217.9319, 20.68663
218.4140, 20.59968
218.8961, 20.60581
219.3783, 20.62354
219.8604, 20.63515
220.3425, 20.63504
220.8246, 20.60991
221.3067, 20.54551
221.7888, 20.44880
222.2710, 20.37215
222.7531, 20.31132
223.2352, 20.27110
223.7173, 20.26402
224.1994, 20.28400
224.6815, 20.30295
225.1637, 20.30547
225.6458, 20.29248
226.1279, 20.27424
226.6100, 20.24271
227.0921, 20.21389
227.5742, 20.20175
228.0564, 20.20470
228.5385, 20.20568
229.0206, 20.19451
229.5027, 20.17537
229.9848, 20.16008
230.4669, 20.15771
230.9491, 20.14792
231.4312, 20.09932
231.9133, 20.01136
232.3954, 19.94962
232.8775, 19.96164
233.3596, 20.01155
233.8418, 20.05696
234.3239, 20.10001
234.8060, 20.12217
235.2881, 20.08781
235.7702, 19.98828
236.2523, 19.91414
236.7345, 19.92591
237.2166, 19.96760
237.6987, 19.99804
238.1808, 20.01195
238.6629, 20.00030
239.1451, 19.93786
239.6272, 19.81022
240.1093, 19.70883
240.5914, 19.66783
241.0735, 19.66098
241.5556, 19.68481
242.0378, 19.73941
242.5199, 19.79456
243.0020, 19.80800
243.4841, 19.76837
243.9662, 19.72742
244.4483, 19.69542
244.9305, 19.66444
245.4126, 19.62391
245.8947, 19.57293
246.3768, 19.52782
246.8589, 19.52475
247.3410, 19.59852
247.8232, 19.60253
248.3053, 19.42516
248.7874, 19.24838
249.2695, 19.21125
249.7516, 19.32502
250.2337, 19.46917
250.7159, 19.46611
251.1980, 19.22691
251.6801, 19.08405
252.1622, 19.10492
252.6443, 19.16338
253.1264, 19.19404
253.6086, 19.18604
254.0907, 19.16342
254.5728, 19.15688
255.0549, 19.17627
255.5370, 19.18118
256.0191, 19.18170
256.5013, 19.16285
256.9834, 19.08722
257.4655, 18.97005
257.9476, 18.88157
258.4297, 18.90877
258.9118, 19.09850
259.3940, 19.21132
259.8761, 19.22186
260.3582, 19.19534
260.8403, 19.15737
261.3224, 19.11285
261.8045, 19.05460
262.2867, 18.96836
262.7688, 18.83947
263.2509, 18.79233
263.7330, 18.89337
264.2151, 18.99620
264.6972, 19.03882
265.1794, 19.02151
265.6615, 18.96790
266.1436, 18.88930
266.6257, 18.78208
267.1078, 18.74488
267.5899, 18.84248
268.0721, 18.93052
268.5542, 18.93752
269.0363, 18.88040
269.5184, 18.81850
270.0005, 18.79388
270.4826, 18.80296
270.9648, 18.79309
271.4469, 18.75284
271.9290, 18.71014
272.4111, 18.66901
272.8932, 18.63299
273.3753, 18.60988
273.8575, 18.60563
274.3396, 18.61682
274.8217, 18.62612
275.3038, 18.62596
275.7859, 18.63246
276.2680, 18.66116
276.7502, 18.69982
277.2323, 18.72043
277.7144, 18.70666
278.1965, 18.67282
278.6786, 18.66269
279.1607, 18.68481
279.6429, 18.70865
280.1250, 18.72312
280.6071, 18.73421
281.0892, 18.75848
281.5713, 18.80698
282.0534, 18.85618
282.5356, 18.84646
283.0177, 18.75176
283.4998, 18.69694
283.9819, 18.75078
284.4640, 18.85364
284.9461, 18.91166
285.4283, 18.89673
285.9104, 18.84792
286.3925, 18.81696
286.8746, 18.80474
287.3567, 18.79262
287.8388, 18.76853
288.3210, 18.74561
288.8031, 18.74001
289.2852, 18.75451
289.7673, 18.78705
290.2494, 18.85159
290.7315, 18.94525
291.2137, 18.99538
291.6958, 18.95822
292.1779, 18.89003
292.6600, 18.83941
293.1421, 18.81035
293.6242, 18.82301
294.1064, 18.93038
294.5885, 19.10359
295.0706, 19.18871
295.5527, 19.09227
296.0348, 18.95627
296.5169, 18.91280
296.9991, 18.96076
297.4812, 19.00263
297.9633, 18.96182
298.4454, 18.87348
298.9275, 18.84889
299.4096, 18.94310
299.8918, 19.04372
300.3739, 19.06415
300.8560, 19.01454
301.3381, 18.96711
301.8202, 18.95796
302.3023, 18.96765
302.7845, 18.95126
303.2666, 18.89184
303.7487, 18.84735
304.2308, 18.86654
304.7129, 18.93128
305.1950, 18.97929
305.6772, 18.99404
306.1593, 18.97717
306.6414, 18.92406
307.1235, 18.83000
307.6056, 18.74820
308.0877, 18.71438
308.5699, 18.70866
309.0520, 18.68329
309.5341, 18.62457
310.0162, 18.55419
310.4983, 18.49124
310.9804, 18.43476
311.4626, 18.39203
311.9447, 18.39169
312.4268, 18.39755
312.9089, 18.34120
313.3910, 18.20340
313.8731, 18.06563
314.3553, 18.00619
314.8374, 18.00357
315.3195, 17.99121
315.8016, 17.94644
316.2837, 17.89158
316.7658, 17.85261
317.2480, 17.83042
317.7301, 17.80659
318.2122, 17.76669
318.6943, 17.71794
319.1764, 17.68003
319.6585, 17.67044
320.1407, 17.65196
320.6228, 17.59013
321.1049, 17.49032
321.5870, 17.38767
322.0691, 17.29034
322.5512, 17.20608
323.0334, 17.14862
323.5155, 17.12826
323.9976, 17.10268
324.4797, 17.03637
324.9618, 16.94549
325.4439, 16.88088
325.9261, 16.85950
326.4082, 16.86304
326.8903, 16.86966
327.3724, 16.87889
327.8545, 16.89175
328.3366, 16.93544
328.8188, 16.97563
329.3009, 16.93916
329.7830, 16.80064
330.2651, 16.65331
330.7472, 16.59579
331.2293, 16.61229
331.7115, 16.62180
332.1936, 16.61451
332.6757, 16.59079
333.1578, 16.53147
333.6399, 16.43620
334.1220, 16.38087
334.6042, 16.44490
335.0863, 16.58697
335.5684, 16.64682
336.0505, 16.57012
336.5326, 16.46121
337.0147, 16.37557
337.4969, 16.31184
337.9790, 16.26593
338.4611, 16.18126
338.9432, 16.21821
339.4253, 16.22436
339.9074, 16.20138
340.3896, 16.06197
340.8717, 16.07289
341.3538, 16.02358
341.8359, 15.97179
342.3180, 16.00387
342.8001, 15.88140
343.2822, 15.91215
343.7643, 15.88174
344.2465, 15.87932
344.7286, 15.81628
345.2107, 15.77197
345.6928, 15.78829
346.1749, 15.77104
346.6570, 15.70103
347.1392, 15.70039
347.6213, 15.57580
348.1034, 15.55998
348.5855, 15.59109
349.0676, 15.52412
349.5497, 15.45372
350.0319, 15.45505
350.5140, 15.45976
350.9961, 15.43500
351.4782, 15.39097
351.9603, 15.37657
352.4424, 15.43027
352.9246, 15.46219
353.4067, 15.44117
353.8888, 15.38046
354.3709, 15.29623
354.8530, 15.19160
355.3351, 15.08427
355.8173, 15.00915
356.2994, 14.97614
356.7815, 14.95193
357.2636, 14.94222
357.7457, 14.93548
358.2278, 14.91630
358.7100, 14.88352
359.1921, 14.85401
359.6742, 14.84686
360.1563, 14.86610
360.6384, 14.88733
361.1205, 14.92874
361.6027, 14.95574
362.0848, 14.94424
362.5669, 14.90067
363.0490, 14.84651
363.5311, 14.79492
364.0132, 14.74655
364.4954, 14.70837
364.9775, 14.66281
365.4596, 14.64700
365.9417, 14.70482
366.4238, 14.78604
366.9059, 14.81543
367.3881, 14.76275
367.8702, 14.66939
368.3523, 14.62160
368.8344, 14.66668
369.3165, 14.68154
369.7986, 14.64004
370.2808, 14.58914
370.7629, 14.56083
371.2450, 14.56063
371.7271, 14.57930
372.2092, 14.61136
372.6913, 14.66414
373.1735, 14.68304
373.6556, 14.63146
374.1377, 14.58480
374.6198, 14.57506
375.1019, 14.59106
375.5840, 14.60567
376.0662, 14.60099
376.5483, 14.58199
377.0304, 14.57281
377.5125, 14.58295
377.9946, 14.58957
378.4767, 14.57835
378.9589, 14.56731
379.4410, 14.58273
379.9231, 14.63160
380.4052, 14.68303
380.8873, 14.68106
381.3694, 14.59943
381.8516, 14.55087
382.3337, 14.55360
382.8158, 14.58316
383.2979, 14.64756
383.7800, 14.73428
384.2621, 14.80403
384.7443, 14.82195
385.2264, 14.79113
385.7085, 14.74645
386.1906, 14.66062
386.6727, 14.60239
387.1548, 14.60776
387.6370, 14.65219
388.1191, 14.69990
388.6012, 14.73693
389.0833, 14.76748
389.5654, 14.79578
390.0475, 14.81895
390.5297, 14.85327
391.0118, 14.92552
391.4939, 14.99794
391.9760, 15.02411
392.4581, 14.99647
392.9402, 14.82441
393.4224, 15.07070
393.9045, 15.22484
394.3866, 15.29181
394.8687, 15.00979
395.3508, 15.17898
395.8329, 15.16768
396.3151, 15.14922
396.7972, 15.38261
397.2793, 15.15260
397.7614, 15.38249
398.2435, 15.42913
398.7256, 15.55999
399.2078, 15.50926
399.6899, 15.51494
400.1720, 15.70275
400.6541, 15.79010
401.1362, 15.71940
401.6183, 15.85706
402.1005, 15.62314
402.5826, 15.71574
403.0647, 15.94937
403.5468, 15.88903
404.0289, 16.03123
404.5110, 16.09663
404.9932, 15.81214
405.4753, 16.13682
405.9574, 16.19839
406.4395, 15.98982
406.9216, 16.29436
407.4037, 16.12355
407.8859, 16.12275
408.3680, 16.24994
408.8501, 16.24419
409.3322, 16.44866
409.8143, 16.45108
410.2964, 16.43568
410.7786, 16.49940
411.2607, 16.33987
411.7428, 16.59520
412.2249, 16.56755
412.7070, 16.68093
413.1891, 16.82646
413.6713, 16.72791
414.1534, 16.88827
414.6355, 16.64772
415.1176, 16.74307
415.5997, 16.80252
416.0818, 17.07676
416.5640, 16.83915
417.0461, 16.92615
417.5282, 17.15150
418.0103, 17.13880
418.4924, 17.07255
418.9745, 17.04184
419.4567, 17.09221
419.9388, 17.19184
420.4209, 17.30691
420.9030, 17.42218
421.3851, 17.51931
421.8672, 17.54853
422.3494, 17.46531
422.8315, 17.42910
423.3136, 17.48055
423.7957, 17.56082
424.2778, 17.65159
424.7599, 17.74273
425.2421, 17.81120
425.7242, 17.81643
426.2063, 17.77065
426.6884, 17.80267
427.1705, 17.97422
427.6526, 18.11992
428.1348, 18.15111
428.6169, 18.11989
429.0990, 18.09645
429.5811, 18.10157
430.0632, 18.13030
430.5453, 18.18349
431.0275, 18.26173
431.5096, 18.33636
431.9917, 18.40127
432.4738, 18.45691
432.9559, 18.49146
433.4380, 18.50559
433.9202, 18.55742
434.4023, 18.71751
434.8844, 18.92059
435.3665, 19.04497
435.8486, 19.07512
436.3307, 19.07314
436.8129, 19.07118
437.2950, 19.07302
437.7771, 19.09061
438.2592, 19.12634
438.7413, 19.17563
439.2234, 19.23346
439.7056, 19.30284
440.1877, 19.40006
440.6698, 19.53697
441.1519, 19.67675
441.6340, 19.75536
442.1161, 19.74159
442.5983, 19.75770
443.0804, 19.84449
443.5625, 19.93672
444.0446, 19.97385
444.5267, 19.96363
445.0089, 19.96696
445.4910, 20.03354
445.9731, 20.15427
446.4552, 20.24085
446.9373, 20.28459
447.4194, 20.30446
447.9016, 20.26351
448.3837, 20.21800
448.8658, 20.23873
449.3479, 20.34325
449.8300, 20.48077
450.3121, 20.58333
450.7943, 20.65094
451.2764, 20.68281
451.7585, 20.61752
452.2406, 20.57384
452.7227, 20.61550
453.2048, 20.71573
453.6870, 20.80962
454.1691, 20.85933
454.6512, 20.87728
455.1333, 20.89278
455.6154, 20.90165
456.0975, 20.92070
456.5797, 20.96866
457.0618, 21.02105
457.5439, 21.05601
458.0260, 21.07047
458.5081, 21.08802
458.9902, 21.12655
459.4724, 21.18251
459.9545, 21.24473
460.4366, 21.31363
460.9187, 21.38491
461.4008, 21.45545
461.8829, 21.52608
462.3651, 21.59900
462.8472, 21.68220
463.3293, 21.76033
463.8114, 21.81615
464.2935, 21.85604
464.7756, 21.90454
465.2578, 21.97251
465.7399, 22.04826
466.2220, 22.11212
466.7041, 22.16431
467.1862, 22.20604
467.6683, 22.23363
468.1505, 22.25343
468.6326, 22.26725
469.1147, 22.27715
469.5968, 22.28973
470.0789, 22.31090
470.5610, 22.33786
471.0432, 22.35192
471.5253, 22.37200
472.0074, 22.35429
472.4895, 22.25993
472.9716, 22.14371
473.4537, 22.06370
473.9359, 22.03144
474.4180, 22.01378
474.9001, 21.97429
475.3822, 21.91325
475.8643, 21.83043
476.3464, 21.69610
476.8286, 21.57196
477.3107, 21.48585
477.7928, 21.42136
478.2749, 21.35843
478.7570, 21.29459
479.2391, 21.20418
479.7213, 21.02118
480.2034, 20.72709
480.6855, 20.49572
481.1676, 20.39743
481.6497, 20.34453
482.1318, 20.28117
482.6140, 20.20231
483.0961, 20.08627
483.5782, 19.88194
484.0603, 19.65090
484.5424, 19.50390
485.0245, 19.44774
485.5067, 19.37598
485.9888, 19.21893
486.4709, 19.01356
486.9530, 18.86256
487.4351, 18.79671
487.9172, 18.71388
488.3994, 18.57149
488.8815, 18.27122
489.3636, 18.29309
489.8457, 18.22861
490.3278, 18.08276
490.8099, 17.59369
491.2921, 17.56161
491.7742, 17.35488
492.2563, 17.14677
492.7384, 17.19630
493.2205, 16.78823
493.7026, 16.84585
494.1848, 16.72600
494.6669, 16.69619
495.1490, 16.49057
495.6311, 16.34715
496.1132, 16.39168
496.5953, 16.07875
497.0775, 15.96901
497.5596, 15.86057
498.0417, 15.74593
498.5238, 15.63279
499.0059, 15.53844
499.4880, 15.47493
499.9702, 15.42844
500.4523, 15.37327
500.9344, 15.30891
501.4165, 15.23868
501.8986, 15.16816
502.3807, 15.08745
502.8629, 14.97556
503.3450, 14.83550
503.8271, 14.72378
504.3092, 14.69193
504.7913, 14.69440
505.2734, 14.66398
505.7556, 14.59712
506.2377, 14.50697
506.7198, 14.38604
507.2019, 14.25530
507.6840, 14.18522
508.1661, 14.22698
508.6482, 14.22476
509.1303, 14.08822
509.6125, 13.91204
510.0946, 13.80486
510.5767, 13.78321
511.0588, 13.80369
511.5409, 13.83313
512.0231, 13.87123
512.5052, 13.87153
512.9873, 13.79663
513.4694, 13.72781
513.9515, 13.67943
514.4337, 13.64565
514.9158, 13.61972
515.3979, 13.59937
515.8800, 13.58557
516.3621, 13.58239
516.8442, 13.59164
517.3264, 13.59354
517.8085, 13.59540
518.2906, 13.57855
518.7727, 13.52013
519.2548, 13.44296
519.7369, 13.38662
520.2191, 13.36854
520.7012, 13.36422
521.1833, 13.34638
521.6654, 13.31713
522.1475, 13.29481
522.6296, 13.28858
523.1118, 13.28057
523.5939, 13.23312
524.0760, 13.15511
524.5581, 13.12813
525.0402, 13.22303
525.5223, 13.32277
526.0045, 13.35124
526.4866, 13.31538
526.9687, 13.23044
527.4508, 13.09734
527.9329, 12.95704
528.4150, 12.88952
528.8972, 12.93953
529.3793, 12.96176
529.8614, 12.93934
530.3435, 12.90667
530.8256, 12.88182
531.3077, 12.86289
531.7899, 12.83888
532.2720, 12.80258
532.7541, 12.76045
533.2362, 12.73020
533.7183, 12.71609
534.2004, 12.70133
534.6826, 12.68894
535.1647, 12.67028
535.6468, 12.63552
536.1289, 12.58784
536.6110, 12.54335
537.0931, 12.51170
537.5753, 12.48923
538.0574, 12.47380
538.5395, 12.46622
539.0216, 12.44691
539.5037, 12.40055
539.9858, 12.34459
540.4680, 12.31462
540.9501, 12.31903
541.4322, 12.29748
541.9143, 12.19718
542.3964, 12.08684
542.8785, 12.04055
543.3607, 12.05528
543.8428, 12.08262
544.3249, 12.09388
544.8070, 12.09093
545.2891, 12.08083
545.7712, 12.07338
546.2534, 12.04334
546.7355, 11.94394
547.2176, 11.85706
547.6997, 11.86221
548.1818, 11.94625
548.6639, 12.02702
549.1461, 12.03780
549.6282, 11.99615
550.1103, 11.97790
550.5924, 11.99678
551.0745, 12.00301
551.5566, 11.95501
552.0388, 11.90491
552.5209, 11.90477
553.0030, 11.95664
553.4851, 11.99609
553.9672, 11.95746
554.4493, 11.89251
554.9315, 11.91233
555.4136, 12.02294
555.8957, 12.10980
556.3778, 12.10596
556.8599, 12.04010
557.3420, 11.98518
557.8242, 11.93477
558.3063, 11.90692
558.7884, 11.91265
559.2705, 11.93735
559.7526, 11.98192
560.2347, 12.03637
560.7169, 12.06620
561.1990, 12.04223
561.6811, 11.98083
562.1632, 11.95946
562.6453, 12.01173
563.1274, 12.04661
563.6096, 12.03345
564.0917, 12.01740
564.5738, 12.04212
565.0559, 12.10073
565.5380, 12.14102
566.0201, 12.11012
566.5023, 12.04209
566.9844, 12.03607
567.4665, 12.10435
567.9486, 12.15350
568.4307, 12.13252
568.9128, 12.08796
569.3950, 12.08755
569.8771, 12.13558
570.3592, 12.17575
570.8413, 12.16846
571.3234, 12.15893
571.8055, 12.21395
572.2877, 12.31882
572.7698, 12.38122
573.2519, 12.34277
573.7340, 12.25251
574.2161, 12.23795
574.6982, 12.37165
575.1804, 12.45564
575.6625, 12.45683
576.1446, 12.43996
576.6267, 12.43153
577.1088, 12.43893
577.5909, 12.47264
578.0731, 12.54460
578.5552, 12.62780
579.0373, 12.65346
579.5194, 12.60700
580.0015, 12.58435
580.4836, 12.61590
580.9658, 12.66550
581.4479, 12.70135
581.9300, 12.72898
582.4121, 12.77358
582.8942, 12.87084
583.3763, 12.96742
583.8585, 12.99701
584.3406, 12.97818
584.8227, 12.98421
585.3048, 13.04310
585.7869, 13.11980
586.2690, 13.16100
586.7512, 13.14973
587.2333, 13.19210
587.7154, 13.36621
588.1975, 13.50675
588.6796, 13.50480
589.1617, 13.43466
589.6438, 13.42305
590.1259, 13.51506
590.6080, 13.64649
591.0901, 13.72518
591.5723, 13.74467
592.0544, 13.77201
592.5365, 13.79772
593.0186, 13.84709
593.5007, 13.94979
593.9828, 14.07483
594.4650, 14.17724
594.9471, 14.24425
595.4292, 14.29375
595.9113, 14.34335
596.3934, 14.38424
596.8755, 14.38056
597.3577, 14.32466
597.8398, 14.28878
598.3219, 14.33529
598.8040, 14.45019
599.2861, 14.53774
599.7682, 14.58550
600.2504, 14.62737
600.7325, 14.65670
601.2146, 14.69067
601.6967, 14.75290
602.1788, 14.83959
602.6609, 14.92313
603.1431, 14.98278
603.6252, 15.01972
604.1073, 15.03677
604.5894, 15.03270
605.0715, 15.01141
605.5536, 14.93966
606.0358, 14.87638
606.5179, 14.88776
607.0000, 14.96225
607.4821, 14.99583
607.9642, 14.87993
608.4464, 14.73507
608.9285, 14.73270
609.4106, 14.84831
609.8927, 14.92885
610.3748, 14.91228
610.8569, 14.84731
611.3391, 14.80278
611.8212, 14.78228
612.3033, 14.77258
612.7854, 14.79330
613.2675, 14.80378
613.7496, 14.78842
614.2318, 14.74973
614.7139, 14.69228
615.1960, 14.61802
615.6781, 14.53113
616.1602, 14.42496
616.6423, 14.29641
617.1245, 14.22323
617.6066, 14.24056
618.0887, 14.25329
618.5708, 14.19937
619.0529, 14.11746
619.5350, 14.06293
620.0172, 14.05124
620.4993, 14.03677
620.9814, 13.99654
621.4635, 13.93565
621.9456, 13.85147
622.4277, 13.74772
622.9099, 13.65899
623.3920, 13.60909
623.8741, 13.58914
624.3562, 13.56904
624.8383, 13.56104
625.3204, 13.53402
625.8026, 13.46394
626.2847, 13.39617
626.7668, 13.36994
627.2489, 13.37181
627.7310, 13.35870
628.2131, 13.30448
628.6953, 13.22962
629.1774, 13.16854
629.6595, 13.12200
630.1416, 13.07958
630.6237, 13.04819
631.1058, 13.00644
631.5880, 12.90448
632.0701, 12.77140
632.5522, 12.70975
633.0343, 12.82459
633.5164, 12.90697
633.9985, 12.80696
634.4807, 12.62464
634.9628, 12.51778
635.4449, 12.51517
635.9270, 12.54069
636.4091, 12.52392
636.8912, 12.47076
637.3734, 12.44742
637.8555, 12.49780
638.3376, 12.50616
638.8197, 12.42297
639.3018, 12.32048
639.7839, 12.25599
640.2661, 12.22941
640.7482, 12.20212
641.2303, 12.15219
641.7124, 12.08738
642.1945, 12.01122
642.6766, 11.92640
643.1588, 11.86522
643.6409, 11.84277
644.1230, 11.83479
644.6051, 11.81184
645.0872, 11.77151
645.5693, 11.73626
646.0515, 11.70771
646.5336, 11.68248
647.0157, 11.66561
647.4978, 11.64852
647.9799, 11.61663
648.4620, 11.56810
648.9442, 11.51920
649.4263, 11.48709
649.9084, 11.46995
650.3905, 11.45354
650.8726, 11.44082
651.3547, 11.42037
651.8369, 11.37518
652.3190, 11.32903
652.8011, 11.30602
653.2832, 11.30715
653.7653, 11.31997
654.2474, 11.36069
654.7296, 11.39460
655.2117, 11.38173
655.6938, 11.33288
656.1759, 11.28536
656.6580, 11.25381
657.1401, 11.22602
657.6223, 11.18212
658.1044, 11.11614
658.5865, 11.06973
659.0686, 11.05483
659.5507, 11.04704
660.0328, 11.06645
660.5150, 11.07695
660.9971, 11.01695
661.4792, 10.87931
661.9613, 10.76536
662.4434, 10.77446
662.9255, 10.86193
663.4077, 10.93819
663.8898, 11.00021
664.3719, 11.02439
664.8540, 10.99295
665.3361, 10.92899
665.8182, 10.86992
666.3004, 10.81441
666.7825, 10.77011
667.2646, 10.73072
667.7467, 10.70903
668.2288, 10.72132
668.7109, 10.75236
669.1931, 10.77660
669.6752, 10.78621
670.1573, 10.79651
670.6394, 10.84386
671.1215, 10.92094
671.6036, 10.91253
672.0858, 10.78484
672.5679, 10.67706
673.0500, 10.67273
673.5321, 10.71163
674.0142, 10.69856
674.4963, 10.62418
674.9785, 10.56221
675.4606, 10.52671
675.9427, 10.51799
676.4248, 10.56628
676.9069, 10.63976
677.3890, 10.65154
677.8712, 10.56782
678.3533, 10.45912
678.8354, 10.43560
679.3175, 10.51063
679.7996, 10.53880
680.2817, 10.48607
680.7639, 10.43767
681.2460, 10.42100
681.7281, 10.42462
682.2102, 10.44370
682.6923, 10.47799
683.1744, 10.49808
683.6566, 10.48872
684.1387, 10.45637
684.6208, 10.39591
685.1029, 10.31668
685.5850, 10.25507
686.0671, 10.22679
686.5493, 10.22346
687.0314, 10.23662
687.5135, 10.27422
687.9956, 10.28512
688.4777, 10.24373
688.9598, 10.20486
689.4420, 10.18053
689.9241, 10.16650
690.4062, 10.16327
690.8883, 10.16885
691.3704, 10.16421
691.8525, 10.12327
692.3347, 10.06738
692.8168, 10.03388
693.2989, 10.02316
693.7810, 10.03716
694.2631, 10.08541
694.7452, 10.13224
695.2274, 10.12479
695.7095, 10.05181
696.1916, 9.990504
696.6737, 9.936379
697.1558, 9.898288
697.6379, 9.884229
698.1201, 9.884987
698.6022, 9.893825
699.0843, 9.907449
699.5664, 9.919231
700.0485, 9.927171
700.5306, 9.927712
701.0128, 9.903039
701.4949, 9.851665
701.9770, 9.820640
702.4591, 9.827204
702.9412, 9.855791
703.4233, 9.902874
703.9055, 9.970449
704.3876, 9.974866
704.8697, 9.840726
705.3518, 9.732265
705.8339, 9.714252
706.3160, 9.747800
706.7982, 9.808569
707.2803, 9.878415
707.7624, 9.913403
708.2445, 9.867791
708.7266, 9.774948
709.2087, 9.726147
709.6909, 9.723277
710.1730, 9.750588
710.6551, 9.829071
711.1372, 9.896019
711.6193, 9.873949
712.1014, 9.781604
712.5836, 9.730100
713.0657, 9.764626
713.5478, 9.793284
714.0299, 9.775823
714.5120, 9.743159
714.9941, 9.730033
715.4763, 9.736711
715.9584, 9.740621
716.4405, 9.725819
716.9226, 9.701035
717.4047, 9.684481
717.8868, 9.675428
718.3690, 9.684698
718.8511, 9.731058
719.3332, 9.765905
719.8153, 9.742075
720.2974, 9.681472
720.7795, 9.635706
721.2617, 9.602871
721.7438, 9.596990
722.2259, 9.652980
722.7080, 9.715987
723.1901, 9.727845
723.6722, 9.697252
724.1544, 9.670931
724.6365, 9.673640
725.1186, 9.684816
725.6007, 9.662561
726.0828, 9.602918
726.5649, 9.570144
727.0471, 9.577477
727.5292, 9.589968
728.0113, 9.588149
728.4934, 9.581343
728.9755, 9.586694
729.4576, 9.609164
729.9398, 9.621814
730.4219, 9.605786
730.9040, 9.587083
731.3861, 9.587004
731.8682, 9.600306
732.3503, 9.612104
732.8325, 9.617388
733.3146, 9.625752
733.7967, 9.659720
734.2788, 9.714268
734.7609, 9.693506
735.2430, 9.555321
735.7252, 9.472363
736.2073, 9.539889
736.6894, 9.661097
737.1715, 9.740568
737.6536, 9.778251
738.1357, 9.758336
738.6179, 9.608090
739.1000, 9.474833
739.5821, 9.443810
740.0642, 9.476671
740.5463, 9.529747
741.0284, 9.586759
741.5106, 9.631351
741.9927, 9.649505
742.4748, 9.645522
742.9569, 9.629995
743.4390, 9.599920
743.9211, 9.574812
744.4033, 9.550100
744.8854, 9.544072
745.3675, 9.594210
745.8496, 9.677111
746.3317, 9.712126
746.8138, 9.659454
747.2960, 9.612992
747.7781, 9.612815
748.2602, 9.623752
748.7423, 9.606205
749.2244, 9.568511
749.7065, 9.548763
750.1887, 9.567476
750.6708, 9.602535
751.1529, 9.618851
751.6350, 9.616934
752.1171, 9.618948
752.5992, 9.628108
753.0814, 9.635053
753.5635, 9.637393
754.0456, 9.632744
754.5277, 9.613586
755.0098, 9.575358
755.4919, 9.545506
755.9741, 9.512588
756.4562, 9.504140
756.9383, 9.557880
757.4204, 9.636765
757.9025, 9.686816
758.3846, 9.694591
758.8668, 9.679694
759.3489, 9.656226
759.8310, 9.625930
760.3131, 9.591033
760.7952, 9.551438
761.2773, 9.519120
761.7595, 9.494860
762.2416, 9.487047
762.7237, 9.508405
763.2058, 9.558173
763.6879, 9.601727
764.1700, 9.648340
764.6522, 9.676845
765.1343, 9.685112
765.6164, 9.672577
766.0985, 9.622449
766.5806, 9.550803
767.0627, 9.499708
767.5449, 9.490120
768.0270, 9.508536
768.5091, 9.559551
768.9912, 9.625669
769.4733, 9.638599
769.9554, 9.590079
770.4376, 9.530618
770.9197, 9.480161
771.4018, 9.456364
771.8839, 9.509109
772.3660, 9.702090
772.8481, 9.788466
773.3303, 9.668606
773.8124, 9.562875
774.2945, 9.558254
774.7766, 9.601900
775.2587, 9.631366
775.7408, 9.635152
776.2230, 9.626930
776.7051, 9.609511
777.1872, 9.588591
777.6693, 9.566838
778.1514, 9.547390
778.6335, 9.542431
779.1157, 9.554841
779.5978, 9.569034
780.0799, 9.569418
780.5620, 9.558453
781.0441, 9.551184
781.5262, 9.542840
782.0084, 9.550093
782.4905, 9.589030
782.9726, 9.630567
783.4547, 9.666257
783.9368, 9.690236
784.4189, 9.682014
784.9011, 9.611844
785.3832, 9.573798
785.8653, 9.661841
786.3474, 9.768535
786.8295, 9.761793
787.3116, 9.668787
787.7938, 9.601243
788.2759, 9.608473
788.7580, 9.645569
789.2401, 9.646133
789.7222, 9.612857
790.2043, 9.611699
790.6865, 9.654096
791.1686, 9.679708
791.6507, 9.653016
792.1328, 9.614264
792.6149, 9.620295
793.0970, 9.671428
793.5792, 9.703256
794.0613, 9.695765
794.5434, 9.689014
795.0255, 9.704126
795.5076, 9.719932
795.9897, 9.715709
796.4719, 9.691217
796.9540, 9.653850
797.4361, 9.601496
797.9182, 9.558177
798.4003, 9.568493
798.8824, 9.617685
799.3646, 9.645639
799.8467, 9.644800
800.3288, 9.639377
800.8109, 9.643517
801.2930, 9.638192
801.7751, 9.648654
802.2573, 9.630702
802.7394, 9.619758
803.2215, 9.613461
803.7036, 9.561740
804.1857, 9.635195
804.6678, 9.677855
805.1500, 9.691378
805.6321, 9.588487
806.1142, 9.635919
806.5963, 9.623108
807.0784, 9.607827
807.5605, 9.676416
808.0427, 9.590459
808.5248, 9.657718
809.0069, 9.663815
809.4890, 9.697906
809.9711, 9.671380
810.4532, 9.663577
810.9354, 9.716410
811.4175, 9.735666
811.8996, 9.702164
812.3817, 9.738033
812.8638, 9.649957
813.3459, 9.670645
813.8281, 9.738259
814.3102, 9.707805
814.7923, 9.744782
815.2744, 9.756078
815.7565, 9.650659
816.2386, 9.748218
816.7208, 9.757997
817.2029, 9.677642
817.6850, 9.768247
818.1671, 9.755335
818.6492, 9.817950
819.1313, 9.866790
819.6135, 9.903481
820.0956, 9.937722
820.5777, 9.963687
821.0598, 9.940690
821.5419, 9.858667
822.0240, 9.795541
822.5062, 9.813608
822.9883, 9.886355
823.4704, 9.928910
823.9525, 9.936611
824.4346, 9.923649
824.9167, 9.851221
825.3989, 9.805990
825.8810, 9.847509
826.3631, 9.922784
826.8452, 9.958053
827.3273, 9.942875
827.8094, 9.932615
828.2916, 9.951553
828.7737, 9.978914
829.2558, 10.01687
829.7379, 10.04591
830.2200, 10.02824
830.7021, 9.963193
831.1843, 9.887636
831.6664, 9.823708
832.1485, 9.781180
832.6306, 9.793664
833.1127, 9.857822
833.5948, 9.899311
834.0770, 9.904980
834.5591, 9.902534
835.0412, 9.906353
835.5233, 9.916366
836.0054, 9.934555
836.4875, 9.972376
836.9697, 9.984653
837.4518, 9.943551
837.9339, 9.912169
838.4160, 9.929857
838.8981, 9.955992
839.3802, 9.935154
839.8624, 9.869340
840.3445, 9.824629
840.8266, 9.845586
841.3087, 9.885581
841.7908, 9.913604
842.2729, 9.930935
842.7551, 9.936240
843.2372, 9.931923
843.7193, 9.926794
844.2014, 9.925586
844.6835, 9.932148
845.1656, 9.964033
845.6478, 10.02182
846.1299, 10.02978
846.6120, 9.970860
847.0941, 9.918299
847.5762, 9.901028
848.0583, 9.909434
848.5405, 9.939471
849.0226, 9.997503
849.5047, 10.01094
849.9868, 9.940921
850.4689, 9.879004
850.9510, 9.840961
851.4332, 9.822419
851.9153, 9.831486
852.3974, 9.856188
852.8795, 9.859893
853.3616, 9.816331
853.8438, 9.789268
854.3259, 9.857419
854.8080, 9.956153
855.2901, 9.992392
855.7722, 9.969946
856.2543, 9.932652
856.7365, 9.898320
857.2186, 9.859988
857.7007, 9.800173
858.1828, 9.728036
858.6649, 9.724056
859.1470, 9.803964
859.6292, 9.848013
860.1113, 9.807059
860.5934, 9.767670
861.0755, 9.821463
861.5576, 9.941240
862.0397, 9.985147
862.5219, 9.905859
863.0040, 9.832254
863.4861, 9.747817
863.9682, 9.692963
864.4503, 9.711752
864.9324, 9.762966
865.4146, 9.787817
865.8967, 9.773838
866.3788, 9.744317
866.8609, 9.700544
867.3430, 9.658122
867.8251, 9.614516
868.3073, 9.588926
868.7894, 9.647004
869.2715, 9.780150
869.7536, 9.868699
870.2357, 9.825048
870.7178, 9.704502
871.2000, 9.612170
871.6821, 9.548064
872.1642, 9.505368
872.6463, 9.484934
873.1284, 9.479253
873.6105, 9.488578
874.0927, 9.505160
874.5748, 9.521196
875.0569, 9.540474
875.5390, 9.526845
876.0211, 9.421060
876.5032, 9.361443
876.9854, 9.410214
877.4675, 9.476059
877.9496, 9.482675
878.4317, 9.448256
878.9138, 9.442565
879.3959, 9.498682
879.8781, 9.543182
880.3602, 9.534805
880.8423, 9.499568
881.3244, 9.444265
881.8065, 9.386820
882.2886, 9.368955
882.7708, 9.398432
883.2529, 9.421248
883.7350, 9.381659
884.2171, 9.305192
884.6992, 9.237893
885.1813, 9.183729
885.6635, 9.189823
886.1456, 9.268776
886.6277, 9.338874
887.1098, 9.339990
887.5919, 9.299745
888.0740, 9.291188
888.5562, 9.329247
889.0383, 9.341775
889.5204, 9.318036
890.0025, 9.286423
890.4846, 9.247132
890.9667, 9.212015
891.4489, 9.197657
891.9310, 9.202079
892.4131, 9.198773
892.8952, 9.180852
893.3773, 9.158835
893.8594, 9.119505
894.3416, 9.091412
894.8237, 9.116208
895.3058, 9.168390
895.7879, 9.181688
896.2700, 9.131958
896.7521, 9.081804
897.2343, 9.092837
897.7164, 9.125722
898.1985, 9.123928
898.6806, 9.095916
899.1627, 9.071111
899.6448, 9.056499
900.1270, 9.039665
900.6091, 9.010320
901.0912, 8.972609
901.5733, 8.931373
902.0554, 8.886086
902.5375, 8.875973
903.0197, 8.912209
903.5018, 8.948164
903.9839, 8.961198
904.4660, 8.961190
904.9481, 8.965316
905.4302, 8.976116
905.9124, 8.965501
906.3945, 8.904749
906.8766, 8.864313
907.3587, 8.864165
907.8408, 8.879073
908.3229, 8.898928
908.8051, 8.918917
909.2872, 8.929675
909.7693, 8.928762
910.2514, 8.920317
910.7335, 8.907420
911.2156, 8.885990
911.6978, 8.837275
912.1799, 8.784980
912.6620, 8.774633
913.1441, 8.807607
913.6262, 8.830031
914.1083, 8.794609
914.5905, 8.749856
915.0726, 8.777030
915.5547, 8.840529
916.0368, 8.841859
916.5189, 8.781023
917.0010, 8.738244
917.4832, 8.754197
917.9652, 8.794811
918.4473, 8.811398
918.9294, 8.806320
919.4116, 8.805884
919.8937, 8.811877
920.3758, 8.807482
920.8579, 8.783631
921.3400, 8.762121
921.8221, 8.761243
922.3043, 8.776696
922.7864, 8.793534
923.2685, 8.824233
923.7506, 8.828720
924.2327, 8.774333
924.7148, 8.732248
925.1970, 8.730338
925.6791, 8.748999
926.1612, 8.770599
926.6433, 8.793344
927.1254, 8.812744
927.6075, 8.843303
928.0897, 8.850131
928.5718, 8.808756
929.0539, 8.748323
929.5360, 8.662845
930.0181, 8.586760
930.5002, 8.596491
930.9824, 8.714222
931.4645, 8.839642
931.9466, 8.900692
932.4287, 8.921245
932.9108, 8.916224
933.3929, 8.898352
933.8751, 8.902333
934.3572, 8.928647
934.8393, 8.936038
935.3214, 8.895393
935.8035, 8.840515
936.2856, 8.829804
936.7678, 8.858499
937.2499, 8.900369
937.7320, 8.955233
938.2141, 8.984123
938.6962, 8.969596
939.1783, 8.945427
939.6605, 8.947737
940.1426, 8.971475
940.6247, 8.985941
941.1068, 8.989649
941.5889, 8.987299
942.0710, 8.968793
942.5532, 8.962916
943.0353, 8.999192
943.5174, 9.047300
943.9995, 9.051385
944.4816, 9.005930
944.9637, 8.986530
945.4459, 9.002670
945.9280, 9.035736
946.4101, 9.101484
946.8922, 9.164664
947.3743, 9.197369
947.8564, 9.207519
948.3386, 9.213681
948.8207, 9.217898
949.3028, 9.233329
949.7849, 9.283095
950.2670, 9.328463
950.7491, 9.332196
951.2313, 9.318503
951.7134, 9.325326
952.1955, 9.353642
952.6776, 9.373047
953.1597, 9.359985
953.6418, 9.361514
954.1240, 9.459409
954.6061, 9.592111
955.0882, 9.637879
955.5703, 9.611981
956.0524, 9.598353
956.5345, 9.623538
957.0167, 9.658687
957.4988, 9.675945
957.9809, 9.686548
958.4630, 9.722701
958.9451, 9.782257
959.4272, 9.839670
959.9094, 9.892532
960.3915, 9.930233
960.8736, 9.943863
961.3557, 9.954413
961.8378, 9.989850
962.3199, 10.05027
962.8021, 10.13900
963.2842, 10.27289
963.7663, 10.38027
964.2484, 10.42996
964.7305, 10.48631
965.2126, 10.58827
965.6948, 10.72652
966.1769, 10.88369
966.6590, 11.07210
967.1411, 11.23079
967.6232, 11.33940
968.1053, 11.44546
968.5875, 11.54007
969.0696, 11.65184
969.5517, 11.79987
970.0338, 11.98296
970.5159, 12.20103
970.9980, 12.46276
971.4802, 12.72747
971.9623, 12.99467
972.4444, 13.24724
972.9265, 13.43800
973.4086, 13.63167
973.8907, 13.92374
974.3729, 14.30291
974.8550, 14.66473
975.3371, 14.95371
975.8192, 15.24105
976.3013, 15.58340
976.7834, 15.94746
977.2656, 16.27719
977.7477, 16.60443
978.2298, 17.01366
978.7119, 17.51711
979.1940, 18.04327
979.6761, 18.54509
980.1583, 19.03604
980.6404, 19.52451
981.1225, 20.02006
981.6046, 20.53447
982.0867, 21.07309
982.5688, 21.66365
983.0510, 22.31617
983.5331, 22.95145
984.0152, 23.47153
984.4973, 23.91807
984.9794, 24.42371
985.4615, 24.98343
985.9437, 25.53891
986.4258, 26.08124
986.9079, 26.63954
987.3900, 27.23968
987.8721, 27.82688
988.3542, 28.30874
988.8364, 28.69060
989.3185, 29.10851
989.8006, 29.56259
990.2827, 30.06911
990.7648, 30.68226
991.2469, 31.20811
991.7291, 31.48956
992.2112, 31.63538
992.6933, 31.89451
993.1754, 32.31214
993.6575, 32.58502
994.1396, 32.65944
994.6218, 32.68447
995.1039, 32.70839
995.5860, 32.67626
996.0681, 32.57487
996.5502, 32.38211
997.0323, 32.02971
997.5145, 31.48444
997.9966, 30.87955
998.4787, 30.33224
998.9608, 29.58681
999.4429, 28.49754
999.9250, 27.22697
1000.407, 25.85483
1000.889, 24.42616
1001.371, 23.05667
1001.854, 21.75166
1002.336, 20.52268
1002.818, 19.35362
1003.300, 18.27392
1003.782, 17.27831
1004.264, 16.39336
1004.746, 15.67584
1005.228, 15.11343
1005.710, 14.64147
1006.193, 14.25062
1006.675, 13.89496
1007.157, 13.52273
1007.639, 13.19796
1008.121, 12.98602
1008.603, 12.85971
1009.085, 12.79976
1009.567, 12.78052
1010.049, 12.72204
1010.532, 12.56491
1011.014, 12.39737
1011.496, 12.30542
1011.978, 12.25369
1012.460, 12.19131
1012.942, 12.12600
1013.424, 12.09224
1013.906, 12.09456
1014.389, 12.09596
1014.871, 12.06489
1015.353, 12.03136
1015.835, 12.05563
1016.317, 12.10502
1016.799, 12.09075
1017.281, 12.02276
1017.763, 11.97668
1018.245, 11.97526
1018.728, 11.97328
1019.210, 11.92693
1019.692, 11.86162
1020.174, 11.83404
1020.656, 11.83670
1021.138, 11.83080
1021.620, 11.81435
1022.102, 11.80946
1022.585, 11.82495
1023.067, 11.83523
1023.549, 11.81163
1024.031, 11.79657
1024.513, 11.73520
1024.995, 11.72033
1025.477, 11.68514
1025.959, 11.62290
1026.442, 11.59899
1026.924, 11.64574
1027.406, 11.71831
1027.888, 11.77412
1028.370, 11.80450
1028.852, 11.74168
1029.334, 11.56172
1029.816, 11.47669
1030.298, 11.52781
1030.781, 11.57589
1031.263, 11.56012
1031.745, 11.51094
1032.227, 11.45973
1032.709, 11.40950
1033.191, 11.38954
1033.673, 11.41643
1034.155, 11.41474
1034.637, 11.36557
1035.120, 11.31836
1035.602, 11.29854
1036.084, 11.28626
1036.566, 11.25237
1037.048, 11.19976
1037.530, 11.17734
1038.012, 11.21996
1038.494, 11.21182
1038.977, 11.09929
1039.459, 11.00923
1039.941, 11.00420
1040.423, 11.04613
1040.905, 11.10850
1041.387, 11.18712
1041.869, 11.18189
1042.351, 11.00842
1042.833, 10.89223
1043.316, 10.87267
1043.798, 10.87653
1044.280, 10.89146
1044.762, 10.90158
1045.244, 10.88377
1045.726, 10.83974
1046.208, 10.80081
1046.690, 10.77882
1047.172, 10.74568
1047.655, 10.55849
1048.137, 10.60932
1048.619, 10.62935
1049.101, 10.62024
1049.583, 10.49472
1050.065, 10.51953
1050.547, 10.48409
1051.029, 10.44618
1051.512, 10.49211
1051.994, 10.38352
1052.476, 10.42815
1052.958, 10.41162
1053.440, 10.42308
1053.922, 10.37393
1054.404, 10.34350
1054.886, 10.37370
1055.369, 10.37029
1055.851, 10.31416
1056.333, 10.32740
1056.815, 10.31898
1057.297, 10.27924
1057.779, 10.23527
1058.261, 10.22502
1058.743, 10.24271
1059.225, 10.24264
1059.708, 10.20433
1060.190, 10.16992
1060.672, 10.14744
1061.154, 10.13764
1061.636, 10.14489
1062.118, 10.16239
1062.600, 10.19826
1063.082, 10.23888
1063.564, 10.22899
1064.047, 10.13026
1064.529, 10.05188
1065.011, 10.04675
1065.493, 10.05745
1065.975, 10.05389
1066.457, 10.04584
1066.939, 10.04604
1067.421, 10.05376
1067.904, 10.06194
1068.386, 10.06936
1068.868, 10.07389
1069.350, 10.08173
1069.832, 10.07817
1070.314, 10.04728
1070.796, 10.00610
1071.278, 9.967002
1071.760, 9.934890
1072.243, 9.916237
1072.725, 9.913263
1073.207, 9.921220
1073.689, 9.954918
1074.171, 9.978912
1074.653, 9.972925
1075.135, 9.947221
1075.617, 9.892903
1076.099, 9.832593
1076.582, 9.824542
1077.064, 9.886926
1077.546, 9.932693
1078.028, 9.920799
1078.510, 9.885122
1078.992, 9.826652
1079.474, 9.768219
1079.956, 9.730878
1080.439, 9.710441
1080.921, 9.695933
1081.403, 9.684668
1081.885, 9.674165
1082.367, 9.664668
1082.849, 9.653869
1083.331, 9.631547
1083.813, 9.615920
1084.295, 9.643885
1084.778, 9.680556
1085.260, 9.664341
1085.742, 9.586442
1086.224, 9.487723
1086.706, 9.344995
1087.188, 9.246883
1087.670, 9.276579
1088.152, 9.322672
1088.635, 9.303456
1089.117, 9.242043
1089.599, 9.172172
1090.081, 9.102673
1090.563, 9.045457
1091.045, 9.011228
1091.527, 8.975774
1092.009, 8.916348
1092.491, 8.866307
1092.974, 8.863449
1093.456, 8.872116
1093.938, 8.844608
1094.420, 8.784403
1094.902, 8.722817
1095.384, 8.589591
1095.866, 8.629632
1096.348, 8.639901
1096.830, 8.622066
1097.313, 8.488785
1097.795, 8.506912
1098.277, 8.465832
1098.759, 8.423304
1099.241, 8.465679
1099.723, 8.354529
1100.205, 8.397632
1100.687, 8.380595
1101.170, 8.392543
1101.652, 8.344948
1102.134, 8.317098
1102.616, 8.350916
1103.098, 8.352184
1103.580, 8.301723
1104.062, 8.321661
1104.544, 8.218683
1105.026, 8.225495
1105.509, 8.280244
1105.991, 8.237975
1106.473, 8.264165
1106.955, 8.265702
1107.437, 8.151553
1107.919, 8.241411
1108.401, 8.244514
1108.883, 8.158515
1109.365, 8.206838
1109.848, 8.226534
1110.330, 8.270932
1110.812, 8.300963
1111.294, 8.295974
1111.776, 8.269578
1112.258, 8.226371
1112.740, 8.173261
1113.222, 8.143110
1113.705, 8.142372
1114.187, 8.154737
1114.669, 8.189273
1115.151, 8.223919
1115.633, 8.261435
1116.115, 8.288621
1116.597, 8.300741
1117.079, 8.293333
1117.562, 8.248115
1118.044, 8.148635
1118.526, 8.082092
1119.008, 8.047595
1119.490, 8.050247
1119.972, 8.124696
1120.454, 8.188362
1120.936, 8.181957
1121.418, 8.142898
1121.901, 8.132897
1122.383, 8.152382
1122.865, 8.178790
1123.347, 8.228848
1123.829, 8.239565
1124.311, 8.186016
1124.793, 8.135782
1125.275, 8.122980
1125.757, 8.118421
1126.240, 8.085469
1126.722, 8.032010
1127.204, 7.998004
1127.686, 7.980065
1128.168, 8.008017
1128.650, 8.104234
1129.132, 8.153337
1129.614, 8.111226
1130.097, 8.046660
1130.579, 8.017365
1131.061, 8.000822
1131.543, 7.931659
1132.025, 7.808337
1132.507, 7.766261
1132.989, 7.811396
1133.471, 7.843324
1133.953, 7.842903
1134.436, 7.816952
1134.918, 7.767213
1135.400, 7.709157
1135.882, 7.661926
1136.364, 7.627199
1136.846, 7.619748
1137.328, 7.634635
1137.810, 7.623251
1138.292, 7.582997
1138.775, 7.555610
1139.257, 7.556573
1139.739, 7.553749
1140.221, 7.513319
1140.703, 7.462510
1141.185, 7.456519
1141.667, 7.483735
1142.149, 7.516149
1142.632, 7.549124
1143.114, 7.584114
1143.596, 7.613948
1144.078, 7.588961
1144.560, 7.474506
1145.042, 7.349060
1145.524, 7.298957
1146.006, 7.300965
1146.489, 7.343373
1146.971, 7.398956
1147.453, 7.412111
1147.935, 7.386186
1148.417, 7.355187
1148.899, 7.332027
1149.381, 7.317630
1149.863, 7.317533
1150.345, 7.319547
1150.828, 7.305732
1151.310, 7.293733
1151.792, 7.316823
1152.274, 7.351662
1152.756, 7.344817
1153.238, 7.297196
1153.720, 7.270602
1154.202, 7.300559
1154.684, 7.324601
1155.167, 7.296574
1155.649, 7.268229
1156.131, 7.279848
1156.613, 7.303097
1157.095, 7.304851
1157.577, 7.290620
1158.059, 7.285439
1158.541, 7.296073
1159.024, 7.295555
1159.506, 7.264481
1159.988, 7.239953
1160.470, 7.228827
1160.952, 7.231224
1161.434, 7.260952
1161.916, 7.296394
1162.398, 7.300889
1162.880, 7.276176
1163.363, 7.273944
1163.845, 7.343285
1164.327, 7.341324
1164.809, 7.200500
1165.291, 7.105178
1165.773, 7.137561
1166.255, 7.197622
1166.737, 7.201930
1167.219, 7.174226
1167.702, 7.178586
1168.184, 7.161397
1168.666, 7.141557
1169.148, 7.147828
1169.630, 7.113369
1170.112, 7.138649
1170.594, 7.154489
1171.076, 7.123292
1171.559, 7.076646
1172.041, 7.053622
1172.523, 7.048627
1173.005, 7.037811
1173.487, 7.023195
1173.969, 7.037821
1174.451, 7.080281
1174.933, 7.099629
1175.416, 7.082853
1175.898, 7.067300
1176.380, 7.079841
1176.862, 7.099701
1177.344, 7.088594
1177.826, 7.066181
1178.308, 7.097672
1178.790, 7.149786
1179.272, 7.122633
1179.755, 7.025781
1180.237, 6.940223
1180.719, 6.897841
1181.201, 6.898353
1181.683, 6.961774
1182.165, 7.030364
1182.647, 7.062087
1183.129, 7.056827
1183.611, 6.979565
1184.094, 6.883926
1184.576, 6.875038
1185.058, 6.940293
1185.540, 6.955650
1186.022, 6.862550
1186.504, 6.803193
1186.986, 6.876627
1187.468, 6.951609
1187.951, 6.969597
1188.433, 6.957695
1188.915, 6.923460
1189.397, 6.883682
1189.879, 6.862001
1190.361, 6.860520
1190.843, 6.875195
1191.325, 6.934942
1191.807, 6.962722
1192.290, 6.940399
1192.772, 6.907270
1193.254, 6.863736
1193.736, 6.830911
1194.218, 6.832530
1194.700, 6.854897
1195.182, 6.862723
1195.664, 6.854999
1196.146, 6.845132
1196.629, 6.833255
1197.111, 6.815979
1197.593, 6.790115
1198.075, 6.779215
1198.557, 6.797045
1199.039, 6.816062
1199.521, 6.803232
1200.003, 6.817597
1200.486, 6.779049
1200.968, 6.807322
1201.450, 6.798988
1201.932, 6.760698
1202.414, 6.746118
1202.896, 6.763008
1203.378, 6.775194
1203.860, 6.762829
1204.343, 6.745816
1204.825, 6.741127
1205.307, 6.747774
1205.789, 6.765477
1206.271, 6.792970
1206.753, 6.852399
1207.235, 6.911698
1207.717, 6.884212
1208.199, 6.770968
1208.682, 6.696393
1209.164, 6.726672
1209.646, 6.765399
1210.128, 6.775187
1210.610, 6.766462
1211.092, 6.732787
1211.574, 6.694616
1212.056, 6.664957
1212.538, 6.647539
1213.021, 6.654267
1213.503, 6.689038
1213.985, 6.697636
1214.467, 6.635238
1214.949, 6.617412
1215.431, 6.695127
1215.913, 6.738855
1216.395, 6.676958
1216.878, 6.606898
1217.360, 6.623554
1217.842, 6.598911
1218.324, 6.607941
1218.806, 6.642785
1219.288, 6.648704
1219.770, 6.719339
1220.252, 6.738256
1220.734, 6.687349
1221.217, 6.614861
1221.699, 6.540781
1222.181, 6.496512
1222.663, 6.518139
1223.145, 6.573158
1223.627, 6.610291
1224.109, 6.629651
1224.591, 6.623922
1225.073, 6.602386
1225.556, 6.586190
1226.038, 6.579630
1226.520, 6.584085
1227.002, 6.599753
1227.484, 6.606905
1227.966, 6.523860
1228.448, 6.587519
1228.930, 6.620385
1229.413, 6.624100
1229.895, 6.511414
1230.377, 6.549053
1230.859, 6.526447
1231.341, 6.501373
1231.823, 6.560167
1232.305, 6.464413
1232.787, 6.521879
1233.270, 6.518168
1233.752, 6.542465
1234.234, 6.506145
1234.716, 6.488548
1235.198, 6.531585
1235.680, 6.541047
1236.162, 6.497751
1236.644, 6.523825
1237.126, 6.425955
1237.609, 6.436835
1238.091, 6.494656
1238.573, 6.454406
1239.055, 6.481588
1239.537, 6.483090
1240.019, 6.367877
1240.501, 6.455642
1240.983, 6.455625
1241.465, 6.365478
1241.948, 6.446273
1242.430, 6.368549
1242.912, 6.347414
1243.394, 6.368862
1243.876, 6.345918
1244.358, 6.392964
1244.840, 6.372584
1245.322, 6.346178
1245.805, 6.346048
1246.287, 6.271435
1246.769, 6.335032
1247.251, 6.304220
1247.733, 6.320335
1248.215, 6.418067
1248.697, 6.428708
1249.179, 6.374888
1249.661, 6.302972
1250.144, 6.225249
1250.626, 6.185930
1251.108, 6.197423
1251.590, 6.214753
1252.072, 6.236979
1252.554, 6.269242
1253.036, 6.321136
1253.518, 6.359348
1254.000, 6.365318
1254.483, 6.373407
1254.965, 6.344806
1255.447, 6.332115
1255.929, 6.292596
1256.411, 6.233521
1256.893, 6.209106
1257.375, 6.217151
1257.857, 6.248879
1258.340, 6.291569
1258.822, 6.279827
1259.304, 6.187302
1259.786, 6.102601
1260.268, 6.103900
1260.750, 6.138959
1261.232, 6.171992
1261.714, 6.196922
1262.197, 6.212361
1262.679, 6.212135
1263.161, 6.175110
1263.643, 6.116398
1264.125, 6.086563
1264.607, 6.098870
1265.089, 6.108911
1265.571, 6.114408
1266.053, 6.107315
1266.536, 6.071052
1267.018, 6.045166
1267.500, 6.046705
1267.982, 6.062951
1268.464, 6.089633
1268.946, 6.113002
1269.428, 6.094226
1269.910, 6.036105
1270.392, 6.003178
1270.875, 5.995218
1271.357, 6.013053
1271.839, 6.053044
1272.321, 6.076367
1272.803, 6.070530
1273.285, 6.055887
1273.767, 6.048116
1274.249, 6.032150
1274.732, 5.970330
1275.214, 5.909629
1275.696, 5.922247
1276.178, 5.960224
1276.660, 5.959247
1277.142, 5.928481
1277.624, 5.895742
1278.106, 5.868639
1278.589, 5.855076
1279.071, 5.848083
1279.553, 5.876849
1280.035, 6.005622
1280.517, 6.084657
1280.999, 6.048877
1281.481, 5.992807
1281.963, 5.965615
1282.445, 5.955128
1282.927, 5.946337
1283.410, 5.939099
1283.892, 5.930222
1284.374, 5.920020
##END=



