##NAMES=Alunite
##RRUFFID=R070448
##IDEAL CHEMISTRY=KAl_3_(S^6+^O_4_)_2_(OH)_6_
##LOCALITY=Veta del Medio, Inca del Oro, Chile
##OWNER=RRUFF
##SOURCE=Bob Jenkins
##DESCRIPTION=Yellow tabular rhombohedra scattered over matrix
##STATUS=The identification of this mineral has been confirmed only by single crystal X-ray diffraction.
##URL=rruff.info/R070448
120.0649, 114.5877
120.5471, 114.7994
121.0292, 118.3870
121.5113, 126.4261
121.9934, 134.8783
122.4755, 142.5329
122.9576, 149.9966
123.4398, 158.0254
123.9219, 167.1372
124.4040, 176.4925
124.8861, 183.4423
125.3682, 184.6405
125.8503, 189.5529
126.3325, 201.9156
126.8146, 217.9820
127.2967, 233.6683
127.7788, 246.7302
128.2609, 258.0096
128.7430, 270.2540
129.2252, 281.1997
129.7073, 296.4375
130.1894, 317.2524
130.6715, 342.6563
131.1536, 371.6208
131.6357, 403.8592
132.1179, 438.8149
132.6000, 472.1060
133.0821, 501.5777
133.5642, 531.5399
134.0463, 563.1994
134.5284, 595.8170
135.0106, 628.3187
135.4927, 659.9703
135.9748, 690.7017
136.4569, 718.5791
136.9390, 734.9121
137.4211, 757.3548
137.9033, 794.3307
138.3854, 842.1043
138.8675, 891.8708
139.3496, 937.2366
139.8317, 978.1984
140.3138, 1020.663
140.7960, 1060.776
141.2781, 1105.467
141.7602, 1160.612
142.2423, 1223.738
142.7244, 1285.376
143.2065, 1337.364
143.6887, 1379.391
144.1708, 1432.372
144.6529, 1497.825
145.1350, 1571.155
145.6171, 1650.337
146.0992, 1735.151
146.5814, 1825.890
147.0635, 1923.579
147.5456, 2028.694
148.0277, 2134.610
148.5098, 2240.475
148.9919, 2347.592
149.4741, 2458.558
149.9562, 2573.864
150.4383, 2688.765
150.9204, 2804.028
151.4025, 2916.835
151.8846, 3012.145
152.3668, 3079.425
152.8489, 3134.545
153.3310, 3195.032
153.8131, 3262.380
154.2952, 3321.012
154.7773, 3362.243
155.2595, 3384.450
155.7416, 3380.503
156.2237, 3346.175
156.7058, 3286.426
157.1879, 3203.606
157.6700, 3096.538
158.1522, 2976.149
158.6343, 2845.994
159.1164, 2708.724
159.5985, 2569.938
160.0806, 2429.722
160.5627, 2289.589
161.0449, 2151.563
161.5270, 2015.049
162.0091, 1885.498
162.4912, 1767.772
162.9733, 1660.111
163.4554, 1559.366
163.9376, 1461.794
164.4197, 1371.926
164.9018, 1300.858
165.3839, 1252.841
165.8660, 1212.450
166.3481, 1170.468
166.8303, 1129.088
167.3124, 1092.689
167.7945, 1065.928
168.2766, 1044.220
168.7587, 1015.815
169.2408, 975.4777
169.7230, 940.3353
170.2051, 922.2902
170.6872, 914.3829
171.1693, 906.1340
171.6514, 891.7836
172.1335, 874.4341
172.6157, 862.4418
173.0978, 858.5598
173.5799, 854.6112
174.0620, 846.1364
174.5441, 835.3754
175.0262, 825.6208
175.5084, 818.5192
175.9905, 813.3694
176.4726, 808.7043
176.9547, 806.4036
177.4368, 800.7997
177.9189, 787.0882
178.4010, 769.9335
178.8832, 755.7355
179.3653, 747.8302
179.8474, 744.5194
180.3295, 740.3351
180.8116, 733.0291
181.2937, 729.1398
181.7759, 734.8325
182.2580, 743.3417
182.7401, 745.4421
183.2222, 735.3774
183.7043, 718.1578
184.1864, 708.2770
184.6686, 709.2210
185.1507, 712.0558
185.6328, 714.9064
186.1149, 717.7512
186.5970, 720.6261
187.0791, 723.5725
187.5613, 726.4835
188.0434, 729.3462
188.5255, 733.2379
189.0076, 734.9464
189.4897, 732.8007
189.9718, 728.9327
190.4540, 724.8420
190.9361, 720.9952
191.4182, 718.6378
191.9003, 721.0561
192.3824, 730.5655
192.8645, 741.1446
193.3467, 752.4468
193.8288, 763.8223
194.3109, 774.1899
194.7930, 783.0812
195.2751, 792.0177
195.7572, 804.7550
196.2394, 825.3943
196.7215, 842.1859
197.2036, 849.3184
197.6857, 854.9465
198.1678, 867.0323
198.6499, 888.1469
199.1321, 913.1592
199.6142, 931.2880
200.0963, 933.9760
200.5784, 947.5637
201.0605, 979.6257
201.5426, 1018.044
202.0248, 1053.072
202.5069, 1082.268
202.9890, 1109.985
203.4711, 1143.091
203.9532, 1182.283
204.4353, 1225.708
204.9175, 1274.852
205.3996, 1326.389
205.8817, 1377.845
206.3638, 1428.878
206.8459, 1481.168
207.3280, 1537.273
207.8102, 1596.736
208.2923, 1660.587
208.7744, 1731.512
209.2565, 1804.218
209.7386, 1874.286
210.2207, 1941.682
210.7029, 2011.125
211.1850, 2088.750
211.6671, 2176.580
212.1492, 2263.755
212.6313, 2342.884
213.1134, 2427.071
213.5956, 2525.629
214.0777, 2636.322
214.5598, 2748.626
215.0419, 2850.404
215.5240, 2937.829
216.0061, 3038.908
216.4883, 3167.243
216.9704, 3296.885
217.4525, 3417.030
217.9346, 3529.950
218.4167, 3645.625
218.8988, 3773.474
219.3810, 3914.006
219.8631, 4048.084
220.3452, 4178.833
220.8273, 4299.479
221.3094, 4401.570
221.7915, 4491.939
222.2737, 4584.912
222.7558, 4691.453
223.2379, 4809.748
223.7200, 4910.969
224.2021, 4990.650
224.6842, 5055.953
225.1664, 5108.010
225.6485, 5147.068
226.1306, 5172.513
226.6127, 5183.335
227.0948, 5181.428
227.5770, 5175.444
228.0591, 5175.339
228.5412, 5155.406
229.0233, 5101.544
229.5054, 5030.753
229.9875, 4962.153
230.4697, 4904.413
230.9518, 4852.493
231.4339, 4793.069
231.9160, 4720.911
232.3981, 4650.242
232.8802, 4589.238
233.3624, 4527.215
233.8445, 4454.143
234.3266, 4366.984
234.8087, 4269.352
235.2908, 4167.641
235.7729, 4061.012
236.2551, 3951.201
236.7372, 3837.526
237.2193, 3720.917
237.7014, 3599.804
238.1835, 3474.717
238.6656, 3348.878
239.1478, 3226.792
239.6299, 3110.746
240.1120, 2988.968
240.5941, 2846.953
241.0762, 2710.751
241.5583, 2593.229
242.0405, 2494.116
242.5226, 2405.262
243.0047, 2320.123
243.4868, 2238.776
243.9689, 2158.527
244.4510, 2073.744
244.9332, 1995.205
245.4153, 1930.001
245.8974, 1874.634
246.3795, 1820.356
246.8616, 1759.995
247.3437, 1694.348
247.8259, 1634.508
248.3080, 1585.813
248.7901, 1535.638
249.2722, 1473.488
249.7543, 1407.765
250.2364, 1353.430
250.7186, 1320.759
251.2007, 1301.660
251.6828, 1271.181
252.1649, 1220.637
252.6470, 1176.304
253.1291, 1150.400
253.6113, 1132.795
254.0934, 1113.385
254.5755, 1088.765
255.0576, 1060.234
255.5397, 1027.821
256.0219, 989.1561
256.5040, 956.0396
256.9861, 936.6232
257.4682, 921.4708
257.9503, 903.2857
258.4324, 880.4680
258.9146, 858.0082
259.3967, 841.8349
259.8788, 832.2394
260.3609, 821.3392
260.8430, 804.1020
261.3251, 788.3680
261.8073, 781.2030
262.2894, 782.2605
262.7715, 782.9041
263.2536, 775.9186
263.7357, 762.7116
264.2178, 751.2441
264.7000, 741.3519
265.1821, 735.0884
265.6642, 734.8501
266.1463, 739.2626
266.6284, 743.9532
267.1105, 747.6394
267.5927, 750.0734
268.0748, 750.4747
268.5569, 748.4485
269.0390, 745.6309
269.5211, 740.2111
270.0032, 734.9891
270.4854, 735.7992
270.9675, 748.6993
271.4496, 764.5134
271.9317, 772.0918
272.4138, 771.1965
272.8959, 770.3883
273.3781, 772.8909
273.8602, 778.8336
274.3423, 788.2819
274.8244, 803.7781
275.3065, 818.2050
275.7886, 827.3610
276.2708, 831.5988
276.7529, 831.5841
277.2350, 825.6396
277.7171, 818.1001
278.1992, 816.0911
278.6813, 819.8529
279.1635, 825.9829
279.6456, 836.0037
280.1277, 847.0009
280.6098, 852.9129
281.0919, 851.8168
281.5740, 849.3995
282.0562, 853.4299
282.5383, 864.7067
283.0204, 871.8990
283.5025, 871.9661
283.9846, 868.5280
284.4667, 863.5914
284.9489, 857.7040
285.4310, 853.0017
285.9131, 851.1969
286.3952, 852.4135
286.8773, 855.0854
287.3594, 860.3443
287.8416, 865.8187
288.3237, 870.6227
288.8058, 874.7465
289.2879, 878.6852
289.7700, 883.0590
290.2521, 886.9037
290.7343, 885.8644
291.2164, 872.6989
291.6985, 863.9082
292.1806, 866.7442
292.6627, 873.6001
293.1448, 874.7885
293.6270, 866.9424
294.1091, 853.7158
294.5912, 841.0979
295.0733, 825.4860
295.5554, 818.1530
296.0375, 825.0746
296.5197, 835.3260
297.0018, 842.3964
297.4839, 844.9708
297.9660, 843.9647
298.4481, 839.7554
298.9302, 831.5047
299.4124, 825.8880
299.8945, 824.1892
300.3766, 823.7448
300.8587, 824.9937
301.3408, 826.7766
301.8229, 826.7639
302.3050, 823.0524
302.7871, 816.7123
303.2693, 813.2605
303.7514, 814.0172
304.2335, 815.9948
304.7156, 819.1138
305.1977, 822.7419
305.6798, 826.4861
306.1620, 830.2346
306.6441, 833.3801
307.1262, 834.4517
307.6083, 832.5189
308.0904, 831.9753
308.5725, 834.9399
309.0547, 838.6218
309.5368, 840.8986
310.0189, 841.7888
310.5010, 843.6545
310.9831, 850.0923
311.4652, 860.3954
311.9474, 865.8428
312.4295, 861.5510
312.9116, 858.5855
313.3937, 865.5849
313.8758, 879.2789
314.3579, 891.0200
314.8401, 894.0496
315.3222, 894.0106
315.8043, 901.5409
316.2864, 917.7074
316.7685, 935.2067
317.2506, 951.3541
317.7328, 965.7863
318.2149, 977.0375
318.6970, 981.3097
319.1791, 988.6384
319.6612, 1007.469
320.1433, 1036.030
320.6255, 1067.777
321.1076, 1102.355
321.5897, 1135.943
322.0718, 1162.572
322.5539, 1182.076
323.0360, 1198.402
323.5182, 1207.555
324.0003, 1216.373
324.4824, 1234.502
324.9645, 1263.615
325.4466, 1297.418
325.9287, 1330.408
326.4109, 1362.461
326.8930, 1395.182
327.3751, 1430.320
327.8572, 1464.657
328.3393, 1494.952
328.8214, 1522.793
329.3036, 1552.922
329.7857, 1588.482
330.2678, 1628.180
330.7499, 1665.021
331.2320, 1693.868
331.7141, 1726.460
332.1963, 1766.729
332.6784, 1810.200
333.1605, 1853.587
333.6426, 1895.355
334.1247, 1933.349
334.6068, 1963.767
335.0890, 1982.401
335.5711, 2004.478
336.0532, 2032.607
336.5353, 2061.387
337.0174, 2093.758
337.4995, 2125.189
337.9817, 2144.020
338.4638, 2138.563
338.9459, 2111.758
339.4280, 2091.088
339.9101, 2088.103
340.3922, 2073.660
340.8744, 2035.546
341.3565, 1983.872
341.8386, 1929.973
342.3207, 1877.047
342.8028, 1827.452
343.2849, 1787.173
343.7671, 1758.192
344.2492, 1723.775
344.7313, 1676.237
345.2134, 1624.353
345.6955, 1573.541
346.1776, 1524.171
346.6598, 1478.084
347.1419, 1436.522
347.6240, 1399.147
348.1061, 1364.281
348.5882, 1331.014
349.0703, 1302.498
349.5525, 1283.090
350.0346, 1270.678
350.5167, 1259.749
350.9988, 1247.627
351.4809, 1237.961
351.9630, 1236.255
352.4452, 1240.700
352.9273, 1240.689
353.4094, 1228.928
353.8915, 1212.289
354.3736, 1209.930
354.8557, 1226.018
355.3379, 1243.763
355.8200, 1259.352
356.3021, 1274.708
356.7842, 1291.371
357.2663, 1309.876
357.7484, 1330.825
358.2306, 1354.972
358.7127, 1382.704
359.1948, 1412.240
359.6769, 1438.981
360.1590, 1471.525
360.6411, 1518.733
361.1233, 1574.591
361.6054, 1625.511
362.0875, 1663.159
362.5696, 1692.028
363.0517, 1728.569
363.5338, 1773.836
364.0160, 1826.059
364.4981, 1893.397
364.9802, 1961.510
365.4623, 2016.522
365.9444, 2056.137
366.4265, 2092.132
366.9087, 2136.097
367.3908, 2188.553
367.8729, 2246.403
368.3550, 2312.575
368.8371, 2381.161
369.3192, 2452.712
369.8014, 2524.513
370.2835, 2590.023
370.7656, 2646.396
371.2477, 2694.684
371.7298, 2733.544
372.2119, 2761.719
372.6941, 2793.096
373.1762, 2843.741
373.6583, 2893.659
374.1404, 2913.308
374.6225, 2896.518
375.1046, 2868.479
375.5868, 2841.548
376.0689, 2812.755
376.5510, 2778.095
377.0331, 2737.498
377.5152, 2684.954
377.9973, 2611.681
378.4795, 2515.256
378.9616, 2420.656
379.4437, 2328.495
379.9258, 2238.197
380.4079, 2153.021
380.8900, 2070.197
381.3722, 1982.382
381.8543, 1884.762
382.3364, 1782.382
382.8185, 1688.715
383.3006, 1604.620
383.7827, 1530.483
384.2649, 1471.261
384.7470, 1418.729
385.2291, 1365.876
385.7112, 1311.819
386.1933, 1259.768
386.6754, 1212.167
387.1576, 1168.971
387.6397, 1135.005
388.1218, 1120.438
388.6039, 1103.335
389.0860, 1074.012
389.5681, 1038.205
390.0503, 1005.343
390.5324, 979.2034
391.0145, 957.4301
391.4966, 935.9168
391.9787, 914.5226
392.4608, 895.4179
392.9430, 878.6268
393.4251, 865.2608
393.9072, 857.1694
394.3893, 854.2323
394.8714, 851.1466
395.3535, 847.0566
395.8357, 840.5923
396.3178, 827.3100
396.7999, 806.3593
397.2820, 787.5598
397.7641, 778.6232
398.2462, 777.8331
398.7284, 774.3367
399.2105, 766.7365
399.6926, 758.1268
400.1747, 746.8118
400.6568, 735.9476
401.1389, 732.5233
401.6211, 738.8780
402.1032, 747.3131
402.5853, 745.7625
403.0674, 728.4131
403.5495, 718.9197
404.0316, 722.7249
404.5138, 728.0897
404.9959, 730.9539
405.4780, 730.3080
405.9601, 724.2812
406.4422, 710.4962
406.9243, 693.1818
407.4065, 689.1487
407.8886, 708.3354
408.3707, 720.3129
408.8528, 713.2731
409.3349, 701.3041
409.8170, 696.0226
410.2992, 698.9409
410.7813, 702.0676
411.2634, 697.7455
411.7455, 687.4623
412.2276, 678.7427
412.7097, 671.9545
413.1919, 667.0778
413.6740, 664.8295
414.1561, 664.4672
414.6382, 664.9191
415.1203, 666.9725
415.6024, 668.5807
416.0846, 667.3513
416.5667, 664.3438
417.0488, 662.7809
417.5309, 663.7303
418.0130, 666.6736
418.4951, 671.2319
418.9773, 678.3292
419.4594, 683.7619
419.9415, 683.6749
420.4236, 684.9043
420.9057, 694.5867
421.3878, 710.1605
421.8700, 722.7307
422.3521, 726.3895
422.8342, 723.0488
423.3163, 720.9077
423.7984, 720.0913
424.2805, 720.4098
424.7627, 723.0201
425.2448, 725.8531
425.7269, 726.3707
426.2090, 724.6745
426.6911, 724.0831
427.1732, 727.3935
427.6554, 734.5607
428.1375, 745.2264
428.6196, 761.2764
429.1017, 777.1893
429.5838, 789.8657
430.0659, 800.7455
430.5481, 811.9860
431.0302, 824.7031
431.5123, 836.5676
431.9944, 843.4546
432.4765, 847.5077
432.9586, 856.8209
433.4408, 874.0320
433.9229, 895.1300
434.4050, 916.1668
434.8871, 937.1166
435.3692, 956.8089
435.8513, 976.8818
436.3335, 994.0521
436.8156, 1002.037
437.2977, 1005.422
437.7798, 1016.130
438.2619, 1040.554
438.7440, 1074.066
439.2262, 1105.178
439.7083, 1135.272
440.1904, 1159.944
440.6725, 1172.734
441.1546, 1186.233
441.6367, 1211.403
442.1189, 1245.797
442.6010, 1277.121
443.0831, 1293.505
443.5652, 1300.484
444.0473, 1321.747
444.5294, 1364.188
445.0116, 1401.567
445.4937, 1415.195
445.9758, 1423.572
446.4579, 1446.545
446.9400, 1488.188
447.4221, 1530.397
447.9043, 1561.236
448.3864, 1584.995
448.8685, 1609.583
449.3506, 1636.040
449.8327, 1664.880
450.3148, 1697.338
450.7970, 1733.038
451.2791, 1767.185
451.7612, 1802.164
452.2433, 1832.972
452.7254, 1851.939
453.2076, 1867.827
453.6897, 1893.329
454.1718, 1931.858
454.6539, 1976.716
455.1360, 2020.235
455.6181, 2063.149
456.1003, 2100.261
456.5824, 2122.995
457.0645, 2148.268
457.5466, 2181.706
458.0287, 2220.960
458.5108, 2261.456
458.9930, 2301.017
459.4751, 2342.701
459.9572, 2395.143
460.4393, 2458.465
460.9214, 2510.403
461.4035, 2544.184
461.8857, 2568.474
462.3678, 2585.475
462.8499, 2597.892
463.3320, 2621.890
463.8141, 2673.868
464.2962, 2729.978
464.7784, 2764.941
465.2605, 2784.252
465.7426, 2812.608
466.2247, 2862.211
466.7068, 2921.054
467.1889, 2965.106
467.6711, 2987.468
468.1532, 3008.438
468.6353, 3025.539
469.1174, 3043.445
469.5995, 3069.457
470.0816, 3099.069
470.5638, 3119.314
471.0459, 3121.366
471.5280, 3110.644
472.0101, 3102.016
472.4922, 3094.677
472.9743, 3091.837
473.4565, 3101.895
473.9386, 3111.144
474.4207, 3111.942
474.9028, 3103.528
475.3849, 3086.881
475.8670, 3055.262
476.3492, 3018.689
476.8313, 2995.828
477.3134, 2987.251
477.7955, 2978.823
478.2776, 2962.605
478.7597, 2942.856
479.2419, 2930.499
479.7240, 2929.118
480.2061, 2925.129
480.6882, 2916.342
481.1703, 2903.594
481.6524, 2884.737
482.1346, 2861.621
482.6167, 2843.068
483.0988, 2837.220
483.5809, 2839.605
484.0630, 2823.930
484.5451, 2773.817
485.0273, 2732.337
485.5094, 2720.775
485.9915, 2708.676
486.4736, 2665.250
486.9557, 2590.876
487.4378, 2519.721
487.9200, 2484.767
488.4021, 2473.196
488.8842, 2443.324
489.3663, 2391.127
489.8484, 2342.124
490.3305, 2307.436
490.8127, 2285.625
491.2948, 2273.325
491.7769, 2275.311
492.2590, 2272.830
492.7411, 2255.475
493.2232, 2232.708
493.7054, 2214.134
494.1875, 2201.177
494.6696, 2193.169
495.1517, 2191.175
495.6338, 2192.674
496.1159, 2180.710
496.5981, 2140.183
497.0802, 2107.239
497.5623, 2092.895
498.0444, 2081.930
498.5265, 2062.607
499.0086, 2033.307
499.4908, 1998.788
499.9729, 1965.788
500.4550, 1930.545
500.9371, 1876.084
501.4192, 1797.325
501.9013, 1720.698
502.3835, 1661.275
502.8656, 1608.070
503.3477, 1543.162
503.8298, 1463.271
504.3119, 1385.319
504.7940, 1318.609
505.2762, 1255.661
505.7583, 1186.667
506.2404, 1112.080
506.7225, 1041.771
507.2046, 981.3103
507.6867, 931.0316
508.1689, 893.4299
508.6510, 883.6667
509.1331, 864.2281
509.6152, 822.0563
510.0973, 778.4799
510.5794, 749.4136
511.0616, 734.8685
511.5437, 725.5521
512.0258, 717.0731
512.5079, 707.6083
512.9901, 688.3936
513.4722, 656.0868
513.9543, 635.8290
514.4364, 642.7163
514.9185, 660.7767
515.4006, 668.8625
515.8828, 666.3040
516.3649, 663.3719
516.8470, 665.2045
517.3291, 666.5374
517.8112, 660.7083
518.2933, 649.3951
518.7755, 639.5389
519.2576, 634.5956
519.7397, 634.5080
520.2218, 639.7969
520.7039, 656.6124
521.1860, 666.9736
521.6682, 667.2612
522.1503, 665.2958
522.6324, 664.4001
523.1145, 664.7579
523.5966, 665.2975
524.0787, 664.6945
524.5609, 665.6696
525.0430, 674.1074
525.5251, 689.9505
526.0072, 703.8177
526.4893, 712.8846
526.9714, 720.3364
527.4536, 731.2585
527.9357, 744.8542
528.4178, 751.5520
528.8999, 743.5035
529.3820, 734.6304
529.8641, 730.2604
530.3463, 731.5553
530.8284, 741.7373
531.3105, 761.7091
531.7926, 785.6137
532.2747, 805.9189
532.7568, 822.7826
533.2390, 835.4044
533.7211, 839.4379
534.2032, 844.1651
534.6853, 851.0298
535.1674, 860.7551
535.6495, 875.2799
536.1317, 895.7305
536.6138, 916.0735
537.0959, 930.0956
537.5780, 939.4496
538.0601, 948.9077
538.5422, 958.7703
539.0244, 970.3130
539.5065, 984.9803
539.9886, 1001.986
540.4707, 1017.053
540.9528, 1027.404
541.4349, 1040.011
541.9171, 1059.254
542.3992, 1079.442
542.8813, 1093.213
543.3634, 1101.431
543.8455, 1112.931
544.3276, 1136.059
544.8098, 1166.897
545.2919, 1186.887
545.7740, 1190.555
546.2561, 1198.395
546.7382, 1221.382
547.2203, 1246.040
547.7024, 1260.434
548.1845, 1265.180
548.6666, 1272.616
549.1487, 1289.083
549.6309, 1310.128
550.1130, 1333.309
550.5951, 1357.305
551.0772, 1376.712
551.5593, 1389.481
552.0414, 1397.134
552.5236, 1402.293
553.0057, 1405.632
553.4878, 1403.928
553.9699, 1384.610
554.4520, 1374.351
554.9341, 1391.492
555.4163, 1422.391
555.8984, 1445.222
556.3805, 1451.964
556.8626, 1452.156
557.3447, 1458.111
557.8268, 1468.526
558.3090, 1472.725
558.7911, 1469.410
559.2732, 1460.653
559.7553, 1444.708
560.2374, 1424.619
560.7195, 1410.188
561.2017, 1403.168
561.6838, 1398.776
562.1659, 1399.684
562.6480, 1399.960
563.1301, 1391.258
563.6122, 1374.448
564.0944, 1358.581
564.5765, 1350.435
565.0586, 1347.767
565.5407, 1341.523
566.0228, 1330.466
566.5049, 1318.991
566.9871, 1309.592
567.4692, 1298.422
567.9513, 1280.457
568.4334, 1257.711
568.9155, 1239.478
569.3976, 1231.337
569.8798, 1227.828
570.3619, 1224.032
570.8440, 1220.199
571.3261, 1217.764
571.8082, 1217.385
572.2903, 1216.264
572.7725, 1210.809
573.2546, 1200.445
573.7367, 1190.967
574.2188, 1180.025
574.7009, 1172.592
575.1830, 1172.515
575.6652, 1175.235
576.1473, 1176.219
576.6294, 1174.283
577.1115, 1170.078
577.5936, 1163.480
578.0757, 1155.091
578.5579, 1146.153
579.0400, 1136.311
579.5221, 1129.450
580.0042, 1127.937
580.4863, 1129.958
580.9684, 1131.860
581.4506, 1132.716
581.9327, 1136.955
582.4148, 1150.357
582.8969, 1162.613
583.3790, 1165.235
583.8611, 1161.421
584.3433, 1159.367
584.8254, 1162.836
585.3075, 1167.955
585.7896, 1167.635
586.2717, 1161.082
586.7538, 1158.751
587.2360, 1163.221
587.7181, 1168.510
588.2002, 1170.652
588.6823, 1171.520
589.1644, 1175.108
589.6465, 1184.907
590.1287, 1189.579
590.6108, 1177.779
591.0929, 1160.967
591.5750, 1152.542
592.0571, 1153.908
592.5392, 1163.543
593.0214, 1181.854
593.5035, 1203.624
593.9856, 1212.122
594.4677, 1201.295
594.9498, 1191.498
595.4319, 1183.255
595.9141, 1177.503
596.3962, 1176.975
596.8783, 1179.337
597.3604, 1178.633
597.8425, 1171.301
598.3246, 1162.926
598.8068, 1161.770
599.2889, 1163.223
599.7710, 1152.527
600.2531, 1126.748
600.7352, 1102.180
601.2173, 1093.632
601.6995, 1098.522
602.1816, 1095.662
602.6637, 1074.725
603.1458, 1060.106
603.6279, 1060.767
604.1100, 1062.667
604.5922, 1053.790
605.0743, 1035.672
605.5564, 1019.264
606.0385, 1012.549
606.5206, 1008.513
607.0027, 994.2239
607.4849, 971.4464
607.9670, 955.4794
608.4491, 951.3669
608.9312, 949.6270
609.4133, 940.0746
609.8954, 922.6600
610.3776, 910.8215
610.8597, 907.7995
611.3418, 905.7079
611.8239, 901.6821
612.3060, 898.3727
612.7881, 898.9920
613.2703, 903.5041
613.7524, 909.3506
614.2345, 916.1154
614.7166, 921.5952
615.1987, 917.5726
615.6808, 903.3298
616.1630, 896.9542
616.6451, 907.1905
617.1272, 920.7419
617.6093, 921.1733
618.0914, 908.1557
618.5735, 901.5295
619.0557, 904.7007
619.5378, 911.3022
620.0199, 919.8254
620.5020, 929.9534
620.9841, 942.0533
621.4662, 955.8290
621.9484, 969.4507
622.4305, 980.8325
622.9126, 990.9449
623.3947, 1003.667
623.8768, 1019.434
624.3589, 1034.897
624.8411, 1046.893
625.3232, 1060.650
625.8053, 1084.647
626.2874, 1118.213
626.7695, 1147.171
627.2516, 1163.429
627.7338, 1181.181
628.2159, 1207.894
628.6980, 1240.323
629.1801, 1274.069
629.6622, 1307.661
630.1443, 1340.853
630.6265, 1373.438
631.1086, 1405.355
631.5907, 1436.087
632.0728, 1464.958
632.5549, 1495.335
633.0370, 1525.150
633.5192, 1560.267
634.0013, 1610.247
634.4834, 1674.019
634.9655, 1733.095
635.4476, 1779.248
635.9297, 1824.048
636.4119, 1873.481
636.8940, 1925.946
637.3761, 1978.604
637.8582, 2030.811
638.3403, 2084.304
638.8224, 2141.889
639.3046, 2201.947
639.7867, 2251.916
640.2688, 2288.824
640.7509, 2326.643
641.2330, 2369.217
641.7151, 2414.193
642.1973, 2461.603
642.6794, 2510.889
643.1615, 2553.186
643.6436, 2586.194
644.1257, 2612.295
644.6078, 2630.841
645.0900, 2644.126
645.5721, 2654.727
646.0542, 2663.520
646.5363, 2671.195
647.0184, 2678.735
647.5005, 2685.447
647.9827, 2689.688
648.4648, 2694.159
648.9469, 2684.214
649.4290, 2647.809
649.9111, 2604.611
650.3932, 2579.984
650.8754, 2569.107
651.3575, 2534.801
651.8396, 2458.744
652.3217, 2371.619
652.8038, 2281.221
653.2859, 2191.098
653.7681, 2107.883
654.2502, 2031.237
654.7323, 1952.599
655.2144, 1864.072
655.6965, 1769.671
656.1786, 1685.456
656.6608, 1613.821
657.1429, 1536.269
657.6250, 1442.950
658.1071, 1351.993
658.5892, 1285.071
659.0714, 1236.206
659.5535, 1179.948
660.0356, 1097.939
660.5177, 1027.930
660.9998, 988.7653
661.4819, 964.1175
661.9641, 939.3551
662.4462, 911.6319
662.9283, 881.1909
663.4104, 847.3262
663.8925, 813.3155
664.3746, 787.6584
664.8568, 770.7220
665.3389, 748.8943
665.8210, 716.6121
666.3031, 687.3353
666.7852, 673.0663
667.2673, 670.2606
667.7495, 662.3926
668.2316, 646.1490
668.7137, 630.3499
669.1958, 616.4796
669.6779, 603.8683
670.1600, 591.1766
670.6422, 579.1713
671.1243, 570.6638
671.6064, 567.4183
672.0885, 565.0470
672.5706, 555.8630
673.0527, 541.2276
673.5349, 531.9060
674.0170, 529.8306
674.4991, 527.4746
674.9812, 520.4473
675.4633, 510.0453
675.9454, 499.4946
676.4276, 487.5906
676.9097, 478.1309
677.3918, 472.5380
677.8739, 468.0503
678.3560, 463.6741
678.8381, 459.3085
679.3203, 454.9413
679.8024, 450.5775
680.2845, 446.4946
680.7666, 443.3287
681.2487, 440.5868
681.7308, 436.4258
682.2130, 430.9727
682.6951, 428.3102
683.1772, 431.2034
683.6593, 434.3512
684.1414, 428.8792
684.6235, 412.5366
685.1057, 399.5763
685.5878, 390.2275
686.0699, 383.9154
686.5520, 382.4705
687.0341, 382.8179
687.5162, 381.2578
687.9984, 377.6145
688.4805, 375.7144
688.9626, 380.1874
689.4447, 385.6266
689.9268, 385.0583
690.4089, 380.3196
690.8911, 376.9614
691.3732, 376.4868
691.8553, 376.9302
692.3374, 376.6430
692.8195, 375.4342
693.3016, 370.8174
693.7838, 358.6801
694.2659, 352.3329
694.7480, 359.4183
695.2301, 368.4302
695.7122, 372.6122
696.1943, 372.1809
696.6765, 368.4250
697.1586, 358.1838
697.6407, 349.9175
698.1228, 349.6692
698.6049, 353.0960
699.0870, 355.2943
699.5692, 355.6396
700.0513, 355.4835
700.5334, 355.7992
701.0155, 355.3201
701.4976, 350.0936
701.9797, 339.6520
702.4619, 334.8778
702.9440, 339.2226
703.4261, 342.7542
703.9082, 338.2807
704.3903, 329.5262
704.8724, 325.4637
705.3546, 327.2487
705.8367, 329.9831
706.3188, 333.4341
706.8009, 337.2333
707.2830, 342.9641
707.7651, 348.2920
708.2473, 349.0309
708.7294, 344.0559
709.2115, 337.0059
709.6936, 330.1618
710.1757, 324.1407
710.6578, 320.4618
711.1400, 319.1291
711.6221, 320.5390
712.1042, 325.5489
712.5863, 330.2405
713.0684, 329.2843
713.5505, 322.2987
714.0327, 317.8411
714.5148, 319.0554
714.9969, 318.5281
715.4790, 311.9617
715.9611, 305.7061
716.4432, 306.0500
716.9254, 311.8718
717.4075, 316.2420
717.8896, 314.8719
718.3717, 313.3010
718.8538, 318.6531
719.3359, 325.7549
719.8181, 323.5480
720.3002, 312.2598
720.7823, 303.2163
721.2644, 304.2119
721.7465, 311.6813
722.2286, 317.7215
722.7108, 322.5036
723.1929, 324.6758
723.6750, 324.1099
724.1571, 320.8336
724.6392, 312.2204
725.1213, 301.9444
725.6035, 297.7721
726.0856, 301.6706
726.5677, 304.9653
727.0498, 306.0288
727.5319, 306.1321
728.0140, 305.1144
728.4962, 304.0038
728.9783, 305.0341
729.4604, 308.4693
729.9425, 310.8200
730.4246, 308.7026
730.9067, 303.3411
731.3889, 295.3059
731.8710, 285.4470
732.3531, 283.4528
732.8352, 293.2623
733.3173, 304.0591
733.7994, 303.9716
734.2816, 294.1862
734.7637, 290.6218
735.2458, 298.1087
735.7279, 303.7567
736.2100, 306.5060
736.6921, 306.7379
737.1743, 303.8933
737.6564, 298.7474
738.1385, 293.0467
738.6206, 286.4621
739.1027, 281.2856
739.5848, 276.7774
740.0670, 275.7005
740.5491, 284.9651
741.0312, 300.9311
741.5133, 311.4109
741.9954, 310.5944
742.4775, 304.2289
742.9597, 299.6279
743.4418, 296.7438
743.9239, 294.8947
744.4060, 294.2161
744.8881, 293.7524
745.3702, 292.9907
745.8524, 292.4753
746.3345, 292.9578
746.8166, 294.5188
747.2987, 296.4449
747.7808, 301.9013
748.2629, 303.6474
748.7451, 296.0751
749.2272, 286.9940
749.7093, 283.4650
750.1914, 285.2495
750.6735, 288.1411
751.1556, 290.9911
751.6378, 292.6710
752.1199, 291.5123
752.6020, 288.6656
753.0841, 285.9576
753.5662, 283.7545
754.0483, 282.1283
754.5305, 281.0279
755.0126, 281.2238
755.4947, 284.9688
755.9768, 292.8901
756.4589, 298.2032
756.9410, 299.7807
757.4232, 301.5942
757.9053, 308.1936
758.3874, 313.8907
758.8695, 306.7089
759.3516, 284.5163
759.8337, 273.5346
760.3159, 286.1124
760.7980, 297.9602
761.2801, 299.4695
761.7622, 295.9949
762.2443, 292.9854
762.7264, 291.2094
763.2086, 289.0227
763.6907, 284.9276
764.1728, 281.0364
764.6549, 278.7032
765.1370, 278.6642
765.6191, 284.6155
766.1013, 296.1561
766.5834, 305.4380
767.0655, 307.5723
767.5476, 304.6660
768.0297, 300.5244
768.5118, 294.5039
768.9940, 291.3510
769.4761, 291.8886
769.9582, 293.7486
770.4403, 296.6660
770.9224, 299.8594
771.4045, 302.5811
771.8867, 304.9701
772.3688, 305.2975
772.8509, 302.6215
773.3330, 298.7194
773.8151, 292.3581
774.2972, 286.3810
774.7794, 283.2652
775.2615, 283.4688
775.7436, 287.1438
776.2257, 295.8046
776.7078, 304.9159
777.1899, 309.4406
777.6721, 310.5220
778.1542, 309.8488
778.6363, 308.0633
779.1184, 307.5108
779.6005, 309.4614
780.0826, 313.6947
780.5648, 321.4670
781.0469, 333.9855
781.5290, 336.6316
782.0111, 325.5467
782.4932, 314.7015
782.9753, 308.4020
783.4575, 305.8282
783.9396, 307.0786
784.4217, 312.2690
784.9038, 315.5872
785.3859, 313.6617
785.8680, 313.8851
786.3502, 321.5030
786.8323, 329.4970
787.3144, 330.9906
787.7965, 327.2543
788.2786, 324.3715
788.7607, 325.0259
789.2429, 326.7365
789.7250, 329.8746
790.2071, 331.4428
790.6892, 322.5461
791.1713, 306.6203
791.6534, 300.7505
792.1356, 312.2844
792.6177, 328.9583
793.0998, 334.8871
793.5819, 330.7632
794.0640, 321.3575
794.5461, 304.6463
795.0283, 295.9447
795.5104, 301.9693
795.9925, 312.5896
796.4746, 319.1682
796.9567, 321.7011
797.4388, 319.9500
797.9210, 306.5385
798.4031, 299.4982
798.8852, 305.8482
799.3673, 312.5832
799.8494, 310.9184
800.3315, 304.6423
800.8137, 302.1727
801.2958, 306.1834
801.7779, 308.5779
802.2600, 301.4850
802.7421, 294.3716
803.2242, 299.1704
803.7064, 309.4024
804.1885, 310.7913
804.6706, 300.8167
805.1527, 290.5081
805.6348, 289.8941
806.1169, 294.0663
806.5991, 290.9201
807.0812, 281.9539
807.5633, 279.8146
808.0454, 287.0745
808.5275, 294.1634
809.0096, 294.8054
809.4918, 290.8703
809.9739, 286.7242
810.4560, 281.7256
810.9381, 278.6984
811.4202, 276.7834
811.9023, 278.3173
812.3845, 289.4473
812.8666, 301.0096
813.3487, 300.1003
813.8308, 286.7465
814.3129, 279.5752
814.7950, 286.6119
815.2772, 293.4752
815.7593, 294.3383
816.2414, 293.6304
816.7235, 296.2932
817.2056, 301.1702
817.6877, 303.2688
818.1699, 300.0098
818.6520, 295.8831
819.1341, 295.6989
819.6162, 296.5141
820.0983, 291.9076
820.5804, 283.8995
821.0626, 281.0956
821.5447, 286.3998
822.0268, 294.5414
822.5089, 300.2190
822.9910, 303.6472
823.4731, 306.0497
823.9553, 307.5237
824.4374, 305.7322
824.9195, 299.4771
825.4016, 292.5575
825.8837, 287.2966
826.3658, 283.9599
826.8480, 283.6941
827.3301, 288.2441
827.8122, 291.8660
828.2943, 295.2923
828.7764, 296.8383
829.2585, 292.9091
829.7407, 288.5732
830.2228, 291.8332
830.7049, 302.9934
831.1870, 308.4583
831.6691, 298.8153
832.1512, 290.3933
832.6334, 293.3841
833.1155, 298.7266
833.5976, 295.8258
834.0797, 286.4496
834.5618, 279.5500
835.0439, 279.1523
835.5261, 281.9093
836.0082, 286.6895
836.4903, 291.5504
836.9724, 293.0461
837.4545, 291.6281
837.9366, 288.9930
838.4188, 285.8840
838.9009, 284.3917
839.3830, 287.9030
839.8651, 293.7966
840.3472, 291.2368
840.8293, 280.0243
841.3115, 269.9551
841.7936, 262.0140
842.2757, 259.5259
842.7578, 266.3169
843.2399, 278.0610
843.7220, 283.7463
844.2042, 281.5453
844.6863, 279.3192
845.1684, 276.6837
845.6505, 274.5991
846.1326, 273.6428
846.6147, 273.2070
847.0969, 272.7842
847.5790, 272.3614
848.0611, 271.9392
848.5432, 270.4417
849.0253, 270.4004
849.5074, 275.6560
849.9896, 279.8037
850.4717, 274.9698
850.9538, 265.7407
851.4359, 263.4399
851.9180, 271.9973
852.4001, 280.0314
852.8823, 279.5813
853.3644, 275.3328
853.8465, 269.8337
854.3286, 265.1438
854.8107, 265.3216
855.2928, 270.7754
855.7750, 279.3118
856.2571, 291.0287
856.7392, 299.8620
857.2213, 290.2310
857.7034, 267.7118
858.1855, 259.1310
858.6677, 266.5581
859.1498, 272.4677
859.6319, 268.4149
860.1140, 261.3128
860.5961, 261.0942
861.0782, 267.5075
861.5604, 273.9353
862.0425, 281.2271
862.5246, 284.9794
863.0067, 283.1691
863.4888, 279.5643
863.9709, 276.1591
864.4531, 273.5466
864.9352, 274.0774
865.4173, 280.2095
865.8994, 284.3568
866.3815, 285.4620
866.8636, 285.9587
867.3458, 286.6759
867.8279, 287.2383
868.3100, 286.1673
868.7921, 283.7910
869.2742, 284.9066
869.7563, 297.3110
870.2385, 304.8760
870.7206, 296.5675
871.2027, 284.8180
871.6848, 281.6365
872.1669, 284.1472
872.6490, 282.4305
873.1312, 272.9251
873.6133, 265.5387
874.0954, 270.0343
874.5775, 278.2016
875.0596, 280.9810
875.5417, 280.1786
876.0239, 279.7031
876.5060, 280.4718
876.9881, 281.9383
877.4702, 283.7449
877.9523, 285.9998
878.4344, 290.6992
878.9166, 295.9734
879.3987, 293.1503
879.8808, 282.4563
880.3629, 272.9720
880.8450, 268.3103
881.3271, 267.6906
881.8093, 270.7350
882.2914, 276.8186
882.7735, 282.7031
883.2556, 288.9095
883.7377, 290.1715
884.2198, 284.1194
884.7020, 277.9473
885.1841, 276.1534
885.6662, 277.4715
886.1483, 279.3907
886.6304, 282.3432
887.1125, 283.9491
887.5947, 284.4968
888.0768, 283.1371
888.5589, 275.7629
889.0410, 269.8277
889.5231, 273.8940
890.0052, 285.3318
890.4874, 292.0677
890.9695, 291.6864
891.4516, 289.4789
891.9337, 282.1285
892.4158, 277.4992
892.8979, 282.0425
893.3801, 290.5766
893.8622, 297.3318
894.3443, 301.1058
894.8264, 299.7404
895.3085, 285.3190
895.7906, 274.1196
896.2728, 277.4723
896.7549, 286.3473
897.2370, 293.4261
897.7191, 297.3427
898.2012, 296.7269
898.6833, 291.0374
899.1655, 286.6460
899.6476, 291.6969
900.1297, 298.4434
900.6118, 295.9437
901.0939, 288.0869
901.5760, 282.1520
902.0582, 280.1004
902.5403, 283.6323
903.0224, 294.6439
903.5045, 306.4257
903.9866, 308.8221
904.4688, 303.9832
904.9509, 296.9987
905.4330, 288.7711
905.9151, 282.7334
906.3972, 280.0345
906.8793, 282.9617
907.3615, 295.2389
907.8436, 312.3091
908.3257, 318.8972
908.8078, 314.9370
909.2899, 308.7964
909.7720, 300.4761
910.2542, 297.1540
910.7363, 303.5604
911.2184, 312.8055
911.7005, 314.5341
912.1826, 308.8743
912.6647, 307.3408
913.1469, 312.9563
913.6290, 312.4795
914.1111, 300.0080
914.5932, 287.8850
915.0753, 284.2277
915.5574, 286.5088
916.0396, 289.4235
916.5217, 294.1516
917.0038, 295.0164
917.4859, 288.9507
917.9680, 283.3644
918.4501, 277.7299
918.9323, 275.1021
919.4144, 280.5056
919.8965, 291.1452
920.3786, 296.2988
920.8607, 290.9738
921.3428, 289.5568
921.8250, 296.9373
922.3071, 305.3685
922.7892, 313.2897
923.2713, 319.0552
923.7534, 319.8196
924.2355, 316.2163
924.7177, 313.5958
925.1998, 313.9992
925.6819, 314.9040
926.1640, 316.6885
926.6461, 317.2592
927.1282, 313.8772
927.6104, 308.4987
928.0925, 304.1733
928.5746, 301.6882
929.0567, 300.8622
929.5388, 300.1690
930.0209, 302.7406
930.5031, 315.6479
930.9852, 329.9874
931.4673, 333.2493
931.9494, 327.8284
932.4315, 323.9608
932.9136, 325.3210
933.3958, 326.4199
933.8779, 319.5669
934.3600, 312.1910
934.8421, 316.0560
935.3242, 326.0385
935.8063, 332.0658
936.2885, 332.8008
936.7706, 330.5813
937.2527, 326.4367
937.7348, 323.0502
938.2169, 325.4540
938.6990, 330.3357
939.1812, 327.9052
939.6633, 320.7960
940.1454, 320.5755
940.6275, 329.3658
941.1096, 340.7263
941.5917, 350.7274
942.0739, 357.4623
942.5560, 356.3254
943.0381, 348.6733
943.5202, 340.0015
944.0023, 330.9960
944.4844, 327.8456
944.9666, 332.5826
945.4487, 338.6805
945.9308, 339.9904
946.4129, 338.9630
946.8950, 343.0279
947.3771, 352.1631
947.8593, 360.4618
948.3414, 367.7923
948.8235, 370.8741
949.3056, 367.8665
949.7877, 363.0475
950.2698, 361.3182
950.7520, 361.8447
951.2341, 359.2839
951.7162, 352.3278
952.1983, 351.9733
952.6804, 361.8059
953.1625, 367.9671
953.6447, 362.0564
954.1268, 353.6501
954.6089, 356.9070
955.0910, 370.9235
955.5731, 375.1084
956.0552, 364.7034
956.5374, 359.1033
957.0195, 361.3862
957.5016, 367.4761
957.9837, 377.4303
958.4658, 387.4961
958.9479, 391.4828
959.4301, 389.1132
959.9122, 384.3733
960.3943, 373.9650
960.8764, 367.6699
961.3585, 365.7408
961.8406, 370.0967
962.3228, 387.4846
962.8049, 409.1262
963.2870, 416.9642
963.7691, 407.9906
964.2512, 401.2586
964.7333, 395.6871
965.2155, 393.9364
965.6976, 399.8626
966.1797, 406.4276
966.6618, 408.6004
967.1439, 408.2485
967.6260, 409.6342
968.1082, 413.2226
968.5903, 417.0710
969.0724, 422.2032
969.5545, 426.1090
970.0366, 427.7919
970.5187, 428.3603
971.0009, 426.6423
971.4830, 424.7607
971.9651, 428.7014
972.4472, 441.1428
972.9293, 451.7583
973.4114, 456.6776
973.8936, 462.8040
974.3757, 475.6170
974.8578, 488.0772
975.3399, 490.6410
975.8220, 487.6687
976.3041, 494.3759
976.7863, 517.8816
977.2684, 535.1758
977.7505, 536.4852
978.2326, 536.1556
978.7147, 539.8353
979.1968, 545.3145
979.6790, 549.3466
980.1611, 552.9326
980.6432, 560.5816
981.1253, 574.8060
981.6074, 588.1848
982.0895, 596.0883
982.5717, 605.4392
983.0538, 623.0020
983.5359, 641.6664
984.0180, 652.1124
984.5001, 656.1094
984.9822, 663.3068
985.4644, 677.2724
985.9465, 691.5080
986.4286, 701.8044
986.9107, 713.9099
987.3928, 734.9847
987.8749, 757.1666
988.3571, 766.8340
988.8392, 767.8594
989.3213, 781.9246
989.8034, 823.0059
990.2855, 855.3293
990.7676, 852.4011
991.2498, 848.8016
991.7319, 866.4001
992.2140, 896.3828
992.6961, 929.2660
993.1782, 962.8362
993.6603, 995.9396
994.1425, 1028.156
994.6246, 1059.544
995.1067, 1086.734
995.5888, 1116.769
996.0709, 1157.924
996.5530, 1202.327
997.0352, 1235.735
997.5173, 1261.773
997.9994, 1302.209
998.4815, 1368.904
998.9636, 1437.202
999.4457, 1495.717
999.9279, 1552.374
1000.410, 1610.727
1000.892, 1671.197
1001.374, 1731.133
1001.856, 1792.909
1002.338, 1864.635
1002.821, 1949.043
1003.303, 2044.295
1003.785, 2147.882
1004.267, 2264.423
1004.749, 2400.743
1005.231, 2548.562
1005.713, 2693.046
1006.195, 2837.094
1006.677, 3000.980
1007.160, 3192.779
1007.642, 3397.113
1008.124, 3594.255
1008.606, 3815.211
1009.088, 4092.433
1009.570, 4396.840
1010.052, 4691.541
1010.534, 4979.059
1011.017, 5287.221
1011.499, 5631.404
1011.981, 5977.653
1012.463, 6303.916
1012.945, 6639.173
1013.427, 7001.419
1013.909, 7380.257
1014.391, 7770.053
1014.873, 8161.568
1015.356, 8539.691
1015.838, 8901.083
1016.320, 9237.702
1016.802, 9562.912
1017.284, 9843.184
1017.766, 10061.60
1018.248, 10225.22
1018.730, 10340.60
1019.213, 10407.74
1019.695, 10429.50
1020.177, 10412.88
1020.659, 10318.36
1021.141, 10105.40
1021.623, 9845.222
1022.105, 9585.372
1022.587, 9279.900
1023.069, 8869.076
1023.552, 8379.891
1024.034, 7884.120
1024.516, 7398.288
1024.998, 6894.362
1025.480, 6349.823
1025.962, 5809.112
1026.444, 5277.300
1026.926, 4771.336
1027.409, 4301.738
1027.891, 3872.271
1028.373, 3485.189
1028.855, 3141.825
1029.337, 2841.208
1029.819, 2590.780
1030.301, 2372.917
1030.783, 2191.873
1031.266, 2031.610
1031.748, 1881.107
1032.230, 1743.742
1032.712, 1626.813
1033.194, 1531.263
1033.676, 1449.878
1034.158, 1388.745
1034.640, 1332.382
1035.122, 1276.035
1035.604, 1226.263
1036.087, 1186.765
1036.569, 1156.198
1037.051, 1135.087
1037.533, 1123.640
1038.015, 1108.784
1038.497, 1085.533
1038.979, 1066.861
1039.461, 1057.506
1039.944, 1047.449
1040.426, 1030.031
1040.908, 1011.750
1041.390, 1000.654
1041.872, 996.2111
1042.354, 992.3278
1042.836, 988.2275
1043.318, 986.2685
1043.800, 984.9485
1044.283, 989.5471
1044.765, 1008.565
1045.247, 1024.688
1045.729, 1016.894
1046.211, 992.1138
1046.693, 983.0168
1047.175, 994.4606
1047.657, 1005.398
1048.140, 1016.585
1048.622, 1024.296
1049.104, 1026.454
1049.586, 1026.954
1050.068, 1028.172
1050.550, 1031.346
1051.032, 1041.490
1051.514, 1060.329
1051.996, 1066.943
1052.479, 1058.493
1052.961, 1056.399
1053.443, 1066.994
1053.925, 1077.074
1054.407, 1077.354
1054.889, 1073.411
1055.371, 1076.243
1055.853, 1084.911
1056.335, 1088.356
1056.818, 1086.608
1057.300, 1080.083
1057.782, 1068.718
1058.264, 1066.376
1058.746, 1081.056
1059.228, 1099.467
1059.710, 1103.377
1060.192, 1097.416
1060.675, 1096.779
1061.157, 1100.672
1061.639, 1104.895
1062.121, 1109.020
1062.603, 1114.272
1063.085, 1121.062
1063.567, 1127.512
1064.049, 1131.564
1064.531, 1134.517
1065.014, 1138.337
1065.496, 1143.028
1065.978, 1148.273
1066.460, 1154.399
1066.942, 1162.933
1067.424, 1173.989
1067.906, 1185.035
1068.388, 1193.743
1068.870, 1203.906
1069.353, 1221.902
1069.835, 1242.390
1070.317, 1260.264
1070.799, 1273.873
1071.281, 1276.889
1071.763, 1272.577
1072.245, 1277.266
1072.727, 1299.373
1073.210, 1324.101
1073.692, 1347.182
1074.174, 1361.597
1074.656, 1353.424
1075.138, 1339.157
1075.620, 1341.896
1076.102, 1356.014
1076.584, 1360.709
1077.067, 1350.311
1077.549, 1337.047
1078.031, 1326.790
1078.513, 1314.079
1078.995, 1291.840
1079.477, 1270.763
1079.959, 1261.682
1080.441, 1258.172
1080.923, 1248.437
1081.406, 1231.548
1081.888, 1216.718
1082.370, 1205.679
1082.852, 1196.562
1083.334, 1191.646
1083.816, 1185.577
1084.298, 1172.409
1084.780, 1159.574
1085.262, 1158.030
1085.745, 1164.492
1086.227, 1162.633
1086.709, 1149.901
1087.191, 1135.080
1087.673, 1113.398
1088.155, 1099.509
1088.637, 1098.191
1089.119, 1104.625
1089.602, 1119.420
1090.084, 1134.537
1090.566, 1130.544
1091.048, 1106.386
1091.530, 1093.606
1092.012, 1093.035
1092.494, 1100.517
1092.976, 1116.809
1093.458, 1131.785
1093.941, 1140.411
1094.423, 1145.417
1094.905, 1150.151
1095.387, 1154.386
1095.869, 1155.910
1096.351, 1155.620
1096.833, 1162.163
1097.315, 1175.190
1097.797, 1184.454
1098.280, 1186.803
1098.762, 1186.990
1099.244, 1188.002
1099.726, 1192.130
1100.208, 1207.766
1100.690, 1226.461
1101.172, 1227.008
1101.654, 1216.837
1102.137, 1214.897
1102.619, 1224.373
1103.101, 1242.205
1103.583, 1267.439
1104.065, 1290.370
1104.547, 1303.419
1105.029, 1309.910
1105.511, 1309.137
1105.994, 1306.396
1106.476, 1306.979
1106.958, 1311.255
1107.440, 1318.815
1107.922, 1329.421
1108.404, 1341.043
1108.886, 1353.762
1109.368, 1366.001
1109.850, 1379.097
1110.333, 1389.308
1110.815, 1393.548
1111.297, 1394.076
1111.779, 1390.764
1112.261, 1385.801
1112.743, 1389.520
1113.225, 1407.817
1113.707, 1422.403
1114.189, 1432.693
1114.672, 1438.990
1115.154, 1437.060
1115.636, 1437.744
1116.118, 1451.757
1116.600, 1469.579
1117.082, 1472.533
1117.564, 1460.526
1118.046, 1452.924
1118.529, 1450.671
1119.011, 1447.939
1119.493, 1444.427
1119.975, 1437.062
1120.457, 1423.771
1120.939, 1411.754
1121.421, 1409.119
1121.903, 1411.678
1122.385, 1407.013
1122.868, 1397.602
1123.350, 1397.379
1123.832, 1405.289
1124.314, 1415.233
1124.796, 1424.123
1125.278, 1421.285
1125.760, 1400.087
1126.242, 1375.165
1126.724, 1361.205
1127.207, 1355.079
1127.689, 1356.793
1128.171, 1360.670
1128.653, 1356.586
1129.135, 1346.782
1129.617, 1339.367
1130.099, 1336.462
1130.581, 1335.308
1131.064, 1333.287
1131.546, 1334.889
1132.028, 1349.772
1132.510, 1360.977
1132.992, 1349.915
1133.474, 1333.641
1133.956, 1333.796
1134.438, 1348.040
1134.921, 1360.457
1135.403, 1369.203
1135.885, 1375.869
1136.367, 1379.934
1136.849, 1382.519
1137.331, 1380.325
1137.813, 1382.318
1138.295, 1398.105
1138.777, 1415.311
1139.260, 1413.421
1139.742, 1395.575
1140.224, 1391.916
1140.706, 1403.837
1141.188, 1423.872
1141.670, 1454.197
1142.152, 1458.201
1142.634, 1422.422
1143.116, 1388.300
1143.599, 1388.765
1144.081, 1405.855
1144.563, 1409.687
1145.045, 1404.212
1145.527, 1399.664
1146.009, 1396.542
1146.491, 1399.617
1146.973, 1405.661
1147.456, 1399.453
1147.938, 1375.880
1148.420, 1347.492
1148.902, 1317.985
1149.384, 1296.971
1149.866, 1303.536
1150.348, 1313.086
1150.830, 1297.505
1151.313, 1270.419
1151.795, 1254.415
1152.277, 1249.407
1152.759, 1239.697
1153.241, 1218.712
1153.723, 1204.349
1154.205, 1204.526
1154.687, 1206.369
1155.169, 1209.705
1155.651, 1209.389
1156.134, 1199.760
1156.616, 1186.728
1157.098, 1177.775
1157.580, 1173.165
1158.062, 1177.736
1158.544, 1195.957
1159.026, 1201.227
1159.508, 1189.496
1159.991, 1181.032
1160.473, 1181.894
1160.955, 1187.205
1161.437, 1193.686
1161.919, 1201.296
1162.401, 1209.361
1162.883, 1218.810
1163.365, 1234.346
1163.848, 1253.765
1164.330, 1268.109
1164.812, 1278.602
1165.294, 1294.811
1165.776, 1319.282
1166.258, 1344.413
1166.740, 1365.579
1167.222, 1384.683
1167.704, 1404.615
1168.187, 1421.817
1168.669, 1427.368
1169.151, 1432.356
1169.633, 1452.218
1170.115, 1483.685
1170.597, 1514.163
1171.079, 1541.740
1171.561, 1566.058
1172.043, 1589.408
1172.526, 1605.795
1173.008, 1606.515
1173.490, 1611.627
1173.972, 1631.596
1174.454, 1657.023
1174.936, 1679.057
1175.418, 1697.897
1175.900, 1714.063
1176.383, 1727.628
1176.865, 1737.029
1177.347, 1742.231
1177.829, 1746.569
1178.311, 1750.594
1178.793, 1750.023
1179.275, 1742.757
1179.757, 1735.706
1180.240, 1738.223
1180.722, 1741.566
1181.204, 1732.588
1181.686, 1713.890
1182.168, 1682.116
1182.650, 1647.666
1183.132, 1635.346
1183.614, 1642.105
1184.096, 1640.675
1184.578, 1621.410
1185.061, 1591.332
1185.543, 1538.820
1186.025, 1496.478
1186.507, 1491.321
1186.989, 1486.717
1187.471, 1451.772
1187.953, 1405.350
1188.435, 1379.710
1188.918, 1368.806
1189.400, 1333.259
1189.882, 1259.667
1190.364, 1209.662
1190.846, 1187.716
1191.328, 1170.394
1191.810, 1153.837
1192.292, 1133.422
1192.775, 1106.456
1193.257, 1075.372
1193.739, 1042.138
1194.221, 1008.442
1194.703, 978.0746
1195.185, 950.3273
1195.667, 921.8052
1196.149, 894.3369
1196.631, 875.4051
1197.114, 864.1821
1197.596, 849.4785
1198.078, 825.7687
1198.560, 804.4510
1199.042, 796.6643
1199.524, 788.1092
1200.006, 768.0887
1200.488, 746.6271
1200.970, 729.3669
1201.453, 717.1846
1201.935, 714.6490
1202.417, 719.0477
1202.899, 709.7523
1203.381, 679.5555
1203.863, 659.1290
1204.345, 651.4090
1204.827, 644.2543
1205.310, 635.5412
1205.792, 625.0122
1206.274, 611.9338
1206.756, 601.2490
1207.238, 599.9766
1207.720, 603.1190
1208.202, 597.4763
1208.684, 586.1832
1209.167, 576.2002
1209.649, 569.2590
1210.131, 572.0961
1210.613, 582.1115
1211.095, 584.0316
1211.577, 571.6220
1212.059, 560.1351
1212.541, 563.7117
1213.023, 564.1883
1213.505, 543.5021
1213.988, 525.7049
1214.470, 534.9971
1214.952, 551.4215
1215.434, 546.8198
1215.916, 527.4290
1216.398, 520.6284
1216.880, 530.3453
1217.362, 526.8090
1217.845, 504.7576
1218.327, 492.6049
1218.809, 495.5347
1219.291, 500.3491
1219.773, 501.9530
1220.255, 498.0947
1220.737, 485.3368
1221.219, 471.5485
1221.702, 472.1234
1222.184, 480.8955
1222.666, 488.1816
1223.148, 492.1251
1223.630, 487.6076
1224.112, 477.3385
1224.594, 469.6912
1225.076, 466.7552
1225.558, 464.3902
1226.041, 459.5645
1226.523, 457.6449
1227.005, 464.8482
1227.487, 469.6073
1227.969, 464.4594
1228.451, 457.2995
1228.933, 452.0146
1229.415, 450.6790
1229.897, 459.2607
1230.380, 475.6386
1230.862, 473.8415
1231.344, 452.9412
1231.826, 435.6700
1232.308, 423.6880
1232.790, 423.6734
1233.272, 435.9502
1233.754, 442.9647
1234.237, 434.5027
1234.719, 425.0880
1235.201, 432.1585
1235.683, 443.3555
1236.165, 447.6564
1236.647, 446.2484
1237.129, 436.2827
1237.611, 424.0376
1238.094, 418.8088
1238.576, 420.4525
1239.058, 423.7695
1239.540, 428.6920
1240.022, 431.9023
1240.504, 430.8169
1240.986, 433.1511
1241.468, 441.6967
1241.950, 449.2921
1242.432, 453.6763
1242.915, 453.6967
##END=



