##NAMES=Alunite
##RRUFFID=R070448
##IDEAL CHEMISTRY=KAl_3_(S^6+^O_4_)_2_(OH)_6_
##LOCALITY=Veta del Medio, Inca del Oro, Chile
##OWNER=RRUFF
##SOURCE=Bob Jenkins
##DESCRIPTION=Yellow tabular rhombohedra scattered over matrix
##STATUS=The identification of this mineral has been confirmed only by single crystal X-ray diffraction.
##URL=rruff.info/R070448
135.9414, 598.8967
136.4235, 624.5548
136.9057, 652.8249
137.3878, 692.0130
137.8699, 747.1716
138.3520, 815.5012
138.8341, 879.8525
139.3162, 939.9355
139.7984, 996.8973
140.2805, 1052.159
140.7626, 1103.333
141.2447, 1157.823
141.7268, 1219.094
142.2089, 1287.804
142.6911, 1354.093
143.1732, 1415.989
143.6553, 1476.196
144.1374, 1539.728
144.6195, 1607.710
145.1016, 1676.427
145.5838, 1743.896
146.0659, 1809.115
146.5480, 1876.408
147.0301, 1947.086
147.5122, 2019.926
147.9943, 2093.529
148.4765, 2172.470
148.9586, 2246.974
149.4407, 2312.767
149.9228, 2357.761
150.4049, 2409.031
150.8870, 2469.004
151.3692, 2537.358
151.8513, 2609.083
152.3334, 2685.828
152.8155, 2764.174
153.2976, 2843.273
153.7797, 2940.787
154.2619, 3020.383
154.7440, 3074.535
155.2261, 3100.179
155.7082, 3115.328
156.1903, 3125.160
156.6724, 3124.671
157.1546, 3107.698
157.6367, 3078.802
158.1188, 3028.634
158.6009, 2950.531
159.0830, 2834.410
159.5651, 2715.402
160.0473, 2602.357
160.5294, 2491.694
161.0115, 2378.393
161.4936, 2253.879
161.9757, 2129.981
162.4578, 2012.197
162.9400, 1898.309
163.4221, 1796.352
163.9042, 1712.105
164.3863, 1643.607
164.8684, 1584.049
165.3505, 1535.730
165.8327, 1493.135
166.3148, 1451.936
166.7969, 1409.048
167.2790, 1369.157
167.7611, 1334.710
168.2433, 1305.454
168.7254, 1280.434
169.2075, 1259.395
169.6896, 1242.115
170.1717, 1228.471
170.6538, 1221.307
171.1360, 1215.879
171.6181, 1207.338
172.1002, 1195.402
172.5823, 1186.234
173.0644, 1185.502
173.5465, 1190.531
174.0287, 1196.486
174.5108, 1204.808
174.9929, 1211.285
175.4750, 1209.629
175.9571, 1198.141
176.4392, 1186.020
176.9214, 1183.245
177.4035, 1187.174
177.8856, 1190.427
178.3677, 1188.122
178.8498, 1182.828
179.3319, 1178.458
179.8141, 1175.531
180.2962, 1173.468
180.7783, 1171.762
181.2604, 1170.387
181.7425, 1169.027
182.2246, 1167.431
182.7068, 1165.710
183.1889, 1164.273
183.6710, 1163.653
184.1531, 1162.710
184.6352, 1158.791
185.1173, 1152.047
185.5995, 1145.858
186.0816, 1142.855
186.5637, 1142.607
187.0458, 1143.529
187.5279, 1145.220
188.0100, 1147.868
188.4922, 1151.545
188.9743, 1156.230
189.4564, 1162.783
189.9385, 1175.620
190.4206, 1193.165
190.9027, 1202.745
191.3849, 1195.675
191.8670, 1177.943
192.3491, 1172.216
192.8312, 1179.371
193.3133, 1193.999
193.7954, 1213.311
194.2776, 1237.116
194.7597, 1255.786
195.2418, 1262.149
195.7239, 1258.435
196.2060, 1263.900
196.6881, 1280.301
197.1703, 1301.449
197.6524, 1317.549
198.1345, 1327.874
198.6166, 1340.891
199.0987, 1360.531
199.5808, 1386.800
200.0630, 1415.049
200.5451, 1445.326
201.0272, 1477.251
201.5093, 1511.438
201.9914, 1548.480
202.4735, 1584.438
202.9557, 1616.243
203.4378, 1643.182
203.9199, 1674.849
204.4020, 1712.707
204.8841, 1754.704
205.3662, 1794.337
205.8484, 1829.626
206.3305, 1869.790
206.8126, 1923.682
207.2947, 1994.673
207.7768, 2057.467
208.2589, 2106.461
208.7411, 2146.938
209.2232, 2196.829
209.7053, 2256.985
210.1874, 2325.376
210.6695, 2403.333
211.1517, 2492.851
211.6338, 2583.495
212.1159, 2674.059
212.5980, 2764.692
213.0801, 2857.131
213.5622, 2951.722
214.0444, 3045.977
214.5265, 3135.042
215.0086, 3216.393
215.4907, 3303.151
215.9728, 3397.994
216.4549, 3500.695
216.9371, 3609.290
217.4192, 3724.497
217.9013, 3843.190
218.3834, 3961.641
218.8655, 4080.201
219.3476, 4196.128
219.8298, 4308.459
220.3119, 4416.193
220.7940, 4525.799
221.2761, 4639.560
221.7582, 4752.635
222.2403, 4862.737
222.7225, 4969.018
223.2046, 5069.917
223.6867, 5166.518
224.1688, 5261.038
224.6509, 5333.434
225.1330, 5376.717
225.6152, 5405.285
226.0973, 5438.304
226.5794, 5481.689
227.0615, 5516.652
227.5436, 5537.679
228.0257, 5543.960
228.5079, 5541.715
228.9900, 5529.139
229.4721, 5509.334
229.9542, 5486.775
230.4363, 5462.245
230.9184, 5433.702
231.4006, 5400.474
231.8827, 5362.986
232.3648, 5319.487
232.8469, 5267.640
233.3290, 5210.726
233.8111, 5155.667
234.2933, 5111.191
234.7754, 5053.892
235.2575, 4973.143
235.7396, 4859.770
236.2217, 4753.686
236.7038, 4660.037
237.1860, 4570.455
237.6681, 4467.496
238.1502, 4347.901
238.6323, 4220.197
239.1144, 4082.926
239.5965, 3929.192
240.0787, 3786.755
240.5608, 3657.299
241.0429, 3538.525
241.5250, 3425.218
242.0071, 3316.211
242.4892, 3214.050
242.9714, 3121.763
243.4535, 3041.190
243.9356, 2962.667
244.4177, 2886.176
244.8998, 2811.740
245.3819, 2739.659
245.8641, 2671.135
246.3462, 2602.907
246.8283, 2533.918
247.3104, 2464.016
247.7925, 2394.222
248.2746, 2323.508
248.7568, 2253.145
249.2389, 2186.754
249.7210, 2124.885
250.2031, 2066.155
250.6852, 2009.078
251.1674, 1951.581
251.6495, 1902.158
252.1316, 1863.371
252.6137, 1832.682
253.0958, 1803.848
253.5779, 1780.865
254.0601, 1753.377
254.5422, 1713.993
255.0243, 1654.226
255.5064, 1605.132
255.9885, 1569.552
256.4706, 1545.408
256.9528, 1525.244
257.4349, 1510.374
257.9170, 1497.281
258.3991, 1483.963
258.8812, 1470.209
259.3633, 1457.196
259.8455, 1445.428
260.3276, 1434.241
260.8097, 1421.055
261.2918, 1403.781
261.7739, 1388.121
262.2560, 1377.688
262.7382, 1374.471
263.2203, 1370.215
263.7024, 1363.506
264.1845, 1355.587
264.6666, 1350.527
265.1487, 1348.688
265.6309, 1349.056
266.1130, 1351.990
266.5951, 1359.224
267.0772, 1362.480
267.5593, 1359.766
268.0414, 1353.192
268.5236, 1349.996
269.0057, 1350.840
269.4878, 1353.399
269.9699, 1357.254
270.4520, 1363.476
270.9341, 1365.366
271.4163, 1360.462
271.8984, 1351.807
272.3805, 1348.677
272.8626, 1351.665
273.3447, 1358.377
273.8268, 1368.700
274.3090, 1383.542
274.7911, 1395.554
275.2732, 1403.955
275.7553, 1409.019
276.2374, 1410.749
276.7195, 1408.540
277.2017, 1405.401
277.6838, 1402.585
278.1659, 1399.946
278.6480, 1399.884
279.1301, 1403.698
279.6122, 1409.163
280.0944, 1409.888
280.5765, 1404.798
281.0586, 1401.046
281.5407, 1405.225
282.0228, 1417.442
282.5049, 1422.886
282.9871, 1418.246
283.4692, 1408.760
283.9513, 1405.891
284.4334, 1410.094
284.9155, 1415.582
285.3976, 1421.228
285.8798, 1426.518
286.3619, 1422.770
286.8440, 1406.123
287.3261, 1385.376
287.8082, 1378.281
288.2903, 1384.958
288.7725, 1392.384
289.2546, 1391.234
289.7367, 1383.432
290.2188, 1380.993
290.7009, 1386.410
291.1830, 1394.086
291.6652, 1395.177
292.1473, 1389.922
292.6294, 1381.577
293.1115, 1368.647
293.5936, 1353.578
294.0757, 1345.772
294.5579, 1347.171
295.0400, 1352.244
295.5221, 1353.634
296.0042, 1351.844
296.4863, 1349.786
296.9684, 1349.508
297.4506, 1350.048
297.9327, 1348.732
298.4148, 1344.978
298.8969, 1341.104
299.3790, 1341.287
299.8611, 1344.147
300.3433, 1344.885
300.8254, 1337.864
301.3075, 1327.994
301.7896, 1323.680
302.2717, 1325.729
302.7538, 1330.868
303.2360, 1339.000
303.7181, 1347.954
304.2002, 1352.555
304.6823, 1345.935
305.1644, 1335.568
305.6465, 1330.990
306.1287, 1332.986
306.6108, 1335.977
307.0929, 1335.176
307.5750, 1332.151
308.0571, 1329.745
308.5392, 1328.099
309.0214, 1328.313
309.5035, 1333.047
309.9856, 1342.512
310.4677, 1349.813
310.9498, 1347.075
311.4319, 1340.140
311.9141, 1337.089
312.3962, 1345.185
312.8783, 1354.922
313.3604, 1359.453
313.8426, 1358.882
314.3247, 1359.202
314.8068, 1363.246
315.2889, 1369.951
315.7710, 1378.205
316.2531, 1390.255
316.7353, 1401.555
317.2174, 1406.918
317.6995, 1407.511
318.1816, 1415.126
318.6637, 1439.535
319.1458, 1470.261
319.6280, 1498.894
320.1101, 1528.440
320.5922, 1550.390
321.0743, 1555.297
321.5564, 1547.308
322.0385, 1549.576
322.5207, 1579.582
323.0028, 1614.555
323.4849, 1639.997
323.9670, 1640.719
324.4491, 1647.535
324.9312, 1667.713
325.4134, 1698.203
325.8955, 1727.538
326.3776, 1755.509
326.8597, 1781.168
327.3418, 1803.902
327.8239, 1817.852
328.3061, 1836.777
328.7882, 1859.883
329.2703, 1888.184
329.7524, 1924.730
330.2345, 1981.495
330.7166, 2034.763
331.1988, 2075.029
331.6809, 2092.648
332.1630, 2118.062
332.6451, 2157.808
333.1272, 2203.139
333.6093, 2236.086
334.0915, 2246.646
334.5736, 2261.019
335.0557, 2291.177
335.5378, 2343.944
336.0199, 2378.049
336.5020, 2386.272
336.9842, 2383.122
337.4663, 2391.504
337.9484, 2420.221
338.4305, 2436.133
338.9126, 2426.589
339.3947, 2391.405
339.8769, 2361.967
340.3590, 2340.141
340.8411, 2319.760
341.3232, 2294.472
341.8053, 2264.591
342.2874, 2228.303
342.7696, 2182.027
343.2517, 2128.681
343.7338, 2090.679
344.2159, 2070.547
344.6980, 2049.629
345.1801, 2006.209
345.6623, 1942.535
346.1444, 1886.084
346.6265, 1843.698
347.1086, 1811.756
347.5907, 1781.142
348.0728, 1752.383
348.5550, 1728.095
349.0371, 1712.180
349.5192, 1702.937
350.0013, 1694.957
350.4834, 1687.886
350.9655, 1680.765
351.4477, 1672.441
351.9298, 1662.899
352.4119, 1652.602
352.8940, 1639.310
353.3761, 1626.040
353.8582, 1616.719
354.3404, 1610.787
354.8225, 1612.893
355.3046, 1630.975
355.7867, 1660.852
356.2688, 1692.483
356.7509, 1722.010
357.2331, 1750.330
357.7152, 1776.867
358.1973, 1801.067
358.6794, 1828.871
359.1615, 1868.595
359.6436, 1913.289
360.1258, 1953.225
360.6079, 1977.928
361.0900, 2002.420
361.5721, 2032.082
362.0542, 2067.279
362.5363, 2113.199
363.0185, 2186.801
363.5006, 2265.500
363.9827, 2328.198
364.4648, 2342.209
364.9469, 2368.575
365.4290, 2429.823
365.9112, 2521.089
366.3933, 2610.307
366.8754, 2694.487
367.3575, 2773.141
367.8396, 2845.111
368.3217, 2908.249
368.8039, 2968.076
369.2860, 3023.211
369.7681, 3074.796
370.2502, 3127.888
370.7323, 3188.974
371.2144, 3245.255
371.6966, 3290.882
372.1787, 3321.097
372.6608, 3352.712
373.1429, 3390.746
373.6250, 3427.373
374.1071, 3451.231
374.5893, 3464.203
375.0714, 3460.339
375.5535, 3435.786
376.0356, 3389.789
376.5177, 3337.461
376.9998, 3279.557
377.4820, 3214.749
377.9641, 3140.167
378.4462, 3053.499
378.9283, 2970.119
379.4104, 2896.318
379.8925, 2829.069
380.3747, 2755.998
380.8568, 2676.779
381.3389, 2589.942
381.8210, 2484.389
382.3031, 2364.876
382.7852, 2262.968
383.2674, 2186.793
383.7495, 2129.050
384.2316, 2084.019
384.7137, 2049.929
385.1958, 2015.479
385.6779, 1973.264
386.1601, 1925.215
386.6422, 1874.079
387.1243, 1817.040
387.6064, 1766.103
388.0885, 1735.670
388.5706, 1720.770
389.0528, 1709.362
389.5349, 1699.433
390.0170, 1687.816
390.4991, 1669.009
390.9812, 1642.172
391.4633, 1618.344
391.9455, 1608.570
392.4276, 1604.911
392.9097, 1597.281
393.3918, 1578.910
393.8739, 1558.660
394.3561, 1539.964
394.8382, 1522.869
395.3203, 1506.338
395.8024, 1485.383
396.2845, 1467.813
396.7667, 1459.357
397.2488, 1472.713
397.7309, 1480.595
398.2130, 1475.489
398.6951, 1460.922
399.1772, 1447.972
399.6594, 1437.762
400.1415, 1429.537
400.6236, 1423.068
401.1057, 1418.590
401.5878, 1415.289
402.0699, 1412.713
402.5521, 1411.534
403.0342, 1412.590
403.5163, 1415.256
403.9984, 1421.672
404.4805, 1435.439
404.9626, 1456.760
405.4448, 1464.242
405.9269, 1452.816
406.4090, 1436.851
406.8911, 1431.256
407.3732, 1438.045
407.8553, 1441.136
408.3375, 1436.272
408.8196, 1426.560
409.3017, 1421.780
409.7838, 1422.224
410.2659, 1424.318
410.7480, 1427.469
411.2302, 1430.745
411.7123, 1427.146
412.1944, 1413.155
412.6765, 1400.163
413.1586, 1407.567
413.6407, 1431.136
414.1229, 1451.995
414.6050, 1458.258
415.0871, 1457.146
415.5692, 1459.890
416.0513, 1467.193
416.5334, 1473.111
417.0156, 1470.592
417.4977, 1464.203
417.9798, 1460.811
418.4619, 1464.686
418.9440, 1470.751
419.4261, 1476.050
419.9083, 1480.728
420.3904, 1486.214
420.8725, 1494.858
421.3546, 1503.442
421.8367, 1509.410
422.3188, 1510.747
422.8010, 1512.253
423.2831, 1512.625
423.7652, 1514.099
424.2473, 1521.370
424.7294, 1535.967
425.2115, 1555.665
425.6937, 1582.716
426.1758, 1621.717
426.6579, 1649.031
427.1400, 1655.993
427.6221, 1657.257
428.1042, 1668.216
428.5864, 1693.675
429.0685, 1719.276
429.5506, 1743.204
430.0327, 1765.185
430.5148, 1782.992
430.9969, 1794.482
431.4791, 1806.755
431.9612, 1824.629
432.4433, 1848.290
432.9254, 1874.175
433.4075, 1902.288
433.8896, 1931.651
434.3718, 1960.167
434.8539, 1987.890
435.3360, 2016.830
435.8181, 2048.591
436.3002, 2082.000
436.7823, 2113.965
437.2645, 2144.195
437.7466, 2173.909
438.2287, 2202.462
438.7108, 2231.426
439.1929, 2264.758
439.6750, 2307.607
440.1572, 2351.161
440.6393, 2382.566
441.1214, 2405.113
441.6035, 2435.047
442.0856, 2492.374
442.5677, 2555.039
443.0499, 2603.571
443.5320, 2627.071
444.0141, 2653.106
444.4962, 2698.723
444.9783, 2752.977
445.4604, 2797.537
445.9426, 2816.217
446.4247, 2835.191
446.9068, 2863.038
447.3889, 2900.562
447.8710, 2942.394
448.3531, 2993.925
448.8353, 3045.947
449.3174, 3092.133
449.7995, 3129.933
450.2816, 3166.033
450.7637, 3199.012
451.2458, 3230.779
451.7280, 3267.837
452.2101, 3311.301
452.6922, 3356.947
453.1743, 3403.453
453.6564, 3450.674
454.1385, 3496.114
454.6207, 3539.867
455.1028, 3581.931
455.5849, 3623.261
456.0670, 3663.546
456.5491, 3699.623
457.0313, 3723.933
457.5134, 3745.893
457.9955, 3793.873
458.4776, 3867.166
458.9597, 3935.655
459.4418, 3968.907
459.9240, 3982.658
460.4061, 4002.802
460.8882, 4032.809
461.3703, 4074.304
461.8524, 4135.772
462.3345, 4210.138
462.8167, 4279.812
463.2988, 4332.549
463.7809, 4380.251
464.2630, 4430.343
464.7451, 4483.838
465.2272, 4532.530
465.7094, 4571.725
466.1915, 4605.128
466.6736, 4636.505
467.1557, 4653.039
467.6378, 4682.504
468.1199, 4743.650
468.6021, 4825.815
469.0842, 4877.718
469.5663, 4877.725
470.0484, 4872.699
470.5305, 4883.585
471.0126, 4918.239
471.4948, 4942.364
471.9769, 4954.611
472.4590, 4958.310
472.9411, 4955.904
473.4232, 4945.969
473.9053, 4939.780
474.3875, 4943.716
474.8696, 4953.153
475.3517, 4950.675
475.8338, 4936.288
476.3159, 4910.894
476.7981, 4868.051
477.2802, 4814.191
477.7623, 4767.556
478.2444, 4729.435
478.7265, 4703.279
479.2086, 4701.389
479.6908, 4715.493
480.1729, 4724.916
480.6550, 4721.559
481.1371, 4707.998
481.6192, 4683.123
482.1013, 4647.326
482.5835, 4612.101
483.0656, 4585.578
483.5477, 4561.254
484.0298, 4533.959
484.5119, 4504.081
484.9940, 4468.994
485.4762, 4423.654
485.9583, 4372.336
486.4404, 4326.054
486.9225, 4301.089
487.4046, 4265.874
487.8867, 4204.706
488.3689, 4108.570
488.8510, 4041.250
489.3331, 4015.097
489.8152, 4002.175
490.2973, 3975.246
490.7794, 3931.291
491.2616, 3886.369
491.7437, 3842.272
492.2258, 3799.464
492.7079, 3759.878
493.1900, 3723.923
493.6721, 3689.521
494.1543, 3654.950
494.6364, 3621.157
495.1185, 3593.212
495.6006, 3572.543
496.0827, 3551.563
496.5648, 3524.483
497.0470, 3491.575
497.5291, 3454.358
498.0112, 3416.121
498.4933, 3370.055
498.9754, 3305.218
499.4576, 3225.897
499.9397, 3151.905
500.4218, 3105.038
500.9039, 3056.983
501.3860, 2987.541
501.8681, 2888.759
502.3503, 2787.100
502.8324, 2683.010
503.3145, 2581.237
503.7966, 2487.884
504.2787, 2400.901
504.7608, 2324.246
505.2430, 2265.095
505.7251, 2219.495
506.2072, 2155.276
506.6893, 2060.184
507.1714, 1968.857
507.6535, 1901.106
508.1357, 1860.063
508.6178, 1817.272
509.0999, 1770.177
509.5820, 1726.282
510.0641, 1698.484
510.5462, 1685.497
511.0284, 1672.111
511.5105, 1649.764
511.9926, 1626.413
512.4747, 1620.389
512.9568, 1629.762
513.4389, 1638.356
513.9210, 1634.448
514.4031, 1623.536
514.8853, 1611.237
515.3674, 1597.203
515.8495, 1586.553
516.3316, 1583.410
516.8137, 1585.296
517.2958, 1588.784
517.7780, 1592.913
518.2601, 1598.379
518.7422, 1608.065
519.2244, 1620.966
519.7065, 1626.926
520.1886, 1615.116
520.6707, 1604.477
521.1528, 1604.134
521.6349, 1620.116
522.1171, 1630.448
522.5992, 1632.229
523.0813, 1631.252
523.5634, 1636.899
524.0455, 1651.338
524.5276, 1660.078
525.0098, 1656.132
525.4919, 1645.269
525.9740, 1649.490
526.4561, 1669.291
526.9382, 1688.100
527.4203, 1689.645
527.9025, 1682.599
528.3846, 1689.144
528.8667, 1712.957
529.3488, 1740.119
529.8309, 1758.665
530.3130, 1771.293
530.7952, 1782.611
531.2773, 1792.882
531.7594, 1803.537
532.2415, 1814.544
532.7236, 1826.336
533.2057, 1840.296
533.6879, 1861.045
534.1700, 1880.902
534.6521, 1894.528
535.1342, 1895.761
535.6163, 1907.300
536.0984, 1935.292
536.5806, 1969.668
537.0627, 2000.255
537.5448, 2028.391
538.0269, 2049.380
538.5090, 2058.881
538.9911, 2062.223
539.4733, 2078.040
539.9554, 2108.228
540.4375, 2138.072
540.9196, 2156.828
541.4017, 2167.925
541.8839, 2187.376
542.3660, 2216.169
542.8481, 2247.300
543.3302, 2277.329
543.8123, 2304.973
544.2944, 2327.698
544.7766, 2343.275
545.2587, 2356.170
545.7408, 2364.527
546.2229, 2372.448
546.7050, 2390.233
547.1871, 2435.682
547.6693, 2480.306
548.1514, 2509.057
548.6335, 2519.620
549.1156, 2528.590
549.5977, 2536.897
550.0798, 2545.453
550.5620, 2554.250
551.0441, 2559.436
551.5262, 2573.611
552.0083, 2603.109
552.4904, 2637.638
552.9725, 2654.568
553.4547, 2649.916
553.9368, 2648.797
554.4189, 2661.886
554.9010, 2684.947
555.3831, 2701.547
555.8652, 2711.624
556.3474, 2718.360
556.8295, 2723.048
557.3116, 2726.401
557.7937, 2730.990
558.2758, 2738.431
558.7579, 2741.634
559.2401, 2727.583
559.7222, 2706.753
560.2043, 2695.459
560.6864, 2716.443
561.1685, 2732.162
561.6506, 2717.038
562.1328, 2678.671
562.6149, 2658.163
563.0970, 2691.451
563.5791, 2719.022
564.0612, 2711.893
564.5433, 2654.269
565.0255, 2623.724
565.5076, 2632.242
565.9897, 2653.977
566.4718, 2664.905
566.9539, 2664.764
567.4360, 2652.964
567.9182, 2624.834
568.4003, 2591.144
568.8824, 2577.421
569.3645, 2582.256
569.8466, 2586.901
570.3287, 2581.344
570.8109, 2569.416
571.2930, 2555.400
571.7751, 2539.538
572.2572, 2527.553
572.7393, 2528.402
573.2214, 2532.550
573.7036, 2528.700
574.1857, 2508.363
574.6678, 2494.309
575.1499, 2504.003
575.6320, 2522.747
576.1141, 2529.115
576.5963, 2505.006
577.0784, 2484.841
577.5605, 2475.224
578.0426, 2474.965
578.5247, 2476.425
579.0068, 2480.694
579.4890, 2484.425
579.9711, 2485.795
580.4532, 2484.673
580.9353, 2482.294
581.4174, 2477.714
581.8995, 2475.803
582.3817, 2484.877
582.8638, 2501.763
583.3459, 2514.188
583.8280, 2517.324
584.3101, 2518.510
584.7922, 2526.365
585.2744, 2538.851
585.7565, 2550.900
586.2386, 2565.517
586.7207, 2574.441
587.2028, 2565.284
587.6849, 2538.992
588.1671, 2529.477
588.6492, 2564.615
589.1313, 2605.797
589.6134, 2628.163
590.0955, 2617.378
590.5776, 2620.091
591.0598, 2647.482
591.5419, 2678.332
592.0240, 2678.836
592.5061, 2639.327
592.9882, 2620.088
593.4703, 2641.273
593.9525, 2683.982
594.4346, 2701.877
594.9167, 2696.226
595.3988, 2684.879
595.8809, 2674.535
596.3630, 2666.362
596.8452, 2663.360
597.3273, 2665.597
597.8094, 2668.096
598.2915, 2670.627
598.7736, 2670.209
599.2557, 2663.126
599.7379, 2644.564
600.2200, 2627.745
600.7021, 2613.305
601.1842, 2603.713
601.6663, 2603.451
602.1484, 2626.623
602.6306, 2639.611
603.1127, 2636.674
603.5948, 2619.203
604.0769, 2589.383
604.5590, 2540.419
605.0411, 2502.345
605.5233, 2500.129
606.0054, 2528.008
606.4875, 2533.168
606.9696, 2513.954
607.4517, 2488.139
607.9338, 2473.660
608.4160, 2464.875
608.8981, 2448.904
609.3802, 2418.125
609.8623, 2392.352
610.3444, 2388.378
610.8265, 2399.021
611.3087, 2412.156
611.7908, 2423.993
612.2729, 2437.209
612.7550, 2453.726
613.2371, 2472.833
613.7192, 2489.927
614.2014, 2510.158
614.6835, 2521.535
615.1656, 2515.822
615.6477, 2490.066
616.1298, 2476.229
616.6119, 2476.499
617.0941, 2483.326
617.5762, 2487.917
618.0583, 2491.610
618.5404, 2506.577
619.0225, 2536.603
619.5046, 2572.264
619.9868, 2603.722
620.4689, 2631.668
620.9510, 2658.875
621.4331, 2682.234
621.9152, 2708.809
622.3973, 2743.969
622.8795, 2786.618
623.3616, 2832.618
623.8437, 2883.992
624.3258, 2935.671
624.8079, 2984.768
625.2900, 3031.168
625.7722, 3076.134
626.2543, 3112.930
626.7364, 3156.663
627.2185, 3220.569
627.7006, 3307.705
628.1827, 3397.236
628.6649, 3488.871
629.1470, 3577.587
629.6291, 3648.246
630.1112, 3706.208
630.5933, 3779.268
631.0754, 3879.096
631.5576, 3995.638
632.0397, 4126.601
632.5218, 4265.124
633.0039, 4388.330
633.4860, 4461.979
633.9681, 4534.253
634.4503, 4637.424
634.9324, 4774.063
635.4145, 4902.249
635.8966, 5002.522
636.3787, 5099.639
636.8608, 5209.715
637.3430, 5345.571
637.8251, 5458.278
638.3072, 5541.979
638.7893, 5609.687
639.2714, 5669.938
639.7535, 5722.319
640.2357, 5797.370
640.7178, 5913.153
641.1999, 6033.291
641.6820, 6094.072
642.1641, 6109.086
642.6462, 6125.686
643.1284, 6171.972
643.6105, 6226.073
644.0926, 6278.916
644.5747, 6326.904
645.0568, 6351.327
645.5389, 6330.950
646.0211, 6296.312
646.5032, 6264.384
646.9853, 6241.415
647.4674, 6200.786
647.9495, 6134.903
648.4316, 6060.232
648.9138, 5993.869
649.3959, 5943.006
649.8780, 5858.362
650.3601, 5730.888
650.8422, 5580.870
651.3243, 5430.565
651.8065, 5281.449
652.2886, 5139.289
652.7707, 5014.702
653.2528, 4886.907
653.7349, 4727.001
654.2170, 4542.820
654.6992, 4361.789
655.1813, 4200.764
655.6634, 4042.596
656.1455, 3872.801
656.6276, 3690.975
657.1097, 3529.766
657.5919, 3408.395
658.0740, 3293.504
658.5561, 3169.481
659.0382, 3031.364
659.5203, 2903.193
660.0024, 2782.784
660.4846, 2675.506
660.9667, 2589.999
661.4488, 2524.034
661.9309, 2466.365
662.4130, 2418.012
662.8951, 2368.254
663.3773, 2298.643
663.8594, 2218.178
664.3415, 2146.532
664.8236, 2091.922
665.3057, 2048.312
665.7878, 2017.379
666.2700, 1995.677
666.7521, 1971.377
667.2342, 1934.625
667.7163, 1902.551
668.1984, 1883.546
668.6805, 1877.675
669.1627, 1861.192
669.6448, 1831.037
670.1269, 1797.228
670.6090, 1763.833
671.0911, 1731.089
671.5732, 1707.969
672.0554, 1695.827
672.5375, 1685.197
673.0196, 1666.364
673.5017, 1642.406
673.9838, 1618.603
674.4659, 1595.482
674.9481, 1575.029
675.4302, 1557.147
675.9123, 1543.012
676.3944, 1534.030
676.8765, 1538.814
677.3586, 1539.271
677.8408, 1529.446
678.3229, 1512.781
678.8050, 1499.170
679.2871, 1490.439
679.7692, 1480.026
680.2513, 1464.024
680.7335, 1444.583
681.2156, 1434.844
681.6977, 1434.873
682.1799, 1435.646
682.6620, 1428.437
683.1441, 1418.864
683.6262, 1418.726
684.1083, 1428.876
684.5905, 1434.871
685.0726, 1424.806
685.5547, 1407.863
686.0368, 1391.308
686.5189, 1374.344
687.0010, 1362.530
687.4832, 1361.459
687.9653, 1363.115
688.4474, 1359.028
688.9295, 1346.154
689.4116, 1337.034
689.8937, 1335.170
690.3759, 1335.252
690.8580, 1324.163
691.3401, 1303.280
691.8222, 1289.220
692.3043, 1292.667
692.7864, 1301.473
693.2686, 1295.873
693.7507, 1280.044
694.2328, 1269.309
694.7149, 1279.002
695.1970, 1289.189
695.6791, 1286.386
696.1613, 1270.203
696.6434, 1258.558
697.1255, 1261.710
697.6076, 1261.860
698.0897, 1247.499
698.5718, 1213.881
699.0540, 1203.130
699.5361, 1221.676
700.0182, 1243.580
700.5003, 1241.397
700.9824, 1220.593
701.4645, 1208.319
701.9467, 1209.077
702.4288, 1212.970
702.9109, 1210.203
703.3930, 1204.322
703.8751, 1200.804
704.3572, 1204.109
704.8394, 1205.848
705.3215, 1199.906
705.8036, 1190.769
706.2857, 1187.305
706.7678, 1194.920
707.2499, 1200.193
707.7321, 1200.610
708.2142, 1197.188
708.6963, 1192.967
709.1784, 1187.807
709.6605, 1183.061
710.1426, 1180.274
710.6248, 1177.942
711.1069, 1170.277
711.5890, 1158.508
712.0711, 1151.337
712.5532, 1161.014
713.0353, 1173.120
713.5175, 1173.700
713.9996, 1161.030
714.4817, 1152.439
714.9638, 1156.522
715.4459, 1163.155
715.9280, 1166.248
716.4102, 1164.512
716.8923, 1163.502
717.3744, 1163.393
717.8565, 1163.661
718.3386, 1164.588
718.8207, 1165.878
719.3029, 1163.678
719.7850, 1156.695
720.2671, 1149.251
720.7492, 1144.066
721.2313, 1142.465
721.7134, 1147.751
722.1956, 1171.158
722.6777, 1186.811
723.1598, 1174.881
723.6419, 1148.193
724.1240, 1131.930
724.6061, 1134.893
725.0883, 1141.309
725.5704, 1151.056
726.0525, 1161.965
726.5346, 1167.167
727.0167, 1166.610
727.4988, 1160.347
727.9810, 1143.640
728.4631, 1123.709
728.9452, 1121.514
729.4273, 1134.284
729.9094, 1144.208
730.3915, 1134.205
730.8737, 1121.260
731.3558, 1122.173
731.8379, 1137.894
732.3200, 1145.273
732.8021, 1126.221
733.2842, 1107.111
733.7664, 1102.227
734.2485, 1115.119
734.7306, 1123.813
735.2127, 1127.440
735.6948, 1128.926
736.1769, 1133.203
736.6591, 1138.671
737.1412, 1130.843
737.6233, 1106.406
738.1054, 1082.996
738.5875, 1082.389
739.0696, 1092.306
739.5518, 1094.107
740.0339, 1076.895
740.5160, 1064.440
740.9981, 1070.017
741.4802, 1084.024
741.9623, 1093.305
742.4445, 1097.376
742.9266, 1095.890
743.4087, 1084.672
743.8908, 1071.643
744.3729, 1075.936
744.8550, 1097.657
745.3372, 1112.496
745.8193, 1111.307
746.3014, 1102.137
746.7835, 1095.106
747.2656, 1090.182
747.7477, 1087.066
748.2299, 1084.174
748.7120, 1084.468
749.1941, 1092.256
749.6762, 1105.654
750.1583, 1114.376
750.6404, 1115.122
751.1226, 1113.575
751.6047, 1110.098
752.0868, 1105.259
752.5689, 1106.544
753.0510, 1115.028
753.5331, 1121.106
754.0153, 1116.976
754.4974, 1106.439
754.9795, 1097.232
755.4616, 1089.669
755.9437, 1085.052
756.4258, 1086.009
756.9080, 1089.034
757.3901, 1091.237
757.8722, 1091.956
758.3543, 1094.038
758.8364, 1102.081
759.3185, 1107.969
759.8007, 1105.925
760.2828, 1093.268
760.7649, 1084.751
761.2470, 1080.677
761.7291, 1079.519
762.2112, 1080.833
762.6934, 1083.783
763.1755, 1085.394
763.6576, 1084.860
764.1397, 1084.688
764.6218, 1087.430
765.1039, 1091.434
765.5861, 1094.859
766.0682, 1098.109
766.5503, 1099.350
767.0324, 1096.453
767.5145, 1092.390
767.9966, 1090.539
768.4788, 1091.287
768.9609, 1092.772
769.4430, 1094.828
769.9251, 1097.324
770.4072, 1099.742
770.8893, 1102.342
771.3715, 1106.293
771.8536, 1112.928
772.3357, 1119.608
772.8178, 1124.392
773.2999, 1127.522
773.7820, 1129.475
774.2642, 1132.058
774.7463, 1131.328
775.2284, 1121.443
775.7105, 1108.407
776.1926, 1110.462
776.6747, 1133.106
777.1569, 1150.569
777.6390, 1154.591
778.1211, 1148.328
778.6032, 1135.278
779.0853, 1117.565
779.5674, 1106.653
780.0496, 1113.570
780.5317, 1126.131
781.0138, 1137.318
781.4959, 1146.028
781.9780, 1147.997
782.4601, 1134.605
782.9423, 1121.731
783.4244, 1115.081
783.9065, 1114.108
784.3886, 1112.412
784.8707, 1109.698
785.3528, 1107.423
785.8350, 1105.270
786.3171, 1104.249
786.7992, 1109.104
787.2813, 1119.363
787.7634, 1129.500
788.2455, 1139.714
788.7277, 1145.576
789.2098, 1140.406
789.6919, 1123.530
790.1740, 1111.154
790.6561, 1107.625
791.1382, 1109.353
791.6204, 1116.647
792.1025, 1130.443
792.5846, 1136.705
793.0667, 1134.166
793.5488, 1129.416
794.0309, 1125.153
794.5131, 1123.001
794.9952, 1130.518
795.4773, 1148.329
795.9594, 1161.600
796.4415, 1155.072
796.9236, 1142.457
797.4058, 1135.637
797.8879, 1137.846
798.3700, 1139.474
798.8521, 1138.526
799.3342, 1137.644
799.8163, 1139.283
800.2985, 1144.189
800.7806, 1145.845
801.2627, 1144.033
801.7448, 1139.379
802.2269, 1128.460
802.7090, 1116.162
803.1912, 1113.995
803.6733, 1125.482
804.1554, 1135.977
804.6375, 1135.172
805.1196, 1129.992
805.6017, 1126.603
806.0839, 1126.252
806.5660, 1127.506
807.0481, 1132.275
807.5302, 1136.266
808.0123, 1134.426
808.4944, 1126.751
808.9766, 1119.072
809.4587, 1111.366
809.9408, 1106.879
810.4229, 1110.824
810.9050, 1119.770
811.3871, 1129.285
811.8693, 1140.742
812.3514, 1146.066
812.8335, 1135.981
813.3156, 1120.979
813.7977, 1112.934
814.2798, 1115.256
814.7620, 1117.871
815.2441, 1121.584
815.7262, 1123.336
816.2083, 1115.920
816.6904, 1101.592
817.1725, 1096.243
817.6547, 1105.310
818.1368, 1115.123
818.6189, 1109.475
819.1010, 1097.670
819.5831, 1092.534
820.0652, 1104.079
820.5474, 1112.164
821.0295, 1111.418
821.5116, 1105.988
821.9937, 1099.572
822.4758, 1091.788
822.9579, 1083.756
823.4401, 1074.185
823.9222, 1068.262
824.4043, 1077.552
824.8864, 1096.506
825.3685, 1110.260
825.8506, 1113.962
826.3328, 1113.717
826.8149, 1112.354
827.2970, 1109.867
827.7791, 1106.270
828.2612, 1103.913
828.7433, 1096.031
829.2255, 1076.676
829.7076, 1057.531
830.1897, 1057.402
830.6718, 1076.242
831.1539, 1090.481
831.6360, 1095.520
832.1182, 1095.580
832.6003, 1095.056
833.0824, 1093.283
833.5645, 1088.658
834.0466, 1077.255
834.5287, 1069.127
835.0109, 1067.568
835.4930, 1071.469
835.9751, 1079.838
836.4572, 1096.638
836.9393, 1105.262
837.4214, 1101.100
837.9036, 1094.347
838.3857, 1104.679
838.8678, 1126.045
839.3499, 1131.984
839.8320, 1111.680
840.3141, 1089.026
840.7963, 1083.755
841.2784, 1087.261
841.7605, 1088.932
842.2426, 1080.336
842.7247, 1079.081
843.2068, 1092.407
843.6890, 1107.624
844.1711, 1107.033
844.6532, 1089.525
845.1353, 1078.656
845.6174, 1077.875
846.0995, 1083.216
846.5817, 1094.433
847.0638, 1107.341
847.5460, 1113.839
848.0281, 1109.441
848.5102, 1105.194
848.9923, 1104.571
849.4744, 1106.913
849.9565, 1112.702
850.4387, 1128.961
850.9208, 1127.960
851.4029, 1102.136
851.8850, 1073.777
852.3671, 1072.450
852.8492, 1091.185
853.3314, 1103.643
853.8135, 1105.047
854.2956, 1103.110
854.7777, 1104.071
855.2598, 1104.818
855.7419, 1101.740
856.2241, 1091.299
856.7062, 1083.782
857.1883, 1081.438
857.6704, 1080.165
858.1525, 1074.788
858.6346, 1064.996
859.1168, 1065.452
859.5989, 1078.380
860.0810, 1090.309
860.5631, 1080.502
861.0452, 1064.779
861.5273, 1068.838
862.0095, 1101.014
862.4916, 1124.203
862.9737, 1116.702
863.4558, 1100.836
863.9379, 1092.258
864.4200, 1093.421
864.9022, 1087.411
865.3843, 1071.417
865.8664, 1058.651
866.3485, 1064.079
866.8306, 1080.501
867.3127, 1089.279
867.7949, 1089.372
868.2770, 1089.140
868.7591, 1097.673
869.2412, 1104.912
869.7233, 1101.726
870.2054, 1084.608
870.6876, 1076.508
871.1697, 1082.635
871.6518, 1087.708
872.1339, 1080.220
872.6160, 1063.128
873.0981, 1058.669
873.5803, 1066.323
874.0624, 1075.497
874.5445, 1077.321
875.0266, 1078.617
875.5087, 1087.465
875.9908, 1103.342
876.4730, 1114.115
876.9551, 1114.389
877.4372, 1111.667
877.9193, 1106.417
878.4014, 1099.860
878.8835, 1101.375
879.3657, 1111.176
879.8478, 1119.296
880.3299, 1119.278
880.8120, 1115.195
881.2941, 1109.423
881.7762, 1103.953
882.2584, 1105.494
882.7405, 1126.596
883.2226, 1144.445
883.7047, 1148.442
884.1868, 1143.494
884.6689, 1145.926
885.1511, 1159.344
885.6332, 1160.323
886.1153, 1136.822
886.5974, 1104.149
887.0795, 1088.244
887.5616, 1085.980
888.0438, 1088.871
888.5259, 1096.359
889.0080, 1104.722
889.4901, 1114.179
889.9722, 1122.853
890.4543, 1126.751
890.9365, 1122.556
891.4186, 1122.386
891.9007, 1129.221
892.3828, 1138.180
892.8649, 1142.319
893.3470, 1142.123
893.8292, 1138.774
894.3113, 1131.313
894.7934, 1124.658
895.2755, 1123.789
895.7576, 1125.021
896.2397, 1124.062
896.7219, 1116.760
897.2040, 1113.901
897.6861, 1117.874
898.1682, 1122.425
898.6503, 1120.553
899.1324, 1113.128
899.6146, 1104.965
900.0967, 1096.182
900.5788, 1091.268
901.0609, 1097.626
901.5430, 1107.186
902.0251, 1111.741
902.5073, 1108.776
902.9894, 1107.950
903.4715, 1112.761
903.9536, 1116.505
904.4357, 1113.538
904.9178, 1104.538
905.4000, 1106.009
905.8821, 1118.034
906.3642, 1128.304
906.8463, 1126.497
907.3284, 1119.574
907.8105, 1112.131
908.2927, 1105.378
908.7748, 1106.032
909.2569, 1127.597
909.7390, 1143.839
910.2211, 1144.819
910.7032, 1133.880
911.1854, 1126.677
911.6675, 1123.260
912.1496, 1123.928
912.6317, 1132.714
913.1138, 1141.538
913.5959, 1137.000
914.0781, 1124.280
914.5602, 1115.860
915.0423, 1118.956
915.5244, 1123.977
916.0065, 1129.445
916.4886, 1134.863
916.9708, 1139.167
917.4529, 1142.239
917.9350, 1146.397
918.4171, 1153.636
918.8992, 1157.709
919.3813, 1143.057
919.8635, 1121.531
920.3456, 1114.710
920.8277, 1137.472
921.3098, 1155.396
921.7919, 1153.851
922.2740, 1146.065
922.7562, 1143.031
923.2383, 1145.564
923.7204, 1149.081
924.2025, 1153.813
924.6846, 1157.250
925.1667, 1155.563
925.6489, 1151.533
926.1310, 1148.821
926.6131, 1147.801
927.0952, 1150.424
927.5773, 1161.697
928.0594, 1172.956
928.5416, 1179.313
929.0237, 1180.805
929.5058, 1183.985
929.9879, 1189.177
930.4700, 1193.874
930.9521, 1196.116
931.4343, 1197.140
931.9164, 1199.982
932.3985, 1203.716
932.8806, 1204.875
933.3627, 1196.891
933.8448, 1191.576
934.3270, 1197.355
934.8091, 1208.146
935.2912, 1206.842
935.7733, 1190.358
936.2554, 1182.708
936.7375, 1192.340
937.2197, 1208.288
937.7018, 1216.800
938.1839, 1219.065
938.6660, 1216.802
939.1481, 1204.313
939.6302, 1198.574
940.1124, 1213.682
940.5945, 1232.624
941.0766, 1237.861
941.5587, 1226.657
942.0408, 1215.159
942.5229, 1203.411
943.0051, 1196.413
943.4872, 1202.898
943.9693, 1215.829
944.4514, 1223.154
944.9335, 1223.080
945.4156, 1225.894
945.8978, 1242.955
946.3799, 1256.649
946.8620, 1255.986
947.3441, 1241.744
947.8262, 1237.949
948.3083, 1245.463
948.7905, 1253.749
949.2726, 1254.116
949.7547, 1253.332
950.2368, 1266.081
950.7189, 1286.803
951.2010, 1297.320
951.6832, 1277.841
952.1653, 1262.645
952.6474, 1259.545
953.1295, 1266.777
953.6116, 1285.936
954.0938, 1318.119
954.5759, 1331.210
955.0580, 1312.615
955.5401, 1288.405
956.0222, 1288.242
956.5043, 1303.075
956.9865, 1321.086
957.4686, 1345.463
957.9507, 1357.506
958.4328, 1344.608
958.9149, 1329.182
959.3970, 1331.371
959.8792, 1351.727
960.3613, 1358.326
960.8434, 1349.874
961.3255, 1340.985
961.8076, 1341.913
962.2897, 1349.190
962.7719, 1361.703
963.2540, 1378.849
963.7361, 1392.184
964.2182, 1399.318
964.7003, 1403.215
965.1824, 1402.951
965.6646, 1400.790
966.1467, 1406.329
966.6288, 1418.503
967.1109, 1429.203
967.5930, 1435.147
968.0751, 1438.063
968.5573, 1434.949
969.0394, 1430.901
969.5215, 1435.322
970.0036, 1455.902
970.4857, 1473.979
970.9678, 1487.919
971.4500, 1499.591
971.9321, 1512.114
972.4142, 1524.349
972.8963, 1529.535
973.3784, 1525.930
973.8605, 1526.206
974.3427, 1547.660
974.8248, 1570.319
975.3069, 1574.063
975.7890, 1554.338
976.2711, 1554.029
976.7532, 1579.408
977.2354, 1604.605
977.7175, 1614.870
978.1996, 1615.394
978.6817, 1616.839
979.1638, 1620.038
979.6459, 1628.322
980.1281, 1649.474
980.6102, 1669.344
981.0923, 1678.537
981.5744, 1683.295
982.0565, 1696.855
982.5386, 1721.237
983.0208, 1744.042
983.5029, 1763.830
983.9850, 1779.207
984.4671, 1783.537
984.9492, 1784.247
985.4313, 1792.805
985.9135, 1811.456
986.3956, 1838.470
986.8777, 1884.030
987.3598, 1928.045
987.8419, 1957.426
988.3240, 1972.084
988.8062, 1995.831
989.2883, 2028.735
989.7704, 2064.177
990.2525, 2095.763
990.7346, 2129.286
991.2167, 2172.423
991.6989, 2223.003
992.1810, 2270.483
992.6631, 2306.893
993.1452, 2349.028
993.6273, 2400.044
994.1094, 2457.830
994.5916, 2520.690
995.0737, 2586.685
995.5558, 2649.251
996.0379, 2706.444
996.5200, 2758.453
997.0021, 2790.881
997.4843, 2826.430
997.9664, 2892.400
998.4485, 3001.556
998.9306, 3097.818
999.4127, 3176.383
999.8948, 3254.398
1000.377, 3340.449
1000.859, 3436.284
1001.341, 3553.242
1001.823, 3688.223
1002.305, 3822.075
1002.788, 3932.111
1003.270, 4054.846
1003.752, 4204.747
1004.234, 4379.054
1004.716, 4580.235
1005.198, 4807.953
1005.680, 5047.461
1006.162, 5286.252
1006.644, 5546.085
1007.127, 5845.122
1007.609, 6181.742
1008.091, 6549.496
1008.573, 6946.539
1009.055, 7375.161
1009.537, 7827.840
1010.019, 8314.575
1010.501, 8848.182
1010.984, 9423.286
1011.466, 10016.39
1011.948, 10624.26
1012.430, 11233.94
1012.912, 11826.27
1013.394, 12426.97
1013.876, 13070.24
1014.358, 13740.48
1014.841, 14367.64
1015.323, 14954.39
1015.805, 15502.59
1016.287, 16013.48
1016.769, 16487.43
1017.251, 16947.64
1017.733, 17361.11
1018.215, 17654.11
1018.697, 17793.56
1019.180, 17848.17
1019.662, 17852.67
1020.144, 17770.76
1020.626, 17585.54
1021.108, 17299.94
1021.590, 16878.38
1022.072, 16318.39
1022.554, 15681.93
1023.036, 14994.06
1023.519, 14264.28
1024.001, 13496.32
1024.483, 12697.58
1024.965, 11868.34
1025.447, 10980.48
1025.929, 10100.72
1026.411, 9221.417
1026.893, 8376.142
1027.375, 7635.249
1027.858, 6984.405
1028.340, 6397.661
1028.822, 5867.046
1029.304, 5392.335
1029.786, 4978.522
1030.268, 4618.560
1030.750, 4302.892
1031.232, 4028.799
1031.715, 3801.962
1032.197, 3629.183
1032.679, 3483.491
1033.161, 3355.629
1033.643, 3242.373
1034.125, 3134.979
1034.607, 3035.861
1035.089, 2953.668
1035.572, 2899.494
1036.054, 2850.684
1036.536, 2801.570
1037.018, 2757.590
1037.500, 2730.443
1037.982, 2717.511
1038.464, 2697.985
1038.946, 2667.811
1039.428, 2645.729
1039.911, 2653.351
1040.393, 2669.148
1040.875, 2674.694
1041.357, 2668.732
1041.839, 2672.945
1042.321, 2689.996
1042.803, 2707.020
1043.285, 2719.648
1043.767, 2727.235
1044.250, 2723.284
1044.732, 2713.638
1045.214, 2711.230
1045.696, 2723.776
1046.178, 2739.946
1046.660, 2758.217
1047.142, 2778.718
1047.624, 2803.907
1048.107, 2833.044
1048.589, 2854.042
1049.071, 2866.134
1049.553, 2877.931
1050.035, 2898.384
1050.517, 2918.904
1050.999, 2931.223
1051.481, 2936.417
1051.964, 2947.694
1052.446, 2967.715
1052.928, 2985.566
1053.410, 2998.741
1053.892, 3007.474
1054.374, 3009.260
1054.856, 3007.275
1055.338, 3008.623
1055.820, 3019.182
1056.302, 3021.145
1056.785, 2995.652
1057.267, 2975.079
1057.749, 2984.052
1058.231, 3019.693
1058.713, 3038.866
1059.195, 3042.501
1059.677, 3042.695
1060.159, 3046.265
1060.642, 3049.573
1061.124, 3046.833
1061.606, 3042.429
1062.088, 3047.940
1062.570, 3066.439
1063.052, 3084.696
1063.534, 3100.596
1064.016, 3117.466
1064.499, 3141.769
1064.981, 3169.030
1065.463, 3190.041
1065.945, 3203.120
1066.427, 3221.681
1066.909, 3252.863
1067.391, 3286.459
1067.873, 3317.587
1068.355, 3348.659
1068.838, 3394.788
1069.320, 3450.664
1069.802, 3490.007
1070.284, 3491.056
1070.766, 3492.579
1071.248, 3524.318
1071.730, 3566.322
1072.212, 3594.048
1072.694, 3601.988
1073.177, 3616.525
1073.659, 3638.812
1074.141, 3661.502
1074.623, 3682.625
1075.105, 3698.512
1075.587, 3699.762
1076.069, 3690.150
1076.551, 3690.392
1077.034, 3724.127
1077.516, 3736.186
1077.998, 3712.157
1078.480, 3670.211
1078.962, 3638.355
1079.444, 3613.972
1079.926, 3587.665
1080.408, 3556.215
1080.891, 3535.962
1081.373, 3557.466
1081.855, 3571.690
1082.337, 3543.184
1082.819, 3477.933
1083.301, 3450.199
1083.783, 3459.426
1084.265, 3454.113
1084.747, 3393.593
1085.229, 3333.132
1085.712, 3336.963
1086.194, 3370.294
1086.676, 3376.155
1087.158, 3329.227
1087.640, 3298.943
1088.122, 3288.784
1088.604, 3287.231
1089.086, 3289.350
1089.569, 3290.955
1090.051, 3280.646
1090.533, 3260.783
1091.015, 3248.026
1091.497, 3253.812
1091.979, 3261.249
1092.461, 3266.185
1092.943, 3270.855
1093.426, 3280.939
1093.908, 3294.926
1094.390, 3305.332
1094.872, 3310.617
1095.354, 3312.488
1095.836, 3303.608
1096.318, 3299.087
1096.800, 3312.010
1097.282, 3340.835
1097.765, 3363.654
1098.247, 3380.270
1098.729, 3394.117
1099.211, 3404.689
1099.693, 3415.677
1100.175, 3431.350
1100.657, 3449.934
1101.139, 3468.110
1101.622, 3480.529
1102.104, 3504.696
1102.586, 3544.064
1103.068, 3583.630
1103.550, 3610.849
1104.032, 3629.459
1104.514, 3644.396
1104.996, 3657.465
1105.479, 3675.659
1105.961, 3705.013
1106.443, 3736.457
1106.925, 3770.948
1107.407, 3803.724
1107.889, 3821.948
1108.371, 3830.256
1108.853, 3854.859
1109.335, 3901.146
1109.818, 3943.341
1110.300, 3960.058
1110.782, 3972.732
1111.264, 3994.805
1111.746, 4024.615
1112.228, 4051.801
1112.710, 4076.626
1113.192, 4095.918
1113.674, 4105.863
1114.157, 4115.962
1114.639, 4139.554
1115.121, 4166.359
1115.603, 4183.790
1116.085, 4188.353
1116.567, 4190.111
1117.049, 4188.230
1117.531, 4186.863
1118.014, 4189.206
1118.496, 4193.410
1118.978, 4196.831
1119.460, 4199.554
1119.942, 4201.849
1120.424, 4209.027
1120.906, 4207.684
1121.388, 4196.498
1121.870, 4177.206
1122.353, 4146.230
1122.835, 4109.306
1123.317, 4082.931
1123.799, 4068.026
1124.281, 4063.221
1124.763, 4086.363
1125.245, 4097.024
1125.727, 4076.008
1126.209, 4037.158
1126.692, 4011.006
1127.174, 3996.311
1127.656, 3980.708
1128.138, 3961.128
1128.620, 3945.757
1129.102, 3948.073
1129.584, 3950.779
1130.066, 3937.507
1130.549, 3909.954
1131.031, 3893.660
1131.513, 3889.506
1131.995, 3881.545
1132.477, 3859.030
1132.959, 3837.957
1133.441, 3839.325
1133.923, 3850.751
1134.406, 3854.052
1134.888, 3841.181
1135.370, 3839.759
1135.852, 3852.444
1136.334, 3866.054
1136.816, 3876.339
1137.298, 3879.155
1137.780, 3860.709
1138.262, 3828.990
1138.745, 3807.146
1139.227, 3809.057
1139.709, 3811.121
1140.191, 3811.701
1140.673, 3811.682
1141.155, 3813.778
1141.637, 3815.615
1142.119, 3811.154
1142.601, 3800.128
1143.084, 3785.401
1143.566, 3765.266
1144.048, 3744.776
1144.530, 3724.930
1145.012, 3705.833
1145.494, 3686.827
1145.976, 3668.336
1146.458, 3656.182
1146.941, 3654.033
1147.423, 3635.044
1147.905, 3564.435
1148.387, 3490.844
1148.869, 3442.538
1149.351, 3414.894
1149.833, 3389.165
1150.315, 3364.329
1150.797, 3325.867
1151.280, 3260.636
1151.762, 3199.710
1152.244, 3173.118
1152.726, 3158.007
1153.208, 3130.569
1153.690, 3088.657
1154.172, 3053.979
1154.654, 3026.872
1155.136, 2996.447
1155.619, 2952.047
1156.101, 2906.369
1156.583, 2868.339
1157.065, 2839.056
1157.547, 2822.607
1158.029, 2825.370
1158.511, 2819.723
1158.993, 2804.074
1159.476, 2785.269
1159.958, 2764.708
1160.440, 2747.220
1160.922, 2740.508
1161.404, 2742.639
1161.886, 2745.049
1162.368, 2744.044
1162.850, 2749.506
1163.333, 2765.472
1163.815, 2780.193
1164.297, 2775.936
1164.779, 2762.950
1165.261, 2755.311
1165.743, 2754.793
1166.225, 2768.680
1166.707, 2809.295
1167.189, 2846.267
1167.672, 2871.427
1168.154, 2891.191
1168.636, 2922.857
1169.118, 2956.491
1169.600, 2964.503
1170.082, 2936.928
1170.564, 2923.674
1171.046, 2956.345
1171.528, 2986.611
1172.011, 2992.341
1172.493, 2985.566
1172.975, 3003.770
1173.457, 3039.993
1173.939, 3072.869
1174.421, 3097.389
1174.903, 3112.533
1175.385, 3107.336
1175.868, 3102.609
1176.350, 3112.526
1176.832, 3133.780
1177.314, 3145.711
1177.796, 3149.071
1178.278, 3147.299
1178.760, 3141.289
1179.242, 3131.490
1179.724, 3114.244
1180.207, 3096.185
1180.689, 3087.157
1181.171, 3086.683
1181.653, 3058.990
1182.135, 3006.162
1182.617, 2962.364
1183.099, 2957.597
1183.581, 2957.539
1184.063, 2947.535
1184.546, 2928.634
1185.028, 2900.165
1185.510, 2861.399
1185.992, 2832.439
1186.474, 2814.761
1186.956, 2793.921
1187.438, 2762.361
1187.920, 2720.841
1188.403, 2659.756
1188.885, 2591.401
1189.367, 2550.751
1189.849, 2540.556
1190.331, 2507.428
1190.813, 2440.687
1191.295, 2380.336
1191.777, 2371.204
1192.260, 2373.882
1192.742, 2359.696
1193.224, 2328.477
1193.706, 2284.677
1194.188, 2225.222
1194.670, 2184.202
1195.152, 2172.752
1195.634, 2165.925
1196.116, 2138.148
1196.599, 2103.882
1197.081, 2077.158
1197.563, 2058.626
1198.045, 2039.742
1198.527, 2020.640
1199.009, 1998.416
1199.491, 1970.106
1199.973, 1943.571
1200.455, 1928.875
1200.938, 1919.870
1201.420, 1909.564
1201.902, 1897.366
1202.384, 1883.500
1202.866, 1867.168
1203.348, 1855.766
1203.830, 1856.857
1204.312, 1858.927
1204.795, 1842.894
1205.277, 1822.050
1205.759, 1819.386
1206.241, 1848.120
1206.723, 1846.719
1207.205, 1810.154
1207.687, 1777.264
1208.169, 1777.730
1208.651, 1789.530
1209.134, 1790.224
1209.616, 1783.342
1210.098, 1775.398
1210.580, 1766.729
1211.062, 1757.894
1211.544, 1748.492
1212.026, 1740.960
1212.508, 1740.763
1212.990, 1740.610
1213.473, 1729.539
1213.955, 1712.205
1214.437, 1702.997
1214.919, 1707.431
1215.401, 1703.232
1215.883, 1686.964
1216.365, 1672.225
1216.847, 1676.937
1217.330, 1684.847
1217.812, 1672.520
1218.294, 1646.628
1218.776, 1640.505
1219.258, 1665.315
1219.740, 1673.650
1220.222, 1657.295
1220.704, 1635.121
1221.187, 1623.448
1221.669, 1618.158
1222.151, 1617.417
1222.633, 1619.753
1223.115, 1616.729
1223.597, 1606.632
1224.079, 1597.590
1224.561, 1591.068
1225.043, 1586.058
1225.526, 1579.802
1226.008, 1575.649
1226.490, 1580.208
1226.972, 1592.792
1227.454, 1594.318
1227.936, 1582.884
1228.418, 1569.527
1228.900, 1556.098
1229.382, 1544.988
1229.865, 1541.188
1230.347, 1539.533
1230.829, 1534.067
1231.311, 1524.311
1231.793, 1516.724
1232.275, 1511.145
1232.757, 1509.381
1233.239, 1513.572
1233.722, 1517.016
1234.204, 1509.660
1234.686, 1499.635
1235.168, 1496.558
1235.650, 1501.025
1236.132, 1501.710
1236.614, 1498.450
1237.096, 1493.429
1237.578, 1487.120
1238.061, 1480.108
1238.543, 1471.620
1239.025, 1463.381
1239.507, 1457.634
1239.989, 1454.376
1240.471, 1450.875
1240.953, 1447.121
1241.435, 1445.006
1241.917, 1446.264
1242.400, 1447.903
1242.882, 1446.703
1243.364, 1445.214
1243.846, 1447.827
1244.328, 1455.164
1244.810, 1447.147
1245.292, 1424.401
1245.774, 1410.263
1246.257, 1422.338
1246.739, 1436.802
1247.221, 1440.508
1247.703, 1436.412
1248.185, 1427.293
1248.667, 1412.821
1249.149, 1401.612
1249.631, 1393.722
1250.114, 1390.061
1250.596, 1392.257
1251.078, 1397.498
1251.560, 1410.819
1252.042, 1421.485
1252.524, 1416.866
1253.006, 1398.067
1253.488, 1385.584
1253.970, 1379.271
1254.453, 1376.710
1254.935, 1383.338
1255.417, 1384.642
1255.899, 1365.730
1256.381, 1348.584
1256.863, 1361.403
1257.345, 1396.209
1257.827, 1397.901
1258.310, 1371.225
1258.792, 1350.425
1259.274, 1361.476
1259.756, 1367.766
1260.238, 1358.553
1260.720, 1344.809
1261.202, 1336.593
1261.684, 1333.216
1262.167, 1334.662
1262.649, 1339.455
1263.131, 1340.636
1263.613, 1330.833
1264.095, 1323.896
1264.577, 1322.779
1265.059, 1323.015
1265.541, 1315.528
1266.023, 1307.667
1266.505, 1320.848
1266.988, 1349.985
1267.470, 1367.227
1267.952, 1357.674
1268.434, 1346.882
1268.916, 1335.579
1269.398, 1328.682
1269.880, 1337.557
1270.362, 1350.318
1270.845, 1343.989
1271.327, 1323.757
1271.809, 1321.764
1272.291, 1351.317
1272.773, 1365.755
1273.255, 1357.458
1273.737, 1344.207
1274.219, 1340.543
1274.702, 1343.704
1275.184, 1355.042
1275.666, 1371.028
1276.148, 1379.587
1276.630, 1380.692
1277.112, 1371.063
1277.594, 1349.150
1278.076, 1327.910
1278.558, 1317.146
1279.041, 1312.964
1279.523, 1312.872
1280.005, 1317.193
1280.487, 1330.449
1280.969, 1352.929
1281.451, 1358.421
1281.933, 1343.011
1282.415, 1330.101
1282.897, 1340.665
1283.380, 1353.733
1283.862, 1357.005
1284.344, 1355.184
1284.826, 1356.279
1285.308, 1360.276
1285.790, 1369.510
1286.272, 1384.093
1286.754, 1391.320
1287.237, 1374.903
1287.719, 1362.188
1288.201, 1365.122
1288.683, 1372.606
1289.165, 1361.404
1289.647, 1340.237
1290.129, 1335.544
1290.611, 1349.245
1291.094, 1360.591
1291.576, 1361.288
1292.058, 1360.355
1292.540, 1359.246
1293.022, 1357.636
1293.504, 1354.402
1293.986, 1350.715
1294.468, 1348.929
1294.950, 1349.001
1295.432, 1347.667
1295.915, 1344.852
1296.397, 1339.409
1296.879, 1330.102
1297.361, 1322.322
1297.843, 1321.811
1298.325, 1326.299
1298.807, 1337.553
1299.289, 1352.682
1299.772, 1352.129
1300.254, 1332.741
1300.736, 1327.690
1301.218, 1344.401
1301.700, 1359.354
1302.182, 1341.389
1302.664, 1323.713
1303.146, 1337.772
1303.629, 1368.978
1304.111, 1388.254
1304.593, 1395.377
1305.075, 1382.947
##END=



