##NAMES=Amarantite
##RRUFFID=R050153
##IDEAL CHEMISTRY=Fe^3+^_2_O(S^6+^O_4_)_2_&#183;7H_2_O
##LOCALITY=Paposo, Antofagasta, Chile
##OWNER=RRUFF
##SOURCE=Jim McGlasson
##DESCRIPTION=Aggregate of red radiating platy crystals
##STATUS=The identification of this mineral has been confirmed by X-ray diffraction and chemical analysis
##URL=rruff.info/R050153
##MEASURED CHEMISTRY=Fe^3+^_2.00_(S_1.00_O_4_)_2_OÂ·7H_2_O
93.26398, 0.0000000E+00
93.74609, 4.851130
94.22821, 4.642101
94.71033, 4.772758
95.19244, 5.173102
95.67456, 5.591006
96.15668, 5.943181
96.63879, 6.239025
97.12091, 6.476608
97.60303, 6.629342
98.08514, 6.830737
98.56726, 7.325991
99.04938, 8.125743
99.53149, 8.897135
100.0136, 9.428816
100.4957, 9.713415
100.9778, 10.11074
101.4600, 10.63236
101.9421, 11.27141
102.4242, 11.98879
102.9063, 12.77478
103.3884, 13.67926
103.8705, 14.79415
104.3527, 16.30538
104.8348, 17.47752
105.3169, 18.14266
105.7990, 18.38490
106.2811, 18.87033
106.7632, 19.74733
107.2454, 20.70972
107.7275, 21.50472
108.2096, 21.96384
108.6917, 22.50303
109.1738, 23.11708
109.6559, 23.78330
110.1381, 24.79342
110.6202, 26.38050
111.1023, 28.22743
111.5844, 30.02590
112.0665, 32.16335
112.5486, 33.90340
113.0308, 35.05385
113.5129, 35.52782
113.9950, 35.76005
114.4771, 35.50686
114.9592, 35.10170
115.4413, 35.02460
115.9235, 35.77166
116.4056, 36.58751
116.8877, 37.05980
117.3698, 36.89426
117.8519, 36.95287
118.3340, 37.61163
118.8162, 38.72449
119.2983, 39.93748
119.7804, 41.10701
120.2625, 42.33469
120.7446, 43.67672
121.2267, 45.09901
121.7089, 46.72066
122.1910, 48.68053
122.6731, 50.93326
123.1552, 53.26696
123.6373, 55.64502
124.1194, 57.99455
124.6016, 60.27980
125.0837, 62.63348
125.5658, 64.75350
126.0479, 66.13078
126.5300, 66.79674
127.0121, 67.45780
127.4943, 68.72739
127.9764, 70.43948
128.4585, 72.24488
128.9406, 74.25118
129.4227, 76.19295
129.9048, 77.59511
130.3869, 78.45479
130.8691, 78.79713
131.3512, 78.46720
131.8333, 77.29734
132.3154, 75.65782
132.7975, 74.03982
133.2796, 72.54859
133.7618, 71.19276
134.2439, 69.88581
134.7260, 68.90247
135.2081, 68.73299
135.6902, 69.37317
136.1723, 70.41086
136.6545, 71.61482
137.1366, 72.97767
137.6187, 74.88518
138.1008, 77.64450
138.5829, 80.66185
139.0650, 82.61525
139.5472, 83.42472
140.0293, 83.53167
140.5114, 83.00688
140.9935, 81.62302
141.4756, 80.64998
141.9577, 80.22510
142.4399, 80.27197
142.9220, 80.44242
143.4041, 80.67596
143.8862, 81.12179
144.3683, 81.90488
144.8504, 83.08481
145.3326, 84.44402
145.8147, 85.91601
146.2968, 87.52321
146.7789, 89.34909
147.2610, 91.45377
147.7431, 93.73616
148.2253, 96.16048
148.7074, 98.84778
149.1895, 101.5062
149.6716, 104.2263
150.1537, 107.1197
150.6358, 109.1631
151.1180, 109.3726
151.6001, 109.1588
152.0822, 109.9861
152.5643, 112.8807
153.0464, 115.7675
153.5285, 118.0808
154.0107, 119.4763
154.4928, 121.5385
154.9749, 124.8763
155.4570, 128.7864
155.9391, 132.3773
156.4212, 135.5915
156.9034, 138.4798
157.3855, 141.1112
157.8676, 143.5475
158.3497, 145.4910
158.8318, 146.9253
159.3139, 147.8509
159.7961, 148.2813
160.2782, 148.0655
160.7603, 147.4833
161.2424, 146.6275
161.7245, 145.4122
162.2066, 144.1575
162.6888, 142.8875
163.1709, 141.6484
163.6530, 140.5438
164.1351, 140.1013
164.6172, 139.5025
165.0993, 138.1279
165.5815, 135.4105
166.0636, 132.6765
166.5457, 130.4309
167.0278, 128.6394
167.5099, 127.2039
167.9920, 125.8268
168.4742, 124.8931
168.9563, 124.7836
169.4384, 125.8698
169.9205, 127.4354
170.4026, 128.9874
170.8847, 130.5901
171.3669, 132.4955
171.8490, 134.9598
172.3311, 137.7796
172.8132, 140.7242
173.2953, 143.8055
173.7774, 146.9260
174.2596, 150.0217
174.7417, 153.1035
175.2238, 156.1502
175.7059, 159.3803
176.1880, 162.5115
176.6701, 165.0199
177.1523, 166.1433
177.6344, 166.9922
178.1165, 168.9651
178.5986, 172.0428
179.0807, 175.5311
179.5628, 178.9360
180.0450, 182.3596
180.5271, 185.9913
181.0092, 190.1922
181.4913, 194.5510
181.9734, 198.5008
182.4555, 202.0507
182.9377, 204.8542
183.4198, 206.5639
183.9019, 207.2654
184.3840, 207.2449
184.8661, 206.5178
185.3482, 205.1706
185.8304, 203.2681
186.3125, 200.7796
186.7946, 198.0662
187.2767, 195.1615
187.7588, 192.1909
188.2409, 190.0483
188.7231, 188.9198
189.2052, 188.8713
189.6873, 190.1647
190.1694, 192.8595
190.6515, 196.6621
191.1336, 201.4372
191.6158, 207.1453
192.0979, 213.1941
192.5800, 219.8105
193.0621, 226.7639
193.5442, 232.9635
194.0263, 238.6933
194.5085, 243.0141
194.9906, 244.6055
195.4727, 243.4987
195.9548, 240.2843
196.4369, 234.5538
196.9190, 226.4673
197.4012, 218.5579
197.8833, 210.7158
198.3654, 203.3018
198.8475, 197.0619
199.3296, 191.9630
199.8117, 187.9620
200.2939, 185.1969
200.7760, 183.6824
201.2581, 182.6533
201.7402, 182.1412
202.2223, 182.0717
202.7044, 182.6119
203.1866, 183.9783
203.6687, 184.7325
204.1508, 184.0271
204.6329, 181.7202
205.1150, 179.7026
205.5971, 178.3122
206.0793, 176.8316
206.5614, 173.6201
207.0435, 168.3003
207.5256, 162.8573
208.0077, 158.0918
208.4898, 154.0197
208.9720, 150.5326
209.4541, 147.6854
209.9362, 145.3649
210.4183, 143.4200
210.9004, 141.9910
211.3825, 140.5613
211.8647, 138.7546
212.3468, 136.3370
212.8289, 134.6269
213.3110, 133.7468
213.7931, 133.5003
214.2752, 133.5229
214.7574, 133.9358
215.2395, 134.3258
215.7216, 134.4304
216.2037, 134.0571
216.6858, 134.1116
217.1679, 134.6274
217.6500, 135.5626
218.1322, 136.8537
218.6143, 138.6470
219.0964, 140.5234
219.5785, 142.2641
220.0606, 143.8534
220.5427, 145.3968
221.0249, 146.7425
221.5070, 148.1109
221.9891, 149.9845
222.4712, 152.4452
222.9533, 155.2969
223.4354, 158.4465
223.9176, 162.0734
224.3997, 165.6504
224.8818, 169.3900
225.3639, 172.9996
225.8460, 175.8553
226.3281, 177.6766
226.8103, 179.1938
227.2924, 180.7222
227.7745, 182.5014
228.2566, 183.7211
228.7387, 184.3636
229.2208, 184.4617
229.7030, 184.1341
230.1851, 183.6329
230.6672, 182.2907
231.1493, 179.6619
231.6314, 175.0685
232.1135, 171.0447
232.5957, 167.8105
233.0778, 165.0403
233.5599, 162.0670
234.0420, 158.6372
234.5241, 155.4168
235.0062, 152.6892
235.4884, 150.5807
235.9705, 148.6472
236.4526, 146.6939
236.9347, 144.9837
237.4168, 144.0547
237.8989, 144.0597
238.3811, 144.5988
238.8632, 145.6333
239.3453, 147.4549
239.8274, 148.8628
240.3095, 149.6124
240.7916, 150.0843
241.2738, 151.0244
241.7559, 152.6984
242.2380, 154.4029
242.7201, 155.8463
243.2022, 156.8886
243.6843, 158.2247
244.1665, 160.2473
244.6486, 162.3476
245.1307, 163.4025
245.6128, 162.8749
246.0949, 162.2123
246.5770, 161.9955
247.0592, 162.5580
247.5413, 162.1919
248.0234, 160.6067
248.5055, 158.2866
248.9876, 156.0408
249.4697, 154.1016
249.9519, 151.7813
250.4340, 148.8157
250.9161, 145.0836
251.3982, 141.2976
251.8803, 137.3767
252.3624, 133.4964
252.8446, 129.9830
253.3267, 126.9087
253.8088, 124.0192
254.2909, 121.2998
254.7730, 118.7778
255.2551, 116.1229
255.7373, 113.3259
256.2194, 110.4057
256.7015, 107.3570
257.1836, 103.8960
257.6657, 100.9028
258.1478, 98.74729
258.6299, 97.52201
259.1121, 95.80486
259.5942, 93.32155
260.0763, 90.65665
260.5584, 88.37897
261.0405, 86.64346
261.5226, 84.95525
262.0048, 83.18217
262.4869, 81.34402
262.9690, 79.67068
263.4511, 78.22453
263.9332, 76.87315
264.4153, 75.51640
264.8975, 74.16441
265.3796, 72.72823
265.8617, 71.07903
266.3438, 69.28394
266.8259, 67.95095
267.3080, 67.25460
267.7902, 66.71999
268.2723, 65.89412
268.7544, 64.59425
269.2365, 63.68657
269.7186, 63.43941
270.2007, 63.69690
270.6829, 63.58027
271.1650, 62.99352
271.6471, 62.26325
272.1292, 61.61464
272.6113, 61.03907
273.0934, 60.56591
273.5756, 60.17278
274.0577, 59.89705
274.5398, 59.94399
275.0219, 60.42471
275.5040, 60.87222
275.9861, 60.90833
276.4683, 60.46078
276.9504, 60.22287
277.4325, 60.27941
277.9146, 60.56146
278.3967, 60.90126
278.8788, 61.29124
279.3610, 61.77142
279.8431, 62.37202
280.3252, 63.09066
280.8073, 63.88195
281.2894, 64.75323
281.7715, 65.68483
282.2537, 66.64680
282.7358, 67.64233
283.2179, 68.64958
283.7000, 69.60885
284.1821, 70.53509
284.6642, 71.66013
285.1464, 73.01219
285.6285, 74.52010
286.1106, 76.17137
286.5927, 77.96648
287.0748, 79.58383
287.5569, 80.88638
288.0391, 81.89063
288.5212, 82.67873
289.0033, 83.25444
289.4854, 83.61722
289.9675, 83.79662
290.4496, 83.78300
290.9318, 83.47501
291.4139, 82.83499
291.8960, 81.86962
292.3781, 80.57455
292.8602, 78.92406
293.3423, 77.10222
293.8245, 75.22701
294.3066, 73.30740
294.7887, 71.37232
295.2708, 69.42302
295.7529, 67.48872
296.2350, 65.63332
296.7172, 63.86479
297.1993, 62.18666
297.6814, 60.68155
298.1635, 59.26020
298.6456, 57.65599
299.1277, 55.62462
299.6099, 53.56355
300.0920, 52.25618
300.5741, 51.59597
301.0562, 50.96434
301.5383, 49.74183
302.0204, 48.26017
302.5026, 47.20554
302.9847, 46.82127
303.4668, 46.63538
303.9489, 46.11071
304.4310, 45.32233
304.9131, 44.51031
305.3953, 43.70463
305.8774, 43.00575
306.3595, 42.63214
306.8416, 42.69950
307.3237, 42.74837
307.8058, 42.31938
308.2880, 41.56237
308.7701, 40.81791
309.2522, 40.15155
309.7343, 39.62507
310.2164, 39.40712
310.6985, 39.55797
311.1807, 39.54057
311.6628, 38.75960
312.1449, 37.60896
312.6270, 36.71140
313.1091, 36.58733
313.5912, 36.58163
314.0734, 36.27507
314.5555, 35.65466
315.0376, 34.96810
315.5197, 34.25205
316.0018, 33.56594
316.4839, 32.98960
316.9661, 32.57665
317.4482, 32.24236
317.9303, 31.95382
318.4124, 31.71345
318.8945, 31.53220
319.3766, 31.55359
319.8588, 31.55709
320.3409, 31.37119
320.8230, 30.71744
321.3051, 30.18734
321.7872, 29.98103
322.2693, 30.02701
322.7515, 30.10676
323.2336, 30.28359
323.7157, 30.39497
324.1978, 30.33895
324.6799, 29.96284
325.1620, 29.69967
325.6442, 29.59579
326.1263, 29.64231
326.6084, 29.82346
327.0905, 30.42806
327.5726, 30.90143
328.0547, 30.99993
328.5369, 30.50677
329.0190, 30.32996
329.5011, 30.70544
329.9832, 31.30291
330.4653, 31.75522
330.9474, 32.02298
331.4296, 32.19086
331.9117, 32.18901
332.3938, 31.99648
332.8759, 32.10586
333.3580, 32.69679
333.8401, 33.42243
334.3223, 33.99820
334.8044, 34.34880
335.2865, 34.71436
335.7686, 35.14367
336.2507, 35.61513
336.7328, 35.97158
337.2150, 36.14886
337.6971, 36.33012
338.1792, 36.61151
338.6613, 36.97878
339.1434, 37.51408
339.6255, 38.30666
340.1077, 39.20084
340.5898, 39.83391
341.0719, 40.13513
341.5540, 40.42379
342.0361, 40.89865
342.5182, 41.57794
343.0003, 41.98264
343.4825, 42.04097
343.9646, 41.98698
344.4467, 42.16946
344.9288, 42.58794
345.4109, 43.00077
345.8930, 43.39756
346.3752, 43.72060
346.8573, 43.66927
347.3394, 43.21834
347.8215, 42.60249
348.3036, 41.97653
348.7857, 41.36008
349.2679, 40.85862
349.7500, 40.53352
350.2321, 40.30013
350.7142, 40.03011
351.1963, 39.72507
351.6784, 39.38701
352.1606, 38.89356
352.6427, 38.39061
353.1248, 38.19582
353.6069, 38.43110
354.0890, 38.77877
354.5711, 38.91637
355.0533, 38.88813
355.5354, 38.82022
356.0175, 38.73128
356.4996, 38.66386
356.9817, 38.64043
357.4638, 38.65564
357.9460, 38.78739
358.4281, 39.16243
358.9102, 39.67519
359.3923, 40.16603
359.8744, 40.58789
360.3565, 40.95687
360.8387, 41.20977
361.3208, 41.36610
361.8029, 41.65769
362.2850, 42.33911
362.7671, 43.12458
363.2492, 43.76944
363.7314, 43.95747
364.2135, 44.30779
364.6956, 45.14215
365.1777, 46.31113
365.6598, 47.34224
366.1419, 47.99480
366.6241, 48.58250
367.1062, 49.24426
367.5883, 50.01736
368.0704, 50.82158
368.5525, 51.66098
369.0346, 52.52089
369.5168, 53.39193
369.9989, 54.15065
370.4810, 55.05006
370.9631, 56.21233
371.4452, 57.69115
371.9273, 58.99923
372.4095, 59.95393
372.8916, 60.87555
373.3737, 62.05957
373.8558, 63.65427
374.3379, 65.22322
374.8200, 66.73176
375.3022, 68.18497
375.7843, 69.55888
376.2664, 70.84415
376.7485, 72.10132
377.2306, 73.33572
377.7127, 74.52779
378.1949, 75.86040
378.6770, 77.32833
379.1591, 78.94772
379.6412, 80.73381
380.1233, 82.71364
380.6054, 84.76841
381.0876, 86.91042
381.5697, 89.10088
382.0518, 91.11172
382.5339, 92.90129
383.0160, 94.65525
383.4981, 96.49050
383.9803, 98.43345
384.4624, 100.5511
384.9445, 102.9273
385.4266, 105.4190
385.9087, 107.8388
386.3908, 110.1757
386.8730, 112.4284
387.3551, 114.4912
387.8372, 116.5092
388.3193, 118.7967
388.8014, 121.4862
389.2835, 124.2075
389.7657, 126.5361
390.2478, 128.6364
390.7299, 130.8354
391.2120, 133.5342
391.6941, 136.2525
392.1762, 138.5853
392.6584, 140.4780
393.1405, 142.1416
393.6226, 143.4375
394.1047, 144.6597
394.5868, 146.1050
395.0689, 148.1215
395.5511, 150.1264
396.0332, 151.7896
396.5153, 153.2080
396.9974, 154.9074
397.4795, 157.4825
397.9616, 160.0430
398.4438, 162.0710
398.9259, 163.0757
399.4080, 164.3194
399.8901, 166.1987
400.3722, 168.3514
400.8543, 170.0784
401.3365, 171.0345
401.8186, 171.9890
402.3007, 173.1798
402.7828, 174.6609
403.2649, 175.9047
403.7470, 176.8698
404.2292, 177.6440
404.7113, 178.3112
405.1934, 178.9241
405.6755, 179.2836
406.1576, 179.3485
406.6397, 179.1405
407.1219, 178.7666
407.6040, 178.2673
408.0861, 177.4339
408.5682, 176.1587
409.0503, 174.4617
409.5324, 172.2229
410.0146, 169.3570
410.4967, 166.1757
410.9788, 163.1356
411.4609, 160.2297
411.9430, 157.1203
412.4251, 153.5351
412.9073, 149.7385
413.3894, 146.2201
413.8715, 142.9583
414.3536, 139.6197
414.8357, 135.8010
415.3178, 131.6838
415.8000, 127.6383
416.2821, 123.6374
416.7642, 119.8548
417.2463, 116.6360
417.7284, 113.7646
418.2105, 110.7624
418.6927, 106.9057
419.1748, 103.1147
419.6569, 100.1712
420.1390, 98.21750
420.6211, 96.29771
421.1032, 93.87804
421.5854, 91.24599
422.0675, 88.71319
422.5496, 86.19322
423.0317, 83.93332
423.5138, 82.05559
423.9959, 80.52864
424.4781, 79.02947
424.9602, 77.58630
425.4423, 76.13390
425.9244, 74.60844
426.4065, 72.84447
426.8886, 71.34547
427.3708, 70.28719
427.8529, 69.40714
428.3350, 68.25846
428.8171, 66.59818
429.2992, 65.11880
429.7813, 64.05304
430.2635, 63.38930
430.7456, 62.55272
431.2277, 61.42752
431.7098, 60.39486
432.1919, 59.86808
432.6740, 59.90632
433.1562, 59.68120
433.6383, 59.01835
434.1204, 58.15023
434.6025, 57.49970
435.0846, 57.06585
435.5667, 56.81804
436.0489, 56.88953
436.5310, 57.13605
437.0131, 57.06470
437.4952, 56.64950
437.9773, 56.17163
438.4594, 55.89905
438.9415, 55.76598
439.4236, 55.63008
439.9058, 55.41982
440.3879, 55.22553
440.8700, 55.18203
441.3521, 55.24051
441.8342, 55.22759
442.3163, 54.93986
442.7985, 54.61315
443.2806, 54.43461
443.7627, 54.45221
444.2448, 54.52057
444.7269, 54.61872
445.2090, 54.72037
445.6912, 54.79382
446.1733, 54.81699
446.6554, 54.82421
447.1375, 54.79692
447.6196, 54.74299
448.1017, 54.75608
448.5839, 54.78210
449.0660, 54.92819
449.5481, 55.28823
450.0302, 56.20074
450.5123, 56.60881
450.9944, 56.29425
451.4766, 55.62239
451.9587, 55.20829
452.4408, 55.18435
452.9229, 55.04475
453.4050, 54.62324
453.8871, 53.95504
454.3693, 53.28047
454.8514, 52.59157
455.3335, 51.92228
455.8156, 51.31769
456.2977, 50.76690
456.7798, 50.15761
457.2620, 49.47939
457.7441, 48.71092
458.2262, 47.72063
458.7083, 46.57296
459.1904, 45.51781
459.6725, 44.71685
460.1547, 44.07537
460.6368, 43.47629
461.1189, 42.91259
461.6010, 42.39362
462.0831, 41.96120
462.5652, 41.56036
463.0474, 41.13453
463.5295, 40.65037
464.0116, 40.16244
464.4937, 39.59150
464.9758, 39.04138
465.4579, 38.74570
465.9401, 39.02161
466.4222, 39.35057
466.9043, 39.47086
467.3864, 39.31298
467.8685, 39.35793
468.3506, 39.75100
468.8328, 40.30927
469.3149, 40.89714
469.7970, 41.44273
470.2791, 42.13524
470.7612, 43.00969
471.2433, 44.02839
471.7255, 45.10927
472.2076, 46.29571
472.6897, 47.43125
473.1718, 48.41817
473.6539, 49.25224
474.1360, 50.32731
474.6182, 51.65448
475.1003, 53.18221
475.5824, 54.91988
476.0645, 56.85296
476.5466, 58.74618
477.0287, 60.51883
477.5109, 62.31837
477.9930, 64.53249
478.4751, 67.04933
478.9572, 69.33453
479.4393, 70.87520
479.9214, 72.11785
480.4036, 73.66631
480.8857, 75.56592
481.3678, 77.35298
481.8499, 78.59536
482.3320, 79.60434
482.8141, 80.73780
483.2963, 82.52548
483.7784, 83.90750
484.2605, 84.13752
484.7426, 83.63089
485.2247, 83.41098
485.7068, 84.04680
486.1890, 84.71201
486.6711, 85.11921
487.1532, 85.21400
487.6353, 85.22806
488.1174, 84.93257
488.5995, 84.75224
489.0817, 85.13328
489.5638, 86.56341
490.0459, 87.31860
490.5280, 87.08813
491.0101, 86.17805
491.4922, 85.26283
491.9744, 84.29269
492.4565, 83.55743
492.9386, 83.38700
493.4207, 83.61869
493.9028, 83.06528
494.3849, 81.66216
494.8671, 80.07511
495.3492, 79.07240
495.8313, 78.38018
496.3134, 77.15308
496.7955, 75.08251
497.2776, 72.74453
497.7598, 70.82961
498.2419, 69.16065
498.7240, 67.34824
499.2061, 64.88036
499.6882, 62.41183
500.1703, 60.48458
500.6525, 59.10674
501.1346, 57.70366
501.6167, 55.99829
502.0988, 54.19083
502.5809, 52.42275
503.0630, 50.64904
503.5452, 48.97989
504.0273, 47.42115
504.5094, 45.98167
504.9915, 44.72532
505.4736, 43.72375
505.9557, 42.80657
506.4379, 41.99561
506.9200, 41.27537
507.4021, 40.32921
507.8842, 39.03711
508.3663, 37.77067
508.8484, 36.83605
509.3306, 36.24359
509.8127, 35.41737
510.2948, 34.24171
510.7769, 33.05483
511.2590, 32.41422
511.7411, 32.24145
512.2233, 32.11437
512.7054, 31.91930
513.1875, 31.65150
513.6696, 31.26963
514.1517, 30.79262
514.6339, 30.32403
515.1160, 29.92175
515.5981, 29.56441
516.0802, 29.22286
516.5623, 28.88846
517.0444, 28.59831
517.5266, 28.40269
518.0087, 28.24719
518.4908, 28.07241
518.9729, 27.72141
519.4550, 27.50917
519.9371, 27.64646
520.4193, 28.01309
520.9014, 28.08415
521.3835, 27.61501
521.8656, 27.16859
522.3477, 26.97957
522.8298, 27.09937
523.3120, 27.02659
523.7941, 26.67517
524.2762, 26.30999
524.7583, 26.22337
525.2404, 26.42734
525.7225, 26.56186
526.2047, 26.57050
526.6868, 26.49263
527.1689, 26.32481
527.6510, 26.09881
528.1331, 26.00936
528.6152, 26.31384
529.0974, 26.73248
529.5795, 26.84900
530.0616, 26.67930
530.5437, 26.44177
531.0258, 26.19933
531.5079, 26.00237
531.9901, 25.92254
532.4722, 26.05050
532.9543, 26.08062
533.4364, 25.74246
533.9185, 25.28364
534.4006, 25.03370
534.8828, 25.32291
535.3649, 25.53405
535.8470, 25.47262
536.3291, 25.20422
536.8112, 25.12186
537.2933, 25.39539
537.7755, 25.58838
538.2576, 25.46555
538.7397, 24.97344
539.2218, 24.56845
539.7039, 24.24296
540.1860, 24.03550
540.6682, 24.11859
541.1503, 24.44568
541.6324, 24.45807
542.1145, 23.95658
542.5966, 23.25467
543.0787, 22.79173
543.5609, 22.54055
544.0430, 22.39953
544.5251, 22.41735
545.0072, 22.45618
545.4893, 22.36468
545.9714, 22.14805
546.4536, 21.92082
546.9357, 21.63169
547.4178, 21.42666
547.8999, 21.46255
548.3820, 21.96081
548.8641, 22.24265
549.3463, 22.03847
549.8284, 21.59007
550.3105, 21.21360
550.7926, 20.94636
551.2747, 20.70333
551.7568, 20.44942
552.2390, 20.20811
552.7211, 20.08265
553.2032, 20.09540
553.6853, 20.15671
554.1674, 20.27228
554.6495, 20.42875
555.1317, 20.37719
555.6138, 20.09796
556.0959, 19.77469
556.5780, 19.55378
557.0601, 19.42705
557.5422, 19.39477
558.0244, 19.49513
558.5065, 19.58339
558.9886, 19.47195
559.4707, 19.24284
559.9528, 19.06272
560.4349, 18.97846
560.9171, 18.98090
561.3992, 19.14499
561.8813, 19.43145
562.3634, 19.57640
562.8455, 19.40920
563.3276, 19.16904
563.8098, 18.95959
564.2919, 18.78062
564.7740, 18.64681
565.2561, 18.55164
565.7382, 18.50802
566.2203, 18.53816
566.7025, 18.66297
567.1846, 18.79012
567.6667, 18.93730
568.1488, 19.04470
568.6309, 18.94804
569.1130, 18.65607
569.5952, 18.38171
570.0773, 18.18724
570.5594, 18.08420
571.0415, 18.13643
571.5236, 18.32624
572.0057, 18.48612
572.4879, 18.50918
572.9700, 18.44200
573.4521, 18.28330
573.9342, 17.98869
574.4163, 17.84670
574.8984, 18.13612
575.3806, 18.57614
575.8627, 18.88500
576.3448, 18.96595
576.8269, 18.95604
577.3090, 18.77054
577.7911, 18.51952
578.2733, 18.47451
578.7554, 18.77148
579.2375, 19.00367
579.7196, 19.03834
580.2017, 18.89565
580.6838, 18.73479
581.1660, 18.54375
581.6481, 18.40936
582.1302, 18.43635
582.6123, 18.58232
583.0944, 18.66407
583.5765, 18.66432
584.0587, 18.64420
584.5408, 18.63738
585.0229, 18.65772
585.5050, 18.73686
585.9871, 18.93650
586.4692, 19.11465
586.9513, 19.13686
587.4334, 19.07975
587.9155, 19.10173
588.3976, 19.32925
588.8798, 19.56638
589.3619, 19.72843
589.8440, 19.81582
590.3261, 19.98659
590.8082, 20.34297
591.2903, 20.64576
591.7725, 20.73034
592.2546, 20.52226
592.7367, 20.56691
593.2188, 20.93293
593.7009, 21.37328
594.1830, 21.59976
594.6652, 21.63622
595.1473, 21.69523
595.6294, 21.81500
596.1115, 21.97644
596.5936, 22.15838
597.0757, 22.36173
597.5579, 22.59081
598.0400, 22.85580
598.5221, 23.13439
599.0042, 23.42336
599.4863, 23.71577
599.9684, 23.98047
600.4506, 24.15494
600.9327, 24.33763
601.4148, 24.59724
601.8969, 24.97573
602.3790, 25.25599
602.8611, 25.39116
603.3433, 25.47614
603.8254, 25.58410
604.3075, 25.73205
604.7896, 25.84530
605.2717, 25.92868
605.7538, 25.96153
606.2360, 25.86717
606.7181, 25.66149
607.2002, 25.53579
607.6823, 25.57248
608.1644, 25.69018
608.6465, 25.81595
609.1287, 25.92593
609.6108, 25.92405
610.0929, 25.69906
610.5750, 25.38595
611.0571, 25.08314
611.5392, 24.79540
612.0214, 24.46921
612.5035, 23.99844
612.9856, 23.54438
613.4677, 23.20082
613.9498, 23.00992
614.4319, 22.87504
614.9141, 22.87978
615.3962, 22.86208
615.8783, 22.62264
616.3604, 22.09552
616.8425, 21.63483
617.3246, 21.29179
617.8068, 21.03662
618.2889, 20.85892
618.7710, 20.74543
619.2531, 20.58757
619.7352, 20.28897
620.2173, 19.95760
620.6995, 19.75678
621.1816, 19.66834
621.6637, 19.60705
622.1458, 19.57189
622.6279, 19.50885
623.1100, 19.33537
623.5922, 19.02784
624.0743, 18.84510
624.5564, 19.06324
625.0385, 19.28387
625.5206, 19.21514
626.0027, 18.60224
626.4849, 18.26629
626.9670, 18.38345
627.4491, 18.58201
627.9312, 18.28052
628.4133, 17.39058
628.8954, 16.83946
629.3776, 16.90968
629.8597, 17.26442
630.3418, 17.27104
630.8239, 16.99759
631.3060, 16.76891
631.7881, 16.79657
632.2703, 16.91058
632.7524, 16.94744
633.2345, 16.91175
633.7166, 16.83166
634.1987, 16.67094
634.6808, 16.51132
635.1630, 16.40189
635.6451, 16.35307
636.1272, 16.31522
636.6093, 16.23753
637.0914, 16.20881
637.5735, 16.30494
638.0557, 16.60362
638.5378, 16.79794
639.0199, 16.89087
639.5020, 16.86583
639.9841, 16.61421
640.4662, 16.16250
640.9484, 15.89700
641.4305, 15.95709
641.9126, 16.14543
642.3947, 16.18727
642.8768, 16.12852
643.3589, 16.09791
643.8411, 16.16788
644.3232, 16.27650
644.8053, 16.41490
645.2874, 16.56493
645.7695, 16.65642
646.2516, 16.66073
646.7338, 16.60665
647.2159, 16.45056
647.6980, 16.16555
648.1801, 16.10746
648.6622, 16.36547
649.1443, 16.71303
649.6265, 17.03020
650.1086, 17.32417
650.5907, 17.51978
651.0728, 17.61763
651.5549, 17.61167
652.0370, 17.43348
652.5192, 17.14191
653.0013, 16.90831
653.4834, 16.75116
653.9655, 16.71095
654.4476, 16.96589
654.9297, 17.33725
655.4119, 17.52874
655.8940, 17.23277
656.3761, 16.94489
656.8582, 16.86600
657.3403, 16.93767
657.8224, 16.93318
658.3046, 16.70654
658.7867, 16.60519
659.2688, 16.77738
659.7509, 17.18544
660.2330, 17.45697
660.7151, 17.58248
661.1973, 17.61793
661.6794, 17.52177
662.1615, 17.35797
662.6436, 17.41135
663.1257, 17.69423
663.6078, 17.96486
664.0900, 17.99560
664.5721, 17.91017
665.0542, 17.87236
665.5363, 17.94150
666.0184, 17.94573
666.5005, 17.72459
666.9827, 17.44153
667.4648, 17.26622
667.9469, 17.31638
668.4290, 17.35294
668.9111, 17.35631
669.3932, 17.34893
669.8754, 17.40307
670.3575, 17.56061
670.8396, 17.53650
671.3217, 17.17237
671.8038, 16.67044
672.2859, 16.58663
672.7681, 16.85430
673.2502, 17.02975
673.7323, 16.75845
674.2144, 16.35110
674.6965, 16.19560
675.1786, 16.24380
675.6608, 16.21034
676.1429, 15.84303
676.6250, 15.45066
677.1071, 15.21984
677.5892, 15.19817
678.0714, 15.10843
678.5535, 14.86500
679.0356, 14.63296
679.5177, 14.52831
679.9998, 14.58504
680.4819, 14.58195
680.9641, 14.50349
681.4462, 14.41144
681.9283, 14.38953
682.4104, 14.41441
682.8925, 14.37368
683.3746, 14.21998
683.8568, 14.09280
684.3389, 14.11245
684.8210, 14.25022
685.3031, 14.46405
685.7852, 14.85788
686.2673, 15.18265
686.7495, 15.27239
687.2316, 15.24117
687.7137, 15.36545
688.1958, 15.85992
688.6779, 16.17949
689.1600, 16.11487
689.6422, 15.81080
690.1243, 15.89036
690.6064, 16.40366
691.0885, 16.91475
691.5706, 17.20967
692.0527, 17.35551
692.5349, 17.52630
693.0170, 17.71718
693.4991, 17.89115
693.9812, 17.94630
694.4633, 18.02521
694.9454, 18.26831
695.4276, 18.68854
695.9097, 19.15980
696.3918, 19.72757
696.8739, 20.26449
697.3560, 20.66854
697.8381, 20.83772
698.3203, 21.21114
698.8024, 21.88397
699.2845, 22.61591
699.7666, 23.12823
700.2487, 23.42581
700.7308, 23.90649
701.2130, 24.65117
701.6951, 25.43048
702.1772, 25.93726
702.6593, 26.27099
703.1414, 26.63031
703.6235, 27.03798
704.1057, 27.55886
704.5878, 28.31163
705.0699, 29.18776
705.5520, 30.01204
706.0341, 30.66658
706.5162, 31.35812
706.9984, 32.15731
707.4805, 33.01200
707.9626, 33.82154
708.4447, 34.59721
708.9268, 35.29217
709.4089, 35.89039
709.8911, 36.39083
710.3732, 36.73237
710.8553, 36.93319
711.3374, 37.17104
711.8195, 37.49130
712.3016, 37.93695
712.7838, 38.66480
713.2659, 39.61632
713.7480, 40.42060
714.2301, 40.80224
714.7122, 41.07379
715.1943, 41.45513
715.6765, 42.00514
716.1586, 42.27869
716.6407, 42.22004
717.1228, 41.96437
717.6049, 41.55848
718.0870, 40.98717
718.5692, 40.39964
719.0513, 39.78659
719.5334, 39.21420
720.0155, 38.84121
720.4976, 38.53729
720.9797, 37.96033
721.4619, 37.03157
721.9440, 36.06775
722.4261, 35.35160
722.9082, 34.71822
723.3903, 33.99071
723.8724, 33.08144
724.3546, 32.17479
724.8367, 31.28570
725.3188, 30.42687
725.8009, 29.60833
726.2830, 28.84680
726.7651, 28.07327
727.2473, 27.25622
727.7294, 26.43777
728.2115, 25.67700
728.6936, 24.96800
729.1757, 24.32441
729.6578, 23.78425
730.1400, 23.25331
730.6221, 22.55951
731.1042, 21.79749
731.5863, 21.17916
732.0684, 20.90635
732.5505, 20.66182
733.0327, 20.30777
733.5148, 19.88821
733.9969, 19.60809
734.4790, 19.63407
734.9611, 19.46297
735.4432, 18.85141
735.9254, 17.95737
736.4075, 17.48493
736.8896, 17.43315
737.3717, 17.41592
737.8538, 17.17420
738.3359, 16.85557
738.8181, 16.70688
739.3002, 16.70333
739.7823, 16.68985
740.2644, 16.57133
740.7465, 16.42603
741.2286, 16.30667
741.7108, 16.22062
742.1929, 16.09186
742.6750, 15.90894
743.1571, 15.69359
743.6392, 15.44113
744.1213, 15.14888
744.6035, 14.89723
745.0856, 14.68210
745.5677, 14.53498
746.0498, 14.48656
746.5319, 14.52600
747.0140, 14.70092
747.4962, 15.02477
747.9783, 15.19931
748.4604, 14.86281
748.9425, 14.38329
749.4246, 14.09760
749.9067, 14.13066
750.3889, 14.12919
750.8710, 13.96696
751.3531, 13.82712
751.8352, 13.86888
752.3173, 14.15107
752.7994, 14.35052
753.2816, 14.45440
753.7637, 14.47569
754.2458, 14.38501
754.7279, 14.22469
755.2100, 14.14971
755.6921, 14.22451
756.1743, 14.23934
756.6564, 13.91192
757.1385, 13.46969
757.6206, 13.18659
758.1027, 13.11655
758.5848, 13.22882
759.0670, 13.73403
759.5491, 14.29983
760.0312, 14.51737
760.5133, 14.29254
760.9954, 14.03907
761.4775, 13.77987
761.9597, 13.57715
762.4418, 13.60264
762.9239, 13.79049
763.4060, 13.84445
763.8881, 13.58196
764.3702, 13.32901
764.8524, 13.47646
765.3345, 13.82575
765.8166, 14.03222
766.2987, 13.81983
766.7808, 13.65426
767.2629, 13.67044
767.7451, 13.79263
768.2272, 13.88173
768.7093, 13.93121
769.1914, 13.96260
769.6735, 13.97438
770.1556, 13.97902
770.6378, 14.01205
771.1199, 14.06608
771.6020, 14.10275
772.0841, 14.09732
772.5662, 14.07610
773.0483, 14.07111
773.5305, 14.06944
774.0126, 14.03782
774.4947, 13.87011
774.9768, 13.77838
775.4589, 13.90247
775.9410, 14.15258
776.4232, 14.17576
776.9053, 13.88239
777.3874, 13.68118
777.8695, 13.74429
778.3516, 13.97012
778.8337, 14.10540
779.3159, 14.15470
779.7980, 14.14537
780.2801, 14.04416
780.7622, 13.92904
781.2443, 13.83102
781.7264, 13.76852
782.2086, 13.81449
782.6907, 14.19796
783.1728, 14.46967
783.6549, 14.45943
784.1370, 14.20913
784.6191, 13.93701
785.1012, 13.61695
785.5833, 13.40107
786.0654, 13.40157
786.5475, 13.54067
787.0297, 13.60063
787.5118, 13.58896
787.9939, 13.55127
788.4760, 13.48037
788.9581, 13.42163
789.4402, 13.44398
789.9224, 13.53023
790.4045, 13.53682
790.8866, 13.34646
791.3687, 13.15753
791.8508, 13.03326
792.3329, 12.96889
792.8151, 12.91759
793.2972, 12.86640
793.7793, 12.90529
794.2614, 13.19709
794.7435, 13.58521
795.2256, 13.61896
795.7078, 13.35425
796.1899, 13.12864
796.6720, 13.22657
797.1541, 13.35986
797.6362, 13.29200
798.1183, 13.02601
798.6005, 12.90644
799.0826, 13.11811
799.5647, 13.27686
800.0468, 13.20580
800.5289, 12.93722
801.0110, 12.82661
801.4932, 12.88419
801.9753, 12.96541
802.4574, 13.02027
802.9395, 13.02209
803.4216, 12.86087
803.9037, 12.57074
804.3859, 12.38645
804.8680, 12.51487
805.3501, 12.70834
805.8322, 12.85277
806.3143, 12.93734
806.7964, 12.97938
807.2786, 12.98293
807.7607, 12.93045
808.2428, 12.76342
808.7249, 12.52684
809.2070, 12.54389
809.6891, 12.80550
810.1713, 13.06524
810.6534, 13.20286
811.1355, 13.22597
811.6176, 13.05785
812.0997, 12.74010
812.5818, 12.55879
813.0640, 12.79626
813.5461, 13.02745
814.0282, 13.05052
814.5103, 12.88248
814.9924, 12.72109
815.4745, 12.53716
815.9567, 12.45835
816.4388, 12.60693
816.9209, 12.89033
817.4030, 13.00280
817.8851, 12.96018
818.3672, 12.87886
818.8494, 12.80201
819.3315, 12.73686
819.8136, 12.72077
820.2957, 12.73683
820.7778, 12.66743
821.2599, 12.29926
821.7421, 12.06779
822.2242, 12.17559
822.7063, 12.53577
823.1884, 12.59697
823.6705, 12.33497
824.1526, 12.10347
824.6348, 12.11335
825.1169, 12.24427
825.5990, 12.31579
826.0811, 12.32875
826.5632, 12.29126
827.0453, 12.12375
827.5275, 11.98842
828.0096, 11.96256
828.4917, 12.04155
828.9738, 12.16646
829.4559, 12.37330
829.9380, 12.54652
830.4202, 12.65145
830.9023, 12.69877
831.3844, 12.71166
831.8665, 12.69286
832.3486, 12.66311
832.8307, 12.60658
833.3129, 12.56820
833.7950, 12.59716
834.2771, 12.67828
834.7592, 12.77203
835.2413, 12.98874
835.7234, 13.06447
836.2056, 12.89046
836.6877, 12.55985
837.1698, 12.30617
837.6519, 12.13347
838.1340, 12.02290
838.6161, 11.96937
839.0983, 11.97333
839.5804, 12.08418
840.0625, 12.25326
840.5446, 12.35137
841.0267, 12.23795
841.5089, 12.14688
841.9910, 12.28940
842.4731, 12.50692
842.9552, 12.47703
843.4373, 11.98619
843.9194, 11.67328
844.4016, 11.66107
844.8837, 11.80511
845.3658, 11.84870
845.8479, 11.81397
846.3300, 11.85167
846.8121, 12.03618
847.2943, 12.20177
847.7764, 12.13425
848.2585, 11.96659
848.7406, 11.89119
849.2227, 12.13407
849.7048, 12.19149
850.1870, 11.83229
850.6691, 11.39996
851.1512, 11.29364
851.6333, 11.56096
852.1154, 11.78095
852.5975, 11.91771
853.0797, 11.96141
853.5618, 11.84593
854.0439, 11.64485
854.5260, 11.48592
855.0081, 11.39535
855.4902, 11.34884
855.9724, 11.36783
856.4545, 11.40535
856.9366, 11.42435
857.4187, 11.43173
857.9008, 11.38083
858.3829, 11.23515
858.8651, 11.12505
859.3472, 11.26755
859.8293, 11.55270
860.3114, 11.46384
860.7935, 10.96820
861.2756, 10.52263
861.7578, 10.49988
862.2399, 10.63729
862.7220, 10.73640
863.2041, 10.77289
863.6862, 10.78444
864.1683, 10.76081
864.6505, 10.73490
865.1326, 10.72067
865.6147, 10.71789
866.0968, 10.73147
866.5789, 10.76141
867.0610, 10.78644
867.5432, 10.79787
868.0253, 10.79341
868.5074, 10.75843
868.9895, 10.70040
869.4716, 10.66240
869.9537, 10.65478
870.4359, 10.67791
870.9180, 10.76204
871.4001, 10.87797
871.8822, 10.86588
872.3643, 10.70644
872.8464, 10.56604
873.3286, 10.51912
873.8107, 10.51553
874.2928, 10.44904
874.7749, 10.34845
875.2570, 10.29633
875.7391, 10.35770
876.2213, 10.44079
876.7034, 10.57312
877.1855, 10.68570
877.6676, 10.61928
878.1497, 10.26426
878.6318, 10.05215
879.1140, 10.09089
879.5961, 10.23878
880.0782, 10.27234
880.5603, 10.21890
881.0424, 10.16023
881.5245, 10.10216
882.0067, 10.08755
882.4888, 10.20265
882.9709, 10.35068
883.4530, 10.42109
883.9351, 10.37153
884.4172, 10.28032
884.8994, 10.10854
885.3815, 9.957397
885.8636, 9.967656
886.3457, 10.10769
886.8278, 10.13776
887.3099, 10.03340
887.7921, 9.908216
888.2742, 9.824156
888.7563, 9.785419
889.2384, 9.817647
889.7205, 9.938190
890.2026, 10.00163
890.6848, 9.983157
891.1669, 9.910491
891.6490, 9.780765
892.1311, 9.599857
892.6132, 9.440950
893.0953, 9.305286
893.5775, 9.244180
894.0596, 9.407420
894.5417, 9.583667
895.0238, 9.467586
895.5059, 9.125935
895.9880, 8.908125
896.4702, 9.043030
896.9523, 9.184384
897.4344, 9.218374
897.9165, 9.188841
898.3986, 9.263723
898.8807, 9.453944
899.3629, 9.579040
899.8450, 9.565256
900.3271, 9.485561
900.8092, 9.415333
901.2913, 9.360681
901.7734, 9.334065
902.2556, 9.384647
902.7377, 9.405071
903.2198, 9.312466
903.7019, 9.204917
904.1840, 9.207491
904.6661, 9.348020
905.1483, 9.460524
905.6304, 9.538530
906.1125, 9.551490
906.5946, 9.409066
907.0767, 9.194731
907.5588, 9.060850
908.0410, 9.037460
908.5231, 9.058775
909.0052, 9.189563
909.4873, 9.276441
909.9694, 9.181069
910.4515, 8.863209
910.9337, 8.741881
911.4158, 8.854145
911.8979, 9.003588
912.3800, 9.072958
912.8621, 9.078242
913.3442, 9.023000
913.8264, 8.923061
914.3085, 8.870024
914.7906, 8.951206
915.2727, 9.051928
915.7548, 9.147991
916.2369, 9.220470
916.7191, 9.179951
917.2012, 8.988076
917.6833, 8.829930
918.1654, 8.768141
918.6475, 8.757494
919.1296, 8.700306
919.6118, 8.622711
920.0939, 8.598448
920.5760, 8.679606
921.0581, 8.780514
921.5402, 8.900165
922.0223, 8.997381
922.5045, 9.014249
922.9866, 8.910522
923.4687, 8.840326
923.9508, 8.813679
924.4329, 8.816869
924.9150, 8.829645
925.3972, 8.860752
925.8793, 8.954431
926.3614, 9.122133
926.8435, 9.239766
927.3256, 9.221502
927.8077, 9.140372
928.2899, 9.031299
928.7720, 8.894948
929.2541, 8.775595
929.7362, 8.644349
930.2183, 8.634753
930.7004, 8.931407
931.1826, 9.354047
931.6647, 9.377563
932.1468, 9.081860
932.6289, 8.809025
933.1110, 8.740437
933.5931, 8.724518
934.0753, 8.691875
934.5574, 8.658345
935.0395, 8.672306
935.5216, 8.750665
936.0037, 8.823403
936.4858, 8.879320
936.9680, 8.923108
937.4501, 8.939109
937.9322, 8.951811
938.4143, 9.030557
938.8964, 9.221097
939.3785, 9.386562
939.8607, 9.426497
940.3428, 9.430285
940.8249, 9.487536
941.3070, 9.635370
941.7891, 9.680419
942.2712, 9.612056
942.7534, 9.482226
943.2355, 9.289519
943.7176, 9.078409
944.1997, 8.941000
944.6818, 8.874782
945.1639, 8.824800
945.6461, 8.693583
946.1282, 8.644579
946.6103, 8.818374
947.0924, 9.142303
947.5745, 9.341387
948.0566, 9.397095
948.5388, 9.441436
949.0209, 9.528378
949.5030, 9.603465
949.9851, 9.539702
950.4672, 9.403501
950.9493, 9.342126
951.4315, 9.486879
951.9136, 9.570901
952.3957, 9.400553
952.8778, 9.211437
953.3599, 9.264650
953.8420, 9.621624
954.3242, 9.761869
954.8063, 9.641645
955.2884, 9.442370
955.7705, 9.247053
956.2526, 9.118090
956.7347, 9.184743
957.2169, 9.450672
957.6990, 9.670999
958.1811, 9.769544
958.6632, 9.790875
959.1453, 9.708562
959.6274, 9.565418
960.1096, 9.618305
960.5917, 9.867039
961.0738, 10.10521
961.5559, 10.27751
962.0380, 10.36037
962.5201, 10.25136
963.0023, 10.05250
963.4844, 9.948403
963.9665, 10.05910
964.4486, 10.18151
964.9307, 10.33788
965.4128, 10.45258
965.8950, 10.37788
966.3771, 10.14620
966.8592, 10.09250
967.3413, 10.25448
967.8234, 10.50261
968.3055, 10.87409
968.7877, 11.17875
969.2698, 11.19113
969.7519, 10.86748
970.2340, 10.65737
970.7161, 10.59506
971.1982, 10.62134
971.6804, 10.73992
972.1625, 10.91321
972.6446, 11.02565
973.1267, 11.08642
973.6088, 11.14028
974.0909, 11.21406
974.5731, 11.27873
975.0552, 11.32549
975.5373, 11.34995
976.0194, 11.33850
976.5015, 11.25079
976.9836, 11.24690
977.4658, 11.35321
977.9479, 11.49847
978.4300, 11.63868
978.9121, 11.74584
979.3942, 11.71979
979.8763, 11.54359
980.3585, 11.44853
980.8406, 11.60530
981.3227, 11.82539
981.8048, 12.01735
982.2869, 12.18163
982.7690, 12.34052
983.2511, 12.49161
983.7332, 12.66287
984.2153, 12.88385
984.6974, 13.11054
985.1796, 13.21075
985.6617, 13.28369
986.1438, 13.52962
986.6259, 14.30589
987.1080, 14.85393
987.5901, 14.94266
988.0723, 14.90779
988.5544, 15.11216
989.0365, 15.54919
989.5186, 16.12458
990.0007, 16.84684
990.4828, 17.46685
990.9650, 17.64973
991.4471, 17.73773
991.9292, 18.03176
992.4113, 18.55804
992.8934, 19.14291
993.3755, 19.76160
993.8577, 20.45129
994.3398, 21.20446
994.8219, 22.04579
995.3040, 23.11896
995.7861, 24.34031
996.2682, 25.42782
996.7504, 26.12152
997.2325, 26.89040
997.7146, 27.98540
998.1967, 29.29170
998.6788, 30.67797
999.1609, 32.15372
999.6431, 33.65076
1000.125, 35.12204
1000.607, 36.71403
1001.089, 38.39088
1001.572, 40.32342
1002.054, 42.95718
1002.536, 46.21354
1003.018, 49.36275
1003.500, 51.61221
1003.982, 54.23919
1004.464, 57.74334
1004.946, 61.83998
1005.428, 65.65321
1005.911, 69.20696
1006.393, 72.34280
1006.875, 75.04556
1007.357, 77.33825
1007.839, 79.11919
1008.321, 80.63526
1008.803, 82.20779
1009.285, 83.87010
1009.768, 85.58375
1010.250, 87.19374
1010.732, 89.20985
1011.214, 91.73303
1011.696, 94.97078
1012.178, 99.69405
1012.660, 105.7911
1013.142, 112.7138
1013.624, 119.8242
1014.107, 127.9843
1014.589, 137.8332
1015.071, 149.0016
1015.553, 160.7835
1016.035, 173.6030
1016.517, 184.8007
1016.999, 194.2234
1017.481, 200.6175
1017.964, 202.4781
1018.446, 200.1461
1018.928, 193.8093
1019.410, 183.1801
1019.892, 170.4298
1020.374, 154.6815
1020.856, 138.5897
1021.338, 122.8009
1021.820, 107.6412
1022.303, 95.43712
1022.785, 85.99234
1023.267, 78.34840
1023.749, 72.60746
1024.231, 67.84569
1024.713, 63.51489
1025.195, 59.75008
1025.677, 56.78431
1026.160, 54.70270
1026.642, 53.18093
1027.124, 52.24244
1027.606, 51.72042
1028.088, 51.50928
1028.570, 51.56776
1029.052, 51.86027
1029.534, 52.37145
1030.016, 52.94379
1030.499, 53.47893
1030.981, 54.09592
1031.463, 54.71790
1031.945, 55.48785
1032.427, 56.94060
1032.909, 59.04332
1033.391, 61.49178
1033.873, 64.29205
1034.355, 67.08917
1034.838, 69.36677
1035.320, 71.59262
1035.802, 74.33453
1036.284, 77.93330
1036.766, 81.35364
1037.248, 84.51711
1037.730, 87.70145
1038.212, 91.07175
1038.695, 94.59263
1039.177, 98.16346
1039.659, 101.7641
1040.141, 105.1776
1040.623, 108.0392
1041.105, 111.0122
1041.587, 114.2870
1042.069, 117.8266
1042.552, 121.6891
1043.034, 125.8618
1043.516, 130.1755
1043.998, 134.6729
1044.480, 139.1768
1044.962, 143.1381
1045.444, 147.4421
1045.926, 153.0860
1046.408, 160.2754
1046.891, 167.3567
1047.373, 174.0437
1047.855, 181.1461
1048.337, 188.9801
1048.819, 197.3905
1049.301, 206.1601
1049.783, 215.1990
1050.265, 224.5380
1050.747, 234.7845
1051.230, 244.0058
1051.712, 251.9036
1052.194, 258.1222
1052.676, 262.5424
1053.158, 265.2322
1053.640, 265.2539
1054.122, 262.6046
1054.604, 257.5518
1055.087, 249.8379
1055.569, 240.1762
1056.051, 228.5586
1056.533, 215.3809
1057.015, 201.7515
1057.497, 187.3396
1057.979, 173.6306
1058.461, 160.8193
1058.943, 148.8191
1059.426, 137.4182
1059.908, 126.8108
1060.390, 117.1490
1060.872, 108.4621
1061.354, 100.6476
1061.836, 93.99374
1062.318, 88.01302
1062.800, 82.45069
1063.282, 77.44083
1063.765, 73.52238
1064.247, 70.58645
1064.729, 67.78152
1065.211, 64.62575
1065.693, 61.83205
1066.175, 60.27969
1066.657, 59.21270
1067.139, 57.61196
1067.622, 55.15148
1068.104, 53.38186
1068.586, 52.41988
1069.068, 51.62719
1069.550, 50.42818
1070.032, 49.19400
1070.514, 48.56089
1070.996, 48.39651
1071.479, 48.24099
1071.961, 48.01347
1072.443, 47.67991
1072.925, 47.16285
1073.407, 46.64095
1073.889, 46.34088
1074.371, 46.24118
1074.853, 46.22689
1075.335, 46.28547
1075.818, 46.47607
1076.300, 46.80564
1076.782, 47.30968
1077.264, 48.07527
1077.746, 49.03736
1078.228, 49.84669
1078.710, 50.48711
1079.192, 51.36042
1079.674, 52.61089
1080.157, 54.04453
1080.639, 55.39640
1081.121, 56.86199
1081.603, 58.67389
1082.085, 60.97270
1082.567, 63.40306
1083.049, 65.95157
1083.531, 68.63988
1084.013, 71.40546
1084.496, 74.39674
1084.978, 78.07973
1085.460, 82.28910
1085.942, 86.63212
1086.424, 90.93276
1086.906, 95.45148
1087.388, 100.1988
1087.870, 105.2199
1088.353, 110.5500
1088.835, 116.2193
1089.317, 122.2449
1089.799, 128.6524
1090.281, 135.4588
1090.763, 142.8540
1091.245, 150.4763
1091.727, 158.0703
1092.209, 165.7600
1092.692, 173.6059
1093.174, 181.5258
1093.656, 190.6565
1094.138, 201.4185
1094.620, 212.3985
1095.102, 222.4078
1095.584, 231.5679
1096.066, 240.3271
1096.548, 248.7183
1097.031, 254.9737
1097.513, 259.3877
1097.995, 260.8541
1098.477, 258.8255
1098.959, 253.7708
1099.441, 246.3044
1099.923, 236.6645
1100.405, 224.8963
1100.888, 210.2215
1101.370, 195.3485
1101.852, 180.9693
1102.334, 166.7797
1102.816, 152.2276
1103.298, 137.6720
1103.780, 125.1365
1104.262, 114.5523
1104.745, 105.0861
1105.227, 96.22831
1105.709, 88.31608
1106.191, 81.50025
1106.673, 75.69019
1107.155, 70.79920
1107.637, 66.88774
1108.119, 63.50793
1108.601, 60.63391
1109.083, 57.92318
1109.566, 54.83223
1110.048, 51.94435
1110.530, 49.89129
1111.012, 48.55133
1111.494, 47.05911
1111.976, 45.15096
1112.458, 43.75205
1112.940, 43.08687
1113.423, 42.75259
1113.905, 42.22640
1114.387, 41.66217
1114.869, 41.35466
1115.351, 41.35207
1115.833, 41.24855
1116.315, 40.73691
1116.797, 40.47804
1117.280, 40.73811
1117.762, 41.33990
1118.244, 41.88549
1118.726, 42.40378
1119.208, 43.00175
1119.690, 43.70498
1120.172, 44.49240
1120.654, 45.35879
1121.136, 46.31158
1121.619, 47.36732
1122.101, 48.51692
1122.583, 49.66989
1123.065, 50.82814
1123.547, 52.00942
1124.029, 53.21556
1124.511, 54.45572
1124.993, 55.86336
1125.475, 57.23527
1125.958, 58.28989
1126.440, 58.96493
1126.922, 59.67439
1127.404, 60.41870
1127.886, 61.25935
1128.368, 62.32762
1128.850, 63.43940
1129.332, 64.60297
1129.815, 65.64648
1130.297, 66.14307
1130.779, 66.02277
1131.261, 65.54444
1131.743, 64.68449
1132.225, 63.66979
1132.707, 62.69342
1133.189, 61.74623
1133.672, 60.88147
1134.154, 60.06054
1134.636, 58.88137
1135.118, 57.14561
1135.600, 55.28559
1136.082, 53.34422
1136.564, 51.39830
1137.046, 49.50716
1137.528, 47.68897
1138.010, 45.99938
1138.493, 44.45101
1138.975, 42.86926
1139.457, 41.04494
1139.939, 39.38535
1140.421, 38.10389
1140.903, 37.05804
1141.385, 35.70601
1141.867, 34.14796
1142.350, 32.72249
1142.832, 31.53930
1143.314, 30.51922
1143.796, 29.72866
1144.278, 29.01400
1144.760, 28.27600
1145.242, 27.51348
1145.724, 26.76992
1146.207, 26.05154
1146.689, 25.38699
1147.171, 24.81256
1147.653, 24.27186
1148.135, 23.74567
1148.617, 23.24040
1149.099, 22.76981
1149.581, 22.35563
1150.063, 21.79023
1150.546, 21.06786
1151.028, 20.49165
1151.510, 20.39729
1151.992, 20.42664
1152.474, 20.34762
1152.956, 20.15697
1153.438, 19.83673
1153.920, 19.31170
1154.402, 18.96952
1154.885, 18.85407
1155.367, 18.77361
1155.849, 18.50540
1156.331, 18.22269
1156.813, 18.14585
1157.295, 18.23863
1157.777, 18.30439
1158.259, 18.33423
1158.742, 18.29661
1159.224, 18.16545
1159.706, 18.04092
1160.188, 18.13738
1160.670, 18.26417
1161.152, 18.05052
1161.634, 17.50137
1162.116, 17.21006
1162.599, 17.41973
1163.081, 17.61127
1163.563, 17.66207
1164.045, 17.65458
1164.527, 17.74360
1165.009, 17.86438
1165.491, 17.85440
1165.973, 17.66860
1166.455, 17.61759
1166.938, 17.88795
1167.420, 18.13642
1167.902, 18.23339
1168.384, 18.25854
1168.866, 18.37490
1169.348, 18.57312
1169.830, 18.85325
1170.312, 19.26075
1170.794, 19.56438
1171.277, 19.63904
1171.759, 19.63006
1172.241, 19.54273
1172.723, 19.44405
1173.205, 19.60968
1173.687, 19.98932
1174.169, 20.41707
1174.651, 20.87435
1175.134, 21.28573
1175.616, 21.62208
1176.098, 21.90259
1176.580, 22.12640
1177.062, 22.30238
1177.544, 22.48477
1178.026, 22.68329
1178.508, 22.96230
1178.990, 23.44081
1179.473, 23.88032
1179.955, 24.07037
1180.437, 24.26120
1180.919, 24.70974
1181.401, 25.40644
1181.883, 26.00749
1182.365, 26.53059
1182.847, 27.12930
1183.329, 28.04804
1183.812, 28.89277
1184.294, 29.37219
1184.776, 29.70057
1185.258, 30.13874
1185.740, 30.68681
1186.222, 31.35654
1186.704, 32.14077
1187.186, 32.78180
1187.669, 32.91230
1188.151, 33.05416
1188.633, 33.58604
1189.115, 34.32867
1189.597, 34.97149
1190.079, 35.51228
1190.561, 35.99967
1191.043, 36.44205
1191.526, 36.81109
1192.008, 36.95995
1192.490, 37.14198
1192.972, 37.61364
1193.454, 38.24219
1193.936, 38.70814
1194.418, 39.01625
1194.900, 39.03894
1195.382, 38.73861
1195.865, 38.37347
1196.347, 38.21637
1196.829, 38.03461
1197.311, 37.54357
1197.793, 36.86440
1198.275, 36.52200
1198.757, 36.54353
1199.239, 36.57056
1199.721, 36.55626
1200.204, 36.38655
1200.686, 35.79869
1201.168, 35.14022
1201.650, 34.71443
1202.132, 34.50198
1202.614, 34.32663
1203.096, 34.20097
1203.578, 33.90587
1204.061, 33.34093
1204.543, 32.78707
1205.025, 32.49333
1205.507, 32.35120
1205.989, 32.27549
1206.471, 32.25639
1206.953, 32.29603
1207.435, 32.39096
1207.917, 32.61245
1208.400, 33.03699
1208.882, 33.42007
1209.364, 33.34586
1209.846, 33.22625
1210.328, 33.58108
1210.810, 34.40442
1211.292, 34.87644
1211.774, 34.97487
1212.256, 35.20389
1212.739, 35.78064
1213.221, 36.50621
1213.703, 37.11609
1214.185, 37.83495
1214.667, 39.04586
1215.149, 40.78734
1215.631, 41.91608
1216.113, 42.40069
1216.596, 43.12425
1217.078, 44.49890
1217.560, 46.20764
1218.042, 48.21896
1218.524, 50.29505
1219.006, 52.11362
1219.488, 53.61669
1219.970, 55.52525
1220.453, 57.84002
1220.935, 60.19116
1221.417, 62.24007
1221.899, 64.43172
1222.381, 67.23803
1222.863, 70.34237
1223.345, 73.32284
1223.827, 76.11319
1224.309, 79.34374
1224.792, 83.02682
1225.274, 86.87676
1225.756, 90.95351
1226.238, 94.92303
1226.720, 98.34314
1227.202, 101.6489
1227.684, 105.4042
1228.166, 109.6807
1228.648, 113.8356
1229.131, 117.8902
1229.613, 121.9296
1230.095, 126.2981
1230.577, 130.3395
1231.059, 133.6931
1231.541, 136.4322
1232.023, 138.7425
1232.505, 140.6241
1232.988, 141.7925
1233.470, 142.2536
1233.952, 142.0431
1234.434, 141.1413
1234.916, 139.6160
1235.398, 137.5781
1235.880, 134.8559
1236.362, 131.1179
1236.844, 126.3700
1237.327, 121.5459
1237.809, 116.6339
1238.291, 111.4167
1238.773, 105.4904
1239.255, 99.62269
1239.737, 94.16359
1240.219, 89.00680
1240.701, 83.94341
1241.183, 79.05096
1241.666, 74.72091
1242.148, 70.91397
1242.630, 67.32953
1243.112, 63.78106
1243.594, 60.47033
1244.076, 57.46191
1244.558, 54.65845
1245.040, 51.92202
1245.523, 49.27822
1246.005, 46.66697
1246.487, 44.14719
1246.969, 41.90824
1247.451, 40.01838
1247.933, 38.47934
1248.415, 37.41883
1248.897, 36.42525
1249.380, 34.88395
1249.862, 33.03654
1250.344, 31.74158
1250.826, 30.95194
1251.308, 30.17671
1251.790, 29.21768
1252.272, 28.27890
1252.754, 27.39969
1253.236, 26.53644
1253.719, 25.61218
1254.201, 24.69586
1254.683, 23.88084
1255.165, 23.18661
1255.647, 22.66365
1256.129, 22.51826
1256.611, 22.20892
1257.093, 21.64596
1257.575, 21.00896
1258.058, 20.40819
1258.540, 19.91237
1259.022, 19.74852
1259.504, 19.81443
1259.986, 19.58732
1260.468, 18.84290
1260.950, 18.28100
1261.432, 17.99978
1261.915, 17.81097
1262.397, 17.48264
1262.879, 17.18933
1263.361, 17.23957
1263.843, 17.50011
1264.325, 17.44329
1264.807, 16.98338
1265.289, 16.48472
1265.771, 15.96741
1266.254, 15.54922
1266.736, 15.42242
1267.218, 15.36335
1267.700, 15.14935
1268.182, 14.86485
1268.664, 14.78135
1269.146, 14.92120
1269.628, 14.92647
1270.110, 14.76224
1270.593, 14.52764
1271.075, 14.21958
1271.557, 13.94113
1272.039, 13.78211
1272.521, 13.68703
1273.003, 13.57254
1273.485, 13.44232
1273.967, 13.32479
1274.450, 13.22316
1274.932, 13.15700
1275.414, 13.18452
1275.896, 13.18973
1276.378, 13.12427
1276.860, 13.02240
1277.342, 12.93646
1277.824, 12.85385
1278.306, 12.70879
1278.789, 12.50518
1279.271, 12.31174
1279.753, 12.15302
1280.235, 12.01856
1280.717, 11.90585
1281.199, 11.81740
1281.681, 11.80542
1282.163, 11.79950
1282.646, 11.56182
1283.128, 11.15582
1283.610, 10.97648
1284.092, 11.31672
1284.574, 11.51648
1285.056, 11.49370
1285.538, 11.37057
1286.020, 11.25316
1286.502, 11.12017
1286.984, 10.89311
1287.467, 10.62250
1287.949, 10.49242
1288.431, 10.53622
1288.913, 10.64352
1289.395, 10.81736
1289.877, 10.94939
1290.359, 10.91909
1290.841, 10.83258
1291.324, 10.80186
1291.806, 10.77152
1292.288, 10.59522
1292.770, 10.25010
1293.252, 10.05728
1293.734, 10.03641
1294.216, 10.11315
1294.698, 10.36528
1295.181, 10.55811
1295.663, 10.52234
1296.145, 10.38111
1296.627, 10.24864
1297.109, 10.12724
1297.591, 10.04420
1298.073, 9.998631
1298.555, 9.979660
1299.037, 10.03315
1299.520, 10.03948
1300.002, 9.972253
1300.484, 9.862213
1300.966, 9.706129
1301.448, 9.533554
1301.930, 9.420447
1302.412, 9.364181
1302.894, 9.348260
1303.376, 9.431451
1303.859, 9.436646
1304.341, 9.325622
1304.823, 9.226224
1305.305, 9.202544
1305.787, 9.256788
##END=



