##NAMES=Amblygonite
##RRUFFID=R040067
##IDEAL CHEMISTRY=LiAlPO_4_F
##LOCALITY=Montebras, France
##OWNER=RRUFF
##SOURCE=University of Arizona Mineral Museum
##DESCRIPTION=Pale blue fine-grained massive
##STATUS=The identification of this mineral has been confirmed by X-ray diffraction and chemical analysis
##URL=rruff.info/R040067
##MEASURED CHEMISTRY=(Li_0.76_Na_0.24_)Al(PO_4_)(F_0.80_(OH)_0.20_)
116.2188, 1438.409
116.7010, 1579.799
117.1831, 1719.882
117.6652, 1846.570
118.1473, 1969.087
118.6294, 2099.073
119.1115, 2244.008
119.5937, 2395.424
120.0758, 2547.667
120.5579, 2695.889
121.0400, 2854.588
121.5221, 3039.001
122.0042, 3242.139
122.4864, 3442.512
122.9685, 3623.245
123.4506, 3795.641
123.9327, 3975.229
124.4148, 4175.118
124.8969, 4372.709
125.3791, 4545.526
125.8612, 4692.835
126.3433, 4823.231
126.8254, 4937.162
127.3075, 5038.468
127.7896, 5136.649
128.2718, 5240.521
128.7539, 5342.440
129.2360, 5426.094
129.7181, 5490.129
130.2002, 5540.793
130.6823, 5581.910
131.1645, 5614.331
131.6466, 5645.554
132.1287, 5682.043
132.6108, 5721.790
133.0929, 5749.010
133.5750, 5758.378
134.0572, 5762.381
134.5393, 5786.958
135.0214, 5833.351
135.5035, 5886.760
135.9856, 5938.790
136.4677, 5989.668
136.9498, 6039.019
137.4320, 6085.456
137.9141, 6131.365
138.3962, 6185.517
138.8783, 6250.279
139.3604, 6319.750
139.8425, 6389.305
140.3247, 6461.418
140.8068, 6527.679
141.2889, 6585.869
141.7710, 6636.021
142.2531, 6685.405
142.7352, 6735.622
143.2174, 6784.128
143.6995, 6828.570
144.1816, 6868.349
144.6637, 6903.608
145.1458, 6932.830
145.6279, 6952.604
146.1101, 6975.308
146.5922, 7001.705
147.0743, 7030.438
147.5564, 7059.445
148.0385, 7093.791
148.5206, 7123.135
149.0028, 7142.964
149.4849, 7149.078
149.9670, 7151.571
150.4491, 7148.454
150.9312, 7141.184
151.4133, 7137.616
151.8955, 7136.725
152.3776, 7141.073
152.8597, 7152.289
153.3418, 7176.573
153.8239, 7202.068
154.3060, 7226.954
154.7882, 7250.905
155.2703, 7278.336
155.7524, 7310.280
156.2345, 7345.854
156.7166, 7383.784
157.1987, 7423.458
157.6808, 7465.226
158.1630, 7508.004
158.6451, 7549.666
159.1272, 7597.441
159.6093, 7658.400
160.0914, 7724.957
160.5735, 7785.799
161.0557, 7837.774
161.5378, 7881.976
162.0199, 7919.235
162.5020, 7949.808
162.9841, 7971.647
163.4662, 7978.862
163.9484, 7976.061
164.4305, 7974.744
164.9126, 7982.545
165.3947, 7992.960
165.8768, 8000.852
166.3589, 8003.243
166.8411, 8005.936
167.3232, 8015.367
167.8053, 8029.753
168.2874, 8039.646
168.7695, 8033.858
169.2516, 8022.708
169.7338, 8017.983
170.2159, 8029.790
170.6980, 8045.163
171.1801, 8052.734
171.6622, 8052.869
172.1443, 8052.962
172.6265, 8054.289
173.1086, 8059.532
173.5907, 8073.236
174.0728, 8107.911
174.5549, 8147.246
175.0370, 8169.365
175.5192, 8171.902
176.0013, 8171.965
176.4834, 8184.377
176.9655, 8206.789
177.4476, 8232.300
177.9297, 8268.129
178.4118, 8302.881
178.8940, 8310.104
179.3761, 8280.967
179.8582, 8248.563
180.3403, 8256.420
180.8224, 8298.709
181.3046, 8345.286
181.7867, 8382.211
182.2688, 8409.987
182.7509, 8428.543
183.2330, 8436.261
183.7151, 8437.681
184.1973, 8440.176
184.6794, 8443.479
185.1615, 8444.628
185.6436, 8435.356
186.1257, 8420.005
186.6078, 8418.102
187.0900, 8436.549
187.5721, 8468.504
188.0542, 8503.175
188.5363, 8541.393
189.0184, 8573.253
189.5005, 8588.043
189.9827, 8587.179
190.4648, 8583.955
190.9469, 8580.533
191.4290, 8577.743
191.9111, 8579.209
192.3932, 8585.749
192.8754, 8592.861
193.3575, 8597.688
193.8396, 8600.328
194.3217, 8594.777
194.8038, 8567.326
195.2859, 8524.667
195.7681, 8530.384
196.2502, 8596.694
196.7323, 8678.659
197.2144, 8711.497
197.6965, 8691.595
198.1786, 8665.524
198.6607, 8649.342
199.1429, 8643.063
199.6250, 8647.077
200.1071, 8662.971
200.5892, 8686.286
201.0713, 8711.083
201.5534, 8738.011
202.0356, 8761.390
202.5177, 8775.857
202.9998, 8779.616
203.4819, 8788.488
203.9640, 8803.581
204.4461, 8822.957
204.9283, 8843.371
205.4104, 8865.866
205.8925, 8885.389
206.3746, 8897.655
206.8567, 8900.782
207.3388, 8907.941
207.8210, 8923.050
208.3031, 8942.060
208.7852, 8947.723
209.2673, 8933.788
209.7494, 8922.708
210.2315, 8933.343
210.7137, 8974.604
211.1958, 9004.457
211.6779, 9013.760
212.1600, 9007.347
212.6421, 9011.163
213.1242, 9029.483
213.6064, 9050.366
214.0885, 9063.247
214.5706, 9064.438
215.0527, 9068.398
215.5348, 9079.234
216.0169, 9095.541
216.4991, 9102.402
216.9812, 9093.039
217.4633, 9082.854
217.9454, 9088.276
218.4275, 9118.521
218.9096, 9141.178
219.3917, 9146.938
219.8739, 9135.356
220.3560, 9134.407
220.8381, 9149.877
221.3202, 9169.907
221.8023, 9181.273
222.2844, 9179.639
222.7666, 9179.220
223.2487, 9183.279
223.7308, 9192.147
224.2129, 9204.729
224.6950, 9224.467
225.1771, 9244.933
225.6593, 9255.691
226.1414, 9247.879
226.6235, 9246.953
227.1056, 9263.774
227.5877, 9305.234
228.0698, 9327.727
228.5520, 9322.872
229.0341, 9305.053
229.5162, 9294.982
229.9983, 9291.283
230.4804, 9298.024
230.9625, 9321.314
231.4447, 9372.350
231.9268, 9398.541
232.4089, 9387.762
232.8910, 9359.190
233.3731, 9347.938
233.8552, 9361.894
234.3374, 9380.774
234.8195, 9397.883
235.3016, 9413.181
235.7837, 9427.114
236.2658, 9439.181
236.7479, 9450.248
237.2301, 9463.024
237.7122, 9482.755
238.1943, 9496.486
238.6764, 9496.410
239.1585, 9467.793
239.6406, 9460.934
240.1227, 9488.300
240.6049, 9534.203
241.0870, 9556.532
241.5691, 9536.797
242.0512, 9519.854
242.5333, 9527.132
243.0154, 9574.632
243.4976, 9610.614
243.9797, 9630.148
244.4618, 9637.771
244.9439, 9648.405
245.4260, 9665.723
245.9081, 9679.982
246.3903, 9684.313
246.8724, 9667.394
247.3545, 9666.164
247.8366, 9691.398
248.3187, 9732.354
248.8008, 9752.494
249.2830, 9743.956
249.7651, 9726.627
250.2472, 9709.717
250.7293, 9689.769
251.2114, 9679.677
251.6935, 9683.157
252.1757, 9697.488
252.6578, 9712.702
253.1399, 9732.681
253.6220, 9748.300
254.1041, 9752.517
254.5862, 9736.846
255.0684, 9729.848
255.5505, 9732.399
256.0326, 9744.965
256.5147, 9771.428
256.9968, 9821.583
257.4789, 9870.072
257.9611, 9897.199
258.4432, 9888.406
258.9253, 9896.691
259.4074, 9930.520
259.8895, 9984.789
260.3716, 10035.47
260.8538, 10083.10
261.3359, 10125.49
261.8180, 10161.77
262.3001, 10194.77
262.7822, 10212.28
263.2643, 10206.85
263.7465, 10184.99
264.2286, 10177.58
264.7107, 10187.85
265.1928, 10206.73
265.6749, 10232.03
266.1570, 10270.70
266.6392, 10291.00
267.1213, 10281.66
267.6034, 10252.32
268.0855, 10248.07
268.5676, 10277.34
269.0497, 10313.11
269.5318, 10337.44
270.0139, 10347.87
270.4961, 10357.53
270.9782, 10367.39
271.4603, 10378.00
271.9424, 10391.15
272.4245, 10406.35
272.9066, 10425.57
273.3888, 10456.68
273.8709, 10505.28
274.3530, 10526.01
274.8351, 10502.38
275.3172, 10450.14
275.7993, 10429.40
276.2815, 10445.86
276.7636, 10473.49
277.2457, 10494.70
277.7278, 10508.75
278.2099, 10522.42
278.6920, 10535.47
279.1742, 10549.08
279.6563, 10566.58
280.1384, 10587.98
280.6205, 10613.87
281.1026, 10648.99
281.5847, 10693.68
282.0669, 10726.89
282.5490, 10742.62
283.0311, 10748.16
283.5132, 10762.91
283.9953, 10787.86
284.4774, 10815.05
284.9596, 10835.55
285.4417, 10850.58
285.9238, 10877.45
286.4059, 10920.30
286.8880, 10974.16
287.3701, 11028.81
287.8523, 11083.73
288.3344, 11140.79
288.8165, 11199.85
289.2986, 11261.25
289.7807, 11326.71
290.2628, 11397.21
290.7450, 11470.64
291.2271, 11537.47
291.7092, 11598.65
292.1913, 11670.72
292.6734, 11777.69
293.1555, 11907.38
293.6377, 12010.69
294.1198, 12074.83
294.6019, 12127.87
295.0840, 12218.26
295.5661, 12341.72
296.0482, 12460.77
296.5304, 12537.86
297.0125, 12593.01
297.4946, 12686.07
297.9767, 12834.30
298.4588, 12991.23
298.9409, 13095.22
299.4231, 13153.01
299.9052, 13201.11
300.3873, 13264.61
300.8694, 13330.02
301.3515, 13373.57
301.8336, 13390.13
302.3158, 13389.14
302.7979, 13381.27
303.2800, 13363.58
303.7621, 13328.45
304.2442, 13262.60
304.7263, 13180.27
305.2085, 13097.78
305.6906, 13018.32
306.1727, 12933.93
306.6548, 12831.68
307.1369, 12719.52
307.6190, 12611.69
308.1012, 12507.85
308.5833, 12418.17
309.0654, 12357.20
309.5475, 12331.25
310.0296, 12300.85
310.5117, 12230.17
310.9938, 12137.89
311.4760, 12055.19
311.9581, 11996.01
312.4402, 11949.48
312.9223, 11908.50
313.4044, 11872.29
313.8865, 11844.14
314.3687, 11841.82
314.8508, 11844.78
315.3329, 11826.55
315.8150, 11756.78
316.2971, 11680.73
316.7792, 11618.75
317.2614, 11571.60
317.7435, 11537.79
318.2256, 11518.20
318.7077, 11511.28
319.1898, 11515.43
319.6719, 11551.58
320.1541, 11578.61
320.6362, 11578.10
321.1183, 11550.25
321.6004, 11522.47
322.0825, 11499.46
322.5646, 11479.83
323.0468, 11462.52
323.5289, 11446.32
324.0110, 11433.21
324.4931, 11421.04
324.9752, 11410.60
325.4573, 11410.20
325.9395, 11437.99
326.4216, 11464.80
326.9037, 11473.48
327.3858, 11444.78
327.8679, 11419.28
328.3500, 11398.62
328.8322, 11383.04
329.3143, 11372.52
329.7964, 11369.86
330.2785, 11370.13
330.7606, 11370.89
331.2427, 11369.46
331.7249, 11373.92
332.2070, 11392.61
332.6891, 11416.93
333.1712, 11418.86
333.6533, 11384.15
334.1354, 11347.91
334.6176, 11325.17
335.0997, 11319.88
335.5818, 11317.94
336.0639, 11320.20
336.5460, 11324.92
337.0281, 11326.63
337.5103, 11320.59
337.9924, 11323.45
338.4745, 11349.77
338.9566, 11406.59
339.4387, 11422.59
339.9208, 11383.63
340.4030, 11326.25
340.8851, 11308.58
341.3672, 11336.81
341.8493, 11362.31
342.3314, 11366.37
342.8135, 11351.43
343.2957, 11342.17
343.7778, 11339.60
344.2599, 11341.03
344.7420, 11343.37
345.2241, 11346.84
345.7062, 11352.75
346.1884, 11358.17
346.6705, 11367.06
347.1526, 11399.58
347.6347, 11456.98
348.1168, 11506.70
348.5989, 11508.67
349.0811, 11474.92
349.5632, 11448.00
350.0453, 11439.66
350.5274, 11442.87
351.0095, 11449.50
351.4916, 11459.00
351.9737, 11467.43
352.4558, 11469.85
352.9380, 11469.81
353.4201, 11473.78
353.9022, 11484.48
354.3843, 11497.80
354.8664, 11512.05
355.3485, 11526.41
355.8307, 11537.74
356.3128, 11542.30
356.7949, 11544.09
357.2770, 11546.05
357.7591, 11547.40
358.2412, 11553.16
358.7234, 11576.33
359.2055, 11605.66
359.6876, 11619.52
360.1697, 11585.03
360.6518, 11549.57
361.1339, 11542.83
361.6161, 11571.96
362.0982, 11604.23
362.5803, 11634.90
363.0624, 11658.74
363.5445, 11669.25
364.0266, 11647.48
364.5088, 11628.29
364.9909, 11626.79
365.4730, 11644.66
365.9551, 11656.56
366.4372, 11650.29
366.9193, 11640.93
367.4015, 11640.55
367.8836, 11658.71
368.3657, 11676.89
368.8478, 11689.54
369.3299, 11698.30
369.8120, 11718.25
370.2942, 11767.87
370.7763, 11811.54
371.2584, 11827.88
371.7405, 11794.06
372.2226, 11772.68
372.7047, 11766.83
373.1869, 11774.28
373.6690, 11791.12
374.1511, 11824.04
374.6332, 11852.55
375.1153, 11863.22
375.5974, 11847.54
376.0796, 11854.37
376.5617, 11894.59
377.0438, 11944.25
377.5259, 11964.28
378.0080, 11951.09
378.4901, 11930.75
378.9723, 11909.74
379.4544, 11889.09
379.9365, 11880.41
380.4186, 11886.06
380.9007, 11896.07
381.3828, 11897.75
381.8650, 11892.44
382.3471, 11890.30
382.8292, 11891.89
383.3113, 11899.88
383.7934, 11927.17
384.2755, 11973.26
384.7577, 12012.68
385.2398, 12016.55
385.7219, 11998.17
386.2040, 11986.82
386.6861, 11987.26
387.1682, 11998.63
387.6504, 12028.67
388.1325, 12071.70
388.6146, 12104.69
389.0967, 12105.15
389.5788, 12093.63
390.0609, 12093.91
390.5431, 12114.18
391.0252, 12130.27
391.5073, 12123.63
391.9894, 12103.08
392.4715, 12084.01
392.9536, 12069.80
393.4357, 12062.03
393.9178, 12064.50
394.4000, 12078.64
394.8821, 12089.53
395.3642, 12088.03
395.8463, 12082.65
396.3284, 12081.51
396.8105, 12089.18
397.2927, 12097.68
397.7748, 12103.22
398.2569, 12106.20
398.7390, 12115.50
399.2211, 12133.00
399.7032, 12155.93
400.1854, 12183.98
400.6675, 12241.24
401.1496, 12266.25
401.6317, 12237.32
402.1138, 12178.78
402.5959, 12156.90
403.0781, 12187.58
403.5602, 12228.16
404.0423, 12263.92
404.5244, 12295.98
405.0065, 12316.99
405.4886, 12324.44
405.9708, 12324.65
406.4529, 12321.81
406.9350, 12312.96
407.4171, 12321.92
407.8992, 12362.73
408.3813, 12428.83
408.8635, 12481.42
409.3456, 12519.73
409.8277, 12549.12
410.3098, 12564.13
410.7919, 12570.48
411.2740, 12600.08
411.7562, 12665.78
412.2383, 12751.03
412.7204, 12827.72
413.2025, 12897.50
413.6846, 12966.82
414.1667, 13039.68
414.6489, 13113.96
415.1310, 13187.77
415.6131, 13261.30
416.0952, 13329.06
416.5773, 13371.21
417.0594, 13403.79
417.5416, 13456.03
418.0237, 13556.28
418.5058, 13669.91
418.9879, 13774.39
419.4700, 13869.28
419.9521, 13961.10
420.4343, 14045.60
420.9164, 14133.02
421.3985, 14233.96
421.8806, 14380.48
422.3627, 14510.62
422.8448, 14612.59
423.3270, 14686.76
423.8091, 14741.20
424.2912, 14772.85
424.7733, 14787.28
425.2554, 14789.34
425.7375, 14793.73
426.2197, 14758.90
426.7018, 14681.05
427.1839, 14564.54
427.6660, 14413.29
428.1481, 14204.28
428.6302, 13997.93
429.1124, 13805.23
429.5945, 13625.93
430.0766, 13483.74
430.5587, 13386.86
431.0408, 13312.36
431.5229, 13232.77
432.0051, 13145.94
432.4872, 13090.29
432.9693, 13086.18
433.4514, 13108.95
433.9335, 13085.46
434.4156, 13015.58
434.8977, 12947.61
435.3799, 12920.35
435.8620, 12921.40
436.3441, 12912.57
436.8262, 12886.70
437.3083, 12861.33
437.7904, 12854.31
438.2726, 12863.30
438.7547, 12882.22
439.2368, 12933.17
439.7189, 12977.03
440.2010, 12963.51
440.6831, 12892.09
441.1653, 12828.34
441.6474, 12812.18
442.1295, 12822.85
442.6116, 12839.76
443.0937, 12864.45
443.5758, 12886.22
444.0580, 12900.84
444.5401, 12909.46
445.0222, 12916.26
445.5043, 12922.65
445.9864, 12927.59
446.4685, 12930.17
446.9507, 12927.87
447.4328, 12929.18
447.9149, 12933.73
448.3970, 12942.27
448.8791, 12957.22
449.3612, 12988.38
449.8434, 13008.68
450.3255, 13008.04
450.8076, 12987.52
451.2897, 12976.04
451.7718, 12974.35
452.2539, 12979.79
452.7361, 12989.71
453.2182, 13003.80
453.7003, 13029.65
454.1824, 13076.11
454.6645, 13123.63
455.1466, 13120.49
455.6288, 13068.17
456.1109, 13033.09
456.5930, 13068.01
457.0751, 13145.45
457.5572, 13195.11
458.0393, 13213.43
458.5215, 13215.46
459.0036, 13209.42
459.4857, 13197.94
459.9678, 13185.14
460.4499, 13159.60
460.9320, 13146.51
461.4142, 13175.51
461.8963, 13238.88
462.3784, 13301.19
462.8605, 13348.50
463.3426, 13385.38
463.8247, 13413.16
464.3069, 13428.55
464.7890, 13443.89
465.2711, 13463.38
465.7532, 13484.70
466.2353, 13504.78
466.7174, 13535.37
467.1996, 13551.55
467.6817, 13535.50
468.1638, 13484.35
468.6459, 13468.09
469.1280, 13503.54
469.6101, 13555.13
470.0923, 13598.73
470.5744, 13628.46
471.0565, 13666.91
471.5386, 13722.80
472.0207, 13783.06
472.5028, 13813.09
472.9850, 13809.28
473.4671, 13800.77
473.9492, 13801.82
474.4313, 13810.74
474.9134, 13811.51
475.3955, 13803.36
475.8776, 13795.45
476.3597, 13790.34
476.8419, 13792.74
477.3240, 13820.27
477.8061, 13893.41
478.2882, 13973.90
478.7703, 14011.21
479.2524, 14013.34
479.7346, 14013.01
480.2167, 14025.48
480.6988, 14045.85
481.1809, 14071.08
481.6630, 14101.48
482.1451, 14130.44
482.6273, 14159.77
483.1094, 14183.48
483.5915, 14194.01
484.0736, 14166.12
484.5557, 14148.28
485.0378, 14162.06
485.5200, 14204.25
486.0021, 14225.89
486.4842, 14213.32
486.9663, 14192.12
487.4484, 14174.36
487.9305, 14162.20
488.4127, 14150.69
488.8948, 14140.43
489.3769, 14131.34
489.8590, 14122.67
490.3411, 14114.35
490.8232, 14108.62
491.3054, 14107.89
491.7875, 14110.44
492.2696, 14107.51
492.7517, 14098.88
493.2338, 14084.80
493.7159, 14062.64
494.1981, 14034.57
494.6802, 14004.27
495.1623, 13967.93
495.6444, 13941.87
496.1265, 13961.15
496.6086, 14007.31
497.0908, 14032.50
497.5729, 13993.42
498.0550, 13939.08
498.5371, 13910.38
499.0192, 13908.39
499.5013, 13903.36
499.9835, 13867.95
500.4656, 13831.55
500.9477, 13818.14
501.4298, 13859.44
501.9119, 13887.03
502.3940, 13870.80
502.8762, 13833.04
503.3583, 13829.01
503.8404, 13906.83
504.3225, 13959.94
504.8046, 13948.66
505.2867, 13866.05
505.7689, 13814.45
506.2510, 13801.11
506.7331, 13807.49
507.2152, 13821.13
507.6973, 13843.33
508.1794, 13863.55
508.6616, 13883.66
509.1437, 13896.84
509.6258, 13879.28
510.1079, 13833.97
510.5900, 13801.61
511.0721, 13816.72
511.5543, 13856.51
512.0364, 13875.42
512.5185, 13872.36
513.0006, 13860.30
513.4827, 13836.12
513.9648, 13813.39
514.4470, 13812.73
514.9291, 13855.38
515.4112, 13896.58
515.8933, 13911.44
516.3754, 13906.17
516.8575, 13895.88
517.3397, 13866.64
517.8218, 13849.88
518.3039, 13864.93
518.7860, 13921.20
519.2681, 13960.06
519.7502, 13974.34
520.2324, 13973.71
520.7145, 13963.24
521.1966, 13933.76
521.6787, 13915.96
522.1608, 13917.45
522.6429, 13929.20
523.1251, 13924.26
523.6072, 13897.74
524.0893, 13881.92
524.5714, 13896.80
525.0535, 13935.91
525.5356, 13961.62
526.0178, 13973.58
526.4999, 13977.54
526.9820, 13975.70
527.4641, 13970.00
527.9462, 13964.30
528.4283, 13957.99
528.9105, 13955.01
529.3926, 13964.54
529.8747, 13980.43
530.3568, 13988.44
530.8389, 13967.90
531.3210, 13949.26
531.8032, 13956.23
532.2853, 13990.96
532.7674, 14012.83
533.2495, 13996.21
533.7316, 13972.38
534.2137, 13962.87
534.6959, 13991.24
535.1780, 14003.55
535.6601, 13988.85
536.1422, 13962.97
536.6243, 13957.53
537.1064, 13980.88
537.5885, 14003.14
538.0706, 14014.25
538.5527, 14015.74
539.0349, 14022.39
539.5170, 14034.42
539.9991, 14048.72
540.4812, 14061.16
540.9633, 14073.20
541.4454, 14093.12
541.9276, 14124.33
542.4097, 14154.12
542.8918, 14165.37
543.3739, 14163.82
543.8560, 14162.63
544.3381, 14171.27
544.8203, 14179.26
545.3024, 14177.39
545.7845, 14167.18
546.2666, 14158.38
546.7487, 14153.91
547.2308, 14153.21
547.7130, 14156.37
548.1951, 14164.96
548.6772, 14174.13
549.1593, 14185.32
549.6414, 14196.08
550.1235, 14202.79
550.6057, 14199.77
551.0878, 14205.32
551.5699, 14227.94
552.0520, 14260.19
552.5341, 14267.87
553.0162, 14245.51
553.4984, 14227.85
553.9805, 14244.57
554.4626, 14286.48
554.9447, 14292.56
555.4268, 14257.65
555.9089, 14222.80
556.3911, 14236.72
556.8732, 14280.47
557.3553, 14313.82
557.8374, 14323.84
558.3195, 14324.51
558.8016, 14320.50
559.2838, 14315.57
559.7659, 14318.73
560.2480, 14349.65
560.7301, 14375.39
561.2122, 14374.63
561.6943, 14343.38
562.1765, 14324.67
562.6586, 14323.81
563.1407, 14337.42
563.6228, 14366.05
564.1049, 14423.21
564.5870, 14465.38
565.0692, 14489.75
565.5513, 14499.99
566.0334, 14499.21
566.5155, 14485.03
566.9976, 14475.71
567.4797, 14475.63
567.9619, 14484.86
568.4440, 14512.74
568.9261, 14557.60
569.4082, 14587.75
569.8903, 14564.64
570.3724, 14517.63
570.8546, 14493.81
571.3367, 14500.29
571.8188, 14515.36
572.3009, 14524.32
572.7830, 14532.48
573.2651, 14546.23
573.7473, 14585.95
574.2294, 14611.83
574.7115, 14600.31
575.1936, 14564.24
575.6757, 14543.95
576.1578, 14553.69
576.6400, 14568.54
577.1221, 14582.29
577.6042, 14595.03
578.0863, 14607.66
578.5684, 14619.12
579.0505, 14632.53
579.5327, 14652.95
580.0148, 14680.50
580.4969, 14698.91
580.9790, 14703.82
581.4611, 14705.91
581.9432, 14723.39
582.4254, 14751.95
582.9075, 14776.27
583.3896, 14787.35
583.8717, 14793.03
584.3538, 14800.07
584.8359, 14808.41
585.3181, 14818.34
585.8002, 14824.97
586.2823, 14836.87
586.7644, 14861.82
587.2465, 14904.16
587.7286, 14943.73
588.2108, 14978.04
588.6929, 15007.32
589.1750, 15031.68
589.6571, 15048.43
590.1392, 15064.94
590.6213, 15079.75
591.1035, 15096.24
591.5856, 15127.18
592.0677, 15177.48
592.5498, 15210.72
593.0319, 15199.46
593.5140, 15163.21
593.9962, 15177.44
594.4783, 15241.14
594.9604, 15313.66
595.4425, 15369.26
595.9246, 15412.11
596.4067, 15446.81
596.8889, 15472.09
597.3710, 15500.41
597.8531, 15540.67
598.3352, 15588.19
598.8173, 15637.77
599.2994, 15691.10
599.7816, 15742.77
600.2637, 15798.84
600.7458, 15852.46
601.2279, 15881.25
601.7100, 15865.22
602.1921, 15852.70
602.6743, 15862.32
603.1564, 15893.20
603.6385, 15906.28
604.1206, 15899.87
604.6027, 15880.67
605.0848, 15842.00
605.5670, 15789.95
606.0491, 15772.68
606.5312, 15800.52
607.0133, 15835.08
607.4954, 15831.72
607.9775, 15802.77
608.4597, 15773.30
608.9418, 15744.49
609.4239, 15727.26
609.9060, 15736.70
610.3881, 15764.35
610.8702, 15786.59
611.3524, 15781.52
611.8345, 15782.80
612.3166, 15810.48
612.7987, 15870.02
613.2808, 15907.19
613.7629, 15905.18
614.2451, 15901.67
614.7272, 15922.04
615.2093, 15971.60
615.6914, 16018.59
616.1735, 16063.03
616.6556, 16101.75
617.1378, 16128.08
617.6199, 16143.54
618.1020, 16158.21
618.5840, 16173.71
619.0662, 16190.98
619.5483, 16206.21
620.0304, 16223.15
620.5125, 16254.49
620.9946, 16311.93
621.4767, 16380.97
621.9589, 16461.08
622.4410, 16551.41
622.9231, 16619.43
623.4052, 16633.99
623.8873, 16640.32
624.3694, 16664.32
624.8516, 16710.43
625.3337, 16765.06
625.8158, 16832.63
626.2979, 16904.16
626.7800, 16969.70
627.2621, 17029.06
627.7443, 17085.86
628.2264, 17141.83
628.7085, 17194.50
629.1906, 17234.21
629.6727, 17264.24
630.1548, 17299.50
630.6370, 17352.83
631.1191, 17412.14
631.6012, 17467.76
632.0833, 17518.76
632.5654, 17557.46
633.0475, 17571.81
633.5297, 17578.20
634.0118, 17590.45
634.4939, 17617.86
634.9760, 17619.93
635.4581, 17570.93
635.9402, 17510.16
636.4224, 17466.13
636.9045, 17438.28
637.3866, 17430.87
637.8687, 17447.34
638.3508, 17480.13
638.8329, 17521.97
639.3151, 17572.59
639.7972, 17612.24
640.2793, 17626.04
640.7614, 17633.40
641.2435, 17671.21
641.7256, 17734.54
642.2078, 17799.78
642.6899, 17859.76
643.1720, 17911.21
643.6541, 17953.74
644.1362, 17988.14
644.6183, 18001.52
645.1005, 17989.50
645.5826, 17955.65
646.0647, 17903.30
646.5468, 17849.69
647.0289, 17740.71
647.5110, 17563.24
647.9932, 17341.83
648.4753, 17102.56
648.9574, 16840.77
649.4395, 16600.56
649.9216, 16397.46
650.4037, 16212.83
650.8859, 16005.94
651.3680, 15786.79
651.8501, 15596.14
652.3322, 15474.76
652.8143, 15383.16
653.2964, 15282.09
653.7786, 15174.86
654.2607, 15078.59
654.7428, 15012.14
655.2249, 14950.55
655.7070, 14877.75
656.1891, 14787.95
656.6713, 14710.70
657.1534, 14647.70
657.6355, 14596.33
658.1176, 14557.14
658.5997, 14533.42
659.0818, 14509.24
659.5640, 14486.56
660.0461, 14456.95
660.5282, 14397.71
661.0103, 14316.66
661.4924, 14260.06
661.9745, 14251.15
662.4567, 14259.33
662.9388, 14247.46
663.4209, 14222.04
663.9030, 14200.74
664.3851, 14192.55
664.8672, 14189.75
665.3494, 14190.81
665.8315, 14194.68
666.3136, 14193.63
666.7957, 14176.85
667.2778, 14162.65
667.7599, 14161.39
668.2421, 14176.87
668.7242, 14167.63
669.2063, 14124.69
669.6884, 14077.26
670.1705, 14046.62
670.6526, 14033.38
671.1348, 14049.18
671.6169, 14103.64
672.0990, 14153.25
672.5811, 14139.47
673.0632, 14088.32
673.5453, 14048.55
674.0275, 14047.39
674.5096, 14047.50
674.9917, 14025.19
675.4738, 13990.49
675.9559, 13963.94
676.4380, 13947.44
676.9202, 13943.86
677.4023, 13959.61
677.8844, 13990.10
678.3665, 14006.44
678.8486, 14002.83
679.3307, 13998.94
679.8129, 14006.23
680.2950, 14021.84
680.7771, 14025.52
681.2592, 14016.33
681.7413, 14010.52
682.2234, 14029.10
682.7056, 14057.22
683.1877, 14069.36
683.6698, 14059.70
684.1519, 14051.30
684.6340, 14064.80
685.1161, 14083.10
685.5983, 14088.92
686.0804, 14068.23
686.5625, 14049.69
687.0446, 14031.64
687.5267, 14019.18
688.0089, 14023.85
688.4910, 14054.60
688.9731, 14068.16
689.4552, 14046.53
689.9373, 14010.47
690.4194, 14015.94
690.9016, 14058.36
691.3837, 14094.78
691.8658, 14093.05
692.3479, 14080.21
692.8300, 14097.02
693.3121, 14136.82
693.7943, 14161.14
694.2764, 14137.55
694.7585, 14103.70
695.2406, 14079.58
695.7227, 14067.45
696.2048, 14064.01
696.6870, 14078.61
697.1691, 14091.63
697.6512, 14087.89
698.1333, 14061.74
698.6154, 14054.05
699.0975, 14071.03
699.5797, 14090.80
700.0618, 14081.33
700.5438, 14052.09
701.0259, 14040.43
701.5081, 14060.41
701.9902, 14081.87
702.4723, 14071.24
702.9544, 14043.02
703.4365, 14021.38
703.9186, 14017.49
704.4008, 14017.51
704.8829, 14013.53
705.3650, 14010.18
705.8471, 14022.47
706.3292, 14065.07
706.8113, 14097.19
707.2935, 14107.82
707.7756, 14099.56
708.2577, 14076.57
708.7398, 14037.29
709.2219, 14012.13
709.7040, 14027.48
710.1862, 14066.90
710.6683, 14101.15
711.1504, 14129.73
711.6325, 14152.41
712.1146, 14170.50
712.5967, 14181.99
713.0789, 14183.01
713.5610, 14170.42
714.0431, 14160.29
714.5252, 14156.81
715.0073, 14155.71
715.4894, 14152.79
715.9716, 14142.83
716.4537, 14148.66
716.9358, 14175.32
717.4179, 14208.67
717.9000, 14231.86
718.3821, 14245.56
718.8643, 14252.24
719.3464, 14249.93
719.8285, 14247.87
720.3106, 14265.03
720.7927, 14288.67
721.2748, 14295.19
721.7570, 14241.83
722.2391, 14205.35
722.7212, 14230.87
723.2033, 14295.56
723.6854, 14329.13
724.1675, 14304.37
724.6497, 14287.55
725.1318, 14300.49
725.6139, 14333.38
726.0960, 14337.05
726.5781, 14309.20
727.0602, 14282.69
727.5424, 14273.03
728.0245, 14278.08
728.5066, 14300.36
728.9887, 14337.74
729.4708, 14367.77
729.9529, 14372.99
730.4351, 14368.47
730.9172, 14363.91
731.3993, 14360.13
731.8814, 14358.36
732.3635, 14361.89
732.8456, 14364.65
733.3278, 14362.56
733.8099, 14353.50
734.2920, 14347.31
734.7741, 14343.79
735.2562, 14343.13
735.7383, 14343.62
736.2205, 14346.75
736.7026, 14360.75
737.1847, 14388.82
737.6668, 14419.97
738.1489, 14451.16
738.6310, 14476.99
739.1132, 14488.97
739.5953, 14469.93
740.0774, 14458.48
740.5595, 14479.74
741.0416, 14510.68
741.5237, 14510.17
742.0059, 14449.89
742.4880, 14421.07
742.9701, 14445.23
743.4522, 14502.39
743.9343, 14552.94
744.4164, 14595.97
744.8986, 14618.73
745.3807, 14602.90
745.8628, 14575.53
746.3449, 14576.89
746.8270, 14598.83
747.3091, 14615.45
747.7913, 14608.28
748.2734, 14599.17
748.7555, 14604.69
749.2376, 14623.02
749.7197, 14621.22
750.2018, 14586.29
750.6840, 14551.60
751.1661, 14526.20
751.6482, 14511.07
752.1303, 14523.61
752.6124, 14565.76
753.0945, 14608.97
753.5767, 14632.24
754.0588, 14642.80
754.5409, 14652.35
755.0230, 14661.27
755.5051, 14670.60
755.9872, 14688.68
756.4694, 14701.50
756.9515, 14694.96
757.4336, 14657.53
757.9157, 14636.46
758.3978, 14643.65
758.8799, 14657.99
759.3621, 14661.01
759.8442, 14649.19
760.3263, 14664.86
760.8084, 14717.99
761.2905, 14768.50
761.7726, 14760.18
762.2548, 14715.88
762.7369, 14689.38
763.2190, 14693.24
763.7011, 14710.26
764.1832, 14733.99
764.6653, 14761.14
765.1475, 14787.66
765.6296, 14820.32
766.1117, 14840.39
766.5938, 14839.86
767.0759, 14829.87
767.5580, 14823.63
768.0402, 14818.84
768.5223, 14832.16
769.0044, 14872.02
769.4865, 14920.42
769.9686, 14944.79
770.4507, 14951.99
770.9329, 14964.64
771.4150, 15002.03
771.8971, 15035.51
772.3792, 15042.46
772.8613, 15031.47
773.3434, 15021.37
773.8256, 15018.24
774.3077, 15015.50
774.7898, 15011.70
775.2719, 15007.99
775.7540, 15003.15
776.2361, 14993.50
776.7183, 15008.89
777.2004, 15078.29
777.6825, 15166.41
778.1646, 15179.83
778.6467, 15132.91
779.1288, 15097.07
779.6110, 15122.17
780.0931, 15162.39
780.5752, 15182.58
781.0573, 15186.07
781.5394, 15203.88
782.0215, 15262.17
782.5037, 15314.52
782.9857, 15346.00
783.4678, 15357.66
783.9500, 15365.02
784.4321, 15366.96
784.9142, 15373.15
785.3963, 15392.23
785.8784, 15419.83
786.3605, 15445.13
786.8427, 15468.22
787.3248, 15490.41
787.8069, 15516.98
788.2890, 15539.28
788.7711, 15543.90
789.2532, 15526.70
789.7354, 15533.29
790.2175, 15586.84
790.6996, 15643.23
791.1817, 15679.99
791.6638, 15695.97
792.1459, 15711.54
792.6281, 15726.26
793.1102, 15742.24
793.5923, 15765.40
794.0744, 15790.25
794.5565, 15804.75
795.0386, 15808.12
795.5208, 15808.37
796.0029, 15804.89
796.4850, 15804.59
796.9671, 15814.75
797.4492, 15842.75
797.9313, 15860.60
798.4135, 15860.94
798.8956, 15860.41
799.3777, 15867.84
799.8598, 15883.00
800.3419, 15925.09
800.8240, 15998.73
801.3062, 16074.15
801.7883, 16125.94
802.2704, 16158.09
802.7525, 16173.32
803.2346, 16167.10
803.7167, 16169.61
804.1989, 16204.26
804.6810, 16248.59
805.1631, 16282.33
805.6452, 16298.79
806.1273, 16318.33
806.6094, 16341.92
807.0916, 16367.18
807.5737, 16388.12
808.0558, 16406.53
808.5379, 16443.07
809.0200, 16503.88
809.5021, 16562.38
809.9843, 16592.86
810.4664, 16605.45
810.9485, 16608.92
811.4306, 16590.20
811.9127, 16599.18
812.3948, 16681.59
812.8770, 16780.31
813.3591, 16837.38
813.8412, 16837.62
814.3233, 16841.49
814.8054, 16846.73
815.2875, 16870.32
815.7697, 16952.02
816.2518, 17073.04
816.7339, 17160.49
817.2160, 17194.42
817.6981, 17216.37
818.1802, 17255.23
818.6624, 17302.73
819.1445, 17349.79
819.6266, 17395.64
820.1087, 17439.57
820.5908, 17481.88
821.0729, 17522.05
821.5551, 17559.51
822.0372, 17594.32
822.5193, 17622.93
823.0014, 17643.86
823.4835, 17661.63
823.9656, 17680.93
824.4478, 17701.39
824.9299, 17723.30
825.4120, 17748.86
825.8941, 17769.54
826.3762, 17775.63
826.8583, 17776.68
827.3405, 17785.58
827.8226, 17820.18
828.3047, 17828.44
828.7868, 17800.46
829.2689, 17757.61
829.7510, 17725.41
830.2332, 17703.54
830.7153, 17688.04
831.1974, 17679.78
831.6795, 17673.21
832.1616, 17654.88
832.6437, 17638.03
833.1259, 17643.12
833.6080, 17702.50
834.0901, 17734.74
834.5722, 17685.77
835.0543, 17623.05
835.5364, 17618.37
836.0186, 17690.43
836.5007, 17741.04
836.9828, 17761.17
837.4649, 17761.13
837.9470, 17748.99
838.4291, 17727.36
838.9113, 17700.68
839.3934, 17666.14
839.8755, 17640.21
840.3576, 17642.19
840.8397, 17654.17
841.3218, 17657.15
841.8040, 17633.46
842.2861, 17627.64
842.7682, 17653.35
843.2503, 17678.15
843.7324, 17659.10
844.2145, 17599.67
844.6967, 17551.03
845.1788, 17518.32
845.6609, 17502.07
846.1430, 17514.71
846.6251, 17538.97
847.1072, 17554.16
847.5894, 17558.73
848.0715, 17545.99
848.5536, 17499.87
849.0357, 17446.04
849.5178, 17401.29
849.9999, 17362.34
850.4821, 17355.56
850.9642, 17389.89
851.4463, 17426.84
851.9284, 17421.57
852.4105, 17389.24
852.8926, 17361.39
853.3748, 17341.08
853.8569, 17336.02
854.3390, 17372.52
854.8211, 17412.43
855.3032, 17418.58
855.7853, 17365.25
856.2675, 17348.95
856.7496, 17385.14
857.2317, 17430.87
857.7138, 17447.02
858.1959, 17438.28
858.6780, 17458.45
859.1602, 17510.56
859.6423, 17557.12
860.1244, 17569.51
860.6065, 17559.59
861.0886, 17535.14
861.5707, 17495.58
862.0529, 17460.32
862.5350, 17430.40
863.0171, 17410.46
863.4992, 17406.01
863.9813, 17418.04
864.4634, 17417.41
864.9456, 17401.89
865.4276, 17394.34
865.9097, 17427.51
866.3918, 17472.94
866.8740, 17476.46
867.3561, 17440.24
867.8382, 17408.41
868.3203, 17393.73
868.8024, 17397.00
869.2845, 17431.30
869.7667, 17493.82
870.2488, 17520.48
870.7309, 17500.59
871.2130, 17478.98
871.6951, 17476.66
872.1772, 17489.08
872.6594, 17507.74
873.1415, 17530.48
873.6236, 17544.73
874.1057, 17547.20
874.5878, 17534.14
875.0699, 17479.56
875.5521, 17397.65
876.0342, 17379.33
876.5163, 17468.93
876.9984, 17554.33
877.4805, 17611.43
877.9626, 17639.80
878.4448, 17621.49
878.9269, 17563.25
879.4090, 17528.40
879.8911, 17558.88
880.3732, 17608.65
880.8553, 17641.54
881.3375, 17658.98
881.8196, 17663.71
882.3017, 17635.31
882.7838, 17621.70
883.2659, 17635.67
883.7480, 17665.13
884.2302, 17686.08
884.7123, 17697.85
885.1944, 17713.71
885.6765, 17737.63
886.1586, 17764.96
886.6407, 17797.75
887.1229, 17828.18
887.6050, 17841.90
888.0871, 17823.58
888.5692, 17806.64
889.0513, 17794.19
889.5334, 17792.55
890.0156, 17811.08
890.4977, 17855.93
890.9798, 17893.44
891.4619, 17920.15
891.9440, 17938.98
892.4261, 17956.22
892.9083, 17966.60
893.3904, 17953.77
893.8725, 17908.16
894.3546, 17877.26
894.8367, 17892.52
895.3188, 17927.46
895.8010, 17965.87
896.2831, 18015.76
896.7652, 18032.08
897.2473, 18008.95
897.7294, 17971.28
898.2115, 17927.63
898.6937, 17886.42
899.1758, 17879.33
899.6579, 17906.26
900.1400, 17930.49
900.6221, 17925.46
901.1042, 17911.63
901.5864, 17898.35
902.0685, 17886.61
902.5506, 17890.92
903.0327, 17923.65
903.5148, 17944.07
903.9969, 17923.20
904.4791, 17878.64
904.9612, 17888.61
905.4433, 17944.19
905.9254, 17987.15
906.4075, 17972.57
906.8896, 17944.94
907.3718, 17937.89
907.8539, 17945.11
908.3360, 17941.22
908.8181, 17903.12
909.3002, 17889.33
909.7823, 17921.10
910.2645, 17973.88
910.7466, 17992.28
911.2287, 17979.46
911.7108, 17962.29
912.1929, 17948.45
912.6750, 17933.82
913.1572, 17905.89
913.6393, 17877.58
914.1214, 17867.66
914.6035, 17910.13
915.0856, 17927.91
915.5677, 17902.55
916.0499, 17870.01
916.5320, 17879.02
917.0141, 17926.25
917.4962, 17946.83
917.9783, 17930.42
918.4604, 17913.23
918.9426, 17935.35
919.4247, 17970.88
919.9068, 17988.57
920.3889, 17976.76
920.8710, 17981.86
921.3531, 18020.18
921.8353, 18063.22
922.3174, 18094.01
922.7995, 18112.26
923.2816, 18137.96
923.7637, 18170.49
924.2458, 18194.71
924.7280, 18193.21
925.2101, 18182.43
925.6922, 18180.18
926.1743, 18185.50
926.6564, 18186.94
927.1385, 18189.72
927.6207, 18176.88
928.1028, 18133.40
928.5849, 18075.21
929.0670, 18063.27
929.5491, 18096.71
930.0313, 18120.54
930.5134, 18103.13
930.9955, 18083.79
931.4776, 18119.75
931.9597, 18182.26
932.4418, 18218.74
932.9240, 18179.74
933.4061, 18159.51
933.8882, 18180.11
934.3703, 18213.43
934.8524, 18218.77
935.3345, 18196.76
935.8167, 18190.40
936.2988, 18208.41
936.7809, 18225.01
937.2630, 18200.35
937.7451, 18167.11
938.2272, 18170.72
938.7094, 18232.98
939.1915, 18267.46
939.6736, 18243.25
940.1557, 18210.51
940.6378, 18198.62
941.1199, 18206.65
941.6021, 18203.18
942.0842, 18188.28
942.5663, 18175.00
943.0484, 18173.83
943.5305, 18177.63
944.0126, 18176.61
944.4948, 18173.07
944.9769, 18181.08
945.4590, 18227.92
945.9411, 18254.67
946.4232, 18239.26
946.9053, 18200.70
947.3875, 18195.97
947.8695, 18221.99
948.3516, 18244.29
948.8337, 18248.93
949.3159, 18249.24
949.7980, 18257.34
950.2801, 18269.42
950.7622, 18279.87
951.2443, 18281.41
951.7264, 18290.19
952.2086, 18310.81
952.6907, 18332.21
953.1728, 18341.62
953.6549, 18340.37
954.1370, 18337.61
954.6191, 18334.04
955.1013, 18333.24
955.5834, 18348.51
956.0655, 18360.68
956.5476, 18344.57
957.0297, 18292.22
957.5118, 18280.24
957.9940, 18332.45
958.4761, 18382.59
958.9582, 18395.51
959.4403, 18382.37
959.9224, 18383.00
960.4045, 18396.11
960.8867, 18414.09
961.3688, 18443.83
961.8509, 18466.17
962.3330, 18460.46
962.8151, 18438.98
963.2972, 18435.52
963.7794, 18460.81
964.2615, 18480.94
964.7436, 18490.05
965.2257, 18494.17
965.7078, 18507.19
966.1899, 18522.54
966.6721, 18518.79
967.1542, 18486.68
967.6363, 18456.28
968.1184, 18425.47
968.6005, 18417.40
969.0826, 18462.41
969.5648, 18580.01
970.0469, 18629.19
970.5290, 18594.44
971.0111, 18561.21
971.4932, 18613.01
971.9753, 18700.88
972.4575, 18720.35
972.9396, 18681.61
973.4217, 18653.98
973.9038, 18675.23
974.3859, 18707.72
974.8680, 18742.90
975.3502, 18776.69
975.8323, 18795.73
976.3144, 18798.24
976.7965, 18804.22
977.2786, 18821.60
977.7607, 18838.30
978.2429, 18825.37
978.7250, 18804.90
979.2071, 18816.03
979.6892, 18900.61
980.1713, 18952.21
980.6534, 18934.07
981.1356, 18900.43
981.6177, 18895.63
982.0998, 18919.62
982.5819, 18937.68
983.0640, 18949.04
983.5461, 18961.48
984.0283, 18976.08
984.5104, 18998.63
984.9925, 19034.56
985.4746, 19083.93
985.9567, 19144.59
986.4388, 19231.52
986.9210, 19300.96
987.4031, 19337.19
987.8852, 19349.99
988.3673, 19354.54
988.8494, 19355.25
989.3315, 19371.74
989.8137, 19414.14
990.2958, 19468.67
990.7779, 19524.90
991.2600, 19588.75
991.7421, 19671.18
992.2242, 19788.67
992.7064, 19870.08
993.1885, 19901.36
993.6706, 19939.27
994.1527, 20059.86
994.6348, 20219.24
995.1169, 20323.48
995.5991, 20369.82
996.0812, 20426.31
996.5633, 20546.62
997.0454, 20661.06
997.5275, 20731.63
998.0096, 20769.24
998.4918, 20823.64
998.9739, 20894.57
999.4560, 20996.13
999.9381, 21148.39
1000.420, 21308.87
1000.902, 21426.45
1001.384, 21513.24
1001.867, 21584.65
1002.349, 21605.40
1002.831, 21682.36
1003.313, 21855.86
1003.795, 22040.41
1004.277, 22152.92
1004.759, 22200.07
1005.241, 22216.72
1005.724, 22205.65
1006.206, 22217.50
1006.688, 22322.34
1007.170, 22436.41
1007.652, 22493.93
1008.134, 22494.74
1008.616, 22505.87
1009.098, 22539.76
1009.580, 22548.66
1010.063, 22508.35
1010.545, 22447.39
1011.027, 22426.02
1011.509, 22428.00
1011.991, 22412.12
1012.473, 22359.16
1012.955, 22295.89
1013.437, 22245.85
1013.919, 22179.97
1014.402, 22065.94
1014.884, 21893.35
1015.366, 21749.96
1015.848, 21639.51
1016.330, 21535.97
1016.812, 21392.69
1017.294, 21264.68
1017.776, 21246.68
1018.259, 21322.03
1018.741, 21313.30
1019.223, 21112.57
1019.705, 20931.73
1020.187, 20815.50
1020.669, 20754.29
1021.151, 20748.03
1021.633, 20780.32
1022.115, 20774.44
1022.598, 20693.70
1023.080, 20609.61
1023.562, 20552.36
1024.044, 20524.64
1024.526, 20537.46
1025.008, 20606.72
1025.490, 20632.71
1025.972, 20608.66
1026.454, 20575.24
1026.937, 20563.74
1027.419, 20561.57
1027.901, 20537.66
1028.383, 20500.72
1028.865, 20492.77
1029.347, 20565.25
1029.829, 20624.48
1030.311, 20640.30
1030.794, 20636.80
1031.276, 20663.79
1031.758, 20718.97
1032.240, 20768.90
1032.722, 20806.43
1033.204, 20839.73
1033.686, 20854.15
1034.168, 20880.84
1034.651, 20960.26
1035.133, 21112.31
1035.615, 21217.66
1036.097, 21262.55
1036.579, 21302.05
1037.061, 21370.57
1037.543, 21451.95
1038.025, 21517.12
1038.507, 21565.68
1038.990, 21598.18
1039.472, 21584.84
1039.954, 21594.58
1040.436, 21670.14
1040.918, 21761.56
1041.400, 21798.28
1041.882, 21780.68
1042.364, 21778.90
1042.846, 21801.47
1043.329, 21828.12
1043.811, 21849.24
1044.293, 21860.39
1044.775, 21851.65
1045.257, 21821.92
1045.739, 21807.69
1046.221, 21811.80
1046.703, 21826.34
1047.186, 21849.81
1047.668, 21879.80
1048.150, 21913.36
1048.632, 21948.97
1049.114, 21982.72
1049.596, 22011.51
1050.078, 22041.84
1050.560, 22072.43
1051.042, 22107.95
1051.525, 22155.83
1052.007, 22217.37
1052.489, 22256.81
1052.971, 22272.90
1053.453, 22294.39
1053.935, 22339.15
1054.417, 22400.32
1054.899, 22483.59
1055.381, 22580.07
1055.864, 22649.21
1056.346, 22670.74
1056.828, 22712.04
1057.310, 22795.08
1057.792, 22883.79
1058.274, 22921.80
1058.756, 22925.71
1059.238, 22929.62
1059.721, 22940.31
1060.203, 22953.71
1060.685, 22981.30
1061.167, 22998.96
1061.649, 22994.51
1062.131, 22969.13
1062.613, 22936.28
1063.095, 22894.79
1063.578, 22828.98
1064.060, 22723.47
1064.542, 22598.67
1065.024, 22474.16
1065.506, 22342.45
1065.988, 22187.56
1066.470, 21992.59
1066.952, 21826.33
1067.434, 21695.65
1067.917, 21579.07
1068.399, 21452.59
1068.881, 21328.06
1069.363, 21239.28
1069.845, 21180.92
1070.327, 21092.10
1070.809, 20907.35
1071.291, 20740.93
1071.773, 20620.30
1072.255, 20540.51
1072.738, 20513.42
1073.220, 20525.91
1073.702, 20502.48
1074.184, 20415.09
1074.666, 20328.10
1075.148, 20285.46
1075.630, 20263.06
1076.112, 20243.97
1076.595, 20229.49
1077.077, 20195.65
1077.559, 20141.32
1078.041, 20082.22
1078.523, 20017.83
1079.005, 19961.44
1079.487, 19936.60
1079.969, 19932.21
1080.452, 19923.80
1080.934, 19889.50
1081.416, 19875.84
1081.898, 19892.53
1082.380, 19914.80
1082.862, 19905.37
1083.344, 19880.75
1083.826, 19910.02
1084.308, 19990.99
1084.791, 20031.86
1085.273, 19916.52
1085.755, 19827.44
1086.237, 19861.86
1086.719, 19969.56
1087.201, 20009.42
1087.683, 19983.34
1088.165, 19945.74
1088.647, 19904.93
1089.130, 19875.91
1089.612, 19879.29
1090.094, 19897.07
1090.576, 19913.25
1091.058, 19926.67
1091.540, 19932.19
1092.022, 19924.97
1092.504, 19931.32
1092.987, 19978.48
1093.469, 20033.21
1093.951, 20035.54
1094.433, 20001.90
1094.915, 19970.07
1095.397, 19941.12
1095.879, 19932.03
1096.361, 19954.01
1096.844, 19978.76
1097.326, 19972.52
1097.808, 19945.67
1098.290, 19942.66
1098.772, 19963.47
1099.254, 19989.13
1099.736, 20012.25
1100.218, 20034.74
1100.700, 20065.02
1101.182, 20092.37
1101.665, 20081.18
1102.147, 20031.80
1102.629, 20025.30
1103.111, 20081.16
1103.593, 20149.48
1104.075, 20203.51
1104.557, 20235.15
1105.039, 20222.03
1105.522, 20160.33
1106.004, 20156.45
1106.486, 20228.70
1106.968, 20272.34
1107.450, 20233.28
1107.932, 20165.23
1108.414, 20146.31
1108.896, 20157.94
1109.379, 20167.88
1109.861, 20162.64
1110.343, 20170.37
1110.825, 20197.56
1111.307, 20229.64
1111.789, 20260.76
1112.271, 20287.99
1112.753, 20292.79
1113.235, 20280.93
1113.718, 20278.52
1114.200, 20315.38
1114.682, 20340.48
1115.164, 20327.54
1115.646, 20303.63
1116.128, 20310.86
1116.610, 20345.00
1117.092, 20336.07
1117.574, 20277.52
1118.057, 20235.81
1118.539, 20285.03
1119.021, 20343.68
1119.503, 20356.30
1119.985, 20332.03
1120.467, 20308.10
1120.949, 20281.58
1121.431, 20292.89
1121.914, 20361.89
1122.396, 20432.63
1122.878, 20442.20
1123.360, 20421.15
1123.842, 20400.11
1124.324, 20382.55
1124.806, 20371.97
1125.288, 20365.26
1125.771, 20375.30
1126.253, 20415.55
1126.735, 20465.17
1127.217, 20486.94
1127.699, 20489.21
1128.181, 20489.37
1128.663, 20491.20
1129.145, 20491.92
1129.627, 20494.38
1130.109, 20489.32
1130.592, 20459.80
1131.074, 20417.52
1131.556, 20413.21
1132.038, 20440.70
1132.520, 20470.29
1133.002, 20506.78
1133.484, 20519.13
1133.966, 20487.39
1134.449, 20438.87
1134.931, 20403.39
1135.413, 20381.40
1135.895, 20376.85
1136.377, 20389.91
1136.859, 20398.60
1137.341, 20372.54
1137.823, 20351.89
1138.306, 20373.78
1138.788, 20417.26
1139.270, 20420.14
1139.752, 20378.88
1140.234, 20358.97
1140.716, 20375.91
1141.198, 20400.03
1141.680, 20421.63
1142.162, 20424.22
1142.645, 20380.47
1143.127, 20289.63
1143.609, 20234.00
1144.091, 20221.19
1144.573, 20209.76
1145.055, 20183.47
1145.537, 20156.70
1146.019, 20134.85
1146.501, 20131.24
1146.984, 20172.61
1147.466, 20298.43
1147.948, 20360.67
1148.430, 20342.31
1148.912, 20301.03
1149.394, 20256.48
1149.876, 20220.71
1150.358, 20218.78
1150.841, 20243.83
1151.323, 20279.51
1151.805, 20341.05
1152.287, 20378.35
1152.769, 20379.83
1153.251, 20370.81
1153.733, 20381.12
1154.215, 20398.63
1154.697, 20370.63
1155.180, 20308.47
1155.662, 20278.87
1156.144, 20348.44
1156.626, 20407.95
1157.108, 20426.13
1157.590, 20426.76
1158.072, 20446.19
1158.554, 20477.68
1159.036, 20482.63
1159.519, 20457.81
1160.001, 20433.37
1160.483, 20426.36
1160.965, 20424.52
1161.447, 20424.47
1161.929, 20423.63
1162.411, 20416.19
1162.893, 20402.53
1163.375, 20382.08
1163.858, 20352.67
1164.340, 20334.22
1164.822, 20363.13
1165.304, 20388.62
1165.786, 20364.98
1166.268, 20304.71
1166.750, 20284.89
1167.232, 20305.73
1167.715, 20325.38
1168.197, 20326.87
1168.679, 20331.89
1169.161, 20356.05
1169.643, 20394.40
1170.125, 20451.42
1170.607, 20528.88
1171.089, 20553.16
1171.572, 20518.50
1172.054, 20492.08
1172.536, 20510.04
1173.018, 20543.79
1173.500, 20571.23
1173.982, 20592.36
1174.464, 20604.30
1174.946, 20598.68
1175.428, 20622.99
1175.911, 20685.95
1176.393, 20727.69
1176.875, 20683.53
1177.357, 20615.33
1177.839, 20600.27
1178.321, 20618.45
1178.803, 20618.48
1179.285, 20573.82
1179.767, 20562.56
1180.250, 20593.79
1180.732, 20635.74
1181.214, 20661.18
1181.696, 20678.83
1182.178, 20705.79
1182.660, 20736.33
1183.142, 20745.25
1183.624, 20719.64
1184.107, 20689.08
1184.589, 20654.15
1185.071, 20624.10
1185.553, 20611.92
1186.035, 20611.56
1186.517, 20613.47
1186.999, 20617.32
1187.481, 20628.49
1187.964, 20656.44
1188.446, 20675.67
1188.928, 20678.30
1189.410, 20677.24
1189.892, 20697.44
1190.374, 20725.75
1190.856, 20738.71
1191.338, 20732.86
1191.820, 20716.46
1192.302, 20677.21
1192.785, 20653.50
1193.267, 20661.50
1193.749, 20683.99
1194.231, 20689.25
1194.713, 20682.62
1195.195, 20673.13
1195.677, 20660.57
1196.159, 20655.88
1196.642, 20653.12
1197.124, 20674.53
1197.606, 20746.29
1198.088, 20831.80
1198.570, 20830.58
1199.052, 20773.03
1199.534, 20733.05
1200.016, 20735.18
1200.499, 20747.11
1200.981, 20771.95
1201.463, 20787.30
1201.945, 20771.54
1202.427, 20741.83
1202.909, 20765.87
1203.391, 20821.34
1203.873, 20838.95
1204.355, 20754.81
1204.838, 20706.17
1205.320, 20733.46
1205.802, 20777.51
1206.284, 20797.62
1206.766, 20800.40
1207.248, 20806.14
1207.730, 20816.86
1208.212, 20839.88
1208.694, 20905.57
1209.177, 20942.70
1209.659, 20927.92
1210.141, 20901.00
1210.623, 20895.14
1211.105, 20906.80
1211.587, 20927.73
1212.069, 20955.32
1212.551, 20978.60
1213.034, 20996.29
1213.516, 21004.05
1213.998, 21003.44
1214.480, 20991.42
1214.962, 20953.09
1215.444, 20902.16
1215.926, 20892.66
1216.408, 20920.17
1216.891, 20937.21
1217.373, 20899.93
1217.855, 20884.05
1218.337, 20915.03
1218.819, 20959.55
1219.301, 20971.25
1219.783, 20961.29
1220.265, 20960.13
1220.747, 20969.77
1221.229, 20983.62
1221.712, 21015.63
1222.194, 21025.26
1222.676, 20992.65
1223.158, 20949.46
1223.640, 20948.82
1224.122, 20974.42
1224.604, 20985.60
1225.086, 20977.99
1225.569, 20962.42
1226.051, 20910.65
1226.533, 20900.64
1227.015, 20967.46
1227.497, 21057.46
1227.979, 21073.98
1228.461, 21044.40
1228.943, 21033.09
1229.426, 21050.06
1229.908, 21056.27
1230.390, 21020.48
1230.872, 21006.35
1231.354, 21037.66
1231.836, 21089.66
1232.318, 21126.88
1232.800, 21147.59
1233.282, 21137.50
1233.765, 21088.65
1234.247, 21077.88
1234.729, 21143.24
1235.211, 21199.72
1235.693, 21218.84
1236.175, 21215.26
1236.657, 21217.84
1237.139, 21216.85
1237.621, 21189.40
1238.104, 21123.85
1238.586, 21081.81
1239.068, 21072.92
1239.550, 21078.63
1240.032, 21094.98
1240.514, 21118.49
1240.996, 21152.41
1241.478, 21185.12
1241.960, 21192.66
1242.443, 21162.18
1242.925, 21147.23
1243.407, 21147.08
1243.889, 21173.40
1244.371, 21246.94
1244.853, 21322.31
1245.335, 21321.61
1245.817, 21282.91
1246.300, 21262.91
1246.782, 21274.85
1247.264, 21294.75
1247.746, 21326.42
1248.228, 21349.08
1248.710, 21352.31
1249.192, 21343.74
1249.674, 21327.11
1250.156, 21308.28
1250.639, 21298.43
1251.121, 21304.47
1251.603, 21283.70
1252.085, 21232.62
1252.567, 21193.98
1253.049, 21190.36
1253.531, 21205.76
1254.013, 21236.25
1254.495, 21268.43
1254.978, 21284.12
1255.460, 21281.60
1255.942, 21264.47
1256.424, 21231.53
1256.906, 21210.34
1257.388, 21213.72
1257.870, 21235.56
1258.352, 21305.90
1258.835, 21367.88
1259.317, 21342.93
1259.799, 21223.30
1260.281, 21207.62
1260.763, 21289.07
1261.245, 21360.38
1261.727, 21364.44
1262.209, 21345.92
1262.692, 21315.36
1263.174, 21287.07
1263.656, 21275.66
1264.138, 21280.73
1264.620, 21282.69
1265.102, 21282.85
1265.584, 21288.22
1266.066, 21286.67
1266.548, 21313.15
1267.031, 21414.56
1267.513, 21511.33
1267.995, 21521.44
1268.477, 21466.30
1268.959, 21491.27
1269.441, 21576.59
1269.923, 21642.33
1270.405, 21644.35
1270.887, 21630.38
1271.370, 21593.33
1271.852, 21568.20
1272.334, 21594.06
1272.816, 21650.66
1273.298, 21692.68
1273.780, 21714.43
1274.262, 21699.22
1274.744, 21577.68
1275.227, 21532.30
1275.709, 21599.58
1276.191, 21668.18
1276.673, 21629.98
1277.155, 21547.85
1277.637, 21524.91
1278.119, 21545.32
1278.601, 21570.29
1279.083, 21601.30
1279.566, 21612.25
1280.048, 21597.91
1280.530, 21586.81
1281.012, 21610.50
1281.494, 21638.86
1281.976, 21625.99
1282.458, 21597.61
1282.940, 21609.54
1283.422, 21676.52
1283.905, 21724.55
1284.387, 21751.96
1284.869, 21753.91
1285.351, 21698.97
1285.833, 21647.75
1286.315, 21656.58
1286.797, 21690.22
1287.279, 21695.80
1287.762, 21671.65
1288.244, 21665.96
1288.726, 21678.77
##END=



