##NAMES=Amesite
##RRUFFID=R070116
##IDEAL CHEMISTRY=Mg_2_Al(AlSiO_5_)(OH)_4_
##LOCALITY=Saranovskii Mine (Saranovskoye), Saranovskaya (Sarany; Saranje) Village, Gorozavod area, Permskaya Oblast', Urais Region, Russia
##OWNER=RRUFF
##SOURCE=Michael Scott
##DESCRIPTION=Purple thin micaceous crystals, not a standard polytype, see Wiewiora et al (Am Min 76 (1991) 647-652)
##STATUS=The identification of this mineral is confirmed by single-crystal X-ray diffraction and chemical analysis.
##URL=rruff.info/R070116
##MEASURED CHEMISTRY=(Mg_1.88_[box]_0.05_Cr_0.04_Fe^2+^_0.03_)_Σ=2_(Al_0.96_Cr_0.04_)_Σ=1_(Si_1.06_Al_0.94_)O_5_(OH)_4_ ; OH estimated by difference
104.4359, 342.0417
104.9181, 371.5125
105.4002, 395.0052
105.8823, 417.6093
106.3644, 443.2133
106.8465, 473.3275
107.3286, 507.2302
107.8108, 543.5398
108.2929, 583.6860
108.7750, 624.8229
109.2571, 664.4255
109.7392, 705.6403
110.2213, 753.6064
110.7035, 811.1459
111.1856, 874.7695
111.6677, 932.3625
112.1498, 975.4543
112.6319, 1023.158
113.1140, 1073.605
113.5962, 1131.396
114.0783, 1207.260
114.5604, 1307.361
115.0425, 1429.086
115.5246, 1559.111
116.0067, 1693.141
116.4889, 1838.363
116.9710, 2004.657
117.4531, 2187.382
117.9352, 2369.976
118.4173, 2550.379
118.8994, 2718.961
119.3816, 2858.616
119.8637, 2956.520
120.3458, 3037.994
120.8279, 3117.451
121.3100, 3195.205
121.7921, 3275.675
122.2743, 3353.261
122.7564, 3438.581
123.2385, 3549.895
123.7206, 3692.636
124.2027, 3860.701
124.6848, 4050.954
125.1670, 4265.376
125.6491, 4489.438
126.1312, 4701.318
126.6133, 4920.915
127.0954, 5175.466
127.5775, 5488.002
128.0596, 5831.773
128.5418, 6161.903
129.0239, 6476.770
129.5060, 6776.413
129.9881, 7078.041
130.4702, 7363.643
130.9523, 7605.426
131.4345, 7781.929
131.9166, 7908.918
132.3987, 8040.248
132.8808, 8192.783
133.3629, 8320.223
133.8450, 8412.954
134.3272, 8473.705
134.8093, 8510.235
135.2914, 8533.255
135.7735, 8534.703
136.2556, 8461.482
136.7377, 8257.093
137.2199, 8035.475
137.7020, 7827.840
138.1841, 7625.528
138.6662, 7406.782
139.1483, 7146.688
139.6304, 6851.657
140.1126, 6623.813
140.5947, 6471.995
141.0768, 6388.239
141.5589, 6368.943
142.0410, 6417.981
142.5231, 6546.190
143.0053, 6766.125
143.4874, 7081.176
143.9695, 7408.275
144.4516, 7775.324
144.9337, 8126.881
145.4158, 8459.218
145.8980, 8763.710
146.3801, 9024.864
146.8622, 9232.770
147.3443, 9387.439
147.8264, 9466.550
148.3085, 9460.609
148.7907, 9405.321
149.2728, 9297.127
149.7549, 9147.780
150.2370, 8987.157
150.7191, 8845.114
151.2012, 8724.922
151.6834, 8542.432
152.1655, 8283.153
152.6476, 7986.992
153.1297, 7659.643
153.6118, 7308.671
154.0939, 6952.579
154.5760, 6602.671
155.0582, 6258.455
155.5403, 5966.752
156.0224, 5728.578
156.5045, 5535.357
156.9866, 5381.363
157.4688, 5267.300
157.9509, 5201.355
158.4330, 5193.856
158.9151, 5250.852
159.3972, 5331.886
159.8793, 5463.459
160.3615, 5598.495
160.8436, 5702.391
161.3257, 5774.573
161.8078, 5838.099
162.2899, 5915.045
162.7720, 6001.996
163.2542, 6063.823
163.7363, 6102.437
164.2184, 6113.762
164.7005, 6082.859
165.1826, 6009.588
165.6647, 5935.923
166.1469, 5902.806
166.6290, 5897.488
167.1111, 5858.102
167.5932, 5753.666
168.0753, 5627.748
168.5574, 5524.007
169.0396, 5444.997
169.5217, 5364.901
170.0038, 5260.526
170.4859, 5140.768
170.9680, 5032.245
171.4501, 4939.383
171.9323, 4859.587
172.4144, 4789.172
172.8965, 4727.966
173.3786, 4678.636
173.8607, 4651.481
174.3428, 4637.167
174.8250, 4618.036
175.3071, 4580.808
175.7892, 4544.035
176.2713, 4532.695
176.7534, 4549.595
177.2355, 4574.207
177.7177, 4595.238
178.1998, 4616.783
178.6819, 4645.924
179.1640, 4688.286
179.6461, 4734.997
180.1282, 4773.149
180.6103, 4800.883
181.0925, 4829.724
181.5746, 4871.124
182.0567, 4915.411
182.5388, 4950.945
183.0209, 4972.363
183.5030, 4987.290
183.9852, 5002.676
184.4673, 5016.467
184.9494, 5040.897
185.4315, 5092.611
185.9136, 5153.803
186.3957, 5208.136
186.8779, 5250.227
187.3600, 5286.551
187.8421, 5325.197
188.3242, 5366.783
188.8063, 5408.445
189.2884, 5450.158
189.7706, 5491.421
190.2527, 5530.665
190.7348, 5566.758
191.2169, 5604.722
191.6990, 5651.086
192.1811, 5706.639
192.6633, 5767.430
193.1454, 5840.708
193.6275, 5914.137
194.1096, 5973.919
194.5917, 6015.835
195.0738, 6059.909
195.5560, 6138.458
196.0381, 6260.833
196.5202, 6366.464
197.0023, 6416.324
197.4844, 6459.427
197.9665, 6529.812
198.4487, 6633.443
198.9308, 6744.657
199.4129, 6830.154
199.8950, 6884.340
200.3771, 6948.882
200.8592, 7037.456
201.3414, 7134.183
201.8235, 7234.398
202.3056, 7336.031
202.7877, 7436.409
203.2698, 7531.537
203.7519, 7621.117
204.2341, 7707.923
204.7162, 7795.093
205.1983, 7876.605
205.6804, 7945.841
206.1625, 8004.146
206.6446, 8061.837
207.1267, 8129.199
207.6089, 8207.174
208.0910, 8284.105
208.5731, 8367.214
209.0552, 8442.259
209.5373, 8501.623
210.0194, 8546.783
210.5016, 8584.517
210.9837, 8625.975
211.4658, 8671.431
211.9479, 8687.400
212.4300, 8676.009
212.9121, 8627.495
213.3943, 8539.359
213.8764, 8412.573
214.3585, 8250.473
214.8406, 8050.663
215.3227, 7815.479
215.8048, 7563.552
216.2870, 7291.139
216.7691, 7004.782
217.2512, 6705.492
217.7333, 6397.269
218.2154, 6083.948
218.6975, 5761.245
219.1797, 5438.661
219.6618, 5154.158
220.1439, 4920.744
220.6260, 4711.438
221.1081, 4516.361
221.5902, 4336.141
222.0724, 4170.760
222.5545, 4020.869
223.0366, 3886.318
223.5187, 3765.856
224.0008, 3664.650
224.4829, 3569.572
224.9651, 3473.430
225.4472, 3382.551
225.9293, 3304.798
226.4114, 3243.089
226.8935, 3193.149
227.3756, 3146.618
227.8578, 3102.564
228.3399, 3065.396
228.8220, 3037.356
229.3041, 3015.353
229.7862, 2973.843
230.2683, 2999.284
230.7505, 3011.350
231.2326, 3010.760
231.7147, 2959.607
232.1968, 2973.746
232.6789, 2961.719
233.1610, 2948.620
233.6432, 2971.947
234.1253, 2928.148
234.6074, 2950.899
235.0895, 2947.084
235.5716, 2955.428
236.0537, 2937.444
236.5358, 2927.592
237.0180, 2964.314
237.5001, 2981.300
237.9822, 2981.303
238.4643, 2980.603
238.9464, 2995.875
239.4285, 3026.210
239.9107, 3044.791
240.3928, 3041.879
240.8749, 3038.003
241.3570, 3044.951
241.8391, 3059.010
242.3212, 3070.867
242.8034, 3077.143
243.2855, 3076.665
243.7676, 3062.616
244.2497, 3027.183
244.7318, 2991.525
245.2139, 2962.098
245.6961, 2939.006
246.1782, 2923.866
246.6603, 2921.831
247.1424, 2923.825
247.6245, 2909.144
248.1066, 2872.035
248.5888, 2834.992
249.0709, 2805.016
249.5530, 2780.452
250.0351, 2760.437
250.5172, 2744.884
250.9993, 2733.289
251.4815, 2723.917
251.9636, 2715.931
252.4457, 2716.442
252.9278, 2736.010
253.4099, 2760.274
253.8920, 2777.575
254.3742, 2786.223
254.8563, 2790.312
255.3384, 2790.877
255.8205, 2788.362
256.3026, 2791.285
256.7847, 2805.702
257.2668, 2821.683
257.7490, 2830.029
258.2311, 2831.042
258.7132, 2831.114
259.1953, 2834.848
259.6774, 2840.869
260.1595, 2843.556
260.6417, 2840.176
261.1238, 2837.408
261.6059, 2843.214
262.0880, 2854.727
262.5701, 2861.988
263.0522, 2861.010
263.5344, 2853.388
264.0165, 2839.179
264.4986, 2816.303
264.9807, 2796.860
265.4628, 2787.310
265.9449, 2787.653
266.4271, 2799.879
266.9092, 2836.704
267.3913, 2875.139
267.8734, 2890.429
268.3555, 2883.262
268.8376, 2873.323
269.3198, 2867.122
269.8019, 2866.476
270.2840, 2874.079
270.7661, 2895.584
271.2482, 2915.140
271.7303, 2921.206
272.2125, 2917.267
272.6946, 2914.856
273.1767, 2918.138
273.6588, 2924.399
274.1409, 2929.016
274.6230, 2931.575
275.1052, 2934.766
275.5873, 2939.463
276.0694, 2945.305
276.5515, 2952.500
277.0336, 2961.352
277.5157, 2969.128
277.9979, 2971.170
278.4800, 2966.495
278.9621, 2967.179
279.4442, 2979.320
279.9263, 2993.955
280.4084, 3004.557
280.8906, 3010.310
281.3727, 3011.470
281.8548, 3007.347
282.3369, 2998.000
282.8190, 2990.279
283.3011, 2980.814
283.7833, 2975.964
284.2654, 2977.075
284.7475, 2985.099
285.2296, 3005.155
285.7117, 3042.855
286.1938, 3089.626
286.6760, 3111.843
287.1581, 3091.333
287.6402, 3070.715
288.1223, 3057.948
288.6044, 3047.619
289.0865, 3034.645
289.5687, 3017.081
290.0508, 2992.795
290.5329, 2958.147
291.0150, 2911.822
291.4971, 2855.683
291.9792, 2779.800
292.4614, 2701.718
292.9435, 2633.323
293.4256, 2575.991
293.9077, 2525.197
294.3898, 2476.085
294.8719, 2427.823
295.3541, 2387.914
295.8362, 2361.040
296.3183, 2337.240
296.8004, 2314.215
297.2825, 2291.424
297.7646, 2267.289
298.2468, 2239.899
298.7289, 2211.722
299.2110, 2196.092
299.6931, 2204.949
300.1752, 2210.432
300.6573, 2206.156
301.1395, 2196.879
301.6216, 2186.473
302.1037, 2176.345
302.5858, 2168.711
303.0679, 2168.376
303.5500, 2178.277
304.0321, 2186.438
304.5143, 2192.368
304.9964, 2195.328
305.4785, 2192.973
305.9606, 2185.879
306.4427, 2179.070
306.9248, 2177.479
307.4070, 2180.957
307.8891, 2183.605
308.3712, 2180.433
308.8533, 2183.143
309.3354, 2201.453
309.8175, 2229.750
310.2997, 2255.071
310.7818, 2270.818
311.2639, 2279.148
311.7460, 2282.916
312.2281, 2280.309
312.7102, 2280.174
313.1924, 2291.017
313.6745, 2305.559
314.1566, 2315.066
314.6387, 2317.873
315.1208, 2315.575
315.6029, 2305.205
316.0851, 2288.565
316.5672, 2281.532
317.0493, 2294.648
317.5314, 2312.453
318.0135, 2312.198
318.4956, 2292.412
318.9778, 2274.957
319.4599, 2266.854
319.9420, 2266.722
320.4241, 2274.049
320.9062, 2289.295
321.3883, 2306.497
321.8705, 2320.200
322.3526, 2330.418
322.8347, 2340.823
323.3168, 2353.493
323.7989, 2364.809
324.2810, 2368.961
324.7632, 2368.457
325.2453, 2374.382
325.7274, 2394.769
326.2095, 2424.935
326.6916, 2444.466
327.1737, 2452.134
327.6559, 2452.474
328.1380, 2439.385
328.6201, 2421.946
329.1022, 2413.025
329.5843, 2416.421
330.0664, 2423.756
330.5486, 2421.489
331.0307, 2402.606
331.5128, 2391.995
331.9949, 2396.150
332.4770, 2402.166
332.9591, 2400.083
333.4413, 2391.909
333.9234, 2388.015
334.4055, 2397.983
334.8876, 2421.007
335.3697, 2436.944
335.8518, 2434.036
336.3340, 2437.671
336.8161, 2456.072
337.2982, 2483.038
337.7803, 2510.137
338.2624, 2533.659
338.7445, 2556.590
339.2267, 2585.188
339.7088, 2621.917
340.1909, 2657.073
340.6730, 2697.006
341.1551, 2729.115
341.6372, 2741.609
342.1194, 2735.026
342.6015, 2724.304
343.0836, 2725.477
343.5657, 2735.159
344.0478, 2728.458
344.5299, 2697.282
345.0121, 2661.611
345.4942, 2636.271
345.9763, 2616.185
346.4584, 2590.072
346.9405, 2550.086
347.4226, 2505.969
347.9048, 2469.010
348.3869, 2439.051
348.8690, 2414.363
349.3511, 2397.818
349.8332, 2383.453
350.3153, 2358.694
350.7975, 2318.384
351.2796, 2283.454
351.7617, 2263.138
352.2438, 2254.265
352.7259, 2253.747
353.2080, 2261.559
353.6902, 2270.672
354.1723, 2272.579
354.6544, 2265.442
355.1365, 2263.711
355.6186, 2273.456
356.1007, 2283.393
356.5829, 2286.335
357.0650, 2283.227
357.5471, 2278.236
358.0292, 2273.581
358.5113, 2269.619
358.9934, 2268.059
359.4755, 2267.378
359.9576, 2271.267
360.4398, 2284.508
360.9219, 2300.188
361.4040, 2308.902
361.8861, 2309.281
362.3682, 2311.079
362.8503, 2329.303
363.3325, 2370.388
363.8146, 2401.056
364.2967, 2416.476
364.7788, 2425.689
365.2609, 2427.509
365.7430, 2425.813
366.2252, 2428.663
366.7073, 2442.838
367.1894, 2463.105
367.6715, 2472.617
368.1536, 2466.312
368.6357, 2462.254
369.1179, 2470.275
369.6000, 2481.163
370.0821, 2485.881
370.5642, 2482.241
371.0463, 2478.121
371.5284, 2481.895
372.0106, 2491.827
372.4927, 2495.855
372.9748, 2486.660
373.4569, 2481.630
373.9390, 2503.519
374.4211, 2545.427
374.9033, 2578.884
375.3854, 2591.787
375.8675, 2596.164
376.3496, 2600.889
376.8317, 2606.804
377.3138, 2617.975
377.7960, 2637.845
378.2781, 2663.407
378.7602, 2684.981
379.2423, 2703.440
379.7244, 2717.864
380.2065, 2726.035
380.6887, 2731.045
381.1708, 2736.628
381.6529, 2743.550
382.1350, 2749.974
382.6171, 2752.966
383.0992, 2750.567
383.5814, 2756.733
384.0635, 2778.516
384.5456, 2800.227
385.0277, 2812.601
385.5098, 2820.885
385.9919, 2835.805
386.4741, 2863.395
386.9562, 2899.258
387.4383, 2933.362
387.9204, 2969.500
388.4025, 2994.767
388.8846, 2991.672
389.3668, 2989.331
389.8489, 3010.810
390.3310, 3056.420
390.8131, 3105.742
391.2952, 3143.738
391.7773, 3171.173
392.2595, 3190.047
392.7416, 3196.208
393.2237, 3203.040
393.7058, 3216.166
394.1879, 3235.552
394.6700, 3262.711
395.1522, 3300.421
395.6343, 3342.283
396.1164, 3385.092
396.5985, 3427.981
397.0806, 3465.426
397.5627, 3493.175
398.0449, 3519.935
398.5270, 3556.475
399.0091, 3601.161
399.4912, 3661.905
399.9733, 3740.207
400.4554, 3835.241
400.9376, 3958.039
401.4197, 4101.164
401.9018, 4228.173
402.3839, 4309.262
402.8660, 4355.746
403.3481, 4435.121
403.8303, 4588.536
404.3124, 4724.194
404.7945, 4828.328
405.2766, 4911.456
405.7587, 4982.713
406.2408, 5044.841
406.7230, 5097.935
407.2051, 5143.209
407.6872, 5181.739
408.1693, 5203.258
408.6514, 5179.804
409.1335, 5169.816
409.6157, 5195.994
410.0978, 5249.934
410.5799, 5315.954
411.0620, 5387.269
411.5441, 5466.484
412.0262, 5560.975
412.5083, 5672.084
412.9904, 5783.687
413.4726, 5899.563
413.9547, 6006.573
414.4368, 6095.541
414.9189, 6166.130
415.4010, 6218.858
415.8831, 6273.403
416.3653, 6300.857
416.8474, 6255.035
417.3295, 6133.839
417.8116, 5978.667
418.2937, 5813.498
418.7758, 5636.681
419.2580, 5443.561
419.7401, 5222.444
420.2222, 5000.824
420.7043, 4781.252
421.1864, 4567.032
421.6685, 4362.213
422.1507, 4168.354
422.6328, 3988.547
423.1149, 3826.109
423.5970, 3682.048
424.0791, 3554.901
424.5612, 3446.892
425.0434, 3353.932
425.5255, 3277.985
426.0076, 3215.622
426.4897, 3162.938
426.9718, 3119.692
427.4539, 3078.933
427.9361, 3023.578
428.4182, 2948.372
428.9003, 2892.218
429.3824, 2871.476
429.8645, 2863.858
430.3466, 2854.117
430.8288, 2842.453
431.3109, 2833.310
431.7930, 2828.867
432.2751, 2828.131
432.7572, 2828.894
433.2393, 2831.147
433.7215, 2839.803
434.2036, 2862.326
434.6857, 2889.350
435.1678, 2895.137
435.6499, 2872.008
436.1320, 2848.543
436.6142, 2828.853
437.0963, 2814.109
437.5784, 2809.596
438.0605, 2814.166
438.5426, 2816.273
439.0247, 2805.307
439.5069, 2781.358
439.9890, 2756.659
440.4711, 2723.769
440.9532, 2698.951
441.4353, 2695.486
441.9174, 2697.055
442.3996, 2682.769
442.8817, 2646.915
443.3638, 2605.142
443.8459, 2577.516
444.3280, 2564.889
444.8102, 2551.585
445.2923, 2535.319
445.7744, 2520.626
446.2565, 2510.504
446.7386, 2503.525
447.2207, 2496.412
447.7029, 2486.246
448.1850, 2478.147
448.6671, 2480.022
449.1492, 2489.736
449.6313, 2495.645
450.1134, 2494.427
450.5956, 2487.252
451.0777, 2472.281
451.5598, 2446.871
452.0419, 2434.455
452.5240, 2451.182
453.0061, 2469.674
453.4883, 2467.903
453.9704, 2450.986
454.4525, 2437.220
454.9346, 2436.758
455.4167, 2445.708
455.8988, 2453.296
456.3810, 2458.801
456.8631, 2464.162
457.3452, 2467.652
457.8273, 2472.510
458.3094, 2481.359
458.7915, 2493.709
459.2737, 2506.644
459.7558, 2516.206
460.2379, 2525.625
460.7200, 2547.134
461.2021, 2584.665
461.6842, 2619.945
462.1664, 2644.363
462.6485, 2664.063
463.1306, 2684.502
463.6127, 2705.415
464.0948, 2731.555
464.5769, 2764.506
465.0591, 2804.566
465.5412, 2854.911
466.0233, 2915.607
466.5054, 2975.827
466.9875, 3026.958
467.4696, 3071.215
467.9517, 3123.869
468.4338, 3189.528
468.9160, 3256.839
469.3981, 3319.914
469.8802, 3385.945
470.3623, 3465.080
470.8444, 3557.627
471.3265, 3653.382
471.8087, 3741.165
472.2908, 3821.507
472.7729, 3905.160
473.2550, 3994.124
473.7371, 4084.896
474.2192, 4187.700
474.7014, 4286.445
475.1835, 4361.186
475.6656, 4406.741
476.1477, 4435.967
476.6298, 4451.276
477.1119, 4458.574
477.5941, 4485.982
478.0762, 4543.907
478.5583, 4593.084
479.0404, 4600.668
479.5225, 4571.332
480.0046, 4541.098
480.4868, 4502.083
480.9689, 4471.791
481.4510, 4460.112
481.9331, 4460.782
482.4152, 4467.591
482.8973, 4477.976
483.3795, 4484.981
483.8616, 4479.284
484.3437, 4458.774
484.8258, 4444.940
485.3079, 4460.479
485.7900, 4457.314
486.2722, 4413.603
486.7543, 4348.416
487.2364, 4288.005
487.7185, 4241.184
488.2006, 4192.837
488.6827, 4124.411
489.1649, 4036.947
489.6470, 3945.216
490.1291, 3846.206
490.6112, 3752.485
491.0933, 3680.348
491.5754, 3620.538
492.0576, 3550.322
492.5397, 3459.130
493.0218, 3366.050
493.5039, 3276.768
493.9860, 3193.685
494.4681, 3127.569
494.9503, 3080.636
495.4324, 3033.069
495.9145, 2958.894
496.3966, 2851.844
496.8787, 2777.286
497.3608, 2766.653
497.8430, 2750.587
498.3251, 2704.776
498.8072, 2644.967
499.2893, 2590.369
499.7714, 2547.661
500.2535, 2514.040
500.7357, 2487.240
501.2178, 2467.182
501.6999, 2450.607
502.1820, 2438.027
502.6641, 2427.679
503.1462, 2418.930
503.6284, 2411.551
504.1105, 2405.907
504.5926, 2404.433
505.0747, 2400.086
505.5568, 2383.731
506.0389, 2362.553
506.5211, 2350.815
507.0032, 2351.511
507.4853, 2357.232
507.9674, 2360.604
508.4495, 2361.553
508.9316, 2368.750
509.4138, 2389.358
509.8959, 2407.178
510.3780, 2413.925
510.8601, 2418.681
511.3422, 2431.702
511.8243, 2455.174
512.3065, 2483.418
512.7886, 2511.975
513.2707, 2540.658
513.7528, 2565.516
514.2349, 2583.873
514.7170, 2604.848
515.1992, 2635.261
515.6813, 2670.057
516.1634, 2702.125
516.6455, 2728.821
517.1276, 2759.078
517.6097, 2795.263
518.0919, 2838.516
518.5740, 2891.296
519.0561, 2953.675
519.5382, 3021.628
520.0203, 3093.693
520.5024, 3168.486
520.9846, 3238.838
521.4667, 3299.787
521.9488, 3362.909
522.4309, 3430.531
522.9130, 3499.599
523.3951, 3566.600
523.8773, 3632.032
524.3594, 3701.244
524.8415, 3780.382
525.3236, 3864.992
525.8057, 3941.774
526.2878, 4011.143
526.7700, 4068.449
527.2521, 4107.715
527.7342, 4137.184
528.2163, 4169.719
528.6984, 4205.907
529.1805, 4232.318
529.6627, 4244.574
530.1448, 4245.305
530.6269, 4234.422
531.1090, 4213.682
531.5911, 4188.944
532.0732, 4163.333
532.5554, 4133.644
533.0375, 4091.921
533.5196, 4031.957
534.0017, 3974.382
534.4838, 3930.181
534.9659, 3877.343
535.4481, 3793.189
535.9302, 3694.291
536.4123, 3616.438
536.8944, 3579.422
537.3765, 3556.799
537.8586, 3513.929
538.3408, 3452.056
538.8229, 3385.583
539.3050, 3312.318
539.7871, 3246.692
540.2692, 3205.858
540.7513, 3186.527
541.2335, 3159.364
541.7156, 3119.807
542.1977, 3075.886
542.6798, 3029.041
543.1619, 2980.459
543.6440, 2930.425
544.1262, 2879.825
544.6083, 2833.403
545.0904, 2795.485
545.5725, 2766.014
546.0546, 2749.181
546.5367, 2754.704
547.0189, 2756.981
547.5010, 2754.055
547.9831, 2741.803
548.4652, 2711.661
548.9473, 2662.634
549.4294, 2615.665
549.9115, 2581.603
550.3936, 2558.812
550.8757, 2549.342
551.3578, 2552.079
551.8400, 2550.215
552.3221, 2536.032
552.8042, 2510.385
553.2863, 2473.469
553.7684, 2411.549
554.2505, 2365.689
554.7327, 2352.381
555.2148, 2340.300
555.6969, 2308.176
556.1790, 2262.067
556.6611, 2218.493
557.1432, 2185.604
557.6254, 2160.682
558.1075, 2140.629
558.5896, 2125.665
559.0717, 2110.090
559.5538, 2094.454
560.0359, 2076.048
560.5181, 2050.533
561.0002, 2020.485
561.4823, 1992.531
561.9644, 1965.681
562.4465, 1943.893
562.9286, 1932.218
563.4108, 1925.817
563.8929, 1917.853
564.3750, 1906.938
564.8571, 1895.076
565.3392, 1884.271
565.8214, 1874.299
566.3035, 1862.240
566.7856, 1846.013
567.2677, 1831.193
567.7498, 1818.433
568.2319, 1807.548
568.7141, 1801.148
569.1962, 1797.899
569.6783, 1788.736
570.1604, 1758.331
570.6425, 1724.109
571.1246, 1716.870
571.6068, 1733.508
572.0889, 1745.915
572.5710, 1743.504
573.0531, 1732.539
573.5352, 1721.262
574.0173, 1708.855
574.4995, 1699.948
574.9816, 1696.163
575.4637, 1693.969
575.9458, 1694.077
576.4279, 1694.063
576.9100, 1689.468
577.3922, 1679.110
577.8743, 1668.727
578.3564, 1665.795
578.8385, 1669.429
579.3206, 1671.354
579.8027, 1670.897
580.2849, 1670.401
580.7670, 1674.451
581.2491, 1677.451
581.7312, 1666.207
582.2133, 1632.080
582.6954, 1611.098
583.1776, 1628.524
583.6597, 1652.102
584.1418, 1650.499
584.6239, 1627.376
585.1060, 1602.863
585.5881, 1587.699
586.0703, 1580.465
586.5524, 1579.881
587.0345, 1588.909
587.5166, 1592.456
587.9987, 1583.946
588.4808, 1576.335
588.9630, 1577.796
589.4451, 1584.681
589.9272, 1589.440
590.4093, 1589.836
590.8914, 1588.523
591.3735, 1589.616
591.8557, 1589.519
592.3378, 1578.367
592.8199, 1555.931
593.3020, 1537.510
593.7841, 1535.740
594.2662, 1546.354
594.7484, 1548.769
595.2305, 1538.701
595.7126, 1527.246
596.1947, 1511.216
596.6768, 1497.561
597.1589, 1492.204
597.6411, 1493.340
598.1232, 1493.814
598.6053, 1488.139
599.0874, 1483.594
599.5695, 1495.102
600.0516, 1517.480
600.5338, 1522.293
601.0159, 1500.430
601.4980, 1477.590
601.9801, 1479.276
602.4622, 1504.242
602.9443, 1518.754
603.4265, 1518.938
603.9086, 1514.932
604.3907, 1501.351
604.8728, 1489.116
605.3549, 1491.215
605.8370, 1505.917
606.3192, 1518.192
606.8013, 1515.743
607.2834, 1505.682
607.7655, 1503.502
608.2476, 1509.268
608.7297, 1517.299
609.2119, 1527.280
609.6940, 1536.616
610.1761, 1542.469
610.6582, 1544.753
611.1403, 1545.511
611.6224, 1538.910
612.1046, 1537.646
612.5867, 1550.045
613.0688, 1568.535
613.5509, 1584.917
614.0330, 1597.254
614.5151, 1606.711
614.9973, 1613.508
615.4794, 1618.683
615.9615, 1628.267
616.4436, 1644.577
616.9257, 1652.269
617.4078, 1640.437
617.8900, 1625.003
618.3721, 1623.250
618.8542, 1634.394
619.3363, 1651.275
619.8184, 1685.463
620.3005, 1711.717
620.7827, 1709.234
621.2648, 1692.516
621.7469, 1685.950
622.2290, 1694.524
622.7111, 1702.092
623.1932, 1689.985
623.6754, 1662.229
624.1575, 1651.421
624.6396, 1666.692
625.1217, 1671.118
625.6038, 1644.782
626.0859, 1610.011
626.5681, 1589.828
627.0502, 1583.629
627.5323, 1577.815
628.0144, 1566.858
628.4965, 1556.958
628.9786, 1552.975
629.4608, 1552.798
629.9429, 1553.120
630.4250, 1552.761
630.9071, 1550.745
631.3892, 1545.821
631.8713, 1538.234
632.3535, 1530.278
632.8356, 1521.328
633.3177, 1513.576
633.7998, 1507.930
634.2819, 1503.606
634.7640, 1498.348
635.2462, 1492.604
635.7283, 1493.047
636.2104, 1507.061
636.6925, 1522.949
637.1746, 1536.481
637.6567, 1544.597
638.1389, 1537.697
638.6210, 1514.641
639.1031, 1492.990
639.5852, 1492.977
640.0673, 1512.083
640.5494, 1516.335
641.0316, 1494.897
641.5137, 1483.040
641.9958, 1499.166
642.4779, 1521.621
642.9600, 1534.125
643.4421, 1536.521
643.9243, 1534.118
644.4064, 1519.554
644.8885, 1509.634
645.3706, 1525.666
645.8527, 1552.739
646.3348, 1557.923
646.8170, 1535.417
647.2991, 1513.459
647.7812, 1521.474
648.2633, 1554.082
648.7454, 1568.883
649.2275, 1558.116
649.7097, 1549.309
650.1918, 1552.070
650.6739, 1555.942
651.1560, 1550.299
651.6381, 1537.523
652.1202, 1531.233
652.6024, 1541.342
653.0845, 1552.873
653.5666, 1557.231
654.0487, 1556.676
654.5308, 1552.356
655.0129, 1545.824
655.4951, 1544.289
655.9772, 1554.858
656.4593, 1573.849
656.9414, 1584.616
657.4235, 1583.205
657.9056, 1587.483
658.3878, 1608.047
658.8699, 1626.833
659.3519, 1626.121
659.8340, 1612.199
660.3162, 1607.110
660.7983, 1621.471
661.2804, 1636.552
661.7625, 1639.415
662.2446, 1639.974
662.7267, 1653.776
663.2089, 1679.519
663.6910, 1701.062
664.1731, 1706.546
664.6552, 1703.402
665.1373, 1711.742
665.6194, 1734.287
666.1016, 1748.961
666.5837, 1746.942
667.0658, 1746.667
667.5479, 1762.003
668.0300, 1788.455
668.5121, 1816.403
668.9943, 1847.728
669.4764, 1875.192
669.9585, 1894.664
670.4406, 1910.703
670.9227, 1922.643
671.4048, 1934.850
671.8870, 1958.245
672.3691, 1998.378
672.8512, 2048.403
673.3333, 2100.455
673.8154, 2154.082
674.2975, 2195.338
674.7797, 2220.102
675.2618, 2242.147
675.7439, 2265.225
676.2260, 2292.258
676.7081, 2331.996
677.1902, 2390.195
677.6724, 2440.069
678.1545, 2473.858
678.6366, 2502.410
679.1187, 2523.975
679.6008, 2547.523
680.0829, 2591.241
680.5651, 2659.869
681.0472, 2729.565
681.5293, 2778.194
682.0114, 2807.889
682.4935, 2821.147
682.9756, 2816.933
683.4578, 2822.139
683.9399, 2851.739
684.4220, 2885.797
684.9041, 2896.040
685.3862, 2878.943
685.8683, 2859.265
686.3505, 2835.684
686.8326, 2811.499
687.3147, 2784.192
687.7968, 2758.759
688.2789, 2740.661
688.7610, 2730.142
689.2432, 2722.925
689.7253, 2715.749
690.2074, 2710.793
690.6895, 2712.799
691.1716, 2720.064
691.6537, 2722.440
692.1359, 2716.845
692.6180, 2720.221
693.1001, 2749.843
693.5822, 2802.141
694.0643, 2849.579
694.5464, 2881.269
695.0286, 2927.303
695.5107, 3005.455
695.9928, 3084.413
696.4749, 3142.108
696.9570, 3185.428
697.4391, 3235.842
697.9213, 3300.002
698.4034, 3372.333
698.8855, 3449.986
699.3676, 3532.857
699.8497, 3628.884
700.3318, 3732.989
700.8140, 3819.827
701.2961, 3874.093
701.7782, 3908.623
702.2603, 3951.227
702.7424, 4005.782
703.2245, 4044.035
703.7067, 4064.070
704.1888, 4069.990
704.6709, 4062.794
705.1530, 4042.627
705.6351, 4011.900
706.1172, 3972.740
706.5994, 3911.966
707.0815, 3817.246
707.5636, 3709.146
708.0457, 3590.972
708.5278, 3472.836
709.0099, 3372.819
709.4921, 3294.240
709.9742, 3215.721
710.4563, 3110.889
710.9384, 2991.282
711.4205, 2896.716
711.9026, 2827.933
712.3848, 2751.198
712.8669, 2653.152
713.3490, 2552.088
713.8311, 2466.535
714.3132, 2396.296
714.7953, 2327.233
715.2775, 2245.956
715.7596, 2183.833
716.2417, 2160.966
716.7238, 2145.516
717.2059, 2113.178
717.6880, 2065.927
718.1702, 2017.840
718.6523, 1973.799
719.1344, 1934.142
719.6165, 1896.428
720.0986, 1863.968
720.5807, 1847.629
721.0629, 1846.321
721.5450, 1842.539
722.0271, 1826.286
722.5092, 1800.252
722.9913, 1767.423
723.4734, 1722.325
723.9556, 1695.871
724.4377, 1703.761
724.9198, 1705.886
725.4019, 1674.617
725.8840, 1632.468
726.3661, 1607.769
726.8483, 1603.906
727.3304, 1600.208
727.8125, 1590.130
728.2946, 1579.355
728.7767, 1571.965
729.2589, 1566.139
729.7410, 1558.679
730.2231, 1548.947
730.7052, 1538.277
731.1873, 1526.529
731.6694, 1515.897
732.1516, 1513.983
732.6337, 1520.453
733.1158, 1523.218
733.5979, 1519.623
734.0800, 1511.278
734.5621, 1498.530
735.0443, 1482.271
735.5264, 1468.311
736.0085, 1450.957
736.4906, 1444.919
736.9727, 1465.088
737.4548, 1482.378
737.9370, 1474.359
738.4191, 1452.475
738.9012, 1441.641
739.3833, 1450.768
739.8654, 1461.586
740.3475, 1463.163
740.8297, 1458.575
741.3118, 1448.839
741.7939, 1436.344
742.2760, 1430.109
742.7581, 1433.407
743.2402, 1435.266
743.7224, 1406.263
744.2045, 1419.787
744.6866, 1426.178
745.1687, 1425.819
745.6508, 1398.494
746.1329, 1405.990
746.6151, 1399.531
747.0972, 1392.500
747.5793, 1404.897
748.0614, 1381.494
748.5435, 1393.583
749.0256, 1391.504
749.5078, 1395.909
749.9899, 1386.273
750.4720, 1380.975
750.9541, 1389.721
751.4362, 1390.691
751.9183, 1379.439
752.4005, 1384.256
752.8826, 1360.362
753.3647, 1361.663
753.8468, 1373.835
754.3289, 1363.289
754.8110, 1368.363
755.2932, 1367.488
755.7753, 1339.577
756.2574, 1358.685
756.7395, 1349.722
757.2216, 1360.815
757.7037, 1366.813
758.1859, 1367.989
758.6680, 1349.904
759.1501, 1356.692
759.6322, 1353.511
760.1143, 1349.922
760.5964, 1360.210
761.0786, 1344.927
761.5607, 1354.995
762.0428, 1354.943
762.5249, 1359.523
763.0070, 1354.073
763.4891, 1351.722
763.9713, 1359.402
764.4534, 1361.528
764.9355, 1360.796
765.4176, 1340.404
765.8997, 1350.773
766.3818, 1357.179
766.8640, 1359.836
767.3461, 1347.511
767.8282, 1354.531
768.3103, 1353.798
768.7924, 1352.747
769.2745, 1362.490
769.7566, 1352.344
770.2387, 1361.916
770.7208, 1363.616
771.2029, 1368.919
771.6851, 1366.422
772.1672, 1366.334
772.6493, 1374.049
773.1314, 1377.443
773.6135, 1374.047
774.0956, 1391.447
774.5778, 1396.597
775.0599, 1399.556
775.5420, 1405.946
776.0241, 1414.132
776.5062, 1416.231
776.9883, 1407.153
777.4705, 1398.692
777.9526, 1408.875
778.4347, 1429.808
778.9168, 1437.802
779.3989, 1432.697
779.8810, 1431.365
780.3632, 1441.509
780.8453, 1456.729
781.3274, 1468.286
781.8095, 1476.195
782.2916, 1480.608
782.7737, 1480.071
783.2559, 1479.208
783.7380, 1478.635
784.2201, 1478.679
784.7022, 1481.444
785.1843, 1485.619
785.6664, 1484.218
786.1486, 1467.846
786.6307, 1458.168
787.1128, 1468.391
787.5949, 1481.063
788.0770, 1478.490
788.5591, 1467.560
789.0413, 1469.179
789.5234, 1491.977
790.0055, 1510.853
790.4876, 1496.271
790.9697, 1466.083
791.4518, 1450.155
791.9340, 1447.781
792.4161, 1451.651
792.8982, 1459.245
793.3803, 1466.805
793.8624, 1470.291
794.3445, 1470.269
794.8267, 1470.126
795.3088, 1470.122
795.7909, 1468.324
796.2730, 1462.363
796.7551, 1458.395
797.2372, 1462.168
797.7194, 1471.413
798.2015, 1478.019
798.6836, 1481.769
799.1657, 1483.638
799.6478, 1480.853
800.1299, 1479.227
800.6121, 1484.774
801.0942, 1491.712
801.5763, 1488.486
802.0584, 1474.094
802.5405, 1468.307
803.0226, 1490.084
803.5048, 1518.071
803.9869, 1533.224
804.4690, 1540.154
804.9511, 1546.743
805.4332, 1554.865
805.9153, 1565.284
806.3975, 1579.508
806.8796, 1592.165
807.3617, 1587.717
807.8438, 1568.711
808.3259, 1569.115
808.8080, 1594.482
809.2902, 1613.166
809.7723, 1607.197
810.2544, 1590.830
810.7365, 1588.490
811.2186, 1603.365
811.7007, 1607.013
812.1829, 1587.125
812.6650, 1574.847
813.1471, 1586.089
813.6292, 1600.028
814.1113, 1599.823
814.5934, 1587.655
815.0756, 1575.933
815.5577, 1567.019
816.0398, 1558.850
816.5219, 1545.834
817.0040, 1537.530
817.4861, 1549.758
817.9683, 1571.331
818.4504, 1575.446
818.9325, 1553.266
819.4146, 1530.926
819.8967, 1534.596
820.3788, 1550.608
820.8610, 1556.001
821.3431, 1553.958
821.8252, 1559.363
822.3073, 1575.166
822.7894, 1586.448
823.2715, 1579.274
823.7537, 1560.661
824.2358, 1552.885
824.7179, 1557.194
825.2000, 1558.175
825.6821, 1553.519
826.1642, 1548.121
826.6464, 1545.439
827.1285, 1542.787
827.6106, 1534.143
828.0927, 1516.585
828.5748, 1505.871
829.0569, 1508.291
829.5391, 1509.531
830.0212, 1505.335
830.5033, 1499.548
830.9854, 1496.757
831.4675, 1495.805
831.9496, 1490.396
832.4318, 1478.314
832.9139, 1462.483
833.3960, 1441.357
833.8781, 1419.408
834.3602, 1398.307
834.8423, 1380.240
835.3245, 1369.499
835.8066, 1367.347
836.2887, 1368.483
836.7708, 1368.755
837.2529, 1368.773
837.7350, 1371.483
838.2172, 1374.950
838.6993, 1370.632
839.1814, 1357.171
839.6635, 1344.416
840.1456, 1340.207
840.6277, 1342.073
841.1099, 1344.422
841.5920, 1347.373
842.0741, 1349.400
842.5562, 1352.031
843.0383, 1346.008
843.5204, 1323.677
844.0026, 1295.066
844.4847, 1274.992
844.9668, 1263.967
845.4489, 1257.480
845.9310, 1259.990
846.4131, 1260.419
846.8953, 1252.116
847.3774, 1245.455
847.8595, 1252.102
848.3416, 1266.301
848.8237, 1269.452
849.3058, 1253.125
849.7880, 1239.274
850.2701, 1234.283
850.7522, 1234.220
851.2343, 1241.826
851.7164, 1250.145
852.1985, 1246.420
852.6807, 1229.660
853.1628, 1215.972
853.6449, 1218.725
854.1270, 1226.317
854.6091, 1226.455
855.0912, 1222.398
855.5734, 1221.481
856.0555, 1223.320
856.5376, 1218.858
857.0197, 1202.464
857.5018, 1187.130
857.9839, 1197.103
858.4661, 1225.951
858.9482, 1239.591
859.4303, 1237.456
859.9124, 1230.389
860.3945, 1221.465
860.8766, 1210.234
861.3588, 1194.450
861.8409, 1177.157
862.3230, 1177.089
862.8051, 1200.561
863.2872, 1219.466
863.7693, 1233.880
864.2515, 1237.589
864.7336, 1219.441
865.2157, 1193.474
865.6978, 1186.855
866.1799, 1204.968
866.6620, 1216.730
867.1442, 1220.262
867.6263, 1219.824
868.1084, 1208.682
868.5905, 1200.364
869.0726, 1210.559
869.5547, 1233.396
870.0369, 1247.670
870.5190, 1245.854
871.0011, 1241.245
871.4832, 1241.699
871.9653, 1239.229
872.4474, 1219.011
872.9296, 1194.939
873.4117, 1194.614
873.8938, 1220.912
874.3759, 1243.900
874.8580, 1240.493
875.3401, 1228.340
875.8223, 1224.465
876.3044, 1227.358
876.7865, 1238.774
877.2686, 1255.019
877.7507, 1261.682
878.2328, 1251.489
878.7149, 1231.473
879.1970, 1203.773
879.6791, 1174.352
880.1613, 1173.330
880.6434, 1198.192
881.1255, 1209.052
881.6076, 1194.785
882.0897, 1179.164
882.5718, 1182.465
883.0540, 1199.043
883.5361, 1212.317
884.0182, 1222.844
884.5003, 1225.022
884.9824, 1214.221
885.4645, 1208.745
885.9467, 1218.885
886.4288, 1234.360
886.9109, 1241.108
887.3930, 1238.916
887.8751, 1241.605
888.3572, 1257.807
888.8394, 1264.708
889.3215, 1253.380
889.8036, 1238.475
890.2857, 1224.721
890.7678, 1213.877
891.2499, 1209.758
891.7321, 1213.743
892.2142, 1218.639
892.6963, 1227.140
893.1784, 1231.460
893.6605, 1221.294
894.1426, 1210.652
894.6248, 1218.606
895.1069, 1239.955
895.5890, 1249.516
896.0711, 1234.381
896.5532, 1218.436
897.0353, 1213.810
897.5175, 1215.703
897.9996, 1224.280
898.4817, 1234.313
898.9638, 1236.979
899.4459, 1230.690
899.9280, 1220.932
900.4102, 1208.293
900.8923, 1198.993
901.3744, 1202.267
901.8565, 1213.482
902.3386, 1227.754
902.8207, 1241.582
903.3029, 1242.344
903.7850, 1224.883
904.2671, 1207.511
904.7492, 1216.665
905.2313, 1240.890
905.7134, 1244.826
906.1956, 1231.148
906.6777, 1215.125
907.1598, 1200.155
907.6419, 1195.550
908.1240, 1209.308
908.6061, 1229.983
909.0883, 1232.794
909.5704, 1217.282
910.0525, 1207.595
910.5346, 1204.908
911.0167, 1200.641
911.4988, 1191.332
911.9810, 1182.203
912.4631, 1178.471
912.9452, 1179.028
913.4273, 1178.026
913.9094, 1172.914
914.3915, 1175.146
914.8737, 1191.046
915.3558, 1202.840
915.8379, 1201.765
916.3200, 1193.597
916.8021, 1183.958
917.2842, 1172.721
917.7664, 1168.322
918.2485, 1180.757
918.7306, 1185.161
919.2127, 1171.144
919.6948, 1157.409
920.1769, 1154.103
920.6591, 1157.717
921.1412, 1162.714
921.6233, 1168.926
922.1054, 1174.272
922.5875, 1176.598
923.0696, 1180.292
923.5518, 1189.675
924.0339, 1198.634
924.5160, 1201.628
924.9981, 1199.809
925.4802, 1196.377
925.9623, 1190.874
926.4445, 1190.130
926.9266, 1202.464
927.4087, 1214.665
927.8908, 1214.895
928.3729, 1211.598
928.8550, 1219.008
929.3372, 1235.110
929.8193, 1242.735
930.3014, 1230.700
930.7835, 1219.729
931.2656, 1228.256
931.7477, 1243.565
932.2299, 1255.456
932.7120, 1261.649
933.1941, 1254.822
933.6762, 1230.179
934.1583, 1241.874
934.6404, 1249.605
935.1226, 1253.588
935.6047, 1242.588
936.0868, 1250.934
936.5689, 1251.528
937.0510, 1251.803
937.5331, 1262.871
938.0153, 1254.052
938.4974, 1264.949
938.9795, 1267.975
939.4616, 1274.604
939.9437, 1273.433
940.4258, 1274.670
940.9080, 1283.711
941.3901, 1288.431
941.8722, 1286.361
942.3543, 1293.219
942.8364, 1284.126
943.3185, 1289.030
943.8007, 1299.974
944.2828, 1298.297
944.7649, 1305.297
945.2470, 1308.993
945.7291, 1297.668
946.2112, 1312.464
946.6934, 1315.965
947.1755, 1307.866
947.6576, 1321.768
948.1397, 1315.268
948.6218, 1316.050
949.1039, 1322.312
949.5861, 1334.675
950.0682, 1332.487
950.5503, 1328.081
951.0324, 1330.748
951.5145, 1338.909
951.9966, 1349.187
952.4788, 1361.893
952.9609, 1374.534
953.4430, 1387.458
953.9251, 1399.129
954.4072, 1409.235
954.8893, 1417.398
955.3715, 1422.318
955.8536, 1425.623
956.3357, 1434.285
956.8178, 1453.119
957.2999, 1460.674
957.7820, 1449.719
958.2642, 1443.364
958.7463, 1449.859
959.2284, 1463.700
959.7105, 1481.115
960.1926, 1501.076
960.6747, 1516.685
961.1569, 1523.752
961.6390, 1535.706
962.1211, 1559.257
962.6032, 1577.781
963.0853, 1580.766
963.5674, 1579.063
964.0496, 1586.260
964.5317, 1601.413
965.0138, 1610.082
965.4959, 1593.051
965.9780, 1599.965
966.4601, 1660.553
966.9423, 1712.358
967.4244, 1721.418
967.9065, 1712.079
968.3886, 1711.818
968.8707, 1721.275
969.3528, 1740.107
969.8350, 1785.406
970.3171, 1814.621
970.7992, 1806.851
971.2813, 1799.038
971.7634, 1817.301
972.2455, 1843.958
972.7277, 1850.592
973.2098, 1835.264
973.6919, 1826.392
974.1740, 1821.806
974.6561, 1833.101
975.1382, 1878.546
975.6204, 1924.381
976.1025, 1948.852
976.5846, 1960.078
977.0667, 1973.822
977.5488, 1992.087
978.0309, 2003.273
978.5131, 1999.426
978.9952, 1995.297
979.4773, 1991.492
979.9594, 1992.786
980.4415, 2009.357
980.9236, 2030.844
981.4058, 2039.138
981.8879, 2031.219
982.3700, 2015.484
982.8521, 1993.906
983.3342, 1965.613
983.8163, 1921.873
984.2985, 1878.997
984.7806, 1853.589
985.2627, 1837.620
985.7448, 1813.397
986.2269, 1777.201
986.7090, 1742.135
987.1912, 1715.727
987.6733, 1688.008
988.1554, 1652.839
988.6375, 1615.850
989.1196, 1580.359
989.6017, 1547.566
990.0838, 1518.046
990.5659, 1491.927
991.0480, 1471.544
991.5302, 1462.238
992.0123, 1453.410
992.4944, 1439.430
992.9765, 1423.770
993.4586, 1408.937
993.9407, 1395.339
994.4229, 1382.817
994.9050, 1371.168
995.3871, 1362.333
995.8692, 1357.070
996.3513, 1354.849
996.8334, 1358.128
997.3156, 1362.002
997.7977, 1358.166
998.2798, 1351.997
998.7619, 1358.241
999.2440, 1380.951
999.7261, 1399.348
1000.208, 1403.189
1000.690, 1401.064
1001.172, 1386.699
1001.655, 1377.870
1002.137, 1400.418
1002.619, 1440.093
1003.101, 1460.484
1003.583, 1451.950
1004.065, 1448.712
1004.547, 1471.981
1005.029, 1497.261
1005.512, 1511.359
1005.994, 1521.242
1006.476, 1532.427
1006.958, 1545.463
1007.440, 1558.219
1007.922, 1570.118
1008.404, 1589.727
1008.886, 1633.104
1009.368, 1669.740
1009.851, 1674.541
1010.333, 1673.466
1010.815, 1694.494
1011.297, 1727.153
1011.779, 1745.967
1012.261, 1745.286
1012.743, 1741.327
1013.225, 1736.668
1013.708, 1735.327
1014.190, 1744.021
1014.672, 1752.427
1015.154, 1754.287
1015.636, 1748.179
1016.118, 1730.255
1016.600, 1700.306
1017.082, 1674.059
1017.564, 1664.535
1018.047, 1650.259
1018.529, 1617.255
1019.011, 1581.142
1019.493, 1552.995
1019.975, 1530.905
1020.457, 1512.087
1020.939, 1495.528
1021.421, 1473.558
1021.904, 1440.726
1022.386, 1406.538
1022.868, 1366.923
1023.350, 1334.322
1023.832, 1322.837
1024.314, 1321.329
1024.796, 1314.421
1025.278, 1300.148
1025.760, 1280.847
1026.243, 1247.910
1026.725, 1223.383
1027.207, 1218.473
1027.689, 1216.762
1028.171, 1212.540
1028.653, 1203.499
1029.135, 1182.198
1029.617, 1151.028
1030.099, 1134.714
1030.582, 1148.552
1031.064, 1158.630
1031.546, 1157.835
1032.028, 1154.262
1032.510, 1152.809
1032.992, 1149.758
1033.474, 1138.121
1033.956, 1119.826
1034.439, 1109.012
1034.921, 1112.897
1035.403, 1112.569
1035.885, 1100.284
1036.367, 1091.685
1036.849, 1096.731
1037.331, 1104.262
1037.813, 1101.348
1038.296, 1091.368
1038.778, 1090.791
1039.260, 1107.970
1039.742, 1113.932
1040.224, 1101.035
1040.706, 1088.256
1041.188, 1079.795
1041.670, 1073.799
1042.152, 1067.507
1042.635, 1062.996
1043.117, 1067.146
1043.599, 1083.396
1044.081, 1093.965
1044.563, 1099.814
1045.045, 1096.987
1045.527, 1078.519
1046.009, 1062.292
1046.491, 1062.345
1046.974, 1070.927
1047.456, 1071.303
1047.938, 1062.243
1048.420, 1062.530
1048.902, 1077.483
1049.384, 1081.876
1049.866, 1068.134
1050.348, 1053.200
1050.830, 1045.903
1051.313, 1044.454
1051.795, 1046.746
1052.277, 1052.442
1052.759, 1056.418
1053.241, 1058.124
1053.723, 1063.880
1054.205, 1075.302
1054.687, 1084.474
1055.170, 1087.611
1055.652, 1087.666
1056.134, 1087.721
1056.616, 1088.053
1057.098, 1091.177
1057.580, 1096.685
1058.062, 1094.237
1058.544, 1083.277
1059.026, 1073.874
1059.509, 1069.595
1059.991, 1068.667
1060.473, 1069.960
1060.955, 1072.097
1061.437, 1069.712
1061.919, 1065.629
1062.401, 1077.464
1062.883, 1100.869
1063.365, 1106.369
1063.848, 1088.010
1064.330, 1064.695
1064.812, 1047.997
1065.294, 1039.397
1065.776, 1045.656
1066.258, 1058.857
1066.740, 1061.976
1067.222, 1058.168
1067.705, 1059.365
1068.187, 1064.533
1068.669, 1056.426
1069.151, 1026.328
1069.633, 1000.534
1070.115, 1011.185
1070.597, 1032.739
1071.079, 1034.183
1071.562, 1026.259
1072.044, 1026.706
1072.526, 1033.528
1073.008, 1034.731
1073.490, 1026.925
1073.972, 1019.476
1074.454, 1018.553
1074.936, 1019.576
1075.418, 1019.158
1075.901, 1019.413
1076.383, 1027.533
1076.865, 1035.384
1077.347, 1024.395
1077.829, 995.3982
1078.311, 978.6378
1078.793, 995.3812
1079.275, 1004.818
1079.757, 981.7534
1080.240, 959.1539
1080.722, 959.5679
1081.204, 968.4238
1081.686, 965.7128
1082.168, 954.9645
1082.650, 957.8613
1083.132, 986.5317
1083.614, 1002.232
1084.097, 987.1311
1084.579, 976.8856
1085.061, 990.4865
1085.543, 1003.395
1086.025, 995.0703
1086.507, 974.8495
1086.989, 961.2208
1087.471, 953.6608
1087.953, 958.7993
1088.436, 987.5543
1088.918, 1002.398
1089.400, 996.2048
1089.882, 977.7685
1090.364, 943.3649
1090.846, 915.3248
1091.328, 927.9328
1091.810, 973.1219
1092.292, 990.3224
1092.775, 976.1156
1093.257, 969.5401
1093.739, 974.6735
1094.221, 971.7191
1094.703, 952.5569
1095.185, 935.6888
1095.667, 938.1359
1096.149, 950.9443
1096.632, 954.7390
1097.114, 951.1300
1097.596, 948.0438
1098.078, 945.8994
1098.560, 945.6680
1099.042, 947.5118
1099.524, 951.8581
1100.006, 959.1575
1100.489, 964.3160
1100.971, 958.4778
1101.453, 948.5179
1101.935, 949.3826
1102.417, 953.5205
1102.899, 942.6936
1103.381, 920.9502
1103.863, 906.7302
1104.345, 905.5184
1104.828, 907.8815
1105.310, 908.0220
1105.792, 908.8395
1106.274, 915.3969
1106.756, 921.1249
1107.238, 914.4525
1107.720, 905.4071
1108.202, 914.1660
1108.684, 938.2620
1109.167, 951.9252
1109.649, 944.7519
1110.131, 934.4249
1110.613, 923.7559
1111.095, 914.7866
1111.577, 906.3379
1112.059, 901.8690
1112.541, 908.2136
1113.024, 919.8852
1113.506, 922.5485
1113.988, 913.5103
1114.470, 907.5343
1114.952, 900.4264
1115.434, 905.5421
1115.916, 938.5046
1116.398, 957.6589
1116.880, 935.8961
1117.363, 901.7869
1117.845, 890.2585
1118.327, 898.1613
1118.809, 910.5458
1119.291, 929.5923
1119.773, 932.5702
1120.255, 916.9111
1120.737, 901.0509
1121.219, 890.0185
1121.702, 883.1538
1122.184, 879.6349
1122.666, 881.3610
1123.148, 895.6690
1123.630, 917.4037
1124.112, 927.9839
1124.594, 928.0005
1125.076, 914.3167
1125.559, 890.9091
1126.041, 878.7891
1126.523, 885.7900
1127.005, 895.3328
1127.487, 893.8527
1127.969, 886.7080
1128.451, 873.5900
1128.933, 863.5284
1129.416, 871.0103
1129.898, 889.6444
1130.380, 909.2112
1130.862, 925.9907
1131.344, 935.1871
1131.826, 933.4728
1132.308, 928.9866
1132.790, 923.8396
1133.272, 918.7553
1133.755, 913.5068
1134.237, 909.0291
1134.719, 906.7833
1135.201, 905.7636
1135.683, 904.8284
1136.165, 904.5976
1136.647, 896.9409
1137.129, 871.7942
1137.611, 857.8511
1138.094, 863.8481
1138.576, 869.5071
1139.058, 865.6145
1139.540, 859.0750
1140.022, 855.8237
1140.504, 856.9125
1140.986, 869.1978
1141.468, 894.3431
1141.951, 901.5134
1142.433, 889.6390
1142.915, 881.4983
1143.397, 882.0575
1143.879, 888.3547
1144.361, 899.1353
1144.843, 907.8839
1145.325, 904.3453
1145.807, 895.0373
1146.290, 897.5571
1146.772, 904.6860
1147.254, 898.4252
1147.736, 880.6895
1148.218, 858.5933
1148.700, 836.7679
1149.182, 828.5686
1149.664, 844.6802
1150.146, 865.7783
1150.629, 884.1893
1151.111, 894.5245
1151.593, 886.8452
1152.075, 872.9543
1152.557, 866.7649
1153.039, 866.0554
1153.521, 860.0173
1154.003, 845.7692
1154.485, 840.3533
1154.968, 856.5469
1155.450, 867.1503
1155.932, 860.6718
1156.414, 856.9922
1156.896, 867.5363
1157.378, 880.8448
1157.860, 885.6169
1158.342, 882.7979
1158.825, 875.4672
1159.307, 862.8427
1159.789, 850.0888
1160.271, 836.8009
1160.753, 826.7739
1161.235, 820.7581
1161.717, 820.5323
1162.199, 827.5688
1162.682, 834.3456
1163.164, 828.2917
1163.646, 819.8116
1164.128, 838.3152
1164.610, 870.7706
1165.092, 886.6243
1165.574, 886.0877
1166.056, 874.6640
1166.538, 856.5276
1167.021, 842.2618
1167.503, 837.0356
1167.985, 837.8823
1168.467, 849.1680
1168.949, 858.2736
1169.431, 849.9600
1169.913, 840.5527
1170.395, 853.2176
1170.877, 874.3969
1171.360, 871.2358
1171.842, 840.3830
1172.324, 824.4943
1172.806, 842.6686
1173.288, 852.0523
1173.770, 847.5487
1174.252, 840.2395
1174.734, 832.5497
1175.217, 825.0667
1175.699, 818.1414
1176.181, 812.0043
1176.663, 807.0327
1177.145, 803.2838
1177.627, 801.8539
1178.109, 802.6575
1178.591, 802.6746
1179.073, 801.9836
1179.556, 808.3784
1180.038, 824.0325
1180.520, 833.2617
1181.002, 821.4067
1181.484, 803.9335
1181.966, 799.7891
1182.448, 802.9341
1182.930, 808.4008
1183.412, 812.9371
1183.895, 808.8993
1184.377, 800.1594
1184.859, 800.3630
1185.341, 813.3492
1185.823, 825.8416
1186.305, 834.5131
1186.787, 839.5435
1187.269, 840.8256
1187.752, 838.6074
1188.234, 829.1848
1188.716, 819.6435
1189.198, 817.0763
1189.680, 819.8607
1190.162, 823.0745
1190.644, 826.7852
1191.126, 831.4843
1191.609, 838.7373
1192.091, 833.1310
1192.573, 810.6319
1193.055, 799.6562
1193.537, 813.3991
1194.019, 829.8834
1194.501, 827.0746
1194.983, 814.1138
1195.465, 803.1822
1195.948, 797.0027
1196.430, 808.2698
1196.912, 826.1293
1197.394, 823.0120
1197.876, 801.7888
1198.358, 789.0648
1198.840, 793.8687
1199.322, 793.3062
1199.804, 766.3100
1200.287, 744.1675
1200.769, 744.8159
1201.251, 749.7589
1201.733, 747.9164
1202.215, 743.7508
1202.697, 742.9535
1203.179, 744.6432
1203.661, 745.4050
1204.144, 744.5646
1204.626, 748.2485
1205.108, 758.7535
1205.590, 763.2230
1206.072, 759.3472
1206.554, 750.8745
1207.036, 738.5357
1207.518, 734.4086
1208.000, 752.6339
1208.483, 777.9724
1208.965, 784.7256
1209.447, 775.9562
1209.929, 746.3560
1210.411, 711.7864
1210.893, 714.4538
1211.375, 745.4271
1211.857, 756.3068
1212.339, 733.1981
1212.822, 714.4136
1213.304, 723.2809
1213.786, 733.9374
1214.268, 734.8533
1214.750, 735.9748
1215.232, 746.4169
1215.714, 756.4888
1216.196, 753.3492
1216.679, 744.1287
1217.161, 746.3506
1217.643, 760.6785
1218.125, 767.2971
1218.607, 765.5749
1219.089, 759.2694
1219.571, 748.4035
1220.053, 738.4590
1220.536, 731.3385
1221.018, 726.2510
1221.500, 722.1546
1221.982, 722.8278
1222.464, 741.7199
1222.946, 762.4547
1223.428, 750.6518
1223.910, 726.6168
1224.392, 728.2074
1224.875, 745.5873
1225.357, 744.8067
1225.839, 722.6640
1226.321, 712.1226
1226.803, 730.2672
1227.285, 744.9352
1227.767, 744.8725
1228.249, 744.6700
1228.731, 753.8274
1229.214, 757.5293
1229.696, 744.8904
1230.178, 724.4659
1230.660, 706.6809
1231.142, 692.8471
1231.624, 690.6916
1232.106, 699.8119
1232.588, 709.4270
1233.071, 719.4345
1233.553, 737.9221
1234.035, 763.4224
1234.517, 772.4966
1234.999, 753.9813
1235.481, 730.6705
1235.963, 719.9023
1236.445, 716.7393
1236.927, 721.9070
1237.410, 727.3818
1237.892, 722.5184
1238.374, 715.5253
1238.856, 720.4798
1239.338, 733.2633
1239.820, 736.8213
1240.302, 728.1423
1240.784, 716.1275
1241.266, 693.3946
1241.749, 688.4188
1242.231, 711.0809
1242.713, 724.4218
1243.195, 713.2429
1243.677, 700.0380
1244.159, 701.6178
##END=



