##NAMES=Amesite
##RRUFFID=R070132
##IDEAL CHEMISTRY=Mg_2_Al(AlSiO_5_)(OH)_4_
##LOCALITY=Saranovskii mine, Saranovskaya Village, Gornozavodskii area, Permskaya Oblast', Middle Urals, Russia
##OWNER=RRUFF
##SOURCE=Michael Scott
##DESCRIPTION=Purple transparent hexagonal prisms, polytype 2H2
##STATUS=The identification of this mineral is confirmed by single-crystal X-ray diffraction and chemical analysis.
##URL=rruff.info/R070132
##MEASURED CHEMISTRY=(Mg_1.87_[box]_0.05_Cr_0.05_Fe^2+^_0.03_)_Σ=2_(Al_0.98_Cr_0.02_)_Σ=1_(Si_1.05_Al_0.95_)O_5_(OH)_4_ ; OH estimated by difference
104.9181, 78.80228
105.4002, 87.27084
105.8823, 97.58133
106.3644, 106.3309
106.8465, 110.0459
107.3287, 108.1629
107.8108, 106.1767
108.2929, 104.4863
108.7750, 102.8001
109.2571, 100.1168
109.7392, 96.73829
110.2214, 94.68011
110.7035, 96.85754
111.1856, 105.0711
111.6677, 112.6460
112.1498, 119.9924
112.6319, 126.2327
113.1141, 130.2736
113.5962, 132.0653
114.0783, 132.9600
114.5604, 134.9025
115.0425, 136.5047
115.5246, 142.0619
116.0068, 157.2416
116.4889, 172.8941
116.9710, 180.0362
117.4531, 175.9430
117.9352, 166.2222
118.4173, 162.4321
118.8995, 170.3794
119.3816, 178.2109
119.8637, 182.7012
120.3458, 188.1728
120.8279, 201.7719
121.3100, 226.8027
121.7922, 256.8983
122.2743, 273.4975
122.7564, 257.4045
123.2385, 253.9027
123.7206, 279.5748
124.2027, 321.3373
124.6849, 356.3086
125.1670, 373.2669
125.6491, 378.9063
126.1312, 394.4110
126.6133, 423.1381
127.0954, 454.2338
127.5776, 482.4580
128.0597, 509.8808
128.5418, 543.8212
129.0239, 591.1110
129.5060, 644.4969
129.9881, 684.1207
130.4702, 703.5913
130.9524, 719.9845
131.4345, 745.2776
131.9166, 777.4377
132.3987, 803.7407
132.8808, 818.0603
133.3629, 821.2720
133.8451, 817.8491
134.3272, 805.4370
134.8093, 789.9822
135.2914, 777.1335
135.7735, 767.0020
136.2556, 753.5938
136.7378, 729.5183
137.2199, 702.4190
137.7020, 681.7950
138.1841, 669.9536
138.6662, 664.3204
139.1483, 662.8466
139.6305, 665.9470
140.1126, 670.9254
140.5947, 676.2112
141.0768, 683.0166
141.5589, 693.1833
142.0410, 708.0222
142.5232, 725.1665
143.0053, 739.4254
143.4874, 747.5907
143.9695, 762.7634
144.4516, 798.4639
144.9337, 839.6592
145.4159, 870.3474
145.8980, 882.8161
146.3801, 885.5519
146.8622, 896.8496
147.3443, 920.4157
147.8264, 945.5005
148.3086, 972.7123
148.7907, 998.3472
149.2728, 1018.167
149.7549, 1029.981
150.2370, 1035.580
150.7191, 1040.058
151.2013, 1044.186
151.6834, 1045.532
152.1655, 1042.715
152.6476, 1037.564
153.1297, 1031.981
153.6118, 1026.873
154.0940, 1022.123
154.5761, 1017.209
155.0582, 1010.206
155.5403, 1005.913
156.0224, 1006.176
156.5045, 1009.014
156.9867, 1012.157
157.4688, 1014.411
157.9509, 1016.050
158.4330, 1018.214
158.9151, 1021.701
159.3972, 1024.806
159.8794, 1025.359
160.3615, 1025.927
160.8436, 1030.840
161.3257, 1042.718
161.8078, 1059.003
162.2899, 1068.320
162.7721, 1060.676
163.2542, 1056.683
163.7363, 1060.335
164.2184, 1068.782
164.7005, 1077.294
165.1826, 1083.199
165.6648, 1088.209
166.1469, 1100.201
166.6290, 1131.294
167.1111, 1155.529
167.5932, 1166.906
168.0753, 1169.359
168.5575, 1168.203
169.0396, 1165.838
169.5217, 1162.975
170.0038, 1162.761
170.4859, 1165.699
170.9680, 1170.446
171.4502, 1176.711
171.9323, 1184.659
172.4144, 1195.190
172.8965, 1209.092
173.3786, 1224.900
173.8607, 1237.125
174.3429, 1241.782
174.8250, 1248.085
175.3071, 1257.068
175.7892, 1269.019
176.2713, 1284.336
176.7534, 1303.056
177.2356, 1325.439
177.7177, 1352.851
178.1998, 1392.152
178.6819, 1426.232
179.1640, 1444.612
179.6461, 1455.500
180.1283, 1473.297
180.6104, 1504.095
181.0925, 1545.250
181.5746, 1592.523
182.0567, 1651.429
182.5388, 1704.826
183.0210, 1738.408
183.5031, 1764.163
183.9852, 1806.328
184.4673, 1876.716
184.9494, 1962.406
185.4315, 2035.245
185.9137, 2090.846
186.3958, 2148.377
186.8779, 2212.132
187.3600, 2281.829
187.8421, 2359.637
188.3242, 2447.737
188.8064, 2539.624
189.2885, 2620.451
189.7706, 2687.625
190.2527, 2760.850
190.7348, 2849.194
191.2169, 2947.602
191.6991, 3046.226
192.1812, 3142.393
192.6633, 3237.678
193.1454, 3336.361
193.6275, 3440.298
194.1096, 3534.127
194.5918, 3611.945
195.0739, 3676.630
195.5560, 3731.865
196.0381, 3776.479
196.5202, 3816.935
197.0023, 3863.355
197.4845, 3915.686
197.9666, 3961.460
198.4487, 3990.860
198.9308, 4012.774
199.4129, 4046.373
199.8950, 4099.902
200.3772, 4148.438
200.8593, 4158.143
201.3414, 4135.574
201.8235, 4110.742
202.3056, 4098.150
202.7877, 4086.442
203.2699, 4058.121
203.7520, 4009.646
204.2341, 3949.894
204.7162, 3888.024
205.1983, 3822.459
205.6804, 3742.034
206.1626, 3635.453
206.6447, 3515.671
207.1268, 3398.591
207.6089, 3285.306
208.0910, 3174.433
208.5731, 3066.871
209.0553, 2960.865
209.5374, 2852.705
210.0195, 2737.646
210.5016, 2622.560
210.9837, 2515.760
211.4658, 2417.777
211.9480, 2324.107
212.4301, 2231.130
212.9122, 2140.866
213.3943, 2059.299
213.8764, 1982.990
214.3585, 1918.313
214.8407, 1876.424
215.3228, 1857.705
215.8049, 1839.164
216.2870, 1806.390
216.7691, 1766.169
217.2512, 1732.394
217.7334, 1707.762
218.2155, 1687.956
218.6976, 1671.112
219.1797, 1657.093
219.6618, 1641.898
220.1439, 1621.884
220.6261, 1601.093
221.1082, 1585.682
221.5903, 1576.064
222.0724, 1571.298
222.5545, 1570.711
223.0366, 1574.399
223.5188, 1583.061
224.0009, 1597.786
224.4830, 1617.258
224.9651, 1638.974
225.4472, 1662.979
225.9293, 1688.375
226.4115, 1711.477
226.8936, 1734.913
227.3757, 1768.564
227.8578, 1818.398
228.3399, 1874.475
228.8220, 1924.843
229.3041, 1969.338
229.7863, 2013.836
230.2684, 2059.237
230.7505, 2106.691
231.2326, 2159.289
231.7147, 2218.144
232.1968, 2280.867
232.6790, 2345.029
233.1611, 2410.545
233.6432, 2479.441
234.1253, 2549.390
234.6074, 2624.209
235.0895, 2709.839
235.5717, 2807.695
236.0538, 2913.154
236.5359, 3021.069
237.0180, 3132.671
237.5001, 3257.269
237.9822, 3398.666
238.4644, 3552.700
238.9465, 3707.616
239.4286, 3861.876
239.9107, 4040.864
240.3928, 4272.733
240.8749, 4543.577
241.3571, 4802.346
241.8392, 5048.385
242.3213, 5277.590
242.8034, 5517.088
243.2855, 5755.994
243.7676, 5898.253
244.2498, 5883.862
244.7319, 5731.912
245.2140, 5533.751
245.6961, 5282.116
246.1782, 4998.065
246.6603, 4668.240
247.1425, 4308.034
247.6246, 3967.692
248.1067, 3660.319
248.5888, 3391.075
249.0709, 3166.247
249.5530, 2982.159
250.0352, 2836.478
250.5173, 2743.288
250.9994, 2686.326
251.4815, 2634.176
251.9636, 2576.793
252.4457, 2527.979
252.9279, 2511.960
253.4100, 2530.473
253.8921, 2558.830
254.3742, 2600.208
254.8563, 2645.858
255.3384, 2684.427
255.8206, 2713.863
256.3027, 2742.265
256.7848, 2777.082
257.2669, 2819.382
257.7490, 2865.896
258.2311, 2918.041
258.7133, 2973.282
259.1954, 3030.362
259.6775, 3089.083
260.1596, 3148.774
260.6417, 3207.816
261.1238, 3266.776
261.6060, 3336.673
262.0881, 3423.371
262.5702, 3513.526
263.0523, 3597.377
263.5344, 3678.811
264.0165, 3767.836
264.4987, 3870.057
264.9808, 3984.646
265.4629, 4111.450
265.9450, 4251.995
266.4271, 4400.465
266.9092, 4557.221
267.3914, 4720.881
267.8735, 4890.034
268.3556, 5065.011
268.8377, 5243.869
269.3198, 5424.035
269.8019, 5614.063
270.2841, 5789.448
270.7662, 5952.969
271.2483, 6100.818
271.7304, 6234.696
272.2125, 6353.544
272.6946, 6448.458
273.1768, 6509.748
273.6589, 6536.516
274.1410, 6524.908
274.6231, 6471.625
275.1052, 6389.875
275.5873, 6271.589
276.0695, 6127.202
276.5516, 5986.282
277.0337, 5874.336
277.5158, 5791.918
277.9979, 5706.109
278.4800, 5603.532
278.9622, 5511.717
279.4443, 5438.332
279.9264, 5381.152
280.4085, 5339.234
280.8906, 5313.846
281.3727, 5296.870
281.8549, 5256.857
282.3370, 5187.234
282.8191, 5101.130
283.3012, 5001.317
283.7833, 4887.339
284.2654, 4757.476
284.7476, 4612.083
285.2297, 4450.401
285.7118, 4267.073
286.1939, 4044.178
286.6760, 3846.706
287.1581, 3695.640
287.6403, 3555.804
288.1224, 3406.020
288.6045, 3245.352
289.0866, 3088.239
289.5687, 2949.726
290.0508, 2830.191
290.5330, 2715.089
291.0151, 2606.248
291.4972, 2500.375
291.9793, 2392.120
292.4614, 2285.272
292.9435, 2189.689
293.4257, 2113.219
293.9078, 2051.531
294.3899, 1990.361
294.8720, 1927.123
295.3541, 1870.026
295.8362, 1824.040
296.3184, 1785.265
296.8005, 1749.667
297.2826, 1715.356
297.7647, 1684.991
298.2468, 1663.946
298.7289, 1653.225
299.2111, 1640.682
299.6932, 1617.988
300.1753, 1595.337
300.6574, 1583.764
301.1395, 1584.786
301.6216, 1587.730
302.1038, 1583.839
302.5859, 1575.566
303.0680, 1572.362
303.5501, 1576.411
304.0322, 1585.026
304.5143, 1597.742
304.9964, 1613.578
305.4785, 1626.985
305.9607, 1629.366
306.4428, 1631.381
306.9249, 1650.491
307.4070, 1688.460
307.8891, 1725.404
308.3712, 1744.307
308.8534, 1750.482
309.3355, 1769.189
309.8176, 1812.497
310.2997, 1857.719
310.7818, 1892.303
311.2639, 1918.266
311.7461, 1942.896
312.2282, 1969.608
312.7103, 1996.479
313.1924, 2018.083
313.6745, 2030.396
314.1566, 2046.758
314.6388, 2076.793
315.1209, 2109.364
315.6030, 2130.559
316.0851, 2137.187
316.5672, 2135.844
317.0493, 2133.898
317.5315, 2130.786
318.0136, 2129.591
318.4957, 2128.955
318.9778, 2131.191
319.4599, 2137.590
319.9420, 2148.082
320.4242, 2161.338
320.9063, 2175.549
321.3884, 2191.678
321.8705, 2220.895
322.3526, 2274.219
322.8347, 2328.577
323.3169, 2383.346
323.7990, 2435.738
324.2811, 2482.209
324.7632, 2521.367
325.2453, 2556.208
325.7274, 2594.533
326.2096, 2645.297
326.6917, 2678.752
327.1738, 2692.599
327.6559, 2691.657
328.1380, 2673.867
328.6201, 2641.982
329.1023, 2606.497
329.5844, 2577.184
330.0665, 2553.970
330.5486, 2530.568
331.0307, 2507.526
331.5128, 2483.358
331.9950, 2454.922
332.4771, 2425.287
332.9592, 2400.325
333.4413, 2382.621
333.9234, 2371.387
334.4055, 2364.396
334.8877, 2360.529
335.3698, 2366.013
335.8519, 2388.713
336.3340, 2419.565
336.8161, 2450.141
337.2982, 2479.121
337.7804, 2508.985
338.2625, 2543.347
338.7446, 2580.580
339.2267, 2614.380
339.7088, 2644.889
340.1909, 2668.740
340.6731, 2679.665
341.1552, 2679.440
341.6373, 2678.692
342.1194, 2686.392
342.6015, 2691.471
343.0836, 2675.870
343.5658, 2639.954
344.0479, 2610.275
344.5300, 2607.519
345.0121, 2625.240
345.4942, 2627.686
345.9763, 2607.867
346.4585, 2582.152
346.9406, 2557.784
347.4227, 2531.159
347.9048, 2494.761
348.3869, 2445.404
348.8690, 2388.657
349.3512, 2333.645
349.8333, 2280.083
350.3154, 2229.527
350.7975, 2184.654
351.2796, 2140.424
351.7617, 2090.209
352.2439, 2035.920
352.7260, 1987.741
353.2081, 1956.391
353.6902, 1941.200
354.1723, 1913.981
354.6544, 1848.927
355.1366, 1799.809
355.6187, 1782.734
356.1008, 1785.695
356.5829, 1793.224
357.0650, 1798.762
357.5471, 1804.912
358.0293, 1817.411
358.5114, 1838.778
358.9935, 1858.152
359.4756, 1876.458
359.9577, 1890.307
360.4398, 1892.416
360.9220, 1885.215
361.4041, 1883.821
361.8862, 1902.792
362.3683, 1938.221
362.8504, 1970.318
363.3326, 1995.625
363.8147, 2024.583
364.2968, 2063.531
364.7789, 2110.327
365.2610, 2163.911
365.7431, 2229.792
366.2253, 2293.775
366.7074, 2339.021
367.1895, 2368.095
367.6716, 2400.216
368.1537, 2442.646
368.6358, 2490.350
369.1180, 2533.318
369.6001, 2569.509
370.0822, 2613.587
370.5643, 2670.964
371.0464, 2737.468
371.5285, 2809.334
372.0107, 2885.680
372.4928, 2965.039
372.9749, 3045.201
373.4570, 3126.261
373.9391, 3219.786
374.4212, 3346.006
374.9034, 3459.791
375.3855, 3540.176
375.8676, 3598.761
376.3497, 3658.435
376.8318, 3729.042
377.3139, 3794.962
377.7961, 3824.976
378.2782, 3801.291
378.7603, 3773.240
379.2424, 3742.081
379.7245, 3706.639
380.2066, 3665.888
380.6888, 3619.895
381.1709, 3569.048
381.6530, 3511.521
382.1351, 3448.971
382.6172, 3396.529
383.0993, 3357.523
383.5815, 3323.221
384.0636, 3286.616
384.5457, 3253.999
385.0278, 3233.418
385.5099, 3227.995
385.9920, 3231.575
386.4742, 3240.929
386.9563, 3255.438
387.4384, 3262.380
387.9205, 3250.907
388.4026, 3242.912
388.8847, 3258.828
389.3669, 3296.399
389.8490, 3343.880
390.3311, 3400.726
390.8132, 3464.039
391.2953, 3531.963
391.7774, 3604.270
392.2596, 3677.565
392.7417, 3753.456
393.2238, 3827.037
393.7059, 3876.760
394.1880, 3881.004
394.6701, 3897.549
395.1523, 3946.994
395.6344, 4013.974
396.1165, 4076.786
396.5986, 4130.974
397.0807, 4189.910
397.5628, 4268.182
398.0450, 4364.331
398.5271, 4486.977
399.0092, 4646.787
399.4913, 4818.240
399.9734, 4988.427
400.4555, 5163.506
400.9377, 5360.204
401.4197, 5587.876
401.9019, 5834.545
402.3840, 6078.323
402.8661, 6323.428
403.3482, 6550.592
403.8303, 6762.794
404.3124, 6951.314
404.7946, 7118.570
405.2767, 7260.289
405.7588, 7356.651
406.2409, 7385.780
406.7230, 7358.247
407.2051, 7309.453
407.6873, 7239.297
408.1694, 7150.001
408.6515, 7029.885
409.1336, 6894.065
409.6157, 6770.849
410.0978, 6665.395
410.5800, 6569.319
411.0621, 6489.282
411.5442, 6413.966
412.0263, 6318.386
412.5084, 6197.801
412.9905, 6046.850
413.4727, 5855.951
413.9548, 5617.967
414.4369, 5369.834
414.9190, 5103.081
415.4011, 4836.337
415.8832, 4573.117
416.3654, 4317.881
416.8475, 4078.415
417.3296, 3856.877
417.8117, 3652.046
418.2938, 3457.296
418.7759, 3267.999
419.2581, 3099.016
419.7402, 2951.504
420.2223, 2820.613
420.7044, 2704.260
421.1865, 2601.346
421.6686, 2510.236
422.1508, 2431.907
422.6329, 2364.666
423.1150, 2296.193
423.5971, 2220.869
424.0792, 2156.355
424.5613, 2118.253
425.0435, 2091.845
425.5256, 2059.890
426.0077, 2016.201
426.4898, 1976.081
426.9719, 1955.142
427.4540, 1948.017
427.9362, 1934.796
428.4183, 1910.147
428.9004, 1883.206
429.3825, 1860.893
429.8646, 1843.521
430.3467, 1836.081
430.8289, 1849.153
431.3110, 1862.596
431.7931, 1859.908
432.2752, 1848.437
432.7573, 1847.379
433.2394, 1865.724
433.7216, 1894.770
434.2037, 1916.507
434.6858, 1923.628
435.1679, 1937.678
435.6500, 1970.746
436.1321, 1999.508
436.6143, 2003.449
437.0964, 1989.795
437.5785, 1984.114
438.0606, 2006.895
438.5427, 2047.850
439.0248, 2068.325
439.5070, 2059.901
439.9891, 2052.456
440.4712, 2057.406
440.9533, 2065.184
441.4354, 2068.178
441.9175, 2065.415
442.3997, 2061.097
442.8818, 2055.487
443.3639, 2050.708
443.8460, 2053.147
444.3281, 2064.173
444.8102, 2076.253
445.2924, 2084.629
445.7745, 2089.828
446.2566, 2094.787
446.7387, 2096.647
447.2208, 2101.899
447.7029, 2117.210
448.1851, 2135.977
448.6672, 2147.877
449.1493, 2150.400
449.6314, 2149.055
450.1135, 2149.903
450.5956, 2153.001
451.0778, 2157.867
451.5599, 2171.571
452.0420, 2179.201
452.5241, 2169.043
453.0062, 2151.986
453.4883, 2144.989
453.9705, 2155.268
454.4526, 2172.819
454.9347, 2181.399
455.4168, 2179.602
455.8989, 2181.662
456.3810, 2194.325
456.8632, 2205.184
457.3453, 2202.383
457.8274, 2190.767
458.3095, 2186.050
458.7916, 2198.199
459.2737, 2216.553
459.7559, 2232.031
460.2380, 2244.116
460.7201, 2247.996
461.2022, 2238.911
461.6843, 2226.724
462.1664, 2229.016
462.6486, 2249.431
463.1307, 2269.621
463.6128, 2284.441
464.0949, 2301.461
464.5770, 2325.942
465.0591, 2357.420
465.5413, 2392.238
466.0234, 2427.792
466.5055, 2466.523
466.9876, 2518.136
467.4697, 2594.095
467.9518, 2660.551
468.4340, 2699.876
468.9161, 2741.242
469.3982, 2804.591
469.8803, 2889.680
470.3624, 2983.269
470.8445, 3081.714
471.3267, 3180.489
471.8088, 3264.439
472.2909, 3330.388
472.7730, 3400.954
473.2551, 3490.717
473.7372, 3587.037
474.2194, 3672.483
474.7015, 3748.269
475.1836, 3806.279
475.6657, 3845.614
476.1478, 3864.635
476.6299, 3856.770
477.1121, 3823.679
477.5942, 3780.940
478.0763, 3739.291
478.5584, 3697.412
479.0405, 3648.584
479.5226, 3588.266
480.0048, 3525.706
480.4869, 3461.882
480.9690, 3395.707
481.4511, 3324.898
481.9332, 3249.777
482.4153, 3175.771
482.8975, 3105.265
483.3796, 3039.572
483.8617, 2985.485
484.3438, 2943.304
484.8259, 2912.655
485.3080, 2904.910
485.7902, 2903.550
486.2723, 2891.105
486.7544, 2864.128
487.2365, 2834.947
487.7186, 2805.142
488.2007, 2779.941
488.6829, 2775.050
489.1650, 2792.067
489.6471, 2802.132
490.1292, 2782.099
490.6113, 2737.647
491.0934, 2705.519
491.5756, 2704.679
492.0577, 2689.624
492.5398, 2641.678
493.0219, 2582.726
493.5040, 2536.651
493.9861, 2505.479
494.4683, 2471.957
494.9504, 2419.790
495.4325, 2350.187
495.9146, 2280.711
496.3967, 2208.068
496.8788, 2141.966
497.3610, 2087.794
497.8431, 2039.943
498.3252, 1993.751
498.8073, 1948.386
499.2894, 1905.324
499.7715, 1865.858
500.2536, 1829.198
500.7357, 1792.057
501.2179, 1753.869
501.7000, 1721.293
502.1821, 1698.098
502.6642, 1684.089
503.1463, 1678.886
503.6284, 1691.604
504.1106, 1698.062
504.5927, 1687.669
505.0748, 1672.942
505.5569, 1664.615
506.0390, 1664.413
506.5211, 1670.101
507.0033, 1681.247
507.4854, 1695.891
507.9675, 1700.112
508.4496, 1682.546
508.9317, 1676.608
509.4138, 1699.090
509.8960, 1729.324
510.3781, 1749.725
510.8602, 1758.924
511.3423, 1770.606
511.8244, 1795.851
512.3066, 1828.720
512.7887, 1857.721
513.2708, 1882.611
513.7529, 1907.072
514.2350, 1931.420
514.7172, 1958.115
515.1993, 1994.191
515.6814, 2045.360
516.1635, 2091.542
516.6456, 2124.685
517.1277, 2155.979
517.6099, 2191.698
518.0920, 2233.335
518.5741, 2282.543
519.0562, 2340.986
519.5383, 2405.031
520.0204, 2463.343
520.5026, 2510.834
520.9847, 2566.122
521.4668, 2641.941
521.9489, 2718.255
522.4310, 2783.347
522.9131, 2838.050
523.3953, 2889.569
523.8774, 2940.613
524.3595, 2990.425
524.8416, 3039.350
525.3237, 3086.837
525.8058, 3127.086
526.2880, 3156.428
526.7701, 3183.965
527.2522, 3225.322
527.7343, 3289.044
528.2164, 3329.932
528.6985, 3339.311
529.1807, 3335.532
529.6628, 3325.873
530.1449, 3309.966
530.6270, 3284.521
531.1091, 3248.240
531.5912, 3206.448
532.0734, 3170.023
532.5555, 3141.078
533.0376, 3095.543
533.5197, 3020.341
534.0018, 2945.771
534.4839, 2895.761
534.9661, 2856.498
535.4482, 2800.294
535.9303, 2711.536
536.4124, 2625.551
536.8945, 2573.094
537.3766, 2540.313
537.8588, 2497.957
538.3409, 2440.873
538.8230, 2384.800
539.3051, 2344.128
539.7872, 2317.679
540.2693, 2284.438
540.7515, 2237.815
541.2336, 2192.649
541.7157, 2146.533
542.1978, 2105.049
542.6799, 2075.058
543.1620, 2056.050
543.6442, 2039.702
544.1263, 2020.394
544.6084, 1997.982
545.0905, 1969.868
545.5726, 1933.169
546.0547, 1906.456
546.5369, 1903.053
547.0190, 1907.818
547.5011, 1897.790
547.9832, 1871.090
548.4653, 1848.901
548.9474, 1837.597
549.4296, 1832.564
549.9116, 1833.848
550.3937, 1838.389
550.8759, 1838.576
551.3580, 1830.756
551.8401, 1817.171
552.3222, 1801.632
552.8043, 1783.051
553.2864, 1765.783
553.7686, 1746.565
554.2507, 1732.027
554.7328, 1729.530
555.2149, 1732.634
555.6970, 1729.166
556.1791, 1713.582
556.6613, 1695.052
557.1434, 1682.973
557.6255, 1675.574
558.1076, 1667.835
558.5897, 1659.428
559.0718, 1645.989
559.5540, 1620.966
560.0361, 1586.801
560.5182, 1565.879
561.0003, 1568.773
561.4824, 1568.909
561.9645, 1558.738
562.4467, 1545.476
562.9288, 1536.652
563.4109, 1532.408
563.8930, 1527.382
564.3751, 1517.262
564.8572, 1503.280
565.3394, 1488.813
565.8215, 1472.626
566.3036, 1461.346
566.7857, 1458.754
567.2678, 1460.136
567.7499, 1463.432
568.2321, 1468.056
568.7142, 1464.001
569.1963, 1442.369
569.6784, 1416.506
570.1605, 1391.845
570.6426, 1371.412
571.1248, 1365.145
571.6069, 1376.404
572.0890, 1389.012
572.5711, 1378.263
573.0532, 1338.495
573.5353, 1318.109
574.0175, 1336.828
574.4996, 1350.773
574.9817, 1342.646
575.4638, 1325.781
575.9459, 1316.730
576.4280, 1319.299
576.9102, 1324.109
577.3923, 1327.783
577.8744, 1327.812
578.3565, 1314.939
578.8386, 1289.102
579.3207, 1269.983
579.8029, 1269.626
580.2850, 1280.708
580.7671, 1285.764
581.2492, 1280.068
581.7313, 1277.144
582.2134, 1281.035
582.6956, 1283.930
583.1777, 1280.078
583.6598, 1271.844
584.1419, 1264.583
584.6240, 1260.765
585.1061, 1259.221
585.5883, 1258.994
586.0704, 1259.957
586.5525, 1259.848
587.0346, 1258.549
587.5167, 1255.784
587.9988, 1251.462
588.4810, 1245.403
588.9631, 1236.975
589.4452, 1221.369
589.9273, 1211.200
590.4094, 1214.685
590.8915, 1222.621
591.3737, 1226.443
591.8558, 1225.097
592.3379, 1220.368
592.8200, 1212.953
593.3021, 1204.347
593.7842, 1199.569
594.2664, 1200.348
594.7485, 1198.259
595.2306, 1188.980
595.7127, 1179.594
596.1948, 1175.401
596.6769, 1175.228
597.1591, 1174.811
597.6412, 1172.802
598.1233, 1170.470
598.6054, 1166.900
599.0875, 1164.096
599.5696, 1168.665
600.0518, 1180.886
600.5339, 1188.402
601.0160, 1178.232
601.4981, 1153.268
601.9802, 1140.598
602.4623, 1148.611
602.9445, 1154.512
603.4266, 1152.514
603.9087, 1148.956
604.3908, 1148.202
604.8729, 1150.313
605.3550, 1153.393
605.8372, 1158.733
606.3193, 1162.577
606.8014, 1159.858
607.2835, 1151.788
607.7656, 1141.333
608.2477, 1128.849
608.7299, 1119.420
609.2120, 1119.029
609.6941, 1127.997
610.1762, 1137.119
610.6583, 1149.373
611.1404, 1158.069
611.6226, 1158.997
612.1047, 1157.887
612.5868, 1160.090
613.0689, 1166.102
613.5510, 1172.927
614.0331, 1179.551
614.5153, 1185.048
614.9974, 1187.519
615.4795, 1187.100
615.9616, 1184.990
616.4437, 1181.334
616.9258, 1176.854
617.4080, 1171.977
617.8901, 1166.283
618.3722, 1164.086
618.8543, 1167.746
619.3364, 1171.753
619.8185, 1174.459
620.3007, 1176.630
620.7828, 1180.150
621.2649, 1184.839
621.7470, 1187.148
622.2291, 1181.525
622.7112, 1172.148
623.1934, 1172.406
623.6755, 1182.846
624.1576, 1188.135
624.6397, 1179.948
625.1218, 1169.837
625.6039, 1175.496
626.0861, 1200.890
626.5682, 1211.827
627.0503, 1193.496
627.5324, 1176.776
628.0145, 1175.841
628.4966, 1182.638
628.9788, 1186.593
629.4609, 1185.300
629.9430, 1182.975
630.4251, 1184.359
630.9072, 1187.672
631.3893, 1184.825
631.8715, 1174.609
632.3536, 1169.309
632.8357, 1175.221
633.3178, 1185.024
633.7999, 1188.798
634.2820, 1186.092
634.7642, 1185.086
635.2463, 1186.379
635.7284, 1189.381
636.2105, 1197.190
636.6926, 1205.047
637.1747, 1204.738
637.6569, 1195.596
638.1390, 1186.842
638.6211, 1187.984
639.1032, 1196.335
639.5853, 1201.636
640.0674, 1203.905
640.5496, 1202.571
641.0317, 1195.043
641.5138, 1186.928
641.9959, 1185.334
642.4780, 1190.190
642.9601, 1196.769
643.4423, 1208.180
643.9244, 1217.406
644.4065, 1217.357
644.8886, 1215.344
645.3707, 1223.632
645.8528, 1242.794
646.3350, 1259.050
646.8171, 1259.205
647.2992, 1247.821
647.7813, 1238.943
648.2634, 1232.278
648.7455, 1231.916
649.2277, 1242.195
649.7098, 1254.450
650.1919, 1259.148
650.6740, 1256.494
651.1561, 1253.788
651.6382, 1244.937
652.1204, 1243.807
652.6025, 1266.546
653.0846, 1293.091
653.5667, 1295.926
654.0488, 1275.542
654.5309, 1258.972
655.0131, 1268.889
655.4952, 1294.631
655.9773, 1310.031
656.4594, 1314.794
656.9415, 1317.443
657.4236, 1318.910
657.9058, 1320.935
658.3879, 1324.094
658.8700, 1328.916
659.3521, 1339.435
659.8342, 1369.288
660.3163, 1387.070
660.7985, 1372.535
661.2806, 1351.779
661.7627, 1348.948
662.2448, 1363.943
662.7269, 1383.047
663.2090, 1397.796
663.6912, 1411.902
664.1733, 1435.648
664.6554, 1467.362
665.1375, 1484.446
665.6196, 1479.561
666.1017, 1474.370
666.5839, 1485.788
667.0660, 1510.595
667.5481, 1532.498
668.0302, 1546.975
668.5123, 1565.356
668.9944, 1589.070
669.4766, 1616.540
669.9587, 1649.963
670.4408, 1686.087
670.9229, 1716.606
671.4050, 1737.039
671.8871, 1756.934
672.3693, 1786.668
672.8514, 1825.343
673.3335, 1872.538
673.8156, 1928.427
674.2977, 1982.493
674.7798, 2027.729
675.2620, 2068.100
675.7441, 2113.807
676.2262, 2169.043
676.7083, 2220.873
677.1904, 2266.810
677.6725, 2312.258
678.1547, 2359.234
678.6368, 2407.413
679.1189, 2457.056
679.6010, 2508.402
680.0831, 2555.615
680.5652, 2593.771
681.0474, 2624.857
681.5295, 2649.381
682.0116, 2668.587
682.4937, 2693.335
682.9758, 2729.776
683.4579, 2761.275
683.9401, 2761.234
684.4222, 2725.186
684.9043, 2692.556
685.3864, 2667.226
685.8685, 2640.164
686.3506, 2611.160
686.8328, 2577.920
687.3149, 2533.444
687.7970, 2478.905
688.2791, 2434.551
688.7612, 2413.976
689.2433, 2403.081
689.7255, 2388.715
690.2076, 2374.458
690.6897, 2368.028
691.1718, 2371.361
691.6539, 2382.696
692.1360, 2401.184
692.6182, 2425.570
693.1003, 2446.234
693.5824, 2456.088
694.0645, 2485.609
694.5466, 2549.645
695.0287, 2625.166
695.5109, 2694.812
695.9930, 2760.610
696.4751, 2831.167
696.9572, 2907.944
697.4393, 2988.990
697.9214, 3075.889
698.4036, 3164.599
698.8857, 3251.502
699.3678, 3336.403
699.8499, 3419.356
700.3320, 3499.317
700.8141, 3584.580
701.2963, 3696.459
701.7784, 3832.894
702.2605, 3942.586
702.7426, 4015.855
703.2247, 4083.616
703.7068, 4163.599
704.1890, 4250.296
704.6711, 4333.792
705.1532, 4426.622
705.6353, 4482.027
706.1174, 4485.189
706.5995, 4464.044
707.0817, 4432.466
707.5638, 4384.817
708.0459, 4305.212
708.5280, 4191.582
709.0101, 4074.014
709.4922, 3989.855
709.9744, 3912.733
710.4565, 3786.397
710.9386, 3618.048
711.4207, 3457.072
711.9028, 3319.243
712.3849, 3192.923
712.8671, 3064.499
713.3492, 2933.930
713.8313, 2817.130
714.3134, 2720.618
714.7955, 2627.059
715.2776, 2533.788
715.7598, 2442.320
716.2419, 2351.717
716.7240, 2263.439
717.2061, 2183.563
717.6882, 2114.974
718.1703, 2053.904
718.6525, 2000.642
719.1346, 1951.533
719.6167, 1899.710
720.0988, 1845.934
720.5809, 1797.944
721.0630, 1760.876
721.5452, 1729.868
722.0273, 1694.118
722.5094, 1652.958
722.9915, 1622.153
723.4736, 1606.244
723.9557, 1590.423
724.4379, 1564.975
724.9200, 1535.640
725.4021, 1515.543
725.8842, 1508.640
726.3663, 1495.118
726.8484, 1465.164
727.3306, 1437.098
727.8127, 1422.764
728.2948, 1414.224
728.7769, 1399.267
729.2590, 1375.751
729.7411, 1352.366
730.2233, 1332.862
730.7054, 1319.559
731.1875, 1321.053
731.6696, 1333.568
732.1517, 1338.572
732.6339, 1331.070
733.1160, 1316.395
733.5981, 1297.947
734.0802, 1277.415
734.5623, 1268.070
735.0444, 1276.495
735.5266, 1282.135
736.0087, 1284.792
736.4908, 1281.666
736.9729, 1265.510
737.4550, 1243.103
737.9371, 1231.260
738.4193, 1237.998
738.9014, 1242.861
739.3835, 1232.901
739.8656, 1220.129
740.3477, 1217.719
740.8298, 1222.473
741.3120, 1222.725
741.7941, 1213.849
742.2762, 1204.652
742.7583, 1209.156
743.2404, 1223.745
743.7225, 1225.466
744.2047, 1212.660
744.6868, 1207.013
745.1689, 1219.488
745.6510, 1234.296
746.1331, 1230.552
746.6152, 1206.928
747.0973, 1192.260
747.5794, 1195.871
748.0615, 1195.950
748.5436, 1185.327
749.0258, 1173.394
749.5079, 1165.638
749.9900, 1163.105
750.4721, 1167.957
750.9542, 1187.276
751.4363, 1200.467
751.9185, 1183.086
752.4006, 1154.289
752.8827, 1143.164
753.3648, 1149.897
753.8469, 1160.574
754.3290, 1168.271
754.8112, 1172.791
755.2933, 1173.733
755.7754, 1171.094
756.2575, 1164.413
756.7396, 1151.187
757.2217, 1143.409
757.7039, 1148.400
758.1860, 1158.250
758.6681, 1162.625
759.1502, 1160.935
759.6323, 1157.602
760.1144, 1147.703
760.5966, 1142.454
761.0787, 1147.523
761.5608, 1156.563
762.0429, 1166.083
762.5250, 1174.162
763.0071, 1176.030
763.4893, 1165.001
763.9714, 1156.538
764.4535, 1172.728
764.9356, 1199.384
765.4177, 1206.171
765.8998, 1193.249
766.3820, 1183.324
766.8641, 1189.162
767.3462, 1202.598
767.8283, 1207.812
768.3104, 1203.566
768.7925, 1209.719
769.2747, 1232.611
769.7568, 1246.905
770.2389, 1237.462
770.7210, 1219.634
771.2031, 1214.856
771.6852, 1224.127
772.1674, 1227.441
772.6495, 1215.933
773.1316, 1208.790
773.6137, 1211.843
774.0958, 1221.168
774.5779, 1235.009
775.0601, 1251.718
775.5422, 1268.135
776.0243, 1283.567
776.5064, 1296.473
776.9885, 1305.690
777.4706, 1311.242
777.9528, 1312.394
778.4349, 1309.632
778.9170, 1304.020
779.3991, 1295.827
779.8812, 1290.181
780.3633, 1297.285
780.8455, 1317.013
781.3276, 1328.420
781.8097, 1329.069
782.2918, 1330.207
782.7739, 1336.020
783.2560, 1343.334
783.7382, 1350.189
784.2203, 1356.460
784.7024, 1354.502
785.1845, 1326.273
785.6666, 1314.837
786.1487, 1347.357
786.6309, 1381.743
787.1130, 1381.067
787.5951, 1356.458
788.0772, 1343.661
788.5593, 1357.617
789.0414, 1372.869
789.5236, 1368.300
790.0057, 1356.171
790.4878, 1352.690
790.9699, 1356.256
791.4520, 1358.427
791.9341, 1356.033
792.4163, 1351.188
792.8984, 1344.849
793.3805, 1338.434
793.8626, 1340.488
794.3447, 1351.895
794.8268, 1359.444
795.3090, 1358.537
795.7911, 1357.567
796.2732, 1365.405
796.7553, 1379.329
797.2374, 1383.711
797.7195, 1362.594
798.2017, 1358.929
798.6838, 1393.130
799.1659, 1423.071
799.6480, 1423.095
800.1301, 1408.395
800.6122, 1402.938
801.0944, 1411.068
801.5765, 1424.962
802.0586, 1448.508
802.5407, 1469.503
803.0228, 1475.012
803.5049, 1473.536
803.9871, 1476.524
804.4692, 1487.533
804.9513, 1509.519
805.4334, 1549.172
805.9155, 1591.999
806.3976, 1607.930
806.8798, 1603.920
807.3619, 1612.515
807.8440, 1638.045
808.3261, 1669.995
808.8082, 1703.731
809.2903, 1735.138
809.7725, 1753.814
810.2546, 1755.941
810.7367, 1770.699
811.2188, 1803.036
811.7009, 1838.262
812.1830, 1874.995
812.6652, 1909.622
813.1473, 1935.844
813.6294, 1954.668
814.1115, 1980.500
814.5936, 2023.567
815.0757, 2061.388
815.5579, 2077.683
816.0400, 2096.294
816.5221, 2140.426
817.0042, 2201.908
817.4863, 2260.693
817.9684, 2311.664
818.4506, 2347.817
818.9327, 2348.600
819.4148, 2342.833
819.8969, 2371.528
820.3790, 2425.213
820.8611, 2476.969
821.3433, 2517.281
821.8254, 2543.106
822.3075, 2548.034
822.7896, 2540.325
823.2717, 2547.611
823.7538, 2569.294
824.2360, 2575.238
824.7181, 2559.202
825.2002, 2534.457
825.6823, 2507.815
826.1644, 2480.716
826.6465, 2457.875
827.1287, 2445.167
827.6108, 2415.985
828.0929, 2355.308
828.5750, 2299.532
829.0571, 2272.822
829.5392, 2248.356
830.0214, 2193.626
830.5035, 2110.665
830.9856, 2042.948
831.4677, 2011.141
831.9498, 1979.293
832.4319, 1934.949
832.9141, 1886.208
833.3962, 1836.703
833.8783, 1789.507
834.3604, 1750.707
834.8425, 1722.919
835.3246, 1696.063
835.8068, 1662.754
836.2889, 1624.874
836.7710, 1579.033
837.2531, 1531.246
837.7352, 1500.626
838.2173, 1491.156
838.6995, 1486.317
839.1816, 1471.595
839.6637, 1450.559
840.1458, 1430.941
840.6279, 1412.936
841.1100, 1403.974
841.5922, 1407.141
842.0743, 1401.564
842.5564, 1373.009
843.0385, 1332.025
843.5206, 1298.069
844.0027, 1270.388
844.4849, 1255.130
844.9670, 1257.374
845.4491, 1263.037
845.9312, 1272.784
846.4133, 1280.270
846.8954, 1282.150
847.3776, 1277.499
847.8597, 1260.300
848.3418, 1212.151
848.8239, 1177.958
849.3060, 1174.748
849.7881, 1179.938
850.2703, 1182.690
850.7524, 1181.873
851.2345, 1176.018
851.7166, 1164.858
852.1987, 1157.859
852.6808, 1165.768
853.1630, 1175.225
853.6451, 1173.359
854.1272, 1164.995
854.6093, 1156.264
855.0914, 1149.686
855.5735, 1149.571
856.0557, 1159.559
856.5378, 1172.644
857.0199, 1183.939
857.5020, 1189.415
857.9841, 1167.411
858.4662, 1120.242
858.9484, 1087.429
859.4305, 1085.145
859.9126, 1096.520
860.3947, 1102.059
860.8768, 1102.486
861.3589, 1103.709
861.8411, 1106.307
862.3232, 1106.166
862.8053, 1101.205
863.2874, 1096.915
863.7695, 1097.979
864.2516, 1101.675
864.7338, 1100.556
865.2159, 1091.457
865.6980, 1086.823
866.1801, 1091.221
866.6622, 1094.382
867.1443, 1092.647
867.6265, 1089.165
868.1086, 1084.748
868.5907, 1080.624
869.0728, 1083.698
869.5549, 1105.817
870.0370, 1119.625
870.5192, 1105.671
871.0013, 1090.474
871.4834, 1099.031
871.9655, 1120.282
872.4476, 1129.759
872.9297, 1121.244
873.4119, 1112.110
873.8940, 1114.145
874.3761, 1120.025
874.8582, 1125.082
875.3403, 1127.779
875.8224, 1123.904
876.3046, 1114.560
876.7867, 1107.239
877.2688, 1106.678
877.7509, 1107.565
878.2330, 1099.320
878.7151, 1087.160
879.1973, 1088.613
879.6794, 1102.770
880.1615, 1117.455
880.6436, 1128.571
881.1257, 1132.827
881.6078, 1125.026
882.0900, 1109.844
882.5721, 1107.330
883.0542, 1118.797
883.5363, 1127.835
884.0184, 1133.093
884.5005, 1133.217
884.9827, 1126.325
885.4648, 1115.873
885.9469, 1108.364
886.4290, 1104.646
886.9111, 1095.346
887.3932, 1071.695
887.8754, 1059.136
888.3575, 1071.391
888.8396, 1087.733
889.3217, 1092.972
889.8038, 1089.388
890.2859, 1083.236
890.7681, 1072.843
891.2502, 1064.217
891.7323, 1056.358
892.2144, 1052.271
892.6965, 1055.489
893.1786, 1061.719
893.6608, 1066.619
894.1429, 1069.672
894.6250, 1071.604
895.1071, 1073.192
895.5892, 1072.919
896.0714, 1069.014
896.5535, 1063.832
897.0356, 1057.051
897.5177, 1051.388
897.9998, 1053.760
898.4819, 1065.623
898.9641, 1074.721
899.4462, 1069.058
899.9283, 1059.028
900.4104, 1053.705
900.8925, 1053.095
901.3746, 1061.004
901.8568, 1074.402
902.3389, 1079.490
902.8210, 1068.510
903.3031, 1051.622
903.7852, 1038.555
904.2673, 1030.484
904.7495, 1034.232
905.2316, 1046.995
905.7137, 1052.439
906.1958, 1046.438
906.6779, 1038.196
907.1600, 1034.749
907.6422, 1036.391
908.1243, 1047.441
908.6064, 1067.237
909.0885, 1072.589
909.5706, 1060.734
910.0527, 1047.061
910.5349, 1036.622
911.0170, 1032.756
911.4991, 1041.776
911.9812, 1061.454
912.4633, 1066.756
912.9454, 1051.439
913.4276, 1046.312
913.9097, 1061.050
914.3918, 1073.075
914.8739, 1066.427
915.3560, 1052.010
915.8381, 1050.975
916.3203, 1066.685
916.8024, 1074.052
917.2845, 1064.396
917.7666, 1060.083
918.2487, 1075.315
918.7308, 1087.726
919.2130, 1074.182
919.6951, 1046.890
920.1772, 1040.174
920.6593, 1065.863
921.1414, 1082.287
921.6235, 1081.172
922.1057, 1074.386
922.5878, 1059.894
923.0699, 1046.724
923.5520, 1045.912
924.0341, 1055.224
924.5162, 1061.453
924.9984, 1059.799
925.4805, 1058.023
925.9626, 1055.056
926.4447, 1056.921
926.9268, 1075.996
927.4089, 1098.590
927.8911, 1100.973
928.3732, 1082.114
928.8553, 1068.228
929.3374, 1077.030
929.8195, 1087.234
930.3016, 1078.841
930.7838, 1067.933
931.2659, 1076.436
931.7480, 1097.074
932.2301, 1110.791
932.7122, 1111.494
933.1943, 1104.229
933.6765, 1082.638
934.1586, 1065.398
934.6407, 1083.189
935.1228, 1117.222
935.6049, 1132.998
936.0870, 1129.698
936.5692, 1124.075
937.0513, 1123.766
937.5334, 1123.837
938.0155, 1114.364
938.4976, 1103.604
938.9797, 1110.604
939.4619, 1131.188
939.9440, 1154.822
940.4261, 1177.833
940.9082, 1190.839
941.3903, 1187.282
941.8724, 1178.211
942.3546, 1179.126
942.8367, 1189.368
943.3188, 1207.830
943.8009, 1233.629
944.2830, 1261.192
944.7651, 1289.015
945.2472, 1308.948
945.7293, 1312.641
946.2114, 1310.564
946.6935, 1329.851
947.1757, 1369.500
947.6578, 1398.730
948.1399, 1415.880
948.6220, 1432.862
949.1041, 1453.180
949.5862, 1477.242
950.0684, 1505.497
950.5505, 1537.529
951.0326, 1573.993
951.5147, 1617.364
951.9968, 1645.169
952.4789, 1652.009
952.9611, 1661.784
953.4432, 1685.808
953.9253, 1712.267
954.4074, 1725.326
954.8895, 1728.014
955.3716, 1750.065
955.8538, 1805.554
956.3359, 1827.938
956.8180, 1793.160
957.3001, 1767.081
957.7822, 1783.299
958.2643, 1821.343
958.7465, 1857.173
959.2286, 1890.650
959.7107, 1901.194
960.1928, 1868.930
960.6749, 1857.145
961.1570, 1881.579
961.6392, 1914.706
962.1213, 1949.162
962.6034, 1978.292
963.0855, 1987.681
963.5676, 1973.638
964.0497, 1976.023
964.5319, 2014.158
965.0140, 2038.536
965.4961, 2034.193
965.9782, 2023.738
966.4603, 2020.932
966.9424, 2020.707
967.4246, 2011.502
967.9067, 1989.744
968.3888, 1979.514
968.8709, 1990.875
969.3530, 2001.260
969.8351, 2004.880
970.3173, 2007.431
970.7994, 2011.827
971.2815, 2018.300
971.7636, 2029.010
972.2457, 2047.120
972.7278, 2053.882
973.2100, 2034.928
973.6921, 2020.329
974.1742, 2017.627
974.6563, 2023.983
975.1384, 2042.497
975.6205, 2067.167
976.1027, 2083.952
976.5848, 2090.187
977.0669, 2092.441
977.5490, 2082.162
978.0311, 2080.732
978.5132, 2113.775
978.9954, 2144.621
979.4775, 2133.787
979.9596, 2093.717
980.4417, 2064.947
980.9238, 2058.129
981.4059, 2050.513
981.8881, 2042.236
982.3702, 2023.765
982.8523, 1985.327
983.3344, 1938.555
983.8165, 1896.370
984.2986, 1856.289
984.7808, 1805.358
985.2629, 1735.256
985.7450, 1675.505
986.2271, 1640.403
986.7092, 1613.992
987.1913, 1596.228
987.6735, 1576.283
988.1556, 1537.421
988.6377, 1486.424
989.1198, 1448.518
989.6019, 1432.935
990.0840, 1421.599
990.5662, 1415.293
991.0483, 1401.890
991.5304, 1363.720
992.0125, 1322.082
992.4946, 1304.180
992.9767, 1305.851
993.4589, 1302.556
993.9410, 1285.369
994.4231, 1268.994
994.9052, 1257.965
995.3873, 1252.034
995.8694, 1248.100
996.3516, 1251.285
996.8337, 1278.636
997.3158, 1319.176
997.7979, 1330.407
998.2800, 1289.511
998.7621, 1256.016
999.2443, 1262.357
999.7264, 1278.736
1000.208, 1284.768
1000.691, 1290.571
1001.173, 1314.428
1001.655, 1350.718
1002.137, 1373.440
1002.619, 1371.016
1003.101, 1368.500
1003.583, 1374.226
1004.065, 1387.197
1004.548, 1412.652
1005.030, 1440.823
1005.512, 1459.487
1005.994, 1470.176
1006.476, 1483.223
1006.958, 1503.158
1007.440, 1519.263
1007.922, 1521.327
1008.404, 1524.058
1008.887, 1540.587
1009.369, 1559.835
1009.851, 1570.423
1010.333, 1571.780
1010.815, 1566.809
1011.297, 1555.490
1011.779, 1542.109
1012.261, 1525.373
1012.744, 1510.702
1013.226, 1505.850
1013.708, 1501.188
1014.190, 1486.417
1014.672, 1462.812
1015.154, 1434.470
1015.636, 1399.678
1016.118, 1377.456
1016.600, 1390.280
1017.083, 1399.448
1017.565, 1382.640
1018.047, 1354.715
1018.529, 1329.176
1019.011, 1305.641
1019.493, 1276.486
1019.975, 1237.604
1020.457, 1211.075
1020.940, 1211.075
1021.422, 1215.808
1021.904, 1220.439
1022.386, 1221.470
1022.868, 1214.448
1023.350, 1202.093
1023.832, 1190.676
1024.314, 1181.423
1024.797, 1171.583
1025.279, 1163.582
1025.761, 1150.615
1026.243, 1118.213
1026.725, 1091.471
1027.207, 1094.692
1027.689, 1115.844
1028.171, 1131.520
1028.653, 1138.604
1029.135, 1142.111
1029.618, 1144.629
1030.100, 1141.352
1030.582, 1122.340
1031.064, 1106.131
1031.546, 1108.661
1032.028, 1120.044
1032.510, 1124.135
1032.992, 1119.637
1033.475, 1112.197
1033.957, 1099.093
1034.439, 1088.059
1034.921, 1076.978
1035.403, 1071.764
1035.885, 1079.783
1036.367, 1093.022
1036.849, 1101.122
1037.332, 1103.922
1037.814, 1103.697
1038.296, 1098.381
1038.778, 1093.382
1039.260, 1090.160
1039.742, 1085.486
1040.224, 1072.183
1040.706, 1061.908
1041.188, 1071.483
1041.671, 1097.676
1042.153, 1112.774
1042.635, 1111.597
1043.117, 1110.607
1043.599, 1113.548
1044.081, 1109.616
1044.563, 1089.083
1045.045, 1068.802
1045.527, 1067.039
1046.010, 1078.391
1046.492, 1080.051
1046.974, 1067.780
1047.456, 1060.599
1047.938, 1059.785
1048.420, 1060.616
1048.902, 1062.491
1049.384, 1063.959
1049.866, 1064.119
1050.349, 1062.606
1050.831, 1057.456
1051.313, 1047.675
1051.795, 1046.180
1052.277, 1054.781
1052.759, 1061.470
1053.241, 1064.114
1053.723, 1060.828
1054.206, 1048.856
1054.688, 1035.217
1055.170, 1033.822
1055.652, 1042.953
1056.134, 1040.161
1056.616, 1025.290
1057.098, 1024.129
1057.580, 1041.198
1058.063, 1055.155
1058.545, 1054.591
1059.027, 1051.762
1059.509, 1065.613
1059.991, 1087.059
1060.473, 1081.051
1060.955, 1052.928
1061.437, 1033.506
1061.919, 1025.359
1062.401, 1016.230
1062.884, 1001.742
1063.366, 995.0022
1063.848, 1011.935
1064.330, 1036.613
1064.812, 1036.172
1065.294, 1020.819
1065.776, 1014.700
1066.258, 1018.586
1066.741, 1030.769
1067.223, 1048.740
1067.705, 1060.199
1068.187, 1054.562
1068.669, 1047.932
1069.151, 1067.440
1069.633, 1091.588
1070.115, 1086.233
1070.598, 1061.853
1071.080, 1037.550
1071.562, 1019.762
1072.044, 1015.497
1072.526, 1029.141
1073.008, 1046.949
1073.490, 1063.806
1073.972, 1074.957
1074.454, 1070.621
1074.937, 1062.042
1075.419, 1066.180
1075.901, 1078.230
1076.383, 1080.039
1076.865, 1066.323
1077.347, 1056.064
1077.829, 1059.247
1078.311, 1066.119
1078.793, 1077.968
1079.276, 1085.917
1079.758, 1078.526
1080.240, 1064.455
1080.722, 1058.300
1081.204, 1061.594
1081.686, 1067.316
1082.168, 1081.584
1082.650, 1086.698
1083.133, 1070.772
1083.615, 1055.760
1084.097, 1055.652
1084.579, 1058.932
1085.061, 1050.611
1085.543, 1033.588
1086.025, 1024.483
1086.507, 1024.779
1086.990, 1029.802
1087.472, 1046.100
1087.954, 1054.562
1088.436, 1047.756
1088.918, 1035.356
1089.400, 1021.398
1089.882, 1010.169
1090.364, 1012.820
1090.846, 1030.617
1091.328, 1041.021
1091.811, 1043.652
1092.293, 1040.133
1092.775, 1029.297
1093.257, 1020.546
1093.739, 1019.063
1094.221, 1020.246
1094.703, 1017.253
1095.185, 1012.525
1095.668, 1018.069
1096.150, 1032.418
1096.632, 1040.814
1097.114, 1042.290
1097.596, 1041.605
1098.078, 1040.489
1098.560, 1040.346
1099.042, 1043.078
1099.525, 1044.628
1100.007, 1032.102
1100.489, 1016.441
1100.971, 1028.821
1101.453, 1057.969
1101.935, 1069.702
1102.417, 1060.056
1102.899, 1045.673
1103.381, 1034.326
1103.864, 1025.510
1104.346, 1016.792
1104.828, 1012.491
1105.310, 1021.774
1105.792, 1034.612
1106.274, 1038.280
1106.756, 1034.114
1107.238, 1027.096
1107.720, 1018.925
1108.203, 1015.843
1108.685, 1024.673
1109.167, 1033.451
1109.649, 1035.976
1110.131, 1038.283
1110.613, 1047.526
1111.095, 1056.878
1111.577, 1055.918
1112.060, 1045.878
1112.542, 1038.098
1113.024, 1035.671
1113.506, 1031.472
1113.988, 1019.173
1114.470, 1013.800
1114.952, 1026.580
1115.434, 1037.410
1115.917, 1027.581
1116.399, 1009.719
1116.881, 1012.371
1117.363, 1037.316
1117.845, 1041.394
1118.327, 1016.544
1118.809, 1009.778
1119.291, 1030.469
1119.773, 1054.333
1120.255, 1071.866
1120.738, 1078.636
1121.220, 1067.825
1121.702, 1045.879
1122.184, 1028.846
1122.666, 1017.824
1123.148, 1023.470
1123.630, 1043.310
1124.112, 1058.233
1124.595, 1063.379
1125.077, 1063.257
1125.559, 1060.614
1126.041, 1054.899
1126.523, 1041.359
1127.005, 1027.471
1127.487, 1023.202
1127.969, 1027.908
1128.452, 1047.140
1128.934, 1072.958
1129.416, 1081.484
1129.898, 1066.733
1130.380, 1053.633
1130.862, 1058.111
1131.344, 1065.716
1131.826, 1070.020
1132.308, 1072.208
1132.791, 1073.220
1133.273, 1072.705
1133.755, 1068.190
1134.237, 1061.277
1134.719, 1060.236
1135.201, 1070.081
1135.683, 1075.306
1136.165, 1068.104
1136.647, 1064.959
1137.130, 1075.297
1137.612, 1083.387
1138.094, 1076.812
1138.576, 1064.129
1139.058, 1059.723
1139.540, 1063.362
1140.022, 1069.202
1140.504, 1078.620
1140.987, 1081.574
1141.469, 1076.293
1141.951, 1070.536
1142.433, 1066.877
1142.915, 1065.789
1143.397, 1067.526
1143.879, 1072.865
1144.361, 1086.590
1144.844, 1104.768
1145.326, 1115.203
1145.808, 1116.695
1146.290, 1098.333
1146.772, 1065.622
1147.254, 1054.964
1147.736, 1081.760
1148.218, 1106.655
1148.700, 1087.947
1149.182, 1062.073
1149.665, 1068.190
1150.147, 1083.894
1150.629, 1083.839
1151.111, 1074.025
1151.593, 1066.600
1152.075, 1064.032
1152.557, 1066.326
1153.039, 1075.911
1153.522, 1083.138
1154.004, 1085.154
1154.486, 1084.451
1154.968, 1079.214
1155.450, 1074.297
1155.932, 1074.648
1156.414, 1077.153
1156.896, 1075.514
1157.379, 1069.651
1157.861, 1069.483
1158.343, 1075.623
1158.825, 1087.160
1159.307, 1107.665
1159.789, 1117.472
1160.271, 1108.793
1160.753, 1090.250
1161.235, 1067.263
1161.718, 1046.084
1162.200, 1039.837
1162.682, 1046.909
1163.164, 1065.186
1163.646, 1089.930
1164.128, 1101.144
1164.610, 1098.109
1165.092, 1093.085
1165.574, 1091.215
1166.057, 1091.909
1166.539, 1095.455
1167.021, 1100.055
1167.503, 1108.141
1167.985, 1112.529
1168.467, 1101.655
1168.949, 1084.431
1169.431, 1072.345
1169.914, 1067.443
1170.396, 1070.234
1170.878, 1082.530
1171.360, 1094.557
1171.842, 1106.492
1172.324, 1114.620
1172.806, 1118.386
1173.288, 1117.377
1173.771, 1108.311
1174.253, 1097.438
1174.735, 1092.375
1175.217, 1092.724
1175.699, 1096.908
1176.181, 1105.994
1176.663, 1110.493
1177.145, 1109.690
1177.627, 1110.329
1178.109, 1114.106
1178.592, 1117.825
1179.074, 1119.671
1179.556, 1118.746
1180.038, 1110.860
1180.520, 1102.475
1181.002, 1111.792
1181.484, 1128.372
1181.966, 1129.786
1182.449, 1119.232
1182.931, 1109.433
1183.413, 1103.596
1183.895, 1099.096
1184.377, 1093.867
1184.859, 1093.047
1185.341, 1109.560
1185.823, 1118.607
1186.306, 1093.912
1186.788, 1067.491
1187.270, 1071.537
1187.752, 1092.258
1188.234, 1099.479
1188.716, 1092.449
1189.198, 1095.140
1189.680, 1118.026
1190.162, 1120.393
1190.645, 1090.223
1191.127, 1075.367
1191.609, 1092.953
1192.091, 1115.920
1192.573, 1125.154
1193.055, 1126.386
1193.537, 1129.700
1194.019, 1132.698
1194.501, 1121.743
1194.984, 1103.357
1195.466, 1105.086
1195.948, 1122.203
1196.430, 1124.025
1196.912, 1105.019
1197.394, 1092.236
1197.876, 1103.595
1198.358, 1115.603
1198.841, 1106.142
1199.323, 1096.150
1199.805, 1103.039
1200.287, 1115.287
1200.769, 1123.671
1201.251, 1127.114
1201.733, 1123.939
1202.215, 1114.036
1202.698, 1109.081
1203.180, 1108.369
1203.662, 1116.148
1204.144, 1141.195
1204.626, 1151.714
1205.108, 1134.157
1205.590, 1114.377
1206.072, 1110.220
1206.554, 1116.018
1207.036, 1124.074
1207.519, 1133.021
1208.001, 1136.788
1208.483, 1136.595
1208.965, 1138.562
1209.447, 1141.516
1209.929, 1136.663
1210.411, 1123.715
1210.893, 1115.751
1211.376, 1120.554
1211.858, 1127.583
1212.340, 1126.668
1212.822, 1128.027
1213.304, 1146.084
1213.786, 1162.912
1214.268, 1158.894
1214.750, 1143.620
1215.233, 1133.578
1215.715, 1129.983
1216.197, 1129.349
1216.679, 1131.254
1217.161, 1137.329
1217.643, 1150.209
1218.125, 1159.093
1218.607, 1160.726
1219.089, 1162.098
1219.572, 1167.805
1220.054, 1171.204
1220.536, 1161.341
1221.018, 1147.203
1221.500, 1156.497
1221.982, 1178.556
1222.464, 1181.801
1222.946, 1171.459
1223.428, 1166.815
1223.911, 1170.161
1224.393, 1172.564
1224.875, 1170.417
1225.357, 1169.615
1225.839, 1179.866
1226.321, 1183.335
1226.803, 1156.540
1227.285, 1137.514
1227.768, 1166.342
1228.250, 1203.891
1228.732, 1198.756
1229.214, 1166.232
1229.696, 1154.122
1230.178, 1164.882
1230.660, 1171.127
1231.142, 1172.095
1231.625, 1175.199
1232.107, 1181.598
1232.589, 1183.291
1233.071, 1177.273
1233.553, 1173.195
1234.035, 1179.702
1234.517, 1188.655
1234.999, 1188.678
1235.481, 1184.272
1235.964, 1181.176
1236.446, 1178.655
##END=



