##NAMES=Amesite
##RRUFFID=R070132
##IDEAL CHEMISTRY=Mg_2_Al(AlSiO_5_)(OH)_4_
##LOCALITY=Saranovskii mine, Saranovskaya Village, Gornozavodskii area, Permskaya Oblast', Middle Urals, Russia
##OWNER=RRUFF
##SOURCE=Michael Scott
##DESCRIPTION=Purple transparent hexagonal prisms, polytype 2H2
##STATUS=The identification of this mineral is confirmed by single-crystal X-ray diffraction and chemical analysis.
##URL=rruff.info/R070132
##MEASURED CHEMISTRY=(Mg_1.87_[box]_0.05_Cr_0.05_Fe^2+^_0.03_)_Σ=2_(Al_0.98_Cr_0.02_)_Σ=1_(Si_1.05_Al_0.95_)O_5_(OH)_4_ ; OH estimated by difference
108.7196, 4461.642
109.2017, 4451.637
109.6838, 4438.156
110.1660, 4436.007
110.6481, 4463.836
111.1302, 4497.030
111.6123, 4509.688
112.0944, 4470.119
112.5765, 4434.119
113.0587, 4421.552
113.5408, 4442.461
114.0229, 4463.284
114.5050, 4475.081
114.9871, 4481.090
115.4692, 4487.433
115.9514, 4495.681
116.4335, 4505.220
116.9156, 4516.274
117.3977, 4532.973
117.8798, 4545.521
118.3619, 4544.683
118.8441, 4533.710
119.3262, 4527.373
119.8083, 4533.941
120.2904, 4549.221
120.7725, 4568.650
121.2546, 4592.147
121.7368, 4618.229
122.2189, 4649.500
122.7010, 4685.792
123.1831, 4715.368
123.6652, 4725.627
124.1473, 4722.237
124.6295, 4716.907
125.1116, 4705.095
125.5937, 4697.393
126.0758, 4712.735
126.5579, 4755.735
127.0400, 4808.653
127.5222, 4850.590
128.0043, 4883.799
128.4864, 4920.542
128.9685, 4974.559
129.4506, 5038.855
129.9328, 5090.894
130.4149, 5123.846
130.8970, 5148.086
131.3791, 5183.334
131.8612, 5230.200
132.3433, 5281.564
132.8255, 5340.174
133.3076, 5404.713
133.7897, 5449.277
134.2718, 5469.839
134.7539, 5465.708
135.2360, 5430.429
135.7182, 5358.667
136.2003, 5271.122
136.6824, 5183.530
137.1645, 5092.563
137.6466, 5019.368
138.1287, 4972.405
138.6109, 4952.973
139.0930, 4939.014
139.5751, 4933.749
140.0572, 4930.434
140.5393, 4916.284
141.0214, 4885.165
141.5036, 4856.495
141.9857, 4838.097
142.4678, 4833.470
142.9499, 4830.262
143.4320, 4828.039
143.9141, 4827.316
144.3963, 4830.561
144.8784, 4843.107
145.3605, 4853.380
145.8426, 4854.125
146.3247, 4830.270
146.8068, 4820.654
147.2890, 4836.074
147.7711, 4873.792
148.2532, 4896.191
148.7353, 4894.095
149.2174, 4882.588
149.6995, 4872.272
150.1817, 4860.296
150.6638, 4852.385
151.1459, 4848.851
151.6280, 4849.588
152.1101, 4855.817
152.5922, 4874.040
153.0744, 4895.270
153.5565, 4910.702
154.0386, 4912.849
154.5207, 4914.751
155.0028, 4920.956
155.4849, 4933.953
155.9671, 4943.307
156.4492, 4945.595
156.9313, 4943.310
157.4134, 4940.382
157.8955, 4933.859
158.3777, 4929.763
158.8598, 4932.251
159.3419, 4947.691
159.8240, 4958.004
160.3061, 4951.382
160.7882, 4934.675
161.2704, 4925.114
161.7525, 4932.526
162.2346, 4947.431
162.7167, 4964.035
163.1988, 4987.012
163.6809, 5004.021
164.1631, 5005.601
164.6452, 4994.630
165.1273, 4984.826
165.6094, 4983.170
166.0915, 4986.252
166.5736, 4990.781
167.0558, 4997.060
167.5379, 5003.403
168.0200, 5005.842
168.5021, 5004.961
168.9842, 5010.268
169.4663, 5033.981
169.9485, 5066.806
170.4306, 5095.321
170.9127, 5110.561
171.3948, 5120.728
171.8769, 5132.209
172.3590, 5145.183
172.8412, 5160.638
173.3233, 5180.991
173.8054, 5204.449
174.2875, 5226.947
174.7696, 5245.078
175.2517, 5261.612
175.7339, 5278.721
176.2160, 5295.607
176.6981, 5317.992
177.1802, 5354.022
177.6623, 5401.710
178.1444, 5452.593
178.6266, 5500.644
179.1087, 5549.273
179.5908, 5605.937
180.0729, 5673.606
180.5550, 5744.581
181.0371, 5804.912
181.5193, 5856.681
182.0014, 5911.043
182.4835, 5974.551
182.9656, 6046.600
183.4477, 6127.942
183.9298, 6219.118
184.4120, 6318.327
184.8941, 6421.751
185.3762, 6530.310
185.8583, 6644.625
186.3404, 6768.316
186.8225, 6899.376
187.3047, 7033.820
187.7868, 7169.256
188.2689, 7307.073
188.7510, 7450.949
189.2331, 7600.340
189.7152, 7755.309
190.1974, 7912.901
190.6795, 8072.780
191.1616, 8241.966
191.6437, 8427.854
192.1258, 8624.760
192.6080, 8804.823
193.0901, 8971.873
193.5722, 9117.508
194.0543, 9235.663
194.5364, 9326.146
195.0185, 9382.761
195.5007, 9386.755
195.9828, 9344.762
196.4649, 9335.840
196.9470, 9365.146
197.4291, 9414.069
197.9112, 9459.222
198.3934, 9500.557
198.8755, 9538.540
199.3576, 9576.586
199.8397, 9615.260
200.3218, 9637.647
200.8039, 9644.119
201.2861, 9633.750
201.7682, 9602.990
202.2503, 9549.869
202.7324, 9485.410
203.2145, 9418.580
203.6966, 9352.556
204.1788, 9256.374
204.6609, 9125.177
205.1430, 8968.542
205.6251, 8805.373
206.1072, 8632.651
206.5893, 8462.852
207.0715, 8306.378
207.5536, 8170.613
208.0357, 8014.815
208.5178, 7826.219
208.9999, 7621.413
209.4820, 7446.839
209.9642, 7311.270
210.4463, 7185.228
210.9284, 7045.829
211.4105, 6883.738
211.8926, 6750.247
212.3747, 6657.203
212.8569, 6595.878
213.3390, 6522.830
213.8211, 6429.608
214.3032, 6342.064
214.7853, 6280.593
215.2674, 6255.146
215.7496, 6227.148
216.2317, 6190.102
216.7138, 6146.136
217.1959, 6108.454
217.6780, 6075.818
218.1601, 6050.791
218.6423, 6037.417
219.1244, 6041.437
219.6065, 6041.388
220.0886, 6028.398
220.5707, 6004.490
221.0528, 6008.017
221.5350, 6051.945
222.0171, 6106.351
222.4992, 6143.481
222.9813, 6148.778
223.4634, 6168.748
223.9455, 6213.192
224.4277, 6282.884
224.9098, 6353.859
225.3919, 6415.959
225.8740, 6491.715
226.3561, 6607.175
226.8382, 6777.576
227.3204, 6955.563
227.8025, 7131.846
228.2846, 7305.555
228.7667, 7481.421
229.2488, 7658.500
229.7310, 7834.276
230.2131, 8004.190
230.6952, 8151.461
231.1773, 8321.335
231.6594, 8526.912
232.1415, 8769.520
232.6237, 9028.884
233.1058, 9305.681
233.5879, 9598.679
234.0700, 9903.469
234.5521, 10203.88
235.0342, 10543.34
235.5164, 10928.39
235.9985, 11358.12
236.4806, 11843.27
236.9627, 12389.26
237.4448, 12978.47
237.9269, 13591.25
238.4091, 14208.43
238.8912, 14875.55
239.3733, 15611.27
239.8554, 16427.05
240.3375, 17257.77
240.8196, 18126.80
241.3018, 18993.72
241.7839, 19843.04
242.2660, 20808.47
242.7481, 21530.34
243.2302, 21925.06
243.7123, 22009.37
244.1945, 21673.60
244.6766, 20805.61
245.1587, 19590.31
245.6408, 18258.82
246.1229, 16675.51
246.6050, 15208.44
247.0872, 13970.33
247.5693, 12980.14
248.0514, 12147.18
248.5335, 11493.12
249.0156, 10981.32
249.4977, 10559.55
249.9799, 10235.28
250.4620, 9989.296
250.9441, 9820.688
251.4262, 9738.115
251.9083, 9701.722
252.3904, 9719.135
252.8726, 9778.302
253.3547, 9857.049
253.8368, 9950.931
254.3189, 10074.22
254.8010, 10238.58
255.2831, 10457.14
255.7653, 10665.27
256.2474, 10854.45
256.7295, 11037.83
257.2116, 11235.03
257.6937, 11447.89
258.1758, 11669.50
258.6580, 11890.60
259.1401, 12103.83
259.6222, 12353.83
260.1043, 12641.48
260.5864, 12963.84
261.0685, 13310.10
261.5507, 13679.56
262.0328, 14072.55
262.5149, 14485.88
262.9970, 14913.38
263.4791, 15402.13
263.9612, 15970.69
264.4434, 16590.07
264.9255, 17208.69
265.4076, 17812.01
265.8897, 18451.19
266.3718, 19163.34
266.8539, 19957.23
267.3361, 20732.07
267.8182, 21476.95
268.3003, 22204.36
268.7824, 22950.20
269.2645, 23722.76
269.7466, 24479.32
270.2288, 25243.30
270.7109, 26027.87
271.1930, 26669.15
271.6751, 27184.76
272.1572, 27542.43
272.6393, 27682.88
273.1215, 27588.38
273.6036, 27351.31
274.0857, 26981.88
274.5678, 26474.01
275.0499, 25940.46
275.5320, 25361.68
276.0142, 24780.54
276.4963, 24254.12
276.9784, 23781.45
277.4605, 23360.56
277.9426, 22998.58
278.4247, 22695.60
278.9069, 22387.28
279.3890, 22067.38
279.8711, 21760.31
280.3532, 21522.95
280.8354, 21364.21
281.3175, 21163.73
281.7996, 20889.11
282.2817, 20538.55
282.7638, 20094.99
283.2459, 19552.18
283.7281, 18935.86
284.2102, 18262.52
284.6923, 17532.19
285.1744, 16789.50
285.6565, 16047.22
286.1386, 15307.98
286.6208, 14601.98
287.1029, 13926.84
287.5850, 13286.24
288.0671, 12670.91
288.5492, 12082.25
289.0313, 11536.03
289.5135, 11046.55
289.9956, 10603.88
290.4777, 10166.39
290.9598, 9730.464
291.4419, 9311.853
291.9240, 8922.956
292.4062, 8563.010
292.8883, 8238.429
293.3704, 7945.525
293.8525, 7689.212
294.3346, 7480.001
294.8167, 7320.736
295.2989, 7184.717
295.7810, 7048.175
296.2631, 6915.608
296.7452, 6796.781
297.2273, 6698.300
297.7094, 6614.992
298.1916, 6532.121
298.6737, 6451.092
299.1558, 6390.403
299.6379, 6379.465
300.1200, 6400.405
300.6021, 6414.525
301.0843, 6408.329
301.5664, 6391.393
302.0485, 6368.941
302.5306, 6342.472
303.0127, 6327.068
303.4948, 6334.824
303.9770, 6360.322
304.4591, 6395.826
304.9412, 6440.491
305.4233, 6492.588
305.9054, 6548.254
306.3875, 6608.591
306.8697, 6680.909
307.3518, 6776.902
307.8339, 6884.384
308.3160, 6989.359
308.7981, 7091.979
309.2802, 7186.026
309.7624, 7252.975
310.2445, 7302.895
310.7266, 7367.400
311.2087, 7481.348
311.6908, 7608.225
312.1729, 7715.289
312.6551, 7789.253
313.1372, 7859.507
313.6193, 7952.876
314.1014, 8055.256
314.5835, 8132.120
315.0656, 8160.502
315.5478, 8165.189
316.0299, 8158.415
316.5120, 8135.304
316.9941, 8118.907
317.4762, 8114.007
317.9583, 8122.003
318.4405, 8145.702
318.9226, 8186.777
319.4047, 8243.135
319.8868, 8311.470
320.3689, 8387.107
320.8510, 8489.635
321.3332, 8627.548
321.8153, 8793.782
322.2974, 8980.321
322.7795, 9229.595
323.2616, 9458.699
323.7437, 9640.829
324.2259, 9769.032
324.7080, 9876.024
325.1901, 9968.859
325.6722, 10040.63
326.1543, 10084.18
326.6364, 10107.81
327.1186, 10094.69
327.6007, 10032.25
328.0828, 9915.467
328.5649, 9803.232
329.0470, 9695.471
329.5291, 9592.065
330.0113, 9493.885
330.4934, 9411.470
330.9755, 9316.994
331.4576, 9198.801
331.9397, 9060.165
332.4218, 8939.328
332.9040, 8830.260
333.3861, 8745.788
333.8682, 8696.569
334.3503, 8691.195
334.8324, 8698.340
335.3145, 8710.192
335.7967, 8732.277
336.2788, 8792.602
336.7609, 8903.104
337.2430, 9027.437
337.7251, 9143.702
338.2072, 9253.966
338.6894, 9351.979
339.1715, 9433.469
339.6536, 9507.084
340.1357, 9599.889
340.6178, 9720.450
341.0999, 9820.500
341.5821, 9870.307
342.0642, 9869.643
342.5463, 9863.764
343.0284, 9855.479
343.5105, 9840.221
343.9926, 9805.631
344.4748, 9752.340
344.9569, 9702.597
345.4390, 9676.685
345.9211, 9665.404
346.4032, 9631.188
346.8853, 9574.305
347.3675, 9492.597
347.8496, 9387.021
348.3317, 9256.679
348.8138, 9093.496
349.2959, 8878.827
349.7780, 8637.675
350.2602, 8404.752
350.7423, 8181.103
351.2244, 7964.131
351.7065, 7736.847
352.1887, 7514.636
352.6708, 7333.868
353.1529, 7216.966
353.6350, 7135.841
354.1171, 7060.403
354.5992, 6992.002
355.0814, 6943.631
355.5635, 6929.675
356.0456, 6937.930
356.5277, 6955.880
357.0098, 6985.383
357.4919, 7015.968
357.9741, 7035.112
358.4562, 7049.115
358.9383, 7076.093
359.4204, 7134.094
359.9025, 7201.835
360.3846, 7261.574
360.8668, 7300.887
361.3489, 7357.823
361.8310, 7456.648
362.3131, 7581.167
362.7952, 7703.538
363.2773, 7793.600
363.7595, 7897.564
364.2416, 8037.687
364.7237, 8223.447
365.2058, 8409.939
365.6879, 8582.667
366.1700, 8753.807
366.6522, 8935.704
367.1343, 9135.933
367.6164, 9340.247
368.0985, 9543.532
368.5806, 9744.741
369.0627, 9966.013
369.5449, 10220.72
370.0270, 10484.86
370.5091, 10743.97
370.9912, 10975.22
371.4733, 11242.88
371.9554, 11558.38
372.4376, 11915.67
372.9197, 12279.00
373.4018, 12649.78
373.8839, 13018.48
374.3660, 13393.90
374.8481, 13789.24
375.3303, 14123.82
375.8124, 14398.29
376.2945, 14605.22
376.7766, 14734.52
377.2587, 14784.49
377.7408, 14760.05
378.2230, 14650.49
378.7051, 14458.64
379.1872, 14233.45
379.6693, 13970.58
380.1514, 13694.58
380.6335, 13437.46
381.1157, 13197.13
381.5978, 12974.88
382.0799, 12766.00
382.5620, 12576.51
383.0441, 12419.48
383.5262, 12293.47
384.0084, 12205.16
384.4905, 12174.41
384.9726, 12185.38
385.4547, 12198.32
385.9368, 12200.70
386.4189, 12202.57
386.9011, 12211.99
387.3832, 12229.93
387.8653, 12260.95
388.3474, 12294.88
388.8295, 12349.14
389.3116, 12444.22
389.7938, 12587.29
390.2759, 12759.78
390.7580, 12963.34
391.2401, 13188.60
391.7222, 13417.48
392.2043, 13654.39
392.6865, 13882.53
393.1686, 14094.18
393.6507, 14283.45
394.1328, 14466.67
394.6149, 14631.48
395.0970, 14799.06
395.5792, 14993.15
396.0613, 15184.95
396.5434, 15436.92
397.0255, 15771.90
397.5076, 16187.25
397.9897, 16650.88
398.4719, 17157.23
398.9540, 17714.19
399.4361, 18327.46
399.9182, 19025.84
400.4003, 19737.89
400.8824, 20456.78
401.3646, 21189.71
401.8467, 21951.18
402.3288, 22754.02
402.8109, 23558.14
403.2930, 24370.29
403.7751, 25235.37
404.2573, 25931.45
404.7394, 26469.78
405.2215, 26825.52
405.7036, 26935.37
406.1857, 26784.46
406.6678, 26496.26
407.1500, 26072.04
407.6321, 25536.27
408.1142, 25032.74
408.5963, 24562.50
409.0784, 24145.86
409.5605, 23827.30
410.0427, 23592.02
410.5248, 23364.55
411.0069, 23166.05
411.4890, 22914.96
411.9711, 22477.23
412.4532, 21860.73
412.9354, 21119.82
413.4175, 20270.90
413.8996, 19341.23
414.3817, 18356.33
414.8638, 17306.51
415.3459, 16281.45
415.8281, 15370.61
416.3102, 14549.18
416.7923, 13769.80
417.2744, 13001.38
417.7565, 12290.68
418.2386, 11697.01
418.7208, 11222.22
419.2029, 10775.90
419.6850, 10298.74
420.1671, 9837.224
420.6492, 9427.880
421.1313, 9095.152
421.6135, 8806.027
422.0956, 8549.375
422.5777, 8327.525
423.0598, 8139.722
423.5420, 8006.956
424.0241, 7894.730
424.5062, 7786.712
424.9883, 7689.799
425.4704, 7584.908
425.9525, 7454.896
426.4347, 7322.385
426.9168, 7230.286
427.3989, 7196.177
427.8810, 7167.125
428.3631, 7124.115
428.8452, 7066.142
429.3274, 7027.000
429.8095, 7008.917
430.2916, 7006.451
430.7737, 7018.603
431.2558, 7046.327
431.7379, 7069.504
432.2201, 7080.376
432.7022, 7086.736
433.1843, 7113.187
433.6664, 7159.462
434.1485, 7203.998
434.6306, 7223.745
435.1128, 7230.256
435.5949, 7258.241
436.0770, 7314.348
436.5591, 7380.161
437.0412, 7437.266
437.5233, 7486.751
438.0055, 7530.670
438.4876, 7569.303
438.9697, 7603.371
439.4518, 7633.632
439.9339, 7660.188
440.4160, 7681.001
440.8982, 7692.405
441.3803, 7698.535
441.8624, 7703.009
442.3445, 7695.528
442.8266, 7700.344
443.3087, 7735.562
443.7909, 7791.662
444.2730, 7837.526
444.7551, 7857.701
445.2372, 7873.320
445.7193, 7893.299
446.2014, 7919.518
446.6836, 7947.187
447.1657, 7981.231
447.6478, 8014.338
448.1299, 8037.987
448.6120, 8051.359
449.0941, 8055.740
449.5763, 8047.357
450.0584, 8027.832
450.5405, 8020.080
451.0226, 8027.780
451.5047, 8038.820
451.9868, 8043.228
452.4690, 8039.900
452.9511, 8044.460
453.4332, 8061.093
453.9153, 8081.786
454.3974, 8089.108
454.8795, 8083.779
455.3617, 8080.227
455.8438, 8087.155
456.3259, 8100.920
456.8080, 8111.973
457.2901, 8119.815
457.7722, 8128.445
458.2544, 8147.989
458.7365, 8169.949
459.2186, 8177.022
459.7007, 8151.115
460.1828, 8124.181
460.6649, 8120.147
461.1471, 8136.883
461.6292, 8166.649
462.1113, 8216.303
462.5934, 8270.734
463.0755, 8314.410
463.5576, 8335.134
464.0398, 8381.930
464.5219, 8482.578
465.0040, 8613.341
465.4861, 8743.709
465.9682, 8854.364
466.4503, 8979.362
466.9325, 9122.810
467.4146, 9284.381
467.8967, 9477.125
468.3788, 9714.431
468.8609, 9967.837
469.3430, 10220.84
469.8252, 10471.26
470.3073, 10730.11
470.7894, 11005.67
471.2715, 11282.29
471.7536, 11526.90
472.2357, 11736.11
472.7179, 11937.33
473.2000, 12147.86
473.6821, 12360.87
474.1642, 12545.23
474.6463, 12702.27
475.1284, 12816.69
475.6106, 12877.53
476.0927, 12884.43
476.5748, 12834.07
477.0569, 12718.93
477.5390, 12558.81
478.0211, 12362.93
478.5033, 12138.24
478.9854, 11906.00
479.4675, 11667.97
479.9496, 11436.46
480.4317, 11220.87
480.9138, 11024.19
481.3960, 10842.16
481.8781, 10672.10
482.3602, 10515.80
482.8423, 10377.04
483.3244, 10271.70
483.8065, 10165.79
484.2887, 10038.40
484.7708, 9899.296
485.2529, 9798.951
485.7350, 9766.620
486.2171, 9742.955
486.6992, 9703.257
487.1814, 9639.835
487.6635, 9588.526
488.1456, 9554.976
488.6277, 9527.278
489.1098, 9490.981
489.5919, 9445.623
490.0741, 9392.886
490.5562, 9334.658
491.0383, 9268.136
491.5204, 9185.520
492.0026, 9086.103
492.4847, 8970.202
492.9668, 8835.545
493.4489, 8684.971
493.9310, 8523.414
494.4131, 8352.803
494.8953, 8171.510
495.3774, 7968.409
495.8595, 7753.596
496.3416, 7557.838
496.8237, 7402.182
497.3058, 7259.573
497.7880, 7101.254
498.2701, 6932.635
498.7522, 6785.007
499.2343, 6684.911
499.7164, 6605.239
500.1985, 6526.072
500.6807, 6440.909
501.1628, 6365.735
501.6449, 6302.658
502.1270, 6250.987
502.6091, 6208.823
503.0912, 6173.773
503.5734, 6150.790
504.0555, 6145.004
504.5376, 6155.373
505.0197, 6156.302
505.5018, 6140.180
505.9839, 6129.297
506.4661, 6142.321
506.9482, 6182.007
507.4303, 6217.503
507.9124, 6246.208
508.3945, 6270.241
508.8766, 6284.100
509.3588, 6291.015
509.8409, 6319.665
510.3230, 6402.440
510.8051, 6505.793
511.2872, 6554.057
511.7693, 6551.667
512.2515, 6562.471
512.7336, 6642.883
513.2157, 6758.552
513.6978, 6868.111
514.1799, 6957.388
514.6620, 7054.196
515.1442, 7182.017
515.6263, 7326.791
516.1084, 7462.678
516.5905, 7559.350
517.0726, 7669.909
517.5547, 7818.272
518.0369, 8006.490
518.5190, 8183.982
519.0011, 8337.908
519.4832, 8490.578
519.9653, 8654.938
520.4474, 8832.460
520.9296, 9017.202
521.4117, 9216.745
521.8938, 9417.467
522.3759, 9591.136
522.8580, 9733.431
523.3401, 9881.474
523.8223, 10055.99
524.3044, 10244.39
524.7865, 10404.65
525.2686, 10535.23
525.7507, 10657.11
526.2328, 10805.12
526.7150, 10952.68
527.1971, 11044.54
527.6792, 11067.11
528.1613, 11053.46
528.6434, 11025.86
529.1255, 10984.17
529.6077, 10927.67
530.0898, 10853.45
530.5719, 10766.74
531.0540, 10673.56
531.5361, 10572.13
532.0182, 10446.24
532.5004, 10276.66
532.9825, 10092.71
533.4646, 9912.685
533.9467, 9744.902
534.4288, 9559.406
534.9109, 9328.815
535.3931, 9096.887
535.8752, 8924.668
536.3573, 8834.659
536.8394, 8739.598
537.3215, 8619.909
537.8036, 8481.403
538.2858, 8341.007
538.7679, 8195.966
539.2500, 8063.921
539.7321, 7961.044
540.2142, 7880.595
540.6964, 7796.673
541.1785, 7706.810
541.6606, 7624.035
542.1427, 7570.566
542.6248, 7533.332
543.1069, 7487.679
543.5891, 7418.386
544.0712, 7346.942
544.5533, 7286.768
545.0354, 7236.151
545.5175, 7189.885
545.9996, 7148.247
546.4818, 7108.558
546.9639, 7066.890
547.4460, 7019.249
547.9281, 6989.052
548.4102, 6997.597
548.8923, 7009.997
549.3745, 6998.032
549.8566, 6947.349
550.3387, 6903.531
550.8208, 6869.130
551.3029, 6844.521
551.7850, 6839.392
552.2672, 6859.205
552.7493, 6856.496
553.2314, 6800.604
553.7135, 6706.844
554.1956, 6635.143
554.6777, 6585.733
555.1599, 6544.412
555.6420, 6506.236
556.1241, 6466.830
556.6062, 6416.430
557.0883, 6350.038
557.5704, 6284.600
558.0526, 6238.475
558.5347, 6201.183
559.0168, 6155.040
559.4989, 6078.870
559.9810, 6008.216
560.4631, 5958.201
560.9453, 5927.507
561.4274, 5899.780
561.9095, 5873.150
562.3916, 5849.192
562.8737, 5828.401
563.3558, 5810.996
563.8380, 5799.170
564.3201, 5800.060
564.8022, 5797.091
565.2843, 5763.372
565.7664, 5693.317
566.2485, 5643.893
566.7307, 5628.877
567.2128, 5637.287
567.6949, 5653.899
568.1770, 5676.528
568.6591, 5685.601
569.1412, 5657.856
569.6234, 5615.552
570.1055, 5593.300
570.5876, 5592.223
571.0697, 5588.884
571.5518, 5567.008
572.0339, 5535.660
572.5161, 5502.317
572.9982, 5461.199
573.4803, 5432.051
573.9624, 5431.860
574.4445, 5445.600
574.9266, 5446.665
575.4088, 5427.590
575.8909, 5402.090
576.3730, 5368.054
576.8551, 5327.926
577.3372, 5303.705
577.8193, 5301.021
578.3015, 5300.989
578.7836, 5290.321
579.2657, 5269.398
579.7478, 5260.568
580.2299, 5266.841
580.7120, 5273.542
581.1942, 5261.055
581.6763, 5234.775
582.1584, 5211.046
582.6405, 5195.620
583.1226, 5183.073
583.6047, 5166.582
584.0869, 5148.739
584.5690, 5136.399
585.0511, 5144.943
585.5332, 5149.499
586.0153, 5132.318
586.4974, 5091.820
586.9796, 5058.188
587.4617, 5044.801
587.9438, 5033.963
588.4259, 5014.104
588.9080, 4972.604
589.3901, 4950.072
589.8723, 4955.439
590.3544, 4970.760
590.8365, 4971.210
591.3186, 4956.141
591.8007, 4930.621
592.2828, 4889.958
592.7650, 4845.141
593.2471, 4824.361
593.7292, 4825.929
594.2113, 4833.283
594.6934, 4842.735
595.1755, 4849.138
595.6577, 4841.826
596.1398, 4820.188
596.6219, 4802.883
597.1040, 4810.164
597.5862, 4822.773
598.0683, 4821.213
598.5504, 4784.503
599.0325, 4762.297
599.5146, 4779.280
599.9968, 4813.888
600.4789, 4830.546
600.9610, 4817.606
601.4431, 4804.709
601.9252, 4798.463
602.4073, 4796.973
602.8895, 4789.486
603.3716, 4774.811
603.8537, 4759.227
604.3358, 4743.157
604.8179, 4728.309
605.3000, 4724.105
605.7822, 4731.172
606.2643, 4744.631
606.7464, 4769.288
607.2285, 4795.140
607.7106, 4804.220
608.1927, 4787.236
608.6749, 4763.998
609.1570, 4743.880
609.6391, 4726.937
610.1212, 4713.908
610.6033, 4699.879
611.0854, 4694.871
611.5676, 4706.542
612.0497, 4732.734
612.5318, 4753.411
613.0139, 4770.850
613.4960, 4779.284
613.9781, 4771.695
614.4603, 4745.651
614.9424, 4738.057
615.4245, 4753.143
615.9066, 4772.722
616.3887, 4777.703
616.8708, 4770.849
617.3530, 4769.890
617.8351, 4782.339
618.3172, 4788.444
618.7993, 4747.543
619.2814, 4683.848
619.7635, 4649.170
620.2457, 4688.700
620.7278, 4742.522
621.2099, 4785.663
621.6920, 4816.646
622.1741, 4830.583
622.6563, 4807.264
623.1384, 4783.710
623.6205, 4776.189
624.1026, 4787.547
624.5847, 4797.015
625.0668, 4805.988
625.5490, 4810.993
626.0311, 4804.971
626.5132, 4786.031
626.9953, 4786.346
627.4774, 4814.979
627.9595, 4846.625
628.4417, 4837.012
628.9238, 4797.048
629.4059, 4770.406
629.8880, 4779.307
630.3701, 4799.750
630.8522, 4812.582
631.3344, 4817.233
631.8165, 4812.361
632.2986, 4781.160
632.7807, 4754.045
633.2628, 4749.743
633.7449, 4770.796
634.2271, 4789.854
634.7092, 4812.038
635.1913, 4824.400
635.6734, 4816.029
636.1555, 4773.648
636.6376, 4754.032
637.1198, 4762.617
637.6019, 4784.153
638.0840, 4804.050
638.5661, 4821.874
639.0482, 4830.006
639.5303, 4823.412
640.0125, 4812.492
640.4946, 4807.381
640.9767, 4809.908
641.4588, 4825.507
641.9409, 4880.924
642.4230, 4930.563
642.9052, 4933.037
643.3873, 4894.739
643.8694, 4866.891
644.3515, 4870.028
644.8336, 4883.460
645.3157, 4897.025
645.7979, 4909.062
646.2800, 4927.561
646.7621, 4955.687
647.2442, 4985.749
647.7263, 5012.436
648.2084, 5036.492
648.6906, 5050.076
649.1727, 5050.454
649.6548, 5045.284
650.1369, 5041.430
650.6190, 5040.513
651.1011, 5048.816
651.5833, 5073.454
652.0654, 5102.429
652.5475, 5123.116
653.0296, 5138.588
653.5117, 5157.632
653.9938, 5184.237
654.4760, 5214.958
654.9581, 5249.753
655.4402, 5288.707
655.9223, 5324.722
656.4044, 5359.415
656.8865, 5388.939
657.3687, 5409.238
657.8508, 5417.207
658.3329, 5435.232
658.8150, 5466.010
659.2971, 5498.806
659.7792, 5521.847
660.2614, 5536.827
660.7435, 5550.017
661.2256, 5561.390
661.7077, 5575.164
662.1898, 5593.416
662.6719, 5617.748
663.1541, 5651.246
663.6362, 5703.817
664.1183, 5757.429
664.6004, 5798.844
665.0825, 5833.381
665.5646, 5879.420
666.0468, 5940.859
666.5289, 6014.100
667.0110, 6104.055
667.4931, 6210.028
667.9752, 6297.189
668.4573, 6357.483
668.9395, 6421.495
669.4216, 6511.169
669.9037, 6622.874
670.3858, 6738.883
670.8679, 6858.555
671.3500, 6981.526
671.8322, 7106.514
672.3143, 7233.238
672.7964, 7361.069
673.2785, 7485.630
673.7606, 7622.238
674.2427, 7784.054
674.7249, 7960.309
675.2070, 8135.850
675.6891, 8319.437
676.1712, 8484.120
676.6533, 8616.063
677.1354, 8729.144
677.6176, 8870.009
678.0997, 9048.270
678.5818, 9216.702
679.0639, 9353.395
679.5460, 9467.729
680.0281, 9608.363
680.5103, 9772.800
680.9924, 9920.468
681.4745, 10016.11
681.9566, 10080.42
682.4387, 10147.41
682.9208, 10220.61
683.4030, 10254.45
683.8851, 10212.79
684.3672, 10128.45
684.8493, 10024.74
685.3314, 9893.479
685.8135, 9765.253
686.2957, 9641.612
686.7778, 9520.789
687.2599, 9394.929
687.7420, 9253.976
688.2241, 9151.735
688.7062, 9101.393
689.1884, 9082.797
689.6705, 9053.771
690.1526, 9020.613
690.6347, 9021.576
691.1168, 9075.045
691.5989, 9165.948
692.0811, 9280.862
692.5632, 9419.416
693.0453, 9579.728
693.5274, 9756.032
694.0095, 9960.504
694.4916, 10210.84
694.9738, 10508.78
695.4559, 10789.02
695.9380, 11019.94
696.4201, 11270.70
696.9022, 11580.28
697.3843, 11952.54
697.8665, 12332.99
698.3486, 12723.65
698.8307, 13115.60
699.3128, 13494.12
699.7949, 13864.31
700.2770, 14237.52
700.7592, 14615.83
701.2413, 14994.39
701.7234, 15364.37
702.2055, 15733.67
702.6876, 16118.11
703.1697, 16558.35
703.6519, 16950.34
704.1340, 17282.45
704.6161, 17541.68
705.0982, 17714.65
705.5803, 17805.76
706.0624, 17799.74
706.5446, 17681.92
707.0267, 17472.19
707.5088, 17234.05
707.9909, 16968.59
708.4730, 16614.21
708.9551, 16112.57
709.4373, 15523.55
709.9194, 14942.64
710.4015, 14371.98
710.8836, 13812.28
711.3657, 13263.81
711.8478, 12718.75
712.3300, 12168.68
712.8121, 11607.70
713.2942, 11084.06
713.7763, 10611.29
714.2584, 10179.34
714.7405, 9798.517
715.2227, 9475.231
715.7048, 9154.206
716.1869, 8832.504
716.6690, 8527.478
717.1511, 8269.100
717.6332, 8048.204
718.1154, 7823.462
718.5975, 7583.148
719.0796, 7362.522
719.5617, 7205.585
720.0438, 7087.865
720.5259, 6969.216
721.0081, 6839.903
721.4902, 6705.843
721.9723, 6558.677
722.4544, 6410.226
722.9365, 6276.410
723.4186, 6155.071
723.9008, 6055.475
724.3829, 5984.168
724.8650, 5932.627
725.3471, 5872.027
725.8292, 5800.691
726.3113, 5739.485
726.7935, 5705.294
727.2756, 5681.532
727.7577, 5633.431
728.2398, 5565.421
728.7219, 5500.767
729.2040, 5448.869
729.6862, 5408.391
730.1683, 5386.423
730.6504, 5383.523
731.1325, 5361.998
731.6146, 5292.208
732.0967, 5223.524
732.5789, 5178.681
733.0610, 5161.110
733.5431, 5144.249
734.0252, 5128.438
734.5073, 5113.033
734.9894, 5102.197
735.4716, 5091.986
735.9537, 5060.921
736.4358, 5003.030
736.9179, 4952.643
737.4000, 4949.165
737.8821, 4967.698
738.3643, 4978.845
738.8464, 4975.821
739.3286, 4964.131
739.8107, 4938.493
740.2928, 4907.933
740.7749, 4884.193
741.2570, 4871.003
741.7391, 4855.260
742.2213, 4833.019
742.7034, 4810.310
743.1855, 4800.383
743.6676, 4802.111
744.1497, 4804.600
744.6318, 4806.127
745.1140, 4804.092
745.5961, 4793.865
746.0782, 4777.405
746.5603, 4759.761
747.0424, 4733.462
747.5245, 4716.095
748.0067, 4725.737
748.4888, 4755.211
748.9709, 4758.810
749.4530, 4719.599
749.9351, 4680.625
750.4172, 4654.162
750.8994, 4639.968
751.3815, 4643.746
751.8636, 4666.840
752.3457, 4682.435
752.8278, 4663.526
753.3099, 4629.663
753.7921, 4616.460
754.2742, 4623.787
754.7563, 4633.492
755.2384, 4639.930
755.7205, 4641.237
756.2026, 4634.480
756.6848, 4617.009
757.1669, 4603.797
757.6490, 4598.695
758.1311, 4594.202
758.6132, 4582.091
759.0953, 4559.479
759.5775, 4559.559
760.0596, 4587.516
760.5417, 4616.143
761.0238, 4607.370
761.5059, 4579.490
761.9880, 4577.566
762.4702, 4615.204
762.9523, 4649.397
763.4344, 4646.281
763.9165, 4625.857
764.3986, 4609.915
764.8807, 4603.337
765.3629, 4600.458
765.8450, 4602.287
766.3271, 4606.360
766.8092, 4608.058
767.2913, 4605.798
767.7734, 4613.536
768.2556, 4636.396
768.7377, 4663.378
769.2198, 4677.433
769.7019, 4681.529
770.1840, 4683.668
770.6661, 4681.753
771.1483, 4685.807
771.6304, 4707.018
772.1125, 4738.501
772.5946, 4767.014
773.0767, 4784.381
773.5588, 4805.070
774.0410, 4834.047
774.5231, 4867.160
775.0052, 4891.047
775.4873, 4903.495
775.9694, 4921.344
776.4515, 4953.093
776.9337, 4991.349
777.4158, 5017.066
777.8979, 5034.214
778.3800, 5059.211
778.8621, 5115.417
779.3442, 5169.920
779.8264, 5199.587
780.3085, 5207.357
780.7906, 5212.349
781.2727, 5210.856
781.7548, 5215.813
782.2369, 5233.876
782.7191, 5262.954
783.2012, 5282.676
783.6833, 5291.460
784.1654, 5300.552
784.6475, 5324.519
785.1296, 5351.740
785.6118, 5345.943
786.0939, 5311.282
786.5760, 5285.063
787.0581, 5293.271
787.5402, 5317.229
788.0223, 5349.898
788.5045, 5391.534
788.9866, 5419.618
789.4687, 5426.002
789.9508, 5425.506
790.4329, 5425.206
790.9150, 5425.327
791.3972, 5418.488
791.8793, 5403.618
792.3614, 5389.266
792.8435, 5384.205
793.3256, 5383.916
793.8077, 5376.058
794.2899, 5359.078
794.7720, 5352.180
795.2541, 5376.544
795.7362, 5408.690
796.2183, 5429.802
796.7004, 5432.511
797.1826, 5441.883
797.6647, 5463.735
798.1468, 5485.278
798.6289, 5488.157
799.1110, 5471.704
799.5931, 5495.547
800.0753, 5566.687
800.5574, 5649.349
801.0395, 5708.904
801.5216, 5755.835
802.0037, 5807.603
802.4858, 5867.422
802.9680, 5927.610
803.4501, 5982.643
803.9322, 6037.458
804.4143, 6095.521
804.8964, 6148.018
805.3785, 6223.355
805.8607, 6326.298
806.3428, 6444.088
806.8249, 6568.748
807.3070, 6698.985
807.7891, 6822.872
808.2712, 6938.460
808.7534, 7049.365
809.2355, 7152.795
809.7176, 7256.633
810.1997, 7370.016
810.6818, 7495.458
811.1639, 7631.653
811.6461, 7781.631
812.1282, 7941.341
812.6103, 8104.308
813.0924, 8271.011
813.5745, 8443.732
814.0566, 8622.971
814.5388, 8803.472
815.0209, 8977.746
815.5030, 9147.172
815.9851, 9312.282
816.4672, 9473.051
816.9493, 9634.554
817.4315, 9798.620
817.9136, 9964.720
818.3957, 10133.71
818.8778, 10313.02
819.3599, 10486.91
819.8420, 10668.36
820.3242, 10831.53
820.8063, 10930.71
821.2884, 10955.42
821.7705, 11015.40
822.2526, 11140.91
822.7347, 11267.16
823.2169, 11309.50
823.6990, 11287.75
824.1811, 11245.06
824.6632, 11197.80
825.1453, 11123.71
825.6274, 10997.19
826.1096, 10841.85
826.5917, 10690.76
827.0738, 10583.24
827.5559, 10408.68
828.0380, 10139.52
828.5201, 9828.184
829.0023, 9557.817
829.4844, 9327.002
829.9665, 9090.910
830.4486, 8838.473
830.9307, 8589.315
831.4128, 8371.512
831.8950, 8172.756
832.3771, 7970.542
832.8592, 7751.292
833.3413, 7544.531
833.8234, 7350.784
834.3055, 7174.431
834.7877, 7025.843
835.2698, 6912.148
835.7519, 6788.552
836.2340, 6643.820
836.7161, 6499.791
837.1982, 6386.627
837.6804, 6296.778
838.1625, 6207.259
838.6446, 6109.075
839.1267, 6016.428
839.6088, 5942.325
840.0909, 5877.161
840.5731, 5810.593
841.0552, 5745.237
841.5373, 5669.197
842.0194, 5574.053
842.5015, 5477.373
842.9836, 5403.608
843.4658, 5352.033
843.9479, 5309.929
844.4300, 5278.302
844.9121, 5244.629
845.3942, 5193.103
845.8763, 5131.486
846.3585, 5070.327
846.8406, 5007.206
847.3227, 4954.781
847.8048, 4928.464
848.2869, 4907.784
848.7690, 4868.387
849.2512, 4802.228
849.7333, 4751.962
850.2154, 4722.744
850.6975, 4704.888
851.1796, 4696.517
851.6617, 4689.186
852.1439, 4654.497
852.6260, 4576.774
853.1081, 4511.287
853.5902, 4503.425
854.0723, 4520.591
854.5544, 4529.257
855.0366, 4517.497
855.5187, 4510.818
856.0008, 4509.963
856.4829, 4513.026
856.9650, 4523.347
857.4471, 4538.738
857.9293, 4532.607
858.4114, 4499.554
858.8935, 4465.607
859.3756, 4458.572
859.8577, 4462.731
860.3398, 4459.478
860.8220, 4442.940
861.3041, 4428.256
861.7862, 4419.313
862.2683, 4413.137
862.7504, 4409.377
863.2325, 4409.912
863.7147, 4399.157
864.1968, 4374.625
864.6789, 4351.913
865.1610, 4345.594
865.6431, 4350.871
866.1252, 4362.115
866.6074, 4379.248
867.0895, 4389.880
867.5716, 4377.748
868.0537, 4364.703
868.5358, 4369.858
869.0179, 4398.700
869.5001, 4407.786
869.9822, 4388.900
870.4643, 4371.903
870.9464, 4381.559
871.4285, 4410.675
871.9106, 4432.283
872.3928, 4446.135
872.8749, 4455.970
873.3570, 4464.483
873.8391, 4469.994
874.3212, 4468.182
874.8033, 4458.565
875.2855, 4459.437
875.7676, 4486.643
876.2497, 4501.152
876.7318, 4479.507
877.2139, 4429.359
877.6960, 4409.477
878.1782, 4418.878
878.6603, 4427.279
879.1424, 4406.248
879.6245, 4382.118
880.1067, 4389.569
880.5888, 4421.291
881.0709, 4439.704
881.5530, 4424.170
882.0352, 4402.806
882.5173, 4381.617
882.9994, 4361.411
883.4815, 4345.406
883.9636, 4333.588
884.4457, 4326.023
884.9279, 4322.044
885.4100, 4323.094
885.8921, 4339.097
886.3742, 4362.260
886.8563, 4372.100
887.3384, 4345.689
887.8206, 4320.363
888.3027, 4313.479
888.7848, 4315.817
889.2669, 4306.635
889.7490, 4281.118
890.2311, 4263.827
890.7133, 4261.707
891.1954, 4266.566
891.6775, 4268.086
892.1596, 4265.527
892.6417, 4255.722
893.1238, 4230.686
893.6060, 4211.373
894.0881, 4211.173
894.5702, 4222.034
895.0523, 4233.670
895.5344, 4249.383
896.0165, 4255.357
896.4987, 4246.083
896.9808, 4236.642
897.4629, 4252.792
897.9450, 4285.435
898.4271, 4298.568
898.9092, 4283.449
899.3914, 4266.577
899.8735, 4269.854
900.3556, 4279.922
900.8377, 4285.029
901.3198, 4284.761
901.8019, 4273.928
902.2841, 4246.874
902.7662, 4218.928
903.2483, 4199.174
903.7304, 4188.249
904.2125, 4195.251
904.6946, 4220.353
905.1768, 4245.497
905.6589, 4254.313
906.1410, 4259.283
906.6231, 4275.486
907.1052, 4304.458
907.5873, 4317.637
908.0695, 4299.396
908.5516, 4281.396
909.0337, 4275.701
909.5158, 4280.804
909.9979, 4290.770
910.4800, 4305.098
910.9622, 4312.947
911.4443, 4300.607
911.9264, 4284.538
912.4085, 4284.104
912.8906, 4294.270
913.3727, 4297.276
913.8549, 4276.211
914.3370, 4262.816
914.8191, 4268.245
915.3012, 4283.387
915.7833, 4280.047
916.2654, 4258.543
916.7476, 4250.666
917.2297, 4271.212
917.7118, 4299.618
918.1939, 4311.449
918.6760, 4314.631
919.1581, 4322.524
919.6403, 4355.761
920.1224, 4370.138
920.6045, 4343.664
921.0866, 4309.847
921.5687, 4310.741
922.0508, 4348.398
922.5330, 4382.739
923.0151, 4410.917
923.4972, 4427.634
923.9793, 4414.682
924.4614, 4393.041
924.9435, 4392.350
925.4257, 4421.434
925.9078, 4452.168
926.3899, 4484.940
926.8720, 4508.824
927.3541, 4513.308
927.8362, 4496.884
928.3184, 4498.926
928.8005, 4521.440
929.2826, 4537.672
929.7647, 4513.493
930.2468, 4480.330
930.7289, 4483.310
931.2111, 4519.839
931.6932, 4556.470
932.1753, 4583.777
932.6574, 4606.561
933.1395, 4626.029
933.6216, 4642.663
934.1038, 4657.002
934.5859, 4668.383
935.0680, 4689.763
935.5501, 4733.617
936.0322, 4780.109
936.5143, 4800.860
936.9965, 4804.503
937.4786, 4809.988
937.9607, 4813.118
938.4428, 4833.063
938.9249, 4876.712
939.4070, 4936.063
939.8892, 5001.675
940.3713, 5074.271
940.8534, 5150.595
941.3355, 5230.301
941.8176, 5312.386
942.2997, 5390.973
942.7819, 5471.156
943.2640, 5557.375
943.7461, 5647.004
944.2282, 5755.624
944.7103, 5902.023
945.1924, 6053.630
945.6746, 6189.306
946.1567, 6306.963
946.6388, 6444.217
947.1209, 6602.834
947.6030, 6764.757
948.0851, 6916.260
948.5673, 7064.731
949.0494, 7218.723
949.5315, 7377.043
950.0136, 7537.225
950.4957, 7712.780
950.9778, 7872.682
951.4600, 8009.062
951.9421, 8123.563
952.4242, 8222.815
952.9063, 8306.545
953.3884, 8368.465
953.8705, 8402.710
954.3527, 8418.591
954.8348, 8434.236
955.3169, 8435.733
955.7990, 8399.853
956.2811, 8293.858
956.7632, 8183.478
957.2454, 8064.187
957.7275, 7954.661
958.2096, 7889.784
958.6917, 7862.723
959.1738, 7807.740
959.6559, 7714.197
960.1381, 7623.881
960.6202, 7571.180
961.1023, 7541.035
961.5844, 7520.256
962.0665, 7507.813
962.5486, 7505.000
963.0308, 7514.070
963.5129, 7528.655
963.9950, 7553.881
964.4771, 7582.042
964.9592, 7561.019
965.4413, 7498.945
965.9235, 7454.351
966.4056, 7478.216
966.8877, 7513.643
967.3698, 7523.683
967.8519, 7515.396
968.3340, 7514.511
968.8162, 7520.144
969.2983, 7539.181
969.7804, 7577.018
970.2625, 7621.948
970.7446, 7656.888
971.2267, 7682.603
971.7089, 7698.467
972.1910, 7700.000
972.6731, 7705.094
973.1552, 7722.606
973.6373, 7749.073
974.1194, 7783.078
974.6016, 7829.779
975.0837, 7860.050
975.5658, 7870.255
976.0479, 7878.238
976.5300, 7904.407
977.0121, 7936.346
977.4943, 7949.248
977.9764, 7943.600
978.4585, 7934.034
978.9406, 7930.159
979.4227, 7920.498
979.9048, 7902.025
980.3870, 7874.477
980.8691, 7838.705
981.3512, 7796.083
981.8333, 7725.835
982.3154, 7612.520
982.7975, 7482.974
983.2797, 7379.367
983.7618, 7284.108
984.2439, 7167.253
984.7260, 7003.770
985.2081, 6842.548
985.6902, 6692.954
986.1724, 6543.433
986.6545, 6375.504
987.1366, 6192.542
987.6187, 6034.398
988.1008, 5904.076
988.5829, 5789.829
989.0651, 5685.815
989.5472, 5590.798
990.0293, 5504.716
990.5114, 5427.466
990.9935, 5354.198
991.4756, 5282.432
991.9578, 5218.052
992.4399, 5160.273
992.9220, 5113.621
993.4041, 5101.214
993.8862, 5114.535
994.3683, 5117.448
994.8505, 5088.682
995.3326, 5052.552
995.8147, 5009.351
996.2968, 4972.270
996.7789, 4962.265
997.2610, 4986.897
997.7432, 5014.434
998.2253, 5043.463
998.7074, 5072.246
999.1895, 5102.188
999.6716, 5130.301
1000.154, 5142.748
1000.636, 5136.534
1001.118, 5156.438
1001.600, 5255.116
1002.082, 5349.549
1002.564, 5394.393
1003.046, 5397.746
1003.529, 5430.010
1004.011, 5491.784
1004.493, 5550.579
1004.975, 5584.145
1005.457, 5615.608
1005.939, 5674.032
1006.421, 5749.222
1006.903, 5819.084
1007.385, 5874.542
1007.868, 5931.324
1008.350, 5993.975
1008.832, 6053.018
1009.314, 6097.662
1009.796, 6127.469
1010.278, 6143.251
1010.760, 6145.023
1011.242, 6130.635
1011.725, 6088.760
1012.207, 6037.729
1012.689, 5994.356
1013.171, 5959.584
1013.653, 5899.186
1014.135, 5803.583
1014.617, 5719.937
1015.099, 5679.250
1015.581, 5654.854
1016.064, 5594.404
1016.546, 5508.893
1017.028, 5426.839
1017.510, 5359.269
1017.992, 5297.198
1018.474, 5244.348
1018.956, 5191.261
1019.438, 5122.378
1019.921, 5037.229
1020.403, 4968.995
1020.885, 4922.239
1021.367, 4883.499
1021.849, 4851.435
1022.331, 4814.504
1022.813, 4751.713
1023.295, 4659.464
1023.778, 4606.627
1024.260, 4616.163
1024.742, 4624.696
1025.224, 4607.772
1025.706, 4573.343
1026.188, 4531.996
1026.670, 4490.168
1027.152, 4471.561
1027.634, 4513.982
1028.117, 4542.074
1028.599, 4498.781
1029.081, 4436.809
1029.563, 4423.502
1030.045, 4470.924
1030.527, 4499.120
1031.009, 4502.576
1031.491, 4497.311
1031.974, 4496.246
1032.456, 4496.302
1032.938, 4491.820
1033.420, 4483.026
1033.902, 4480.578
1034.384, 4490.229
1034.866, 4502.395
1035.348, 4517.147
1035.830, 4530.520
1036.313, 4528.653
1036.795, 4515.030
1037.277, 4506.842
1037.759, 4512.844
1038.241, 4519.699
1038.723, 4521.089
1039.205, 4517.361
1039.687, 4507.451
1040.169, 4485.702
1040.652, 4480.869
1041.134, 4496.576
1041.616, 4510.811
1042.098, 4506.827
1042.580, 4489.570
1043.062, 4458.454
1043.544, 4418.240
1044.026, 4393.077
1044.509, 4414.189
1044.991, 4422.582
1045.473, 4402.234
1045.955, 4363.447
1046.437, 4319.899
1046.919, 4275.229
1047.401, 4259.508
1047.883, 4288.900
1048.365, 4311.281
1048.848, 4266.924
1049.330, 4210.719
1049.812, 4202.625
1050.294, 4255.375
1050.776, 4273.930
1051.258, 4252.104
1051.740, 4224.987
1052.222, 4213.106
1052.704, 4210.216
1053.187, 4207.719
1053.669, 4205.245
1054.151, 4201.683
1054.633, 4202.713
1055.115, 4192.989
1055.597, 4162.512
1056.079, 4128.979
1056.561, 4121.844
1057.044, 4136.661
1057.526, 4136.143
1058.008, 4114.160
1058.490, 4097.696
1058.972, 4116.421
1059.454, 4139.817
1059.936, 4138.623
1060.418, 4114.208
1060.901, 4122.171
1061.383, 4173.144
1061.865, 4199.251
1062.347, 4161.568
1062.829, 4104.655
1063.311, 4100.604
1063.793, 4126.554
1064.275, 4138.534
1064.757, 4108.317
1065.240, 4090.826
1065.722, 4098.073
1066.204, 4109.143
1066.686, 4101.424
1067.168, 4080.213
1067.650, 4080.993
1068.132, 4103.481
1068.614, 4127.929
1069.096, 4149.279
1069.579, 4162.709
1070.061, 4160.891
1070.543, 4149.175
1071.025, 4142.215
1071.507, 4140.572
1071.989, 4138.776
1072.471, 4135.197
1072.953, 4132.930
1073.436, 4136.188
1073.918, 4142.399
1074.400, 4147.896
1074.882, 4151.036
1075.364, 4160.459
1075.846, 4185.266
1076.328, 4198.645
1076.810, 4180.726
1077.292, 4144.556
1077.775, 4127.890
1078.257, 4127.011
1078.739, 4128.240
1079.221, 4127.398
1079.703, 4125.225
1080.185, 4120.413
1080.667, 4115.431
1081.149, 4114.180
1081.631, 4117.001
1082.114, 4111.816
1082.596, 4097.714
1083.078, 4082.299
1083.560, 4073.693
1084.042, 4065.164
1084.524, 4050.194
1085.006, 4029.417
1085.488, 4009.465
1085.971, 3986.007
1086.453, 3979.329
1086.935, 4000.521
1087.417, 4027.189
1087.899, 4021.333
1088.381, 3998.589
1088.863, 3987.881
1089.345, 4001.274
1089.828, 4004.088
1090.310, 3979.932
1090.792, 3956.378
1091.274, 3951.771
1091.756, 3960.195
1092.238, 3946.062
1092.720, 3915.016
1093.202, 3897.550
1093.684, 3926.591
1094.167, 3953.493
1094.649, 3951.579
1095.131, 3935.634
1095.613, 3923.740
1096.095, 3915.341
1096.577, 3919.411
1097.059, 3938.031
1097.541, 3950.977
1098.024, 3931.998
1098.506, 3905.328
1098.988, 3895.141
1099.470, 3900.811
1099.952, 3903.139
1100.434, 3897.292
1100.916, 3898.470
1101.398, 3912.890
1101.880, 3930.421
1102.363, 3938.547
1102.845, 3936.563
1103.327, 3918.819
1103.809, 3877.617
1104.291, 3850.578
1104.773, 3852.490
1105.255, 3864.920
1105.737, 3881.871
1106.219, 3901.608
1106.702, 3915.975
1107.184, 3925.114
1107.666, 3928.984
1108.148, 3923.571
1108.630, 3918.197
1109.112, 3921.453
1109.594, 3924.432
1110.076, 3913.512
1110.559, 3885.415
1111.041, 3878.238
1111.523, 3894.269
1112.005, 3911.185
1112.487, 3910.683
1112.969, 3903.855
1113.451, 3895.381
1113.933, 3888.528
1114.416, 3896.539
1114.898, 3927.298
1115.380, 3949.177
1115.862, 3957.123
1116.344, 3952.607
1116.826, 3927.595
1117.308, 3895.857
1117.790, 3878.214
1118.272, 3878.335
1118.755, 3885.718
1119.237, 3903.731
1119.719, 3919.559
1120.201, 3929.896
1120.683, 3933.229
1121.165, 3919.872
1121.647, 3896.104
1122.129, 3880.729
1122.611, 3880.303
1123.094, 3888.752
1123.576, 3913.383
1124.058, 3938.224
1124.540, 3953.257
1125.022, 3958.556
1125.504, 3948.048
1125.986, 3923.463
1126.468, 3905.954
1126.951, 3916.097
1127.433, 3929.237
1127.915, 3933.854
1128.397, 3929.776
1128.879, 3915.411
1129.361, 3887.324
1129.843, 3873.586
1130.325, 3878.102
1130.807, 3883.590
1131.290, 3861.240
1131.772, 3841.719
1132.254, 3865.990
1132.736, 3929.469
1133.218, 3960.070
1133.700, 3942.381
1134.182, 3930.680
1134.664, 3937.218
1135.146, 3957.067
1135.629, 4001.812
1136.111, 4047.129
1136.593, 4048.852
1137.075, 3988.647
1137.557, 3942.797
1138.039, 3919.237
1138.521, 3914.615
1139.003, 3935.872
1139.486, 3968.149
1139.968, 3966.533
1140.450, 3943.416
1140.932, 3934.098
1141.414, 3960.958
1141.896, 3986.506
1142.378, 4005.333
1142.860, 4014.042
1143.343, 4006.372
1143.825, 3984.195
1144.307, 3962.218
1144.789, 3941.804
1145.271, 3931.911
1145.753, 3947.991
1146.235, 3964.479
1146.717, 3971.684
1147.199, 3971.074
1147.682, 3961.031
1148.164, 3941.142
1148.646, 3934.004
1149.128, 3941.990
1149.610, 3953.631
1150.092, 3958.075
1150.574, 3964.399
1151.056, 3984.706
1151.538, 4013.369
1152.021, 4025.304
1152.503, 4018.670
1152.985, 4006.392
1153.467, 3989.409
1153.949, 3975.699
1154.431, 3976.986
1154.913, 3984.024
1155.395, 3988.442
1155.878, 3989.090
1156.360, 3979.606
1156.842, 3952.108
1157.324, 3947.176
1157.806, 3992.794
1158.288, 4048.738
1158.770, 4052.421
1159.252, 4025.244
1159.734, 4000.503
1160.217, 3982.805
1160.699, 3977.359
1161.181, 3987.632
1161.663, 4000.730
1162.145, 4011.039
1162.627, 4017.090
1163.109, 4008.164
1163.591, 3992.203
1164.073, 3991.279
1164.556, 4038.547
1165.038, 4062.607
1165.520, 4047.393
1166.002, 4024.306
1166.484, 4024.772
1166.966, 4041.797
1167.448, 4055.881
1167.930, 4065.954
1168.413, 4071.820
1168.895, 4069.754
1169.377, 4068.273
1169.859, 4070.499
1170.341, 4073.374
1170.823, 4073.453
1171.305, 4070.181
1171.787, 4059.938
1172.270, 4042.208
1172.752, 4024.111
1173.234, 4001.403
1173.716, 3988.841
1174.198, 3994.160
1174.680, 4012.006
1175.162, 4033.109
1175.644, 4055.077
1176.126, 4060.976
1176.609, 4043.749
1177.091, 4026.459
1177.573, 4013.641
1178.055, 4017.200
1178.537, 4053.302
1179.019, 4113.073
1179.501, 4134.734
1179.983, 4120.837
1180.465, 4114.919
1180.948, 4141.159
1181.430, 4161.494
1181.912, 4132.405
1182.394, 4069.553
1182.876, 4106.636
1183.358, 4129.534
1183.840, 4139.008
1184.322, 4094.857
1184.805, 4119.963
1185.287, 4117.307
1185.769, 4113.513
1186.251, 4148.354
1186.733, 4112.003
1187.215, 4146.231
1187.697, 4151.977
1188.179, 4159.087
1188.661, 4164.095
1189.144, 4165.718
1189.626, 4156.866
1190.108, 4149.762
1190.590, 4161.969
1191.072, 4183.069
1191.554, 4184.022
1192.036, 4155.671
1192.518, 4144.652
1193.000, 4156.333
1193.483, 4175.816
1193.965, 4200.811
1194.447, 4218.223
1194.929, 4202.470
1195.411, 4164.067
1195.893, 4164.432
1196.375, 4221.773
1196.857, 4251.624
1197.340, 4234.482
1197.822, 4206.429
1198.304, 4203.703
1198.786, 4214.301
1199.268, 4228.890
1199.750, 4245.597
1200.232, 4250.568
1200.714, 4238.916
1201.197, 4232.771
1201.679, 4239.147
1202.161, 4250.018
1202.643, 4251.092
1203.125, 4252.464
1203.607, 4272.172
1204.089, 4317.781
1204.571, 4335.970
1205.053, 4318.854
1205.536, 4300.143
1206.018, 4291.921
1206.500, 4290.650
1206.982, 4293.196
1207.464, 4298.530
1207.946, 4305.849
1208.428, 4317.443
1208.910, 4320.496
1209.392, 4311.201
1209.875, 4307.143
1210.357, 4323.633
1210.839, 4343.891
1211.321, 4335.174
1211.803, 4313.148
1212.285, 4306.438
1212.767, 4329.144
1213.249, 4354.625
1213.732, 4386.928
1214.214, 4408.929
1214.696, 4403.793
1215.178, 4384.158
1215.660, 4360.561
1216.142, 4339.315
1216.624, 4336.430
1217.106, 4375.538
1217.589, 4389.623
1218.071, 4369.799
1218.553, 4349.778
1219.035, 4364.025
1219.517, 4392.360
1219.999, 4408.271
1220.481, 4412.514
1220.963, 4409.914
1221.445, 4396.530
1221.927, 4386.689
1222.410, 4380.090
1222.892, 4383.092
1223.374, 4415.140
1223.856, 4452.287
1224.338, 4459.587
1224.820, 4439.922
1225.302, 4418.768
1225.784, 4391.117
1226.267, 4386.675
1226.749, 4414.799
1227.231, 4448.051
1227.713, 4453.823
1228.195, 4446.632
1228.677, 4446.661
1229.159, 4453.861
1229.641, 4446.415
1230.124, 4412.365
1230.606, 4401.996
1231.088, 4430.839
1231.570, 4469.221
1232.052, 4480.557
1232.534, 4480.190
1233.016, 4489.440
1233.498, 4509.884
1233.980, 4510.986
1234.463, 4484.539
1234.945, 4472.194
1235.427, 4489.611
1235.909, 4512.263
1236.391, 4500.363
1236.873, 4481.824
1237.355, 4495.976
1237.837, 4550.122
1238.320, 4573.314
1238.802, 4560.492
1239.284, 4544.394
1239.766, 4534.772
1240.248, 4529.953
1240.730, 4532.466
1241.212, 4535.901
1241.694, 4528.267
1242.177, 4506.837
1242.659, 4515.455
1243.141, 4558.099
1243.623, 4588.469
1244.105, 4581.204
1244.587, 4565.500
1245.069, 4570.227
1245.551, 4582.746
1246.033, 4586.364
1246.516, 4579.025
1246.998, 4586.883
1247.480, 4610.728
1247.962, 4624.992
1248.444, 4609.805
1248.926, 4592.358
1249.408, 4595.169
1249.890, 4608.104
1250.372, 4620.407
1250.855, 4632.196
1251.337, 4633.877
1251.819, 4626.126
1252.301, 4625.681
1252.783, 4653.414
1253.265, 4675.854
1253.747, 4663.375
1254.229, 4640.017
1254.712, 4631.627
1255.194, 4638.606
1255.676, 4654.152
1256.158, 4676.930
1256.640, 4692.509
1257.122, 4686.476
1257.604, 4678.705
1258.086, 4679.366
1258.568, 4682.235
1259.051, 4678.003
1259.533, 4668.557
1260.015, 4683.682
1260.497, 4719.157
1260.979, 4740.727
1261.461, 4714.042
1261.943, 4690.603
1262.425, 4685.500
1262.907, 4692.624
1263.390, 4712.976
1263.872, 4740.726
1264.354, 4744.993
1264.836, 4729.193
1265.318, 4719.713
1265.800, 4732.111
1266.282, 4749.172
1266.764, 4772.782
1267.247, 4790.197
1267.729, 4776.854
1268.211, 4749.093
1268.693, 4755.096
1269.175, 4789.940
1269.657, 4811.946
1270.139, 4793.427
1270.621, 4781.032
1271.104, 4780.408
1271.586, 4785.947
1272.068, 4795.310
1272.550, 4804.585
1273.032, 4807.033
1273.514, 4802.931
1273.996, 4795.362
1274.478, 4776.317
1274.960, 4778.641
1275.443, 4812.188
1275.925, 4845.788
1276.407, 4836.356
1276.889, 4815.729
1277.371, 4827.288
1277.853, 4864.918
1278.335, 4881.347
1278.817, 4867.249
1279.299, 4868.944
1279.782, 4895.866
1280.264, 4919.410
1280.746, 4903.957
1281.228, 4880.265
1281.710, 4877.776
1282.192, 4890.589
1282.674, 4892.152
1283.156, 4881.792
1283.639, 4869.316
1284.121, 4855.465
1284.603, 4850.931
1285.085, 4874.659
1285.567, 4899.819
1286.049, 4907.698
1286.531, 4904.729
1287.013, 4900.964
1287.495, 4897.802
1287.978, 4915.679
1288.460, 4958.793
1288.942, 4983.256
1289.424, 4927.598
1289.906, 4892.845
1290.388, 4930.278
1290.870, 4998.605
1291.352, 5014.667
1291.834, 4991.645
1292.317, 4961.818
1292.799, 4929.621
1293.281, 4929.896
1293.763, 5026.380
1294.245, 5084.415
1294.727, 5062.745
1295.209, 5005.754
1295.691, 4970.161
1296.174, 4955.152
1296.656, 4965.585
1297.138, 5001.990
1297.620, 5029.133
1298.102, 5042.424
1298.584, 5049.448
1299.066, 5051.840
1299.548, 5049.447
1300.031, 5038.447
1300.513, 5025.042
1300.995, 5017.646
1301.477, 5016.328
##END=



