##NAMES=Aminoffite
##RRUFFID=R100055
##IDEAL CHEMISTRY=Ca_3_(BeOH)_2_Si_3_O_10_
##LOCALITY=Langban, Filipstad, Varmland, Sweden
##OWNER=RRUFF
##SOURCE=William W Pinch
##DESCRIPTION=Colorless transparent tetragonal pyramids with basal terminations, co-type sample from Harvard
##STATUS=The identification of this mineral has been confirmed by single-crystal X-ray diffraction.
##URL=rruff.info/R100055
90.97430, 16.46154
91.45642, 16.53846
91.93854, 16.51397
92.42065, 16.33912
92.90277, 15.80283
93.38489, 14.78420
93.86700, 13.87129
94.34912, 13.95216
94.83124, 14.88085
95.31335, 15.82162
95.79547, 16.31393
96.27759, 16.40576
96.75970, 16.25968
97.24182, 15.79404
97.72394, 15.22614
98.20605, 15.02948
98.68817, 15.22684
99.17029, 15.61624
99.65240, 16.07647
100.1345, 16.61345
100.6166, 17.20675
101.0988, 18.03194
101.5809, 18.97178
102.0630, 18.91055
102.5451, 17.44885
103.0272, 15.69566
103.5093, 14.95321
103.9915, 15.64824
104.4736, 16.26663
104.9557, 16.37898
105.4378, 15.88336
105.9199, 15.39866
106.4020, 14.60960
106.8842, 13.98090
107.3663, 14.42925
107.8484, 17.31474
108.3305, 19.69467
108.8126, 20.44040
109.2947, 17.96008
109.7769, 16.49308
110.2590, 16.61303
110.7411, 17.84695
111.2232, 18.72111
111.7053, 19.36024
112.1874, 19.53234
112.6696, 19.12525
113.1517, 17.13259
113.6338, 15.63214
114.1159, 15.17072
114.5980, 15.59958
115.0801, 15.82887
115.5623, 15.13967
116.0444, 14.37871
116.5265, 14.20102
117.0086, 15.38212
117.4907, 16.64399
117.9728, 17.56812
118.4550, 18.13552
118.9371, 18.43850
119.4192, 18.43370
119.9013, 18.20757
120.3834, 17.86947
120.8655, 17.06222
121.3477, 16.41227
121.8298, 16.49224
122.3119, 17.45974
122.7940, 18.50985
123.2761, 18.95774
123.7582, 19.05027
124.2404, 19.33721
124.7225, 20.46732
125.2046, 21.83547
125.6867, 22.58041
126.1688, 22.37749
126.6509, 22.03945
127.1331, 22.53891
127.6152, 23.73789
128.0973, 24.95051
128.5794, 25.50764
129.0615, 25.72398
129.5436, 26.39839
130.0258, 27.88477
130.5079, 29.71062
130.9900, 30.94211
131.4721, 31.56932
131.9542, 32.30972
132.4363, 33.44437
132.9185, 35.07069
133.4006, 37.94117
133.8827, 42.75613
134.3648, 48.85973
134.8469, 54.03697
135.3290, 58.06869
135.8112, 62.15680
136.2933, 67.82684
136.7754, 75.21001
137.2575, 82.48122
137.7396, 88.92777
138.2217, 94.47753
138.7039, 100.7503
139.1860, 108.0337
139.6681, 115.6041
140.1502, 122.6060
140.6323, 129.0062
141.1144, 134.7216
141.5966, 139.6133
142.0787, 143.4758
142.5608, 147.1967
143.0429, 150.3909
143.5250, 153.6460
144.0071, 158.4120
144.4893, 165.2920
144.9714, 172.6390
145.4535, 179.5904
145.9356, 185.7445
146.4177, 192.4478
146.8998, 199.7906
147.3820, 207.7178
147.8641, 216.3520
148.3462, 225.7651
148.8283, 235.7064
149.3104, 246.1779
149.7925, 257.5768
150.2747, 268.9293
150.7568, 280.4848
151.2389, 292.1227
151.7210, 302.2240
152.2031, 309.7575
152.6852, 316.2912
153.1674, 322.8793
153.6495, 330.4634
154.1316, 337.0909
154.6137, 341.8734
155.0958, 344.7605
155.5779, 348.6855
156.0601, 355.5635
156.5422, 362.9297
157.0243, 368.5932
157.5064, 369.9529
157.9885, 371.6326
158.4706, 374.9193
158.9528, 379.9846
159.4349, 385.7791
159.9170, 393.1999
160.3991, 400.8643
160.8812, 407.1740
161.3633, 409.5555
161.8455, 412.1781
162.3276, 417.1128
162.8097, 424.8924
163.2918, 432.9493
163.7739, 440.0237
164.2560, 446.2201
164.7382, 449.6623
165.2203, 453.6768
165.7024, 457.9003
166.1845, 461.5585
166.6666, 464.5851
167.1487, 467.0485
167.6309, 468.5493
168.1130, 469.5428
168.5951, 470.9624
169.0772, 473.7788
169.5593, 476.9294
170.0414, 479.6060
170.5236, 481.8133
171.0057, 483.2364
171.4878, 483.2876
171.9699, 482.3072
172.4520, 481.3260
172.9341, 481.2974
173.4163, 481.4485
173.8984, 480.6774
174.3805, 478.0428
174.8626, 475.5744
175.3447, 475.2370
175.8268, 476.7542
176.3090, 478.9179
176.7911, 481.3973
177.2732, 483.8779
177.7553, 485.8120
178.2374, 486.9489
178.7195, 487.6141
179.2017, 487.9951
179.6838, 488.1438
180.1659, 488.5597
180.6480, 489.7000
181.1301, 491.3944
181.6122, 493.3441
182.0944, 495.8728
182.5765, 498.3084
183.0586, 499.1898
183.5407, 498.5242
184.0228, 497.8844
184.5049, 498.8879
184.9871, 501.1498
185.4692, 503.2585
185.9513, 504.7826
186.4334, 505.8719
186.9155, 506.8750
187.3976, 507.7842
187.8798, 508.6502
188.3619, 509.5107
188.8440, 510.3741
189.3261, 511.2411
189.8082, 512.1933
190.2903, 513.1544
190.7725, 513.7419
191.2546, 513.8821
191.7367, 514.0779
192.2188, 515.0439
192.7009, 516.7429
193.1830, 518.3455
193.6652, 519.4879
194.1473, 520.2561
194.6294, 521.0930
195.1115, 521.9806
195.5936, 522.9899
196.0757, 524.4835
196.5579, 526.5023
197.0400, 527.8679
197.5221, 527.5582
198.0042, 525.7660
198.4863, 525.6207
198.9684, 527.3868
199.4506, 530.2314
199.9327, 532.9414
200.4148, 535.4908
200.8969, 538.2433
201.3790, 541.6628
201.8611, 545.7878
202.3433, 548.8707
202.8254, 550.7914
203.3075, 551.8585
203.7896, 552.3948
204.2717, 552.2730
204.7538, 552.2364
205.2360, 552.7090
205.7181, 553.7839
206.2002, 554.5274
206.6823, 555.0646
207.1644, 555.1229
207.6465, 553.8414
208.1287, 550.7067
208.6108, 548.0916
209.0929, 547.2560
209.5750, 548.6056
210.0571, 549.5881
210.5392, 550.1465
211.0214, 550.4105
211.5035, 550.4741
211.9856, 550.0613
212.4677, 550.2294
212.9498, 551.7505
213.4319, 555.1627
213.9140, 557.5985
214.3962, 558.8963
214.8783, 559.2942
215.3604, 559.1540
215.8425, 558.0795
216.3246, 557.3284
216.8067, 557.5687
217.2889, 559.1347
217.7710, 560.4774
218.2531, 561.4816
218.7352, 562.2778
219.2173, 563.2122
219.6994, 564.3219
220.1816, 565.4892
220.6637, 566.8143
221.1458, 568.6807
221.6279, 569.4954
222.1100, 568.6505
222.5921, 566.9886
223.0743, 566.8508
223.5564, 569.1133
224.0385, 571.3931
224.5206, 572.4594
225.0027, 571.7036
225.4848, 571.4597
225.9670, 571.8762
226.4491, 572.7960
226.9312, 573.8294
227.4133, 574.9561
227.8954, 576.2193
228.3775, 577.5525
228.8597, 578.7589
229.3418, 580.6318
229.8239, 583.7210
230.3060, 587.3217
230.7881, 589.3160
231.2702, 588.9283
231.7524, 588.0983
232.2345, 587.6025
232.7166, 587.2455
233.1987, 587.7067
233.6808, 589.5065
234.1629, 591.9834
234.6451, 593.3283
235.1272, 592.9083
235.6093, 592.3124
236.0914, 592.2382
236.5735, 592.8905
237.0556, 593.6319
237.5378, 594.3705
238.0199, 595.2492
238.5020, 596.7549
238.9841, 599.7662
239.4662, 602.1553
239.9483, 602.7857
240.4305, 600.3050
240.9126, 599.2937
241.3947, 600.3994
241.8768, 602.7568
242.3589, 604.1746
242.8410, 603.9437
243.3232, 603.8298
243.8053, 604.5653
244.2874, 606.3819
244.7695, 608.5240
245.2516, 611.2620
245.7337, 614.2300
246.2159, 616.6271
246.6980, 618.4061
247.1801, 619.7020
247.6622, 620.5441
248.1443, 620.8232
248.6264, 620.9229
249.1086, 620.5529
249.5907, 620.1522
250.0728, 620.7169
250.5549, 622.8303
251.0370, 624.9180
251.5191, 626.2352
252.0013, 626.2379
252.4834, 627.3314
252.9655, 630.1628
253.4476, 633.6688
253.9297, 635.7316
254.4118, 635.4493
254.8940, 635.3506
255.3761, 636.4138
255.8582, 639.0042
256.3403, 641.4971
256.8224, 644.5991
257.3046, 647.0808
257.7867, 646.3087
258.2688, 640.1558
258.7509, 635.2510
259.2330, 634.0642
259.7151, 637.2364
260.1973, 640.5065
260.6794, 644.3576
261.1615, 647.7941
261.6436, 648.9021
262.1257, 646.4647
262.6078, 644.7044
263.0900, 645.1219
263.5721, 647.9939
264.0542, 650.3668
264.5363, 652.3124
265.0184, 653.6827
265.5005, 654.0616
265.9827, 652.8274
266.4648, 652.4030
266.9469, 653.7194
267.4290, 656.8127
267.9111, 659.2629
268.3932, 660.8367
268.8754, 662.0915
269.3575, 663.9525
269.8396, 666.9913
270.3217, 668.5013
270.8038, 667.1849
271.2859, 663.2680
271.7681, 661.4761
272.2502, 662.2269
272.7323, 664.2382
273.2144, 666.4236
273.6965, 668.9149
274.1786, 670.9259
274.6608, 672.2324
275.1429, 672.9091
275.6250, 673.3549
276.1071, 673.3455
276.5892, 673.7481
277.0714, 675.6953
277.5535, 679.4441
278.0356, 682.4873
278.5177, 684.3773
278.9998, 685.2179
279.4819, 684.8788
279.9641, 682.8766
280.4462, 681.7301
280.9283, 684.4822
281.4104, 691.3106
281.8925, 695.6033
282.3746, 695.6409
282.8568, 693.0460
283.3389, 692.3590
283.8210, 693.7220
284.3031, 695.8528
284.7852, 698.0840
285.2673, 700.3729
285.7495, 702.4343
286.2316, 704.2348
286.7137, 705.7546
287.1958, 706.6938
287.6779, 707.0118
288.1600, 707.7289
288.6422, 710.1627
289.1243, 713.9075
289.6064, 715.6611
290.0885, 714.7481
290.5706, 712.8685
291.0527, 712.5761
291.5349, 713.8270
292.0170, 715.9105
292.4991, 718.9996
292.9812, 722.7110
293.4633, 725.5345
293.9454, 727.3860
294.4276, 728.5063
294.9097, 728.8040
295.3918, 728.4622
295.8739, 728.4344
296.3560, 729.4930
296.8381, 731.1588
297.3203, 732.1939
297.8024, 732.5051
298.2845, 732.7292
298.7666, 733.3476
299.2487, 734.3827
299.7308, 735.9338
300.2130, 738.2458
300.6951, 741.0267
301.1772, 744.0435
301.6593, 747.2883
302.1414, 750.1791
302.6235, 752.1742
303.1057, 753.4388
303.5878, 754.2364
304.0699, 754.5426
304.5520, 754.5461
305.0341, 754.1898
305.5162, 753.5612
305.9984, 753.3906
306.4805, 754.0203
306.9626, 755.4812
307.4447, 757.9162
307.9268, 762.0198
308.4089, 766.2474
308.8911, 769.4332
309.3732, 771.6334
309.8553, 773.1017
310.3374, 773.0516
310.8195, 772.7675
311.3016, 773.5479
311.7838, 775.8243
312.2659, 778.8514
312.7480, 782.7607
313.2301, 787.0887
313.7122, 790.7595
314.1943, 793.1713
314.6765, 794.8603
315.1586, 795.8431
315.6407, 795.5967
316.1228, 796.5283
316.6049, 801.1199
317.0870, 807.4826
317.5692, 812.4387
318.0513, 813.3268
318.5334, 813.8192
319.0155, 815.7647
319.4976, 819.5161
319.9797, 823.3028
320.4619, 826.7598
320.9440, 829.8653
321.4261, 832.5566
321.9082, 833.5977
322.3903, 835.4117
322.8724, 839.1552
323.3546, 844.8953
323.8367, 850.1874
324.3188, 855.1331
324.8009, 859.1948
325.2830, 861.9183
325.7651, 862.6342
326.2473, 862.7814
326.7294, 862.8529
327.2115, 862.7172
327.6936, 861.2256
328.1757, 856.1633
328.6578, 851.3331
329.1400, 848.6360
329.6221, 850.5862
330.1042, 851.2844
330.5863, 849.8468
331.0684, 847.0911
331.5505, 845.4607
332.0327, 845.4444
332.5148, 845.9276
332.9969, 846.4844
333.4790, 846.9906
333.9611, 847.8951
334.4432, 849.5851
334.9254, 851.4424
335.4075, 852.2399
335.8896, 851.1880
336.3717, 850.7267
336.8538, 852.0157
337.3359, 855.3923
337.8180, 856.7367
338.3001, 855.0917
338.7823, 852.8973
339.2644, 853.1345
339.7465, 856.3630
340.2286, 859.6171
340.7107, 862.3085
341.1928, 864.4632
341.6750, 865.9539
342.1571, 866.7083
342.6392, 867.1262
343.1213, 867.0999
343.6034, 866.5929
344.0855, 867.7465
344.5677, 871.5016
345.0498, 876.4839
345.5319, 879.2214
346.0140, 879.6662
346.4961, 879.2578
346.9782, 878.4727
347.4604, 877.4998
347.9425, 877.3026
348.4246, 878.0345
348.9067, 879.4008
349.3888, 881.3075
349.8709, 883.6299
350.3531, 885.6270
350.8352, 886.3853
351.3173, 886.6898
351.7994, 888.4310
352.2815, 891.7965
352.7636, 895.0074
353.2458, 895.4716
353.7279, 894.4990
354.2100, 894.9547
354.6921, 899.3578
355.1742, 904.7082
355.6563, 907.7712
356.1385, 908.6876
356.6206, 909.1844
357.1027, 909.8525
357.5848, 910.9690
358.0669, 913.0049
358.5490, 916.9098
359.0312, 920.5026
359.5133, 921.6259
359.9954, 921.1561
360.4775, 921.8365
360.9596, 926.7029
361.4417, 932.0336
361.9239, 935.1556
362.4060, 934.9814
362.8881, 934.5607
363.3702, 935.0262
363.8523, 935.9619
364.3344, 936.7321
364.8166, 936.6467
365.2987, 936.8323
365.7808, 937.8432
366.2629, 939.8233
366.7450, 941.6861
367.2271, 943.2081
367.7093, 944.5846
368.1914, 945.9885
368.6735, 947.9518
369.1556, 949.3927
369.6377, 949.4310
370.1198, 948.3884
370.6020, 949.2032
371.0841, 953.4864
371.5662, 958.1432
372.0483, 961.4777
372.5304, 962.8747
373.0125, 964.1406
373.4947, 965.2686
373.9768, 966.2849
374.4589, 967.2494
374.9410, 968.1122
375.4231, 969.0190
375.9052, 969.9457
376.3874, 970.8304
376.8695, 972.3561
377.3516, 974.7451
377.8337, 977.4350
378.3158, 979.7408
378.7979, 981.6018
379.2801, 983.6341
379.7622, 986.1212
380.2443, 988.9033
380.7264, 991.4543
381.2085, 993.7797
381.6906, 995.6973
382.1728, 996.7590
382.6549, 997.1429
383.1370, 997.8693
383.6191, 999.0064
384.1012, 1000.749
384.5833, 1004.097
385.0655, 1008.768
385.5476, 1012.627
386.0297, 1013.839
386.5118, 1013.604
386.9939, 1014.106
387.4760, 1015.564
387.9582, 1017.451
388.4403, 1019.857
388.9224, 1022.331
389.4045, 1023.934
389.8866, 1023.621
390.3687, 1022.750
390.8509, 1021.801
391.3330, 1020.932
391.8151, 1021.765
392.2972, 1027.229
392.7793, 1033.947
393.2614, 1038.637
393.7436, 1039.353
394.2257, 1039.392
394.7078, 1039.683
395.1899, 1040.293
395.6720, 1041.401
396.1541, 1042.819
396.6363, 1044.953
397.1184, 1048.305
397.6005, 1053.639
398.0826, 1057.962
398.5647, 1060.067
399.0468, 1061.189
399.5290, 1062.824
400.0111, 1066.081
400.4932, 1068.770
400.9753, 1070.338
401.4574, 1070.791
401.9395, 1071.360
402.4217, 1071.561
402.9038, 1072.369
403.3859, 1074.529
403.8680, 1078.606
404.3501, 1082.776
404.8322, 1087.244
405.3144, 1091.547
405.7965, 1094.004
406.2786, 1093.965
406.7607, 1094.279
407.2428, 1096.259
407.7249, 1099.957
408.2071, 1104.388
408.6892, 1109.992
409.1713, 1115.107
409.6534, 1117.063
410.1355, 1116.025
410.6176, 1115.542
411.0998, 1116.801
411.5819, 1119.194
412.0640, 1121.406
412.5461, 1123.423
413.0282, 1125.316
413.5103, 1126.705
413.9925, 1128.033
414.4746, 1130.650
414.9567, 1135.405
415.4388, 1139.617
415.9209, 1139.703
416.4030, 1137.022
416.8852, 1134.957
417.3673, 1135.609
417.8494, 1137.341
418.3315, 1138.726
418.8136, 1139.657
419.2957, 1141.137
419.7779, 1141.791
420.2600, 1144.076
420.7421, 1150.453
421.2242, 1171.626
421.7063, 1186.603
422.1884, 1184.989
422.6706, 1170.913
423.1527, 1159.935
423.6348, 1157.337
424.1169, 1157.359
424.5990, 1157.371
425.0811, 1156.522
425.5633, 1157.260
426.0454, 1161.048
426.5275, 1165.868
427.0096, 1169.184
427.4917, 1170.035
427.9738, 1170.771
428.4560, 1171.625
428.9381, 1172.639
429.4202, 1174.787
429.9023, 1178.516
430.3844, 1182.476
430.8665, 1185.790
431.3487, 1188.493
431.8308, 1190.138
432.3129, 1190.358
432.7950, 1189.907
433.2771, 1190.305
433.7592, 1191.560
434.2414, 1193.124
434.7235, 1194.510
435.2056, 1195.954
435.6877, 1198.655
436.1698, 1202.669
436.6519, 1206.963
437.1341, 1210.829
437.6162, 1214.124
438.0983, 1216.504
438.5804, 1217.578
439.0625, 1218.139
439.5446, 1219.050
440.0268, 1220.232
440.5089, 1221.365
440.9910, 1221.552
441.4731, 1222.045
441.9552, 1224.492
442.4373, 1229.565
442.9195, 1233.726
443.4016, 1234.352
443.8837, 1233.322
444.3658, 1232.919
444.8479, 1234.119
445.3300, 1235.748
445.8122, 1237.695
446.2943, 1239.865
446.7764, 1241.686
447.2585, 1241.391
447.7406, 1242.009
448.2227, 1245.397
448.7049, 1254.545
449.1870, 1260.586
449.6691, 1262.147
450.1512, 1261.254
450.6333, 1260.831
451.1154, 1260.404
451.5976, 1261.552
452.0797, 1265.379
452.5618, 1271.585
453.0439, 1275.106
453.5260, 1275.067
454.0081, 1274.861
454.4903, 1277.847
454.9724, 1283.932
455.4545, 1287.964
455.9366, 1288.909
456.4187, 1288.357
456.9008, 1287.883
457.3830, 1287.788
457.8651, 1290.318
458.3472, 1299.263
458.8293, 1310.699
459.3114, 1317.406
459.7935, 1319.302
460.2757, 1319.685
460.7578, 1320.027
461.2399, 1320.813
461.7220, 1322.834
462.2041, 1326.932
462.6862, 1331.241
463.1684, 1334.954
463.6505, 1337.986
464.1326, 1340.051
464.6147, 1338.412
465.0968, 1337.930
465.5789, 1342.215
466.0611, 1352.413
466.5432, 1360.003
467.0253, 1360.439
467.5074, 1359.022
467.9895, 1360.190
468.4716, 1367.391
468.9538, 1373.127
469.4359, 1376.600
469.9180, 1378.280
470.4001, 1379.552
470.8822, 1380.200
471.3643, 1380.887
471.8465, 1382.312
472.3286, 1384.787
472.8107, 1384.369
473.2928, 1380.106
473.7749, 1375.367
474.2570, 1374.136
474.7392, 1376.398
475.2213, 1379.213
475.7034, 1382.226
476.1855, 1385.093
476.6676, 1386.635
477.1497, 1387.044
477.6319, 1388.093
478.1140, 1391.632
478.5961, 1396.242
479.0782, 1399.630
479.5603, 1401.609
480.0424, 1402.661
480.5246, 1402.008
481.0067, 1400.976
481.4888, 1401.449
481.9709, 1404.649
482.4530, 1408.772
482.9352, 1413.840
483.4173, 1419.251
483.8994, 1423.111
484.3815, 1423.061
484.8636, 1422.720
485.3457, 1424.095
485.8279, 1428.087
486.3100, 1430.922
486.7921, 1430.868
487.2742, 1430.299
487.7563, 1431.419
488.2384, 1435.978
488.7206, 1439.147
489.2027, 1439.648
489.6848, 1438.502
490.1669, 1439.601
490.6490, 1443.702
491.1311, 1447.756
491.6133, 1450.045
492.0954, 1450.627
492.5775, 1452.060
493.0596, 1454.454
493.5417, 1457.243
494.0238, 1460.200
494.5060, 1463.145
494.9881, 1464.900
495.4702, 1464.378
495.9523, 1463.765
496.4344, 1466.567
496.9165, 1472.098
497.3987, 1477.762
497.8808, 1482.567
498.3629, 1486.588
498.8450, 1489.936
499.3271, 1492.647
499.8092, 1494.509
500.2914, 1494.672
500.7735, 1494.289
501.2556, 1494.441
501.7377, 1494.523
502.2198, 1496.191
502.7019, 1500.534
503.1841, 1506.766
503.6662, 1512.776
504.1483, 1519.712
504.6304, 1525.120
505.1125, 1528.217
505.5946, 1528.946
506.0768, 1528.214
506.5589, 1524.826
507.0410, 1521.805
507.5231, 1521.932
508.0052, 1525.725
508.4873, 1529.442
508.9695, 1532.883
509.4516, 1535.670
509.9337, 1536.133
510.4158, 1534.470
510.8979, 1534.531
511.3800, 1539.151
511.8622, 1546.277
512.3443, 1551.120
512.8264, 1553.750
513.3085, 1556.405
513.7906, 1561.334
514.2728, 1567.079
514.7549, 1571.797
515.2370, 1575.133
515.7191, 1577.433
516.2012, 1578.005
516.6833, 1577.880
517.1655, 1578.646
517.6476, 1581.972
518.1297, 1585.148
518.6118, 1587.015
519.0939, 1587.703
519.5760, 1588.861
520.0582, 1590.881
520.5403, 1593.245
521.0224, 1595.741
521.5045, 1598.423
521.9866, 1601.045
522.4688, 1603.390
522.9509, 1605.887
523.4330, 1609.217
523.9151, 1613.547
524.3972, 1617.763
524.8793, 1621.615
525.3615, 1625.153
525.8436, 1628.387
526.3257, 1631.340
526.8078, 1634.627
527.2899, 1639.137
527.7720, 1644.206
528.2542, 1648.159
528.7363, 1650.897
529.2184, 1653.337
529.7005, 1655.840
530.1826, 1658.622
530.6647, 1662.096
531.1469, 1667.028
531.6290, 1671.533
532.1111, 1674.050
532.5932, 1675.382
533.0753, 1677.159
533.5574, 1680.976
534.0396, 1684.238
534.5217, 1685.668
535.0038, 1685.066
535.4859, 1685.342
535.9680, 1686.748
536.4501, 1688.824
536.9323, 1691.464
537.4144, 1695.240
537.8965, 1697.949
538.3786, 1699.240
538.8607, 1699.892
539.3428, 1701.065
539.8250, 1702.826
540.3071, 1704.392
540.7892, 1705.082
541.2713, 1705.810
541.7534, 1709.427
542.2355, 1715.665
542.7177, 1721.553
543.1998, 1725.485
543.6819, 1727.831
544.1640, 1728.641
544.6461, 1727.840
545.1282, 1727.440
545.6104, 1729.005
546.0925, 1731.676
546.5746, 1734.503
547.0567, 1737.195
547.5388, 1740.016
548.0209, 1742.940
548.5031, 1746.021
548.9852, 1749.443
549.4673, 1753.392
549.9494, 1757.542
550.4315, 1762.306
550.9136, 1767.677
551.3958, 1770.664
551.8779, 1769.783
552.3600, 1769.035
552.8421, 1771.110
553.3242, 1776.287
553.8063, 1782.068
554.2885, 1788.898
554.7706, 1794.822
555.2527, 1796.201
555.7348, 1793.816
556.2169, 1792.537
556.6990, 1793.938
557.1812, 1797.014
557.6633, 1801.010
558.1454, 1805.636
558.6275, 1809.817
559.1096, 1812.870
559.5917, 1815.246
560.0739, 1816.867
560.5560, 1817.723
561.0381, 1819.435
561.5202, 1823.227
562.0023, 1827.768
562.4844, 1832.092
562.9666, 1836.270
563.4487, 1839.864
563.9308, 1841.749
564.4129, 1843.496
564.8950, 1847.886
565.3771, 1856.795
565.8593, 1863.873
566.3414, 1867.105
566.8235, 1867.453
567.3056, 1869.349
567.7877, 1872.864
568.2698, 1877.294
568.7520, 1883.162
569.2341, 1889.710
569.7162, 1894.051
570.1983, 1895.993
570.6804, 1896.977
571.1625, 1897.343
571.6447, 1897.886
572.1268, 1900.202
572.6089, 1905.852
573.0910, 1910.862
573.5731, 1911.548
574.0552, 1910.075
574.5374, 1910.235
575.0195, 1915.010
575.5016, 1919.876
575.9837, 1923.866
576.4658, 1926.855
576.9479, 1928.007
577.4301, 1925.705
577.9122, 1923.502
578.3943, 1922.925
578.8764, 1924.225
579.3585, 1925.761
579.8406, 1927.392
580.3228, 1929.556
580.8049, 1932.682
581.2870, 1936.730
581.7691, 1941.908
582.2512, 1948.823
582.7333, 1955.363
583.2155, 1957.384
583.6975, 1956.164
584.1796, 1955.873
584.6617, 1959.018
585.1439, 1963.468
585.6260, 1967.196
586.1081, 1970.438
586.5902, 1974.475
587.0723, 1981.012
587.5544, 1987.617
588.0366, 1993.190
588.5187, 1997.661
589.0008, 2000.731
589.4829, 2000.369
589.9650, 1999.981
590.4471, 2002.400
590.9293, 2009.834
591.4114, 2014.920
591.8935, 2016.597
592.3756, 2016.457
592.8577, 2016.984
593.3398, 2018.141
593.8220, 2020.770
594.3041, 2026.258
594.7862, 2032.542
595.2683, 2033.454
595.7504, 2029.828
596.2325, 2027.842
596.7147, 2033.419
597.1968, 2041.651
597.6789, 2046.614
598.1610, 2047.837
598.6431, 2049.379
599.1252, 2054.411
599.6074, 2060.189
600.0895, 2064.466
600.5716, 2066.128
601.0537, 2067.553
601.5358, 2068.667
602.0179, 2069.890
602.5001, 2071.735
602.9822, 2074.132
603.4643, 2077.262
603.9464, 2081.263
604.4285, 2085.948
604.9106, 2091.292
605.3928, 2097.420
605.8749, 2102.397
606.3570, 2104.042
606.8391, 2103.848
607.3212, 2107.435
607.8033, 2114.623
608.2855, 2121.736
608.7676, 2125.983
609.2497, 2128.409
609.7318, 2129.761
610.2139, 2129.727
610.6960, 2130.931
611.1782, 2136.385
611.6603, 2143.119
612.1424, 2148.043
612.6245, 2148.489
613.1066, 2149.406
613.5887, 2151.348
614.0709, 2154.200
614.5530, 2158.139
615.0351, 2164.398
615.5172, 2168.863
615.9993, 2169.717
616.4814, 2167.907
616.9636, 2168.750
617.4457, 2172.429
617.9278, 2176.726
618.4099, 2180.592
618.8920, 2183.952
619.3741, 2186.428
619.8563, 2188.020
620.3384, 2189.663
620.8205, 2191.859
621.3026, 2194.655
621.7847, 2198.038
622.2668, 2201.907
622.7490, 2206.718
623.2311, 2214.912
623.7132, 2223.407
624.1953, 2228.266
624.6774, 2223.666
625.1595, 2221.775
625.6417, 2225.425
626.1238, 2232.526
626.6059, 2236.917
627.0880, 2237.620
627.5701, 2238.721
628.0522, 2241.867
628.5344, 2246.608
629.0165, 2250.306
629.4986, 2252.922
629.9807, 2256.417
630.4628, 2264.262
630.9449, 2273.342
631.4271, 2276.792
631.9092, 2273.865
632.3913, 2271.539
632.8734, 2275.704
633.3555, 2282.622
633.8376, 2288.406
634.3198, 2291.114
634.8019, 2294.606
635.2840, 2301.631
635.7661, 2309.349
636.2482, 2313.790
636.7303, 2312.338
637.2125, 2311.805
637.6946, 2313.071
638.1767, 2315.871
638.6588, 2319.912
639.1409, 2325.560
639.6230, 2330.263
640.1052, 2332.820
640.5873, 2333.859
641.0694, 2334.809
641.5515, 2335.767
642.0336, 2337.421
642.5157, 2340.736
642.9979, 2344.800
643.4800, 2348.732
643.9621, 2352.527
644.4442, 2355.621
644.9263, 2355.890
645.4084, 2356.500
645.8906, 2360.082
646.3727, 2368.674
646.8548, 2377.276
647.3369, 2386.641
647.8190, 2395.081
648.3011, 2400.074
648.7833, 2400.378
649.2654, 2401.100
649.7475, 2402.582
650.2296, 2405.355
650.7117, 2411.478
651.1938, 2420.658
651.6760, 2428.886
652.1581, 2434.436
652.6402, 2438.271
653.1223, 2441.309
653.6044, 2443.778
654.0865, 2446.760
654.5687, 2451.896
655.0508, 2456.929
655.5329, 2460.525
656.0150, 2462.559
656.4971, 2463.658
656.9792, 2460.859
657.4614, 2459.774
657.9435, 2464.026
658.4256, 2476.116
658.9077, 2484.555
659.3898, 2488.282
659.8719, 2490.173
660.3541, 2493.215
660.8362, 2497.327
661.3183, 2500.490
661.8004, 2502.100
662.2825, 2503.496
662.7646, 2506.776
663.2468, 2511.224
663.7289, 2515.022
664.2110, 2516.693
664.6931, 2518.594
665.1752, 2522.790
665.6573, 2528.495
666.1395, 2533.902
666.6216, 2538.561
667.1037, 2542.792
667.5858, 2546.603
668.0679, 2550.070
668.5500, 2553.255
669.0322, 2555.593
669.5143, 2558.828
669.9964, 2564.207
670.4785, 2571.506
670.9606, 2577.163
671.4427, 2581.051
671.9249, 2584.457
672.4070, 2588.056
672.8891, 2592.030
673.3712, 2597.026
673.8533, 2603.252
674.3354, 2609.077
674.8176, 2613.566
675.2997, 2617.007
675.7818, 2619.494
676.2639, 2619.993
676.7460, 2621.647
677.2281, 2626.239
677.7103, 2631.911
678.1924, 2636.337
678.6745, 2638.799
679.1566, 2641.508
679.6387, 2644.623
680.1208, 2648.246
680.6030, 2652.927
681.0851, 2658.571
681.5672, 2664.152
682.0493, 2669.353
682.5314, 2674.099
683.0135, 2677.566
683.4957, 2680.209
683.9778, 2683.742
684.4599, 2690.536
684.9420, 2697.387
685.4241, 2702.176
685.9063, 2704.883
686.3884, 2707.113
686.8705, 2707.699
687.3526, 2709.388
687.8347, 2713.859
688.3168, 2721.774
688.7990, 2728.028
689.2811, 2732.431
689.7632, 2735.944
690.2453, 2738.907
690.7274, 2741.462
691.2095, 2745.029
691.6917, 2749.701
692.1738, 2755.238
692.6559, 2761.833
693.1380, 2768.860
693.6201, 2775.240
694.1022, 2780.645
694.5844, 2785.424
695.0665, 2789.269
695.5486, 2792.677
696.0307, 2796.321
696.5128, 2800.690
696.9949, 2804.695
697.4771, 2807.467
697.9592, 2810.149
698.4413, 2815.312
698.9234, 2823.793
699.4055, 2831.536
699.8876, 2837.616
700.3698, 2842.211
700.8519, 2844.851
701.3340, 2845.947
701.8161, 2848.072
702.2982, 2853.974
702.7803, 2860.703
703.2625, 2864.319
703.7446, 2865.593
704.2267, 2868.320
704.7088, 2877.121
705.1909, 2885.312
705.6730, 2888.466
706.1552, 2885.821
706.6373, 2886.138
707.1194, 2890.331
707.6015, 2896.257
708.0836, 2903.366
708.5657, 2911.760
709.0479, 2917.448
709.5300, 2920.017
710.0121, 2922.018
710.4942, 2925.733
710.9763, 2930.573
711.4584, 2935.188
711.9406, 2939.251
712.4227, 2943.862
712.9048, 2951.474
713.3869, 2959.288
713.8690, 2964.111
714.3511, 2962.444
714.8333, 2962.854
715.3154, 2969.389
715.7975, 2977.574
716.2796, 2982.643
716.7617, 2983.545
717.2438, 2984.603
717.7260, 2986.377
718.2081, 2988.589
718.6902, 2990.368
719.1723, 2991.926
719.6544, 2994.731
720.1365, 2999.629
720.6187, 3005.330
721.1008, 3010.060
721.5829, 3014.385
722.0650, 3019.792
722.5471, 3028.291
723.0292, 3036.485
723.5114, 3042.518
723.9935, 3046.754
724.4756, 3051.105
724.9577, 3055.729
725.4398, 3060.198
725.9219, 3064.265
726.4041, 3068.038
726.8862, 3071.638
727.3683, 3074.953
727.8504, 3080.246
728.3325, 3091.458
728.8146, 3104.861
729.2968, 3110.946
729.7789, 3110.539
730.2610, 3111.209
730.7431, 3118.261
731.2252, 3127.822
731.7073, 3137.352
732.1895, 3146.600
732.6716, 3155.849
733.1537, 3165.551
733.6358, 3174.797
734.1179, 3183.314
734.6000, 3191.155
735.0822, 3197.040
735.5643, 3200.244
736.0464, 3203.950
736.5285, 3211.552
737.0106, 3222.138
737.4927, 3232.207
737.9749, 3241.360
738.4570, 3250.809
738.9391, 3262.393
739.4212, 3274.476
739.9033, 3285.343
740.3854, 3295.128
740.8676, 3302.647
741.3497, 3305.656
741.8318, 3307.345
742.3139, 3311.466
742.7960, 3320.726
743.2781, 3325.041
743.7603, 3322.283
744.2424, 3316.765
744.7245, 3314.594
745.2066, 3315.393
745.6887, 3316.591
746.1708, 3318.099
746.6530, 3318.251
747.1351, 3313.063
747.6172, 3305.511
748.0993, 3300.911
748.5814, 3302.401
749.0635, 3305.770
749.5457, 3311.326
750.0278, 3317.591
750.5099, 3321.130
750.9920, 3319.886
751.4741, 3320.166
751.9562, 3323.802
752.4384, 3329.192
752.9205, 3331.524
753.4026, 3330.950
753.8847, 3331.876
754.3668, 3336.960
754.8489, 3343.385
755.3311, 3346.195
755.8132, 3346.836
756.2953, 3349.445
756.7774, 3359.105
757.2595, 3368.118
757.7416, 3371.951
758.2238, 3371.512
758.7059, 3372.922
759.1880, 3377.190
759.6701, 3382.158
760.1522, 3387.540
760.6343, 3393.100
761.1165, 3397.674
761.5986, 3401.183
762.0807, 3404.725
762.5628, 3408.569
763.0449, 3412.959
763.5270, 3419.065
764.0092, 3426.393
764.4913, 3432.522
764.9734, 3433.640
765.4555, 3435.207
765.9376, 3441.506
766.4197, 3452.770
766.9019, 3460.978
767.3840, 3463.219
767.8661, 3466.080
768.3482, 3473.240
768.8303, 3484.449
769.3124, 3491.297
769.7946, 3493.506
770.2767, 3494.261
770.7588, 3494.245
771.2409, 3494.845
771.7230, 3499.458
772.2051, 3507.967
772.6873, 3515.846
773.1694, 3518.731
773.6515, 3521.319
774.1336, 3527.403
774.6157, 3538.235
775.0978, 3546.447
775.5800, 3549.943
776.0621, 3553.276
776.5442, 3560.285
777.0263, 3571.407
777.5084, 3574.422
777.9905, 3568.384
778.4727, 3563.449
778.9548, 3569.760
779.4369, 3582.617
779.9190, 3595.048
780.4011, 3606.356
780.8832, 3614.520
781.3654, 3616.708
781.8475, 3616.429
782.3296, 3615.792
782.8117, 3614.212
783.2938, 3615.374
783.7759, 3619.999
784.2581, 3626.490
784.7402, 3633.907
785.2223, 3642.240
785.7044, 3651.190
786.1865, 3660.896
786.6686, 3669.107
787.1508, 3671.682
787.6329, 3671.985
788.1150, 3675.490
788.5971, 3683.374
789.0792, 3691.906
789.5613, 3699.710
790.0435, 3707.150
790.5256, 3714.852
791.0077, 3723.912
791.4898, 3729.483
791.9719, 3729.067
792.4540, 3729.234
792.9362, 3737.936
793.4183, 3754.177
793.9004, 3764.291
794.3825, 3766.976
794.8646, 3766.790
795.3467, 3766.429
795.8289, 3766.719
796.3110, 3769.382
796.7931, 3775.760
797.2752, 3780.219
797.7573, 3777.434
798.2394, 3774.216
798.7216, 3776.444
799.2037, 3786.955
799.6858, 3795.367
800.1679, 3801.001
800.6500, 3806.027
801.1321, 3812.618
801.6143, 3820.557
802.0964, 3829.341
802.5785, 3838.997
803.0606, 3848.005
803.5427, 3855.423
804.0248, 3861.070
804.5070, 3864.409
804.9891, 3864.173
805.4712, 3865.230
805.9533, 3868.817
806.4354, 3874.026
806.9175, 3880.280
807.3997, 3887.559
807.8818, 3897.115
808.3639, 3910.036
808.8460, 3921.186
809.3281, 3923.152
809.8102, 3919.368
810.2924, 3918.375
810.7745, 3921.378
811.2566, 3926.677
811.7387, 3933.223
812.2208, 3941.365
812.7029, 3952.077
813.1851, 3968.056
813.6672, 3979.156
814.1493, 3982.767
814.6314, 3984.053
815.1135, 3986.576
815.5956, 3990.331
816.0778, 3995.506
816.5599, 4002.148
817.0420, 4009.895
817.5241, 4020.303
818.0062, 4030.837
818.4883, 4036.575
818.9705, 4036.110
819.4526, 4037.805
819.9347, 4047.760
820.4168, 4059.787
820.8989, 4069.737
821.3810, 4077.620
821.8632, 4082.209
822.3453, 4081.952
822.8274, 4081.868
823.3095, 4086.448
823.7916, 4094.896
824.2737, 4103.474
824.7559, 4112.089
825.2380, 4117.958
825.7201, 4114.745
826.2022, 4110.152
826.6843, 4112.878
827.1664, 4124.892
827.6486, 4134.822
828.1307, 4138.157
828.6128, 4140.621
829.0949, 4144.884
829.5770, 4151.008
830.0591, 4157.518
830.5413, 4164.397
831.0234, 4171.597
831.5055, 4179.810
831.9876, 4188.034
832.4697, 4193.957
832.9518, 4197.585
833.4340, 4201.329
833.9161, 4206.797
834.3982, 4212.531
834.8803, 4217.697
835.3624, 4222.170
835.8445, 4226.116
836.3267, 4228.979
836.8088, 4232.427
837.2909, 4237.507
837.7730, 4243.917
838.2551, 4249.907
838.7372, 4255.509
839.2194, 4260.611
839.7015, 4263.980
840.1836, 4267.748
840.6657, 4274.669
841.1478, 4284.315
841.6299, 4293.232
842.1121, 4301.613
842.5942, 4307.435
843.0763, 4307.803
843.5584, 4304.760
844.0405, 4311.582
844.5226, 4329.816
845.0048, 4346.222
845.4869, 4354.031
845.9690, 4357.099
846.4511, 4362.055
846.9332, 4368.592
847.4153, 4375.769
847.8975, 4384.185
848.3796, 4392.009
848.8617, 4398.413
849.3438, 4403.513
849.8259, 4407.692
850.3080, 4410.401
850.7902, 4413.662
851.2723, 4417.839
851.7544, 4422.988
852.2365, 4429.992
852.7186, 4438.388
853.2007, 4445.016
853.6829, 4447.506
854.1650, 4449.815
854.6471, 4456.031
855.1292, 4464.342
855.6113, 4471.728
856.0934, 4474.007
856.5756, 4479.946
857.0577, 4493.515
857.5398, 4508.592
858.0219, 4515.468
858.5040, 4513.516
858.9861, 4514.849
859.4683, 4522.123
859.9504, 4530.733
860.4325, 4533.467
860.9146, 4533.933
861.3967, 4538.695
861.8788, 4551.292
862.3610, 4562.892
862.8431, 4569.692
863.3252, 4574.167
863.8073, 4578.482
864.2894, 4582.292
864.7715, 4587.354
865.2537, 4593.958
865.7358, 4601.112
866.2179, 4608.877
866.7000, 4616.425
867.1821, 4621.122
867.6642, 4622.705
868.1464, 4623.722
868.6285, 4622.633
869.1106, 4624.106
869.5927, 4632.926
870.0748, 4651.831
870.5569, 4666.586
871.0391, 4676.219
871.5212, 4683.208
872.0033, 4687.751
872.4854, 4690.405
872.9675, 4695.578
873.4496, 4703.174
873.9318, 4711.843
874.4139, 4721.935
874.8960, 4731.611
875.3781, 4738.643
875.8602, 4743.382
876.3423, 4748.848
876.8245, 4755.824
877.3066, 4763.563
877.7887, 4772.396
878.2708, 4781.818
878.7529, 4789.366
879.2350, 4795.069
879.7172, 4801.018
880.1993, 4808.665
880.6814, 4816.322
881.1635, 4822.352
881.6456, 4826.633
882.1277, 4828.833
882.6099, 4825.086
883.0920, 4823.769
883.5741, 4828.150
884.0562, 4835.858
884.5383, 4843.560
885.0204, 4851.218
885.5026, 4859.112
885.9847, 4867.271
886.4668, 4875.680
886.9489, 4884.189
887.4310, 4892.975
887.9131, 4902.734
888.3953, 4914.700
888.8774, 4924.409
889.3595, 4927.962
889.8416, 4929.423
890.3237, 4932.567
890.8058, 4937.365
891.2880, 4944.593
891.7701, 4955.320
892.2522, 4964.906
892.7343, 4965.600
893.2164, 4962.333
893.6985, 4970.749
894.1807, 4991.835
894.6628, 5011.147
895.1449, 5017.686
895.6270, 5020.442
896.1091, 5025.643
896.5912, 5033.933
897.0734, 5038.896
897.5555, 5038.222
898.0376, 5039.650
898.5197, 5047.828
899.0018, 5060.631
899.4839, 5070.596
899.9661, 5078.032
900.4482, 5084.678
900.9303, 5091.021
901.4124, 5097.482
901.8945, 5104.944
902.3766, 5112.874
902.8588, 5119.563
903.3409, 5123.500
903.8230, 5128.717
904.3051, 5136.302
904.7872, 5145.212
905.2693, 5154.924
905.7515, 5164.685
906.2336, 5169.339
906.7157, 5165.338
907.1978, 5161.671
907.6799, 5165.814
908.1620, 5174.812
908.6442, 5185.350
909.1263, 5198.649
909.6084, 5210.108
910.0905, 5220.321
910.5726, 5227.739
911.0547, 5228.438
911.5369, 5223.640
912.0190, 5229.411
912.5011, 5247.088
912.9832, 5264.514
913.4653, 5270.617
913.9474, 5272.464
914.4296, 5276.275
914.9117, 5282.708
915.3938, 5289.954
915.8759, 5297.257
916.3580, 5305.797
916.8401, 5316.119
917.3223, 5327.967
917.8044, 5341.448
918.2865, 5356.132
918.7686, 5367.497
919.2507, 5370.388
919.7328, 5371.138
920.2150, 5376.359
920.6971, 5384.332
921.1792, 5390.901
921.6613, 5392.416
922.1434, 5395.972
922.6255, 5402.663
923.1077, 5411.906
923.5898, 5424.156
924.0719, 5438.986
924.5540, 5449.336
925.0361, 5452.787
925.5182, 5455.692
926.0004, 5465.019
926.4825, 5477.185
926.9646, 5487.982
927.4467, 5496.143
927.9288, 5504.060
928.4109, 5513.109
928.8931, 5520.724
929.3752, 5524.450
929.8573, 5524.376
930.3394, 5526.060
930.8215, 5529.522
931.3036, 5532.854
931.7858, 5533.341
932.2679, 5534.133
932.7500, 5538.890
933.2321, 5547.277
933.7142, 5555.731
934.1964, 5563.306
934.6785, 5571.220
935.1606, 5579.756
935.6427, 5588.827
936.1248, 5598.428
936.6069, 5608.453
937.0891, 5616.022
937.5712, 5618.298
938.0533, 5621.557
938.5354, 5635.677
939.0175, 5653.445
939.4996, 5664.028
939.9818, 5656.040
940.4639, 5653.904
940.9460, 5660.187
941.4281, 5670.140
941.9102, 5679.685
942.3923, 5688.753
942.8745, 5696.090
943.3566, 5701.603
943.8387, 5707.968
944.3208, 5718.178
944.8029, 5729.533
945.2850, 5739.708
945.7672, 5748.402
946.2493, 5757.962
946.7314, 5769.384
947.2135, 5780.190
947.6956, 5789.451
948.1777, 5797.427
948.6599, 5804.097
949.1420, 5809.750
949.6241, 5815.956
950.1062, 5825.249
950.5883, 5833.200
951.0704, 5832.975
951.5526, 5830.115
952.0347, 5835.754
952.5168, 5856.620
952.9989, 5873.571
953.4810, 5884.486
953.9631, 5892.542
954.4453, 5901.892
954.9274, 5911.725
955.4095, 5918.729
955.8916, 5922.201
956.3737, 5925.682
956.8558, 5930.117
957.3380, 5936.458
957.8201, 5946.915
958.3022, 5961.964
958.7843, 5971.023
959.2664, 5971.914
959.7485, 5973.639
960.2307, 5981.338
960.7128, 5992.393
961.1949, 6001.186
961.6770, 6008.001
962.1591, 6013.674
962.6412, 6017.944
963.1234, 6022.101
963.6055, 6025.401
964.0876, 6029.638
964.5697, 6038.575
965.0518, 6053.986
965.5339, 6065.876
966.0161, 6072.850
966.4982, 6077.143
966.9803, 6078.016
967.4624, 6079.330
967.9445, 6089.314
968.4266, 6110.624
968.9088, 6128.408
969.3909, 6133.017
969.8730, 6136.554
970.3551, 6146.102
970.8372, 6160.916
971.3193, 6170.463
971.8015, 6174.375
972.2836, 6179.317
972.7657, 6189.577
973.2478, 6202.072
973.7299, 6213.513
974.2120, 6224.354
974.6942, 6235.852
975.1763, 6250.151
975.6584, 6262.571
976.1405, 6271.592
976.6226, 6279.750
977.1047, 6291.259
977.5869, 6305.814
978.0690, 6318.204
978.5511, 6327.273
979.0332, 6337.427
979.5153, 6356.334
979.9974, 6375.519
980.4796, 6385.582
980.9617, 6383.768
981.4438, 6388.624
981.9259, 6404.249
982.4080, 6419.285
982.8901, 6428.751
983.3723, 6433.838
983.8544, 6436.813
984.3365, 6438.389
984.8186, 6441.581
985.3007, 6448.561
985.7828, 6456.652
986.2650, 6465.031
986.7471, 6473.500
987.2292, 6481.935
987.7113, 6490.683
988.1934, 6497.063
988.6755, 6499.866
989.1577, 6503.853
989.6398, 6517.217
990.1219, 6534.166
990.6040, 6543.952
991.0861, 6545.287
991.5682, 6546.884
992.0504, 6554.708
992.5325, 6561.001
993.0146, 6562.016
993.4967, 6558.759
993.9788, 6554.794
994.4609, 6550.234
994.9431, 6552.399
995.4252, 6568.546
995.9073, 6586.532
996.3894, 6592.271
996.8715, 6591.174
997.3536, 6592.200
997.8358, 6596.996
998.3179, 6605.317
998.8000, 6618.238
999.2821, 6632.746
999.7642, 6645.570
1000.246, 6657.404
1000.728, 6673.444
1001.211, 6693.693
1001.693, 6709.267
1002.175, 6708.786
1002.657, 6706.693
1003.139, 6712.554
1003.621, 6725.768
1004.103, 6738.650
1004.585, 6751.568
1005.068, 6762.235
1005.550, 6769.045
1006.032, 6775.491
1006.514, 6789.626
1006.996, 6807.285
1007.478, 6819.936
1007.960, 6823.011
1008.442, 6826.500
1008.924, 6833.474
1009.407, 6842.185
1009.889, 6852.003
1010.371, 6862.952
1010.853, 6873.677
1011.335, 6884.308
1011.817, 6892.193
1012.299, 6892.009
1012.781, 6891.365
1013.263, 6898.382
1013.746, 6911.034
1014.228, 6921.624
1014.710, 6925.310
1015.192, 6934.523
1015.674, 6953.937
1016.156, 6974.721
1016.638, 6980.656
1017.120, 6977.072
1017.603, 6981.683
1018.085, 6998.506
1018.567, 7014.775
1019.049, 7021.264
1019.531, 7025.915
1020.013, 7034.502
1020.495, 7046.852
1020.977, 7058.377
1021.459, 7069.384
1021.942, 7076.315
1022.424, 7074.539
1022.906, 7071.305
1023.388, 7078.097
1023.870, 7090.724
1024.352, 7100.937
1024.834, 7102.767
1025.316, 7107.368
1025.799, 7117.182
1026.281, 7128.178
1026.763, 7134.487
1027.245, 7137.632
1027.727, 7150.933
1028.209, 7174.589
1028.691, 7194.132
1029.173, 7193.663
1029.656, 7191.111
1030.138, 7199.025
1030.620, 7215.841
1031.102, 7230.981
1031.584, 7244.552
1032.066, 7255.487
1032.548, 7263.146
1033.030, 7268.976
1033.512, 7272.197
1033.995, 7275.933
1034.477, 7286.822
1034.959, 7309.243
1035.441, 7327.321
1035.923, 7335.308
1036.405, 7340.095
1036.887, 7344.766
1037.369, 7349.397
1037.851, 7355.864
1038.334, 7363.698
1038.816, 7368.874
1039.298, 7365.810
1039.780, 7362.807
1040.262, 7365.428
1040.744, 7372.222
1041.226, 7380.296
1041.708, 7390.522
1042.191, 7398.692
1042.673, 7403.759
1043.155, 7410.156
1043.637, 7424.869
1044.119, 7443.147
1044.601, 7455.763
1045.083, 7462.497
1045.565, 7471.719
1046.047, 7494.667
1046.530, 7509.888
1047.012, 7506.200
1047.494, 7492.908
1047.976, 7497.595
1048.458, 7518.140
1048.940, 7536.603
1049.422, 7547.397
1049.904, 7557.282
1050.386, 7574.234
1050.869, 7591.194
1051.351, 7598.868
1051.833, 7593.789
1052.315, 7601.375
1052.797, 7624.989
1053.279, 7645.747
1053.761, 7648.789
1054.243, 7644.743
1054.726, 7652.140
1055.208, 7667.636
1055.690, 7682.474
1056.172, 7692.523
1056.654, 7703.291
1057.136, 7716.929
1057.618, 7730.000
1058.100, 7738.139
1058.583, 7741.985
1059.065, 7744.173
1059.547, 7745.057
1060.029, 7749.571
1060.511, 7764.510
1060.993, 7780.931
1061.475, 7794.759
1061.957, 7805.458
1062.439, 7809.680
1062.922, 7805.523
1063.404, 7807.620
1063.886, 7820.937
1064.368, 7837.759
1064.850, 7849.774
1065.332, 7858.859
1065.814, 7867.696
1066.296, 7877.042
1066.778, 7884.089
1067.261, 7886.947
1067.743, 7890.669
1068.225, 7898.044
1068.707, 7908.157
1069.189, 7916.946
1069.671, 7925.475
1070.153, 7937.664
1070.635, 7960.614
1071.118, 7980.229
1071.600, 7987.997
1072.082, 7991.069
1072.564, 7995.667
1073.046, 8001.626
1073.528, 8010.709
1074.010, 8022.899
1074.492, 8036.815
1074.974, 8051.794
1075.457, 8067.431
1075.939, 8084.002
1076.421, 8100.866
1076.903, 8116.415
1077.385, 8131.747
1077.867, 8141.432
1078.349, 8142.728
1078.831, 8142.949
1079.313, 8152.216
1079.796, 8167.119
1080.278, 8182.712
1080.760, 8198.620
1081.242, 8210.887
1081.724, 8215.543
1082.206, 8219.114
1082.688, 8222.999
1083.170, 8227.762
1083.652, 8235.738
1084.135, 8246.475
1084.617, 8257.437
1085.099, 8268.296
1085.581, 8278.193
1086.063, 8285.535
1086.545, 8292.625
1087.027, 8301.847
1087.509, 8313.483
1087.992, 8326.160
1088.474, 8340.182
1088.956, 8352.126
1089.438, 8357.938
1089.920, 8362.306
1090.402, 8368.439
1090.884, 8377.104
1091.366, 8390.423
1091.849, 8413.274
1092.331, 8430.143
1092.813, 8438.189
1093.295, 8445.025
1093.777, 8459.699
1094.259, 8477.953
1094.741, 8491.855
1095.223, 8501.161
1095.705, 8507.938
1096.188, 8509.042
1096.670, 8513.224
1097.152, 8524.816
1097.634, 8538.764
1098.116, 8543.721
1098.598, 8542.274
1099.080, 8548.947
1099.562, 8566.888
1100.044, 8585.552
1100.527, 8597.696
1101.009, 8608.696
1101.491, 8623.449
1101.973, 8632.617
1102.455, 8650.295
1102.937, 8651.897
1103.419, 8655.173
1103.901, 8662.937
1104.384, 8674.188
1104.866, 8689.016
1105.348, 8705.847
1105.830, 8723.767
1106.312, 8743.862
1106.794, 8757.618
1107.276, 8763.246
1107.758, 8768.577
1108.240, 8777.913
1108.723, 8790.001
1109.205, 8805.889
1109.687, 8822.764
1110.169, 8834.267
1110.651, 8829.313
1111.133, 8833.708
1111.615, 8855.235
1112.097, 8876.810
1112.579, 8878.714
1113.062, 8867.967
1113.544, 8871.816
1114.026, 8889.062
1114.508, 8906.064
1114.990, 8912.224
1115.472, 8921.505
1115.954, 8941.674
1116.436, 8965.438
1116.919, 8981.913
1117.401, 8991.489
1117.883, 8997.490
1118.365, 9000.014
1118.847, 9005.604
1119.329, 9020.490
1119.811, 9038.850
1120.293, 9058.646
1120.776, 9078.450
1121.258, 9093.217
1121.740, 9102.563
1122.222, 9110.021
1122.704, 9116.501
1123.186, 9120.934
1123.668, 9118.761
1124.150, 9116.295
1124.632, 9121.616
1125.115, 9136.970
1125.597, 9147.750
1126.079, 9151.044
1126.561, 9160.266
1127.043, 9184.747
1127.525, 9211.639
1128.007, 9215.341
1128.489, 9207.857
1128.971, 9210.476
1129.454, 9233.402
1129.936, 9252.232
1130.418, 9263.514
1130.900, 9272.530
1131.382, 9282.149
1131.864, 9292.014
1132.346, 9300.880
1132.828, 9309.279
1133.311, 9319.027
1133.793, 9331.608
1134.275, 9344.490
1134.757, 9357.110
1135.239, 9369.925
1135.721, 9384.427
1136.203, 9399.827
1136.685, 9409.104
1137.167, 9413.045
1137.650, 9419.158
1138.132, 9434.124
1138.614, 9449.673
1139.096, 9461.986
1139.578, 9472.829
1140.060, 9485.137
1140.542, 9499.080
1141.024, 9506.871
1141.506, 9507.771
1141.989, 9511.431
1142.471, 9528.869
1142.953, 9548.276
1143.435, 9561.453
1143.917, 9569.666
1144.399, 9578.158
1144.881, 9586.518
1145.363, 9599.571
1145.846, 9619.135
1146.328, 9636.197
1146.810, 9637.200
1147.292, 9634.215
1147.774, 9638.308
1148.256, 9650.732
1148.738, 9667.278
1149.220, 9689.281
1149.703, 9710.018
1150.185, 9728.318
1150.667, 9742.503
1151.149, 9746.408
1151.631, 9746.885
1152.113, 9753.026
1152.595, 9766.573
1153.077, 9785.501
1153.559, 9813.588
1154.042, 9835.152
1154.524, 9840.799
1155.006, 9840.753
1155.488, 9855.693
1155.970, 9878.670
1156.452, 9895.583
1156.934, 9901.341
1157.416, 9905.752
1157.898, 9908.318
1158.381, 9913.464
1158.863, 9925.420
1159.345, 9940.800
1159.827, 9948.966
1160.309, 9952.310
1160.791, 9957.147
1161.273, 9966.655
1161.755, 9976.781
1162.238, 9986.855
1162.720, 9997.611
1163.202, 10010.59
1163.684, 10020.49
1164.166, 10035.11
1164.648, 10042.16
1165.130, 10050.84
1165.612, 10061.47
1166.094, 10076.73
1166.577, 10101.32
1167.059, 10126.55
1167.541, 10142.92
1168.023, 10151.31
1168.505, 10159.20
1168.987, 10166.90
1169.469, 10176.08
1169.951, 10189.29
1170.433, 10202.11
1170.916, 10210.70
1171.398, 10219.15
1171.880, 10234.85
1172.362, 10257.27
1172.844, 10271.28
1173.326, 10275.96
1173.808, 10280.50
1174.290, 10293.03
1174.773, 10305.67
1175.255, 10312.21
1175.737, 10316.50
1176.219, 10326.93
1176.701, 10343.72
1177.183, 10354.34
1177.665, 10357.08
1178.147, 10358.12
1178.630, 10358.19
1179.112, 10362.18
1179.594, 10375.31
1180.076, 10395.21
1180.558, 10415.82
1181.040, 10437.52
1181.522, 10453.07
1182.004, 10460.13
1182.486, 10467.19
1182.969, 10484.68
1183.451, 10502.74
1183.933, 10509.43
1184.415, 10529.22
1184.897, 10522.69
1185.379, 10556.86
1185.861, 10581.19
1186.343, 10586.39
1186.825, 10586.96
1187.308, 10596.24
1187.790, 10608.46
1188.272, 10618.44
1188.754, 10625.97
1189.236, 10631.48
1189.718, 10634.58
1190.200, 10640.44
1190.682, 10650.68
1191.165, 10664.86
1191.647, 10687.75
1192.129, 10710.96
1192.611, 10723.83
1193.093, 10724.43
1193.575, 10729.45
1194.057, 10738.67
1194.539, 10753.96
1195.021, 10778.53
1195.504, 10804.15
1195.986, 10819.30
1196.468, 10831.01
1196.950, 10850.00
1197.432, 10879.94
1197.914, 10895.97
1198.396, 10896.04
1198.878, 10895.10
1199.360, 10899.20
1199.843, 10907.44
1200.325, 10920.17
1200.807, 10935.78
1201.289, 10953.44
1201.771, 10975.94
1202.253, 10984.63
1202.735, 10976.99
1203.217, 10972.97
1203.700, 10985.23
1204.182, 11005.24
1204.664, 11026.93
1205.146, 11048.37
1205.628, 11066.36
1206.110, 11079.69
1206.592, 11092.97
1207.074, 11106.28
1207.557, 11118.74
1208.039, 11129.25
1208.521, 11138.82
1209.003, 11146.81
1209.485, 11155.16
1209.967, 11167.64
1210.449, 11184.85
1210.931, 11206.10
1211.413, 11232.83
1211.896, 11255.29
1212.378, 11261.71
1212.860, 11265.13
1213.342, 11282.69
1213.824, 11306.81
1214.306, 11320.50
1214.788, 11318.12
1215.270, 11322.33
1215.752, 11334.20
1216.235, 11348.40
1216.717, 11366.09
1217.199, 11379.89
1217.681, 11376.62
1218.163, 11365.24
1218.645, 11366.73
1219.127, 11385.91
1219.609, 11401.58
1220.092, 11412.76
1220.574, 11422.87
1221.056, 11433.99
1221.538, 11445.90
1222.020, 11458.42
1222.502, 11471.46
1222.984, 11485.14
1223.466, 11499.14
1223.948, 11514.96
1224.431, 11532.80
1224.913, 11550.30
1225.395, 11566.80
1225.877, 11580.90
1226.359, 11587.74
1226.841, 11592.45
1227.323, 11608.19
1227.805, 11637.64
1228.287, 11659.82
1228.770, 11673.13
1229.252, 11681.93
1229.734, 11682.38
1230.216, 11686.51
1230.698, 11709.26
1231.180, 11740.62
1231.662, 11755.92
1232.144, 11753.47
1232.627, 11758.97
1233.109, 11774.71
1233.591, 11791.78
1234.073, 11803.74
1234.555, 11814.76
1235.037, 11830.96
1235.519, 11846.92
1236.001, 11848.66
1236.484, 11836.26
1236.966, 11841.88
1237.448, 11868.36
1237.930, 11895.55
1238.412, 11910.40
1238.894, 11921.50
1239.376, 11931.86
1239.858, 11942.38
1240.340, 11955.44
1240.823, 11970.29
1241.305, 11980.29
1241.787, 11984.89
1242.269, 11990.76
1242.751, 12003.63
1243.233, 12016.82
1243.715, 12027.27
1244.197, 12036.53
1244.679, 12045.84
1245.162, 12055.96
1245.644, 12069.73
1246.126, 12087.61
1246.608, 12109.68
1247.090, 12143.70
1247.572, 12172.01
1248.054, 12187.25
1248.536, 12196.75
1249.019, 12210.42
1249.501, 12227.14
1249.983, 12243.24
1250.465, 12258.55
1250.947, 12277.39
1251.429, 12312.36
1251.911, 12334.06
1252.393, 12331.17
1252.875, 12322.44
1253.358, 12337.85
1253.840, 12365.36
1254.322, 12375.26
1254.804, 12367.74
1255.286, 12366.45
1255.768, 12382.29
1256.250, 12398.13
1256.732, 12411.56
1257.214, 12424.29
1257.697, 12437.65
1258.179, 12452.32
1258.661, 12472.19
1259.143, 12495.58
1259.625, 12508.24
1260.107, 12501.01
1260.589, 12504.81
1261.071, 12525.54
1261.554, 12551.80
1262.036, 12576.10
1262.518, 12595.57
1263.000, 12603.59
1263.482, 12603.12
1263.964, 12609.39
1264.446, 12623.91
1264.928, 12641.11
1265.411, 12660.58
1265.893, 12678.77
1266.375, 12690.17
1266.857, 12701.00
1267.339, 12716.27
1267.821, 12735.60
1268.303, 12758.02
1268.785, 12784.54
1269.267, 12799.80
1269.750, 12801.75
1270.232, 12803.78
1270.714, 12815.38
1271.196, 12831.12
1271.678, 12851.58
1272.160, 12871.83
1272.642, 12882.56
1273.124, 12884.54
1273.606, 12888.88
1274.089, 12896.50
1274.571, 12906.17
1275.053, 12921.48
1275.535, 12933.14
1276.017, 12934.17
1276.499, 12934.36
1276.981, 12948.68
1277.463, 12973.33
1277.946, 12994.56
1278.428, 13011.67
1278.910, 13028.10
1279.392, 13046.70
1279.874, 13062.00
1280.356, 13072.18
1280.838, 13080.80
1281.320, 13094.11
1281.802, 13107.99
1282.285, 13109.20
1282.767, 13123.88
1283.249, 13137.95
1283.731, 13142.64
1284.213, 13166.29
1284.695, 13172.94
1285.177, 13176.43
1285.659, 13189.08
1286.141, 13206.35
1286.624, 13224.36
1287.106, 13241.95
1287.588, 13256.06
1288.070, 13265.35
1288.552, 13276.11
1289.034, 13288.59
1289.516, 13303.24
1289.998, 13322.53
1290.481, 13341.95
1290.963, 13359.02
1291.445, 13372.76
1291.927, 13379.68
1292.409, 13378.36
1292.891, 13397.86
1293.373, 13437.19
1293.855, 13471.18
1294.338, 13476.51
1294.820, 13482.75
1295.302, 13509.42
1295.784, 13538.53
1296.266, 13551.01
1296.748, 13551.08
1297.230, 13567.87
1297.712, 13599.25
1298.194, 13632.36
1298.677, 13661.26
1299.159, 13683.46
1299.641, 13696.05
1300.123, 13706.87
1300.605, 13721.80
1301.087, 13738.27
1301.569, 13748.99
1302.051, 13753.22
1302.533, 13750.73
1303.016, 13730.49
##END=



