##NAMES=Ammineite
##RRUFFID=R120155
##IDEAL CHEMISTRY=Cu^2+^Cl_2_(N^3-^H_3_)_2_
##LOCALITY=Caleta Pabellon de Pica, Punta Colina, Iquique, I Region, Chile
##OWNER=RRUFF
##SOURCE=Marcus Origlieri
##DESCRIPTION=Blue massive to granular associated with colorless halite
##STATUS=The identification of this mineral has been confirmed by single-crystal X-ray diffraction.
##URL=rruff.info/R120155
139.9795, 68.15653
141.9080, 68.24683
143.8364, 68.49810
145.7649, 69.01492
147.6934, 69.77763
149.6218, 70.85243
151.5503, 72.09303
153.4788, 73.81022
155.4072, 76.07773
157.3357, 78.92097
159.2642, 82.75173
161.1926, 87.49789
163.1211, 93.44450
165.0496, 101.1297
166.9780, 109.5791
168.9065, 118.9693
170.8350, 128.6767
172.7634, 136.4169
174.6919, 143.3352
176.6204, 145.5777
178.5488, 141.6014
180.4773, 134.7485
182.4058, 124.8763
184.3342, 114.0057
186.2627, 105.6364
188.1912, 100.3305
190.1196, 95.90291
192.0481, 92.41747
193.9766, 89.63911
195.9050, 87.68214
197.8335, 86.27866
199.7620, 85.22041
201.6904, 84.51482
203.6189, 84.24723
205.5474, 84.06862
207.4758, 85.17805
209.4043, 88.05077
211.3328, 92.27908
213.2612, 97.71826
215.1897, 104.2725
217.1182, 111.8672
219.0466, 120.7454
220.9751, 129.3251
222.9036, 139.8443
224.8320, 145.5373
226.7605, 144.2556
228.6890, 136.7644
230.6174, 121.9404
232.5459, 99.78971
234.4744, 81.21423
236.4028, 66.60842
238.3313, 55.26929
240.2598, 48.06284
242.1882, 42.96161
244.1167, 39.16290
246.0452, 36.55723
247.9736, 34.86229
249.9021, 34.08891
251.8306, 33.44636
253.7590, 32.87910
255.6875, 32.26817
257.6160, 31.45082
259.5444, 30.65299
261.4729, 30.18969
263.4014, 29.99904
265.3298, 29.77121
267.2583, 29.46163
269.1868, 29.23421
271.1152, 29.19375
273.0437, 29.16898
274.9722, 29.12212
276.9006, 29.01777
278.8291, 28.74760
280.7576, 28.33331
282.6860, 28.04975
284.6145, 27.97440
286.5430, 27.95723
288.4714, 28.04135
290.3999, 28.09704
292.3284, 28.09310
294.2568, 27.96894
296.1853, 27.50788
298.1138, 26.63731
300.0422, 26.20139
301.9707, 26.82885
303.8992, 27.18683
305.8276, 26.74367
307.7561, 26.16165
309.6846, 26.11700
311.6130, 26.32973
313.5415, 26.11974
315.4700, 25.27595
317.3984, 24.77548
319.3269, 24.92521
321.2554, 25.05746
323.1838, 25.04804
325.1123, 24.90356
327.0408, 24.53606
328.9692, 24.04991
330.8977, 23.79220
332.8262, 23.88919
334.7546, 23.89610
336.6831, 23.85143
338.6116, 23.66592
340.5400, 23.13375
342.4685, 22.62640
344.3970, 22.42798
346.3254, 22.47031
348.2539, 22.53414
350.1824, 22.62756
352.1108, 22.71813
354.0393, 22.82343
355.9678, 22.89025
357.8962, 22.85285
359.8247, 22.82705
361.7532, 22.91686
363.6816, 23.06785
365.6101, 23.11875
367.5386, 23.02408
369.4670, 23.13007
371.3955, 23.47457
373.3240, 23.91221
375.2524, 24.48973
377.1809, 25.03640
379.1094, 25.36707
381.0378, 25.65743
382.9663, 26.05666
384.8948, 26.58281
386.8232, 27.95519
388.7517, 30.38141
390.6802, 32.57900
392.6086, 34.26841
394.5371, 35.69169
396.4656, 36.73806
398.3940, 37.78581
400.3225, 39.00146
402.2510, 40.52385
404.1794, 43.00041
406.1079, 46.40673
408.0364, 50.30241
409.9648, 54.60790
411.8933, 59.48219
413.8218, 65.75696
415.7502, 71.72925
417.6787, 78.32576
419.6072, 83.07566
421.5356, 80.76426
423.4641, 72.28909
425.3926, 62.09216
427.3210, 49.70858
429.2495, 39.66031
431.1780, 33.69694
433.1064, 29.33902
435.0349, 26.18720
436.9634, 23.99670
438.8918, 22.91590
440.8203, 22.55523
442.7488, 21.98137
444.6772, 21.22932
446.6057, 20.78045
448.5342, 20.81803
450.4626, 20.78662
452.3911, 20.54945
454.3196, 20.27773
456.2480, 20.02554
458.1765, 19.77803
460.1050, 19.47357
462.0334, 19.17892
463.9619, 19.05709
465.8904, 19.11505
467.8188, 19.15983
469.7473, 19.22546
471.6758, 19.16991
473.6042, 18.83911
475.5327, 18.56829
477.4612, 18.52934
479.3896, 18.58146
481.3181, 18.65956
483.2466, 18.70834
485.1750, 18.55488
487.1035, 18.64537
489.0320, 18.23500
490.9604, 18.44363
492.8889, 18.49493
494.8174, 17.91764
496.7458, 18.15204
498.6743, 18.06115
500.6028, 17.95692
502.5313, 18.30556
504.4597, 17.81969
506.3882, 18.16116
508.3167, 18.17236
510.2451, 18.33472
512.1736, 18.16978
514.1021, 18.10592
516.0305, 18.36948
517.9590, 18.45175
519.8875, 18.24913
521.8159, 18.42109
523.7444, 17.92379
525.6729, 18.01378
527.6013, 18.35715
529.5298, 18.17099
531.4583, 18.34894
533.3867, 18.38821
535.3152, 17.79727
537.2437, 18.30234
539.1721, 18.33342
541.1006, 17.87782
543.0291, 18.34533
544.9575, 17.95682
546.8860, 17.87386
548.8145, 18.02084
550.7429, 17.92812
552.6714, 18.21332
554.5999, 18.13444
556.5283, 18.02303
558.4568, 18.05358
560.3853, 17.97305
562.3137, 18.05642
564.2422, 17.92121
566.1707, 18.03940
568.0991, 18.06497
570.0276, 17.90383
571.9561, 17.75305
573.8845, 17.81468
575.8130, 17.98018
577.7415, 18.06460
579.6699, 18.12235
581.5984, 18.44847
583.5269, 18.38315
585.4553, 19.08755
587.3838, 18.50357
589.3123, 18.15569
591.2407, 18.40281
593.1692, 18.61276
595.0977, 18.60326
597.0261, 18.54649
598.9546, 18.48694
600.8831, 18.46870
602.8115, 18.52929
604.7400, 18.76868
606.6685, 18.75429
608.5969, 18.94677
610.5254, 19.16355
612.4539, 19.24475
614.3823, 19.61117
616.3108, 19.81135
618.2393, 19.87893
620.1677, 19.71081
622.0962, 19.57691
624.0247, 19.49176
625.9531, 19.55052
627.8816, 19.82962
629.8101, 20.27702
631.7385, 20.96960
633.6670, 21.72398
635.5955, 22.12404
637.5239, 22.19575
639.4524, 22.33462
641.3809, 22.53811
643.3093, 22.85550
645.2378, 23.41314
647.1663, 23.86623
649.0947, 24.18905
651.0232, 24.40819
652.9517, 24.31794
654.8801, 24.40382
656.8086, 24.92688
658.7371, 25.78118
660.6655, 27.01731
662.5940, 28.41850
664.5225, 29.58984
666.4509, 30.58920
668.3794, 31.85967
670.3079, 33.51888
672.2363, 34.24574
674.1648, 33.92789
676.0933, 33.18481
678.0217, 32.01682
679.9502, 30.48716
681.8787, 28.33489
683.8071, 26.40704
685.7356, 25.10112
687.6641, 24.07743
689.5925, 23.11692
691.5210, 22.35871
693.4495, 22.11873
695.3779, 21.34242
697.3064, 21.44335
699.2349, 20.49986
701.1633, 20.03063
703.0918, 20.03373
705.0203, 20.13984
706.9487, 20.35827
708.8772, 20.53440
710.8057, 20.69969
712.7341, 20.52562
714.6626, 19.73190
716.5911, 19.13987
718.5195, 19.10593
720.4480, 19.19535
722.3765, 19.37357
724.3049, 19.46834
726.2334, 19.20245
728.1619, 18.95579
730.0903, 19.25362
732.0188, 19.76593
733.9473, 19.92683
735.8757, 19.82551
737.8042, 19.69399
739.7327, 19.55062
741.6611, 19.51155
743.5896, 19.58076
745.5181, 19.61411
747.4465, 19.59221
749.3750, 19.55430
751.3035, 19.44182
753.2319, 19.45733
755.1604, 19.81891
757.0889, 20.01546
759.0173, 19.79737
760.9458, 19.56081
762.8743, 19.42999
764.8027, 19.40777
766.7312, 19.61002
768.6597, 19.81381
770.5881, 19.71346
772.5166, 19.53505
774.4451, 19.60331
776.3735, 19.81608
778.3020, 19.95893
780.2305, 20.03872
782.1589, 20.11240
784.0874, 20.18186
786.0159, 20.20298
787.9443, 20.16132
789.8728, 20.12495
791.8013, 20.04700
793.7297, 20.07774
795.6582, 20.26084
797.5867, 20.47336
799.5151, 20.78303
801.4436, 20.95718
803.3721, 20.88198
805.3005, 20.74557
807.2290, 20.55737
809.1575, 20.43284
811.0859, 20.46130
813.0144, 20.55133
814.9429, 20.65386
816.8713, 20.76866
818.7998, 20.93636
820.7283, 21.08580
822.6567, 21.10422
824.5852, 21.03131
826.5137, 20.90674
828.4421, 20.77177
830.3706, 20.85157
832.2991, 21.10601
834.2275, 21.05798
836.1560, 20.69441
838.0845, 20.66256
840.0129, 20.98371
841.9414, 21.26633
843.8699, 21.50141
845.7983, 21.52987
847.7268, 21.29496
849.6553, 21.05242
851.5837, 20.80621
853.5122, 20.73629
855.4407, 21.02617
857.3691, 21.14730
859.2976, 20.78513
861.2261, 20.49369
863.1545, 20.46634
865.0830, 20.52905
867.0115, 20.71415
868.9399, 20.83157
870.8684, 20.78988
872.7969, 20.62041
874.7253, 20.28427
876.6538, 19.89857
878.5823, 19.58439
880.5107, 19.27321
882.4392, 18.72742
884.3677, 18.25397
886.2961, 18.46623
888.2246, 18.98418
890.1531, 19.11872
892.0815, 19.00693
894.0100, 18.86427
895.9385, 18.74413
897.8669, 18.86883
899.7954, 19.15260
901.7239, 19.19929
903.6523, 19.01413
905.5808, 18.71173
907.5093, 18.29896
909.4377, 18.09889
911.3662, 18.14923
913.2947, 18.17318
915.2231, 18.17102
917.1516, 18.09398
919.0801, 17.90507
921.0085, 17.73990
922.9370, 17.59316
924.8655, 17.48748
926.7939, 17.43737
928.7224, 17.40285
930.6509, 17.45856
932.5793, 17.35710
934.5078, 16.94409
936.4363, 16.64759
938.3647, 16.57033
940.2932, 16.57074
942.2217, 16.64676
944.1501, 16.72280
946.0786, 16.80490
948.0071, 16.81828
949.9355, 16.74994
951.8640, 16.56125
953.7925, 16.04696
955.7209, 15.78981
957.6494, 16.28283
959.5779, 16.70930
961.5063, 16.54753
963.4348, 16.37583
965.3633, 16.57417
967.2917, 16.76089
969.2202, 16.65527
971.1487, 16.56632
973.0771, 16.77461
975.0056, 16.94929
976.9341, 16.78938
978.8625, 16.59328
980.7910, 16.58782
982.7195, 16.64552
984.6479, 16.64253
986.5764, 16.67318
988.5049, 16.95260
990.4333, 17.16484
992.3618, 16.93540
994.2903, 16.54602
996.2188, 16.17661
998.1472, 15.93056
1000.076, 16.06882
1002.004, 16.25005
1003.933, 15.98843
1005.861, 15.62282
1007.790, 15.48044
1009.718, 15.56078
1011.646, 16.12848
1013.575, 16.67095
1015.503, 16.35130
1017.432, 15.75286
1019.360, 15.59045
1021.289, 15.68206
1023.217, 15.92044
1025.146, 16.13949
1027.074, 16.04436
1029.003, 15.85361
1030.931, 15.80666
1032.860, 15.89570
1034.788, 16.23160
1036.717, 16.58875
1038.645, 16.66133
1040.573, 16.57605
1042.502, 16.39785
1044.430, 16.25095
1046.359, 16.36734
1048.287, 16.53915
1050.216, 16.51229
1052.144, 16.38238
1054.073, 16.27028
1056.001, 16.12424
1057.930, 15.75004
1059.858, 15.43594
1061.787, 15.67858
1063.715, 16.01008
1065.644, 15.85298
1067.572, 15.54305
1069.500, 15.43295
1071.429, 15.37414
1073.357, 15.14105
1075.286, 14.96212
1077.214, 15.21048
1079.143, 15.45116
1081.071, 15.07190
1083.000, 14.75579
1084.928, 15.31715
1086.857, 15.91902
1088.785, 15.83617
1090.714, 15.59809
1092.642, 15.58943
1094.571, 15.57659
1096.499, 15.29906
1098.427, 15.10081
1100.356, 15.33003
1102.284, 15.51207
1104.213, 15.28992
1106.141, 15.08158
1108.070, 15.12301
1109.998, 15.18430
1111.927, 15.12911
1113.855, 15.13039
1115.784, 15.40579
1117.712, 15.49774
1119.641, 15.01333
1121.569, 14.77275
1123.498, 15.23721
1125.426, 15.51325
1127.354, 15.25080
1129.283, 15.08133
1131.211, 15.26868
1133.140, 15.20732
1135.068, 14.61443
1136.997, 14.27140
1138.925, 14.32649
1140.854, 14.55123
1142.782, 15.00425
1144.711, 15.26000
1146.639, 15.26510
1148.568, 15.10915
1150.496, 14.75992
1152.425, 14.60470
1154.353, 14.67959
1156.281, 14.71143
1158.210, 14.68846
1160.138, 14.78842
1162.067, 14.70399
1163.995, 14.61509
1165.924, 14.57320
1167.852, 14.37613
1169.781, 14.29784
1171.709, 14.27168
1173.638, 14.27579
1175.566, 14.16012
1177.495, 14.07817
1179.423, 14.53173
1181.352, 14.47327
1183.280, 15.04611
1185.208, 14.79023
1187.137, 14.94090
1189.065, 15.11862
1190.994, 14.87640
1192.922, 14.60880
1194.851, 14.66023
1196.779, 14.69492
1198.708, 14.39440
1200.636, 14.24523
1202.565, 14.62353
1204.493, 14.89546
1206.422, 14.73922
1208.350, 14.64960
1210.279, 14.87699
1212.207, 14.78893
1214.135, 14.08072
1216.064, 13.81526
1217.992, 14.24574
1219.921, 14.67065
1221.849, 15.00853
1223.778, 15.22481
1225.706, 15.31601
1227.635, 15.15152
1229.563, 14.75993
1231.492, 14.46850
1233.420, 14.31758
1235.349, 14.57435
1237.277, 15.06264
1239.206, 15.30739
1241.134, 15.35880
1243.063, 15.12174
1244.991, 14.95063
1246.919, 15.54112
1248.848, 16.22174
1250.776, 16.29177
1252.705, 16.17970
1254.633, 16.06018
1256.562, 16.08519
1258.490, 16.41444
1260.419, 16.77407
1262.347, 16.98251
1264.276, 17.36297
1266.204, 18.03092
1268.133, 18.76214
1270.061, 19.48328
1271.990, 20.47978
1273.918, 21.82777
1275.846, 22.91353
1277.775, 23.71993
1279.703, 25.36510
1281.632, 27.79560
1283.560, 30.95550
1285.489, 34.20729
1287.417, 35.89217
1289.346, 36.07818
1291.274, 34.41747
1293.203, 31.86430
1295.131, 29.01679
1297.060, 26.35339
1298.988, 24.15183
1300.917, 22.38731
1302.845, 21.17341
1304.773, 20.11587
1306.702, 19.05907
1308.630, 18.15822
1310.559, 17.40348
1312.487, 17.02958
1314.416, 17.17600
1316.344, 17.04564
1318.273, 16.57400
1320.201, 16.34517
1322.130, 16.34561
1324.058, 16.64111
1325.987, 16.98973
1327.915, 16.42416
1329.844, 15.66328
1331.772, 15.97215
1333.700, 16.60439
1335.629, 17.04202
##END=



