##NAMES=Ammonioalunite
##RRUFFID=R060873
##IDEAL CHEMISTRY=N^3-^H_4_Al_3_(S^6+^O_4_)_2_(OH)_6_
##LOCALITY=Sch√∂ller mine, Kladno, Central Bohemia Region, Bohemia, Czech Republic
##OWNER=RRUFF
##SOURCE=Michael Scott
##DESCRIPTION=Tan colored fine-grained consolidated fragments
##STATUS=The identification of this mineral has been made only by X-ray diffraction.
##URL=rruff.info/R060873
155.758, 66932.422
156.240, 67149.031
156.722, 67446.617
157.204, 67794.656
157.686, 68191.906
158.169, 68659.711
158.651, 69228.109
159.133, 69923.812
159.615, 70621.250
160.097, 71336.039
160.579, 72043.688
161.061, 72710.828
161.543, 73348.297
162.025, 74006.273
162.508, 74751.656
162.990, 75634.391
163.472, 76446.406
163.954, 77182.961
164.436, 77868.102
164.918, 78530.570
165.400, 79162.906
165.883, 79736.000
166.365, 80201.539
166.847, 80518.609
167.329, 80845.312
167.811, 81234.523
168.293, 81594.109
168.775, 81867.391
169.257, 82046.523
169.739, 82152.227
170.221, 82203.656
170.704, 82182.602
171.186, 82162.844
171.668, 82155.188
172.150, 82144.328
172.632, 82114.773
173.114, 82067.273
173.596, 82021.297
174.078, 82001.633
174.561, 82024.383
175.043, 82024.617
175.525, 81955.711
176.007, 81897.008
176.489, 81917.242
176.971, 82023.477
177.453, 82161.492
177.935, 82267.273
178.417, 82318.133
178.900, 82421.859
179.382, 82623.656
179.864, 82847.344
180.346, 83032.938
180.828, 83171.133
181.310, 83287.094
181.792, 83406.961
182.274, 83531.227
182.757, 83654.133
183.239, 83759.492
183.721, 83871.906
184.203, 84005.633
184.685, 84163.297
185.167, 84352.688
185.649, 84592.352
186.131, 84901.508
186.613, 85151.711
187.096, 85325.359
187.578, 85450.602
188.060, 85532.023
188.542, 85574.094
189.024, 85617.273
189.506, 85709.273
189.988, 85860.562
190.470, 85968.422
190.952, 85964.977
191.435, 85959.273
191.917, 86056.430
192.399, 86264.133
192.881, 86497.344
193.363, 86681.180
193.845, 86810.461
194.327, 86932.891
194.809, 87038.500
195.292, 87146.398
195.774, 87281.094
196.256, 87442.781
196.738, 87596.328
197.220, 87712.398
197.702, 87788.094
198.184, 87854.352
198.666, 87882.828
199.148, 87922.688
199.631, 88040.477
200.113, 88231.133
200.595, 88386.797
201.077, 88410.844
201.559, 88303.352
202.041, 88235.727
202.523, 88215.797
203.005, 88228.797
203.488, 88284.477
203.970, 88375.781
204.452, 88448.812
204.934, 88462.289
205.416, 88417.539
205.898, 88371.250
206.380, 88295.906
206.862, 88239.891
207.344, 88244.430
207.827, 88302.539
208.309, 88366.297
208.791, 88401.992
209.273, 88418.523
209.755, 88464.094
210.237, 88550.672
210.719, 88652.594
211.201, 88763.367
211.684, 88879.258
212.166, 88986.320
212.648, 89070.391
213.130, 89142.000
213.612, 89242.828
214.094, 89419.758
214.576, 89573.469
215.058, 89639.000
215.540, 89639.273
216.023, 89646.344
216.505, 89692.094
216.987, 89773.070
217.469, 89879.508
217.951, 90052.094
218.433, 90190.789
218.915, 90235.859
219.397, 90217.602
219.880, 90212.258
220.362, 90258.500
220.844, 90325.352
221.326, 90328.562
221.808, 90231.281
222.290, 90159.992
222.772, 90162.281
223.254, 90216.141
223.736, 90287.227
224.219, 90367.703
224.701, 90445.352
225.183, 90487.000
225.665, 90469.062
226.147, 90483.750
226.629, 90587.656
227.111, 90724.961
227.593, 90812.000
228.076, 90822.797
228.558, 90793.047
229.040, 90762.992
229.522, 90708.938
230.004, 90736.578
230.486, 90938.844
230.968, 91194.477
231.450, 91365.547
231.932, 91422.227
232.415, 91424.258
232.897, 91439.523
233.379, 91473.281
233.861, 91498.172
234.343, 91475.117
234.825, 91466.680
235.307, 91553.180
235.789, 91735.422
236.271, 91913.641
236.754, 91985.328
237.236, 91929.828
237.718, 91887.797
238.200, 91856.250
238.682, 91839.453
239.164, 91848.938
239.646, 91880.242
240.128, 91907.594
240.611, 91905.719
241.093, 91874.508
241.575, 91887.312
242.057, 92007.023
242.539, 92105.453
243.021, 92104.898
243.503, 92031.227
243.985, 91967.398
244.467, 91971.680
244.950, 92033.156
245.432, 92040.562
245.914, 91943.273
246.396, 91860.289
246.878, 91825.539
247.360, 91828.078
247.842, 91848.211
248.324, 91876.898
248.807, 91911.430
249.289, 91941.297
249.771, 91964.211
250.253, 91983.656
250.735, 91981.820
251.217, 91981.359
251.699, 92017.688
252.181, 92103.656
252.663, 92209.492
253.146, 92270.797
253.628, 92223.523
254.110, 92216.031
254.592, 92267.422
255.074, 92343.727
255.556, 92408.047
256.038, 92454.039
256.520, 92514.359
257.003, 92650.023
257.485, 92951.422
257.967, 93100.703
258.449, 92984.867
258.931, 92833.406
259.413, 92796.406
259.895, 92877.578
260.377, 92979.773
260.859, 92999.297
261.342, 92919.367
261.824, 92860.844
262.306, 92814.250
262.788, 92798.070
263.270, 92850.344
263.752, 92943.727
264.234, 93010.719
264.716, 92994.977
265.198, 92901.977
265.681, 92826.328
266.163, 92766.383
266.645, 92728.648
267.127, 92740.898
267.609, 92771.344
268.091, 92769.320
268.573, 92702.906
269.056, 92593.852
269.538, 92514.250
270.020, 92474.023
270.502, 92449.781
270.984, 92429.883
271.466, 92422.727
271.948, 92443.680
272.430, 92500.297
272.912, 92565.938
273.395, 92587.359
273.877, 92542.328
274.359, 92528.320
274.841, 92582.477
275.323, 92663.156
275.805, 92742.562
276.287, 92815.852
276.769, 92900.047
277.251, 93014.930
277.734, 93160.648
278.216, 93311.531
278.698, 93471.453
279.180, 93626.703
279.662, 93763.844
280.144, 93885.039
280.626, 94007.133
281.108, 94160.273
281.591, 94326.609
282.073, 94434.344
282.555, 94466.148
283.037, 94459.156
283.519, 94420.773
284.001, 94364.070
284.483, 94321.469
284.965, 94321.219
285.447, 94336.438
285.930, 94332.188
286.412, 94310.953
286.894, 94255.383
287.376, 94131.188
287.858, 93970.469
288.340, 93837.023
288.822, 93756.500
289.304, 93686.492
289.786, 93601.281
290.269, 93500.641
290.751, 93373.203
291.233, 93190.750
291.715, 93003.711
292.197, 92921.000
292.679, 92987.117
293.161, 93035.477
293.643, 92967.430
294.125, 92839.008
294.608, 92767.070
295.090, 92791.727
295.572, 92849.273
296.054, 92836.789
296.536, 92726.539
297.018, 92669.891
297.500, 92702.422
297.983, 92784.883
298.465, 92889.250
298.947, 93007.758
299.429, 93129.789
299.911, 93247.609
300.393, 93360.789
300.875, 93444.617
301.357, 93471.680
301.839, 93495.594
302.322, 93541.969
302.804, 93607.406
303.286, 93678.523
303.768, 93748.047
304.250, 93815.617
304.732, 93878.133
305.214, 93984.641
305.696, 94029.406
306.178, 93964.188
306.661, 93839.922
307.143, 93710.820
307.625, 93599.453
308.107, 93510.602
308.589, 93459.609
309.071, 93499.633
309.553, 93476.828
310.035, 93352.094
310.517, 93197.477
311.000, 93060.656
311.482, 92949.727
311.964, 92843.273
312.446, 92706.523
312.928, 92526.383
313.410, 92412.297
313.892, 92424.820
314.374, 92451.562
314.857, 92459.172
315.339, 92448.250
315.821, 92430.008
316.303, 92419.289
316.785, 92405.594
317.267, 92333.406
317.749, 92151.531
318.231, 92020.508
318.714, 92031.461
319.196, 92116.570
319.678, 92197.422
320.160, 92247.117
320.642, 92289.531
321.124, 92352.383
321.606, 92434.883
322.088, 92533.992
322.570, 92684.250
323.052, 92815.492
323.535, 92831.070
324.017, 92709.359
324.499, 92617.594
324.981, 92675.867
325.463, 92834.602
325.945, 92977.867
326.427, 93090.648
326.909, 93163.023
327.392, 93165.797
327.874, 93106.547
328.356, 93054.633
328.838, 93028.523
329.320, 93011.320
329.802, 92988.344
330.284, 92959.523
330.766, 92935.344
331.249, 92931.773
331.731, 92939.109
332.213, 92890.352
332.695, 92745.633
333.177, 92600.578
333.659, 92478.594
334.141, 92380.094
334.623, 92309.594
335.105, 92270.977
335.588, 92246.359
336.070, 92199.602
336.552, 92130.906
337.034, 92038.133
337.516, 91900.852
337.998, 91755.883
338.480, 91618.656
338.962, 91498.727
339.444, 91415.242
339.927, 91392.102
340.409, 91435.383
340.891, 91482.023
341.373, 91545.133
341.855, 91597.094
342.337, 91626.883
342.819, 91638.742
343.301, 91636.273
343.784, 91614.648
344.266, 91591.383
344.748, 91630.773
345.230, 91778.789
345.712, 91881.531
346.194, 91845.070
346.676, 91777.953
347.158, 91775.930
347.641, 91861.719
348.123, 91985.711
348.605, 92127.156
349.087, 92281.828
349.569, 92348.078
350.051, 92261.492
350.533, 92143.570
351.015, 92097.188
351.497, 92112.312
351.979, 92129.547
352.462, 92126.648
352.944, 92110.570
353.426, 92096.898
353.908, 92088.062
354.390, 92060.109
354.872, 92006.352
355.354, 91916.742
355.836, 91772.992
356.319, 91505.547
356.801, 91260.383
357.283, 91124.406
357.765, 91064.648
358.247, 91012.438
358.729, 90943.656
359.211, 90862.438
359.693, 90773.383
360.176, 90653.141
360.658, 90578.547
361.140, 90572.867
361.622, 90599.656
362.104, 90653.328
362.586, 90719.727
363.068, 90750.844
363.550, 90693.430
364.032, 90544.133
364.515, 90451.906
364.997, 90423.453
365.479, 90447.750
365.961, 90589.820
366.443, 90765.898
366.925, 90843.523
367.407, 90753.070
367.889, 90586.391
368.371, 90545.172
368.854, 90681.844
369.336, 90791.930
369.818, 90819.047
370.300, 90824.117
370.782, 90837.070
371.264, 90863.391
371.746, 90906.117
372.228, 90987.078
372.711, 91092.273
373.193, 91149.469
373.675, 91148.242
374.157, 91111.773
374.639, 91043.047
375.121, 90951.570
375.603, 90854.656
376.085, 90752.938
376.568, 90650.922
377.050, 90538.648
377.532, 90423.430
378.014, 90356.203
378.496, 90378.828
378.978, 90436.688
379.460, 90407.539
379.942, 90270.508
380.424, 90132.203
380.906, 90005.852
381.389, 89896.250
381.871, 89813.883
382.353, 89758.953
382.835, 89716.477
383.317, 89671.688
383.799, 89623.727
384.281, 89591.602
384.763, 89613.820
385.246, 89610.109
385.728, 89524.852
386.210, 89401.953
386.692, 89315.133
387.174, 89301.031
387.656, 89335.719
388.138, 89367.203
388.620, 89399.242
389.103, 89418.883
389.585, 89397.820
390.067, 89384.562
390.549, 89416.344
391.031, 89492.062
391.513, 89576.383
391.995, 89642.977
392.477, 89693.352
392.959, 89744.023
393.442, 89808.344
393.924, 89842.789
394.406, 89778.609
394.888, 89675.500
395.370, 89638.383
395.852, 89731.469
396.334, 89837.781
396.816, 89845.039
397.298, 89772.477
397.781, 89719.094
398.263, 89730.156
398.745, 89748.656
399.227, 89674.508
399.709, 89491.883
400.191, 89315.648
400.673, 89138.852
401.155, 88991.172
401.638, 88913.391
402.120, 88898.039
402.602, 88892.023
403.084, 88855.578
403.566, 88792.609
404.048, 88737.602
404.530, 88722.953
405.012, 88679.977
405.495, 88583.008
405.977, 88461.297
406.459, 88332.680
406.941, 88207.789
407.423, 88115.648
407.905, 88117.531
408.387, 88243.438
408.869, 88307.633
409.351, 88250.141
409.833, 88182.602
410.316, 88168.633
410.798, 88187.570
411.280, 88177.297
411.762, 88080.320
412.244, 87955.656
412.726, 87908.227
413.208, 87941.023
413.690, 88011.383
414.173, 88122.852
414.655, 88246.180
415.137, 88336.383
415.619, 88390.820
416.101, 88419.508
416.583, 88413.883
417.065, 88388.703
417.547, 88366.148
418.030, 88349.547
418.512, 88331.297
418.994, 88306.641
419.476, 88275.719
419.958, 88227.633
420.440, 88147.773
420.922, 88071.148
421.404, 88014.102
421.886, 87967.797
422.369, 87918.953
422.851, 87862.477
423.333, 87799.727
423.815, 87728.922
424.297, 87639.633
424.779, 87572.797
425.261, 87554.359
425.743, 87535.906
426.225, 87487.281
426.708, 87417.320
427.190, 87358.633
427.672, 87340.594
428.154, 87341.328
428.636, 87306.938
429.118, 87233.688
429.600, 87143.602
430.082, 87031.883
430.565, 86915.547
431.047, 86810.109
431.529, 86710.680
432.011, 86648.492
432.493, 86677.758
432.975, 86742.500
433.457, 86743.570
433.939, 86665.148
434.422, 86556.273
434.904, 86448.773
435.386, 86344.133
435.868, 86289.867
436.350, 86321.117
436.832, 86356.828
437.314, 86360.859
437.796, 86355.406
438.278, 86388.727
438.760, 86475.828
439.243, 86562.703
439.725, 86552.203
440.207, 86402.250
440.689, 86289.992
441.171, 86237.273
441.653, 86203.961
442.135, 86173.070
442.617, 86148.297
443.100, 86144.523
443.582, 86180.523
444.064, 86227.094
444.546, 86224.992
445.028, 86168.781
445.510, 86109.977
445.992, 86053.523
446.474, 86012.227
446.957, 86011.852
447.439, 86059.477
447.921, 86076.883
448.403, 86031.594
448.885, 85942.477
449.367, 85806.867
449.849, 85634.344
450.331, 85509.781
450.813, 85508.477
451.296, 85600.617
451.778, 85587.703
452.260, 85364.820
452.742, 85179.758
453.224, 85092.438
453.706, 85046.789
454.188, 84989.352
454.670, 84908.047
455.152, 84819.156
455.635, 84728.406
456.117, 84633.523
456.599, 84615.281
457.081, 84745.273
457.563, 84851.797
458.045, 84851.242
458.527, 84793.844
459.009, 84751.852
459.492, 84749.148
459.974, 84758.539
460.456, 84751.102
460.938, 84730.281
461.420, 84715.953
461.902, 84710.648
462.384, 84716.594
462.866, 84750.344
463.349, 84810.312
463.831, 84822.688
464.313, 84724.203
464.795, 84630.703
465.277, 84647.594
465.759, 84723.859
466.241, 84727.648
466.723, 84598.031
467.205, 84403.352
467.688, 84282.023
468.170, 84284.398
468.652, 84253.711
469.134, 84145.789
469.616, 84049.023
470.098, 84035.188
470.580, 84073.211
471.062, 84068.883
471.544, 83951.227
472.027, 83774.898
472.509, 83660.617
472.991, 83615.711
473.473, 83584.047
473.955, 83553.812
474.437, 83524.406
474.919, 83499.602
475.401, 83480.273
475.884, 83446.227
476.366, 83379.891
476.848, 83301.047
477.330, 83228.883
477.812, 83166.008
478.294, 83116.656
478.776, 83085.328
479.258, 83068.023
479.741, 83048.508
480.223, 83051.656
480.705, 83020.539
481.187, 82915.852
481.669, 82804.031
482.151, 82729.422
482.633, 82700.602
483.115, 82713.688
483.597, 82783.219
484.079, 82889.539
484.562, 82913.711
485.044, 82818.094
485.526, 82727.633
486.008, 82684.211
486.490, 82669.711
486.972, 82672.469
487.454, 82691.781
487.936, 82714.844
488.419, 82728.992
488.901, 82742.062
489.383, 82774.633
489.865, 82828.211
490.347, 82874.883
490.829, 82898.172
491.311, 82896.438
491.793, 82859.203
492.276, 82761.367
492.758, 82664.594
493.240, 82563.500
493.722, 82478.500
494.204, 82451.242
494.686, 82476.633
495.168, 82484.289
495.650, 82392.773
496.132, 82210.883
496.615, 82089.844
497.097, 82079.719
497.579, 82044.023
498.061, 81910.258
498.543, 81738.906
499.025, 81583.312
499.507, 81448.039
499.989, 81371.688
500.471, 81435.578
500.954, 81569.047
501.436, 81604.367
501.918, 81516.594
502.400, 81391.781
502.882, 81283.539
503.364, 81193.008
503.846, 81127.680
504.328, 81079.750
504.810, 81062.820
505.293, 81118.273
505.775, 81186.273
506.257, 81193.719
506.739, 81132.633
507.221, 81059.594
507.703, 81031.406
508.185, 81045.883
508.668, 81056.602
509.150, 81071.867
509.632, 81068.320
510.114, 81034.711
510.596, 80980.602
511.078, 80906.750
511.560, 80808.203
512.042, 80728.859
512.524, 80721.656
513.006, 80748.641
513.489, 80725.352
513.971, 80640.898
514.453, 80553.969
514.935, 80505.109
515.417, 80488.844
515.899, 80473.078
516.381, 80484.180
516.864, 80461.133
517.346, 80334.812
517.828, 80207.430
518.310, 80199.047
518.792, 80307.453
519.274, 80414.562
519.756, 80414.141
520.238, 80320.461
520.720, 80211.383
521.203, 80053.312
521.685, 79958.562
522.167, 80056.711
522.649, 80187.008
523.131, 80180.469
523.613, 80011.531
524.095, 79843.703
524.577, 79745.156
525.059, 79704.453
525.542, 79734.867
526.024, 79825.273
526.506, 79880.648
526.988, 79838.906
527.470, 79727.531
527.952, 79636.203
528.434, 79586.453
528.916, 79529.344
529.398, 79464.008
529.881, 79393.492
530.363, 79311.031
530.845, 79224.656
531.327, 79157.117
531.809, 79129.273
532.291, 79124.797
532.773, 79104.711
533.255, 79068.711
533.737, 79017.977
534.220, 78930.969
534.702, 78851.383
535.184, 78832.594
535.666, 78872.273
536.148, 78910.023
536.630, 78924.477
537.112, 78933.898
537.594, 78970.047
538.077, 79013.711
538.559, 79004.094
539.041, 78912.656
539.523, 78779.188
540.005, 78678.602
540.487, 78625.523
540.969, 78559.898
541.451, 78456.219
541.933, 78364.680
542.416, 78334.133
542.898, 78325.008
543.380, 78249.883
543.862, 78051.453
544.344, 77857.219
544.826, 77849.438
545.308, 77988.867
545.791, 78063.656
546.273, 78032.992
546.755, 77942.844
547.237, 77806.773
547.719, 77633.602
548.201, 77546.953
548.683, 77626.133
549.165, 77694.141
549.647, 77699.438
550.130, 77659.844
550.612, 77585.688
551.094, 77485.617
551.576, 77388.359
552.058, 77320.750
552.540, 77281.656
553.022, 77256.430
553.504, 77247.031
553.987, 77246.656
554.469, 77276.297
554.951, 77301.258
555.433, 77277.352
555.915, 77195.352
556.397, 77121.211
556.879, 77097.219
557.361, 77092.594
557.843, 77069.391
558.326, 77027.023
558.808, 76977.211
559.290, 76924.148
559.772, 76875.742
560.254, 76857.781
560.736, 76928.508
561.218, 76921.789
561.700, 76769.508
562.182, 76612.469
562.665, 76522.797
563.147, 76491.273
563.629, 76484.117
564.111, 76496.250
564.593, 76497.094
565.075, 76423.156
565.557, 76285.727
566.039, 76199.453
566.521, 76201.773
567.004, 76220.820
567.486, 76192.352
567.968, 76114.828
568.450, 76024.797
568.932, 75892.320
569.414, 75783.203
569.896, 75743.797
570.378, 75730.500
570.860, 75687.453
571.343, 75603.906
571.825, 75508.461
572.307, 75422.156
572.789, 75347.852
573.271, 75321.719
573.753, 75373.617
574.235, 75396.633
574.718, 75315.242
575.200, 75207.398
575.682, 75173.906
576.164, 75229.219
576.646, 75252.523
577.128, 75153.547
577.610, 75033.094
578.092, 75000.758
578.574, 75041.570
579.057, 75081.617
579.539, 75085.508
580.021, 75060.180
580.503, 75014.883
580.985, 74932.711
581.467, 74876.344
581.949, 74881.133
582.431, 74876.172
582.914, 74834.977
583.396, 74764.297
583.878, 74669.180
584.360, 74537.070
584.842, 74430.750
585.324, 74443.273
585.806, 74523.133
586.288, 74527.609
586.770, 74433.477
587.253, 74315.992
587.735, 74227.797
588.217, 74166.578
588.699, 74116.703
589.181, 74098.188
589.663, 74064.773
590.145, 73996.422
590.627, 73925.578
591.109, 73875.344
591.592, 73847.008
592.074, 73834.000
592.556, 73842.859
593.038, 73850.844
593.520, 73793.453
594.002, 73673.406
594.484, 73623.344
594.966, 73710.000
595.448, 73808.672
595.931, 73773.148
596.413, 73593.406
596.895, 73439.398
597.377, 73284.180
597.859, 73186.383
598.341, 73213.867
598.823, 73291.727
599.305, 73326.383
599.787, 73295.656
600.270, 73235.273
600.752, 73174.289
601.234, 73114.383
601.716, 73063.727
602.198, 73023.727
602.680, 72990.523
603.162, 72965.883
603.644, 72945.883
604.127, 72931.930
604.609, 72928.750
605.091, 72893.820
605.573, 72776.211
606.055, 72660.008
606.537, 72621.727
607.019, 72631.172
607.501, 72610.867
607.984, 72530.219
608.466, 72427.320
608.948, 72359.391
609.430, 72329.062
609.912, 72301.461
610.394, 72280.430
610.876, 72253.727
611.358, 72211.406
611.841, 72160.898
612.323, 72109.828
612.805, 72056.898
613.287, 72012.742
613.769, 71998.023
614.251, 71984.703
614.733, 71933.938
615.215, 71853.281
615.697, 71785.930
616.180, 71758.453
616.662, 71741.773
617.144, 71657.547
617.626, 71459.617
618.108, 71359.094
618.590, 71460.406
619.072, 71550.258
619.554, 71501.320
620.036, 71378.797
620.519, 71306.828
621.001, 71330.109
621.483, 71362.867
621.965, 71353.500
622.447, 71317.250
622.929, 71273.898
623.411, 71226.719
623.893, 71179.344
624.375, 71134.273
624.858, 71089.797
625.340, 71041.680
625.822, 70988.383
626.304, 70934.156
626.786, 70865.719
627.268, 70810.156
627.750, 70800.070
628.232, 70812.609
628.714, 70790.789
629.197, 70704.859
629.679, 70604.453
630.161, 70510.227
630.643, 70434.602
631.125, 70425.094
631.607, 70482.156
632.089, 70508.133
632.571, 70418.844
633.054, 70249.633
633.536, 70164.797
634.018, 70227.453
634.500, 70255.547
634.982, 70208.453
635.464, 70145.492
635.946, 70093.000
636.428, 70052.883
636.911, 70025.211
637.393, 70022.547
637.875, 70010.023
638.357, 69938.594
638.839, 69835.953
639.321, 69765.742
639.803, 69739.320
640.285, 69737.711
640.768, 69751.656
641.250, 69772.617
641.732, 69747.156
642.214, 69625.578
642.696, 69545.711
643.178, 69572.203
643.660, 69598.359
644.142, 69540.508
644.624, 69421.828
645.107, 69333.992
645.589, 69333.953
646.071, 69348.953
646.553, 69297.719
647.035, 69214.953
647.517, 69201.102
647.999, 69270.883
648.481, 69309.781
648.963, 69214.547
649.446, 69010.969
649.928, 68851.141
650.410, 68749.852
650.892, 68667.242
651.374, 68583.000
651.856, 68528.492
652.338, 68545.430
652.820, 68611.812
653.302, 68653.406
653.785, 68630.523
654.267, 68589.203
654.749, 68569.844
655.231, 68557.609
655.713, 68515.977
656.195, 68440.820
656.677, 68370.859
657.159, 68338.359
657.641, 68335.242
658.124, 68327.594
658.606, 68326.938
659.088, 68294.062
659.570, 68192.039
660.052, 68084.680
660.534, 68011.219
661.016, 67964.023
661.498, 67914.656
661.981, 67852.438
662.463, 67791.078
662.945, 67738.094
663.427, 67693.094
663.909, 67671.023
664.391, 67665.406
664.873, 67619.289
665.355, 67479.969
665.838, 67295.852
666.320, 67239.000
666.802, 67363.617
667.284, 67423.281
667.766, 67342.344
668.248, 67242.789
668.730, 67214.812
669.212, 67230.438
669.695, 67211.211
670.177, 67109.602
670.659, 67031.344
671.141, 67037.023
671.623, 67082.742
672.105, 67146.320
672.587, 67204.422
673.069, 67189.211
673.551, 67050.656
674.034, 66856.656
674.516, 66766.602
674.998, 66792.602
675.480, 66783.773
675.962, 66702.383
676.444, 66629.773
676.926, 66645.102
677.408, 66705.438
677.890, 66687.633
678.373, 66537.938
678.855, 66417.367
679.337, 66391.133
679.819, 66386.797
680.301, 66349.500
680.783, 66284.211
681.265, 66212.789
681.747, 66144.328
682.229, 66091.023
682.712, 66088.906
683.194, 66125.570
683.676, 66095.367
684.158, 65978.641
684.640, 65859.461
685.122, 65781.281
685.604, 65732.273
686.086, 65687.477
686.568, 65647.594
687.051, 65610.156
687.533, 65591.203
688.015, 65558.273
688.497, 65480.762
688.979, 65384.238
689.461, 65303.699
689.943, 65250.070
690.425, 65229.238
690.908, 65277.070
691.390, 65351.371
691.872, 65357.680
692.354, 65296.422
692.836, 65209.930
693.318, 65109.270
693.800, 65018.410
694.282, 64974.000
694.765, 64979.738
695.247, 65008.070
695.729, 65106.891
696.211, 65164.691
696.693, 65140.262
697.175, 65069.852
697.657, 64972.891
698.139, 64857.320
698.622, 64773.211
699.104, 64774.461
699.586, 64794.129
700.068, 64783.148
700.550, 64738.359
701.032, 64640.219
701.514, 64488.789
701.996, 64341.891
702.478, 64258.199
702.961, 64230.160
703.443, 64204.801
703.925, 64178.711
704.407, 64172.109
704.889, 64233.840
705.371, 64268.621
705.853, 64153.480
706.335, 63925.809
706.817, 63772.660
707.300, 63797.789
707.782, 63805.109
708.264, 63687.469
708.746, 63541.941
709.228, 63468.922
709.710, 63471.352
710.192, 63507.840
710.674, 63564.391
711.156, 63603.031
711.639, 63531.559
712.121, 63366.449
712.603, 63273.840
713.085, 63285.160
713.567, 63314.879
714.049, 63306.051
714.531, 63273.672
715.013, 63267.570
715.495, 63323.949
715.978, 63339.730
716.460, 63281.941
716.942, 63219.020
717.424, 63196.801
717.906, 63188.379
718.388, 63134.980
718.870, 63014.629
719.352, 62917.770
719.835, 62951.000
720.317, 63023.828
720.799, 62988.000
721.281, 62864.102
721.763, 62775.699
722.245, 62774.570
722.727, 62790.680
723.209, 62717.609
723.692, 62552.230
724.174, 62456.359
724.656, 62467.699
725.138, 62463.828
725.620, 62392.129
726.102, 62299.340
726.584, 62243.250
727.066, 62221.988
727.549, 62173.219
728.031, 62053.328
728.513, 61942.391
728.995, 61904.020
729.477, 61881.148
729.959, 61782.961
730.441, 61618.230
730.923, 61494.148
731.405, 61499.879
731.888, 61561.469
732.370, 61531.148
732.852, 61425.551
733.334, 61387.078
733.816, 61450.410
734.298, 61486.410
734.780, 61383.770
735.262, 61191.449
735.744, 61099.898
736.227, 61187.281
736.709, 61230.578
737.191, 61188.840
737.673, 61143.480
738.155, 61140.969
738.637, 61157.230
739.119, 61149.762
739.601, 61108.160
740.083, 61051.379
740.566, 60969.500
741.048, 60893.352
741.530, 60873.891
742.012, 60888.359
742.494, 60864.672
742.976, 60778.551
743.458, 60683.910
743.940, 60656.160
744.422, 60680.551
744.905, 60631.680
745.387, 60493.539
745.869, 60374.512
746.351, 60296.930
746.833, 60268.910
747.315, 60318.988
747.797, 60448.301
748.279, 60513.629
748.762, 60477.801
749.244, 60430.891
749.726, 60405.648
750.208, 60363.238
750.690, 60242.289
751.172, 60072.660
751.654, 59962.070
752.136, 59978.180
752.619, 60017.219
753.101, 59996.219
753.583, 59929.570
754.065, 59823.301
754.547, 59690.660
755.029, 59594.398
755.511, 59571.719
755.993, 59584.191
756.476, 59555.340
756.958, 59478.391
757.440, 59438.539
757.922, 59462.719
758.404, 59457.750
758.886, 59362.891
759.368, 59233.051
759.850, 59156.469
760.332, 59138.770
760.815, 59114.828
761.297, 59055.891
761.779, 59018.238
762.261, 59038.559
762.743, 59081.320
763.225, 59114.238
763.707, 59129.230
764.189, 59124.172
764.671, 59092.891
765.154, 59046.531
765.636, 58989.289
766.118, 58928.219
766.600, 58892.449
767.082, 58881.891
767.564, 58843.270
768.046, 58734.160
768.528, 58591.781
769.010, 58517.199
769.493, 58520.012
769.975, 58543.648
770.457, 58619.680
770.939, 58645.449
771.421, 58535.930
771.903, 58358.711
772.385, 58242.230
772.867, 58201.289
773.349, 58156.270
773.832, 58097.359
774.314, 58035.102
774.796, 57950.930
775.278, 57879.422
775.760, 57886.539
776.242, 57967.559
776.724, 58010.340
777.206, 57925.570
777.689, 57783.531
778.171, 57631.980
778.653, 57495.199
779.135, 57454.238
779.617, 57514.410
780.099, 57570.660
780.581, 57545.270
781.063, 57462.781
781.545, 57384.449
782.028, 57307.391
782.510, 57255.660
782.992, 57234.789
783.474, 57231.371
783.956, 57246.500
784.438, 57269.031
784.920, 57272.730
785.403, 57245.641
785.885, 57237.730
786.367, 57272.750
786.849, 57300.512
787.331, 57307.520
787.813, 57291.410
788.295, 57250.129
788.777, 57183.578
789.259, 57093.789
789.742, 56938.988
790.224, 56804.500
790.706, 56798.910
791.188, 56860.762
791.670, 56879.781
792.152, 56839.539
792.634, 56775.391
793.116, 56710.461
793.598, 56642.898
794.081, 56563.352
794.563, 56473.281
795.045, 56406.430
795.527, 56370.230
796.009, 56338.340
796.491, 56301.930
796.973, 56254.859
797.455, 56180.762
797.938, 56064.000
798.420, 55985.141
798.902, 55978.609
799.384, 55967.141
799.866, 55922.910
800.348, 55871.430
800.830, 55843.750
801.312, 55836.660
801.794, 55812.270
802.277, 55715.230
802.759, 55648.090
803.241, 55715.828
803.723, 55810.859
804.205, 55800.172
804.687, 55693.852
805.169, 55579.352
805.651, 55499.602
806.133, 55449.828
806.616, 55436.711
807.098, 55447.430
807.580, 55444.609
808.062, 55425.871
808.544, 55391.809
809.026, 55341.270
809.508, 55284.910
809.990, 55237.449
810.472, 55198.371
810.955, 55155.711
811.437, 55099.629
811.919, 55067.891
812.401, 55088.629
812.883, 55113.211
813.365, 55095.961
813.847, 55043.949
814.330, 54996.199
814.812, 54959.988
815.294, 54917.980
815.776, 54850.621
816.258, 54793.559
816.740, 54783.039
817.222, 54795.641
817.704, 54785.020
818.186, 54737.559
818.669, 54687.789
819.151, 54672.859
819.633, 54654.660
820.115, 54582.531
820.597, 54477.051
821.079, 54375.648
821.561, 54292.609
822.043, 54245.160
822.526, 54257.230
823.008, 54299.328
823.490, 54304.730
823.972, 54274.480
824.454, 54210.059
824.936, 54105.730
825.418, 54032.391
825.900, 54042.141
826.382, 54098.609
826.865, 54121.320
827.347, 54110.379
827.829, 54059.641
828.311, 53926.738
828.793, 53823.641
829.275, 53819.949
829.757, 53844.609
830.239, 53809.949
830.721, 53717.629
831.204, 53659.871
831.686, 53680.719
832.168, 53695.301
832.650, 53661.590
833.132, 53624.988
833.614, 53644.250
834.096, 53694.020
834.578, 53691.922
835.060, 53597.039
835.543, 53493.129
836.025, 53457.309
836.507, 53437.281
836.989, 53339.328
837.471, 53200.410
837.953, 53146.141
838.435, 53211.059
838.917, 53291.590
839.400, 53287.879
839.882, 53219.391
840.364, 53117.250
840.846, 52988.621
841.328, 52935.699
841.810, 52985.039
842.292, 53036.891
842.774, 53019.180
843.256, 52949.309
843.739, 52871.379
844.221, 52776.199
844.703, 52711.949
845.185, 52700.000
845.667, 52679.309
846.149, 52608.070
846.631, 52525.680
847.114, 52493.750
847.596, 52515.051
848.078, 52516.762
848.560, 52477.371
849.042, 52440.789
849.524, 52426.199
850.006, 52409.738
850.488, 52356.160
850.970, 52284.109
851.453, 52256.148
851.935, 52311.078
852.417, 52346.910
852.899, 52280.770
853.381, 52191.980
853.863, 52167.191
854.345, 52177.879
854.827, 52152.789
855.309, 52074.859
855.792, 51988.949
856.274, 51932.371
856.756, 51892.691
857.238, 51837.660
857.720, 51781.160
858.202, 51786.359
858.684, 51856.469
859.166, 51899.840
859.648, 51852.898
860.131, 51766.250
860.613, 51756.629
861.095, 51825.320
861.577, 51815.199
862.059, 51707.109
862.541, 51602.172
863.023, 51538.879
863.505, 51493.148
863.987, 51436.629
864.470, 51369.738
864.952, 51308.270
865.434, 51247.180
865.916, 51203.629
866.398, 51225.109
866.880, 51216.340
867.362, 51070.980
867.844, 50866.328
868.327, 50778.898
868.809, 50864.520
869.291, 50914.520
869.773, 50880.539
870.255, 50820.680
870.737, 50737.871
871.219, 50658.988
871.701, 50623.379
872.183, 50626.871
872.666, 50616.770
873.148, 50551.629
873.630, 50494.820
874.112, 50500.629
874.594, 50530.461
875.076, 50539.691
875.558, 50530.238
876.041, 50523.289
876.523, 50526.961
877.005, 50529.480
877.487, 50529.719
877.969, 50514.648
878.451, 50440.262
878.933, 50327.500
879.415, 50257.770
879.897, 50247.648
880.380, 50258.422
880.862, 50265.500
881.344, 50256.789
881.826, 50191.461
882.308, 50073.398
882.790, 49989.230
883.272, 49946.699
883.754, 49928.191
884.237, 49929.211
884.719, 49943.750
885.201, 49970.309
885.683, 50008.398
886.165, 49986.340
886.647, 49872.809
887.129, 49787.090
887.611, 49770.391
888.093, 49754.730
888.576, 49677.449
889.058, 49567.102
889.540, 49509.762
890.022, 49527.980
890.504, 49545.660
890.986, 49578.891
891.468, 49590.891
891.950, 49570.609
892.432, 49521.570
892.915, 49428.102
893.397, 49300.320
893.879, 49217.191
894.361, 49224.410
894.843, 49240.961
895.325, 49264.051
895.807, 49264.641
896.289, 49203.660
896.771, 49107.340
897.254, 49019.148
897.736, 48951.359
898.218, 48924.461
898.700, 49006.301
899.182, 49081.930
899.664, 49019.879
900.146, 48896.199
900.628, 48836.910
901.110, 48847.211
901.593, 48846.730
902.075, 48788.551
902.557, 48717.941
903.039, 48683.980
903.521, 48677.512
904.003, 48697.480
904.485, 48728.781
904.968, 48700.070
905.450, 48595.020
905.932, 48513.789
906.414, 48571.191
906.896, 48692.539
907.378, 48655.828
907.860, 48483.879
908.342, 48410.711
908.824, 48467.711
909.307, 48496.000
909.789, 48405.559
910.271, 48277.641
910.753, 48248.129
911.235, 48314.012
911.717, 48353.281
912.199, 48367.699
912.681, 48337.059
913.164, 48237.172
913.646, 48146.730
914.128, 48138.340
914.610, 48180.301
915.092, 48167.422
915.574, 48080.238
916.056, 47992.039
916.538, 47878.660
917.020, 47808.180
917.503, 47838.520
917.985, 47893.141
918.467, 47885.449
918.949, 47818.109
919.431, 47754.488
919.913, 47674.109
920.395, 47627.910
920.877, 47657.199
921.359, 47681.879
921.842, 47655.301
922.324, 47598.852
922.806, 47547.930
923.288, 47507.020
923.770, 47459.070
924.252, 47377.461
924.734, 47317.762
925.216, 47308.910
925.698, 47325.109
926.181, 47361.891
926.663, 47401.121
927.145, 47400.410
927.627, 47338.852
928.109, 47280.281
928.591, 47256.070
929.073, 47245.039
929.555, 47237.602
930.037, 47229.379
930.520, 47216.809
931.002, 47198.320
931.484, 47170.898
931.966, 47128.719
932.448, 47087.488
932.930, 47064.801
933.412, 47047.000
933.894, 47021.820
934.377, 46986.211
934.859, 46929.512
935.341, 46853.230
935.823, 46791.000
936.305, 46781.820
936.787, 46784.781
937.269, 46738.090
937.751, 46663.039
938.234, 46599.660
938.716, 46554.180
939.198, 46531.109
939.680, 46532.219
940.162, 46528.121
940.644, 46477.121
941.126, 46398.590
941.608, 46339.078
942.091, 46296.750
942.573, 46267.750
943.055, 46249.750
943.537, 46225.430
944.019, 46181.781
944.501, 46140.500
944.983, 46157.969
945.465, 46217.852
945.947, 46188.449
946.430, 46070.961
946.912, 45982.480
947.394, 45955.680
947.876, 45953.488
948.358, 45944.480
948.840, 45938.102
949.322, 45970.699
949.804, 46045.391
950.286, 46075.020
950.769, 46050.500
951.251, 46014.211
951.733, 45978.930
952.215, 45951.059
952.697, 45945.000
953.179, 45949.469
953.661, 45883.039
954.143, 45716.930
954.625, 45628.930
955.108, 45663.949
955.590, 45687.789
956.072, 45624.121
956.554, 45538.160
957.036, 45532.719
957.518, 45608.070
958.000, 45608.910
958.482, 45487.770
958.964, 45422.160
959.447, 45476.941
959.929, 45521.691
960.411, 45468.031
960.893, 45363.680
961.375, 45301.941
961.857, 45290.480
962.339, 45273.879
962.821, 45247.531
963.304, 45223.789
963.786, 45210.031
964.268, 45193.410
964.750, 45171.852
965.232, 45138.500
965.714, 45066.070
966.196, 44911.961
966.678, 44841.039
967.161, 44939.840
967.643, 45006.801
968.125, 44956.191
968.607, 44886.289
969.089, 44894.070
969.571, 44953.512
970.053, 44954.770
970.535, 44845.969
971.018, 44783.480
971.500, 44832.828
971.982, 44866.379
972.464, 44821.898
972.946, 44749.621
973.428, 44689.219
973.910, 44646.602
974.392, 44640.250
974.874, 44713.219
975.357, 44749.621
975.839, 44695.879
976.321, 44639.039
976.803, 44626.270
977.285, 44632.570
977.767, 44635.078
978.249, 44628.020
978.731, 44587.172
979.213, 44473.570
979.696, 44374.988
980.178, 44303.828
980.660, 44264.730
981.142, 44292.469
981.624, 44338.039
982.106, 44326.969
982.588, 44252.430
983.070, 44177.828
983.552, 44112.031
984.035, 44062.441
984.517, 44052.629
984.999, 44040.000
985.481, 43980.570
985.963, 43900.988
986.445, 43855.859
986.927, 43853.660
987.409, 43838.160
987.891, 43758.328
988.374, 43701.422
988.856, 43731.762
989.338, 43775.730
989.820, 43771.809
990.302, 43732.488
990.784, 43699.148
991.266, 43681.930
991.748, 43630.578
992.231, 43465.570
992.713, 43336.012
993.195, 43345.891
993.677, 43401.121
994.159, 43424.871
994.641, 43416.750
995.123, 43392.641
995.605, 43354.539
996.088, 43329.879
996.570, 43348.711
997.052, 43362.320
997.534, 43310.789
998.016, 43266.289
998.498, 43343.660
998.980, 43485.020
999.462, 43509.730
999.945, 43349.000
1000.427, 43232.180
1000.909, 43324.672
1001.391, 43418.488
1001.873, 43383.090
1002.355, 43289.719
1002.837, 43198.352
1003.319, 43124.051
1003.801, 43079.500
1004.284, 43072.852
1004.766, 43070.422
1005.248, 43072.539
1005.730, 43057.070
1006.212, 42982.980
1006.694, 42905.359
1007.176, 42891.730
1007.658, 42929.910
1008.140, 42964.680
1008.623, 42982.461
1009.105, 42984.320
1009.587, 42973.410
1010.069, 42944.141
1010.551, 42876.578
1011.033, 42800.910
1011.515, 42748.801
1011.997, 42719.391
1012.479, 42694.922
1012.962, 42665.961
1013.444, 42660.441
1013.926, 42714.699
1014.408, 42766.922
1014.890, 42798.230
1015.372, 42795.391
1015.854, 42705.410
1016.336, 42570.711
1016.819, 42537.711
1017.301, 42679.789
1017.783, 42783.270
1018.265, 42741.750
1018.747, 42670.910
1019.229, 42611.801
1019.711, 42572.949
1020.193, 42578.730
1020.675, 42609.371
1021.158, 42598.590
1021.640, 42518.340
1022.122, 42444.840
1022.604, 42403.551
1023.086, 42372.820
1023.568, 42346.059
1024.050, 42322.070
1024.532, 42304.578
1025.015, 42289.289
1025.497, 42262.172
1025.979, 42217.090
1026.461, 42173.629
1026.943, 42143.281
1027.425, 42107.500
1027.907, 42027.512
1028.389, 41964.199
1028.871, 42010.949
1029.354, 42119.520
1029.836, 42131.660
1030.318, 41994.520
1030.800, 41867.500
1031.282, 41748.781
1031.764, 41681.922
1032.246, 41732.961
1032.728, 41796.539
1033.210, 41770.609
1033.693, 41686.359
1034.175, 41649.141
1034.657, 41695.660
1035.139, 41688.180
1035.621, 41556.699
1036.103, 41448.590
1036.585, 41399.109
1037.067, 41390.789
1037.550, 41447.320
1038.032, 41529.371
1038.514, 41524.180
1038.996, 41386.199
1039.478, 41328.219
1039.960, 41431.250
1040.442, 41491.891
1040.924, 41442.500
1041.406, 41374.090
1041.889, 41352.211
1042.371, 41350.352
1042.853, 41308.570
1043.335, 41218.570
1043.817, 41135.531
1044.299, 41030.648
1044.781, 40995.520
1045.263, 41091.238
1045.745, 41183.891
1046.228, 41191.930
1046.710, 41144.109
1047.192, 41088.590
1047.674, 41024.262
1048.156, 40981.801
1048.638, 40975.469
1049.120, 40941.629
1049.602, 40850.809
1050.085, 40790.809
1050.567, 40825.059
1051.049, 40889.230
1051.531, 40879.820
1052.013, 40801.480
1052.495, 40732.770
1052.977, 40669.980
1053.459, 40646.789
1053.942, 40674.930
1054.424, 40700.328
1054.906, 40695.980
1055.388, 40679.512
1055.870, 40674.719
1056.352, 40676.801
1056.834, 40661.359
1057.316, 40628.148
1057.798, 40579.012
1058.281, 40513.121
1058.763, 40504.379
1059.245, 40588.629
1059.727, 40653.250
1060.209, 40566.941
1060.691, 40395.531
1061.173, 40319.148
1061.655, 40323.980
1062.137, 40347.672
1062.620, 40378.930
1063.102, 40376.000
1063.584, 40326.059
1064.066, 40253.059
1064.548, 40171.891
1065.030, 40094.871
1065.512, 40039.711
1065.994, 40006.301
1066.477, 40004.660
1066.959, 40023.988
1067.441, 40026.852
1067.923, 40006.641
1068.405, 39989.148
1068.887, 39990.699
1069.369, 40001.840
1069.851, 40022.551
1070.333, 40038.129
1070.816, 40015.699
1071.298, 39975.789
1071.780, 39968.359
1072.262, 39990.289
1072.744, 39988.750
1073.226, 39935.148
1073.708, 39881.121
1074.190, 39867.219
1074.673, 39868.320
1075.155, 39865.031
1075.637, 39861.211
1076.119, 39870.730
1076.601, 39884.539
1077.083, 39871.301
1077.565, 39818.551
1078.047, 39774.172
1078.530, 39777.359
1079.012, 39772.500
1079.494, 39707.020
1079.976, 39642.809
1080.458, 39651.480
1080.940, 39696.898
1081.422, 39706.801
1081.904, 39670.680
1082.386, 39595.422
1082.869, 39404.949
1083.351, 39288.719
1083.833, 39347.789
1084.315, 39427.090
1084.797, 39454.590
1085.279, 39439.340
1085.761, 39380.629
1086.243, 39281.840
1086.725, 39227.801
1087.208, 39244.309
1087.690, 39256.672
1088.172, 39251.699
1088.654, 39263.070
1089.136, 39322.309
1089.618, 39373.199
1090.100, 39347.461
1090.582, 39269.738
1091.065, 39250.301
1091.547, 39307.359
1092.029, 39330.762
1092.511, 39313.641
1092.993, 39282.930
1093.475, 39240.141
1093.957, 39217.500
1094.439, 39247.828
1094.922, 39289.441
1095.404, 39242.660
1095.886, 39118.320
1096.368, 39055.609
1096.850, 39050.660
1097.332, 39051.500
1097.814, 39047.520
1098.296, 39032.770
1098.778, 39004.422
1099.260, 38957.020
1099.743, 38867.230
1100.225, 38767.859
1100.707, 38742.859
1101.189, 38765.699
1101.671, 38769.070
1102.153, 38748.910
1102.635, 38725.109
1103.117, 38704.801
1103.600, 38682.680
1104.082, 38656.250
1104.564, 38624.430
1105.046, 38580.730
1105.528, 38535.551
1106.010, 38502.691
1106.492, 38478.289
1106.974, 38447.320
1107.457, 38412.449
1107.939, 38403.980
1108.421, 38446.262
1108.903, 38482.770
1109.385, 38490.820
1109.867, 38477.781
1110.349, 38423.070
1110.831, 38368.109
1111.313, 38355.289
1111.796, 38380.430
1112.278, 38431.430
1112.760, 38531.191
1113.242, 38547.680
1113.724, 38350.949
1114.206, 38227.031
1114.688, 38305.820
1115.170, 38405.012
1115.652, 38419.020
1116.135, 38388.660
1116.617, 38384.898
1117.099, 38408.211
1117.581, 38379.969
1118.063, 38280.340
1118.545, 38195.879
1119.027, 38128.852
1119.509, 38104.359
1119.992, 38143.941
1120.474, 38188.531
1120.956, 38172.422
1121.438, 38120.461
1121.920, 38117.988
1122.402, 38159.461
1122.884, 38173.871
1123.366, 38158.379
1123.849, 38107.051
1124.331, 38022.121
1124.813, 37956.461
1125.295, 37946.051
1125.777, 37956.949
1126.259, 37936.660
1126.741, 37909.820
1127.223, 37936.570
1127.705, 37989.379
1128.188, 38013.711
1128.670, 38003.930
1129.152, 37969.980
1129.634, 37916.461
1130.116, 37858.000
1130.598, 37798.301
1131.080, 37745.551
1131.562, 37713.238
1132.044, 37684.379
1132.527, 37626.270
1133.009, 37569.859
1133.491, 37581.391
1133.973, 37654.738
1134.455, 37687.531
1134.937, 37624.789
1135.419, 37585.699
1135.901, 37617.051
1136.384, 37646.391
1136.866, 37635.531
1137.348, 37621.000
1137.830, 37647.461
1138.312, 37686.539
1138.794, 37658.891
1139.276, 37546.641
1139.758, 37510.180
1140.240, 37576.129
1140.723, 37631.391
1141.205, 37665.980
1141.687, 37651.660
1142.169, 37562.301
1142.651, 37468.660
1143.133, 37466.781
1143.615, 37521.539
1144.097, 37491.910
1144.579, 37396.961
1145.062, 37379.469
1145.544, 37436.641
1146.026, 37476.570
1146.508, 37473.859
1146.990, 37449.051
1147.472, 37411.770
1147.954, 37381.660
1148.436, 37388.969
1148.919, 37411.781
1149.401, 37433.352
1149.883, 37441.148
1150.365, 37396.199
1150.847, 37322.648
1151.329, 37303.301
1151.811, 37362.629
1152.293, 37407.809
1152.776, 37383.609
1153.258, 37349.609
1153.740, 37314.789
1154.222, 37297.578
1154.704, 37351.969
1155.186, 37404.961
1155.668, 37315.309
1156.150, 37110.281
1156.632, 37059.852
1157.115, 37274.148
1157.597, 37386.941
1158.079, 37353.949
1158.561, 37310.789
1159.043, 37282.469
1159.525, 37272.172
1160.007, 37288.719
1160.489, 37308.422
1160.971, 37283.219
1161.454, 37222.469
1161.936, 37208.531
1162.418, 37238.441
1162.900, 37268.891
1163.382, 37294.070
1163.864, 37304.078
1164.346, 37296.789
1164.828, 37298.391
1165.311, 37334.340
1165.793, 37377.480
1166.275, 37402.359
1166.757, 37401.422
1167.239, 37341.391
1167.721, 37257.660
1168.203, 37208.699
1168.685, 37201.180
1169.167, 37225.410
1169.650, 37281.531
1170.132, 37323.441
1170.614, 37336.730
1171.096, 37321.172
1171.578, 37224.449
1172.060, 37154.180
1172.542, 37230.070
1173.024, 37352.961
1173.506, 37354.109
1173.989, 37248.891
1174.471, 37219.039
1174.953, 37308.211
1175.435, 37354.699
1175.917, 37335.641
1176.399, 37350.270
1176.881, 37443.398
1177.363, 37490.969
1177.846, 37389.340
1178.328, 37258.891
1178.810, 37321.988
1179.292, 37517.660
1179.774, 37587.039
1180.256, 37548.461
1180.738, 37448.852
1181.220, 37324.488
1181.703, 37327.219
1182.185, 37486.969
1182.667, 37609.449
1183.149, 37542.180
1183.631, 37455.691
1184.113, 37515.070
1184.595, 37623.828
1185.077, 37709.000
1185.559, 37771.371
1186.042, 37812.531
1186.524, 37839.070
1187.006, 37861.988
1187.488, 37881.500
1187.970, 37916.469
1188.452, 37977.559
1188.934, 38042.910
1189.416, 38106.480
1189.898, 38177.051
1190.381, 38268.871
1190.863, 38352.820
1191.345, 38396.320
1191.827, 38410.160
1192.309, 38428.621
1192.791, 38451.430
1193.273, 38484.230
1193.755, 38527.641
1194.238, 38600.789
1194.720, 38705.762
1195.202, 38817.512
1195.684, 38924.379
1196.166, 39019.641
1196.648, 39091.371
1197.130, 39155.980
1197.612, 39229.539
1198.094, 39316.160
1198.577, 39439.980
1199.059, 39573.070
1199.541, 39654.211
1200.023, 39689.090
1200.505, 39746.230
1200.987, 39850.512
1201.469, 39958.730
1201.951, 40070.250
1202.433, 40163.750
1202.916, 40211.078
1203.398, 40261.852
1203.880, 40345.102
1204.362, 40449.500
1204.844, 40562.238
1205.326, 40683.379
1205.808, 40820.148
1206.290, 40981.238
1206.773, 41077.410
1207.255, 41102.699
1207.737, 41147.070
1208.219, 41232.520
1208.701, 41365.039
1209.183, 41551.738
1209.665, 41722.781
1210.147, 41774.000
1210.630, 41777.879
1211.112, 41835.371
1211.594, 41935.410
1212.076, 42057.801
1212.558, 42208.430
1213.040, 42427.801
1213.522, 42698.949
1214.004, 42909.449
1214.486, 43009.691
1214.969, 43080.230
1215.451, 43115.102
1215.933, 43166.160
1216.415, 43236.039
1216.897, 43348.180
1217.379, 43535.059
1217.861, 43754.328
1218.343, 43963.051
1218.825, 44147.789
1219.308, 44195.691
1219.790, 44092.199
1220.272, 44105.148
1220.754, 44244.672
1221.236, 44318.801
1221.718, 44284.449
1222.200, 44252.340
1222.682, 44286.160
1223.165, 44345.020
1223.647, 44391.910
1224.129, 44427.500
1224.611, 44464.301
1225.093, 44480.820
1225.575, 44414.551
1226.057, 44322.941
1226.539, 44346.070
1227.021, 44463.770
1227.504, 44458.711
1227.986, 44219.910
1228.468, 44039.121
1228.950, 44034.988
1229.432, 43988.922
1229.914, 43818.219
1230.396, 43667.871
1230.878, 43629.852
1231.360, 43624.129
1231.843, 43554.801
1232.325, 43430.211
1232.807, 43273.309
1233.289, 43088.961
1233.771, 42916.730
1234.253, 42759.730
1234.735, 42635.449
1235.217, 42537.430
1235.700, 42407.570
1236.182, 42220.180
1236.664, 42038.160
1237.146, 41912.750
1237.628, 41811.109
1238.110, 41725.430
1238.592, 41633.520
1239.074, 41497.121
1239.557, 41355.578
1240.039, 41290.641
1240.521, 41268.301
1241.003, 41125.121
1241.485, 40822.051
1241.967, 40599.879
1242.449, 40475.801
1242.931, 40386.059
1243.413, 40334.051
1243.896, 40259.020
1244.378, 40135.781
1244.860, 39988.500
1245.342, 39834.449
1245.824, 39688.609
1246.306, 39571.789
1246.788, 39485.801
1247.270, 39461.281
1247.752, 39456.512
1248.235, 39402.160
1248.717, 39289.129
1249.199, 39098.551
1249.681, 38838.641
1250.163, 38645.988
1250.645, 38613.531
1251.127, 38568.699
1251.609, 38450.051
1252.092, 38332.781
1252.574, 38229.828
1253.056, 38157.211
1253.538, 38144.391
1254.020, 38141.051
1254.502, 38061.230
1254.984, 37920.480
1255.466, 37804.238
1255.948, 37713.730
1256.431, 37661.219
1256.913, 37643.219
1257.395, 37644.211
1257.877, 37654.160
1258.359, 37643.320
1258.841, 37596.879
1259.323, 37530.340
1259.805, 37435.910
1260.287, 37350.262
1260.770, 37273.328
1261.252, 37241.141
1261.734, 37364.988
1262.216, 37490.391
1262.698, 37372.422
1263.180, 37083.102
1263.662, 36922.309
1264.144, 36908.879
1264.627, 36870.922
1265.109, 36799.070
1265.591, 36768.699
1266.073, 36791.891
1266.555, 36813.910
1267.037, 36814.629
1267.519, 36784.512
1268.001, 36709.520
1268.484, 36626.949
1268.966, 36564.199
1269.448, 36544.230
1269.930, 36661.211
1270.412, 36785.590
1270.894, 36692.180
1271.376, 36499.859
1271.858, 36490.270
##END=



