##NAMES=Analcime
##RRUFFID=R050094
##IDEAL CHEMISTRY=NaAlSi_2_O_6_&#183;H_2_O
##LOCALITY=Springfield, Oregon, USA
##OWNER=RRUFF
##SOURCE=Rock Currier
##DESCRIPTION=Clear colorless single crystals associated with gmelinite
##STATUS=The identification of this mineral has been confirmed by X-ray diffraction and chemical analysis
##URL=rruff.info/R050094
##MEASURED CHEMISTRY=(Na_0.99_[box]_0.01_)_Σ=1_(Si_2.01_Al_0.99_)O_6_·H_2_O
126.3948, 2070.239
126.8769, 2151.884
127.3591, 2226.693
127.8412, 2260.957
128.3233, 2265.734
128.8054, 2265.216
129.2875, 2260.006
129.7696, 2253.503
130.2518, 2255.576
130.7339, 2269.284
131.2160, 2284.660
131.6981, 2284.198
132.1802, 2269.776
132.6623, 2256.102
133.1445, 2247.520
133.6266, 2243.654
134.1087, 2242.177
134.5908, 2242.082
135.0729, 2246.082
135.5550, 2259.792
136.0372, 2283.853
136.5193, 2311.019
137.0014, 2340.475
137.4835, 2372.829
137.9656, 2397.313
138.4477, 2414.268
138.9299, 2422.517
139.4120, 2414.500
139.8941, 2382.771
140.3762, 2350.984
140.8583, 2338.964
141.3404, 2354.158
141.8226, 2366.200
142.3047, 2371.250
142.7868, 2369.526
143.2689, 2355.994
143.7510, 2322.174
144.2331, 2284.088
144.7152, 2263.558
145.1974, 2272.593
145.6795, 2280.074
146.1616, 2276.240
146.6437, 2255.074
147.1258, 2238.040
147.6079, 2228.151
148.0901, 2222.217
148.5722, 2211.947
149.0543, 2188.966
149.5364, 2168.823
150.0185, 2158.467
150.5006, 2172.460
150.9828, 2178.935
151.4649, 2172.622
151.9470, 2154.951
152.4291, 2142.558
152.9112, 2141.623
153.3933, 2143.105
153.8755, 2140.598
154.3576, 2133.531
154.8397, 2122.369
155.3218, 2106.245
155.8039, 2084.294
156.2860, 2062.094
156.7682, 2037.836
157.2503, 2014.766
157.7324, 1996.802
158.2145, 1992.336
158.6966, 1987.518
159.1787, 1974.423
159.6609, 1944.168
160.1430, 1923.607
160.6251, 1931.511
161.1072, 1955.991
161.5893, 1969.529
162.0714, 1953.122
162.5536, 1927.456
163.0357, 1906.423
163.5178, 1895.079
163.9999, 1887.061
164.4820, 1880.164
164.9641, 1874.366
165.4463, 1869.749
165.9284, 1867.932
166.4105, 1866.784
166.8926, 1864.000
167.3747, 1858.367
167.8568, 1851.052
168.3390, 1840.101
168.8211, 1825.068
169.3032, 1815.761
169.7853, 1829.043
170.2674, 1851.887
170.7495, 1861.539
171.2317, 1833.410
171.7138, 1793.532
172.1959, 1768.341
172.6780, 1762.678
173.1601, 1764.765
173.6422, 1766.115
174.1244, 1767.328
174.6065, 1770.235
175.0886, 1780.065
175.5707, 1791.340
176.0528, 1794.743
176.5349, 1783.811
177.0171, 1770.921
177.4992, 1773.557
177.9813, 1789.857
178.4634, 1804.182
178.9455, 1801.359
179.4276, 1787.368
179.9098, 1775.542
180.3919, 1766.555
180.8740, 1763.858
181.3561, 1778.653
181.8382, 1811.765
182.3203, 1842.769
182.8025, 1848.941
183.2846, 1834.643
183.7667, 1817.635
184.2488, 1803.314
184.7309, 1791.881
185.2130, 1785.140
185.6951, 1783.601
186.1773, 1784.568
186.6594, 1782.252
187.1415, 1777.490
187.6236, 1778.827
188.1057, 1798.741
188.5878, 1831.261
189.0700, 1846.583
189.5521, 1838.034
190.0342, 1817.313
190.5163, 1803.270
190.9984, 1795.979
191.4805, 1794.717
191.9627, 1803.316
192.4448, 1820.459
192.9269, 1829.432
193.4090, 1824.141
193.8911, 1810.708
194.3732, 1808.566
194.8554, 1819.175
195.3375, 1832.752
195.8196, 1843.231
196.3017, 1850.820
196.7838, 1847.879
197.2659, 1826.529
197.7481, 1791.490
198.2302, 1777.335
198.7123, 1789.057
199.1944, 1807.498
199.6765, 1807.603
200.1586, 1786.691
200.6408, 1768.404
201.1229, 1762.198
201.6050, 1768.317
202.0871, 1771.006
202.5692, 1768.801
203.0513, 1765.347
203.5335, 1768.792
204.0156, 1781.841
204.4977, 1790.239
204.9798, 1784.906
205.4619, 1763.164
205.9440, 1747.856
206.4262, 1741.758
206.9083, 1740.885
207.3904, 1734.010
207.8725, 1718.200
208.3546, 1704.322
208.8367, 1701.550
209.3189, 1714.967
209.8010, 1716.624
210.2831, 1699.216
210.7652, 1668.803
211.2473, 1652.849
211.7294, 1655.060
212.2116, 1664.487
212.6937, 1675.334
213.1758, 1691.383
213.6579, 1696.326
214.1400, 1683.536
214.6221, 1654.832
215.1043, 1638.165
215.5864, 1637.243
216.0685, 1642.810
216.5506, 1646.726
217.0327, 1650.228
217.5148, 1648.648
217.9970, 1637.467
218.4791, 1615.386
218.9612, 1608.451
219.4433, 1624.426
219.9254, 1647.637
220.4075, 1657.628
220.8897, 1650.591
221.3718, 1637.522
221.8539, 1619.326
222.3360, 1592.407
222.8181, 1576.949
223.3002, 1576.797
223.7824, 1585.787
224.2645, 1593.412
224.7466, 1600.426
225.2287, 1604.927
225.7108, 1606.116
226.1929, 1603.497
226.6750, 1598.798
227.1572, 1590.568
227.6393, 1580.778
228.1214, 1573.987
228.6035, 1569.242
229.0856, 1569.024
229.5677, 1576.234
230.0499, 1598.005
230.5320, 1610.247
231.0141, 1608.459
231.4962, 1596.174
231.9783, 1588.223
232.4604, 1588.421
232.9426, 1588.108
233.4247, 1581.585
233.9068, 1565.268
234.3889, 1550.162
234.8710, 1536.396
235.3531, 1524.225
235.8353, 1517.741
236.3174, 1521.579
236.7995, 1525.898
237.2816, 1522.185
237.7637, 1502.676
238.2458, 1490.387
238.7280, 1491.034
239.2101, 1504.356
239.6922, 1512.526
240.1743, 1513.053
240.6564, 1510.894
241.1385, 1511.107
241.6207, 1517.449
242.1028, 1519.225
242.5849, 1512.601
243.0670, 1496.496
243.5491, 1485.751
244.0313, 1482.323
244.5134, 1482.608
244.9955, 1482.758
245.4776, 1483.512
245.9597, 1482.765
246.4418, 1479.031
246.9240, 1471.042
247.4061, 1467.882
247.8882, 1472.384
248.3703, 1479.714
248.8524, 1483.364
249.3345, 1484.259
249.8167, 1479.730
250.2988, 1467.237
250.7809, 1443.168
251.2630, 1424.870
251.7451, 1410.929
252.2272, 1403.685
252.7094, 1409.836
253.1915, 1440.299
253.6736, 1465.514
254.1557, 1473.857
254.6378, 1460.071
255.1199, 1445.479
255.6021, 1428.120
256.0842, 1411.015
256.5663, 1401.294
257.0484, 1401.266
257.5305, 1404.634
258.0126, 1409.128
258.4948, 1415.574
258.9769, 1421.092
259.4590, 1426.022
259.9411, 1429.943
260.4232, 1431.129
260.9053, 1427.318
261.3875, 1424.968
261.8696, 1429.075
262.3517, 1444.203
262.8338, 1450.061
263.3159, 1440.846
263.7980, 1422.782
264.2802, 1418.724
264.7623, 1434.529
265.2444, 1452.508
265.7265, 1462.184
266.2086, 1461.361
266.6907, 1459.479
267.1729, 1457.205
267.6550, 1454.426
268.1371, 1450.153
268.6192, 1443.232
269.1013, 1437.411
269.5834, 1436.175
270.0656, 1440.995
270.5477, 1443.318
271.0298, 1440.972
271.5119, 1435.531
271.9940, 1433.875
272.4761, 1436.796
272.9583, 1441.585
273.4404, 1447.098
273.9225, 1453.933
274.4046, 1457.829
274.8867, 1456.892
275.3688, 1452.743
275.8510, 1454.513
276.3331, 1464.954
276.8152, 1473.026
277.2973, 1465.603
277.7794, 1440.077
278.2615, 1424.288
278.7437, 1425.263
279.2258, 1439.769
279.7079, 1454.759
280.1900, 1471.044
280.6721, 1484.751
281.1542, 1492.103
281.6364, 1492.968
282.1185, 1490.196
282.6006, 1480.918
283.0827, 1469.139
283.5648, 1472.977
284.0469, 1494.384
284.5291, 1521.301
285.0112, 1543.504
285.4933, 1561.065
285.9754, 1575.965
286.4575, 1586.866
286.9396, 1595.768
287.4217, 1609.146
287.9038, 1627.033
288.3860, 1648.911
288.8681, 1677.812
289.3502, 1712.204
289.8323, 1740.008
290.3144, 1751.657
290.7965, 1756.053
291.2787, 1782.138
291.7608, 1831.878
292.2429, 1882.693
292.7250, 1908.764
293.2071, 1915.404
293.6892, 1929.332
294.1714, 1962.422
294.6535, 2006.706
295.1356, 2046.643
295.6177, 2082.427
296.0998, 2114.006
296.5819, 2146.346
297.0641, 2175.993
297.5462, 2190.542
298.0283, 2180.329
298.5104, 2155.676
298.9925, 2132.334
299.4746, 2110.205
299.9568, 2088.008
300.4389, 2064.093
300.9210, 2039.067
301.4031, 2013.851
301.8852, 1992.360
302.3673, 1969.027
302.8495, 1932.715
303.3316, 1884.000
303.8137, 1837.006
304.2958, 1804.094
304.7779, 1781.122
305.2600, 1761.380
305.7422, 1740.886
306.2243, 1723.384
306.7064, 1715.649
307.1885, 1717.042
307.6706, 1715.969
308.1527, 1700.847
308.6349, 1678.913
309.1170, 1660.490
309.5991, 1652.557
310.0812, 1647.022
310.5633, 1637.698
311.0454, 1624.718
311.5276, 1611.645
312.0097, 1594.683
312.4918, 1580.800
312.9739, 1577.649
313.4560, 1605.773
313.9381, 1630.758
314.4203, 1627.566
314.9024, 1598.627
315.3845, 1575.461
315.8666, 1581.214
316.3487, 1596.182
316.8308, 1601.747
317.3130, 1575.550
317.7951, 1554.460
318.2772, 1560.106
318.7593, 1589.511
319.2414, 1608.415
319.7235, 1591.593
320.2057, 1566.798
320.6878, 1556.024
321.1699, 1580.708
321.6520, 1603.270
322.1341, 1611.977
322.6162, 1608.298
323.0984, 1607.465
323.5805, 1618.032
324.0626, 1629.139
324.5447, 1633.462
325.0268, 1617.493
325.5089, 1608.503
325.9911, 1614.848
326.4732, 1634.601
326.9553, 1647.486
327.4374, 1644.307
327.9195, 1639.235
328.4016, 1640.535
328.8838, 1658.928
329.3659, 1670.103
329.8480, 1669.386
330.3301, 1658.869
330.8122, 1651.696
331.2943, 1647.075
331.7765, 1646.452
332.2586, 1651.174
332.7407, 1665.653
333.2228, 1677.543
333.7049, 1685.723
334.1870, 1690.855
334.6692, 1695.799
335.1513, 1701.005
335.6334, 1705.464
336.1155, 1707.984
336.5976, 1706.999
337.0797, 1709.460
337.5619, 1717.044
338.0440, 1727.727
338.5261, 1735.396
339.0082, 1739.393
339.4903, 1742.245
339.9724, 1745.256
340.4546, 1748.535
340.9367, 1751.584
341.4188, 1755.408
341.9009, 1757.789
342.3830, 1749.715
342.8651, 1729.098
343.3473, 1717.701
343.8294, 1736.769
344.3115, 1782.707
344.7936, 1802.877
345.2757, 1789.554
345.7578, 1762.817
346.2400, 1752.107
346.7221, 1757.065
347.2042, 1768.433
347.6863, 1785.751
348.1684, 1806.225
348.6505, 1820.145
349.1327, 1826.363
349.6148, 1829.757
350.0969, 1835.150
350.5790, 1842.431
351.0611, 1851.325
351.5432, 1864.340
352.0254, 1877.908
352.5075, 1885.440
352.9896, 1886.105
353.4717, 1886.173
353.9538, 1894.238
354.4359, 1905.833
354.9181, 1911.908
355.4002, 1898.571
355.8823, 1884.197
356.3644, 1889.723
356.8465, 1915.656
357.3286, 1939.708
357.8108, 1943.668
358.2929, 1938.319
358.7750, 1937.868
359.2571, 1952.852
359.7392, 1969.669
360.2213, 1979.783
360.7035, 1983.676
361.1856, 1989.648
361.6677, 2005.398
362.1498, 2022.844
362.6319, 2035.157
363.1140, 2034.876
363.5962, 2034.896
364.0783, 2038.251
364.5604, 2044.868
365.0425, 2054.110
365.5246, 2069.901
366.0067, 2085.708
366.4889, 2097.507
366.9710, 2098.031
367.4531, 2102.600
367.9352, 2112.167
368.4173, 2126.703
368.8994, 2146.408
369.3815, 2183.302
369.8636, 2214.760
370.3458, 2229.648
370.8279, 2210.899
371.3100, 2205.019
371.7921, 2214.593
372.2742, 2236.368
372.7563, 2264.610
373.2385, 2308.374
373.7206, 2343.153
374.2027, 2355.243
374.6848, 2335.943
375.1669, 2329.859
375.6490, 2339.050
376.1312, 2359.327
376.6133, 2386.443
377.0954, 2423.090
377.5775, 2456.030
378.0596, 2479.673
378.5417, 2493.948
379.0239, 2509.716
379.5060, 2527.664
379.9881, 2544.715
380.4702, 2555.417
380.9523, 2560.121
381.4344, 2566.146
381.9166, 2575.766
382.3987, 2588.495
382.8808, 2605.873
383.3629, 2628.222
383.8450, 2647.349
384.3271, 2649.430
384.8093, 2640.807
385.2914, 2641.973
385.7735, 2665.580
386.2556, 2695.500
386.7377, 2709.017
387.2198, 2707.457
387.7020, 2701.108
388.1841, 2692.239
388.6662, 2684.628
389.1483, 2684.527
389.6304, 2699.192
390.1125, 2712.535
390.5947, 2712.339
391.0768, 2701.037
391.5589, 2686.023
392.0410, 2664.773
392.5231, 2645.262
393.0052, 2634.704
393.4874, 2639.370
393.9695, 2640.606
394.4516, 2631.947
394.9337, 2614.839
395.4158, 2591.946
395.8979, 2556.775
396.3801, 2521.948
396.8622, 2492.600
397.3443, 2469.816
397.8264, 2449.821
398.3085, 2435.892
398.7906, 2423.326
399.2728, 2406.485
399.7549, 2379.554
400.2370, 2354.754
400.7191, 2336.148
401.2012, 2324.589
401.6833, 2306.211
402.1655, 2275.924
402.6476, 2244.190
403.1297, 2220.793
403.6118, 2210.140
404.0939, 2196.954
404.5760, 2178.079
405.0582, 2154.871
405.5403, 2134.810
406.0224, 2118.255
406.5045, 2104.291
406.9866, 2095.391
407.4688, 2092.311
407.9509, 2077.336
408.4330, 2044.612
408.9151, 2004.415
409.3972, 1978.758
409.8793, 1967.779
410.3615, 1960.160
410.8436, 1949.017
411.3257, 1935.913
411.8078, 1927.133
412.2899, 1923.764
412.7720, 1921.388
413.2542, 1914.370
413.7363, 1904.040
414.2184, 1894.146
414.7005, 1885.831
415.1826, 1879.300
415.6647, 1876.201
416.1469, 1876.657
416.6290, 1875.346
417.1111, 1868.209
417.5932, 1856.983
418.0753, 1844.226
418.5574, 1826.114
419.0396, 1810.601
419.5217, 1803.129
420.0038, 1802.649
420.4859, 1801.709
420.9680, 1795.726
421.4501, 1789.334
421.9323, 1785.943
422.4144, 1788.795
422.8965, 1791.023
423.3786, 1793.139
423.8607, 1794.049
424.3428, 1790.604
424.8250, 1770.050
425.3071, 1780.681
425.7892, 1787.125
426.2713, 1789.606
426.7534, 1776.255
427.2355, 1783.347
427.7177, 1782.247
428.1998, 1780.811
428.6819, 1790.781
429.1640, 1779.732
429.6461, 1789.522
430.1282, 1790.993
430.6104, 1796.271
431.0925, 1793.306
431.5746, 1792.886
432.0567, 1800.713
432.5388, 1803.974
433.0209, 1800.060
433.5031, 1805.580
433.9852, 1794.243
434.4673, 1797.698
434.9494, 1807.536
435.4315, 1796.920
435.9136, 1796.898
436.3958, 1800.323
436.8779, 1809.019
437.3600, 1824.901
437.8421, 1841.222
438.3242, 1848.683
438.8063, 1850.209
439.2885, 1853.961
439.7706, 1869.948
440.2527, 1886.640
440.7348, 1890.542
441.2169, 1879.088
441.6990, 1871.420
442.1812, 1882.848
442.6633, 1902.500
443.1454, 1917.570
443.6275, 1918.389
444.1096, 1919.379
444.5917, 1925.917
445.0739, 1937.758
445.5560, 1949.650
446.0381, 1959.437
446.5202, 1969.667
447.0023, 1981.815
447.4844, 1995.841
447.9666, 2012.150
448.4487, 2032.653
448.9308, 2055.402
449.4129, 2074.548
449.8950, 2085.356
450.3771, 2099.807
450.8593, 2125.037
451.3413, 2164.499
451.8235, 2191.641
452.3056, 2201.485
452.7877, 2206.986
453.2698, 2225.634
453.7519, 2258.033
454.2340, 2296.320
454.7162, 2341.142
455.1983, 2389.510
455.6804, 2432.646
456.1625, 2470.641
456.6446, 2504.224
457.1267, 2524.586
457.6089, 2540.588
458.0910, 2580.875
458.5731, 2658.869
459.0552, 2748.804
459.5373, 2820.054
460.0194, 2876.558
460.5016, 2932.827
460.9837, 2986.439
461.4658, 3049.054
461.9479, 3136.983
462.4300, 3257.346
462.9121, 3371.461
463.3943, 3442.773
463.8764, 3500.365
464.3585, 3580.759
464.8406, 3711.936
465.3227, 3850.904
465.8048, 3984.646
466.2870, 4112.753
466.7691, 4242.806
467.2512, 4366.187
467.7333, 4499.816
468.2154, 4654.689
468.6975, 4845.590
469.1797, 5033.521
469.6618, 5210.007
470.1439, 5382.115
470.6260, 5565.448
471.1081, 5758.884
471.5902, 5966.114
472.0724, 6191.034
472.5545, 6436.744
473.0366, 6678.704
473.5187, 6912.453
474.0008, 7148.114
474.4829, 7396.453
474.9651, 7657.078
475.4472, 7925.992
475.9293, 8205.463
476.4114, 8490.229
476.8935, 8772.001
477.3756, 9048.584
477.8578, 9321.000
478.3399, 9608.971
478.8220, 9887.241
479.3041, 10113.67
479.7862, 10268.25
480.2683, 10400.68
480.7505, 10567.43
481.2326, 10739.21
481.7147, 10855.63
482.1968, 10875.69
482.6789, 10848.28
483.1610, 10797.07
483.6432, 10724.61
484.1253, 10618.97
484.6074, 10470.71
485.0895, 10291.91
485.5716, 10091.92
486.0537, 9874.253
486.5359, 9630.672
487.0180, 9354.187
487.5001, 9049.251
487.9822, 8732.366
488.4643, 8394.713
488.9464, 8064.867
489.4286, 7753.362
489.9107, 7464.488
490.3928, 7188.437
490.8749, 6927.082
491.3570, 6674.787
491.8391, 6413.970
492.3213, 6146.971
492.8034, 5894.388
493.2855, 5670.112
493.7676, 5465.986
494.2497, 5252.570
494.7318, 5032.134
495.2140, 4826.506
495.6961, 4668.008
496.1782, 4534.412
496.6603, 4390.765
497.1424, 4218.783
497.6245, 4053.285
498.1067, 3919.604
498.5888, 3811.870
499.0709, 3715.401
499.5530, 3633.383
500.0351, 3552.052
500.5172, 3460.361
500.9994, 3356.696
501.4815, 3258.574
501.9636, 3163.600
502.4457, 3078.295
502.9278, 3008.675
503.4099, 2974.823
503.8921, 2930.429
504.3742, 2864.439
504.8563, 2784.286
505.3384, 2722.358
505.8205, 2687.819
506.3026, 2654.365
506.7848, 2608.833
507.2669, 2548.873
507.7490, 2489.433
508.2311, 2426.956
508.7132, 2373.181
509.1953, 2353.321
509.6775, 2363.357
510.1596, 2355.108
510.6417, 2302.572
511.1238, 2228.818
511.6059, 2176.933
512.0880, 2145.800
512.5701, 2125.500
513.0522, 2117.134
513.5344, 2111.806
514.0165, 2096.113
514.4986, 2062.895
514.9807, 2033.380
515.4628, 2027.995
515.9449, 2034.140
516.4271, 2030.506
516.9092, 2004.545
517.3913, 1972.813
517.8734, 1938.264
518.3555, 1900.837
518.8376, 1871.215
519.3198, 1854.542
519.8019, 1843.386
520.2840, 1833.328
520.7661, 1824.499
521.2482, 1816.937
521.7303, 1811.728
522.2125, 1807.123
522.6946, 1798.537
523.1767, 1784.620
523.6588, 1772.264
524.1409, 1766.126
524.6230, 1764.779
525.1052, 1754.579
525.5873, 1734.326
526.0694, 1714.678
526.5515, 1707.212
527.0336, 1708.889
527.5157, 1712.103
527.9979, 1717.612
528.4800, 1719.350
528.9621, 1708.624
529.4442, 1688.403
529.9263, 1667.106
530.4084, 1646.367
530.8906, 1628.219
531.3727, 1615.085
531.8548, 1607.523
532.3369, 1600.435
532.8190, 1589.123
533.3011, 1578.899
533.7833, 1574.768
534.2654, 1583.725
534.7475, 1591.058
535.2296, 1594.554
535.7117, 1595.407
536.1938, 1598.412
536.6760, 1606.735
537.1581, 1611.378
537.6402, 1608.567
538.1223, 1598.048
538.6044, 1582.063
539.0865, 1558.697
539.5687, 1535.043
540.0508, 1518.221
540.5329, 1507.998
541.0150, 1505.578
541.4971, 1515.258
541.9792, 1527.720
542.4614, 1525.532
542.9435, 1511.761
543.4256, 1500.660
543.9077, 1506.526
544.3898, 1515.868
544.8719, 1514.632
545.3541, 1500.159
545.8362, 1484.502
546.3183, 1469.510
546.8004, 1457.836
547.2825, 1452.251
547.7646, 1462.566
548.2468, 1468.830
548.7289, 1465.956
549.2110, 1455.602
549.6931, 1444.256
550.1752, 1425.462
550.6573, 1414.565
551.1395, 1420.750
551.6216, 1448.676
552.1037, 1465.779
552.5858, 1470.739
553.0679, 1468.146
553.5500, 1462.569
554.0322, 1454.071
554.5143, 1441.447
554.9964, 1420.645
555.4785, 1400.290
555.9606, 1400.377
556.4427, 1417.375
556.9249, 1432.176
557.4070, 1431.541
557.8891, 1423.326
558.3712, 1415.676
558.8533, 1409.378
559.3354, 1403.486
559.8176, 1396.090
560.2997, 1389.341
560.7818, 1385.437
561.2639, 1382.710
561.7460, 1385.392
562.2281, 1400.247
562.7103, 1422.353
563.1924, 1433.323
563.6745, 1429.883
564.1566, 1419.299
564.6387, 1401.306
565.1208, 1373.946
565.6030, 1358.836
566.0851, 1359.140
566.5672, 1364.734
567.0493, 1364.644
567.5314, 1359.333
568.0135, 1359.433
568.4957, 1368.521
568.9778, 1381.090
569.4599, 1389.962
569.9420, 1394.938
570.4241, 1394.763
570.9063, 1380.148
571.3884, 1365.352
571.8705, 1367.716
572.3526, 1387.804
572.8347, 1405.903
573.3168, 1410.519
573.7990, 1409.136
574.2811, 1407.966
574.7632, 1409.603
575.2453, 1409.595
575.7274, 1405.658
576.2095, 1399.866
576.6917, 1396.493
577.1738, 1397.173
577.6559, 1397.531
578.1380, 1395.923
578.6201, 1392.583
579.1022, 1391.447
579.5844, 1392.634
580.0665, 1395.531
580.5486, 1401.971
581.0307, 1410.785
581.5128, 1412.100
581.9949, 1403.310
582.4771, 1392.242
582.9592, 1386.065
583.4413, 1385.076
583.9234, 1390.013
584.4055, 1410.985
584.8876, 1430.203
585.3698, 1431.204
585.8519, 1417.130
586.3340, 1405.130
586.8161, 1403.720
587.2982, 1405.536
587.7803, 1406.971
588.2625, 1408.494
588.7446, 1407.256
589.2267, 1400.393
589.7088, 1392.611
590.1909, 1388.813
590.6730, 1389.467
591.1552, 1393.129
591.6373, 1400.448
592.1194, 1410.083
592.6015, 1419.062
593.0836, 1427.562
593.5657, 1432.551
594.0479, 1432.105
594.5300, 1426.948
595.0121, 1416.728
595.4942, 1401.156
595.9763, 1389.126
596.4584, 1390.070
596.9406, 1398.332
597.4227, 1407.207
597.9048, 1418.074
598.3869, 1423.809
598.8690, 1415.881
599.3511, 1401.153
599.8333, 1392.828
600.3154, 1393.631
600.7975, 1401.548
601.2796, 1420.666
601.7617, 1450.484
602.2438, 1466.352
602.7260, 1464.113
603.2081, 1455.324
603.6902, 1444.979
604.1723, 1432.352
604.6544, 1428.511
605.1365, 1436.051
605.6187, 1446.250
606.1008, 1447.102
606.5829, 1440.358
607.0650, 1433.354
607.5471, 1428.878
608.0292, 1424.674
608.5114, 1414.977
608.9935, 1402.538
609.4756, 1397.049
609.9577, 1410.847
610.4398, 1427.684
610.9219, 1437.891
611.4041, 1440.186
611.8862, 1439.451
612.3683, 1432.139
612.8504, 1425.037
613.3325, 1423.478
613.8146, 1431.202
614.2968, 1437.315
614.7789, 1441.831
615.2610, 1444.060
615.7431, 1442.023
616.2252, 1435.412
616.7073, 1427.466
617.1895, 1416.743
617.6716, 1406.651
618.1537, 1410.977
618.6358, 1428.339
619.1179, 1440.898
619.6000, 1428.447
620.0822, 1407.476
620.5643, 1399.552
621.0464, 1409.365
621.5285, 1419.994
622.0106, 1422.129
622.4927, 1420.231
622.9749, 1419.041
623.4570, 1422.322
623.9391, 1423.062
624.4212, 1418.967
624.9033, 1411.823
625.3854, 1405.297
625.8676, 1397.014
626.3497, 1395.082
626.8318, 1405.848
627.3139, 1426.992
627.7960, 1432.519
628.2781, 1420.274
628.7603, 1410.106
629.2424, 1424.879
629.7245, 1453.941
630.2066, 1469.034
630.6887, 1465.061
631.1708, 1453.891
631.6530, 1440.194
632.1351, 1427.590
632.6172, 1421.538
633.0993, 1430.461
633.5814, 1439.645
634.0635, 1444.340
634.5457, 1445.202
635.0278, 1444.729
635.5099, 1442.337
635.9920, 1439.621
636.4741, 1436.549
636.9562, 1432.949
637.4384, 1432.888
637.9205, 1438.077
638.4026, 1442.089
638.8847, 1438.456
639.3668, 1428.048
639.8489, 1418.560
640.3311, 1410.465
640.8132, 1405.055
641.2953, 1406.038
641.7774, 1410.718
642.2595, 1413.190
642.7416, 1409.633
643.2238, 1404.720
643.7059, 1400.163
644.1880, 1396.470
644.6701, 1395.199
645.1522, 1395.461
645.6343, 1399.585
646.1165, 1413.155
646.5986, 1439.027
647.0807, 1444.229
647.5628, 1416.104
648.0449, 1385.867
648.5270, 1378.494
649.0092, 1396.017
649.4913, 1410.440
649.9734, 1420.089
650.4555, 1425.766
650.9376, 1427.612
651.4197, 1426.296
651.9019, 1423.946
652.3840, 1420.150
652.8661, 1416.986
653.3482, 1416.428
653.8303, 1418.117
654.3124, 1420.975
654.7946, 1426.318
655.2767, 1431.147
655.7588, 1433.310
656.2409, 1432.265
656.7230, 1433.465
657.2051, 1438.737
657.6872, 1444.480
658.1693, 1449.372
658.6514, 1454.498
659.1335, 1452.573
659.6157, 1440.787
660.0978, 1428.130
660.5799, 1426.978
661.0620, 1435.902
661.5441, 1447.773
662.0262, 1463.520
662.5084, 1476.900
662.9905, 1476.946
663.4726, 1468.151
663.9547, 1462.675
664.4368, 1473.085
664.9189, 1482.398
665.4011, 1478.837
665.8832, 1462.655
666.3653, 1452.097
666.8474, 1450.858
667.3295, 1455.332
667.8116, 1465.686
668.2938, 1484.749
668.7759, 1496.015
669.2580, 1497.194
669.7401, 1495.816
670.2222, 1501.106
670.7043, 1512.169
671.1865, 1520.126
671.6686, 1523.990
672.1507, 1522.625
672.6328, 1510.033
673.1149, 1491.028
673.5970, 1477.224
674.0792, 1477.669
674.5613, 1480.933
675.0434, 1480.691
675.5255, 1477.579
676.0076, 1475.480
676.4897, 1477.441
676.9719, 1478.330
677.4540, 1476.035
677.9361, 1470.146
678.4182, 1464.325
678.9003, 1458.406
679.3824, 1452.655
679.8646, 1448.399
680.3467, 1445.217
680.8288, 1436.658
681.3109, 1420.795
681.7930, 1405.148
682.2751, 1398.625
682.7573, 1398.561
683.2394, 1399.542
683.7215, 1400.393
684.2036, 1401.047
684.6857, 1401.740
685.1678, 1402.240
685.6500, 1401.993
686.1321, 1400.274
686.6142, 1398.458
687.0963, 1396.811
687.5784, 1395.375
688.0605, 1395.293
688.5427, 1398.824
689.0248, 1397.879
689.5069, 1381.840
689.9890, 1353.604
690.4711, 1349.739
690.9532, 1372.639
691.4354, 1396.063
691.9175, 1394.768
692.3996, 1378.168
692.8817, 1359.204
693.3638, 1336.698
693.8459, 1323.176
694.3281, 1335.586
694.8102, 1357.976
695.2923, 1369.040
695.7744, 1349.879
696.2565, 1337.445
696.7386, 1338.912
697.2208, 1349.464
697.7029, 1357.115
698.1850, 1361.908
698.6671, 1363.446
699.1492, 1360.109
699.6313, 1353.823
700.1135, 1352.494
700.5956, 1355.767
701.0777, 1357.600
701.5598, 1350.473
702.0419, 1341.275
702.5240, 1340.303
703.0062, 1348.811
703.4883, 1354.377
703.9704, 1347.004
704.4525, 1336.726
704.9346, 1331.381
705.4167, 1336.005
705.8989, 1338.953
706.3810, 1340.689
706.8631, 1340.300
707.3452, 1335.151
707.8273, 1323.773
708.3094, 1318.250
708.7916, 1322.537
709.2737, 1330.530
709.7558, 1330.232
710.2379, 1323.578
710.7200, 1318.355
711.2021, 1319.830
711.6843, 1322.955
712.1664, 1320.436
712.6485, 1314.792
713.1306, 1316.961
713.6127, 1342.224
714.0948, 1366.120
714.5770, 1376.675
715.0591, 1373.239
715.5412, 1367.646
716.0233, 1359.008
716.5054, 1349.885
716.9875, 1341.358
717.4697, 1333.507
717.9518, 1328.145
718.4339, 1325.379
718.9160, 1325.466
719.3981, 1332.465
719.8802, 1341.939
720.3624, 1344.054
720.8445, 1332.879
721.3266, 1322.945
721.8087, 1326.713
722.2908, 1336.422
722.7729, 1340.787
723.2551, 1323.583
723.7372, 1318.646
724.2193, 1339.755
724.7014, 1374.093
725.1835, 1383.252
725.6656, 1360.856
726.1478, 1339.279
726.6299, 1329.537
727.1120, 1329.162
727.5941, 1335.121
728.0762, 1346.167
728.5583, 1349.919
729.0405, 1326.426
729.5226, 1299.370
730.0047, 1296.305
730.4868, 1319.083
730.9689, 1335.305
731.4510, 1327.117
731.9332, 1312.324
732.4153, 1301.237
732.8974, 1291.799
733.3795, 1294.546
733.8616, 1316.854
734.3438, 1339.995
734.8259, 1341.227
735.3080, 1321.221
735.7901, 1313.119
736.2722, 1324.042
736.7543, 1339.028
737.2365, 1338.184
737.7186, 1327.387
738.2007, 1318.422
738.6828, 1314.347
739.1649, 1314.421
739.6470, 1324.241
740.1292, 1337.647
740.6113, 1340.433
741.0934, 1316.632
741.5755, 1298.586
742.0576, 1293.375
742.5397, 1298.629
743.0219, 1305.369
743.5040, 1314.220
743.9861, 1320.686
744.4682, 1319.874
744.9503, 1315.534
745.4324, 1319.302
745.9146, 1330.423
746.3967, 1341.232
746.8788, 1350.752
747.3609, 1354.749
747.8430, 1344.753
748.3251, 1316.551
748.8073, 1302.169
749.2894, 1324.075
749.7715, 1350.533
750.2536, 1361.373
750.7357, 1350.992
751.2178, 1342.923
751.7000, 1338.087
752.1821, 1333.303
752.6642, 1321.687
753.1463, 1305.899
753.6284, 1300.714
754.1105, 1310.999
754.5927, 1325.201
755.0748, 1334.646
755.5569, 1339.687
756.0390, 1341.063
756.5211, 1331.541
757.0032, 1326.825
757.4854, 1335.758
757.9675, 1352.025
758.4496, 1361.092
758.9317, 1360.939
759.4138, 1358.256
759.8959, 1354.884
760.3781, 1349.929
760.8602, 1337.273
761.3423, 1317.825
761.8244, 1305.019
762.3065, 1309.095
762.7886, 1322.159
763.2708, 1337.512
763.7529, 1354.119
764.2350, 1365.982
764.7171, 1367.011
765.1992, 1365.495
765.6813, 1363.029
766.1635, 1358.622
766.6456, 1368.839
767.1277, 1407.126
767.6098, 1438.146
768.0919, 1434.194
768.5740, 1395.819
769.0562, 1370.584
769.5383, 1359.675
770.0204, 1357.618
770.5025, 1363.957
770.9846, 1374.274
771.4667, 1381.544
771.9489, 1384.592
772.4310, 1385.286
772.9131, 1385.803
773.3952, 1383.849
773.8773, 1376.740
774.3594, 1353.217
774.8416, 1342.817
775.3237, 1351.891
775.8058, 1368.100
776.2879, 1375.369
776.7700, 1373.686
777.2521, 1367.115
777.7343, 1354.272
778.2164, 1341.993
778.6985, 1340.852
779.1806, 1347.668
779.6627, 1355.160
780.1448, 1361.121
780.6270, 1366.171
781.1091, 1371.425
781.5912, 1376.022
782.0733, 1376.560
782.5554, 1363.291
783.0375, 1362.251
783.5197, 1385.911
784.0018, 1424.124
784.4839, 1438.452
784.9660, 1428.361
785.4481, 1411.204
785.9302, 1389.695
786.4124, 1369.355
786.8945, 1359.572
787.3766, 1359.561
787.8587, 1366.241
788.3408, 1387.512
788.8229, 1406.884
789.3051, 1414.907
789.7872, 1410.428
790.2693, 1400.901
790.7514, 1380.913
791.2335, 1365.245
791.7156, 1363.784
792.1978, 1376.199
792.6799, 1384.529
793.1620, 1388.794
793.6441, 1388.596
794.1262, 1380.701
794.6083, 1369.222
795.0905, 1358.785
795.5726, 1349.312
796.0547, 1346.234
796.5368, 1359.447
797.0189, 1375.381
797.5010, 1382.706
797.9832, 1377.027
798.4653, 1371.928
798.9474, 1366.504
799.4295, 1363.066
799.9116, 1366.665
800.3937, 1376.340
800.8759, 1376.214
801.3580, 1362.227
801.8401, 1348.237
802.3222, 1350.933
802.8043, 1362.711
803.2864, 1372.420
803.7686, 1377.688
804.2507, 1379.441
804.7328, 1377.481
805.2149, 1372.262
805.6970, 1364.065
806.1791, 1350.037
806.6613, 1340.632
807.1434, 1338.150
807.6255, 1339.100
808.1076, 1334.448
808.5897, 1326.399
809.0718, 1329.060
809.5540, 1351.008
810.0361, 1378.219
810.5182, 1405.173
811.0003, 1426.430
811.4824, 1431.407
811.9645, 1397.514
812.4467, 1369.118
812.9288, 1360.572
813.4109, 1364.324
813.8930, 1361.889
814.3751, 1351.565
814.8572, 1341.453
815.3394, 1331.430
815.8215, 1325.561
816.3036, 1340.187
816.7857, 1369.880
817.2678, 1388.591
817.7499, 1373.867
818.2321, 1352.363
818.7142, 1341.737
819.1963, 1340.109
819.6784, 1337.824
820.1605, 1330.847
820.6426, 1325.087
821.1248, 1320.584
821.6068, 1318.329
822.0889, 1326.789
822.5710, 1346.793
823.0532, 1366.701
823.5353, 1384.383
824.0174, 1396.030
824.4995, 1391.320
824.9816, 1372.671
825.4637, 1354.325
825.9459, 1339.694
826.4280, 1331.427
826.9101, 1334.434
827.3922, 1349.316
827.8743, 1355.590
828.3564, 1347.372
828.8386, 1341.186
829.3207, 1347.697
829.8028, 1364.031
830.2849, 1365.716
830.7670, 1352.977
831.2491, 1341.541
831.7313, 1346.725
832.2134, 1357.020
832.6955, 1359.630
833.1776, 1353.733
833.6597, 1346.344
834.1418, 1336.867
834.6240, 1329.205
835.1061, 1325.834
835.5882, 1327.358
836.0703, 1325.739
836.5524, 1319.280
837.0345, 1316.207
837.5167, 1326.066
837.9988, 1343.844
838.4809, 1355.192
838.9630, 1359.405
839.4451, 1359.273
839.9272, 1352.143
840.4094, 1344.611
840.8915, 1342.761
841.3736, 1349.192
841.8557, 1352.045
842.3378, 1347.767
842.8199, 1343.500
843.3021, 1345.316
843.7842, 1353.553
844.2663, 1352.788
844.7484, 1341.843
845.2305, 1332.787
845.7126, 1342.262
846.1948, 1357.559
846.6769, 1358.446
847.1590, 1340.195
847.6411, 1326.655
848.1232, 1328.598
848.6053, 1337.900
849.0875, 1350.215
849.5696, 1368.552
850.0517, 1376.358
850.5338, 1370.869
851.0159, 1362.625
851.4980, 1362.129
851.9802, 1366.803
852.4623, 1367.399
852.9444, 1362.778
853.4265, 1358.252
853.9086, 1360.744
854.3907, 1363.405
854.8729, 1357.989
855.3550, 1336.307
855.8371, 1329.201
856.3192, 1345.493
856.8013, 1367.271
857.2834, 1380.854
857.7656, 1386.153
858.2477, 1393.552
858.7298, 1404.410
859.2119, 1409.372
859.6940, 1391.086
860.1761, 1365.292
860.6583, 1355.475
861.1404, 1368.701
861.6225, 1379.219
862.1046, 1374.959
862.5867, 1366.116
863.0688, 1359.928
863.5510, 1355.970
864.0331, 1357.565
864.5152, 1367.166
864.9973, 1374.151
865.4794, 1364.980
865.9615, 1345.681
866.4437, 1331.570
866.9258, 1324.123
867.4079, 1323.911
867.8900, 1337.992
868.3721, 1355.120
868.8542, 1365.712
869.3364, 1366.347
869.8185, 1366.886
870.3006, 1367.901
870.7827, 1368.075
871.2648, 1366.106
871.7469, 1362.208
872.2291, 1356.643
872.7112, 1349.040
873.1933, 1346.536
873.6754, 1362.689
874.1575, 1382.928
874.6396, 1391.692
875.1218, 1385.186
875.6039, 1375.753
876.0860, 1360.828
876.5681, 1348.659
877.0502, 1344.692
877.5323, 1349.969
878.0145, 1353.738
878.4966, 1355.854
878.9787, 1357.298
879.4608, 1359.852
879.9429, 1361.914
880.4250, 1358.985
880.9072, 1350.497
881.3893, 1346.288
881.8714, 1354.909
882.3535, 1366.385
882.8356, 1375.097
883.3177, 1381.042
883.7999, 1382.855
884.2820, 1379.212
884.7641, 1375.511
885.2462, 1375.946
885.7283, 1379.208
886.2104, 1381.265
886.6926, 1382.078
887.1747, 1383.074
887.6568, 1390.726
888.1389, 1394.503
888.6210, 1383.094
889.1031, 1353.901
889.5853, 1338.689
890.0674, 1344.607
890.5495, 1352.617
891.0316, 1353.213
891.5137, 1347.838
891.9958, 1343.638
892.4780, 1340.896
892.9601, 1344.558
893.4422, 1367.214
893.9243, 1390.550
894.4064, 1395.537
894.8885, 1383.405
895.3707, 1376.064
895.8528, 1380.304
896.3349, 1387.778
896.8170, 1399.130
897.2991, 1411.709
897.7813, 1406.724
898.2634, 1384.172
898.7455, 1365.174
899.2276, 1362.259
899.7097, 1368.773
900.1918, 1382.224
900.6740, 1399.261
901.1561, 1407.380
901.6382, 1392.119
902.1203, 1378.503
902.6024, 1374.005
903.0845, 1376.815
903.5667, 1381.398
904.0488, 1388.101
904.5309, 1393.391
905.0130, 1394.891
905.4951, 1395.651
905.9772, 1402.844
906.4594, 1413.298
906.9415, 1418.788
907.4236, 1412.175
907.9057, 1404.150
908.3878, 1394.422
908.8699, 1386.780
909.3521, 1391.523
909.8342, 1414.688
910.3163, 1424.246
910.7984, 1409.089
911.2805, 1386.141
911.7626, 1382.755
912.2448, 1394.083
912.7269, 1409.602
913.2090, 1431.763
913.6911, 1447.215
914.1732, 1445.327
914.6553, 1434.594
915.1375, 1427.150
915.6196, 1424.918
916.1017, 1421.511
916.5838, 1415.818
917.0659, 1410.180
917.5480, 1407.402
918.0302, 1407.183
918.5123, 1408.786
918.9944, 1412.135
919.4765, 1416.829
919.9586, 1421.415
920.4407, 1427.896
920.9229, 1440.238
921.4050, 1468.904
921.8871, 1473.503
922.3692, 1444.003
922.8513, 1412.008
923.3334, 1413.896
923.8156, 1438.567
924.2977, 1439.677
924.7798, 1413.104
925.2619, 1390.359
925.7440, 1400.569
926.2261, 1419.244
926.7083, 1426.479
927.1904, 1417.657
927.6725, 1415.023
928.1546, 1421.228
928.6367, 1428.753
929.1188, 1434.777
929.6010, 1438.666
930.0831, 1434.648
930.5652, 1423.617
931.0473, 1414.328
931.5294, 1412.278
932.0115, 1414.297
932.4937, 1419.669
932.9758, 1427.838
933.4579, 1434.344
933.9400, 1441.463
934.4221, 1441.476
934.9042, 1427.177
935.3864, 1406.934
935.8685, 1410.826
936.3506, 1434.830
936.8327, 1454.988
937.3148, 1460.924
937.7969, 1457.287
938.2791, 1440.660
938.7612, 1417.551
939.2433, 1403.344
939.7254, 1403.537
940.2075, 1406.641
940.6896, 1411.334
941.1718, 1418.046
941.6539, 1429.160
942.1360, 1443.557
942.6181, 1455.500
943.1002, 1464.149
943.5823, 1468.194
944.0645, 1460.762
944.5466, 1450.698
945.0287, 1449.169
945.5108, 1467.689
945.9929, 1478.234
946.4750, 1479.047
946.9572, 1474.862
947.4393, 1469.761
947.9214, 1463.831
948.4035, 1455.568
948.8856, 1444.216
949.3677, 1439.540
949.8499, 1459.825
950.3320, 1482.343
950.8141, 1484.931
951.2962, 1459.054
951.7783, 1447.345
952.2604, 1455.914
952.7426, 1467.669
953.2247, 1473.883
953.7068, 1475.071
954.1889, 1470.353
954.6710, 1460.866
955.1531, 1456.787
955.6353, 1471.362
956.1174, 1487.388
956.5995, 1493.158
957.0816, 1489.298
957.5637, 1484.754
958.0458, 1479.801
958.5280, 1473.710
959.0101, 1463.815
959.4922, 1455.190
959.9743, 1465.434
960.4564, 1488.634
960.9385, 1503.115
961.4207, 1492.933
961.9028, 1481.370
962.3849, 1480.950
962.8670, 1487.659
963.3491, 1495.258
963.8312, 1507.743
964.3134, 1507.584
964.7955, 1487.940
965.2776, 1467.926
965.7597, 1480.474
966.2418, 1512.002
966.7239, 1526.343
967.2061, 1513.506
967.6882, 1500.240
968.1703, 1501.387
968.6524, 1507.877
969.1345, 1513.433
969.6166, 1518.889
970.0988, 1516.334
970.5809, 1503.427
971.0630, 1492.296
971.5451, 1493.852
972.0272, 1502.821
972.5093, 1509.715
972.9915, 1514.268
973.4736, 1517.840
973.9557, 1518.616
974.4378, 1521.282
974.9199, 1530.501
975.4020, 1543.658
975.8842, 1546.916
976.3663, 1539.139
976.8484, 1532.260
977.3305, 1529.564
977.8126, 1532.003
978.2947, 1545.620
978.7769, 1565.141
979.2590, 1578.334
979.7411, 1575.576
980.2232, 1573.052
980.7053, 1575.325
981.1874, 1578.178
981.6696, 1572.822
982.1517, 1558.792
982.6338, 1559.413
983.1159, 1580.102
983.5980, 1603.181
984.0801, 1612.644
984.5623, 1613.528
985.0444, 1610.209
985.5265, 1601.136
986.0085, 1597.318
986.4907, 1602.472
986.9728, 1609.285
987.4549, 1615.462
987.9370, 1620.282
988.4191, 1610.844
988.9012, 1588.543
989.3834, 1574.775
989.8655, 1591.531
990.3476, 1615.537
990.8297, 1632.505
991.3118, 1641.754
991.7939, 1643.489
992.2761, 1633.651
992.7582, 1626.250
993.2403, 1625.755
993.7224, 1628.816
994.2045, 1627.319
994.6866, 1623.078
995.1688, 1622.361
995.6509, 1629.968
996.1330, 1636.748
996.6151, 1632.614
997.0972, 1627.786
997.5793, 1637.351
998.0615, 1671.533
998.5436, 1681.996
999.0257, 1661.931
999.5078, 1637.689
999.9899, 1639.247
1000.472, 1654.086
1000.954, 1660.746
1001.436, 1656.650
1001.918, 1650.789
1002.401, 1636.432
1002.883, 1632.441
1003.365, 1652.323
1003.847, 1692.166
1004.329, 1711.751
1004.811, 1710.941
1005.293, 1704.788
1005.775, 1698.733
1006.257, 1693.320
1006.740, 1687.989
1007.222, 1683.816
1007.704, 1683.239
1008.186, 1691.547
1008.668, 1697.182
1009.150, 1697.962
1009.632, 1696.750
1010.114, 1697.636
1010.596, 1700.391
1011.079, 1704.180
1011.561, 1709.125
1012.043, 1713.258
1012.525, 1716.771
1013.007, 1717.511
1013.489, 1711.007
1013.971, 1692.985
1014.453, 1690.203
1014.936, 1706.455
1015.418, 1725.708
1015.900, 1741.884
1016.382, 1751.988
1016.864, 1743.196
1017.346, 1719.743
1017.828, 1703.462
1018.310, 1709.113
1018.792, 1719.184
1019.275, 1729.940
1019.757, 1739.497
1020.239, 1742.883
1020.721, 1739.953
1021.203, 1733.793
1021.685, 1723.449
1022.167, 1715.054
1022.649, 1719.817
1023.132, 1729.246
1023.614, 1730.216
1024.096, 1710.014
1024.578, 1706.122
1025.060, 1730.451
1025.542, 1756.117
1026.024, 1759.405
1026.506, 1744.650
1026.989, 1741.133
1027.471, 1748.620
1027.953, 1753.972
1028.435, 1740.688
1028.917, 1729.876
1029.399, 1739.839
1029.881, 1765.938
1030.363, 1779.156
1030.845, 1776.068
1031.328, 1773.015
1031.810, 1774.855
1032.292, 1778.443
1032.774, 1778.823
1033.256, 1777.131
1033.738, 1775.661
1034.220, 1775.326
1034.702, 1774.908
1035.184, 1774.692
1035.667, 1773.785
1036.149, 1770.148
1036.631, 1763.752
1037.113, 1764.481
1037.595, 1772.823
1038.077, 1780.857
1038.559, 1779.050
1039.041, 1776.931
1039.524, 1784.266
1040.006, 1800.521
1040.488, 1812.055
1040.970, 1817.045
1041.452, 1819.713
1041.934, 1820.345
1042.416, 1820.577
1042.898, 1823.101
1043.380, 1828.022
1043.863, 1836.242
1044.345, 1853.169
1044.827, 1864.316
1045.309, 1858.653
1045.791, 1848.343
1046.273, 1844.763
1046.755, 1848.666
1047.237, 1852.263
1047.719, 1855.484
1048.202, 1856.193
1048.684, 1848.752
1049.166, 1840.609
1049.648, 1841.414
1050.130, 1850.746
1050.612, 1855.550
1051.094, 1853.530
1051.576, 1848.400
1052.059, 1838.780
1052.541, 1829.287
1053.023, 1832.546
1053.505, 1845.204
1053.987, 1856.702
1054.469, 1863.702
1054.951, 1868.686
1055.433, 1870.807
1055.916, 1872.786
1056.398, 1877.552
1056.880, 1885.878
1057.362, 1892.741
1057.844, 1898.184
1058.326, 1901.184
1058.808, 1899.739
1059.290, 1896.201
1059.772, 1890.102
1060.255, 1882.766
1060.737, 1885.961
1061.219, 1910.347
1061.701, 1928.277
1062.183, 1931.004
1062.665, 1926.049
1063.147, 1929.667
1063.629, 1939.268
1064.111, 1945.677
1064.594, 1943.716
1065.076, 1945.088
1065.558, 1964.127
1066.040, 1982.585
1066.522, 1982.113
1067.004, 1957.746
1067.486, 1952.205
1067.968, 1966.470
1068.450, 1985.658
1068.933, 2004.417
1069.415, 2018.493
1069.897, 2016.229
1070.379, 2003.367
1070.861, 2007.031
1071.343, 2041.919
1071.825, 2074.113
1072.307, 2100.184
1072.790, 2116.370
1073.272, 2107.906
1073.754, 2084.445
1074.236, 2072.510
1074.718, 2078.984
1075.200, 2092.276
1075.682, 2114.557
1076.164, 2134.903
1076.646, 2144.808
1077.129, 2144.365
1077.611, 2150.812
1078.093, 2164.179
1078.575, 2178.230
1079.057, 2186.781
1079.539, 2196.277
1080.021, 2217.687
1080.503, 2244.034
1080.985, 2255.162
1081.468, 2239.312
1081.950, 2234.848
1082.432, 2249.325
1082.914, 2267.781
1083.396, 2267.609
1083.878, 2258.856
1084.360, 2263.458
1084.842, 2285.501
1085.325, 2303.346
1085.807, 2303.628
1086.289, 2302.948
1086.771, 2306.037
1087.253, 2314.063
1087.735, 2339.033
1088.217, 2377.829
1088.699, 2404.942
1089.182, 2403.779
1089.664, 2395.185
1090.146, 2386.704
1090.628, 2382.486
1091.110, 2389.631
1091.592, 2413.587
1092.074, 2428.679
1092.556, 2433.540
1093.038, 2432.384
1093.521, 2423.802
1094.003, 2414.646
1094.485, 2414.778
1094.967, 2423.958
1095.449, 2433.739
1095.931, 2444.767
1096.413, 2451.483
1096.895, 2450.104
1097.377, 2446.464
1097.860, 2456.527
1098.342, 2475.119
1098.824, 2484.875
1099.306, 2478.881
1099.788, 2471.193
1100.270, 2467.476
1100.752, 2465.381
1101.234, 2463.809
1101.717, 2462.820
1102.199, 2456.967
1102.681, 2446.327
1103.163, 2437.488
1103.645, 2437.570
1104.127, 2438.639
1104.609, 2432.286
1105.091, 2422.147
1105.573, 2418.587
1106.056, 2425.755
1106.538, 2427.559
1107.020, 2420.711
1107.502, 2413.005
1107.984, 2416.645
1108.466, 2424.310
1108.948, 2423.261
1109.430, 2411.464
1109.912, 2403.053
1110.395, 2404.369
1110.877, 2404.864
1111.359, 2400.691
1111.841, 2393.027
1112.323, 2384.611
1112.805, 2375.957
1113.287, 2369.090
1113.769, 2365.947
1114.252, 2362.603
1114.734, 2357.852
1115.216, 2351.655
1115.698, 2343.905
1116.180, 2334.571
1116.662, 2324.886
1117.144, 2314.907
1117.626, 2304.317
1118.109, 2292.857
1118.591, 2280.791
1119.073, 2265.545
1119.555, 2250.018
1120.037, 2245.287
1120.519, 2257.320
1121.001, 2256.401
1121.483, 2233.644
1121.965, 2209.738
1122.448, 2218.969
1122.930, 2240.194
1123.412, 2241.100
1123.894, 2214.113
1124.376, 2190.532
1124.858, 2172.334
1125.340, 2162.120
1125.822, 2164.907
1126.304, 2173.619
1126.787, 2167.147
1127.269, 2149.766
1127.751, 2133.994
1128.233, 2123.553
1128.715, 2117.441
1129.197, 2116.378
1129.679, 2118.734
1130.161, 2126.235
1130.644, 2138.003
1131.126, 2135.458
1131.608, 2118.850
1132.090, 2103.656
1132.572, 2108.050
1133.054, 2109.177
1133.536, 2087.226
1134.018, 2051.756
1134.500, 2028.619
1134.983, 2018.559
1135.465, 2013.731
1135.947, 2014.065
1136.429, 2012.437
1136.911, 1996.625
1137.393, 1978.116
1137.875, 1970.219
1138.357, 1976.245
1138.839, 1977.579
1139.322, 1972.573
1139.804, 1968.767
1140.286, 1971.328
1140.768, 1974.457
1141.250, 1967.541
1141.732, 1953.993
1142.214, 1940.113
1142.696, 1927.565
1143.179, 1914.426
1143.661, 1896.444
1144.143, 1885.311
1144.625, 1896.567
1145.107, 1921.468
1145.589, 1933.076
1146.071, 1931.542
1146.553, 1921.806
1147.036, 1891.270
1147.518, 1872.102
1148.000, 1879.050
1148.482, 1896.175
1148.964, 1893.588
1149.446, 1875.615
1149.928, 1874.513
1150.410, 1896.816
1150.892, 1908.548
1151.375, 1870.919
1151.857, 1830.721
1152.339, 1820.620
1152.821, 1834.527
1153.303, 1839.896
1153.785, 1836.835
1154.267, 1832.892
1154.749, 1831.021
1155.231, 1828.070
1155.714, 1817.037
1156.196, 1805.711
1156.678, 1805.029
1157.160, 1818.401
1157.642, 1821.943
1158.124, 1814.301
1158.606, 1806.732
1159.088, 1809.036
1159.571, 1813.149
1160.053, 1807.223
1160.535, 1796.035
1161.017, 1792.263
1161.499, 1806.331
1161.981, 1806.954
1162.463, 1789.176
1162.945, 1766.753
1163.427, 1751.560
1163.910, 1743.075
1164.392, 1743.126
1164.874, 1750.850
1165.356, 1756.572
1165.838, 1755.617
1166.320, 1756.747
1166.802, 1763.221
1167.284, 1770.484
1167.766, 1770.080
1168.249, 1764.427
1168.731, 1758.031
1169.213, 1750.850
1169.695, 1748.472
1170.177, 1762.592
1170.659, 1769.339
1171.141, 1754.445
1171.623, 1726.150
1172.106, 1713.439
1172.588, 1713.712
1173.070, 1716.817
1173.552, 1721.116
1174.034, 1723.641
1174.516, 1718.948
1174.998, 1715.652
1175.480, 1722.510
1175.963, 1738.724
1176.445, 1749.630
1176.927, 1754.474
1177.409, 1746.662
1177.891, 1698.617
1178.373, 1662.972
1178.855, 1678.653
1179.337, 1717.597
1179.819, 1740.486
1180.302, 1747.010
1180.784, 1745.027
1181.266, 1734.974
1181.748, 1721.949
1182.230, 1702.568
1182.712, 1688.182
1183.194, 1694.454
1183.676, 1713.586
1184.158, 1711.401
1184.641, 1685.470
1185.123, 1667.854
1185.605, 1666.376
1186.087, 1674.699
1186.569, 1693.996
1187.051, 1715.280
1187.533, 1730.013
1188.015, 1737.489
1188.498, 1738.847
1188.980, 1733.744
1189.462, 1724.061
1189.944, 1706.749
1190.426, 1691.539
1190.908, 1693.949
1191.390, 1704.446
1191.872, 1708.474
1192.354, 1700.741
1192.837, 1697.107
1193.319, 1698.026
1193.801, 1700.859
1194.283, 1704.881
1194.765, 1709.051
1195.247, 1711.526
1195.729, 1713.037
1196.211, 1715.858
1196.693, 1725.291
1197.176, 1723.524
1197.658, 1706.423
1198.140, 1688.244
1198.622, 1680.159
1199.104, 1681.809
1199.586, 1697.414
1200.068, 1724.301
1200.550, 1743.492
1201.033, 1751.112
1201.515, 1751.835
1201.997, 1744.565
1202.479, 1735.317
1202.961, 1732.889
1203.443, 1734.358
1203.925, 1734.853
1204.407, 1733.619
1204.890, 1733.680
1205.372, 1737.536
1205.854, 1738.541
1206.336, 1733.557
1206.818, 1725.840
1207.300, 1722.769
1207.782, 1721.755
1208.264, 1716.522
1208.746, 1701.938
1209.229, 1697.305
1209.711, 1712.219
1210.193, 1722.864
1210.675, 1711.869
1211.157, 1691.158
1211.639, 1693.828
1212.121, 1711.507
1212.603, 1721.962
1213.085, 1708.258
1213.568, 1703.269
1214.050, 1714.218
1214.532, 1728.005
1215.014, 1736.138
1215.496, 1738.654
1215.978, 1731.107
1216.460, 1716.945
1216.942, 1709.854
1217.425, 1721.441
1217.907, 1733.270
1218.389, 1744.819
1218.871, 1751.104
1219.353, 1740.938
1219.835, 1721.735
1220.317, 1715.025
1220.799, 1721.175
1221.281, 1729.265
1221.764, 1741.919
1222.246, 1745.145
1222.728, 1731.245
1223.210, 1713.419
1223.692, 1715.965
1224.174, 1731.582
1224.656, 1741.777
1225.138, 1743.860
1225.620, 1740.107
1226.103, 1724.260
1226.585, 1711.238
1227.067, 1704.833
1227.549, 1704.551
1228.031, 1712.420
1228.513, 1725.224
1228.995, 1734.911
1229.477, 1740.414
1229.960, 1739.212
1230.442, 1725.729
1230.924, 1711.776
1231.406, 1700.778
1231.888, 1694.423
1232.370, 1699.019
1232.852, 1712.364
1233.334, 1729.656
1233.816, 1755.540
1234.299, 1769.688
1234.781, 1763.703
1235.263, 1752.953
1235.745, 1746.782
1236.227, 1743.624
1236.709, 1736.205
1237.191, 1727.211
1237.673, 1725.306
1238.156, 1743.038
1238.638, 1754.374
1239.120, 1754.621
1239.602, 1750.817
1240.084, 1748.102
1240.566, 1746.513
1241.048, 1746.759
1241.530, 1748.447
1242.012, 1749.834
1242.495, 1750.199
1242.977, 1750.326
1243.459, 1750.594
1243.941, 1750.201
1244.423, 1746.489
1244.905, 1742.034
1245.387, 1743.431
1245.869, 1750.335
1246.351, 1757.104
1246.834, 1768.300
1247.316, 1767.362
1247.798, 1746.700
1248.280, 1723.214
1248.762, 1721.546
1249.244, 1733.038
1249.726, 1742.794
1250.208, 1749.225
1250.691, 1753.675
1251.173, 1755.309
1251.655, 1758.157
1252.137, 1764.759
1252.619, 1769.714
1253.101, 1761.571
1253.583, 1747.374
1254.065, 1736.862
1254.547, 1730.940
1255.030, 1737.606
1255.512, 1763.912
1255.994, 1782.368
1256.476, 1781.185
1256.958, 1771.474
1257.440, 1771.271
1257.922, 1773.451
1258.404, 1765.444
1258.886, 1740.288
1259.369, 1728.522
1259.851, 1732.848
1260.333, 1741.003
1260.815, 1748.894
1261.297, 1755.471
1261.779, 1757.423
1262.261, 1758.082
1262.743, 1763.318
1263.226, 1776.376
1263.708, 1782.909
1264.190, 1782.245
1264.672, 1779.742
1265.154, 1778.441
1265.636, 1776.970
1266.118, 1770.547
1266.600, 1764.405
1267.083, 1768.965
1267.565, 1790.145
1268.047, 1795.300
1268.529, 1783.186
1269.011, 1772.998
1269.493, 1782.671
1269.975, 1794.468
1270.457, 1795.063
1270.939, 1787.740
1271.422, 1777.601
1271.904, 1762.911
1272.386, 1763.181
1272.868, 1778.995
1273.350, 1795.890
1273.832, 1808.693
1274.314, 1813.980
1274.796, 1802.909
1275.278, 1785.927
1275.761, 1779.311
1276.243, 1782.750
1276.725, 1789.538
1277.207, 1799.013
1277.689, 1805.609
1278.171, 1806.535
1278.653, 1802.578
1279.135, 1789.660
1279.618, 1775.909
1280.100, 1777.591
1280.582, 1791.009
1281.064, 1796.436
1281.546, 1791.805
1282.028, 1784.760
1282.510, 1776.327
1282.992, 1769.605
1283.474, 1763.554
1283.957, 1761.838
1284.439, 1775.639
1284.921, 1798.418
1285.403, 1813.086
##END=



