##NAMES=Analcime
##RRUFFID=R060023
##IDEAL CHEMISTRY=NaAlSi_2_O_6_&#183;H_2_O
##LOCALITY=Dallas, Oregon, USA
##OWNER=RRUFF
##SOURCE=Bob Downs
##DESCRIPTION=White trapezohedral crystal associated with levyne-Na, R060021
##STATUS=The identification of this mineral has been confirmed by X-ray diffraction and chemical analysis
##URL=rruff.info/R060023
##MEASURED CHEMISTRY=(Na_0.98_[box]_0.02_)_Σ=1_(Si_2.02_Al_0.98_)O_6_·H_2_O
152.3061, 108.9036
152.7882, 108.3444
153.2704, 107.6789
153.7525, 106.9630
154.2346, 105.9009
154.7167, 103.9276
155.1988, 102.0974
155.6809, 101.1465
156.1631, 101.1233
156.6452, 101.4571
157.1273, 101.3762
157.6094, 100.6777
158.0915, 99.90971
158.5736, 98.94472
159.0558, 97.97491
159.5379, 97.15205
160.0200, 96.51881
160.5021, 96.09611
160.9842, 96.05237
161.4663, 96.61772
161.9485, 96.76719
162.4306, 95.96582
162.9127, 94.62029
163.3948, 93.50462
163.8769, 92.90112
164.3590, 92.59046
164.8412, 92.18826
165.3233, 91.64979
165.8054, 91.22120
166.2875, 91.27000
166.7696, 91.68509
167.2517, 91.57832
167.7339, 90.14355
168.2160, 88.47273
168.6981, 87.78123
169.1802, 88.28915
169.6623, 89.05534
170.1444, 89.07905
170.6266, 88.22780
171.1087, 87.46680
171.5908, 87.17913
172.0729, 87.02737
172.5550, 86.75906
173.0371, 86.29517
173.5193, 85.81729
174.0014, 85.65845
174.4835, 86.02750
174.9656, 86.27102
175.4477, 86.21261
175.9298, 86.03912
176.4120, 85.94873
176.8941, 86.02547
177.3762, 86.13951
177.8583, 85.90313
178.3404, 84.69632
178.8225, 83.96766
179.3047, 84.20982
179.7868, 84.86079
180.2689, 85.24751
180.7510, 85.01356
181.2331, 84.32569
181.7152, 83.93907
182.1974, 84.16710
182.6795, 84.33674
183.1616, 84.33397
183.6437, 84.19888
184.1258, 83.97069
184.6079, 83.64029
185.0900, 83.26588
185.5722, 83.24966
186.0543, 84.10001
186.5364, 84.69688
187.0185, 84.36913
187.5006, 83.38634
187.9827, 82.58923
188.4649, 82.48895
188.9470, 83.01500
189.4291, 83.60574
189.9112, 84.67654
190.3933, 85.46117
190.8754, 85.23170
191.3576, 84.06374
191.8397, 82.98753
192.3218, 82.70156
192.8039, 82.93143
193.2860, 83.00137
193.7681, 82.76826
194.2503, 82.41926
194.7324, 82.08463
195.2145, 81.73801
195.6966, 81.57552
196.1787, 82.06335
196.6608, 82.71656
197.1430, 82.91016
197.6251, 82.27690
198.1072, 81.27570
198.5893, 80.66982
199.0714, 80.55712
199.5535, 80.59587
200.0357, 80.84773
200.5178, 81.09362
200.9999, 81.01582
201.4820, 80.36589
201.9641, 79.42860
202.4462, 79.05483
202.9284, 79.69527
203.4105, 80.15883
203.8926, 80.03969
204.3747, 79.59624
204.8568, 79.13857
205.3389, 78.83379
205.8211, 78.64710
206.3032, 78.42538
206.7853, 78.09497
207.2674, 77.82172
207.7495, 77.56153
208.2316, 77.38947
208.7138, 77.46457
209.1959, 77.91800
209.6780, 78.64832
210.1601, 78.89872
210.6422, 78.03053
211.1243, 77.33036
211.6065, 77.08471
212.0886, 77.14882
212.5707, 77.25121
213.0528, 77.21050
213.5349, 77.06113
214.0170, 77.15537
214.4992, 77.82486
214.9813, 78.35603
215.4634, 78.46819
215.9455, 78.29595
216.4276, 78.16415
216.9097, 78.30624
217.3919, 78.66035
217.8740, 78.62186
218.3561, 77.83791
218.8382, 77.12150
219.3203, 76.78576
219.8024, 76.76894
220.2845, 76.88100
220.7667, 77.03779
221.2488, 77.22038
221.7309, 77.33045
222.2130, 77.35885
222.6951, 77.33524
223.1772, 77.24574
223.6594, 77.10480
224.1415, 76.97647
224.6236, 76.88736
225.1057, 76.84567
225.5878, 76.85477
226.0699, 76.95890
226.5521, 77.06286
227.0342, 77.09132
227.5163, 77.05168
227.9984, 77.03788
228.4805, 77.19557
228.9626, 77.34840
229.4448, 77.15147
229.9269, 76.37101
230.4090, 75.56448
230.8911, 75.30434
231.3732, 75.59577
231.8553, 75.73463
232.3375, 75.29271
232.8196, 74.58326
233.3017, 73.97295
233.7838, 73.50462
234.2659, 73.15845
234.7480, 72.99582
235.2302, 73.05102
235.7123, 72.95544
236.1944, 72.35900
236.6765, 71.66542
237.1586, 71.27702
237.6407, 71.32204
238.1229, 71.39368
238.6050, 70.89989
239.0871, 69.69222
239.5692, 68.72864
240.0513, 68.49232
240.5334, 68.46652
241.0156, 68.34792
241.4977, 68.06701
241.9798, 67.67454
242.4619, 67.18473
242.9440, 66.52324
243.4261, 66.04836
243.9083, 66.11597
244.3904, 66.18959
244.8725, 65.84666
245.3546, 65.03001
245.8367, 64.11772
246.3188, 63.66749
246.8010, 63.87774
247.2831, 63.93602
247.7652, 63.64338
248.2473, 63.29053
248.7294, 63.03684
249.2115, 62.91190
249.6937, 62.85928
250.1758, 62.82386
250.6579, 62.84340
251.1400, 62.77123
251.6221, 62.53274
252.1042, 62.27161
252.5864, 62.05517
253.0685, 61.89667
253.5506, 61.78811
254.0327, 61.73021
254.5148, 61.76173
254.9969, 61.71681
255.4790, 61.53107
255.9612, 61.33575
256.4433, 61.18982
256.9254, 61.10319
257.4075, 61.06074
257.8896, 61.04634
258.3718, 61.05561
258.8539, 61.11843
259.3360, 61.37817
259.8181, 61.55791
260.3002, 61.42499
260.7823, 61.04250
261.2645, 60.70087
261.7466, 60.69179
262.2287, 61.08289
262.7108, 61.30204
263.1929, 61.26360
263.6750, 61.17473
264.1572, 61.17214
264.6393, 61.21853
265.1214, 61.14573
265.6035, 60.78734
266.0856, 60.12894
266.5677, 59.73250
267.0499, 59.74097
267.5320, 59.80291
268.0141, 59.80796
268.4962, 59.74584
268.9783, 59.60645
269.4604, 59.35825
269.9426, 59.02403
270.4247, 58.90823
270.9068, 59.22163
271.3889, 59.48107
271.8710, 59.46891
272.3531, 59.25975
272.8352, 59.02954
273.3174, 58.85802
273.7995, 58.76098
274.2816, 58.82886
274.7637, 59.24208
275.2458, 59.57790
275.7279, 59.68562
276.2101, 59.62529
276.6922, 59.49380
277.1743, 59.30870
277.6564, 59.13020
278.1385, 59.16813
278.6206, 59.58313
279.1028, 59.87243
279.5849, 59.69444
280.0670, 59.32494
280.5491, 59.30035
281.0312, 59.86223
281.5133, 60.70113
281.9955, 61.19095
282.4776, 61.22729
282.9597, 61.37398
283.4418, 61.82335
283.9239, 62.45422
284.4060, 63.10236
284.8882, 63.73916
285.3703, 64.32197
285.8524, 64.70786
286.3345, 64.85340
286.8166, 65.26168
287.2987, 66.13368
287.7809, 67.28515
288.2630, 68.51273
288.7451, 69.77975
289.2272, 71.06653
289.7093, 72.26619
290.1914, 73.40063
290.6736, 74.81918
291.1557, 76.70622
291.6378, 78.83748
292.1199, 81.03228
292.6020, 83.27314
293.0841, 85.45692
293.5663, 87.39068
294.0484, 89.17464
294.5305, 91.28734
295.0126, 94.28355
295.4947, 97.27170
295.9768, 99.47937
296.4590, 100.9009
296.9411, 101.9270
297.4232, 102.7986
297.9053, 103.3922
298.3874, 103.5133
298.8695, 103.1623
299.3517, 102.3260
299.8338, 100.9514
300.3159, 99.05984
300.7980, 96.76019
301.2801, 93.95719
301.7622, 90.88173
302.2444, 88.01784
302.7265, 85.38139
303.2086, 82.89794
303.6907, 80.47121
304.1728, 78.14246
304.6549, 76.13829
305.1371, 74.61579
305.6192, 73.32117
306.1013, 71.83170
306.5834, 70.10189
307.0655, 68.56016
307.5476, 67.43794
308.0298, 66.63144
308.5119, 65.92189
308.9940, 65.29545
309.4761, 64.68163
309.9582, 63.86263
310.4403, 62.87830
310.9225, 62.28358
311.4046, 62.61650
311.8867, 63.32344
312.3688, 63.49506
312.8509, 62.97224
313.3330, 62.29106
313.8152, 61.86773
314.2973, 61.65081
314.7794, 61.50730
315.2615, 61.43437
315.7436, 61.40892
316.2257, 61.44690
316.7079, 61.55322
317.1900, 61.57586
317.6721, 61.36761
318.1542, 61.01880
318.6363, 60.75852
319.1184, 60.65013
319.6006, 60.57748
320.0827, 60.42211
320.5648, 60.20412
321.0469, 60.08197
321.5290, 60.15426
322.0111, 60.33974
322.4933, 60.47242
322.9754, 60.53237
323.4575, 60.60064
323.9396, 60.71698
324.4217, 60.87545
324.9038, 61.08702
325.3860, 61.41193
325.8681, 61.68198
326.3502, 61.53399
326.8323, 60.95011
327.3144, 60.68415
327.7965, 61.26051
328.2787, 62.25680
328.7608, 62.96997
329.2429, 63.27692
329.7250, 63.37320
330.2071, 63.37555
330.6892, 63.30268
331.1714, 63.26277
331.6535, 63.25431
332.1356, 63.30071
332.6177, 63.46143
333.0998, 63.73851
333.5819, 63.97512
334.0641, 63.94735
334.5462, 63.81407
335.0283, 64.13926
335.5104, 65.52039
335.9925, 66.79334
336.4746, 66.95161
336.9568, 66.24490
337.4389, 65.84919
337.9210, 66.39899
338.4031, 67.48316
338.8852, 68.10610
339.3673, 68.09947
339.8495, 68.11031
340.3316, 68.44369
340.8137, 68.96513
341.2958, 69.40955
341.7779, 69.69372
342.2600, 69.89574
342.7421, 70.13863
343.2242, 70.43911
343.7064, 70.64939
344.1885, 70.52842
344.6706, 70.41056
345.1527, 70.76328
345.6348, 71.65024
346.1169, 72.58900
346.5991, 73.13285
347.0812, 73.25197
347.5633, 73.43726
348.0454, 73.63698
348.5275, 73.94893
349.0096, 74.51181
349.4918, 75.27576
349.9739, 75.98475
350.4560, 76.45692
350.9381, 76.76662
351.4202, 77.29002
351.9023, 78.38074
352.3845, 79.24072
352.8666, 79.45676
353.3487, 79.30229
353.8308, 79.27120
354.3129, 79.56113
354.7950, 80.02553
355.2772, 80.37554
355.7593, 80.50035
356.2414, 80.75451
356.7235, 81.23580
357.2056, 81.82510
357.6877, 82.39190
358.1699, 82.91800
358.6520, 83.49717
359.1341, 84.27512
359.6162, 85.34107
360.0983, 86.05697
360.5804, 85.99831
361.0626, 86.01102
361.5447, 86.70824
362.0268, 87.92533
362.5089, 89.00195
362.9910, 89.44732
363.4731, 89.35812
363.9553, 89.61539
364.4374, 90.22353
364.9195, 91.14553
365.4016, 92.67300
365.8837, 94.42571
366.3658, 95.88618
366.8480, 96.84424
367.3301, 97.46629
367.8122, 98.09946
368.2943, 98.75426
368.7764, 99.40396
369.2585, 99.93410
369.7407, 100.5359
370.2228, 101.4867
370.7049, 102.7476
371.1870, 103.9047
371.6691, 104.4353
372.1512, 104.1589
372.6334, 104.3397
373.1155, 105.4909
373.5976, 106.5610
374.0797, 106.9558
374.5618, 106.9690
375.0439, 107.3195
375.5261, 108.5357
376.0082, 110.3840
376.4903, 111.6553
376.9724, 111.7613
377.4545, 112.1143
377.9366, 113.2828
378.4188, 114.6328
378.9009, 115.4403
379.3830, 115.4723
379.8651, 115.1958
380.3472, 115.3298
380.8293, 115.9422
381.3115, 116.7521
381.7936, 118.1146
382.2757, 119.3602
382.7578, 120.0321
383.2399, 120.1940
383.7220, 120.3174
384.2042, 120.8595
384.6863, 121.7792
385.1684, 122.4192
385.6505, 122.6170
386.1326, 122.7571
386.6147, 122.9934
387.0969, 123.2867
387.5790, 123.5600
388.0611, 123.7587
388.5432, 123.9652
389.0253, 124.4110
389.5074, 125.2106
389.9896, 125.7502
390.4717, 125.7231
390.9538, 125.3922
391.4359, 124.8677
391.9180, 124.1542
392.4001, 123.5171
392.8823, 123.2930
393.3644, 123.3893
393.8465, 123.1932
394.3286, 122.4757
394.8107, 121.6730
395.2928, 121.2196
395.7750, 121.0085
396.2571, 120.6407
396.7392, 119.7812
397.2213, 118.7636
397.7034, 118.1787
398.1855, 118.0864
398.6677, 117.7630
399.1498, 116.6912
399.6319, 115.1176
400.1140, 113.6657
400.5961, 112.3844
401.0782, 111.1899
401.5604, 109.9773
402.0425, 108.8018
402.5246, 107.8726
403.0067, 107.3313
403.4888, 106.8542
403.9709, 105.9271
404.4531, 104.5208
404.9352, 103.0562
405.4173, 101.5221
405.8994, 100.0104
406.3815, 98.71465
406.8636, 97.61408
407.3458, 96.33834
407.8279, 94.52319
408.3100, 92.22642
408.7921, 90.44712
409.2742, 89.48693
409.7563, 88.64001
410.2385, 87.71087
410.7206, 86.71622
411.2027, 85.73144
411.6848, 84.79305
412.1669, 83.82537
412.6490, 82.65721
413.1311, 80.96897
413.6133, 79.65418
414.0954, 79.02433
414.5775, 78.52713
415.0596, 77.74557
415.5417, 76.66137
416.0238, 75.52878
416.5060, 74.59139
416.9881, 73.86038
417.4702, 73.02873
417.9523, 71.77138
418.4344, 70.76164
418.9165, 70.29124
419.3987, 70.13157
419.8808, 69.96717
420.3629, 69.65787
420.8450, 69.23844
421.3271, 68.75253
421.8092, 68.10495
422.2914, 67.64223
422.7735, 67.56900
423.2556, 67.55058
423.7377, 67.36868
424.2198, 67.02139
424.7019, 66.66444
425.1841, 66.44520
425.6662, 66.34763
426.1483, 66.19642
426.6304, 65.93764
427.1125, 65.71577
427.5946, 65.50774
428.0768, 65.39358
428.5589, 65.54290
429.0410, 66.10490
429.5231, 66.75095
430.0052, 67.04186
430.4873, 66.97092
430.9695, 66.85326
431.4516, 66.68906
431.9337, 66.61321
432.4158, 66.79164
432.8979, 67.22710
433.3800, 67.65185
433.8622, 67.94302
434.3443, 68.13880
434.8264, 68.26274
435.3085, 68.29790
435.7906, 68.43372
436.2727, 68.84529
436.7549, 69.49052
437.2370, 70.10906
437.7191, 70.62388
438.2012, 71.17840
438.6833, 71.94853
439.1654, 72.81939
439.6476, 73.49158
440.1297, 73.83738
440.6118, 74.00623
441.0939, 74.22697
441.5760, 74.45137
442.0581, 74.88399
442.5403, 75.63789
443.0224, 76.52947
443.5045, 77.49113
443.9866, 78.47377
444.4687, 79.32105
444.9508, 79.86503
445.4330, 80.16587
445.9151, 80.93363
446.3972, 82.57217
446.8793, 84.20451
447.3614, 85.78515
447.8435, 87.25797
448.3257, 88.45884
448.8078, 89.37235
449.2899, 90.34132
449.7720, 91.94749
450.2541, 94.45710
450.7362, 96.66505
451.2184, 98.07042
451.7005, 99.63736
452.1826, 101.7393
452.6647, 104.3239
453.1468, 107.2419
453.6289, 110.4728
454.1111, 113.8976
454.5932, 117.0975
455.0753, 119.9291
455.5574, 123.0401
456.0395, 126.6922
456.5216, 130.6942
457.0038, 134.8741
457.4859, 139.2406
457.9680, 143.9135
458.4501, 149.0277
458.9322, 154.5472
459.4143, 160.2787
459.8965, 166.2157
460.3786, 172.2892
460.8607, 178.3416
461.3428, 184.4804
461.8249, 191.0541
462.3070, 197.9963
462.7892, 205.5187
463.2713, 213.9767
463.7534, 223.1937
464.2355, 232.3574
464.7176, 241.1231
465.1997, 249.8799
465.6819, 259.4368
466.1640, 269.9064
466.6461, 280.4681
467.1282, 290.5547
467.6103, 301.0420
468.0924, 312.8506
468.5746, 325.8324
469.0567, 339.1224
469.5388, 351.9604
470.0209, 364.5020
470.5030, 378.3136
470.9851, 394.1808
471.4673, 410.3102
471.9494, 426.2415
472.4315, 442.4668
472.9136, 459.5586
473.3957, 477.5839
473.8778, 496.1246
474.3600, 514.4855
474.8421, 532.4180
475.3242, 552.0179
475.8063, 575.7335
476.2884, 598.6778
476.7705, 619.2751
477.2527, 638.0789
477.7348, 656.2401
478.2169, 674.3951
478.6990, 691.7454
479.1811, 707.2844
479.6632, 721.2506
480.1454, 731.8238
480.6275, 738.1349
481.1096, 741.0704
481.5917, 741.9773
482.0738, 740.7222
482.5559, 736.0959
483.0380, 727.1219
483.5201, 714.5628
484.0023, 699.2030
484.4844, 681.0299
484.9665, 661.6754
485.4486, 642.2437
485.9307, 622.0955
486.4128, 599.4288
486.8950, 573.3162
487.3771, 547.0106
487.8592, 520.9529
488.3413, 495.6585
488.8234, 471.7084
489.3055, 449.1165
489.7877, 427.5815
490.2698, 406.8746
490.7519, 386.9029
491.2340, 368.2226
491.7161, 350.5743
492.1982, 334.0409
492.6804, 318.9756
493.1625, 304.8529
493.6446, 290.7552
494.1267, 276.3365
494.6088, 262.3521
495.0909, 250.2148
495.5731, 240.4314
496.0552, 230.8984
496.5373, 221.3872
497.0194, 212.3473
497.5015, 204.1051
497.9836, 196.5145
498.4658, 189.2551
498.9479, 182.1881
499.4300, 175.3095
499.9121, 168.4853
500.3942, 161.6976
500.8763, 155.3353
501.3585, 149.4754
501.8406, 144.1765
502.3227, 139.4604
502.8048, 135.3163
503.2869, 131.4261
503.7690, 127.8203
504.2512, 124.2882
504.7333, 120.3700
505.2154, 116.0148
505.6975, 112.1231
506.1796, 109.3417
506.6617, 107.3364
507.1439, 105.0034
507.6260, 102.0070
508.1081, 99.31422
508.5902, 97.43435
509.0723, 95.86504
509.5544, 93.99449
510.0366, 91.74863
510.5187, 89.42980
511.0008, 87.29911
511.4829, 85.35684
511.9650, 83.64359
512.4471, 82.28344
512.9293, 81.00633
513.4114, 79.94680
513.8935, 78.86109
514.3756, 77.34249
514.8577, 75.32088
515.3398, 73.30453
515.8220, 72.06554
516.3041, 71.70993
516.7862, 70.97153
517.2683, 69.46552
517.7504, 68.06670
518.2325, 67.23376
518.7147, 66.74976
519.1968, 66.27135
519.6789, 65.70481
520.1610, 65.04440
520.6431, 64.27054
521.1252, 63.39120
521.6074, 62.46295
522.0895, 61.49037
522.5716, 60.50004
523.0537, 59.39246
523.5358, 58.20978
524.0179, 57.44619
524.5001, 57.68827
524.9822, 57.92729
525.4643, 57.37720
525.9464, 56.21488
526.4285, 54.94962
526.9106, 53.76187
527.3928, 52.78462
527.8749, 52.29968
528.3570, 52.66935
528.8391, 52.68257
529.3212, 52.09547
529.8033, 51.40424
530.2855, 50.80049
530.7676, 50.32483
531.2497, 50.03767
531.7318, 50.00331
532.2139, 50.05372
532.6960, 49.68988
533.1782, 48.69276
533.6603, 47.90545
534.1424, 47.62181
534.6245, 47.46777
535.1066, 47.26771
535.5887, 47.01033
536.0709, 46.72755
536.5530, 46.44105
537.0351, 46.14118
537.5172, 45.81401
537.9993, 45.46205
538.4814, 45.05151
538.9636, 44.53636
539.4457, 43.98458
539.9278, 43.48553
540.4099, 43.02816
540.8920, 42.67400
541.3741, 42.48454
541.8563, 42.37492
542.3384, 42.33266
542.8205, 42.31376
543.3026, 42.10971
543.7847, 41.54968
544.2668, 40.78582
544.7490, 40.38822
545.2311, 40.86083
545.7132, 41.00769
546.1953, 40.66192
546.6774, 40.10045
547.1595, 39.36901
547.6417, 38.58570
548.1238, 38.06191
548.6059, 38.10065
549.0880, 38.52597
549.5701, 38.62586
550.0522, 38.31915
550.5344, 37.89347
551.0165, 37.18349
551.4986, 36.55100
551.9807, 36.35587
552.4628, 36.60571
552.9449, 36.87651
553.4271, 36.96368
553.9092, 36.89560
554.3913, 36.68367
554.8734, 36.32833
555.3555, 35.96368
555.8376, 35.64483
556.3198, 35.37713
556.8019, 35.19107
557.2840, 35.15412
557.7661, 35.02303
558.2482, 34.58157
558.7303, 34.14560
559.2125, 34.07719
559.6946, 34.32508
560.1767, 34.51061
560.6588, 34.35971
561.1409, 33.95320
561.6230, 33.63868
562.1052, 33.44904
562.5873, 33.29564
563.0694, 33.16695
563.5515, 33.06735
564.0336, 33.00567
564.5157, 32.97812
564.9979, 32.97584
565.4800, 33.03774
565.9621, 33.09515
566.4442, 32.88375
566.9263, 32.32777
567.4084, 32.03856
567.8906, 32.41353
568.3727, 33.02651
568.8548, 33.32572
569.3369, 33.30164
569.8190, 33.17299
570.3011, 32.87464
570.7833, 32.60019
571.2654, 32.62159
571.7475, 32.88186
572.2296, 33.05734
572.7117, 32.97237
573.1938, 32.71496
573.6760, 32.48552
574.1581, 32.18620
574.6402, 32.11536
575.1223, 32.54537
575.6044, 32.94283
576.0865, 32.86623
576.5687, 32.49133
577.0508, 32.34258
577.5329, 32.75259
578.0150, 33.42308
578.4971, 33.70205
578.9792, 33.53250
579.4614, 33.27298
579.9435, 32.84719
580.4256, 32.50038
580.9077, 32.45404
581.3898, 32.64242
581.8719, 32.80465
582.3541, 32.81853
582.8362, 32.79467
583.3183, 32.82157
583.8004, 32.89811
584.2825, 33.03541
584.7646, 33.24899
585.2468, 33.46591
585.7289, 33.58688
586.2110, 33.58760
586.6931, 33.62878
587.1752, 33.79548
587.6573, 33.90812
588.1394, 33.79406
588.6215, 33.61095
589.1036, 33.64162
589.5858, 33.97203
590.0679, 34.36797
590.5500, 34.47062
591.0321, 34.23571
591.5142, 34.19001
591.9963, 34.47676
592.4785, 34.74239
592.9606, 34.77954
593.4427, 34.72548
593.9248, 34.80683
594.4069, 35.11913
594.8890, 35.35390
595.3712, 35.16698
595.8533, 34.75246
596.3354, 34.57885
596.8175, 34.71418
597.2996, 34.94030
597.7817, 35.12394
598.2639, 35.26355
598.7460, 35.34251
599.2281, 35.32277
599.7102, 35.30445
600.1923, 35.28942
600.6744, 35.29058
601.1566, 35.35954
601.6387, 35.46917
602.1208, 35.48865
602.6029, 35.28900
603.0850, 34.96278
603.5671, 34.88941
604.0493, 35.14934
604.5314, 35.44865
605.0135, 35.81823
605.4956, 36.13247
605.9777, 36.26918
606.4598, 36.25187
606.9420, 36.24567
607.4241, 36.34024
607.9062, 36.47783
608.3883, 36.54705
608.8704, 36.57952
609.3525, 36.80459
609.8347, 37.36148
610.3168, 37.92491
610.7989, 38.00293
611.2810, 37.44287
611.7631, 37.15551
612.2452, 37.23882
612.7274, 37.47482
613.2095, 37.88320
613.6916, 38.34714
614.1737, 38.67758
614.6558, 38.81898
615.1379, 38.93096
615.6201, 39.23949
616.1022, 39.75024
616.5843, 40.20414
617.0664, 40.66170
617.5485, 40.94373
618.0306, 40.74749
618.5128, 40.42670
618.9949, 40.47946
619.4770, 41.05678
619.9591, 41.54180
620.4412, 41.40845
620.9233, 41.04543
621.4055, 41.10816
621.8876, 41.61375
622.3697, 42.10683
622.8518, 42.34705
623.3339, 42.32228
623.8160, 41.97874
624.2982, 40.85332
624.7803, 40.17532
625.2624, 40.31008
625.7445, 40.54750
626.2266, 40.49186
626.7087, 40.17531
627.1909, 39.76599
627.6730, 39.34266
628.1551, 38.92292
628.6372, 38.53047
629.1193, 38.16340
629.6014, 37.85633
630.0836, 37.60479
630.5657, 37.43264
631.0478, 37.49889
631.5299, 37.66376
632.0120, 37.53511
632.4941, 36.79387
632.9763, 36.13337
633.4584, 36.04054
633.9405, 36.18640
634.4226, 36.04958
634.9047, 35.56397
635.3868, 35.05978
635.8690, 34.82267
636.3511, 34.80808
636.8332, 34.70323
637.3153, 34.42738
637.7974, 34.19378
638.2795, 34.05074
638.7617, 33.93608
639.2438, 33.77340
639.7259, 33.58937
640.2080, 33.51339
640.6901, 33.69250
641.1722, 33.93694
641.6544, 33.92773
642.1365, 33.69039
642.6186, 33.50075
643.1007, 33.47223
643.5828, 33.40926
644.0649, 33.05450
644.5471, 32.38673
645.0292, 31.91022
645.5113, 31.64688
645.9934, 31.54747
646.4755, 31.72791
646.9576, 31.99821
647.4398, 32.09641
647.9219, 31.98812
648.4040, 31.86548
648.8861, 31.92306
649.3682, 32.12623
649.8503, 32.26233
650.3325, 32.32867
650.8146, 32.33024
651.2967, 32.21368
651.7788, 32.07295
652.2609, 32.01144
652.7430, 32.02373
653.2252, 31.97915
653.7073, 31.69208
654.1894, 31.44098
654.6715, 31.57966
655.1536, 31.96960
655.6357, 32.13752
656.1179, 31.91533
656.6000, 31.68195
657.0821, 31.97430
657.5642, 32.88896
658.0463, 33.36792
658.5284, 32.92420
659.0106, 32.61023
659.4927, 32.78649
659.9748, 33.09707
660.4569, 33.13380
660.9390, 32.85081
661.4211, 32.57313
661.9033, 32.60609
662.3854, 32.80202
662.8675, 32.81466
663.3496, 32.64371
663.8317, 32.51942
664.3138, 32.54139
664.7960, 32.62877
665.2781, 32.66529
665.7602, 32.63686
666.2423, 32.63546
666.7244, 32.70332
667.2065, 32.75489
667.6887, 32.71927
668.1708, 32.65614
668.6529, 32.69244
669.1350, 32.84493
669.6171, 32.94081
670.0992, 32.73337
670.5814, 32.27835
671.0635, 32.08452
671.5456, 32.22348
672.0277, 32.39743
672.5098, 32.56982
672.9919, 32.66483
673.4741, 32.57408
673.9562, 32.29106
674.4383, 32.01650
674.9204, 31.81845
675.4025, 31.63636
675.8846, 31.39182
676.3668, 31.13034
676.8489, 30.96277
677.3310, 30.92572
677.8131, 30.95405
678.2952, 30.98464
678.7773, 31.02217
679.2595, 30.93409
679.7416, 30.71862
680.2237, 30.37553
680.7058, 29.74983
681.1879, 29.10804
681.6700, 28.71634
682.1522, 28.59009
682.6343, 28.52820
683.1164, 28.46439
683.5985, 28.38271
684.0806, 28.26747
684.5627, 28.11783
685.0449, 27.93974
685.5270, 27.73683
686.0091, 27.47837
686.4912, 27.10059
686.9733, 26.57683
687.4554, 26.24337
687.9376, 26.26513
688.4197, 26.27676
688.9018, 26.25045
689.3839, 26.15758
689.8660, 25.93066
690.3481, 25.58796
690.8303, 25.28518
691.3124, 25.15528
691.7945, 25.11716
692.2766, 25.00612
692.7587, 24.83479
693.2408, 24.75628
693.7230, 24.84360
694.2051, 24.95608
694.6872, 24.93087
695.1693, 24.76043
695.6514, 24.59619
696.1335, 24.36132
696.6157, 24.22729
697.0978, 24.35903
697.5799, 24.53446
698.0620, 24.51102
698.5441, 24.28225
699.0262, 24.01878
699.5084, 23.80710
699.9905, 23.68962
700.4726, 23.86451
700.9547, 24.34361
701.4368, 24.48980
701.9189, 24.00007
702.4011, 23.45878
702.8832, 23.48043
703.3653, 24.00882
703.8474, 24.31494
704.3295, 24.29189
704.8116, 24.16754
705.2938, 23.87200
705.7759, 23.59388
706.2580, 23.58945
706.7401, 23.81577
707.2222, 23.97306
707.7043, 23.84335
708.1865, 23.56744
708.6686, 23.50189
709.1507, 23.67589
709.6328, 23.68331
710.1149, 23.39624
710.5970, 23.04580
711.0792, 22.71446
711.5613, 22.45934
712.0434, 22.47075
712.5255, 22.95307
713.0076, 23.35595
713.4897, 23.49774
713.9719, 23.48454
714.4540, 23.41770
714.9361, 23.29606
715.4182, 23.01289
715.9003, 22.49154
716.3824, 21.96795
716.8646, 21.96845
717.3467, 22.55532
717.8288, 22.99531
718.3109, 23.25699
718.7930, 23.34208
719.2751, 23.11212
719.7573, 22.75414
720.2394, 22.59816
720.7215, 22.73109
721.2036, 22.80574
721.6857, 22.65977
722.1678, 22.44446
722.6500, 22.23127
723.1321, 22.06540
723.6142, 22.07366
724.0963, 22.30329
724.5784, 22.55110
725.0605, 22.49492
725.5427, 22.12367
726.0248, 21.89058
726.5069, 21.84216
726.9890, 21.82585
727.4711, 21.73044
727.9532, 21.67422
728.4354, 21.85436
728.9175, 22.28467
729.3995, 22.55784
729.8817, 22.43331
730.3638, 22.23007
730.8459, 22.17075
731.3280, 22.19273
731.8101, 22.16915
732.2922, 22.06601
732.7744, 21.91964
733.2565, 21.74778
733.7386, 21.57044
734.2207, 21.54855
734.7028, 21.76551
735.1849, 21.86054
735.6671, 21.66553
736.1492, 21.40677
736.6313, 21.24946
737.1134, 21.19094
737.5955, 21.22938
738.0776, 21.50857
738.5598, 21.70163
739.0419, 21.49076
739.5240, 21.18945
740.0061, 21.27866
740.4882, 21.72810
740.9703, 22.08630
741.4525, 22.04202
741.9346, 21.75289
742.4167, 21.57938
742.8988, 21.52677
743.3809, 21.57087
743.8630, 21.80610
744.3452, 21.97277
744.8273, 21.86091
745.3094, 21.58238
745.7915, 21.32938
746.2736, 21.09554
746.7557, 20.94119
747.2379, 20.91986
747.7200, 20.95726
748.2021, 21.00629
748.6842, 21.06081
749.1663, 21.12171
749.6484, 21.18897
750.1306, 21.26023
750.6127, 21.35042
751.0948, 21.45257
751.5769, 21.44728
752.0590, 21.29732
752.5411, 21.17435
753.0233, 21.14633
753.5054, 21.17212
753.9875, 21.20909
754.4696, 21.25724
754.9517, 21.29009
755.4338, 21.33718
755.9160, 21.33079
756.3981, 21.16683
756.8802, 20.97280
757.3623, 20.94011
757.8444, 21.06615
758.3265, 21.14462
758.8087, 20.97144
759.2908, 20.73833
759.7729, 20.97088
760.2550, 21.66989
760.7371, 22.16857
761.2192, 22.34756
761.7014, 22.29269
762.1835, 21.98686
762.6656, 21.50474
763.1477, 21.16706
763.6298, 20.93613
764.1119, 20.89813
764.5941, 21.26550
765.0762, 21.64148
765.5583, 21.77178
766.0404, 21.70559
766.5225, 21.54396
767.0046, 21.32390
767.4868, 21.17409
767.9689, 21.29092
768.4510, 21.58191
768.9331, 21.75963
769.4152, 21.81184
769.8973, 21.86734
770.3795, 21.99531
770.8616, 22.10633
771.3437, 22.04785
771.8258, 21.77479
772.3079, 21.66613
772.7900, 21.94818
773.2722, 22.09896
773.7543, 21.88488
774.2364, 21.57966
774.7185, 21.39942
775.2006, 21.37584
775.6827, 21.48632
776.1649, 21.78112
776.6470, 22.11363
777.1291, 22.33499
777.6112, 22.46325
778.0933, 22.54962
778.5754, 22.60156
779.0576, 22.56869
779.5397, 22.39198
780.0218, 22.15597
780.5039, 22.12231
780.9860, 22.34594
781.4681, 22.63227
781.9503, 23.19330
782.4324, 23.55643
782.9145, 23.37581
783.3966, 22.95377
783.8787, 22.71759
784.3608, 22.74678
784.8430, 22.83115
785.3251, 22.93218
785.8072, 22.99680
786.2893, 22.93467
786.7714, 22.80364
787.2535, 22.73434
787.7357, 22.76573
788.2178, 22.85953
788.6999, 22.99414
789.1820, 23.14925
789.6641, 23.21406
790.1462, 23.18709
790.6284, 23.06220
791.1105, 22.76212
791.5926, 22.47221
792.0747, 22.32412
792.5568, 22.31624
793.0389, 22.45233
793.5211, 22.82622
794.0032, 23.18810
794.4853, 23.67780
794.9674, 23.95845
795.4495, 23.55017
795.9316, 22.74059
796.4138, 22.22471
796.8959, 22.29160
797.3780, 22.55158
797.8601, 22.57397
798.3422, 22.42439
798.8243, 22.31862
799.3065, 22.26419
799.7886, 22.23838
800.2707, 22.22400
800.7528, 22.26772
801.2349, 22.46977
801.7170, 22.85488
802.1992, 22.98608
802.6813, 22.68582
803.1634, 22.35764
803.6455, 21.88638
804.1276, 21.54103
804.6097, 21.64010
805.0919, 22.05702
805.5740, 22.32411
806.0561, 22.20989
806.5382, 22.02907
807.0203, 22.03071
807.5024, 22.13297
807.9846, 22.26530
808.4667, 22.38181
808.9488, 22.29172
809.4309, 21.88274
809.9130, 21.40884
810.3951, 21.34143
810.8773, 21.72172
811.3594, 21.87983
811.8415, 21.70649
812.3236, 21.58000
812.8057, 21.69070
813.2878, 21.86271
813.7700, 21.89820
814.2521, 21.80257
814.7342, 21.67439
815.2163, 21.43609
815.6984, 21.27992
816.1805, 21.34610
816.6627, 21.48102
817.1448, 21.53770
817.6269, 21.50804
818.1090, 21.43732
818.5911, 21.33887
819.0732, 21.26556
819.5554, 21.36477
820.0375, 21.55405
820.5196, 21.42369
821.0017, 20.93922
821.4838, 20.66644
821.9659, 20.93786
822.4481, 21.40906
822.9302, 21.50189
823.4123, 21.14157
823.8944, 20.91078
824.3765, 20.90470
824.8586, 20.89942
825.3408, 20.88722
825.8229, 20.82680
826.3050, 20.61297
826.7871, 20.29986
827.2692, 20.14919
827.7513, 20.33084
828.2335, 20.56602
828.7156, 20.74079
829.1977, 20.83578
829.6798, 20.76731
830.1619, 20.58664
830.6440, 20.50036
831.1262, 20.61652
831.6083, 20.78873
832.0904, 20.74691
832.5725, 20.51995
833.0546, 20.54365
833.5367, 20.87565
834.0189, 21.13874
834.5010, 21.19031
834.9831, 21.11058
835.4652, 20.98702
835.9473, 20.81979
836.4294, 20.61462
836.9116, 20.24089
837.3937, 20.01080
837.8758, 20.02012
838.3579, 20.14941
838.8400, 20.42516
839.3221, 20.73460
839.8043, 20.80246
840.2864, 20.48344
840.7685, 20.13461
841.2506, 20.03678
841.7327, 20.07186
842.2148, 20.09681
842.6970, 20.09733
843.1791, 20.05746
843.6612, 19.97320
844.1433, 19.91504
844.6254, 19.99385
845.1075, 20.17340
845.5897, 20.12224
846.0718, 19.74092
846.5539, 19.64344
847.0360, 20.15091
847.5181, 20.64788
848.0002, 20.53821
848.4824, 19.98507
848.9645, 19.75989
849.4466, 20.07242
849.9287, 20.30973
850.4108, 20.37358
850.8929, 20.37972
851.3751, 20.40738
851.8572, 20.41529
852.3393, 20.29938
852.8214, 20.04645
853.3035, 19.83581
853.7856, 19.80498
854.2678, 19.87580
854.7499, 20.03127
855.2320, 20.19798
855.7141, 20.14410
856.1962, 19.84031
856.6783, 19.50912
857.1605, 19.31088
857.6426, 19.22935
858.1247, 19.24822
858.6068, 19.39159
859.0889, 19.43754
859.5710, 19.34700
860.0532, 19.21659
860.5353, 19.06458
861.0174, 18.92344
861.4995, 18.86257
861.9816, 18.89787
862.4637, 18.89323
862.9459, 18.84194
863.4280, 18.75175
863.9101, 18.56998
864.3922, 18.39216
864.8743, 18.29802
865.3564, 18.29132
865.8386, 18.35739
866.3207, 18.52307
866.8028, 18.66079
867.2849, 18.59733
867.7670, 18.47043
868.2491, 18.54948
868.7313, 18.78544
869.2134, 18.90533
869.6955, 18.79737
870.1776, 18.53892
870.6597, 18.14697
871.1418, 17.69226
871.6239, 17.78264
872.1060, 18.53298
872.5881, 19.01110
873.0703, 18.95321
873.5524, 18.67327
874.0345, 18.35137
874.5166, 18.03097
874.9987, 17.90784
875.4808, 18.19701
875.9630, 18.30683
876.4451, 18.06438
876.9272, 17.83190
877.4093, 17.81179
877.8914, 17.87449
878.3735, 17.82066
878.8557, 17.63058
879.3378, 17.50071
879.8199, 17.62378
880.3020, 17.73954
880.7841, 17.59187
881.2662, 17.33196
881.7484, 17.13923
882.2305, 17.06782
882.7126, 17.21434
883.1947, 17.65530
883.6768, 18.12598
884.1589, 18.17602
884.6411, 17.88307
885.1232, 17.67735
885.6053, 17.57733
886.0874, 17.54749
886.5695, 17.59655
887.0516, 17.62224
887.5338, 17.49069
888.0159, 17.21441
888.4980, 17.02625
888.9801, 16.98040
889.4622, 16.91417
889.9443, 16.79323
890.4265, 16.66520
890.9086, 16.51059
891.3907, 16.38065
891.8728, 16.39131
892.3549, 16.59072
892.8370, 16.73860
893.3192, 16.72310
893.8013, 16.68807
894.2834, 16.77895
894.7655, 16.86380
895.2476, 16.71616
895.7297, 16.35994
896.2119, 16.06543
896.6940, 15.98890
897.1761, 16.03402
897.6582, 16.11213
898.1403, 16.22092
898.6224, 16.39792
899.1046, 16.61668
899.5867, 16.70511
900.0688, 16.58619
900.5509, 16.38243
901.0330, 16.25710
901.5151, 16.19695
901.9973, 16.07916
902.4794, 15.89596
902.9615, 15.68437
903.4436, 15.39391
903.9257, 15.22614
904.4078, 15.40441
904.8900, 15.79957
905.3721, 15.97173
905.8542, 15.75240
906.3363, 15.68194
906.8184, 15.90246
907.3005, 16.09513
907.7827, 16.13895
908.2648, 16.10490
908.7469, 16.06628
909.2290, 16.02967
909.7111, 15.97639
910.1932, 15.85666
910.6754, 15.77868
911.1575, 15.92869
911.6396, 16.05223
912.1217, 15.72028
912.6038, 15.14198
913.0859, 14.96178
913.5681, 15.41136
914.0502, 15.93282
914.5323, 15.97470
915.0144, 15.71124
915.4965, 15.39192
915.9786, 15.06452
916.4608, 14.95564
916.9429, 15.10650
917.4250, 15.29540
917.9071, 15.35195
918.3892, 15.35099
918.8713, 15.50861
919.3535, 15.85212
919.8356, 16.02979
920.3177, 15.99913
920.7998, 15.90786
921.2819, 15.81263
921.7640, 15.68179
922.2462, 15.44565
922.7283, 15.10951
923.2104, 14.90781
923.6925, 14.84365
924.1746, 14.91425
924.6567, 15.31781
925.1389, 15.65042
925.6210, 15.64697
926.1031, 15.44145
926.5852, 15.23161
927.0673, 15.03770
927.5494, 14.97647
928.0316, 15.16784
928.5137, 15.41475
928.9958, 15.64310
929.4779, 15.83361
929.9600, 15.97108
930.4421, 16.05095
930.9243, 16.06965
931.4064, 16.02720
931.8885, 15.91449
932.3706, 15.61031
932.8527, 15.28899
933.3348, 15.33549
933.8170, 15.65243
934.2991, 15.83244
934.7812, 15.76042
935.2633, 15.60427
935.7454, 15.50369
936.2275, 15.45230
936.7097, 15.43317
937.1918, 15.44630
937.6739, 15.50964
938.1560, 15.63886
938.6381, 15.70515
939.1202, 15.62813
939.6024, 15.50210
940.0845, 15.45325
940.5666, 15.48079
941.0487, 15.65121
941.5308, 16.10761
942.0129, 16.39227
942.4951, 16.30087
942.9772, 16.16929
943.4593, 16.28296
943.9414, 16.49662
944.4235, 16.48463
944.9056, 16.15551
945.3878, 15.92984
945.8699, 15.96212
946.3520, 15.97871
946.8341, 15.77112
947.3162, 15.57739
947.7983, 15.74079
948.2805, 16.14691
948.7626, 16.28558
949.2447, 15.87932
949.7268, 15.51690
950.2089, 15.56674
950.6910, 15.80181
951.1732, 16.14789
951.6553, 16.46251
952.1374, 16.44902
952.6195, 16.09183
953.1016, 15.73444
953.5837, 15.59769
954.0659, 15.62420
954.5480, 15.85131
955.0301, 16.14868
955.5122, 16.13590
955.9943, 15.83766
956.4764, 15.55696
956.9586, 15.42447
957.4407, 15.53113
957.9228, 16.09743
958.4049, 16.91973
958.8870, 17.04622
959.3691, 16.46188
959.8513, 16.05924
960.3334, 15.99654
960.8155, 16.02462
961.2976, 15.98372
961.7797, 15.97056
962.2618, 16.21218
962.7440, 16.76538
963.2261, 16.96333
963.7082, 16.60994
964.1903, 16.36540
964.6724, 16.42775
965.1545, 16.58146
965.6367, 16.73082
966.1188, 16.83351
966.6009, 16.71027
967.0830, 16.16525
967.5651, 15.92425
968.0472, 16.27497
968.5294, 16.60532
969.0115, 16.63691
969.4936, 16.61498
969.9757, 16.84615
970.4578, 17.25653
970.9399, 17.45838
971.4221, 17.25734
971.9042, 17.07968
972.3863, 17.13517
972.8684, 17.21811
973.3505, 17.14744
973.8326, 17.02346
974.3148, 16.97728
974.7969, 17.04673
975.2790, 17.27272
975.7611, 17.78955
976.2432, 18.25129
976.7253, 18.28611
977.2075, 18.13585
977.6896, 18.09979
978.1717, 18.17755
978.6538, 18.29239
979.1359, 18.41270
979.6180, 18.51001
980.1002, 18.54955
980.5823, 18.56494
981.0644, 18.58863
981.5465, 18.64035
982.0286, 18.77605
982.5107, 19.00406
982.9929, 19.38360
983.4750, 19.95034
983.9571, 20.40258
984.4392, 20.24879
984.9213, 19.70678
985.4034, 19.89752
985.8856, 20.81457
986.3677, 21.30951
986.8498, 21.15754
987.3319, 20.82919
987.8140, 20.57489
988.2961, 20.40397
988.7783, 20.32606
989.2604, 20.33857
989.7425, 20.57255
990.2246, 21.12262
990.7067, 21.55742
991.1888, 21.76616
991.6710, 21.87663
992.1531, 21.97488
992.6352, 22.03922
993.1173, 21.99497
993.5994, 21.77069
994.0815, 21.73281
994.5637, 22.07336
995.0458, 22.30652
995.5279, 22.18978
996.0100, 22.04593
996.4921, 22.15946
996.9742, 22.43199
997.4564, 22.56367
997.9385, 22.44636
998.4206, 22.46205
998.9027, 22.87268
999.3848, 23.15207
999.8669, 22.91013
1000.349, 22.59667
1000.831, 22.69947
1001.313, 23.12793
1001.795, 23.45186
1002.278, 23.56885
1002.760, 23.58105
1003.242, 23.44409
1003.724, 23.30270
1004.206, 23.24512
1004.688, 23.23965
1005.170, 23.24218
1005.652, 23.24993
1006.134, 23.27939
1006.617, 23.32461
1007.099, 23.43351
1007.581, 23.66178
1008.063, 23.94782
1008.545, 24.37930
1009.027, 24.76091
1009.509, 24.66774
1009.991, 24.11892
1010.474, 23.63136
1010.956, 23.50977
1011.438, 23.55876
1011.920, 23.62618
1012.402, 23.70475
1012.884, 23.78839
1013.366, 23.87213
1013.848, 23.94085
1014.330, 23.99337
1014.813, 24.05904
1015.295, 24.17774
1015.777, 24.26104
1016.259, 24.10170
1016.741, 23.81924
1017.223, 23.80214
1017.705, 23.99197
1018.187, 23.92914
1018.669, 23.48775
1019.152, 23.03897
1019.634, 22.88966
1020.116, 22.99555
1020.598, 23.36325
1021.080, 23.92145
1021.562, 24.26406
1022.044, 24.36392
1022.526, 24.21387
1023.008, 23.80304
1023.491, 23.35884
1023.973, 23.08698
1024.455, 22.99284
1024.937, 23.18123
1025.419, 23.65587
1025.901, 23.79137
1026.383, 23.50272
1026.865, 23.37394
1027.348, 23.67338
1027.830, 23.98753
1028.312, 23.84276
1028.794, 23.38178
1029.276, 23.27060
1029.758, 23.58101
1030.240, 23.78704
1030.722, 23.82467
1031.204, 23.87675
1031.687, 23.99905
1032.169, 24.21303
1032.651, 24.59196
1033.133, 25.06927
1033.615, 25.24814
1034.097, 25.04536
1034.579, 24.78466
1035.061, 24.39876
1035.544, 24.12946
1036.026, 24.06461
1036.508, 24.16717
1036.990, 24.44095
1037.472, 24.85318
1037.954, 25.17476
1038.436, 25.46569
1038.918, 25.52367
1039.401, 25.07854
1039.883, 24.81865
1040.365, 25.10388
1040.847, 25.59043
1041.329, 25.96239
1041.811, 26.21956
1042.293, 26.35006
1042.775, 26.18265
1043.257, 26.18625
1043.740, 26.43781
1044.222, 26.76411
1044.704, 27.30630
1045.186, 27.74495
1045.668, 27.64531
1046.150, 27.12285
1046.632, 26.84066
1047.114, 26.87196
1047.596, 27.06693
1048.079, 27.61257
1048.561, 28.07666
1049.043, 28.25627
1049.525, 28.30927
1050.007, 28.36286
1050.489, 28.42974
1050.971, 28.53715
1051.453, 28.77043
1051.936, 28.84220
1052.418, 28.38058
1052.900, 28.14615
1053.382, 28.70305
1053.864, 29.44634
1054.346, 29.72871
1054.828, 29.65849
1055.310, 29.78452
1055.792, 30.30155
1056.275, 30.69394
1056.757, 30.70136
1057.239, 30.72237
1057.721, 30.98057
1058.203, 31.30032
1058.685, 31.51398
1059.167, 31.63377
1059.649, 31.73800
1060.131, 31.83750
1060.614, 31.94726
1061.096, 32.11517
1061.578, 32.24130
1062.060, 32.12793
1062.542, 32.07624
1063.024, 32.51593
1063.506, 33.23160
1063.988, 33.60830
1064.471, 33.46054
1064.953, 33.37175
1065.435, 33.65068
1065.917, 33.92007
1066.399, 33.87088
1066.881, 33.83329
1067.363, 34.12221
1067.845, 34.67150
1068.328, 35.37158
1068.810, 36.21245
1069.292, 36.70061
1069.774, 36.24706
1070.256, 35.90083
1070.738, 36.24058
1071.220, 36.85712
1071.702, 37.53936
1072.184, 38.15768
1072.667, 38.46002
1073.149, 38.41936
1073.631, 38.54008
1074.113, 39.20475
1074.595, 39.85647
1075.077, 40.10750
1075.559, 40.34711
1076.041, 40.93158
1076.523, 41.72534
1077.006, 42.54837
1077.488, 43.32701
1077.970, 43.81189
1078.452, 43.64467
1078.934, 43.60684
1079.416, 44.17335
1079.898, 44.91168
1080.380, 45.60235
1080.863, 46.17461
1081.345, 46.46159
1081.827, 46.53199
1082.309, 46.83259
1082.791, 47.55004
1083.273, 48.45271
1083.755, 49.78402
1084.237, 50.88769
1084.719, 51.11361
1085.202, 50.96008
1085.684, 50.87072
1086.166, 51.02379
1086.648, 51.81866
1087.130, 53.63173
1087.612, 55.05850
1088.094, 55.26075
1088.576, 55.15206
1089.058, 54.96733
1089.541, 55.00175
1090.023, 55.76451
1090.505, 56.96549
1090.987, 57.74250
1091.469, 57.83294
1091.951, 57.91348
1092.433, 58.09079
1092.915, 58.52500
1093.397, 59.52201
1093.880, 60.61150
1094.362, 61.37972
1094.844, 61.91132
1095.326, 62.48892
1095.808, 63.16782
1096.290, 63.63716
1096.772, 63.57637
1097.254, 63.58399
1097.737, 64.07050
1098.219, 64.52425
1098.701, 64.38302
1099.183, 64.04710
1099.665, 64.22884
1100.147, 64.95264
1100.629, 65.51308
1101.111, 65.69853
1101.594, 65.73160
1102.076, 65.46394
1102.558, 65.29666
1103.040, 65.67606
1103.522, 66.13145
1104.004, 66.03551
1104.486, 65.45902
1104.968, 64.98762
1105.450, 64.78556
1105.932, 64.53291
1106.415, 64.11118
1106.897, 63.69532
1107.379, 63.38906
1107.861, 63.08978
1108.343, 62.61230
1108.825, 62.07876
1109.307, 61.92499
1109.789, 62.39696
1110.272, 62.31047
1110.754, 60.97823
1111.236, 59.84046
1111.718, 59.42067
1112.200, 59.13053
1112.682, 58.63339
1113.164, 57.98563
1113.646, 57.28022
1114.129, 56.51392
1114.611, 55.81382
1115.093, 55.34613
1115.575, 54.69715
1116.057, 53.43718
1116.539, 52.49116
1117.021, 52.58790
1117.503, 52.94893
1117.985, 52.61552
1118.468, 51.66956
1118.950, 50.82949
1119.432, 50.07513
1119.914, 49.47520
1120.396, 49.19590
1120.878, 48.76414
1121.360, 47.92973
1121.842, 47.03407
1122.324, 46.36145
1122.807, 45.86432
1123.289, 45.40322
1123.771, 44.99629
1124.253, 44.54517
1124.735, 44.07393
1125.217, 43.46727
1125.699, 42.60701
1126.181, 41.85287
1126.664, 41.42830
1127.146, 41.25319
1127.628, 41.28124
1128.110, 41.47107
1128.592, 40.88624
1129.074, 39.34219
1129.556, 38.11417
1130.038, 37.33765
1130.521, 36.98841
1131.003, 37.16459
1131.485, 37.26196
1131.967, 36.56872
1132.449, 35.34158
1132.931, 34.39290
1133.413, 33.72669
1133.895, 33.53698
1134.377, 33.84116
1134.859, 33.85037
1135.342, 33.33441
1135.824, 32.74494
1136.306, 32.40602
1136.788, 32.20141
1137.270, 31.99048
1137.752, 31.73005
1138.234, 31.12120
1138.716, 30.24032
1139.199, 29.53312
1139.681, 29.07680
1140.163, 28.87710
1140.645, 28.93118
1141.127, 28.97523
1141.609, 28.72741
1142.091, 28.27491
1142.573, 27.65420
1143.056, 27.01604
1143.538, 26.84248
1144.020, 27.00563
1144.502, 26.89128
1144.984, 26.36814
1145.466, 25.85339
1145.948, 25.62723
1146.430, 25.53481
1146.912, 25.48417
1147.395, 25.39916
1147.877, 25.19828
1148.359, 24.87203
1148.841, 24.30531
1149.323, 23.60575
1149.805, 23.15807
1150.287, 23.12106
1150.769, 23.15644
1151.251, 23.10942
1151.734, 22.95451
1152.216, 22.59475
1152.698, 22.18176
1153.180, 21.78822
1153.662, 21.50185
1154.144, 21.58103
1154.626, 21.98619
1155.108, 22.03127
1155.591, 21.20895
1156.073, 20.47666
1156.555, 20.22512
1157.037, 20.15196
1157.519, 20.24133
1158.001, 20.29155
1158.483, 20.03778
1158.965, 19.56500
1159.448, 19.19076
1159.930, 18.97014
1160.412, 18.79506
1160.894, 18.72464
1161.376, 18.59269
1161.858, 18.33390
1162.340, 18.02932
1162.822, 17.60144
1163.304, 17.23734
1163.786, 17.27979
1164.269, 17.70952
1164.751, 17.91633
1165.233, 17.92164
1165.715, 17.60908
1166.197, 16.72369
1166.679, 16.13632
1167.161, 16.28695
1167.643, 16.52058
1168.126, 16.20947
1168.608, 15.63974
1169.090, 15.61668
1169.572, 16.18141
1170.054, 16.28371
1170.536, 15.87657
1171.018, 15.51575
1171.500, 15.30071
1171.983, 15.10028
1172.465, 14.84134
1172.947, 14.63915
1173.429, 14.65985
1173.911, 14.80419
1174.393, 14.79739
1174.875, 14.65154
1175.357, 14.33158
1175.839, 13.90811
1176.322, 13.83914
1176.804, 14.19560
1177.286, 14.43347
1177.768, 14.18315
1178.250, 13.82624
1178.732, 13.85312
1179.214, 14.06400
1179.696, 14.22071
1180.178, 14.27681
1180.661, 14.10045
1181.143, 13.75689
1181.625, 13.43335
1182.107, 13.19965
1182.589, 13.09248
1183.071, 13.20743
1183.553, 13.32051
1184.035, 13.24413
1184.518, 13.12309
1185.000, 13.04543
1185.482, 13.02901
1185.964, 13.13745
1186.446, 13.31960
1186.928, 13.39361
1187.410, 13.30863
1187.892, 13.16232
1188.375, 12.89958
1188.857, 12.69300
1189.339, 12.64326
1189.821, 12.62238
1190.303, 12.50225
1190.785, 12.38175
1191.267, 12.44648
1191.749, 12.67907
1192.231, 12.84009
1192.714, 12.94644
1193.196, 12.93415
1193.678, 12.73948
1194.160, 12.56764
1194.642, 12.47140
1195.124, 12.42464
1195.606, 12.40235
1196.088, 12.43255
1196.570, 12.60456
1197.053, 12.89502
1197.535, 12.89313
1198.017, 12.59040
1198.499, 12.38374
1198.981, 12.32081
1199.463, 12.36905
1199.945, 12.51756
1200.427, 12.62967
1200.910, 12.57739
1201.392, 12.44986
1201.874, 12.43300
1202.356, 12.45320
1202.838, 12.30092
1203.320, 12.02719
1203.802, 11.70644
1204.284, 11.42138
1204.766, 11.47305
1205.249, 11.95798
1205.731, 12.34315
1206.213, 12.16443
1206.695, 11.81767
1207.177, 11.55614
1207.659, 11.38540
1208.141, 11.29959
1208.623, 11.31527
1209.105, 11.54801
1209.588, 11.91434
1210.070, 12.05763
1210.552, 11.83874
1211.034, 11.61914
1211.516, 11.40170
1211.998, 11.34123
1212.480, 11.71867
1212.962, 12.02406
1213.445, 11.81676
1213.927, 11.40390
1214.409, 11.24427
1214.891, 11.30726
1215.373, 11.32175
1215.855, 11.25725
1216.337, 11.23047
1216.819, 11.24594
1217.302, 11.28822
1217.784, 11.35652
1218.266, 11.44995
1218.748, 11.58512
1219.230, 11.67566
1219.712, 11.55817
1220.194, 11.30261
1220.676, 11.25911
1221.158, 11.38843
1221.641, 11.36669
1222.123, 11.19992
1222.605, 11.13413
1223.087, 11.22764
1223.569, 11.32642
1224.051, 11.33471
1224.533, 11.28111
1225.015, 11.11569
1225.497, 10.98178
1225.979, 11.22349
1226.462, 11.52186
1226.944, 11.24810
1227.426, 10.65891
1227.908, 10.51144
1228.390, 10.89989
1228.872, 11.13284
1229.354, 10.80329
1229.836, 10.60120
1230.319, 10.93464
1230.801, 11.30165
1231.283, 11.52261
1231.765, 11.59998
1232.247, 11.46695
1232.729, 11.22534
1233.211, 11.07447
1233.693, 11.01718
1234.176, 11.02596
1234.658, 11.09509
1235.140, 11.26726
1235.622, 11.63037
1236.104, 11.84048
1236.586, 11.77256
1237.068, 11.56839
1237.550, 11.31839
1238.032, 11.05450
1238.515, 10.81726
1238.997, 10.62464
1239.479, 10.63801
1239.961, 10.80619
1240.443, 10.74641
1240.925, 10.50094
1241.407, 10.57971
1241.889, 11.09357
1242.371, 11.57984
1242.854, 11.74935
1243.336, 11.69572
1243.818, 11.36593
1244.300, 11.01203
1244.782, 10.93549
1245.264, 10.98469
1245.746, 10.98889
1246.228, 10.93730
1246.711, 10.83916
1247.193, 10.70804
1247.675, 10.62843
1248.157, 10.62662
1248.639, 10.67420
1249.121, 10.82193
1249.603, 10.94150
1250.085, 11.01096
1250.568, 11.00595
1251.050, 10.86894
1251.532, 10.67842
1252.014, 10.52824
1252.496, 10.43690
1252.978, 10.69166
1253.460, 11.39367
1253.942, 11.67572
1254.424, 11.45765
1254.906, 11.31563
1255.389, 11.40727
1255.871, 11.36888
1256.353, 10.96022
1256.835, 10.52885
1257.317, 10.56243
1257.799, 10.83305
1258.281, 10.87335
1258.763, 10.81713
1259.246, 10.98563
1259.728, 11.27291
1260.210, 11.35015
1260.692, 11.20342
1261.174, 11.09652
1261.656, 11.14604
1262.138, 11.13615
1262.620, 10.83809
1263.103, 10.61005
1263.585, 10.64296
1264.067, 10.78341
1264.549, 11.03185
1265.031, 11.24882
1265.513, 11.20782
1265.995, 10.98021
1266.477, 10.90590
1266.959, 11.06184
1267.442, 10.95762
1267.924, 10.44209
1268.406, 10.26427
1268.888, 10.60634
1269.370, 10.96291
1269.852, 11.12856
1270.334, 11.08117
1270.816, 10.76104
1271.298, 10.36244
1271.781, 10.32912
1272.263, 10.51223
1272.745, 10.45118
1273.227, 10.26005
1273.709, 10.27664
##END=



