##NAMES=Analcime
##RRUFFID=R050094
##IDEAL CHEMISTRY=NaAlSi_2_O_6_&#183;H_2_O
##LOCALITY=Springfield, Oregon, USA
##OWNER=RRUFF
##SOURCE=Rock Currier
##DESCRIPTION=Clear colorless single crystals associated with gmelinite
##STATUS=The identification of this mineral has been confirmed by X-ray diffraction and chemical analysis
##URL=rruff.info/R050094
##MEASURED CHEMISTRY=(Na_0.99_[box]_0.01_)_Σ=1_(Si_2.01_Al_0.99_)O_6_·H_2_O
130.6121, 3334.812
131.0942, 3332.332
131.5764, 3330.048
132.0585, 3330.138
132.5406, 3331.996
133.0227, 3333.531
133.5048, 3333.933
133.9869, 3334.879
134.4691, 3334.692
134.9512, 3335.299
135.4333, 3341.385
135.9154, 3357.491
136.3975, 3382.144
136.8796, 3390.170
137.3618, 3372.071
137.8439, 3349.886
138.3260, 3332.308
138.8081, 3319.901
139.2902, 3311.684
139.7723, 3309.429
140.2545, 3312.537
140.7366, 3306.236
141.2187, 3285.442
141.7008, 3256.801
142.1829, 3224.734
142.6650, 3188.164
143.1471, 3155.461
143.6293, 3138.218
144.1114, 3133.284
144.5935, 3127.731
145.0756, 3116.885
145.5577, 3101.424
146.0398, 3083.676
146.5220, 3064.869
147.0041, 3042.032
147.4862, 3010.558
147.9683, 2971.125
148.4504, 2934.297
148.9325, 2914.039
149.4147, 2912.957
149.8968, 2899.444
150.3789, 2854.710
150.8610, 2803.298
151.3431, 2756.387
151.8252, 2716.714
152.3074, 2682.467
152.7895, 2650.656
153.2716, 2618.810
153.7537, 2595.526
154.2358, 2586.365
154.7179, 2581.947
155.2001, 2574.733
155.6822, 2561.461
156.1643, 2543.322
156.6464, 2523.979
157.1285, 2502.281
157.6106, 2480.247
158.0928, 2455.888
158.5749, 2431.724
159.0570, 2411.901
159.5391, 2399.399
160.0212, 2393.063
160.5033, 2380.353
160.9855, 2355.619
161.4676, 2331.266
161.9497, 2308.125
162.4318, 2287.955
162.9139, 2274.912
163.3960, 2273.156
163.8782, 2283.328
164.3603, 2291.022
164.8424, 2301.589
165.3245, 2306.166
165.8066, 2297.477
166.2887, 2275.332
166.7709, 2246.342
167.2530, 2212.147
167.7351, 2173.341
168.2172, 2148.940
168.6993, 2153.829
169.1814, 2169.206
169.6636, 2171.646
170.1457, 2156.482
170.6278, 2133.995
171.1099, 2110.694
171.5920, 2087.058
172.0741, 2069.909
172.5563, 2066.043
173.0384, 2071.072
173.5205, 2072.551
174.0026, 2068.196
174.4847, 2059.914
174.9668, 2048.568
175.4490, 2034.461
175.9311, 2021.785
176.4132, 2012.844
176.8953, 2007.597
177.3774, 2006.259
177.8595, 2012.232
178.3417, 2019.735
178.8238, 2025.582
179.3059, 2029.393
179.7880, 2031.661
180.2701, 2034.031
180.7522, 2038.075
181.2344, 2035.327
181.7165, 2014.251
182.1986, 1992.696
182.6807, 1982.763
183.1628, 1987.585
183.6449, 1999.854
184.1271, 2006.567
184.6092, 2001.173
185.0913, 2003.663
185.5734, 2021.771
186.0555, 2044.247
186.5376, 2062.297
187.0198, 2072.338
187.5019, 2075.620
187.9840, 2075.215
188.4661, 2064.833
188.9482, 2058.719
189.4303, 2064.550
189.9125, 2073.134
190.3946, 2072.611
190.8767, 2056.511
191.3588, 2028.896
191.8409, 2008.449
192.3230, 1993.732
192.8052, 1987.779
193.2873, 1998.427
193.7694, 2017.976
194.2515, 2032.790
194.7336, 2034.050
195.2157, 2023.685
195.6979, 2021.029
196.1800, 2035.371
196.6621, 2046.121
197.1442, 2041.444
197.6263, 2025.857
198.1084, 2014.663
198.5906, 2020.500
199.0727, 2040.964
199.5548, 2045.487
200.0369, 2020.860
200.5190, 1993.270
201.0011, 1977.723
201.4833, 1974.010
201.9654, 1973.540
202.4475, 1970.425
202.9296, 1964.979
203.4117, 1960.815
203.8938, 1962.574
204.3760, 1962.847
204.8581, 1953.320
205.3402, 1933.086
205.8223, 1911.674
206.3044, 1896.274
206.7865, 1885.844
207.2687, 1877.077
207.7508, 1871.121
208.2329, 1865.859
208.7150, 1857.692
209.1971, 1845.498
209.6792, 1834.010
210.1614, 1828.070
210.6435, 1825.831
211.1256, 1823.427
211.6077, 1819.786
212.0898, 1814.981
212.5719, 1810.291
213.0541, 1808.440
213.5362, 1800.735
214.0183, 1776.045
214.5004, 1740.781
214.9825, 1710.943
215.4646, 1696.269
215.9468, 1694.328
216.4289, 1696.277
216.9110, 1706.111
217.3931, 1713.750
217.8752, 1710.998
218.3573, 1701.240
218.8395, 1694.218
219.3216, 1700.733
219.8037, 1719.030
220.2858, 1726.298
220.7679, 1715.472
221.2500, 1699.845
221.7322, 1681.831
222.2143, 1663.667
222.6964, 1650.640
223.1785, 1650.790
223.6606, 1665.149
224.1427, 1669.266
224.6249, 1651.178
225.1070, 1632.641
225.5891, 1622.632
226.0712, 1620.084
226.5533, 1618.784
227.0354, 1614.271
227.5176, 1607.141
227.9997, 1592.509
228.4818, 1553.341
228.9639, 1520.904
229.4460, 1514.229
229.9281, 1529.202
230.4103, 1545.497
230.8924, 1539.352
231.3745, 1501.705
231.8566, 1482.919
232.3387, 1497.000
232.8208, 1516.478
233.3030, 1534.257
233.7851, 1546.891
234.2672, 1549.756
234.7493, 1535.612
235.2314, 1496.748
235.7135, 1469.034
236.1957, 1454.291
236.6778, 1446.877
237.1599, 1449.480
237.6420, 1459.121
238.1241, 1465.470
238.6062, 1455.357
239.0884, 1420.889
239.5705, 1395.757
240.0526, 1381.451
240.5347, 1373.412
241.0168, 1372.490
241.4989, 1376.913
241.9811, 1380.395
242.4632, 1375.396
242.9453, 1358.699
243.4274, 1342.500
243.9095, 1322.351
244.3916, 1305.844
244.8738, 1300.379
245.3559, 1305.646
245.8380, 1312.774
246.3201, 1311.208
246.8022, 1297.081
247.2843, 1286.030
247.7665, 1276.624
248.2486, 1270.838
248.7307, 1273.315
249.2128, 1283.282
249.6949, 1291.730
250.1770, 1287.131
250.6592, 1262.436
251.1413, 1250.093
251.6234, 1260.695
252.1055, 1275.722
252.5876, 1283.325
253.0697, 1281.340
253.5519, 1271.184
254.0340, 1252.342
254.5161, 1220.053
254.9982, 1201.045
255.4803, 1203.425
255.9624, 1213.413
256.4445, 1223.459
256.9267, 1231.712
257.4088, 1234.853
257.8909, 1228.596
258.3730, 1210.345
258.8551, 1193.745
259.3372, 1171.728
259.8194, 1155.935
260.3015, 1159.776
260.7836, 1183.762
261.2657, 1212.087
261.7478, 1230.340
262.2299, 1236.776
262.7121, 1239.196
263.1942, 1237.081
263.6763, 1231.361
264.1584, 1220.533
264.6405, 1204.937
265.1227, 1190.838
265.6048, 1184.338
266.0869, 1186.218
266.5690, 1187.936
267.0511, 1188.658
267.5332, 1189.615
268.0154, 1193.201
268.4975, 1199.285
268.9796, 1203.040
269.4617, 1199.928
269.9438, 1189.681
270.4259, 1179.950
270.9081, 1168.743
271.3902, 1159.615
271.8723, 1156.640
272.3544, 1159.671
272.8365, 1163.368
273.3186, 1163.998
273.8008, 1161.530
274.2829, 1158.599
274.7650, 1154.094
275.2471, 1149.993
275.7292, 1146.201
276.2113, 1143.149
276.6935, 1145.486
277.1756, 1159.470
277.6577, 1182.276
278.1398, 1194.706
278.6219, 1189.705
279.1040, 1180.079
279.5862, 1173.292
280.0683, 1169.361
280.5504, 1167.163
281.0325, 1165.544
281.5146, 1165.543
281.9967, 1169.710
282.4789, 1183.150
282.9610, 1196.039
283.4431, 1200.124
283.9252, 1197.111
284.4073, 1196.444
284.8894, 1202.455
285.3716, 1215.088
285.8537, 1232.325
286.3358, 1257.860
286.8179, 1283.092
287.3000, 1301.795
287.7821, 1315.672
288.2643, 1331.081
288.7464, 1350.914
289.2285, 1374.533
289.7106, 1399.865
290.1927, 1427.560
290.6748, 1455.491
291.1570, 1481.491
291.6391, 1506.767
292.1212, 1535.164
292.6033, 1568.995
293.0854, 1605.727
293.5675, 1639.510
294.0497, 1668.501
294.5318, 1700.454
295.0139, 1740.840
295.4960, 1786.486
295.9781, 1831.924
296.4602, 1877.518
296.9424, 1917.676
297.4245, 1939.545
297.9066, 1941.421
298.3887, 1941.235
298.8708, 1949.644
299.3529, 1958.709
299.8351, 1953.995
300.3172, 1930.884
300.7993, 1896.134
301.2814, 1856.816
301.7635, 1813.255
302.2456, 1767.340
302.7278, 1713.604
303.2099, 1660.052
303.6920, 1620.165
304.1741, 1597.521
304.6562, 1579.630
305.1383, 1551.343
305.6205, 1512.015
306.1026, 1476.571
306.5847, 1450.433
307.0668, 1427.236
307.5489, 1398.174
308.0310, 1362.086
308.5132, 1329.868
308.9953, 1313.203
309.4774, 1312.971
309.9595, 1309.163
310.4416, 1297.418
310.9237, 1284.402
311.4059, 1275.455
311.8880, 1270.703
312.3701, 1266.730
312.8522, 1260.028
313.3343, 1251.424
313.8164, 1249.541
314.2986, 1263.943
314.7807, 1276.294
315.2628, 1272.421
315.7449, 1255.807
316.2270, 1242.688
316.7091, 1244.599
317.1913, 1257.873
317.6734, 1260.727
318.1555, 1243.511
318.6376, 1227.936
319.1197, 1226.636
319.6018, 1233.324
320.0840, 1231.409
320.5661, 1211.052
321.0482, 1179.997
321.5303, 1164.804
322.0124, 1169.266
322.4945, 1181.030
322.9767, 1203.172
323.4588, 1229.771
323.9409, 1253.293
324.4230, 1271.245
324.9051, 1282.417
325.3872, 1283.709
325.8694, 1268.358
326.3515, 1254.958
326.8336, 1241.678
327.3157, 1232.506
327.7978, 1234.199
328.2799, 1247.959
328.7621, 1264.661
329.2442, 1271.357
329.7263, 1261.232
330.2084, 1257.836
330.6905, 1265.500
331.1726, 1276.414
331.6548, 1285.609
332.1369, 1292.269
332.6190, 1297.997
333.1011, 1304.863
333.5832, 1314.010
334.0653, 1317.125
334.5475, 1306.005
335.0296, 1297.489
335.5117, 1303.838
335.9938, 1320.917
336.4759, 1334.109
336.9580, 1330.891
337.4402, 1311.685
337.9223, 1304.474
338.4044, 1318.706
338.8865, 1334.196
339.3686, 1347.562
339.8507, 1358.438
340.3329, 1366.819
340.8150, 1372.672
341.2971, 1376.369
341.7792, 1379.555
342.2613, 1382.408
342.7434, 1384.422
343.2256, 1385.003
343.7077, 1384.966
344.1898, 1384.575
344.6719, 1383.984
345.1540, 1384.468
345.6361, 1389.289
346.1183, 1402.959
346.6004, 1412.062
347.0825, 1410.522
347.5646, 1408.308
348.0467, 1414.479
348.5288, 1429.972
349.0110, 1446.589
349.4931, 1452.188
349.9752, 1442.214
350.4573, 1439.498
350.9394, 1449.770
351.4215, 1463.169
351.9037, 1478.404
352.3858, 1493.552
352.8679, 1504.005
353.3500, 1502.844
353.8321, 1490.656
354.3142, 1488.048
354.7964, 1503.675
355.2785, 1518.817
355.7606, 1522.879
356.2427, 1521.195
356.7248, 1525.154
357.2069, 1543.866
357.6891, 1570.893
358.1712, 1587.879
358.6533, 1592.969
359.1354, 1591.887
359.6175, 1579.765
360.0996, 1565.770
360.5818, 1561.605
361.0639, 1573.073
361.5460, 1590.339
362.0281, 1598.218
362.5102, 1594.946
362.9923, 1598.849
363.4745, 1622.726
363.9566, 1652.113
364.4387, 1672.355
364.9208, 1681.204
365.4029, 1687.253
365.8850, 1695.644
366.3672, 1706.344
366.8493, 1719.281
367.3314, 1734.064
367.8135, 1751.801
368.2956, 1776.661
368.7777, 1807.859
369.2599, 1832.425
369.7420, 1839.194
370.2241, 1837.438
370.7062, 1842.270
371.1883, 1855.528
371.6704, 1874.489
372.1526, 1900.219
372.6347, 1931.075
373.1168, 1957.237
373.5989, 1978.879
374.0810, 1994.449
374.5631, 1997.320
375.0453, 1989.769
375.5274, 1989.813
376.0095, 2010.298
376.4916, 2046.185
376.9737, 2074.571
377.4558, 2086.377
377.9380, 2102.060
378.4201, 2135.757
378.9022, 2177.921
379.3843, 2208.445
379.8664, 2218.535
380.3485, 2217.616
380.8307, 2224.844
381.3128, 2244.540
381.7949, 2264.610
382.2770, 2284.130
382.7591, 2303.857
383.2412, 2325.931
383.7234, 2350.168
384.2055, 2371.754
384.6876, 2384.295
385.1697, 2384.725
385.6518, 2389.249
386.1339, 2400.011
386.6161, 2412.109
387.0982, 2425.607
387.5803, 2438.668
388.0624, 2446.627
388.5445, 2445.141
389.0266, 2435.659
389.5088, 2434.081
389.9909, 2455.015
390.4730, 2467.092
390.9551, 2457.882
391.4372, 2439.245
391.9193, 2426.882
392.4015, 2427.757
392.8836, 2434.899
393.3657, 2434.409
393.8478, 2424.927
394.3299, 2410.719
394.8120, 2390.923
395.2942, 2367.983
395.7763, 2344.201
396.2584, 2319.557
396.7405, 2291.079
397.2226, 2253.648
397.7047, 2207.329
398.1869, 2163.403
398.6690, 2118.495
399.1511, 2081.740
399.6332, 2061.617
400.1153, 2053.603
400.5974, 2044.570
401.0796, 2027.855
401.5617, 2005.431
402.0438, 1982.006
402.5259, 1958.334
403.0080, 1930.624
403.4901, 1891.253
403.9723, 1847.999
404.4544, 1813.041
404.9365, 1789.514
405.4186, 1772.796
405.9007, 1764.544
406.3828, 1762.095
406.8650, 1749.629
407.3471, 1718.704
407.8292, 1678.868
408.3113, 1644.008
408.7934, 1613.269
409.2755, 1589.544
409.7577, 1579.873
410.2398, 1575.559
410.7219, 1565.169
411.2040, 1546.665
411.6861, 1523.054
412.1682, 1494.741
412.6504, 1460.343
413.1325, 1440.685
413.6146, 1450.741
414.0967, 1461.187
414.5788, 1454.591
415.0609, 1434.108
415.5431, 1411.754
416.0252, 1394.616
416.5073, 1381.825
416.9894, 1368.979
417.4715, 1357.635
417.9536, 1344.220
418.4358, 1322.932
418.9179, 1301.953
419.4000, 1291.117
419.8821, 1293.008
420.3642, 1300.720
420.8463, 1304.151
421.3285, 1302.430
421.8106, 1298.633
422.2927, 1291.194
422.7748, 1283.193
423.2569, 1277.098
423.7390, 1272.023
424.2212, 1264.292
424.7033, 1248.815
425.1854, 1228.103
425.6675, 1219.084
426.1496, 1231.325
426.6317, 1239.037
427.1139, 1223.870
427.5960, 1201.936
428.0781, 1195.607
428.5602, 1215.949
429.0423, 1244.561
429.5244, 1259.478
430.0066, 1260.517
430.4887, 1255.945
430.9708, 1243.424
431.4529, 1230.548
431.9350, 1225.267
432.4171, 1227.761
432.8993, 1234.038
433.3814, 1246.393
433.8635, 1260.228
434.3456, 1266.325
434.8277, 1262.868
435.3098, 1256.524
435.7920, 1251.501
436.2741, 1248.188
436.7562, 1248.619
437.2383, 1256.476
437.7204, 1264.764
438.2025, 1268.548
438.6847, 1269.286
439.1668, 1271.410
439.6489, 1277.060
440.1310, 1285.534
440.6131, 1295.016
441.0952, 1308.086
441.5774, 1318.580
442.0595, 1324.833
442.5416, 1329.250
443.0237, 1331.567
443.5058, 1332.986
443.9879, 1339.263
444.4701, 1358.789
444.9522, 1394.987
445.4343, 1419.398
445.9164, 1414.296
446.3985, 1415.164
446.8806, 1440.931
447.3628, 1479.875
447.8449, 1508.956
448.3270, 1514.461
448.8091, 1505.940
449.2912, 1507.098
449.7733, 1520.521
450.2555, 1536.511
450.7375, 1555.431
451.2197, 1574.176
451.7018, 1588.245
452.1839, 1596.967
452.6660, 1610.170
453.1481, 1635.415
453.6302, 1671.842
454.1124, 1717.393
454.5945, 1777.349
455.0766, 1835.116
455.5587, 1870.123
456.0408, 1890.573
456.5229, 1920.473
457.0051, 1971.396
457.4872, 2029.574
457.9693, 2083.043
458.4514, 2132.896
458.9335, 2183.567
459.4156, 2235.010
459.8978, 2291.254
460.3799, 2365.211
460.8620, 2466.316
461.3441, 2563.707
461.8262, 2648.847
462.3083, 2729.483
462.7905, 2811.082
463.2726, 2895.700
463.7547, 2985.405
464.2368, 3082.384
464.7189, 3185.995
465.2010, 3301.520
465.6832, 3427.734
466.1653, 3565.249
466.6474, 3717.428
467.1295, 3879.986
467.6116, 4047.544
468.0938, 4215.360
468.5759, 4389.700
469.0580, 4584.880
469.5401, 4809.494
470.0222, 5032.255
470.5043, 5236.647
470.9865, 5444.737
471.4686, 5674.062
471.9507, 5923.899
472.4328, 6180.128
472.9149, 6425.133
473.3970, 6666.385
473.8792, 6934.478
474.3613, 7237.808
474.8434, 7546.197
475.3255, 7844.104
475.8076, 8133.274
476.2897, 8420.829
476.7719, 8713.783
477.2540, 8997.622
477.7361, 9260.975
478.2182, 9507.015
478.7003, 9747.472
479.1824, 9986.937
479.6646, 10216.92
480.1467, 10424.58
480.6288, 10616.08
481.1109, 10762.88
481.5930, 10864.85
482.0751, 10919.83
482.5573, 10919.01
483.0394, 10867.89
483.5215, 10785.49
484.0036, 10685.41
484.4857, 10565.95
484.9678, 10416.53
485.4500, 10242.39
485.9321, 10026.49
486.4142, 9747.175
486.8963, 9438.482
487.3784, 9131.484
487.8605, 8835.441
488.3427, 8537.964
488.8248, 8220.854
489.3069, 7883.089
489.7890, 7550.953
490.2711, 7221.342
490.7532, 6903.297
491.2354, 6596.358
491.7175, 6301.835
492.1996, 6017.357
492.6817, 5743.254
493.1638, 5479.828
493.6459, 5223.635
494.1281, 4974.971
494.6102, 4745.395
495.0923, 4541.374
495.5744, 4356.125
496.0565, 4179.048
496.5386, 4008.721
497.0208, 3846.001
497.5029, 3693.249
497.9850, 3546.757
498.4671, 3399.276
498.9492, 3252.345
499.4313, 3118.215
499.9135, 3008.766
500.3956, 2922.405
500.8777, 2832.148
501.3598, 2727.452
501.8419, 2632.112
502.3240, 2556.828
502.8062, 2490.196
503.2883, 2418.042
503.7704, 2336.680
504.2525, 2254.245
504.7346, 2179.219
505.2167, 2111.843
505.6989, 2053.428
506.1810, 2012.587
506.6631, 1971.141
507.1452, 1917.188
507.6273, 1856.354
508.1094, 1801.282
508.5916, 1758.568
509.0737, 1722.564
509.5558, 1686.202
510.0379, 1649.696
510.5200, 1615.907
511.0021, 1587.461
511.4843, 1560.293
511.9664, 1526.842
512.4485, 1485.762
512.9306, 1448.982
513.4127, 1419.542
513.8948, 1395.916
514.3770, 1381.454
514.8591, 1373.679
515.3412, 1358.340
515.8233, 1323.837
516.3054, 1274.191
516.7875, 1236.194
517.2697, 1216.568
517.7518, 1200.646
518.2339, 1189.940
518.7160, 1180.623
519.1981, 1167.910
519.6802, 1151.395
520.1624, 1136.318
520.6445, 1130.740
521.1266, 1135.120
521.6087, 1129.764
522.0908, 1109.348
522.5729, 1086.833
523.0551, 1066.686
523.5372, 1048.729
524.0193, 1032.620
524.5014, 1017.712
524.9835, 1005.714
525.4656, 1001.666
525.9478, 1003.241
526.4299, 996.1830
526.9120, 973.6991
527.3941, 949.8436
527.8762, 944.3817
528.3583, 958.3980
528.8405, 961.9719
529.3226, 943.5212
529.8047, 921.5995
530.2868, 906.0966
530.7689, 897.1661
531.2510, 893.7584
531.7332, 895.7138
532.2153, 900.4623
532.6974, 901.9897
533.1795, 901.5370
533.6616, 895.1201
534.1437, 876.9518
534.6259, 858.4332
535.1080, 847.6807
535.5901, 843.4840
536.0722, 838.9833
536.5543, 828.4786
537.0364, 814.5575
537.5186, 805.9545
538.0007, 804.0281
538.4828, 802.1062
538.9649, 796.3572
539.4470, 790.2521
539.9291, 788.2990
540.4113, 791.3856
540.8934, 794.3022
541.3755, 798.4093
541.8576, 799.2297
542.3397, 786.0979
542.8218, 758.4199
543.3040, 732.7197
543.7861, 722.0420
544.2682, 724.2779
544.7503, 721.4954
545.2324, 705.0640
545.7145, 695.0403
546.1967, 700.5910
546.6788, 711.7896
547.1609, 718.4426
547.6430, 718.1176
548.1251, 714.1860
548.6072, 709.5672
549.0894, 704.1580
549.5715, 701.7736
550.0536, 707.9800
550.5357, 708.9789
551.0178, 695.6747
551.4999, 676.2714
551.9821, 661.8212
552.4642, 655.8521
552.9463, 653.9043
553.4284, 654.1835
553.9105, 655.4635
554.3926, 650.7839
554.8748, 636.4629
555.3569, 625.3260
555.8390, 632.5930
556.3211, 657.8152
556.8032, 671.5479
557.2853, 665.0314
557.7675, 655.6008
558.2496, 651.7634
558.7317, 650.4306
559.2138, 645.2460
559.6959, 634.0573
560.1780, 620.9028
560.6602, 611.5067
561.1423, 605.6524
561.6244, 604.4459
562.1065, 613.7012
562.5886, 622.0171
563.0707, 626.6384
563.5529, 627.3110
564.0350, 623.0615
564.5171, 611.8624
564.9992, 600.3813
565.4813, 599.4024
565.9634, 608.1184
566.4456, 613.2443
566.9277, 611.1743
567.4098, 605.8741
567.8919, 601.6064
568.3740, 598.1603
568.8561, 592.3591
569.3383, 577.8781
569.8204, 566.2597
570.3025, 568.0859
570.7846, 578.5826
571.2667, 585.7383
571.7488, 584.5150
572.2310, 579.0906
572.7131, 576.6780
573.1952, 577.5966
573.6773, 580.7790
574.1594, 592.2387
574.6415, 599.9130
575.1237, 594.4250
575.6058, 581.5103
576.0879, 573.9063
576.5700, 578.9020
577.0521, 589.0494
577.5342, 592.7215
578.0164, 589.8679
578.4985, 587.3875
578.9806, 587.3936
579.4627, 587.4905
579.9448, 583.5645
580.4269, 576.3166
580.9091, 573.4827
581.3912, 582.0313
581.8733, 590.4620
582.3554, 588.7119
582.8375, 580.4875
583.3196, 575.9510
583.8018, 579.4213
584.2839, 586.9170
584.7660, 591.7340
585.2481, 593.4835
585.7302, 593.5172
586.2123, 591.9056
586.6945, 588.6166
587.1766, 580.5986
587.6587, 571.2903
588.1408, 567.9114
588.6229, 575.0349
589.1050, 585.3234
589.5872, 586.0291
590.0693, 577.7479
590.5514, 578.1655
591.0335, 595.6495
591.5156, 614.1547
591.9977, 614.4271
592.4799, 599.3655
592.9620, 590.5964
593.4441, 597.6642
593.9262, 605.2047
594.4083, 603.1526
594.8904, 595.2134
595.3726, 588.9795
595.8547, 587.1553
596.3368, 587.7367
596.8189, 588.1219
597.3010, 588.5605
597.7831, 587.5937
598.2653, 581.9883
598.7474, 578.4136
599.2295, 581.3808
599.7116, 587.0459
600.1937, 588.3472
600.6758, 581.6718
601.1580, 576.0244
601.6401, 585.9089
602.1222, 606.6190
602.6043, 613.0467
603.0864, 598.4688
603.5685, 579.5585
604.0507, 567.6451
604.5328, 563.4569
605.0149, 567.4192
605.4970, 592.2425
605.9791, 610.2698
606.4612, 605.0526
606.9434, 590.6639
607.4255, 585.2978
607.9076, 592.8564
608.3897, 605.1837
608.8718, 614.4514
609.3539, 620.6457
609.8361, 622.8339
610.3182, 619.4431
610.8003, 614.5429
611.2824, 609.7610
611.7645, 604.1345
612.2466, 595.3736
612.7288, 582.7202
613.2109, 572.6639
613.6930, 569.7066
614.1751, 572.1887
614.6572, 579.3910
615.1393, 590.9512
615.6215, 598.1089
616.1036, 593.9155
616.5857, 582.4432
617.0678, 578.4995
617.5499, 593.7400
618.0320, 600.2512
618.5142, 587.4117
618.9963, 572.7139
619.4784, 571.3317
619.9605, 581.3384
620.4426, 590.5088
620.9247, 590.7585
621.4069, 583.8829
621.8890, 571.6730
622.3711, 551.4746
622.8532, 542.1820
623.3353, 554.4103
623.8174, 573.8486
624.2996, 588.2554
624.7817, 597.6045
625.2638, 599.0453
625.7459, 583.7880
626.2280, 567.3061
626.7101, 561.4819
627.1923, 564.3119
627.6744, 571.3138
628.1565, 580.8464
628.6386, 588.0383
629.1207, 583.4911
629.6028, 561.9910
630.0850, 549.9218
630.5671, 555.4342
631.0492, 562.4236
631.5313, 567.2660
632.0134, 569.9476
632.4955, 570.1096
632.9777, 567.0482
633.4598, 565.0377
633.9419, 570.4057
634.4240, 580.3365
634.9061, 584.0365
635.3882, 579.1788
635.8704, 575.7861
636.3525, 584.0085
636.8346, 600.3204
637.3167, 601.6680
637.7988, 568.8343
638.2809, 548.5794
638.7631, 559.9828
639.2452, 579.7735
639.7273, 586.0131
640.2094, 577.5317
640.6915, 566.6329
641.1736, 562.7204
641.6558, 563.8389
642.1379, 562.8480
642.6200, 558.6850
643.1021, 557.4717
643.5842, 565.1478
644.0663, 572.5035
644.5485, 567.5320
645.0306, 550.7078
645.5127, 539.2168
645.9948, 541.8169
646.4769, 548.1006
646.9590, 549.5578
647.4412, 547.9998
647.9233, 548.8522
648.4054, 554.2258
648.8875, 562.1551
649.3696, 570.4143
649.8517, 579.9454
650.3339, 584.6615
650.8160, 582.1274
651.2981, 577.3770
651.7802, 570.8796
652.2623, 563.6981
652.7444, 556.4641
653.2266, 548.8455
653.7087, 544.4811
654.1908, 548.6083
654.6729, 557.4728
655.1550, 563.5549
655.6371, 566.0151
656.1193, 564.4355
656.6014, 557.0126
657.0835, 546.5937
657.5656, 544.0593
658.0477, 558.2216
658.5298, 568.4010
659.0120, 572.4073
659.4941, 574.1667
659.9762, 576.9319
660.4583, 579.9615
660.9404, 579.5372
661.4225, 572.0375
661.9047, 563.1989
662.3868, 564.8088
662.8689, 576.4224
663.3510, 582.9473
663.8331, 578.7474
664.3152, 574.1940
664.7974, 580.9695
665.2795, 598.3315
665.7616, 609.3593
666.2437, 609.9838
666.7258, 608.5339
667.2079, 606.6856
667.6901, 605.1122
668.1722, 604.2939
668.6543, 604.4479
669.1364, 606.0763
669.6185, 610.4890
670.1006, 616.7350
670.5828, 618.7165
671.0649, 615.3177
671.5470, 611.3036
672.0291, 607.7461
672.5112, 604.6219
672.9933, 601.3506
673.4755, 597.8690
673.9576, 596.5909
674.4397, 600.4641
674.9218, 604.8395
675.4039, 605.8990
675.8860, 604.5202
676.3682, 603.2292
676.8503, 603.0045
677.3324, 602.8603
677.8145, 601.7113
678.2966, 599.8282
678.7787, 594.1649
679.2609, 578.6046
679.7430, 568.5237
680.2251, 577.4139
680.7072, 591.3632
681.1893, 590.7100
681.6714, 570.2043
682.1536, 550.3867
682.6357, 544.9983
683.1178, 545.7625
683.5999, 541.7905
684.0820, 532.8994
684.5641, 523.5857
685.0463, 516.1012
685.5284, 510.2733
686.0105, 505.9207
686.4926, 503.9525
686.9747, 501.2970
687.4568, 497.7078
687.9390, 493.6324
688.4211, 488.8271
688.9032, 483.7454
689.3853, 478.7215
689.8674, 473.1190
690.3495, 470.2002
690.8317, 477.2571
691.3138, 488.0783
691.7959, 485.5255
692.2780, 468.0429
692.7601, 454.4384
693.2422, 459.1898
693.7244, 476.6525
694.2065, 484.8531
694.6886, 478.0422
695.1707, 470.9198
695.6528, 462.4855
696.1349, 455.2133
696.6171, 450.3456
697.0992, 447.8678
697.5813, 448.1952
698.0634, 453.3112
698.5455, 457.1336
699.0276, 449.1867
699.5098, 433.6664
699.9919, 426.9040
700.4740, 432.4970
700.9561, 440.7709
701.4382, 444.3002
701.9203, 443.4558
702.4025, 441.1464
702.8846, 433.2337
703.3667, 429.4417
703.8488, 432.5745
704.3309, 438.3685
704.8130, 445.6408
705.2952, 452.8445
705.7773, 456.6131
706.2594, 454.7028
706.7415, 448.9017
707.2236, 438.7283
707.7057, 425.8024
708.1879, 421.8430
708.6700, 430.9455
709.1521, 441.0684
709.6342, 440.5406
710.1163, 429.8986
710.5984, 421.8513
711.0806, 417.4179
711.5627, 414.0782
712.0448, 408.8555
712.5269, 406.4670
713.0090, 414.8393
713.4911, 431.2262
713.9733, 441.5270
714.4554, 432.9103
714.9375, 417.8328
715.4196, 418.7184
715.9017, 433.2571
716.3839, 442.6999
716.8660, 441.8980
717.3481, 436.4557
717.8302, 431.1790
718.3123, 426.0929
718.7944, 422.1892
719.2766, 422.8119
719.7587, 420.1709
720.2408, 405.8450
720.7229, 392.5659
721.2050, 395.2267
721.6871, 411.9945
722.1693, 425.7134
722.6514, 423.4255
723.1335, 413.7982
723.6156, 412.9464
724.0977, 419.0201
724.5798, 415.2887
725.0620, 394.6152
725.5441, 377.4598
726.0262, 388.1401
726.5083, 426.6392
726.9904, 446.2171
727.4725, 433.1403
727.9547, 419.6603
728.4368, 408.6188
728.9189, 400.8147
729.4010, 398.2343
729.8831, 399.9233
730.3652, 401.2025
730.8474, 398.1147
731.3295, 394.2743
731.8116, 396.5772
732.2937, 403.3611
732.7758, 404.7360
733.2579, 397.3533
733.7401, 391.4162
734.2222, 398.8357
734.7043, 418.6515
735.1864, 426.8755
735.6685, 414.6226
736.1506, 401.9835
736.6328, 386.8629
737.1149, 375.5714
737.5970, 375.8573
738.0791, 385.5523
738.5612, 393.2981
739.0433, 392.8494
739.5255, 388.2907
740.0076, 382.3166
740.4897, 376.0333
740.9718, 373.7251
741.4539, 376.3830
741.9360, 379.6519
742.4182, 379.3697
742.9003, 376.1711
743.3824, 375.7776
743.8645, 380.8930
744.3466, 384.1583
744.8287, 381.7371
745.3109, 379.8219
745.7930, 383.8729
746.2751, 392.2970
746.7572, 398.5839
747.2393, 400.6280
747.7214, 399.2449
748.2036, 392.5468
748.6857, 383.5883
749.1678, 377.9366
749.6499, 376.6127
750.1320, 379.1713
750.6141, 385.9176
751.0963, 395.1834
751.5784, 400.3539
752.0605, 400.9355
752.5426, 398.9104
753.0247, 396.4447
753.5068, 389.1205
753.9890, 365.9132
754.4711, 336.0905
754.9532, 326.0757
755.4353, 352.2573
755.9174, 378.6450
756.3995, 387.3846
756.8817, 385.9946
757.3638, 379.9981
757.8459, 372.3316
758.3280, 369.6696
758.8101, 376.6119
759.2922, 388.3795
759.7744, 395.3324
760.2565, 397.3360
760.7386, 394.6924
761.2207, 383.7320
761.7028, 375.5207
762.1849, 379.8534
762.6671, 391.4160
763.1492, 396.1591
763.6313, 390.0245
764.1134, 385.8596
764.5955, 387.7727
765.0776, 391.6571
765.5598, 393.8359
766.0419, 395.4988
766.5240, 401.9391
767.0061, 415.7053
767.4882, 426.7339
767.9703, 417.4678
768.4525, 392.7584
768.9346, 380.8097
769.4167, 384.4653
769.8988, 390.3491
770.3809, 391.8437
770.8630, 391.6387
771.3452, 395.4792
771.8273, 406.7329
772.3094, 412.0668
772.7915, 406.2278
773.2736, 400.5971
773.7557, 402.6631
774.2379, 406.3533
774.7200, 400.5721
775.2021, 383.4264
775.6842, 370.8490
776.1663, 380.7247
776.6484, 399.3723
777.1306, 403.0798
777.6127, 394.4276
778.0948, 389.7167
778.5769, 394.9501
779.0590, 403.3935
779.5411, 406.6122
780.0233, 404.4407
780.5054, 403.6631
780.9875, 406.2362
781.4696, 406.9462
781.9517, 400.5802
782.4338, 394.8751
782.9160, 397.2591
783.3981, 407.0940
783.8802, 416.2274
784.3623, 423.6379
784.8444, 427.6781
785.3265, 423.8169
785.8087, 417.3479
786.2908, 417.7851
786.7729, 425.7270
787.2550, 433.0550
787.7371, 433.2784
788.2192, 428.5234
788.7014, 423.5930
789.1835, 417.9491
789.6656, 418.8370
790.1477, 431.7761
790.6298, 442.0704
791.1119, 435.4837
791.5941, 416.5174
792.0762, 406.4995
792.5583, 413.2308
793.0404, 416.2906
793.5225, 409.7019
794.0046, 401.1375
794.4868, 394.8636
794.9689, 391.2512
795.4510, 389.9870
795.9331, 391.1583
796.4152, 393.0659
796.8973, 393.6764
797.3795, 393.7021
797.8616, 396.1737
798.3437, 400.9436
798.8258, 401.2613
799.3079, 392.7274
799.7900, 381.9821
800.2722, 382.3422
800.7543, 398.3581
801.2364, 403.9998
801.7185, 390.1234
802.2006, 378.2404
802.6827, 375.2780
803.1649, 377.5530
803.6470, 383.2552
804.1291, 392.1076
804.6112, 395.9658
805.0933, 388.7269
805.5754, 378.4004
806.0576, 368.8692
806.5397, 361.2066
807.0218, 357.0636
807.5039, 356.6590
807.9860, 358.8612
808.4681, 363.3708
808.9503, 369.0004
809.4324, 371.8852
809.9145, 371.9239
810.3966, 370.7280
810.8787, 368.0621
811.3608, 365.7897
811.8430, 365.7335
812.3251, 367.5533
812.8072, 368.7459
813.2893, 369.7132
813.7714, 369.5058
814.2535, 364.6899
814.7357, 361.7487
815.2178, 367.4583
815.6999, 378.1092
816.1820, 384.8213
816.6641, 384.1218
817.1462, 380.2204
817.6284, 376.5427
818.1105, 371.8615
818.5926, 361.9954
819.0747, 348.4260
819.5568, 339.3764
820.0389, 338.7554
820.5211, 343.2520
821.0032, 348.7345
821.4852, 355.5343
821.9673, 356.5960
822.4495, 347.8229
822.9316, 344.2209
823.4137, 357.6879
823.8958, 373.8275
824.3779, 371.3410
824.8600, 349.7944
825.3422, 335.7192
825.8243, 335.5153
826.3064, 339.0784
826.7885, 347.4243
827.2706, 354.3786
827.7527, 350.5077
828.2349, 337.5781
828.7170, 328.8333
829.1991, 333.9274
829.6812, 344.3741
830.1633, 349.2373
830.6454, 349.9529
831.1276, 350.6960
831.6097, 352.1889
832.0918, 355.0685
832.5739, 360.3654
833.0560, 365.8815
833.5381, 364.6747
834.0203, 353.5329
834.5024, 346.8342
834.9845, 347.6796
835.4666, 349.1625
835.9487, 344.9416
836.4308, 340.4679
836.9130, 346.0278
837.3951, 365.4079
837.8772, 376.8215
838.3593, 370.3847
838.8414, 359.1085
839.3235, 345.4429
839.8057, 334.4530
840.2878, 335.2385
840.7699, 348.2937
841.2520, 361.0450
841.7341, 363.0085
842.2162, 358.5323
842.6984, 354.8294
843.1805, 351.7691
843.6626, 348.5046
844.1447, 344.8087
844.6268, 342.3661
845.1089, 343.0067
845.5911, 345.6917
846.0732, 345.3450
846.5553, 340.1658
847.0374, 336.8658
847.5195, 336.9217
848.0016, 337.8887
848.4838, 337.1569
848.9659, 336.6178
849.4480, 340.8201
849.9301, 352.7875
850.4122, 361.1332
850.8943, 361.0941
851.3765, 358.0653
851.8586, 353.7942
852.3407, 349.8451
852.8228, 350.0573
853.3049, 354.8026
853.7870, 356.1405
854.2692, 340.4733
854.7513, 320.0821
855.2334, 319.9622
855.7155, 336.6735
856.1976, 356.5784
856.6797, 376.1878
857.1619, 385.7948
857.6440, 374.3154
858.1261, 346.8903
858.6082, 331.2028
859.0903, 329.9679
859.5724, 331.9420
860.0546, 338.4803
860.5367, 344.1512
861.0188, 344.0126
861.5009, 340.5663
861.9830, 340.1819
862.4651, 345.3239
862.9473, 347.8580
863.4294, 345.4118
863.9115, 340.8356
864.3936, 333.8755
864.8757, 326.6940
865.3578, 322.8666
865.8400, 323.1259
866.3221, 324.0619
866.8042, 321.6318
867.2863, 319.4669
867.7684, 324.7391
868.2505, 334.4627
868.7327, 339.2435
869.2148, 336.9672
869.6969, 332.0901
870.1790, 327.8823
870.6611, 325.0659
871.1432, 327.5797
871.6254, 336.7587
872.1075, 339.5560
872.5896, 331.0906
873.0717, 324.1785
873.5538, 329.1683
874.0359, 340.7167
874.5181, 343.8186
875.0002, 332.4907
875.4823, 325.9703
875.9644, 327.5701
876.4465, 330.3426
876.9286, 331.9971
877.4108, 332.9320
877.8929, 333.4590
878.3750, 333.7327
878.8571, 335.0431
879.3392, 341.1133
879.8214, 345.4069
880.3035, 339.5832
880.7856, 329.7569
881.2677, 327.3825
881.7498, 332.7527
882.2319, 335.2946
882.7141, 326.4508
883.1962, 315.2531
883.6783, 322.2811
884.1604, 343.3756
884.6425, 348.7630
885.1246, 334.2607
885.6068, 322.5284
886.0889, 326.8397
886.5710, 337.8962
887.0531, 337.4408
887.5352, 322.2330
888.0173, 314.0178
888.4995, 314.8929
888.9816, 319.2065
889.4637, 329.4273
889.9458, 339.1950
890.4279, 340.5898
890.9100, 334.4579
891.3922, 332.1521
891.8743, 340.6816
892.3564, 346.1922
892.8385, 341.2787
893.3206, 334.0546
893.8027, 332.5491
894.2849, 334.9814
894.7670, 333.7983
895.2491, 324.9930
895.7312, 317.4077
896.2133, 321.4238
896.6954, 329.7092
897.1776, 330.2220
897.6597, 324.4740
898.1418, 320.3809
898.6239, 320.7343
899.1060, 322.6530
899.5881, 323.4318
900.0703, 322.8777
900.5524, 318.5162
901.0345, 309.9101
901.5166, 308.0878
901.9987, 316.9719
902.4808, 327.7510
902.9630, 333.5515
903.4451, 335.3192
903.9272, 337.0695
904.4093, 340.4302
904.8914, 340.2704
905.3735, 329.8400
905.8557, 323.7989
906.3378, 334.6818
906.8199, 350.5397
907.3020, 352.4286
907.7841, 337.0969
908.2662, 326.7527
908.7484, 330.7642
909.2305, 336.1723
909.7126, 336.8834
910.1947, 335.3372
910.6768, 334.7332
911.1589, 335.1641
911.6411, 334.2023
912.1232, 328.8983
912.6053, 325.4786
913.0874, 334.3707
913.5695, 347.5331
914.0516, 350.1348
914.5338, 342.5098
915.0159, 332.4315
915.4980, 323.4582
915.9801, 317.6833
916.4622, 319.4995
916.9443, 327.4775
917.4265, 331.5145
917.9086, 331.3694
918.3907, 333.8338
918.8728, 342.0175
919.3549, 348.4117
919.8370, 344.3585
920.3192, 332.3758
920.8013, 330.5385
921.2834, 347.3656
921.7655, 353.3468
922.2476, 336.3876
922.7297, 320.5018
923.2119, 320.5754
923.6940, 329.8889
924.1761, 338.0186
924.6582, 345.3656
925.1403, 348.2951
925.6224, 343.8521
926.1046, 337.7967
926.5867, 329.8863
927.0688, 323.4024
927.5509, 322.3328
928.0330, 326.3898
928.5151, 331.7364
928.9973, 338.8502
929.4794, 343.0499
929.9615, 337.5461
930.4436, 329.3288
930.9257, 329.1669
931.4078, 334.8156
931.8900, 334.8473
932.3721, 324.3802
932.8542, 314.3734
933.3363, 319.1355
933.8184, 333.2088
934.3005, 344.5371
934.7827, 352.3273
935.2648, 350.9414
935.7469, 338.8162
936.2290, 326.9169
936.7111, 325.4106
937.1932, 331.2321
937.6754, 332.7075
938.1575, 328.6709
938.6396, 331.2834
939.1217, 344.8504
939.6038, 355.0924
940.0859, 353.4446
940.5681, 344.8391
941.0502, 337.3477
941.5323, 329.9132
942.0144, 329.2327
942.4965, 341.1648
942.9786, 351.4745
943.4608, 360.0909
943.9429, 363.5908
944.4250, 355.5524
944.9071, 339.2562
945.3892, 329.2036
945.8713, 329.4758
946.3535, 332.6913
946.8356, 339.4761
947.3177, 346.0759
947.7998, 348.7454
948.2819, 349.8693
948.7640, 354.7796
949.2462, 364.5244
949.7283, 371.5339
950.2104, 369.7317
950.6925, 364.9055
951.1746, 359.5314
951.6567, 355.8963
952.1389, 359.4038
952.6210, 368.9420
953.1031, 376.8557
953.5852, 378.8665
954.0673, 376.3217
954.5494, 368.5599
955.0316, 358.2392
955.5137, 352.3372
955.9958, 350.9429
956.4779, 351.7968
956.9600, 354.0726
957.4421, 356.4888
957.9243, 357.2652
958.4064, 357.2119
958.8885, 360.9391
959.3706, 368.7796
959.8527, 374.2215
960.3348, 376.4851
960.8170, 374.0429
961.2991, 364.0048
961.7812, 351.5327
962.2633, 349.7116
962.7454, 362.3705
963.2275, 367.8419
963.7097, 361.1592
964.1918, 356.7854
964.6739, 359.1574
965.1560, 365.8639
965.6381, 378.9938
966.1202, 396.8183
966.6024, 398.7124
967.0845, 361.5233
967.5666, 342.6252
968.0487, 364.5543
968.5308, 388.3718
969.0129, 390.3593
969.4951, 380.7134
969.9772, 377.7524
970.4593, 384.7416
970.9414, 391.1564
971.4235, 393.0294
971.9056, 394.0928
972.3878, 398.2357
972.8699, 401.2423
973.3520, 394.7835
973.8341, 382.3754
974.3162, 379.1894
974.7983, 394.6578
975.2805, 409.1552
975.7626, 403.6075
976.2447, 392.0244
976.7268, 391.0203
977.2089, 397.8210
977.6910, 403.7443
978.1732, 406.3842
978.6553, 408.7071
979.1374, 413.3285
979.6195, 418.7545
980.1016, 422.6728
980.5837, 425.3990
981.0659, 428.1862
981.5480, 430.9358
982.0301, 431.4063
982.5122, 428.3536
982.9943, 424.5981
983.4764, 424.8333
983.9586, 428.1161
984.4407, 427.6182
984.9228, 423.4648
985.4049, 424.8943
985.8870, 434.7648
986.3691, 445.8177
986.8513, 452.5952
987.3334, 455.3892
987.8155, 454.2977
988.2976, 448.2628
988.7797, 445.5800
989.2618, 447.0428
989.7440, 450.4488
990.2261, 455.2990
990.7082, 461.2029
991.1903, 468.8063
991.6724, 477.9051
992.1545, 478.8808
992.6367, 463.8613
993.1188, 457.2406
993.6009, 470.3486
994.0830, 481.5466
994.5651, 475.8705
995.0472, 460.3870
995.5294, 447.8500
996.0115, 436.1050
996.4936, 436.5478
996.9757, 463.0823
997.4578, 484.3966
997.9399, 489.2372
998.4221, 487.9004
998.9042, 488.6477
999.3863, 490.9888
999.8684, 490.6096
1000.351, 483.6473
1000.833, 481.3686
1001.315, 493.1530
1001.797, 503.7758
1002.279, 500.7542
1002.761, 492.8792
1003.243, 493.3226
1003.725, 502.9262
1004.207, 511.3507
1004.690, 512.5142
1005.172, 513.6405
1005.654, 523.2598
1006.136, 531.4137
1006.618, 523.0778
1007.100, 505.8552
1007.582, 499.8776
1008.064, 510.9690
1008.547, 521.6386
1009.029, 516.0056
1009.511, 506.6542
1009.993, 507.2909
1010.475, 512.9233
1010.957, 514.6793
1011.439, 512.4313
1011.921, 512.5140
1012.403, 518.5121
1012.886, 523.3278
1013.368, 514.4232
1013.850, 501.5535
1014.332, 505.4335
1014.814, 520.9615
1015.296, 530.0690
1015.778, 528.9461
1016.260, 525.9650
1016.742, 527.2748
1017.225, 530.5165
1017.707, 531.9290
1018.189, 531.7333
1018.671, 530.0769
1019.153, 527.3203
1019.635, 526.0931
1020.117, 527.3644
1020.599, 529.2753
1021.082, 529.4872
1021.564, 529.3433
1022.046, 536.5285
1022.528, 539.1965
1023.010, 540.6149
1023.492, 540.8508
1023.974, 536.3627
1024.456, 537.9747
1024.938, 537.1420
1025.421, 536.2087
1025.903, 538.6793
1026.385, 534.8784
1026.867, 537.2950
1027.349, 537.2296
1027.831, 543.3046
1028.313, 551.5030
1028.795, 544.0927
1029.278, 529.9367
1029.760, 530.4733
1030.242, 548.8342
1030.724, 553.6879
1031.206, 538.9075
1031.688, 532.7939
1032.170, 547.1391
1032.652, 563.2643
1033.135, 564.0006
1033.617, 553.8195
1034.099, 549.7854
1034.581, 553.9119
1035.063, 558.4311
1035.545, 563.3174
1036.027, 568.7875
1036.509, 576.7073
1036.991, 582.8361
1037.474, 579.9042
1037.956, 569.7388
1038.438, 572.2115
1038.920, 601.5663
1039.402, 615.7094
1039.884, 603.1058
1040.366, 588.0339
1040.848, 578.6340
1041.330, 574.4916
1041.813, 576.3178
1042.295, 584.4824
1042.777, 590.5339
1043.259, 594.2976
1043.741, 596.1915
1044.223, 593.1217
1044.705, 591.5106
1045.187, 596.1437
1045.670, 604.0392
1046.152, 610.7751
1046.634, 616.5661
1047.116, 618.1326
1047.598, 607.9252
1048.080, 603.4391
1048.562, 613.1603
1049.044, 625.5917
1049.526, 635.9432
1050.009, 642.0135
1050.491, 637.7607
1050.973, 618.1245
1051.455, 608.2416
1051.937, 618.7490
1052.419, 631.1674
1052.901, 642.4219
1053.383, 649.9675
1053.865, 650.9094
1054.348, 646.4982
1054.830, 640.2672
1055.312, 631.5473
1055.794, 625.1871
1056.276, 621.3421
1056.758, 621.3362
1057.240, 628.4111
1057.722, 637.7577
1058.205, 643.6794
1058.687, 647.0043
1059.169, 653.7785
1059.651, 669.3022
1060.133, 679.0491
1060.615, 673.4624
1061.097, 666.2955
1061.579, 665.3771
1062.062, 667.6889
1062.544, 668.6590
1063.026, 668.3030
1063.508, 670.2714
1063.990, 676.7489
1064.472, 683.7065
1064.954, 689.2427
1065.436, 695.1113
1065.918, 703.6998
1066.401, 712.7608
1066.883, 719.2245
1067.365, 722.6792
1067.847, 724.2127
1068.329, 722.5494
1068.811, 721.6433
1069.293, 721.1868
1069.775, 724.1058
1070.257, 736.7305
1070.740, 752.4921
1071.222, 758.9186
1071.704, 754.8315
1072.186, 754.7834
1072.668, 769.5468
1073.150, 783.5367
1073.632, 788.4755
1074.114, 790.3799
1074.596, 791.3857
1075.079, 794.3181
1075.561, 806.5368
1076.043, 828.7214
1076.525, 841.8032
1077.007, 823.0353
1077.489, 811.4478
1077.971, 835.8599
1078.453, 868.0864
1078.936, 882.7507
1079.418, 884.8918
1079.900, 888.6770
1080.382, 897.3954
1080.864, 907.0403
1081.346, 916.9622
1081.828, 925.9052
1082.310, 933.1212
1082.792, 939.0811
1083.275, 942.4564
1083.757, 945.3531
1084.239, 952.2817
1084.721, 964.4165
1085.203, 977.2914
1085.685, 991.8629
1086.167, 1003.148
1086.649, 1006.298
1087.131, 1006.758
1087.614, 1009.919
1088.096, 1014.717
1088.578, 1017.191
1089.060, 1016.213
1089.542, 1015.601
1090.024, 1012.595
1090.506, 1015.650
1090.988, 1035.535
1091.471, 1058.191
1091.953, 1071.079
1092.435, 1075.274
1092.917, 1074.680
1093.399, 1069.276
1093.881, 1068.325
1094.363, 1080.768
1094.845, 1091.615
1095.328, 1091.484
1095.810, 1088.310
1096.292, 1089.756
1096.774, 1094.354
1097.256, 1096.957
1097.738, 1096.338
1098.220, 1094.779
1098.702, 1090.906
1099.184, 1088.907
1099.667, 1089.154
1100.149, 1093.325
1100.631, 1109.846
1101.113, 1130.030
1101.595, 1131.214
1102.077, 1105.564
1102.559, 1083.937
1103.041, 1072.854
1103.523, 1068.509
1104.006, 1073.087
1104.488, 1080.559
1104.970, 1090.460
1105.452, 1098.341
1105.934, 1093.545
1106.416, 1072.141
1106.898, 1051.567
1107.380, 1026.132
1107.863, 1013.536
1108.345, 1034.074
1108.827, 1055.536
1109.309, 1050.046
1109.791, 1027.193
1110.273, 1011.351
1110.755, 1005.555
1111.237, 1000.887
1111.719, 996.3732
1112.202, 993.1837
1112.684, 996.1326
1113.166, 996.0608
1113.648, 980.8795
1114.130, 959.4804
1114.612, 953.8558
1115.094, 969.5809
1115.576, 976.4624
1116.058, 969.8444
1116.541, 961.4906
1117.023, 952.9711
1117.505, 943.5469
1117.987, 930.7830
1118.469, 917.8537
1118.951, 911.7240
1119.433, 913.5576
1119.915, 913.9329
1120.398, 915.1398
1120.880, 909.5863
1121.362, 891.3314
1121.844, 874.4122
1122.326, 869.2698
1122.808, 868.5786
1123.290, 858.7999
1123.772, 839.3599
1124.255, 823.3615
1124.737, 810.3803
1125.219, 802.9333
1125.701, 803.3266
1126.183, 804.2018
1126.665, 802.1326
1127.147, 797.0223
1127.629, 788.0978
1128.111, 775.6798
1128.594, 764.9740
1129.076, 755.5084
1129.558, 751.7720
1130.040, 755.5237
1130.522, 758.4218
1131.004, 756.4470
1131.486, 751.0697
1131.968, 743.5042
1132.450, 734.6660
1132.933, 731.9956
1133.415, 735.4015
1133.897, 728.0324
1134.379, 707.8690
1134.861, 689.5610
1135.343, 679.3915
1135.825, 673.9205
1136.307, 670.0513
1136.790, 666.9193
1137.272, 661.7348
1137.754, 654.9179
1138.236, 649.1525
1138.718, 644.3991
1139.200, 637.6930
1139.682, 628.1652
1140.164, 620.3809
1140.646, 619.3751
1141.129, 618.6100
1141.611, 616.7783
1142.093, 613.6957
1142.575, 609.4319
1143.057, 600.4429
1143.539, 597.5552
1144.021, 592.2217
1144.503, 586.7878
1144.985, 584.7587
1145.468, 576.4473
1145.950, 574.3641
1146.432, 569.7979
1146.914, 566.3687
1147.396, 560.4786
1147.878, 555.3482
1148.360, 552.6795
1148.842, 548.6473
1149.325, 542.4657
1149.807, 539.1075
1150.289, 530.7208
1150.771, 526.7466
1151.253, 524.6766
1151.735, 518.6282
1152.217, 515.3150
1152.699, 510.9608
1153.182, 501.8597
1153.664, 501.0060
1154.146, 496.5891
1154.628, 499.6668
1155.110, 504.3056
1155.592, 491.5853
1156.074, 475.7233
1156.556, 471.6849
1157.038, 476.4116
1157.521, 479.6519
1158.003, 479.7413
1158.485, 477.6630
1158.967, 471.0270
1159.449, 465.8211
1159.931, 465.9698
1160.413, 465.8783
1160.895, 461.9153
1161.377, 455.0562
1161.860, 446.1636
1162.342, 434.6725
1162.824, 428.4423
1163.306, 431.6158
1163.788, 432.4018
1164.270, 427.2149
1164.752, 423.7119
1165.234, 427.2153
1165.717, 432.0681
1166.199, 430.6028
1166.681, 423.6313
1167.163, 418.8896
1167.645, 417.4677
1168.127, 412.0837
1168.609, 399.9005
1169.091, 395.6520
1169.573, 406.7101
1170.056, 419.7461
1170.538, 422.2416
1171.020, 415.8645
1171.502, 402.9030
1171.984, 384.2039
1172.466, 373.7216
1172.948, 371.9221
1173.430, 378.5165
1173.912, 392.9359
1174.395, 401.2442
1174.877, 392.7087
1175.359, 378.5315
1175.841, 376.9432
1176.323, 383.3953
1176.805, 386.4559
1177.287, 387.0273
1177.769, 389.3614
1178.252, 393.2733
1178.734, 394.3128
1179.216, 390.3651
1179.698, 383.6108
1180.180, 372.9006
1180.662, 363.5254
1181.144, 363.0554
1181.626, 366.6639
1182.109, 367.9676
1182.591, 367.0392
1183.073, 365.6674
1183.555, 364.4949
1184.037, 365.1057
1184.519, 371.1205
1185.001, 375.3945
1185.483, 373.7642
1185.965, 369.5096
1186.448, 363.3593
1186.930, 357.2562
1187.412, 353.8655
1187.894, 353.1896
1188.376, 352.6339
1188.858, 350.1471
1189.340, 350.6561
1189.822, 358.3082
1190.304, 364.6498
1190.787, 365.1235
1191.269, 364.1848
1191.751, 365.7370
1192.233, 368.9497
1192.715, 371.1619
1193.197, 372.3253
1193.679, 373.0028
1194.161, 374.3669
1194.644, 371.0479
1195.126, 360.1324
1195.608, 349.5742
1196.090, 343.5544
1196.572, 343.1428
1197.054, 352.4166
1197.536, 368.7508
1198.018, 369.7932
1198.500, 356.2654
1198.983, 342.9978
1199.465, 332.3683
1199.947, 334.6587
1200.429, 354.0384
1200.911, 371.1649
1201.393, 365.5555
1201.875, 348.7355
1202.357, 339.0640
1202.839, 335.3920
1203.322, 337.8806
1203.804, 343.6981
1204.286, 344.3287
1204.768, 339.2898
1205.250, 338.4212
1205.732, 348.7543
1206.214, 357.8242
1206.696, 352.6616
1207.179, 345.1146
1207.661, 345.5875
1208.143, 350.0334
1208.625, 355.2779
1209.107, 358.9634
1209.589, 355.4378
1210.071, 342.0303
1210.553, 332.9106
1211.036, 334.8457
1211.518, 337.7727
1212.000, 339.4517
1212.482, 340.2986
1212.964, 341.2099
1213.446, 341.1043
1213.928, 337.3232
1214.410, 330.1961
1214.892, 328.0400
1215.375, 335.2204
1215.857, 334.3828
1216.339, 319.7743
1216.821, 312.7758
1217.303, 323.7068
1217.785, 335.2043
1218.267, 330.9733
1218.749, 317.7661
1219.231, 312.6581
1219.714, 315.0113
1220.196, 315.1495
1220.678, 313.3250
1221.160, 312.2979
1221.642, 313.0159
1222.124, 320.6109
1222.606, 338.0037
1223.088, 354.0937
1223.571, 353.8671
1224.053, 347.1172
1224.535, 350.6100
1225.017, 357.9818
1225.499, 358.1960
1225.981, 352.4677
1226.463, 346.6496
1226.945, 342.1837
1227.427, 336.8955
1227.910, 328.2228
1228.392, 321.7284
1228.874, 321.6292
1229.356, 323.3690
1229.838, 324.5568
1230.320, 325.4247
1230.802, 326.6512
1231.284, 327.9742
1231.766, 328.1255
1232.249, 326.2041
1232.731, 325.9640
1233.213, 328.7472
1233.695, 331.0851
1234.177, 332.9266
1234.659, 333.3694
1235.141, 332.2122
1235.623, 328.5442
1236.106, 319.3995
1236.588, 307.0275
1237.070, 308.0181
1237.552, 322.7545
1238.034, 336.0163
1238.516, 346.6185
1238.998, 349.9160
1239.480, 344.6456
1239.963, 336.6556
1240.445, 329.9425
1240.927, 325.3079
1241.409, 325.3884
1241.891, 327.4873
1242.373, 325.5829
1242.855, 322.2042
1243.337, 324.3963
1243.819, 330.4594
1244.302, 331.3253
1244.784, 323.9645
1245.266, 317.6420
1245.748, 320.0712
1246.230, 321.7479
1246.712, 314.2127
1247.194, 307.7948
1247.676, 314.2180
1248.158, 324.1248
1248.641, 320.7553
1249.123, 306.2532
1249.605, 305.1985
1250.087, 327.4584
1250.569, 341.8297
1251.051, 346.1594
1251.533, 346.6582
1252.015, 343.0197
1252.498, 340.7502
1252.980, 345.0211
1253.462, 348.6880
1253.944, 337.3615
1254.426, 315.2738
1254.908, 311.8549
1255.390, 324.5456
1255.872, 327.4049
1256.354, 319.8725
1256.837, 321.1344
1257.319, 336.4455
1257.801, 348.9854
1258.283, 345.7082
1258.765, 336.0756
1259.247, 328.3301
1259.729, 322.6925
1260.211, 316.9264
1260.693, 314.9876
1261.176, 329.4100
1261.658, 352.4167
1262.140, 357.2493
1262.622, 335.5034
1263.104, 318.4596
1263.586, 316.8495
1264.068, 319.8707
1264.550, 331.2948
1265.033, 338.7018
1265.515, 331.9053
1265.997, 321.1331
1266.479, 316.8537
1266.961, 318.3805
1267.443, 323.6380
1267.925, 334.1270
1268.407, 339.3663
1268.890, 339.0555
1269.372, 335.3953
1269.854, 328.7116
1270.336, 321.9861
1270.818, 316.7291
1271.300, 314.6282
1271.782, 317.9290
1272.264, 325.5807
1272.746, 340.7406
1273.229, 355.8675
1273.711, 351.4885
1274.193, 335.4118
1274.675, 330.5747
1275.157, 339.7024
1275.639, 347.2616
1276.121, 347.8367
##END=



