##NAMES=Anapaite
##RRUFFID=R050510
##IDEAL CHEMISTRY=Ca_2_Fe^2+^(PO_4_)_2_&#183;4H_2_O
##LOCALITY=Prats-Sampsor, Spain
##OWNER=RRUFF
##SOURCE=University of Arizona Mineral Museum
##DESCRIPTION=Pale green tabular crystals lining fractured rock. Probe photo shows two phases. This sample is the lighter phase in the probe photo.
##STATUS=The identification of this mineral has been confirmed by X-ray diffraction and chemical analysis
##URL=rruff.info/R050510
##MEASURED CHEMISTRY=Ca_2.00_(Fe^2+^_0.93_Mn_0.07_)_Σ=1_(P_1.00_O_4_)_2_·4H_2_O; (lighter phase)
90.92609, 0.0000000E+00
91.40820, 531.3143
91.89032, 528.1083
92.37244, 529.2281
92.85455, 534.1417
93.33667, 539.6633
93.81879, 542.9055
94.30090, 544.8411
94.78302, 549.0293
95.26514, 557.8211
95.74725, 567.9430
96.22937, 570.6993
96.71149, 565.4824
97.19360, 559.5150
97.67572, 560.1052
98.15784, 567.1390
98.63995, 574.3104
99.12207, 579.8177
99.60419, 583.8643
100.0863, 588.4808
100.5684, 593.4350
101.0505, 599.4602
101.5327, 607.4474
102.0148, 617.2424
102.4969, 629.3506
102.9790, 643.9465
103.4611, 660.7761
103.9432, 680.4365
104.4253, 701.2542
104.9075, 725.7532
105.3896, 757.8975
105.8717, 796.5240
106.3538, 844.8458
106.8359, 905.4412
107.3180, 982.5259
107.8002, 1063.544
108.2823, 1147.402
108.7644, 1234.796
109.2465, 1331.935
109.7286, 1433.750
110.2107, 1547.713
110.6929, 1678.990
111.1750, 1826.313
111.6571, 1990.835
112.1392, 2171.085
112.6213, 2367.719
113.1034, 2589.239
113.5856, 2831.197
114.0677, 3104.847
114.5498, 3415.635
115.0319, 3764.384
115.5140, 4153.150
115.9961, 4594.689
116.4783, 5088.076
116.9604, 5577.829
117.4425, 6049.859
117.9246, 6511.655
118.4067, 6967.606
118.8888, 7429.247
119.3710, 7883.068
119.8531, 8324.072
120.3352, 8750.762
120.8173, 9159.598
121.2994, 9533.020
121.7815, 9884.205
122.2637, 10237.59
122.7458, 10572.59
123.2279, 10927.24
123.7100, 11337.56
124.1921, 11809.44
124.6742, 12328.30
125.1564, 12882.78
125.6385, 13473.65
126.1206, 14106.14
126.6027, 14788.32
127.0848, 15508.39
127.5669, 16243.35
128.0491, 16992.67
128.5312, 17749.87
129.0133, 18514.34
129.4954, 19278.37
129.9775, 20034.49
130.4596, 20786.84
130.9418, 21524.04
131.4239, 22230.04
131.9060, 22900.85
132.3881, 23541.50
132.8702, 24152.53
133.3523, 24736.99
133.8345, 25291.18
134.3166, 25809.57
134.7987, 26296.32
135.2808, 26754.23
135.7629, 27187.33
136.2450, 27599.53
136.7272, 27993.65
137.2093, 28367.09
137.6914, 28737.45
138.1735, 29119.85
138.6556, 29510.09
139.1377, 29922.86
139.6199, 30366.15
140.1020, 30836.07
140.5841, 31330.56
141.0662, 31843.80
141.5483, 32381.47
142.0304, 32950.47
142.5126, 33546.10
142.9947, 34159.55
143.4768, 34677.89
143.9589, 35025.61
144.4410, 35370.22
144.9231, 35707.32
145.4053, 36046.93
145.8874, 36414.29
146.3695, 36828.31
146.8516, 37241.98
147.3337, 37634.66
147.8158, 38012.76
148.2980, 38376.83
148.7801, 38771.47
149.2622, 39148.77
149.7443, 39401.30
150.2264, 39478.68
150.7085, 39484.91
151.1907, 39448.04
151.6728, 39314.28
152.1549, 39226.08
152.6370, 39188.29
153.1191, 39195.30
153.6012, 39236.86
154.0834, 39359.06
154.5655, 39476.99
155.0476, 39556.29
155.5297, 39584.90
156.0118, 39582.92
156.4939, 39536.38
156.9761, 39457.16
157.4582, 39386.79
157.9403, 39320.38
158.4224, 39273.94
158.9045, 39257.14
159.3866, 39287.95
159.8688, 39330.13
160.3509, 39375.11
160.8330, 39423.89
161.3151, 39480.61
161.7972, 39548.68
162.2793, 39624.75
162.7615, 39706.37
163.2436, 39803.19
163.7257, 39895.85
164.2078, 39976.86
164.6899, 40046.80
165.1720, 40110.39
165.6541, 40165.01
166.1363, 40215.63
166.6184, 40267.20
167.1005, 40324.55
167.5826, 40380.00
168.0647, 40429.22
168.5468, 40472.28
169.0290, 40511.73
169.5111, 40547.46
169.9932, 40580.93
170.4753, 40614.20
170.9574, 40658.23
171.4395, 40695.93
171.9217, 40710.61
172.4038, 40702.58
172.8859, 40688.02
173.3680, 40674.73
173.8501, 40664.27
174.3322, 40658.81
174.8144, 40652.57
175.2965, 40655.13
175.7786, 40680.26
176.2607, 40728.54
176.7428, 40786.59
177.2249, 40845.21
177.7071, 40903.94
178.1892, 40963.50
178.6713, 41027.18
179.1534, 41090.49
179.6355, 41143.75
180.1176, 41185.62
180.5998, 41227.30
181.0819, 41277.48
181.5640, 41336.20
182.0461, 41406.62
182.5282, 41501.91
183.0103, 41608.04
183.4925, 41691.55
183.9746, 41749.16
184.4567, 41792.30
184.9388, 41839.09
185.4209, 41886.96
185.9030, 41916.23
186.3852, 41908.32
186.8673, 41873.76
187.3494, 41846.35
187.8315, 41827.32
188.3136, 41818.51
188.7957, 41825.02
189.2779, 41846.29
189.7600, 41871.50
190.2421, 41894.65
190.7242, 41916.69
191.2063, 41943.18
191.6884, 41973.99
192.1706, 42008.76
192.6527, 42050.45
193.1348, 42098.50
193.6169, 42142.86
194.0990, 42173.15
194.5811, 42190.39
195.0633, 42220.19
195.5454, 42263.10
196.0275, 42318.35
196.5096, 42385.02
196.9917, 42463.95
197.4738, 42547.93
197.9560, 42638.21
198.4381, 42734.95
198.9202, 42816.96
199.4023, 42878.16
199.8844, 42933.15
200.3665, 43018.35
200.8487, 43143.00
201.3308, 43250.33
201.8129, 43315.29
202.2950, 43338.09
202.7771, 43318.99
203.2592, 43250.30
203.7414, 43147.85
204.2235, 43036.68
204.7056, 42910.36
205.1877, 42801.43
205.6698, 42729.72
206.1519, 42699.62
206.6341, 42672.04
207.1162, 42641.96
207.5983, 42616.09
208.0804, 42613.34
208.5625, 42639.61
209.0446, 42669.89
209.5268, 42689.92
210.0089, 42695.01
210.4910, 42713.36
210.9731, 42747.82
211.4552, 42795.30
211.9373, 42849.48
212.4195, 42913.98
212.9016, 42977.09
213.3837, 43032.43
213.8658, 43077.67
214.3479, 43124.71
214.8300, 43171.59
215.3121, 43221.88
215.7943, 43284.81
216.2764, 43361.43
216.7585, 43445.93
217.2406, 43541.04
217.7227, 43656.46
218.2048, 43744.71
218.6870, 43798.89
219.1691, 43827.74
219.6512, 43853.86
220.1333, 43880.86
220.6154, 43897.55
221.0975, 43898.64
221.5797, 43880.46
222.0618, 43857.81
222.5439, 43829.63
223.0260, 43798.58
223.5081, 43769.19
223.9902, 43742.33
224.4724, 43718.51
224.9545, 43699.15
225.4366, 43685.68
225.9187, 43673.30
226.4008, 43654.71
226.8829, 43641.43
227.3651, 43659.86
227.8472, 43726.27
228.3293, 43797.50
228.8114, 43856.77
229.2935, 43899.59
229.7757, 43942.98
230.2578, 43991.18
230.7399, 44036.37
231.2220, 44062.25
231.7041, 44056.77
232.1862, 44049.13
232.6684, 44049.72
233.1505, 44061.48
233.6326, 44070.10
234.1147, 44074.29
234.5968, 44075.75
235.0789, 44076.56
235.5611, 44072.14
236.0432, 44075.06
236.5253, 44092.36
237.0074, 44130.83
237.4895, 44158.34
237.9716, 44167.25
238.4538, 44170.34
238.9359, 44189.55
239.4180, 44237.83
239.9001, 44281.89
240.3822, 44309.73
240.8643, 44315.83
241.3465, 44330.79
241.8286, 44357.52
242.3107, 44390.83
242.7928, 44423.96
243.2749, 44458.19
243.7570, 44489.11
244.2392, 44514.36
244.7213, 44532.46
245.2034, 44554.65
245.6855, 44587.52
246.1676, 44619.54
246.6497, 44634.77
247.1319, 44622.71
247.6140, 44614.44
248.0961, 44618.36
248.5782, 44636.22
249.0603, 44655.54
249.5424, 44675.53
250.0246, 44698.86
250.5067, 44728.49
250.9888, 44764.64
251.4709, 44807.27
251.9530, 44858.20
252.4351, 44918.19
252.9173, 44971.24
253.3994, 45011.26
253.8815, 45050.14
254.3636, 45101.75
254.8457, 45175.55
255.3278, 45236.27
255.8100, 45272.14
256.2921, 45283.77
256.7742, 45306.68
257.2563, 45344.42
257.7384, 45388.35
258.2205, 45432.55
258.7026, 45481.82
259.1848, 45521.36
259.6669, 45547.46
260.1490, 45562.07
260.6311, 45574.99
261.1132, 45583.05
261.5953, 45596.34
262.0775, 45622.87
262.5596, 45666.32
263.0417, 45714.54
263.5238, 45769.54
264.0059, 45827.99
264.4880, 45876.13
264.9702, 45910.07
265.4523, 45938.82
265.9344, 45967.72
266.4165, 45997.39
266.8986, 46023.73
267.3807, 46045.59
267.8629, 46064.18
268.3450, 46086.71
268.8271, 46120.03
269.3092, 46142.45
269.7913, 46136.89
270.2734, 46094.46
270.7556, 46073.37
271.2377, 46081.85
271.7198, 46110.59
272.2019, 46136.40
272.6840, 46157.44
273.1661, 46185.61
273.6483, 46229.31
274.1304, 46290.87
274.6125, 46347.03
275.0946, 46393.90
275.5767, 46438.02
276.0588, 46488.21
276.5410, 46541.66
277.0231, 46608.74
277.5052, 46697.97
277.9873, 46809.30
278.4694, 46901.17
278.9515, 46967.16
279.4337, 47023.80
279.9158, 47096.30
280.3979, 47185.76
280.8800, 47272.86
281.3621, 47353.89
281.8442, 47427.90
282.3264, 47475.34
282.8085, 47492.05
283.2906, 47500.17
283.7727, 47523.32
284.2548, 47562.24
284.7369, 47611.89
285.2191, 47678.28
285.7012, 47754.06
286.1833, 47809.98
286.6654, 47845.21
287.1475, 47867.61
287.6296, 47884.07
288.1118, 47894.12
288.5939, 47892.80
289.0760, 47875.37
289.5581, 47847.59
290.0402, 47822.65
290.5223, 47800.13
291.0045, 47779.77
291.4866, 47761.89
291.9687, 47745.93
292.4508, 47729.30
292.9329, 47711.12
293.4150, 47693.44
293.8972, 47681.71
294.3793, 47675.54
294.8614, 47665.79
295.3435, 47638.02
295.8256, 47602.21
296.3077, 47586.91
296.7899, 47598.07
297.2720, 47624.94
297.7541, 47659.61
298.2362, 47699.66
298.7183, 47734.48
299.2004, 47754.87
299.6826, 47766.14
300.1647, 47777.11
300.6468, 47787.20
301.1289, 47800.18
301.6110, 47822.73
302.0931, 47850.98
302.5753, 47876.32
303.0574, 47893.35
303.5395, 47905.19
304.0216, 47914.45
304.5037, 47921.29
304.9858, 47929.36
305.4680, 47946.55
305.9501, 47967.10
306.4322, 47980.65
306.9143, 47975.62
307.3964, 47968.98
307.8785, 47979.01
308.3607, 48004.51
308.8428, 48030.77
309.3249, 48042.25
309.8070, 48051.23
310.2891, 48072.57
310.7712, 48117.27
311.2534, 48166.07
311.7355, 48204.24
312.2176, 48234.30
312.6997, 48265.80
313.1818, 48306.11
313.6639, 48347.35
314.1461, 48382.52
314.6282, 48406.20
315.1103, 48431.04
315.5924, 48464.23
316.0745, 48502.96
316.5566, 48542.11
317.0388, 48581.88
317.5209, 48619.90
318.0030, 48658.40
318.4851, 48701.76
318.9672, 48730.09
319.4493, 48726.51
319.9315, 48707.23
320.4136, 48693.57
320.8957, 48682.02
321.3778, 48686.16
321.8599, 48715.86
322.3420, 48773.66
322.8242, 48829.29
323.3063, 48881.50
323.7884, 48926.20
324.2705, 48959.88
324.7526, 48964.29
325.2347, 48976.44
325.7169, 49002.42
326.1990, 49042.08
326.6811, 49092.02
327.1632, 49174.63
327.6453, 49251.97
328.1274, 49302.88
328.6096, 49294.04
329.0917, 49299.79
329.5738, 49327.27
330.0559, 49371.03
330.5380, 49414.95
331.0201, 49469.20
331.5023, 49512.73
331.9844, 49534.38
332.4665, 49519.14
332.9486, 49518.54
333.4307, 49537.86
333.9128, 49568.90
334.3950, 49597.52
334.8771, 49622.10
335.3592, 49647.48
335.8413, 49675.45
336.3234, 49706.57
336.8055, 49735.69
337.2877, 49766.24
337.7698, 49789.20
338.2519, 49789.58
338.7340, 49758.11
339.2161, 49740.79
339.6982, 49751.13
340.1803, 49784.49
340.6624, 49811.89
341.1446, 49833.40
341.6267, 49850.49
342.1088, 49861.46
342.5909, 49865.76
343.0730, 49880.75
343.5551, 49912.30
344.0373, 49951.16
344.5194, 49972.46
345.0015, 49975.37
345.4836, 49979.65
345.9657, 49998.23
346.4478, 50028.74
346.9300, 50060.43
347.4121, 50094.54
347.8942, 50124.75
348.3763, 50137.69
348.8584, 50137.25
349.3405, 50144.71
349.8227, 50176.96
350.3048, 50223.24
350.7869, 50264.01
351.2690, 50299.87
351.7511, 50324.83
352.2332, 50323.29
352.7154, 50306.92
353.1975, 50300.38
353.6796, 50312.71
354.1617, 50336.20
354.6438, 50363.93
355.1259, 50394.93
355.6081, 50427.02
356.0902, 50464.78
356.5723, 50498.99
357.0544, 50517.09
357.5365, 50509.43
358.0186, 50498.78
358.5008, 50498.29
358.9829, 50505.69
359.4650, 50516.71
359.9471, 50540.16
360.4292, 50558.98
360.9113, 50560.80
361.3935, 50543.09
361.8756, 50522.74
362.3577, 50498.18
362.8398, 50479.02
363.3219, 50476.02
363.8040, 50526.51
364.2862, 50561.99
364.7683, 50549.70
365.2504, 50492.73
365.7325, 50451.89
366.2146, 50443.57
366.6967, 50452.63
367.1789, 50469.64
367.6610, 50507.57
368.1431, 50537.04
368.6252, 50552.35
369.1073, 50557.32
369.5894, 50563.99
370.0716, 50566.12
370.5537, 50576.18
371.0358, 50600.76
371.5179, 50647.57
372.0000, 50683.96
372.4821, 50702.83
372.9643, 50715.11
373.4464, 50735.54
373.9285, 50766.68
374.4106, 50798.75
374.8927, 50829.87
375.3748, 50859.60
375.8570, 50884.18
376.3391, 50899.25
376.8212, 50917.06
377.3033, 50952.00
377.7854, 51007.41
378.2675, 51051.78
378.7497, 51079.02
379.2318, 51095.17
379.7139, 51120.25
380.1960, 51156.19
380.6781, 51180.42
381.1602, 51168.48
381.6424, 51129.07
382.1245, 51119.60
382.6066, 51147.90
383.0887, 51186.73
383.5708, 51201.82
384.0529, 51197.18
384.5351, 51191.36
385.0172, 51188.99
385.4993, 51191.57
385.9814, 51203.27
386.4635, 51223.54
386.9456, 51245.90
387.4278, 51260.97
387.9099, 51274.85
388.3920, 51298.60
388.8741, 51338.29
389.3562, 51381.66
389.8383, 51421.95
390.3205, 51457.89
390.8026, 51485.36
391.2847, 51487.71
391.7668, 51489.68
392.2489, 51517.25
392.7310, 51580.75
393.2132, 51629.29
393.6953, 51622.45
394.1774, 51591.41
394.6595, 51573.76
395.1416, 51586.56
395.6237, 51609.92
396.1059, 51645.20
396.5880, 51690.76
397.0701, 51721.65
397.5522, 51714.51
398.0343, 51703.77
398.5164, 51710.02
398.9986, 51756.84
399.4807, 51793.08
399.9628, 51815.95
400.4449, 51827.83
400.9270, 51832.68
401.4091, 51816.69
401.8913, 51812.10
402.3734, 51832.23
402.8555, 51882.74
403.3376, 51924.64
403.8197, 51950.00
404.3018, 51975.47
404.7840, 52021.82
405.2661, 52096.94
405.7482, 52164.46
406.2303, 52218.70
406.7124, 52259.27
407.1945, 52282.54
407.6767, 52283.62
408.1588, 52288.21
408.6409, 52321.49
409.1230, 52379.89
409.6051, 52413.34
410.0872, 52412.92
410.5694, 52401.49
411.0515, 52413.20
411.5336, 52445.59
412.0157, 52482.09
412.4978, 52519.34
412.9799, 52555.62
413.4621, 52588.01
413.9442, 52617.30
414.4263, 52642.36
414.9084, 52652.91
415.3905, 52661.68
415.8727, 52691.52
416.3548, 52759.68
416.8369, 52832.90
417.3190, 52881.10
417.8011, 52911.73
418.2832, 52945.36
418.7654, 52990.40
419.2475, 53042.00
419.7296, 53095.52
420.2117, 53149.96
420.6938, 53209.14
421.1759, 53270.60
421.6581, 53338.08
422.1402, 53416.58
422.6223, 53528.04
423.1044, 53627.24
423.5865, 53691.67
424.0686, 53726.92
424.5508, 53780.55
425.0329, 53875.24
425.5150, 53974.23
425.9971, 54059.40
426.4792, 54112.82
426.9613, 54191.27
427.4435, 54304.59
427.9256, 54438.07
428.4077, 54570.84
428.8898, 54712.53
429.3719, 54836.11
429.8540, 54933.55
430.3362, 55005.80
430.8183, 55074.58
431.3004, 55144.76
431.7825, 55196.26
432.2646, 55204.86
432.7467, 55170.39
433.2289, 55140.80
433.7110, 55124.45
434.1931, 55112.27
434.6752, 55089.89
435.1573, 55057.07
435.6394, 55014.63
436.1216, 54947.66
436.6036, 54873.40
437.0858, 54834.06
437.5679, 54830.50
438.0500, 54841.57
438.5321, 54859.78
439.0142, 54878.06
439.4963, 54882.26
439.9785, 54854.20
440.4606, 54831.13
440.9427, 54852.76
441.4248, 54906.49
441.9069, 54953.87
442.3890, 54986.92
442.8712, 55001.32
443.3533, 54989.63
443.8354, 54946.14
444.3175, 54903.73
444.7996, 54874.96
445.2817, 54852.18
445.7639, 54826.96
446.2460, 54786.58
446.7281, 54754.55
447.2102, 54742.27
447.6923, 54744.70
448.1744, 54730.48
448.6566, 54689.37
449.1387, 54639.92
449.6208, 54588.73
450.1029, 54532.54
450.5850, 54481.99
451.0671, 54440.21
451.5493, 54401.37
452.0314, 54354.28
452.5135, 54294.49
452.9956, 54251.50
453.4777, 54244.02
453.9598, 54258.57
454.4420, 54227.16
454.9241, 54145.57
455.4062, 54061.92
455.8883, 54011.83
456.3704, 53990.68
456.8525, 53982.92
457.3347, 53991.39
457.8168, 53997.11
458.2989, 53964.35
458.7810, 53907.51
459.2631, 53869.80
459.7452, 53891.84
460.2274, 53929.47
460.7095, 53929.18
461.1916, 53895.86
461.6737, 53866.09
462.1558, 53862.05
462.6379, 53871.52
463.1201, 53883.64
463.6022, 53896.67
464.0843, 53910.63
464.5664, 53924.31
465.0485, 53938.51
465.5306, 53954.68
466.0128, 53986.40
466.4949, 54006.36
466.9770, 53997.85
467.4591, 53959.34
467.9412, 53940.21
468.4233, 53954.25
468.9055, 53977.17
469.3876, 53996.14
469.8697, 54011.61
470.3518, 54023.08
470.8339, 54027.23
471.3160, 54031.38
471.7982, 54053.15
472.2803, 54100.14
472.7624, 54134.54
473.2445, 54135.32
473.7266, 54111.28
474.2087, 54118.34
474.6909, 54158.40
475.1730, 54207.87
475.6551, 54248.82
476.1372, 54281.60
476.6193, 54307.72
477.1014, 54324.20
477.5836, 54340.85
478.0657, 54375.65
478.5478, 54421.21
479.0299, 54456.34
479.5120, 54464.38
479.9941, 54462.49
480.4763, 54462.99
480.9584, 54466.96
481.4405, 54479.79
481.9226, 54523.94
482.4047, 54567.61
482.8868, 54581.61
483.3690, 54541.07
483.8511, 54511.22
484.3332, 54517.79
484.8153, 54545.48
485.2974, 54569.29
485.7795, 54588.67
486.2617, 54600.45
486.7438, 54599.05
487.2259, 54584.97
487.7080, 54585.16
488.1901, 54607.38
488.6722, 54634.09
489.1544, 54655.60
489.6365, 54671.20
490.1186, 54683.81
490.6007, 54692.41
491.0828, 54699.94
491.5649, 54712.31
492.0471, 54729.63
492.5292, 54743.31
493.0113, 54745.93
493.4934, 54744.36
493.9755, 54760.94
494.4576, 54794.26
494.9398, 54827.16
495.4219, 54844.17
495.9040, 54851.90
496.3861, 54861.14
496.8682, 54872.68
497.3503, 54887.89
497.8325, 54919.63
498.3146, 54953.79
498.7967, 54969.18
499.2788, 54937.82
499.7609, 54905.36
500.2430, 54904.24
500.7252, 54925.82
501.2073, 54928.41
501.6894, 54865.45
502.1715, 54810.23
502.6536, 54804.39
503.1357, 54880.43
503.6179, 54923.95
504.1000, 54903.98
504.5821, 54868.92
505.0642, 54866.70
505.5463, 54908.53
506.0284, 54957.56
506.5106, 55012.74
506.9927, 55068.38
507.4748, 55104.30
507.9569, 55115.80
508.4390, 55125.85
508.9211, 55145.05
509.4033, 55172.21
509.8854, 55201.84
510.3675, 55234.25
510.8496, 55264.89
511.3317, 55286.54
511.8138, 55303.07
512.2960, 55327.26
512.7781, 55369.82
513.2602, 55406.11
513.7423, 55396.62
514.2244, 55360.26
514.7065, 55342.73
515.1887, 55403.27
515.6708, 55461.15
516.1529, 55447.38
516.6350, 55363.02
517.1171, 55304.86
517.5992, 55323.75
518.0814, 55369.61
518.5635, 55411.24
519.0456, 55449.88
519.5277, 55475.80
520.0098, 55477.16
520.4919, 55470.36
520.9741, 55479.73
521.4562, 55510.43
521.9383, 55546.54
522.4204, 55586.89
522.9025, 55629.56
523.3846, 55663.76
523.8668, 55687.80
524.3489, 55707.05
524.8310, 55723.68
525.3131, 55737.77
525.7952, 55748.46
526.2773, 55753.97
526.7595, 55766.08
527.2416, 55815.29
527.7237, 55882.24
528.2058, 55915.28
528.6879, 55885.13
529.1700, 55835.75
529.6522, 55798.83
530.1343, 55777.05
530.6164, 55775.96
531.0985, 55822.92
531.5806, 55873.36
532.0627, 55892.86
532.5449, 55876.58
533.0270, 55878.37
533.5091, 55926.04
533.9912, 55988.57
534.4733, 56043.34
534.9554, 56089.02
535.4376, 56125.01
535.9197, 56141.11
536.4018, 56151.06
536.8839, 56179.90
537.3660, 56234.71
537.8481, 56288.13
538.3303, 56333.50
538.8124, 56371.33
539.2945, 56403.26
539.7766, 56427.90
540.2587, 56459.05
540.7408, 56510.85
541.2230, 56578.23
541.7051, 56640.12
542.1872, 56695.29
542.6693, 56747.76
543.1514, 56803.57
543.6335, 56860.18
544.1157, 56914.41
544.5978, 56969.03
545.0799, 57016.36
545.5620, 57052.27
546.0441, 57076.53
546.5262, 57088.38
547.0084, 57097.88
547.4905, 57085.21
547.9726, 57030.60
548.4547, 56928.70
548.9368, 56846.09
549.4189, 56794.59
549.9011, 56757.70
550.3832, 56726.91
550.8653, 56704.09
551.3474, 56679.75
551.8295, 56649.74
552.3116, 56621.99
552.7938, 56610.42
553.2759, 56616.39
553.7580, 56624.58
554.2401, 56634.55
554.7222, 56641.29
555.2043, 56628.32
555.6865, 56597.64
556.1686, 56566.81
556.6507, 56542.64
557.1328, 56527.73
557.6149, 56528.36
558.0970, 56545.50
558.5792, 56566.94
559.0613, 56592.96
559.5434, 56615.46
560.0255, 56624.43
560.5076, 56606.43
560.9897, 56595.74
561.4719, 56607.78
561.9540, 56633.36
562.4361, 56656.88
562.9182, 56673.87
563.4003, 56690.46
563.8824, 56704.43
564.3646, 56716.84
564.8467, 56740.61
565.3288, 56779.48
565.8109, 56819.59
566.2930, 56853.32
566.7751, 56879.67
567.2573, 56909.41
567.7394, 56944.29
568.2215, 56973.36
568.7036, 56977.15
569.1857, 56964.18
569.6678, 56969.48
570.1500, 57006.10
570.6321, 57049.39
571.1142, 57076.17
571.5963, 57088.16
572.0784, 57088.80
572.5605, 57060.92
573.0427, 57039.70
573.5248, 57056.67
574.0069, 57105.27
574.4890, 57139.11
574.9711, 57128.25
575.4532, 57112.23
575.9354, 57111.05
576.4175, 57130.45
576.8996, 57149.13
577.3817, 57167.02
577.8638, 57184.07
578.3459, 57196.34
578.8281, 57196.21
579.3102, 57223.65
579.7923, 57291.30
580.2744, 57374.54
580.7565, 57425.15
581.2386, 57444.15
581.7208, 57456.01
582.2029, 57472.25
582.6850, 57485.24
583.1671, 57482.10
583.6492, 57463.66
584.1313, 57434.69
584.6134, 57382.42
585.0955, 57331.12
585.5776, 57305.27
586.0598, 57309.29
586.5419, 57322.53
587.0240, 57360.96
587.5061, 57391.54
587.9882, 57386.02
588.4703, 57291.67
588.9525, 57228.39
589.4346, 57208.60
589.9167, 57218.02
590.3988, 57236.52
590.8809, 57268.57
591.3630, 57294.58
591.8452, 57307.96
592.3273, 57311.34
592.8094, 57313.14
593.2915, 57312.19
593.7736, 57319.66
594.2557, 57353.96
594.7379, 57400.25
595.2200, 57414.86
595.7021, 57397.14
596.1842, 57377.15
596.6663, 57381.58
597.1484, 57396.92
597.6306, 57406.95
598.1127, 57407.93
598.5948, 57406.62
599.0769, 57407.21
599.5590, 57407.88
600.0411, 57406.05
600.5233, 57404.90
601.0054, 57397.73
601.4875, 57376.17
601.9696, 57348.42
602.4517, 57340.38
602.9338, 57361.57
603.4160, 57381.89
603.8981, 57388.92
604.3802, 57384.79
604.8623, 57392.33
605.3444, 57412.45
605.8265, 57436.60
606.3087, 57454.61
606.7908, 57471.11
607.2729, 57501.94
607.7550, 57549.41
608.2371, 57600.27
608.7192, 57642.28
609.2014, 57680.48
609.6835, 57724.90
610.1656, 57790.12
610.6477, 57840.02
611.1298, 57839.45
611.6119, 57816.29
612.0941, 57820.63
612.5762, 57899.57
613.0583, 57964.34
613.5404, 57987.46
614.0225, 57978.88
614.5046, 57997.74
614.9868, 58057.81
615.4689, 58113.30
615.9510, 58139.10
616.4331, 58137.11
616.9152, 58152.00
617.3973, 58184.60
617.8795, 58224.93
618.3616, 58271.87
618.8437, 58318.72
619.3258, 58346.44
619.8079, 58350.74
620.2900, 58348.54
620.7722, 58356.97
621.2543, 58367.93
621.7364, 58369.69
622.2185, 58351.43
622.7006, 58332.89
623.1827, 58320.95
623.6649, 58313.37
624.1470, 58304.54
624.6291, 58290.42
625.1112, 58278.55
625.5933, 58271.14
626.0754, 58266.98
626.5576, 58260.41
627.0397, 58251.39
627.5218, 58237.66
628.0039, 58210.52
628.4860, 58173.54
628.9681, 58164.05
629.4503, 58183.78
629.9324, 58208.86
630.4145, 58224.84
630.8966, 58230.67
631.3787, 58219.92
631.8608, 58186.86
632.3430, 58160.72
632.8251, 58167.79
633.3072, 58191.79
633.7893, 58212.54
634.2714, 58217.23
634.7535, 58227.39
635.2357, 58250.43
635.7178, 58281.55
636.1999, 58310.57
636.6820, 58338.95
637.1641, 58359.32
637.6462, 58363.44
638.1284, 58356.81
638.6105, 58377.78
639.0926, 58429.89
639.5747, 58469.93
640.0568, 58455.21
640.5389, 58409.20
641.0211, 58406.68
641.5032, 58447.81
641.9853, 58493.77
642.4674, 58517.21
642.9495, 58528.10
643.4316, 58535.99
643.9138, 58541.74
644.3959, 58550.48
644.8780, 58569.95
645.3601, 58591.73
645.8422, 58607.05
646.3243, 58597.44
646.8065, 58607.06
647.2886, 58650.46
647.7707, 58707.16
648.2528, 58741.04
648.7349, 58748.24
649.2170, 58746.25
649.6992, 58733.86
650.1813, 58719.63
650.6634, 58728.45
651.1455, 58758.45
651.6276, 58791.80
652.1097, 58812.89
652.5919, 58834.98
653.0740, 58880.48
653.5561, 58946.33
654.0382, 59009.76
654.5203, 59068.22
655.0024, 59110.83
655.4846, 59124.94
655.9667, 59100.68
656.4488, 59086.83
656.9309, 59098.76
657.4130, 59115.89
657.8951, 59123.66
658.3773, 59115.29
658.8594, 59118.36
659.3415, 59138.65
659.8236, 59161.12
660.3057, 59164.35
660.7878, 59149.83
661.2700, 59132.96
661.7521, 59116.68
662.2342, 59101.74
662.7163, 59090.08
663.1984, 59080.97
663.6805, 59071.80
664.1627, 59060.43
664.6448, 59050.73
665.1269, 59050.53
665.6090, 59055.80
666.0911, 59050.18
666.5732, 59006.40
667.0554, 58975.96
667.5375, 58977.90
668.0196, 59011.92
668.5017, 59047.60
668.9838, 59087.10
669.4659, 59122.19
669.9481, 59148.08
670.4302, 59164.12
670.9123, 59172.04
671.3944, 59171.45
671.8765, 59160.05
672.3586, 59115.71
672.8408, 59064.32
673.3229, 59060.07
673.8050, 59122.87
674.2871, 59179.57
674.7692, 59175.86
675.2513, 59142.99
675.7335, 59115.14
676.2156, 59100.94
676.6977, 59095.18
677.1798, 59110.63
677.6619, 59130.66
678.1440, 59124.14
678.6262, 59069.20
679.1083, 59049.75
679.5904, 59092.06
680.0725, 59171.15
680.5546, 59226.04
681.0367, 59257.57
681.5189, 59289.57
682.0010, 59340.88
682.4831, 59392.80
682.9652, 59414.01
683.4473, 59408.58
683.9294, 59400.14
684.4116, 59394.82
684.8937, 59395.83
685.3758, 59412.70
685.8579, 59446.99
686.3400, 59460.55
686.8221, 59415.22
687.3043, 59376.55
687.7864, 59378.04
688.2685, 59428.67
688.7506, 59474.54
689.2327, 59518.12
689.7148, 59552.46
690.1970, 59565.95
690.6791, 59562.45
691.1612, 59566.50
691.6433, 59581.75
692.1254, 59598.73
692.6075, 59615.84
693.0897, 59626.17
693.5718, 59617.00
694.0539, 59573.20
694.5360, 59531.96
695.0181, 59506.01
695.5002, 59494.48
695.9824, 59495.12
696.4645, 59509.07
696.9466, 59535.54
697.4287, 59584.76
697.9108, 59642.51
698.3929, 59665.07
698.8751, 59643.33
699.3572, 59645.18
699.8393, 59706.73
700.3214, 59795.19
700.8035, 59826.27
701.2856, 59808.04
701.7678, 59788.39
702.2499, 59793.56
702.7320, 59810.39
703.2141, 59828.37
703.6962, 59846.80
704.1783, 59865.46
704.6605, 59880.42
705.1426, 59897.71
705.6247, 59923.66
706.1068, 59960.29
706.5889, 59978.73
707.0710, 59969.45
707.5532, 59957.18
708.0353, 59962.13
708.5174, 59984.52
708.9995, 59984.37
709.4816, 59958.82
709.9637, 59929.98
710.4459, 59917.77
710.9280, 59918.91
711.4101, 59930.81
711.8922, 59957.49
712.3743, 59978.00
712.8564, 59970.44
713.3386, 59955.05
713.8207, 59953.02
714.3028, 59978.81
714.7849, 60003.93
715.2670, 60023.73
715.7491, 60042.27
716.2313, 60065.38
716.7134, 60093.02
717.1955, 60119.34
717.6776, 60143.03
718.1597, 60162.43
718.6418, 60170.02
719.1240, 60168.70
719.6061, 60177.61
720.0882, 60214.54
720.5703, 60249.95
721.0524, 60249.52
721.5345, 60223.90
722.0167, 60198.91
722.4988, 60185.75
722.9809, 60175.09
723.4630, 60167.97
723.9451, 60163.27
724.4272, 60151.13
724.9094, 60126.68
725.3915, 60108.48
725.8736, 60106.85
726.3557, 60118.47
726.8378, 60113.54
727.3199, 60091.89
727.8021, 60090.78
728.2842, 60157.91
728.7663, 60249.86
729.2484, 60288.75
729.7305, 60276.16
730.2126, 60262.18
730.6948, 60262.93
731.1769, 60279.04
731.6590, 60319.79
732.1411, 60393.37
732.6232, 60431.17
733.1053, 60400.11
733.5875, 60364.73
734.0696, 60367.07
734.5517, 60414.50
735.0338, 60445.14
735.5159, 60460.05
735.9980, 60458.34
736.4802, 60425.38
736.9623, 60377.08
737.4444, 60359.36
737.9265, 60381.25
738.4086, 60412.23
738.8907, 60432.54
739.3729, 60448.36
739.8550, 60468.05
740.3371, 60507.54
740.8192, 60521.65
741.3013, 60461.66
741.7834, 60397.01
742.2656, 60402.91
742.7477, 60510.34
743.2298, 60573.04
743.7119, 60562.89
744.1940, 60528.68
744.6761, 60550.46
745.1583, 60615.42
745.6404, 60662.24
746.1225, 60674.26
746.6046, 60664.76
747.0867, 60628.89
747.5688, 60584.46
748.0510, 60561.92
748.5331, 60601.31
749.0152, 60630.66
749.4973, 60623.08
749.9794, 60595.24
750.4615, 60576.68
750.9437, 60560.96
751.4258, 60576.36
751.9079, 60644.78
752.3900, 60733.62
752.8721, 60749.23
753.3542, 60700.08
753.8364, 60669.91
754.3185, 60706.69
754.8006, 60766.96
755.2827, 60804.74
755.7648, 60823.77
756.2469, 60834.43
756.7291, 60825.20
757.2112, 60824.08
757.6933, 60849.81
758.1754, 60895.75
758.6575, 60924.50
759.1396, 60928.17
759.6218, 60929.23
760.1039, 60937.34
760.5860, 60948.68
761.0681, 60937.91
761.5502, 60906.50
762.0323, 60892.55
762.5145, 60932.29
762.9966, 60995.51
763.4787, 61049.16
763.9608, 61091.68
764.4429, 61116.84
764.9250, 61098.39
765.4072, 61083.14
765.8893, 61100.80
766.3714, 61154.30
766.8535, 61191.20
767.3356, 61199.70
767.8177, 61211.71
768.2999, 61248.02
768.7820, 61303.50
769.2641, 61326.52
769.7462, 61315.14
770.2283, 61302.64
770.7104, 61310.49
771.1926, 61332.80
771.6747, 61368.27
772.1568, 61415.41
772.6389, 61451.83
773.1210, 61467.00
773.6031, 61468.48
774.0853, 61460.94
774.5674, 61445.71
775.0495, 61416.95
775.5316, 61361.41
776.0137, 61318.10
776.4958, 61320.75
776.9780, 61367.10
777.4601, 61390.94
777.9422, 61391.04
778.4243, 61384.33
778.9064, 61382.58
779.3885, 61383.96
779.8707, 61387.12
780.3528, 61392.08
780.8349, 61393.06
781.3170, 61376.14
781.7991, 61361.72
782.2812, 61367.73
782.7633, 61404.22
783.2454, 61422.60
783.7275, 61416.90
784.2097, 61403.13
784.6918, 61388.07
785.1739, 61373.91
785.6560, 61390.75
786.1381, 61444.25
786.6202, 61486.86
787.1024, 61459.17
787.5845, 61402.75
788.0666, 61368.62
788.5487, 61366.04
789.0308, 61379.75
789.5129, 61406.70
789.9951, 61446.49
790.4772, 61500.95
790.9593, 61583.33
791.4414, 61637.58
791.9235, 61654.39
792.4056, 61664.25
792.8878, 61702.55
793.3699, 61761.42
793.8520, 61802.54
794.3341, 61821.66
794.8162, 61825.09
795.2983, 61812.21
795.7805, 61790.43
796.2626, 61765.82
796.7447, 61735.86
797.2268, 61717.54
797.7089, 61721.54
798.1910, 61735.58
798.6732, 61753.24
799.1553, 61780.83
799.6374, 61787.42
800.1195, 61765.04
800.6016, 61747.50
801.0837, 61782.66
801.5659, 61852.30
802.0480, 61900.00
802.5301, 61916.73
803.0122, 61917.52
803.4943, 61897.94
803.9764, 61875.97
804.4586, 61868.92
804.9407, 61881.25
805.4228, 61904.29
805.9049, 61940.36
806.3870, 61981.52
806.8691, 62022.57
807.3513, 62063.01
807.8334, 62105.48
808.3155, 62152.32
808.7976, 62187.26
809.2797, 62190.18
809.7618, 62169.27
810.2440, 62135.72
810.7261, 62087.70
811.2082, 62050.93
811.6903, 62048.49
812.1724, 62058.39
812.6545, 62060.49
813.1367, 62042.94
813.6188, 62045.46
814.1009, 62079.98
814.5830, 62115.82
815.0651, 62127.56
815.5472, 62116.38
816.0294, 62087.07
816.5115, 62038.74
816.9936, 61996.68
817.4757, 61988.07
817.9578, 61999.22
818.4399, 62017.20
818.9221, 62042.94
819.4042, 62060.28
819.8863, 62043.15
820.3684, 62032.62
820.8505, 62059.88
821.3326, 62139.48
821.8148, 62194.31
822.2969, 62218.46
822.7790, 62233.27
823.2611, 62256.80
823.7432, 62284.13
824.2253, 62298.30
824.7075, 62296.61
825.1896, 62296.92
825.6717, 62308.50
826.1538, 62328.89
826.6359, 62364.79
827.1180, 62425.68
827.6002, 62444.73
828.0823, 62382.43
828.5644, 62321.13
829.0465, 62316.64
829.5286, 62372.09
830.0107, 62389.34
830.4929, 62366.96
830.9750, 62340.01
831.4571, 62344.97
831.9392, 62360.84
832.4213, 62355.77
832.9034, 62328.61
833.3856, 62291.18
833.8677, 62210.87
834.3498, 62154.69
834.8319, 62180.71
835.3140, 62293.07
835.7961, 62346.02
836.2783, 62317.24
836.7604, 62288.31
837.2425, 62311.50
837.7246, 62370.68
838.2067, 62391.86
838.6888, 62379.62
839.1710, 62383.41
839.6531, 62458.94
840.1352, 62544.75
840.6173, 62585.59
841.0994, 62583.72
841.5815, 62588.63
842.0637, 62622.50
842.5458, 62647.75
843.0279, 62652.90
843.5100, 62639.51
843.9921, 62611.75
844.4742, 62569.10
844.9564, 62538.74
845.4385, 62545.60
845.9206, 62566.84
846.4027, 62570.94
846.8848, 62561.14
847.3669, 62545.63
847.8491, 62521.80
848.3312, 62502.18
848.8133, 62493.60
849.2954, 62494.47
849.7775, 62495.06
850.2596, 62487.49
850.7418, 62506.30
851.2239, 62567.18
851.7060, 62651.25
852.1881, 62719.16
852.6702, 62772.25
853.1523, 62816.54
853.6345, 62846.63
854.1166, 62875.39
854.5987, 62914.00
855.0808, 62954.91
855.5629, 62985.86
856.0450, 63000.91
856.5272, 63010.04
857.0093, 63018.96
857.4914, 63018.69
857.9735, 62984.70
858.4556, 62921.04
858.9377, 62881.05
859.4199, 62884.58
859.9020, 62898.93
860.3841, 62888.89
860.8662, 62868.25
861.3483, 62856.91
861.8304, 62869.15
862.3126, 62876.87
862.7947, 62854.94
863.2768, 62837.82
863.7589, 62860.80
864.2410, 62933.22
864.7231, 62985.48
865.2053, 63008.19
865.6874, 63025.25
866.1695, 63074.75
866.6516, 63133.55
867.1337, 63150.37
867.6158, 63111.76
868.0980, 63074.75
868.5801, 63065.35
869.0622, 63072.41
869.5443, 63094.36
870.0264, 63140.89
870.5085, 63157.12
870.9907, 63138.18
871.4728, 63106.89
871.9549, 63072.95
872.4370, 63041.19
872.9191, 63033.18
873.4012, 63048.38
873.8834, 63065.17
874.3655, 63066.55
874.8476, 63065.08
875.3297, 63068.63
875.8118, 63077.23
876.2939, 63089.00
876.7761, 63094.19
877.2582, 63115.86
877.7403, 63172.21
878.2224, 63249.95
878.7045, 63277.98
879.1866, 63259.65
879.6688, 63239.96
880.1509, 63237.61
880.6330, 63249.76
881.1151, 63287.30
881.5972, 63338.20
882.0793, 63367.33
882.5615, 63338.76
883.0436, 63320.05
883.5257, 63330.24
884.0078, 63356.63
884.4899, 63370.92
884.9720, 63373.02
885.4542, 63372.46
885.9363, 63370.24
886.4184, 63370.90
886.9005, 63379.64
887.3826, 63395.61
887.8647, 63416.98
888.3469, 63441.80
888.8290, 63474.15
889.3111, 63531.73
889.7932, 63586.32
890.2753, 63603.89
890.7574, 63569.64
891.2396, 63568.29
891.7217, 63611.27
892.2038, 63657.32
892.6859, 63648.26
893.1680, 63612.54
893.6501, 63609.77
894.1323, 63650.16
894.6144, 63698.50
895.0965, 63753.37
895.5786, 63798.03
896.0607, 63817.22
896.5428, 63808.07
897.0250, 63809.50
897.5071, 63822.74
897.9892, 63845.32
898.4713, 63881.32
898.9534, 63924.98
899.4355, 63958.89
899.9177, 63983.95
900.3998, 64009.13
900.8819, 64036.48
901.3640, 64066.26
901.8461, 64096.35
902.3282, 64126.73
902.8104, 64164.48
903.2925, 64218.65
903.7746, 64252.18
904.2567, 64245.22
904.7388, 64220.06
905.2209, 64240.10
905.7031, 64291.50
906.1852, 64315.28
906.6673, 64266.73
907.1494, 64220.41
907.6315, 64233.44
908.1136, 64280.37
908.5958, 64320.98
909.0779, 64347.42
909.5600, 64377.98
910.0421, 64417.80
910.5242, 64457.44
911.0063, 64478.65
911.4885, 64487.61
911.9706, 64516.82
912.4527, 64571.35
912.9348, 64636.54
913.4169, 64705.71
913.8990, 64775.95
914.3812, 64842.69
914.8633, 64901.74
915.3454, 64970.43
915.8275, 65049.28
916.3096, 65134.70
916.7917, 65228.65
917.2739, 65327.60
917.7560, 65415.70
918.2381, 65491.79
918.7202, 65549.79
919.2023, 65560.84
919.6844, 65572.52
920.1666, 65635.52
920.6487, 65737.63
921.1308, 65807.48
921.6129, 65807.36
922.0950, 65824.28
922.5771, 65884.89
923.0593, 65970.51
923.5414, 66034.40
924.0235, 66079.46
924.5056, 66122.09
924.9877, 66162.05
925.4698, 66214.55
925.9520, 66303.26
926.4341, 66409.74
926.9162, 66506.91
927.3983, 66550.24
927.8804, 66647.55
928.3625, 66820.06
928.8447, 67014.37
929.3268, 67172.15
929.8089, 67297.67
930.2910, 67436.91
930.7731, 67594.38
931.2552, 67761.56
931.7374, 67939.57
932.2195, 68121.74
932.7016, 68297.85
933.1837, 68462.52
933.6658, 68667.16
934.1479, 68949.85
934.6301, 69211.93
935.1122, 69398.66
935.5943, 69534.54
936.0764, 69728.91
936.5585, 69976.60
937.0406, 70223.59
937.5228, 70441.09
938.0049, 70651.76
938.4870, 70885.70
938.9691, 71125.73
939.4512, 71328.80
939.9333, 71492.41
940.4155, 71618.55
940.8976, 71704.03
941.3797, 71755.86
941.8618, 71792.34
942.3439, 71804.93
942.8260, 71752.83
943.3082, 71623.65
943.7903, 71448.20
944.2724, 71235.30
944.7545, 70996.77
945.2366, 70740.34
945.7188, 70465.55
946.2009, 70175.28
946.6830, 69869.30
947.1651, 69545.90
947.6472, 69187.48
948.1293, 68812.29
948.6115, 68485.48
949.0936, 68207.03
949.5757, 67958.65
950.0578, 67751.05
950.5399, 67554.68
951.0220, 67335.90
951.5042, 67113.05
951.9863, 66960.83
952.4684, 66910.45
952.9505, 66849.23
953.4326, 66748.77
953.9147, 66631.63
954.3969, 66525.23
954.8790, 66433.95
955.3611, 66370.48
955.8432, 66343.05
956.3253, 66332.21
956.8074, 66332.93
957.2896, 66341.40
957.7717, 66352.55
958.2538, 66362.48
958.7359, 66381.04
959.2180, 66404.74
959.7001, 66444.05
960.1823, 66530.78
960.6644, 66629.95
961.1465, 66651.92
961.6286, 66604.34
962.1107, 66577.24
962.5928, 66659.68
963.0750, 66722.46
963.5571, 66695.63
964.0392, 66606.80
964.5213, 66568.95
965.0034, 66594.53
965.4855, 66570.15
965.9677, 66455.63
966.4498, 66292.27
966.9319, 66098.70
967.4140, 65909.45
967.8961, 65794.41
968.3782, 65837.32
968.8604, 65833.88
969.3425, 65707.42
969.8246, 65554.18
970.3067, 65449.60
970.7888, 65395.32
971.2709, 65339.02
971.7531, 65277.21
972.2352, 65238.22
972.7173, 65267.13
973.1994, 65312.69
973.6815, 65316.48
974.1636, 65279.29
974.6458, 65257.18
975.1279, 65269.46
975.6100, 65282.33
976.0921, 65283.96
976.5742, 65281.56
977.0563, 65298.20
977.5385, 65331.13
978.0206, 65362.40
978.5027, 65386.30
978.9848, 65407.33
979.4669, 65443.56
979.9490, 65473.61
980.4311, 65467.61
980.9132, 65405.55
981.3953, 65345.17
981.8774, 65280.80
982.3596, 65234.04
982.8417, 65241.05
983.3238, 65279.74
983.8059, 65273.63
984.2880, 65224.03
984.7701, 65194.95
985.2523, 65247.75
985.7344, 65305.95
986.2165, 65322.99
986.6986, 65309.08
987.1807, 65310.42
987.6628, 65330.31
988.1450, 65342.66
988.6271, 65336.20
989.1092, 65326.04
989.5913, 65338.98
990.0734, 65364.04
990.5555, 65380.36
991.0377, 65377.79
991.5198, 65376.73
992.0019, 65384.60
992.4840, 65394.54
992.9661, 65398.44
993.4482, 65395.84
993.9304, 65417.42
994.4125, 65464.48
994.8946, 65504.63
995.3767, 65502.83
995.8588, 65492.58
996.3409, 65507.86
996.8231, 65544.71
997.3052, 65572.98
997.7873, 65587.86
998.2694, 65591.15
998.7515, 65574.95
999.2336, 65556.61
999.7158, 65578.64
1000.198, 65630.09
1000.680, 65674.86
1001.162, 65708.34
1001.644, 65714.54
1002.126, 65659.16
1002.608, 65587.30
1003.091, 65539.15
1003.573, 65516.51
1004.055, 65514.86
1004.537, 65539.60
1005.019, 65561.20
1005.501, 65554.24
1005.983, 65534.68
1006.465, 65531.76
1006.948, 65541.72
1007.430, 65548.07
1007.912, 65549.51
1008.394, 65539.15
1008.876, 65502.63
1009.358, 65463.56
1009.840, 65472.14
1010.322, 65526.55
1010.804, 65560.89
1011.287, 65563.14
1011.769, 65550.71
1012.251, 65513.18
1012.733, 65486.04
1013.215, 65518.19
1013.697, 65632.23
1014.179, 65689.13
1014.661, 65661.45
1015.143, 65627.78
1015.626, 65627.54
1016.108, 65649.06
1016.590, 65658.48
1017.072, 65658.51
1017.554, 65658.77
1018.036, 65656.14
1018.518, 65663.55
1019.000, 65698.26
1019.483, 65740.09
1019.965, 65758.55
1020.447, 65746.04
1020.929, 65753.56
1021.411, 65787.16
1021.893, 65821.51
1022.375, 65828.34
1022.857, 65823.48
1023.339, 65833.09
1023.822, 65857.67
1024.304, 65857.49
1024.786, 65786.28
1025.268, 65743.43
1025.750, 65768.18
1026.232, 65834.56
1026.714, 65867.93
1027.196, 65876.09
1027.679, 65898.79
1028.161, 65959.70
1028.643, 66013.47
1029.125, 66024.19
1029.607, 66015.73
1030.089, 66011.59
1030.571, 66009.22
1031.053, 66021.95
1031.536, 66049.68
1032.018, 66088.63
1032.500, 66140.99
1032.982, 66198.90
1033.464, 66247.43
1033.946, 66288.77
1034.428, 66336.18
1034.910, 66412.16
1035.392, 66473.05
1035.875, 66514.90
1036.357, 66534.57
1036.839, 66515.18
1037.321, 66462.80
1037.803, 66433.84
1038.285, 66441.22
1038.767, 66444.66
1039.249, 66400.45
1039.731, 66346.77
1040.214, 66311.73
1040.696, 66297.87
1041.178, 66311.10
1041.660, 66363.80
1042.142, 66393.19
1042.624, 66357.49
1043.106, 66298.05
1043.588, 66296.26
1044.071, 66328.46
1044.553, 66340.49
1045.035, 66286.72
1045.517, 66254.01
1045.999, 66277.83
1046.481, 66309.07
1046.963, 66293.88
1047.445, 66237.09
1047.927, 66219.15
1048.410, 66241.82
1048.892, 66274.43
1049.374, 66305.90
1049.856, 66329.21
1050.338, 66343.55
1050.820, 66344.70
1051.302, 66311.83
1051.784, 66219.23
1052.266, 66188.36
1052.749, 66257.68
1053.231, 66357.16
1053.713, 66397.85
1054.195, 66398.71
1054.677, 66383.48
1055.159, 66349.33
1055.641, 66344.34
1056.123, 66401.92
1056.606, 66469.30
1057.088, 66526.16
1057.570, 66573.32
1058.052, 66613.24
1058.534, 66646.11
1059.016, 66674.23
1059.498, 66692.17
1059.980, 66714.25
1060.463, 66744.49
1060.945, 66787.02
1061.427, 66848.52
1061.909, 66933.34
1062.391, 67018.28
1062.873, 67101.78
1063.355, 67185.53
1063.837, 67282.15
1064.319, 67372.77
1064.802, 67422.05
1065.284, 67435.66
1065.766, 67457.72
1066.248, 67497.18
1066.730, 67552.45
1067.212, 67631.80
1067.694, 67717.02
1068.176, 67767.73
1068.658, 67794.53
1069.141, 67841.51
1069.623, 67922.81
1070.105, 67982.73
1070.587, 67998.80
1071.069, 67972.37
1071.551, 67896.52
1072.033, 67777.13
1072.515, 67673.12
1072.998, 67586.80
1073.480, 67491.67
1073.962, 67358.62
1074.444, 67239.05
1074.926, 67212.81
1075.408, 67229.91
1075.890, 67212.21
1076.372, 67111.15
1076.854, 67044.13
1077.337, 67022.85
1077.819, 67004.46
1078.301, 66941.76
1078.783, 66859.97
1079.265, 66824.53
1079.747, 66829.39
1080.229, 66834.65
1080.711, 66827.63
1081.193, 66810.80
1081.676, 66770.89
1082.158, 66734.04
1082.640, 66756.36
1083.122, 66829.38
1083.604, 66871.18
1084.086, 66868.23
1084.568, 66856.66
1085.050, 66865.86
1085.532, 66875.04
1086.015, 66875.52
1086.497, 66864.66
1086.979, 66807.78
1087.461, 66692.66
1087.943, 66623.69
1088.425, 66651.22
1088.907, 66707.20
1089.389, 66710.41
1089.872, 66682.23
1090.354, 66647.89
1090.836, 66595.65
1091.318, 66595.70
1091.800, 66674.32
1092.282, 66752.55
1092.764, 66777.07
1093.246, 66764.65
1093.729, 66762.97
1094.211, 66769.04
1094.693, 66774.14
1095.175, 66771.42
1095.657, 66768.93
1096.139, 66761.88
1096.621, 66760.90
1097.103, 66787.17
1097.585, 66838.42
1098.068, 66845.97
1098.550, 66807.55
1099.032, 66782.29
1099.514, 66817.84
1099.996, 66877.53
1100.478, 66963.20
1100.960, 67053.42
1101.442, 67067.42
1101.924, 66987.42
1102.407, 66937.39
1102.889, 66941.77
1103.371, 66973.71
1103.853, 67015.80
1104.335, 67059.66
1104.817, 67093.30
1105.299, 67113.13
1105.781, 67144.40
1106.264, 67203.24
1106.746, 67234.57
1107.228, 67207.96
1107.710, 67153.11
1108.192, 67125.06
1108.674, 67117.59
1109.156, 67116.21
1109.638, 67115.84
1110.120, 67124.92
1110.603, 67151.22
1111.085, 67182.41
1111.567, 67223.59
1112.049, 67266.45
1112.531, 67229.23
1113.013, 67127.32
1113.495, 67053.67
1113.977, 67087.83
1114.459, 67127.10
1114.942, 67122.45
1115.424, 67095.68
1115.906, 67072.70
1116.388, 67053.26
1116.870, 67046.58
1117.352, 67053.76
1117.834, 67063.28
1118.316, 67058.10
1118.799, 67058.55
1119.281, 67088.28
1119.763, 67139.81
1120.245, 67178.48
1120.727, 67201.74
1121.209, 67210.90
1121.691, 67199.90
1122.173, 67195.65
1122.656, 67260.77
1123.138, 67334.91
1123.620, 67316.66
1124.102, 67190.62
1124.584, 67127.17
1125.066, 67179.63
1125.548, 67218.13
1126.030, 67187.24
1126.512, 67141.98
1126.995, 67225.46
1127.477, 67376.92
1127.959, 67444.58
1128.441, 67366.55
1128.923, 67304.27
1129.405, 67315.13
1129.887, 67347.03
1130.369, 67382.64
1130.851, 67417.07
1131.334, 67420.11
1131.816, 67398.94
1132.298, 67390.14
1132.780, 67420.31
1133.262, 67446.48
1133.744, 67432.95
1134.226, 67416.34
1134.708, 67437.12
1135.191, 67498.93
1135.673, 67519.82
1136.155, 67500.83
1136.637, 67476.76
1137.119, 67471.12
1137.601, 67468.20
1138.083, 67455.64
1138.565, 67440.28
1139.047, 67439.99
1139.530, 67464.77
1140.012, 67448.33
1140.494, 67380.11
1140.976, 67326.94
1141.458, 67366.46
1141.940, 67437.88
1142.422, 67486.45
1142.904, 67509.98
1143.386, 67517.93
1143.869, 67505.59
1144.351, 67492.47
1144.833, 67479.05
1145.315, 67473.82
1145.797, 67491.40
1146.279, 67522.50
1146.761, 67563.41
1147.243, 67614.42
1147.726, 67622.38
1148.208, 67540.27
1148.690, 67505.12
1149.172, 67576.66
1149.654, 67688.38
1150.136, 67708.37
1150.618, 67672.14
1151.100, 67648.29
1151.583, 67649.55
1152.065, 67675.38
1152.547, 67754.32
1153.029, 67814.61
1153.511, 67816.26
1153.993, 67777.31
1154.475, 67747.43
1154.957, 67729.09
1155.439, 67733.37
1155.922, 67784.41
1156.404, 67818.81
1156.886, 67806.71
1157.368, 67777.27
1157.850, 67741.20
1158.332, 67702.25
1158.814, 67698.70
1159.296, 67725.77
1159.778, 67751.30
1160.261, 67750.60
1160.743, 67752.71
1161.225, 67774.45
1161.707, 67802.22
1162.189, 67817.77
1162.671, 67819.51
1163.153, 67854.99
1163.635, 67922.97
1164.118, 67969.39
1164.600, 67935.58
1165.082, 67890.84
1165.564, 67878.37
1166.046, 67886.20
1166.528, 67892.64
1167.010, 67899.19
1167.492, 67892.65
1167.974, 67871.45
1168.457, 67849.96
1168.939, 67842.52
1169.421, 67837.52
1169.903, 67812.68
1170.385, 67781.80
1170.867, 67807.52
1171.349, 67906.34
1171.831, 67957.69
1172.313, 67935.22
1172.796, 67894.20
1173.278, 67877.47
1173.760, 67879.98
1174.242, 67908.16
1174.724, 67959.02
1175.206, 67976.22
1175.688, 67948.95
1176.170, 67937.37
1176.653, 67961.29
1177.135, 67993.92
1177.617, 67997.46
1178.099, 67991.93
1178.581, 68005.78
1179.063, 68045.76
1179.545, 68059.34
1180.027, 68029.70
1180.510, 68028.55
1180.992, 68095.64
1181.474, 68176.66
1181.956, 68188.66
1182.438, 68160.75
1182.920, 68137.66
1183.402, 68129.32
1183.884, 68118.52
1184.366, 68097.29
1184.849, 68099.30
1185.331, 68161.22
1185.813, 68235.16
1186.295, 68215.51
1186.777, 68146.55
1187.259, 68112.34
1187.741, 68159.23
1188.223, 68186.83
1188.705, 68188.19
1189.188, 68174.03
1189.670, 68132.24
1190.152, 68091.09
1190.634, 68123.34
1191.116, 68203.48
1191.598, 68270.81
1192.080, 68292.86
1192.562, 68320.73
1193.045, 68364.35
1193.527, 68398.17
1194.009, 68395.52
1194.491, 68369.65
1194.973, 68340.52
1195.455, 68314.70
1195.937, 68312.80
1196.419, 68367.20
1196.901, 68410.11
1197.384, 68436.21
1197.866, 68444.95
1198.348, 68424.20
1198.830, 68389.89
1199.312, 68387.32
1199.794, 68410.61
1200.276, 68422.34
1200.758, 68392.49
1201.240, 68376.39
1201.723, 68394.86
1202.205, 68408.83
1202.687, 68346.52
1203.169, 68250.41
1203.651, 68233.91
1204.133, 68296.29
1204.615, 68356.33
1205.097, 68384.75
1205.580, 68405.70
1206.062, 68423.66
1206.544, 68435.67
1207.026, 68432.66
1207.508, 68420.63
1207.990, 68412.81
1208.472, 68410.34
1208.954, 68417.78
1209.437, 68444.59
1209.919, 68470.36
1210.401, 68491.17
1210.883, 68507.54
1211.365, 68517.05
1211.847, 68524.41
1212.329, 68536.62
1212.811, 68554.83
1213.293, 68598.72
1213.776, 68725.38
1214.258, 68808.32
1214.740, 68801.75
1215.222, 68751.23
1215.704, 68737.59
1216.186, 68751.09
1216.668, 68776.28
1217.150, 68813.36
1217.632, 68823.79
1218.115, 68763.08
1218.597, 68727.02
1219.079, 68757.67
1219.561, 68815.32
1220.043, 68811.34
1220.525, 68773.92
1221.007, 68771.56
1221.489, 68827.46
1221.972, 68858.83
1222.454, 68832.70
1222.936, 68807.23
1223.418, 68803.88
1223.900, 68815.02
1224.382, 68831.23
1224.864, 68847.55
1225.346, 68852.54
1225.828, 68841.24
1226.311, 68829.27
1226.793, 68816.07
1227.275, 68811.61
1227.757, 68828.70
1228.239, 68848.19
1228.721, 68821.73
1229.203, 68769.27
1229.685, 68728.34
1230.167, 68703.49
1230.650, 68715.29
1231.132, 68782.45
1231.614, 68839.13
1232.096, 68843.91
1232.578, 68826.08
1233.060, 68845.35
1233.542, 68883.16
1234.024, 68903.80
1234.507, 68890.92
1234.989, 68877.57
1235.471, 68863.33
1235.953, 68851.41
1236.435, 68829.02
1236.917, 68825.07
1237.399, 68931.83
1237.881, 69079.47
1238.364, 69133.22
1238.846, 68996.69
1239.328, 68940.13
1239.810, 68981.51
1240.292, 69035.54
1240.774, 69047.82
1241.256, 69046.38
1241.738, 69071.83
1242.220, 69111.17
1242.703, 69139.46
1243.185, 69141.20
1243.667, 69169.66
1244.149, 69229.38
1244.631, 69281.38
1245.113, 69291.98
1245.595, 69286.73
1246.077, 69280.73
1246.559, 69281.80
1247.042, 69310.17
1247.524, 69384.23
1248.006, 69409.64
1248.488, 69383.45
1248.970, 69347.77
1249.452, 69336.70
1249.934, 69324.59
1250.416, 69278.82
1250.899, 69225.53
1251.381, 69209.52
1251.863, 69245.53
1252.345, 69240.30
1252.827, 69194.10
1253.309, 69155.67
1253.791, 69172.30
1254.273, 69191.41
1254.755, 69168.96
1255.238, 69130.34
1255.720, 69108.55
1256.202, 69101.98
1256.684, 69118.27
1257.166, 69155.49
1257.648, 69197.03
1258.130, 69229.20
1258.612, 69266.27
1259.094, 69335.80
1259.577, 69399.38
1260.059, 69405.34
1260.541, 69361.02
1261.023, 69356.80
1261.505, 69391.66
1261.987, 69432.47
1262.469, 69476.16
1262.951, 69503.41
1263.434, 69500.19
1263.916, 69487.03
1264.398, 69479.04
1264.880, 69476.99
1265.362, 69492.76
1265.844, 69521.67
1266.326, 69541.99
1266.808, 69530.41
1267.291, 69525.20
1267.773, 69526.11
1268.255, 69545.33
1268.737, 69619.16
1269.219, 69713.30
1269.701, 69734.60
1270.183, 69696.83
1270.665, 69662.91
1271.147, 69660.95
1271.630, 69654.25
1272.112, 69639.16
1272.594, 69625.20
1273.076, 69622.47
1273.558, 69625.80
1274.040, 69621.64
1274.522, 69616.05
1275.004, 69632.65
1275.486, 69699.11
1275.969, 69712.47
1276.451, 69654.27
1276.933, 69610.80
1277.415, 69682.22
1277.897, 69784.26
1278.379, 69835.20
1278.861, 69843.68
1279.343, 69833.77
1279.825, 69799.48
1280.308, 69781.93
1280.790, 69782.30
1281.272, 69810.68
1281.754, 69915.67
1282.236, 70007.83
1282.718, 70003.59
1283.200, 69952.17
1283.682, 69937.49
1284.165, 69960.42
1284.647, 69978.16
1285.129, 69988.66
1285.611, 69991.30
1286.093, 69972.73
1286.575, 69962.29
1287.057, 69981.91
1287.539, 70009.75
1288.021, 70024.26
1288.504, 70026.96
1288.986, 70024.77
1289.468, 70018.88
1289.950, 70012.53
1290.432, 69999.60
1290.914, 70001.63
1291.396, 70035.96
1291.878, 70062.99
1292.360, 70021.09
1292.843, 69951.95
1293.325, 69979.27
1293.807, 70074.26
1294.289, 70128.95
1294.771, 70056.68
1295.253, 70027.32
1295.735, 70056.05
1296.217, 70098.16
1296.700, 70106.02
1297.182, 70158.83
1297.664, 70165.23
1298.146, 70244.03
1298.628, 70293.68
1299.110, 70322.27
1299.592, 70316.21
1300.074, 70270.61
1300.557, 70220.09
1301.039, 70194.95
1301.521, 70167.55
1302.003, 70115.46
1302.485, 70050.33
1302.967, 70008.40
1303.449, 70030.28
##END=



