##NAMES=Anapaite
##RRUFFID=R050510
##IDEAL CHEMISTRY=Ca_2_Fe^2+^(PO_4_)_2_&#183;4H_2_O
##LOCALITY=Prats-Sampsor, Spain
##OWNER=RRUFF
##SOURCE=University of Arizona Mineral Museum
##DESCRIPTION=Pale green tabular crystals lining fractured rock. Probe photo shows two phases. This sample is the lighter phase in the probe photo.
##STATUS=The identification of this mineral has been confirmed by X-ray diffraction and chemical analysis
##URL=rruff.info/R050510
##MEASURED CHEMISTRY=Ca_2.00_(Fe^2+^_0.93_Mn_0.07_)_Σ=1_(P_1.00_O_4_)_2_·4H_2_O; (lighter phase)
92.37695, 1222.736
92.85907, 1209.446
93.34119, 1212.746
93.82330, 1222.718
94.30542, 1228.643
94.78754, 1228.451
95.26965, 1224.820
95.75177, 1220.605
96.23389, 1217.890
96.71600, 1215.208
97.19812, 1212.441
97.68024, 1210.160
98.16235, 1207.098
98.64447, 1201.768
99.12659, 1194.718
99.60870, 1181.442
100.0908, 1163.003
100.5729, 1142.751
101.0551, 1122.717
101.5372, 1103.311
102.0193, 1084.936
102.5014, 1071.093
102.9835, 1064.368
103.4656, 1059.563
103.9478, 1056.661
104.4299, 1054.950
104.9120, 1053.358
105.3941, 1050.879
105.8762, 1047.196
106.3583, 1045.973
106.8405, 1047.106
107.3226, 1049.807
107.8047, 1054.898
108.2868, 1062.056
108.7689, 1068.426
109.2510, 1070.883
109.7332, 1069.263
110.2153, 1064.673
110.6974, 1055.942
111.1795, 1044.615
111.6616, 1032.237
112.1437, 1018.193
112.6259, 1005.458
113.1080, 997.3969
113.5901, 993.6600
114.0722, 991.2356
114.5543, 988.2310
115.0364, 984.7148
115.5185, 982.5713
116.0007, 984.1832
116.4828, 985.8160
116.9649, 985.0004
117.4470, 981.3998
117.9291, 976.6035
118.4112, 972.2345
118.8934, 967.4250
119.3755, 965.4898
119.8576, 968.2279
120.3397, 972.6389
120.8218, 976.6917
121.3039, 979.5369
121.7861, 981.2971
122.2682, 982.3476
122.7503, 982.5922
123.2324, 982.0406
123.7145, 979.9098
124.1966, 977.0883
124.6788, 974.8337
125.1609, 973.8746
125.6430, 974.0861
126.1251, 974.3894
126.6072, 974.3552
127.0893, 974.7776
127.5715, 976.2571
128.0536, 978.6230
128.5357, 980.9523
129.0178, 982.4431
129.4999, 983.3113
129.9821, 984.8856
130.4642, 988.3998
130.9463, 992.0353
131.4284, 993.7488
131.9105, 993.1980
132.3926, 992.0056
132.8748, 990.6594
133.3569, 989.5253
133.8390, 989.5392
134.3211, 991.8086
134.8032, 995.6437
135.2853, 998.6361
135.7674, 1000.201
136.2496, 1001.657
136.7317, 1003.675
137.2138, 1006.134
137.6959, 1008.701
138.1780, 1011.529
138.6601, 1014.821
139.1423, 1016.216
139.6244, 1012.857
140.1065, 1009.916
140.5886, 1009.238
141.0707, 1010.951
141.5528, 1014.216
142.0350, 1018.183
142.5171, 1023.283
142.9992, 1028.008
143.4813, 1030.993
143.9634, 1034.534
144.4455, 1040.001
144.9277, 1047.766
145.4098, 1057.626
145.8919, 1069.458
146.3740, 1085.066
146.8561, 1099.357
147.3382, 1114.997
147.8204, 1128.376
148.3025, 1134.898
148.7846, 1132.728
149.2667, 1123.826
149.7488, 1110.223
150.2309, 1090.032
150.7131, 1072.179
151.1952, 1060.199
151.6773, 1053.213
152.1594, 1048.822
152.6415, 1046.730
153.1236, 1046.501
153.6058, 1047.729
154.0879, 1051.506
154.5700, 1053.401
155.0521, 1049.261
155.5342, 1038.917
156.0163, 1027.130
156.4985, 1013.630
156.9806, 1000.539
157.4627, 989.5070
157.9448, 980.8914
158.4269, 974.5563
158.9090, 970.5907
159.3912, 969.7951
159.8733, 969.5096
160.3554, 969.6062
160.8375, 969.5876
161.3196, 968.7844
161.8017, 966.8327
162.2839, 964.3661
162.7660, 963.3271
163.2481, 964.8721
163.7302, 966.4338
164.2123, 967.6426
164.6944, 968.6481
165.1766, 969.7164
165.6587, 971.0309
166.1408, 972.4740
166.6229, 973.2646
167.1050, 972.0471
167.5871, 971.6556
168.0693, 973.3419
168.5514, 976.2960
169.0335, 979.0720
169.5156, 980.8431
169.9977, 981.5457
170.4798, 980.4782
170.9620, 976.5062
171.4441, 972.2611
171.9262, 968.5894
172.4083, 965.5880
172.8904, 963.3510
173.3725, 962.0668
173.8547, 961.7556
174.3368, 961.6094
174.8189, 961.5540
175.3010, 961.7095
175.7831, 962.2995
176.2652, 963.3463
176.7474, 964.3264
177.2295, 964.4529
177.7116, 964.2222
178.1937, 964.8903
178.6758, 967.5177
179.1579, 970.9072
179.6401, 973.1898
180.1222, 973.9902
180.6043, 974.7389
181.0864, 976.1121
181.5685, 978.0426
182.0506, 980.5661
182.5328, 984.2010
183.0149, 988.3846
183.4970, 991.5023
183.9791, 993.8617
184.4612, 994.3751
184.9433, 992.3850
185.4255, 988.5975
185.9076, 984.0931
186.3897, 979.2157
186.8718, 974.1058
187.3539, 970.4017
187.8360, 968.7580
188.3182, 968.0284
188.8003, 968.2711
189.2824, 969.1603
189.7645, 970.1231
190.2466, 970.6309
190.7287, 970.6348
191.2109, 971.4531
191.6930, 974.1475
192.1751, 976.6348
192.6572, 977.9841
193.1393, 978.4850
193.6214, 978.9613
194.1036, 980.0266
194.5857, 981.5883
195.0678, 984.7429
195.5499, 989.6589
196.0320, 995.5746
196.5141, 1002.704
196.9963, 1010.692
197.4784, 1018.578
197.9605, 1025.487
198.4426, 1031.299
198.9247, 1036.299
199.4068, 1041.240
199.8890, 1044.912
200.3711, 1046.453
200.8532, 1045.818
201.3353, 1043.651
201.8174, 1040.620
202.2995, 1036.550
202.7817, 1030.347
203.2638, 1018.874
203.7459, 1007.015
204.2280, 999.8242
204.7101, 997.9601
205.1922, 997.5449
205.6744, 995.0969
206.1565, 991.0712
206.6386, 987.6679
207.1207, 985.6816
207.6028, 984.4199
208.0849, 982.6254
208.5671, 979.8219
209.0492, 977.9576
209.5313, 979.6268
210.0134, 983.4609
210.4955, 986.6378
210.9776, 987.4302
211.4598, 986.9534
211.9419, 987.6979
212.4240, 989.9418
212.9061, 992.9473
213.3882, 996.0133
213.8703, 999.4210
214.3525, 1003.839
214.8346, 1010.119
215.3167, 1017.666
215.7988, 1024.277
216.2809, 1030.089
216.7630, 1034.583
217.2451, 1037.611
217.7273, 1039.407
218.2094, 1040.387
218.6915, 1040.771
219.1736, 1040.548
219.6557, 1039.610
220.1378, 1037.691
220.6200, 1035.276
221.1021, 1033.032
221.5842, 1030.396
222.0663, 1026.200
222.5484, 1019.294
223.0305, 1010.162
223.5127, 1003.456
223.9948, 1001.061
224.4769, 999.4504
224.9590, 998.1150
225.4411, 997.0281
225.9232, 996.3365
226.4054, 996.1838
226.8875, 996.5012
227.3696, 996.4296
227.8517, 995.6390
228.3338, 994.7974
228.8159, 993.8068
229.2981, 992.8826
229.7802, 992.5302
230.2623, 993.1848
230.7444, 994.6429
231.2265, 994.5145
231.7086, 992.2528
232.1908, 989.1697
232.6729, 984.8384
233.1550, 979.9206
233.6371, 975.4318
234.1192, 971.9007
234.6013, 969.3964
235.0835, 968.6500
235.5656, 971.2938
236.0477, 973.5388
236.5298, 973.8245
237.0119, 972.8485
237.4940, 972.2204
237.9762, 972.8735
238.4583, 974.5222
238.9404, 975.8205
239.4225, 976.7833
239.9046, 977.4601
240.3867, 977.6340
240.8689, 977.5078
241.3510, 977.7266
241.8331, 978.8524
242.3152, 980.2401
242.7973, 979.9835
243.2794, 977.5002
243.7616, 974.6484
244.2437, 972.0477
244.7258, 969.6848
245.2079, 967.5946
245.6900, 965.9613
246.1721, 964.4090
246.6543, 962.1612
247.1364, 959.0773
247.6185, 955.8245
248.1006, 952.5554
248.5827, 949.3557
249.0648, 946.4801
249.5470, 943.9963
250.0291, 941.9127
250.5112, 940.0869
250.9933, 938.4396
251.4754, 937.3412
251.9576, 937.5641
252.4397, 938.6839
252.9218, 938.6459
253.4039, 936.1074
253.8860, 933.2644
254.3681, 932.6838
254.8503, 934.3446
255.3324, 936.0881
255.8145, 936.5992
256.2966, 936.0589
256.7787, 935.3097
257.2608, 934.1879
257.7430, 933.3187
258.2251, 933.0450
258.7072, 933.3690
259.1893, 934.2943
259.6714, 936.1478
260.1535, 938.7337
260.6357, 941.0127
261.1178, 943.0688
261.5999, 944.4904
262.0820, 944.7697
262.5641, 944.2443
263.0462, 943.9436
263.5284, 944.8568
264.0105, 946.6909
264.4926, 947.6368
264.9747, 947.0495
265.4568, 946.4527
265.9389, 947.1207
266.4211, 948.3269
266.9032, 948.4667
267.3853, 945.8065
267.8674, 941.3677
268.3495, 939.9571
268.8316, 944.2328
269.3138, 947.5342
269.7959, 946.7869
270.2780, 943.7495
270.7601, 941.0311
271.2422, 940.0450
271.7243, 940.2924
272.2065, 939.9710
272.6886, 937.9245
273.1707, 937.3950
273.6528, 939.9282
274.1349, 943.9447
274.6170, 947.8095
275.0992, 950.8809
275.5813, 953.0840
276.0634, 953.9611
276.5455, 952.1649
277.0276, 951.6270
277.5097, 953.7630
277.9919, 956.8875
278.4740, 959.3808
278.9561, 960.6773
279.4382, 961.4893
279.9203, 963.3045
280.4024, 966.9901
280.8846, 969.7919
281.3667, 970.8311
281.8488, 971.4207
282.3309, 972.5258
282.8130, 974.3801
283.2951, 976.5432
283.7773, 978.3762
284.2594, 979.7670
284.7415, 981.0880
285.2236, 982.9539
285.7057, 984.3196
286.1878, 984.4504
286.6700, 983.3256
287.1521, 981.5193
287.6342, 979.7162
288.1163, 978.1353
288.5984, 975.6758
289.0805, 971.0598
289.5627, 966.7737
290.0448, 964.1423
290.5269, 962.9728
291.0090, 962.1885
291.4911, 960.7963
291.9732, 958.7259
292.4554, 956.9614
292.9375, 955.2548
293.4196, 954.0828
293.9017, 954.1689
294.3838, 954.9357
294.8659, 955.1642
295.3481, 953.9244
295.8302, 951.3458
296.3123, 949.2397
296.7944, 947.8541
297.2765, 946.7110
297.7586, 946.0701
298.2408, 945.5558
298.7229, 944.5671
299.2050, 942.7501
299.6871, 940.3857
300.1692, 938.5750
300.6513, 938.4089
301.1335, 937.4835
301.6156, 934.8531
302.0977, 931.6881
302.5798, 929.3204
303.0619, 928.2750
303.5440, 927.9651
304.0262, 927.1191
304.5083, 925.0779
304.9904, 923.4965
305.4725, 922.4417
305.9546, 921.7829
306.4367, 921.5453
306.9189, 921.6779
307.4010, 921.8933
307.8831, 921.7628
308.3652, 921.0459
308.8473, 920.6019
309.3294, 920.8414
309.8116, 920.9702
310.2937, 919.9562
310.7758, 918.1030
311.2579, 917.0235
311.7400, 918.5638
312.2221, 923.3702
312.7043, 926.2015
313.1864, 925.6812
313.6685, 924.8649
314.1506, 924.9149
314.6327, 925.6801
315.1148, 926.4749
315.5970, 926.7805
316.0791, 926.6542
316.5612, 926.8684
317.0433, 927.6584
317.5254, 928.5374
318.0075, 929.6330
318.4897, 930.7100
318.9718, 931.2867
319.4539, 931.0821
319.9360, 930.5225
320.4181, 931.0118
320.9002, 934.2321
321.3824, 936.3855
321.8645, 936.2403
322.3466, 935.4523
322.8287, 935.7619
323.3108, 937.7083
323.7929, 940.4258
324.2751, 942.3405
324.7572, 942.4244
325.2393, 943.7487
325.7214, 947.2078
326.2035, 951.0712
326.6856, 954.3290
327.1678, 956.7790
327.6499, 958.6810
328.1320, 960.2938
328.6141, 961.5807
329.0962, 962.7537
329.5783, 963.2996
330.0605, 964.2272
330.5426, 966.7073
331.0247, 970.0247
331.5068, 972.3492
331.9889, 972.2346
332.4710, 969.8196
332.9532, 967.3539
333.4353, 964.5936
333.9174, 962.0273
334.3995, 959.5754
334.8816, 957.4293
335.3637, 955.9011
335.8459, 955.1689
336.3280, 955.0206
336.8101, 954.8771
337.2922, 955.0501
337.7743, 954.7252
338.2564, 953.3915
338.7386, 951.8348
339.2206, 950.8850
339.7028, 950.7164
340.1849, 950.7103
340.6670, 949.7808
341.1491, 947.1273
341.6312, 945.5880
342.1133, 946.0426
342.5955, 946.7297
343.0776, 946.5257
343.5597, 945.5283
344.0418, 944.6472
344.5239, 944.7220
345.0060, 945.7863
345.4882, 947.2134
345.9703, 950.4039
346.4524, 952.5565
346.9345, 952.0649
347.4166, 950.0573
347.8987, 948.6063
348.3809, 949.0431
348.8630, 950.8743
349.3451, 952.1412
349.8272, 953.0305
350.3093, 952.9452
350.7914, 951.5026
351.2736, 949.2989
351.7557, 946.8187
352.2378, 944.2304
352.7199, 941.6501
353.2020, 939.2794
353.6841, 937.1359
354.1663, 935.1451
354.6484, 933.8590
355.1305, 932.2893
355.6126, 929.5271
356.0947, 925.6912
356.5768, 921.9328
357.0590, 919.3624
357.5411, 918.0291
358.0232, 917.1138
358.5053, 918.1354
358.9874, 917.7885
359.4695, 913.3653
359.9517, 906.6664
360.4338, 901.4815
360.9159, 900.4420
361.3980, 902.1873
361.8801, 902.4794
362.3622, 900.7461
362.8444, 898.7822
363.3265, 897.1041
363.8086, 895.5899
364.2907, 894.1575
364.7728, 892.7947
365.2549, 891.3856
365.7371, 889.4853
366.2192, 886.9155
366.7013, 885.4490
367.1834, 886.3801
367.6655, 887.8890
368.1476, 888.7757
368.6298, 888.9680
369.1119, 888.7261
369.5940, 888.0231
370.0761, 886.9865
370.5582, 886.3128
371.0403, 886.3719
371.5225, 886.2234
372.0046, 884.9989
372.4867, 883.1002
372.9688, 881.4114
373.4509, 880.1576
373.9330, 879.3715
374.4152, 879.3486
374.8973, 880.2130
375.3794, 880.7406
375.8615, 879.7963
376.3436, 878.3917
376.8257, 878.2061
377.3079, 879.9081
377.7900, 881.5197
378.2721, 881.2017
378.7542, 879.4473
379.2363, 878.5079
379.7184, 879.2648
380.2006, 880.6225
380.6827, 881.3252
381.1648, 881.4222
381.6469, 880.9553
382.1290, 879.2726
382.6111, 877.2987
383.0933, 876.6168
383.5754, 877.4719
384.0575, 878.2059
384.5396, 877.2352
385.0217, 874.8447
385.5038, 873.4449
385.9860, 873.7871
386.4681, 874.5298
386.9502, 875.1306
387.4323, 875.5036
387.9144, 875.2798
388.3965, 874.0922
388.8787, 872.5054
389.3608, 872.1445
389.8429, 873.7037
390.3250, 874.7823
390.8071, 874.4681
391.2892, 873.5957
391.7714, 873.1552
392.2535, 873.3690
392.7356, 873.8997
393.2177, 874.4440
393.6998, 875.1125
394.1819, 875.0401
394.6641, 873.4514
395.1462, 871.8816
395.6283, 870.8425
396.1104, 870.5274
396.5925, 871.4182
397.0746, 874.0053
397.5568, 877.8099
398.0389, 880.2078
398.5210, 879.7623
399.0031, 879.5837
399.4852, 880.6757
399.9673, 881.9016
400.4495, 881.6683
400.9316, 879.5855
401.4137, 877.0691
401.8958, 876.3470
402.3779, 878.1483
402.8600, 879.8172
403.3422, 881.8561
403.8243, 883.3502
404.3064, 883.2518
404.7885, 882.0931
405.2706, 881.5245
405.7527, 883.0056
406.2349, 886.1592
406.7170, 887.8522
407.1991, 886.8610
407.6812, 886.0858
408.1633, 886.1771
408.6454, 886.8365
409.1276, 887.7823
409.6097, 888.9185
410.0918, 890.1560
410.5739, 891.5257
411.0560, 893.1814
411.5381, 894.1052
412.0203, 892.8314
412.5024, 891.8931
412.9845, 892.6672
413.4666, 895.1229
413.9487, 898.5885
414.4308, 903.1487
414.9130, 908.4063
415.3951, 912.7188
415.8772, 915.6692
416.3593, 918.6923
416.8414, 923.1901
417.3235, 928.0742
417.8057, 931.7414
418.2878, 933.4556
418.7699, 934.5650
419.2520, 935.9340
419.7341, 937.6512
420.2162, 940.6509
420.6984, 945.3926
421.1805, 951.3350
421.6626, 957.9308
422.1447, 965.2287
422.6268, 972.3267
423.1089, 979.3874
423.5911, 985.8458
424.0732, 990.1494
424.5553, 992.0837
425.0374, 995.0983
425.5195, 1001.958
426.0016, 1012.353
426.4838, 1022.745
426.9659, 1034.203
427.4480, 1044.541
427.9301, 1052.245
428.4122, 1058.130
428.8943, 1063.945
429.3765, 1070.424
429.8586, 1076.823
430.3407, 1081.962
430.8228, 1086.212
431.3049, 1087.923
431.7870, 1085.385
432.2692, 1081.580
432.7513, 1078.494
433.2334, 1076.279
433.7155, 1074.169
434.1976, 1071.583
434.6797, 1068.544
435.1619, 1065.306
435.6440, 1061.520
436.1261, 1057.914
436.6082, 1054.459
437.0903, 1051.303
437.5724, 1048.538
438.0546, 1046.216
438.5367, 1044.399
439.0188, 1043.256
439.5009, 1042.959
439.9830, 1042.768
440.4651, 1043.299
440.9473, 1043.358
441.4294, 1042.327
441.9115, 1040.337
442.3936, 1037.910
442.8757, 1035.538
443.3578, 1032.901
443.8400, 1028.782
444.3221, 1022.531
444.8042, 1016.388
445.2863, 1011.311
445.7684, 1006.618
446.2505, 1002.140
446.7327, 997.9543
447.2148, 992.6296
447.6969, 984.1223
448.1790, 973.1116
448.6611, 963.2525
449.1432, 955.2112
449.6254, 948.2587
450.1075, 941.9935
450.5896, 936.3152
451.0717, 930.9816
451.5538, 925.9619
452.0359, 921.2512
452.5181, 917.1103
453.0002, 913.4150
453.4823, 909.2476
453.9644, 903.8911
454.4465, 898.1738
454.9286, 894.0626
455.4108, 891.8181
455.8929, 889.9581
456.3750, 888.5197
456.8571, 887.1025
457.3392, 885.2752
457.8214, 882.9775
458.3035, 880.2753
458.7856, 877.0378
459.2677, 873.2401
459.7498, 870.9097
460.2319, 871.6320
460.7141, 871.7526
461.1962, 869.5197
461.6783, 866.2867
462.1604, 864.0811
462.6425, 863.6600
463.1246, 864.1451
463.6068, 864.0978
464.0889, 863.4507
464.5710, 862.4328
465.0531, 861.0038
465.5352, 859.2758
466.0173, 856.7924
466.4995, 854.0198
466.9816, 852.1231
467.4637, 852.0765
467.9458, 853.1926
468.4279, 853.1448
468.9100, 851.3408
469.3922, 849.9139
469.8743, 849.9811
470.3564, 850.3745
470.8385, 850.1149
471.3206, 849.0610
471.8027, 847.8846
472.2849, 847.0115
472.7670, 846.4239
473.2491, 846.2115
473.7312, 846.5995
474.2133, 846.7123
474.6954, 845.5236
475.1776, 843.5941
475.6597, 842.2454
476.1418, 841.9203
476.6239, 841.9421
477.1060, 841.9613
477.5881, 841.9614
478.0703, 841.9003
478.5524, 841.7717
479.0345, 841.5643
479.5166, 841.3387
479.9987, 841.2177
480.4808, 840.4219
480.9630, 837.8129
481.4451, 835.4384
481.9272, 834.9539
482.4093, 836.0087
482.8914, 837.1961
483.3735, 837.6802
483.8557, 837.6656
484.3378, 837.9202
484.8199, 839.5084
485.3020, 839.7630
485.7841, 837.4123
486.2662, 834.5727
486.7484, 832.7925
487.2305, 832.2682
487.7126, 832.4179
488.1947, 832.9337
488.6768, 833.7326
489.1589, 833.4329
489.6411, 830.9235
490.1232, 829.0817
490.6053, 829.1603
491.0874, 830.1262
491.5695, 830.9402
492.0516, 831.3408
492.5338, 831.2709
493.0159, 830.3785
493.4980, 828.7985
493.9801, 827.8096
494.4622, 827.8189
494.9443, 828.0345
495.4265, 827.9122
495.9086, 827.4976
496.3907, 826.8456
496.8728, 825.9285
497.3549, 824.8154
497.8370, 823.4111
498.3192, 821.8276
498.8013, 820.4171
499.2834, 819.2485
499.7655, 818.5117
500.2476, 818.6091
500.7297, 819.8123
501.2119, 820.8733
501.6940, 822.1656
502.1761, 822.9199
502.6582, 821.9062
503.1403, 819.7624
503.6224, 818.6968
504.1045, 820.2406
504.5866, 823.3942
505.0688, 824.4837
505.5509, 821.5319
506.0330, 819.5916
506.5151, 819.7630
506.9972, 820.3568
507.4793, 820.1154
507.9615, 818.9879
508.4436, 817.7136
508.9257, 816.9221
509.4078, 816.5146
509.8899, 815.8731
510.3720, 814.7976
510.8542, 813.9216
511.3363, 813.2088
511.8184, 812.9434
512.3005, 813.7949
512.7827, 816.0213
513.2648, 817.7747
513.7469, 816.9539
514.2290, 814.5761
514.7111, 813.8821
515.1932, 815.5993
515.6754, 817.4507
516.1575, 817.6729
516.6396, 816.5403
517.1217, 815.5810
517.6038, 814.9327
518.0859, 814.3635
518.5681, 813.6758
519.0502, 813.0242
519.5323, 812.6415
520.0144, 812.5953
520.4965, 812.9325
520.9786, 813.8369
521.4608, 815.5698
521.9429, 816.2383
522.4250, 815.0114
522.9071, 813.8090
523.3892, 813.0445
523.8713, 812.8255
524.3535, 813.5687
524.8356, 815.4138
525.3177, 817.2430
525.7998, 816.8119
526.2819, 813.4023
526.7640, 811.3327
527.2462, 811.6212
527.7283, 812.5742
528.2104, 813.4830
528.6925, 814.4008
529.1746, 815.5861
529.6567, 817.3429
530.1389, 819.1041
530.6210, 820.1324
531.1031, 820.4459
531.5852, 820.2916
532.0673, 819.5896
532.5494, 818.6790
533.0316, 818.0738
533.5137, 817.7557
533.9958, 817.0152
534.4779, 814.6373
534.9600, 812.6711
535.4421, 813.1970
535.9243, 815.6093
536.4064, 817.7527
536.8885, 818.6019
537.3706, 818.5608
537.8527, 818.3771
538.3348, 817.2253
538.8170, 817.7150
539.2991, 820.9938
539.7812, 824.7427
540.2633, 827.6322
540.7454, 829.8449
541.2275, 832.2249
541.7097, 835.2648
542.1918, 838.8677
542.6739, 843.0720
543.1560, 848.5475
543.6381, 852.5449
544.1202, 854.1614
544.6024, 854.3278
545.0845, 853.2592
545.5666, 851.1273
546.0487, 848.5997
546.5308, 846.3624
547.0129, 843.7570
547.4951, 839.3802
547.9772, 833.2780
548.4593, 827.4919
548.9414, 822.9302
549.4235, 819.0965
549.9056, 814.8610
550.3878, 809.7928
550.8699, 806.5556
551.3520, 806.9665
551.8341, 808.4207
552.3162, 809.0707
552.7983, 808.8116
553.2805, 807.9615
553.7626, 806.6425
554.2447, 805.0976
554.7268, 804.0369
555.2089, 803.6966
555.6910, 803.4421
556.1732, 803.1254
556.6553, 802.9815
557.1374, 803.0654
557.6195, 803.4417
558.1016, 804.2895
558.5837, 805.8670
559.0659, 807.7784
559.5480, 809.1893
560.0301, 810.1241
560.5122, 810.3052
560.9943, 809.0067
561.4764, 807.5231
561.9586, 807.0695
562.4407, 807.6169
562.9228, 808.5676
563.4049, 809.9505
563.8870, 811.4614
564.3691, 812.7890
564.8513, 813.9445
565.3334, 815.0345
565.8155, 816.1053
566.2976, 817.1376
566.7797, 818.0341
567.2618, 818.3577
567.7440, 819.6743
568.2261, 822.7249
568.7082, 826.0665
569.1903, 828.9675
569.6724, 831.4662
570.1545, 833.9498
570.6367, 836.6253
571.1188, 839.2346
571.6009, 841.1018
572.0830, 841.9802
572.5651, 843.1150
573.0472, 845.0710
573.5294, 846.8653
574.0115, 847.4278
574.4936, 847.3812
574.9757, 848.5338
575.4578, 852.3224
575.9399, 856.6740
576.4221, 859.2054
576.9042, 860.1418
577.3863, 860.7225
577.8684, 861.2204
578.3505, 861.6733
578.8326, 862.0386
579.3148, 862.3012
579.7969, 863.0137
580.2790, 865.4543
580.7611, 867.0368
581.2432, 866.5651
581.7253, 864.3920
582.2075, 861.0637
582.6896, 856.8151
583.1717, 851.6837
583.6538, 845.4012
584.1359, 837.5181
584.6180, 831.7391
585.1002, 829.2750
585.5823, 827.5316
586.0643, 825.8987
586.5464, 824.3890
587.0286, 823.2850
587.5107, 822.7288
587.9928, 821.6490
588.4749, 818.5490
588.9570, 813.9974
589.4391, 810.3036
589.9213, 807.8162
590.4034, 805.5635
590.8855, 802.7043
591.3676, 799.5847
591.8497, 797.4226
592.3318, 796.4327
592.8140, 795.9745
593.2961, 796.5480
593.7782, 797.1653
594.2603, 796.3617
594.7424, 794.2268
595.2245, 792.3425
595.7067, 792.0637
596.1888, 793.0579
596.6709, 793.3817
597.1530, 792.5544
597.6351, 791.8908
598.1172, 791.5834
598.5994, 791.4691
599.0815, 791.4427
599.5636, 791.4957
600.0457, 791.6483
600.5278, 791.8055
601.0099, 792.1398
601.4921, 793.0638
601.9742, 794.5809
602.4563, 796.2574
602.9384, 798.1601
603.4205, 799.8512
603.9026, 800.5336
604.3848, 800.1970
604.8669, 799.9820
605.3490, 799.9163
605.8311, 800.1380
606.3132, 800.9717
606.7953, 802.1324
607.2775, 802.8890
607.7596, 802.9671
608.2417, 803.0314
608.7238, 804.2058
609.2059, 806.8107
609.6880, 808.9384
610.1702, 810.3331
610.6523, 811.5164
611.1344, 812.4513
611.6165, 813.3513
612.0986, 814.4919
612.5807, 815.9563
613.0629, 817.6022
613.5450, 818.9836
614.0271, 820.4219
614.5092, 823.3697
614.9913, 828.2318
615.4734, 832.6027
615.9556, 834.5961
616.4377, 835.0661
616.9198, 837.1790
617.4019, 842.5427
617.8840, 846.3581
618.3661, 846.8229
618.8483, 845.9633
619.3304, 845.6362
619.8125, 845.7990
620.2946, 845.2136
620.7767, 842.9648
621.2589, 839.7942
621.7410, 838.1893
622.2231, 839.2401
622.7052, 838.6251
623.1873, 834.9268
623.6694, 830.1132
624.1516, 824.8417
624.6337, 819.3613
625.1158, 814.1738
625.5979, 809.2658
626.0800, 805.0601
626.5621, 802.3176
627.0443, 800.7101
627.5264, 799.1912
628.0085, 797.5096
628.4906, 795.7955
628.9727, 794.1649
629.4548, 792.6232
629.9370, 790.9853
630.4191, 789.4156
630.9012, 787.5681
631.3833, 784.6444
631.8654, 781.8165
632.3475, 780.4408
632.8297, 780.5897
633.3118, 781.1903
633.7939, 781.3160
634.2760, 781.1496
634.7581, 781.6255
635.2402, 783.0994
635.7224, 783.8009
636.2045, 782.7203
636.6866, 781.0244
637.1687, 780.0172
637.6508, 779.6636
638.1329, 779.0572
638.6151, 777.3027
639.0972, 775.7133
639.5793, 775.6936
640.0614, 776.7226
640.5435, 777.2521
641.0256, 776.7294
641.5078, 776.2010
641.9899, 777.3095
642.4720, 780.5023
642.9541, 781.6335
643.4362, 778.2692
643.9183, 775.6207
644.4005, 775.0730
644.8826, 775.7023
645.3647, 776.5832
645.8468, 777.4879
646.3289, 778.4499
646.8110, 779.6451
647.2932, 780.8829
647.7753, 781.6082
648.2574, 781.7886
648.7395, 781.9886
649.2216, 782.6238
649.7037, 783.1965
650.1859, 782.6097
650.6680, 780.4274
651.1501, 779.1198
651.6322, 779.9371
652.1143, 780.6339
652.5964, 779.5828
653.0786, 777.5352
653.5607, 776.1190
654.0428, 775.9179
654.5249, 775.9294
655.0070, 774.7042
655.4891, 772.1906
655.9713, 769.7741
656.4534, 767.2090
656.9355, 765.2203
657.4176, 764.3539
657.8997, 764.1872
658.3818, 764.6151
658.8640, 765.8561
659.3461, 765.9697
659.8282, 762.9625
660.3103, 759.1192
660.7924, 757.1337
661.2745, 756.8032
661.7567, 756.4169
662.2388, 755.1249
662.7209, 753.4374
663.2030, 749.3093
663.6851, 752.4643
664.1672, 754.0338
664.6494, 754.1025
665.1315, 748.1771
665.6136, 749.9922
666.0957, 748.7052
666.5778, 747.2910
667.0599, 750.1956
667.5421, 745.1418
668.0242, 747.9779
668.5063, 747.6646
668.9884, 748.7925
669.4705, 746.7994
669.9526, 745.7703
670.4348, 747.8633
670.9169, 748.2276
671.3990, 745.8751
671.8811, 747.0948
672.3632, 741.9322
672.8453, 742.3701
673.3275, 745.2243
673.8096, 743.0288
674.2917, 744.3055
674.7738, 744.2598
675.2559, 738.2043
675.7380, 742.6005
676.2202, 739.9891
676.7023, 740.9861
677.1844, 741.6494
677.6665, 741.9417
678.1486, 741.8239
678.6307, 740.9614
679.1129, 739.8497
679.5950, 739.4753
680.0771, 740.0211
680.5592, 740.4496
681.0413, 740.6000
681.5234, 740.4623
682.0056, 739.6887
682.4877, 738.6490
682.9698, 738.2706
683.4519, 738.9395
683.9340, 739.9797
684.4161, 740.4349
684.8983, 740.2777
685.3804, 739.8226
685.8625, 739.0074
686.3446, 738.0027
686.8267, 736.3901
687.3088, 734.8856
687.7910, 734.6180
688.2731, 735.8562
688.7552, 736.4615
689.2373, 734.6780
689.7194, 732.3976
690.2015, 731.4666
690.6837, 731.8250
691.1658, 733.2054
691.6479, 735.5430
692.1300, 737.7660
692.6121, 738.2680
693.0942, 736.8643
693.5764, 734.9737
694.0585, 731.5474
694.5406, 729.0906
695.0227, 728.7340
695.5048, 729.3768
695.9869, 730.0810
696.4691, 730.6571
696.9512, 730.7576
697.4333, 729.4564
697.9154, 728.0075
698.3975, 728.5145
698.8796, 730.5695
699.3618, 731.9807
699.8439, 731.9368
700.3260, 731.0353
700.8081, 729.9565
701.2902, 728.6358
701.7723, 727.7524
702.2545, 727.3469
702.7366, 727.3553
703.2187, 728.6938
703.7008, 729.8522
704.1829, 728.5880
704.6650, 725.1761
705.1472, 723.0783
705.6293, 726.0443
706.1114, 730.6302
706.5935, 730.9001
707.0756, 727.4831
707.5577, 724.3464
708.0399, 722.5524
708.5220, 721.8378
709.0041, 722.0809
709.4862, 723.2839
709.9683, 724.2333
710.4504, 725.3553
710.9326, 725.6849
711.4147, 724.4202
711.8968, 722.7648
712.3789, 721.6230
712.8610, 721.1027
713.3431, 721.0402
713.8253, 721.4695
714.3074, 722.0774
714.7895, 722.5766
715.2716, 722.8918
715.7537, 722.2722
716.2358, 720.3707
716.7180, 718.4933
717.2001, 717.7501
717.6822, 717.9909
718.1643, 718.2202
718.6464, 718.0056
719.1285, 718.3845
719.6107, 720.3389
720.0928, 722.1669
720.5749, 722.5628
721.0570, 721.7626
721.5391, 720.6094
722.0212, 719.4320
722.5034, 718.5026
722.9855, 718.5522
723.4676, 719.3010
723.9497, 718.8367
724.4318, 716.7293
724.9139, 714.7891
725.3961, 714.0286
725.8782, 714.2938
726.3603, 715.2933
726.8424, 717.6783
727.3245, 719.2900
727.8066, 720.1224
728.2888, 720.0615
728.7709, 718.5215
729.2530, 716.1923
729.7351, 714.0038
730.2172, 712.3076
730.6993, 711.4689
731.1815, 712.4197
731.6636, 714.5809
732.1457, 715.7540
732.6278, 715.8362
733.1099, 715.4514
733.5920, 714.6778
734.0742, 713.8736
734.5563, 713.7275
735.0384, 714.5362
735.5205, 714.4003
736.0026, 712.1177
736.4847, 710.3116
736.9669, 710.1898
737.4490, 710.8961
737.9311, 711.4763
738.4132, 711.7338
738.8953, 711.9742
739.3774, 712.6052
739.8596, 713.2254
740.3417, 712.5627
740.8238, 710.7570
741.3059, 710.4001
741.7880, 712.5600
742.2701, 714.8983
742.7523, 715.1702
743.2344, 713.4949
743.7165, 711.6975
744.1986, 709.4793
744.6807, 707.5670
745.1628, 705.7265
745.6450, 704.4869
746.1271, 704.4021
746.6092, 705.2866
747.0913, 706.6779
747.5734, 708.5202
748.0555, 710.0934
748.5377, 710.2302
749.0198, 709.3127
749.5019, 708.8262
749.9840, 708.9678
750.4661, 709.0541
750.9482, 708.7116
751.4304, 707.9877
751.9125, 706.9467
752.3946, 705.2834
752.8767, 704.0495
753.3588, 703.1794
753.8409, 702.7672
754.3231, 703.0743
754.8052, 703.7615
755.2873, 704.4216
755.7694, 704.9459
756.2515, 705.3453
756.7336, 705.6559
757.2158, 705.8282
757.6979, 705.9309
758.1800, 705.8729
758.6621, 704.9597
759.1442, 702.8610
759.6263, 700.6161
760.1085, 699.4294
760.5906, 699.3088
761.0727, 699.4393
761.5548, 699.9695
762.0369, 700.5465
762.5190, 701.5417
763.0012, 702.2173
763.4833, 701.6546
763.9654, 700.2216
764.4475, 699.3807
764.9296, 699.8513
765.4117, 700.8359
765.8939, 701.7970
766.3760, 702.7743
766.8581, 704.0939
767.3402, 705.6611
767.8223, 706.5251
768.3044, 706.0509
768.7866, 704.6158
769.2687, 703.0828
769.7508, 701.3051
770.2329, 699.8856
770.7150, 698.2245
771.1971, 697.8016
771.6793, 700.8920
772.1614, 704.8207
772.6435, 705.5333
773.1256, 702.2218
773.6077, 699.4573
774.0898, 699.3927
774.5720, 700.2033
775.0541, 700.5113
775.5362, 700.5137
776.0183, 700.7198
776.5004, 701.2965
776.9825, 702.2783
777.4647, 703.9982
777.9468, 706.0193
778.4289, 705.7778
778.9110, 702.6981
779.3931, 700.4405
779.8752, 700.0447
780.3574, 700.4711
780.8395, 701.1854
781.3216, 702.0214
781.8037, 702.0897
782.2858, 700.7234
782.7679, 699.5076
783.2501, 698.9134
783.7322, 698.5462
784.2143, 697.8726
784.6964, 697.1547
785.1785, 697.3727
785.6606, 699.0443
786.1428, 700.5939
786.6249, 699.7851
787.1070, 697.1532
787.5891, 694.5891
788.0712, 692.1579
788.5533, 691.1430
789.0355, 692.4651
789.5176, 694.7377
789.9997, 695.6804
790.4818, 694.8580
790.9639, 695.4611
791.4460, 699.9468
791.9282, 702.6734
792.4103, 701.1777
792.8924, 698.2567
793.3745, 696.2781
793.8566, 695.4357
794.3387, 694.8094
794.8209, 693.7082
795.3030, 693.0167
795.7851, 694.4333
796.2672, 696.7079
796.7493, 696.7662
797.2314, 694.3532
797.7136, 691.7424
798.1957, 690.3675
798.6778, 689.9201
799.1599, 689.6677
799.6420, 689.5357
800.1241, 689.9515
800.6063, 691.4689
801.0884, 692.6710
801.5705, 692.8603
802.0526, 692.3746
802.5347, 691.4092
803.0168, 689.9159
803.4990, 688.7943
803.9811, 688.5886
804.4632, 688.5372
804.9453, 687.8753
805.4274, 687.1981
805.9095, 687.7368
806.3917, 689.4685
806.8738, 690.9036
807.3559, 690.9039
807.8380, 689.7868
808.3201, 687.8104
808.8022, 685.0496
809.2844, 683.6257
809.7665, 684.0514
810.2486, 685.1970
810.7307, 686.6081
811.2128, 687.9384
811.6949, 687.9941
812.1771, 685.3624
812.6592, 684.3605
813.1413, 686.7181
813.6234, 688.7557
814.1055, 688.5842
814.5876, 687.2567
815.0698, 686.3368
815.5519, 686.1042
816.0340, 685.5665
816.5161, 683.2869
816.9982, 681.0164
817.4803, 681.2718
817.9625, 683.1765
818.4446, 684.3206
818.9267, 684.1747
819.4088, 683.8464
819.8909, 684.3217
820.3730, 685.2642
820.8552, 685.4493
821.3373, 684.7292
821.8194, 683.8593
822.3015, 682.7394
822.7836, 681.7717
823.2657, 681.3132
823.7479, 681.1399
824.2300, 680.8178
824.7121, 680.3028
825.1942, 679.7894
825.6763, 679.2155
826.1584, 678.7733
826.6406, 678.6194
827.1227, 678.6557
827.6048, 678.7047
828.0869, 678.7523
828.5690, 679.0196
829.0511, 679.9988
829.5333, 680.9405
830.0154, 679.9198
830.4975, 677.5301
830.9796, 677.1875
831.4617, 679.6263
831.9438, 681.4705
832.4260, 679.9925
832.9081, 676.5427
833.3902, 675.3537
833.8723, 677.7650
834.3544, 678.8926
834.8365, 677.6957
835.3187, 676.4766
835.8008, 676.0824
836.2829, 676.1848
836.7650, 676.5817
837.2471, 677.2604
837.7292, 677.3411
838.2114, 675.9449
838.6935, 674.5030
839.1756, 673.7758
839.6577, 673.6432
840.1398, 673.9855
840.6219, 674.7253
841.1041, 675.7832
841.5862, 677.2184
842.0683, 678.5710
842.5504, 678.9911
843.0325, 678.5715
843.5146, 677.7792
843.9968, 676.6278
844.4789, 675.6403
844.9610, 675.1442
845.4431, 674.8797
845.9252, 674.3635
846.4073, 673.5155
846.8895, 672.8138
847.3716, 672.6347
847.8537, 672.0859
848.3358, 670.0993
848.8179, 668.3232
849.3000, 668.5748
849.7822, 670.5129
850.2643, 671.9381
850.7464, 671.7661
851.2285, 671.5701
851.7106, 672.4213
852.1927, 673.6229
852.6749, 674.6222
853.1570, 675.2121
853.6391, 674.9996
854.1212, 673.8090
854.6033, 672.2280
855.0854, 670.8843
855.5676, 669.7962
856.0497, 669.2730
856.5318, 669.3468
857.0139, 668.6532
857.4960, 666.4721
857.9781, 664.4381
858.4603, 664.4075
858.9424, 666.1870
859.4245, 667.5209
859.9066, 668.4144
860.3887, 668.8348
860.8708, 668.6321
861.3530, 668.1229
861.8351, 666.8668
862.3172, 665.6031
862.7993, 665.8012
863.2814, 667.9462
863.7635, 670.1009
864.2457, 671.7055
864.7278, 672.7735
865.2099, 673.5770
865.6920, 673.7494
866.1741, 672.0408
866.6563, 668.6257
867.1384, 666.0203
867.6205, 666.3832
868.1026, 668.2753
868.5847, 669.1692
869.0668, 669.1293
869.5490, 668.4150
870.0311, 667.0258
870.5132, 665.7620
870.9953, 665.0355
871.4774, 664.8516
871.9595, 665.3624
872.4417, 666.9048
872.9238, 667.2568
873.4059, 665.3727
873.8880, 663.9615
874.3701, 664.5558
874.8522, 665.3936
875.3344, 664.7302
875.8165, 662.8546
876.2986, 661.6700
876.7807, 661.9237
877.2628, 662.3568
877.7449, 662.6368
878.2271, 662.8215
878.7092, 662.8870
879.1913, 662.9113
879.6734, 663.0662
880.1555, 663.4081
880.6376, 663.7635
881.1198, 664.1247
881.6019, 664.3105
882.0840, 663.6152
882.5661, 662.3748
883.0482, 662.2087
883.5303, 663.5032
884.0125, 664.9078
884.4946, 665.1844
884.9767, 664.8994
885.4588, 666.2708
885.9409, 669.9192
886.4230, 671.5482
886.9052, 669.8886
887.3873, 668.4606
887.8694, 669.6113
888.3515, 671.5345
888.8336, 670.9168
889.3157, 667.2393
889.7979, 665.0240
890.2800, 664.5822
890.7621, 665.3489
891.2442, 668.1036
891.7263, 671.2520
892.2084, 673.8338
892.6906, 675.5961
893.1727, 676.1398
893.6548, 675.1037
894.1369, 673.6933
894.6190, 672.2050
895.1011, 671.1609
895.5833, 671.3183
896.0654, 672.4455
896.5475, 674.0480
897.0296, 675.8926
897.5117, 677.5564
897.9938, 678.4720
898.4760, 679.1080
898.9581, 680.8280
899.4402, 683.5333
899.9223, 686.1230
900.4044, 688.4286
900.8865, 690.4672
901.3687, 692.1926
901.8508, 693.8076
902.3329, 695.9673
902.8150, 699.2584
903.2971, 699.9902
903.7792, 695.7892
904.2614, 693.1326
904.7435, 695.0159
905.2256, 698.3604
905.7077, 700.3099
906.1898, 701.1805
906.6719, 702.8217
907.1541, 705.6254
907.6362, 708.9432
908.1183, 713.4273
908.6004, 717.5813
909.0825, 719.9954
909.5646, 721.4135
910.0468, 722.9760
910.5289, 725.0361
911.0110, 728.0999
911.4931, 733.1285
911.9752, 738.7724
912.4573, 744.1705
912.9395, 748.9207
913.4216, 751.8438
913.9037, 753.0916
914.3858, 754.4935
914.8679, 757.1625
915.3500, 760.4456
915.8321, 762.7495
916.3142, 764.4434
916.7963, 768.8101
917.2784, 776.0558
917.7606, 783.8248
918.2427, 791.4259
918.7248, 798.8276
919.2069, 806.1345
919.6890, 813.2341
920.1711, 819.3870
920.6533, 824.2148
921.1354, 828.9973
921.6175, 833.3344
922.0996, 838.3073
922.5817, 844.7052
923.0638, 852.0215
923.5460, 859.5333
924.0281, 867.1865
924.5102, 875.3445
924.9923, 883.7551
925.4744, 893.1090
925.9565, 904.0220
926.4387, 915.7128
926.9208, 927.2512
927.4029, 938.9238
927.8850, 951.6348
928.3671, 965.9543
928.8492, 980.2920
929.3314, 993.4725
929.8135, 1006.985
930.2956, 1019.238
930.7777, 1032.477
931.2598, 1044.871
931.7419, 1056.537
932.2241, 1069.239
932.7062, 1084.674
933.1883, 1101.281
933.6704, 1116.385
934.1525, 1130.132
934.6346, 1142.946
935.1168, 1154.920
935.5989, 1167.955
936.0810, 1183.060
936.5631, 1198.215
937.0452, 1210.741
937.5273, 1220.712
938.0095, 1229.434
938.4916, 1236.992
938.9737, 1243.221
939.4558, 1248.728
939.9379, 1251.705
940.4200, 1250.869
940.9022, 1246.650
941.3843, 1240.251
941.8664, 1232.169
942.3485, 1220.255
942.8306, 1202.353
943.3127, 1183.607
943.7949, 1166.052
944.2770, 1147.668
944.7591, 1126.124
945.2412, 1102.092
945.7233, 1078.550
946.2054, 1055.789
946.6876, 1034.374
947.1697, 1014.976
947.6518, 996.5127
948.1339, 977.4526
948.6160, 959.2274
949.0981, 944.3358
949.5803, 933.1094
950.0624, 923.2245
950.5445, 913.7200
951.0266, 904.2238
951.5087, 892.9128
951.9908, 881.9499
952.4730, 875.5099
952.9551, 873.0356
953.4372, 871.0667
953.9193, 868.1301
954.4014, 864.8601
954.8835, 861.7971
955.3657, 859.0646
955.8478, 857.0393
956.3299, 855.6915
956.8120, 854.7677
957.2941, 854.2175
957.7762, 854.2659
958.2584, 855.0366
958.7405, 856.5930
959.2226, 859.5970
959.7047, 864.3255
960.1868, 865.5162
960.6689, 862.1848
961.1511, 859.3419
961.6332, 858.6546
962.1153, 858.4288
962.5974, 857.6164
963.0795, 855.9051
963.5616, 851.9281
964.0438, 845.5294
964.5259, 837.1341
965.0080, 824.8945
965.4901, 813.0463
965.9722, 803.6589
966.4543, 794.9127
966.9365, 784.8685
967.4186, 773.6265
967.9007, 762.8469
968.3828, 752.6975
968.8649, 743.0375
969.3470, 734.0975
969.8292, 725.4541
970.3113, 716.5330
970.7934, 707.9135
971.2755, 700.7125
971.7576, 695.0638
972.2397, 689.4863
972.7219, 682.4924
973.2040, 676.3139
973.6861, 672.9890
974.1682, 670.7900
974.6503, 667.5936
975.1324, 663.7207
975.6146, 660.7151
976.0967, 659.0986
976.5788, 657.7648
977.0609, 655.1951
977.5430, 652.7592
978.0251, 652.9632
978.5073, 654.6710
978.9894, 655.4012
979.4715, 654.7458
979.9536, 652.9370
980.4357, 650.0325
980.9178, 647.3600
981.4000, 647.1498
981.8821, 648.7325
982.3642, 649.5722
982.8463, 649.7256
983.3284, 650.0140
983.8105, 650.6425
984.2927, 650.7130
984.7748, 649.4279
985.2569, 647.6085
985.7390, 647.2238
986.2211, 648.3596
986.7032, 649.1155
987.1854, 649.2588
987.6675, 650.4261
988.1496, 653.5563
988.6317, 656.6727
989.1138, 657.9954
989.5959, 657.7200
990.0781, 656.5060
990.5602, 653.6306
991.0423, 651.8854
991.5244, 651.3213
992.0065, 651.9414
992.4886, 654.5270
992.9708, 657.5271
993.4529, 659.3709
993.9350, 660.0789
994.4171, 659.9357
994.8992, 658.1674
995.3813, 656.7498
995.8635, 656.2438
996.3456, 655.5281
996.8277, 654.1601
997.3098, 652.2906
997.7919, 650.0231
998.2740, 647.3994
998.7562, 644.7263
999.2383, 641.8908
999.7204, 639.2870
1000.203, 636.7840
1000.685, 634.7885
1001.167, 634.2181
1001.649, 634.0673
1002.131, 632.2505
1002.613, 628.6075
1003.095, 626.4406
1003.577, 628.7951
1004.059, 631.0130
1004.542, 630.0095
1005.024, 628.0385
1005.506, 627.4948
1005.988, 627.8082
1006.470, 627.0436
1006.952, 624.7336
1007.434, 622.6816
1007.916, 622.3693
1008.398, 622.6123
1008.881, 622.7303
1009.363, 622.4089
1009.845, 620.6093
1010.327, 617.9317
1010.809, 616.5076
1011.291, 617.1251
1011.773, 617.9821
1012.255, 617.0758
1012.738, 615.6309
1013.220, 615.6000
1013.702, 616.5644
1014.184, 617.7255
1014.666, 618.8439
1015.148, 619.5302
1015.630, 619.5916
1016.112, 619.4102
1016.594, 619.4673
1017.077, 619.6265
1017.559, 619.4477
1018.041, 619.0174
1018.523, 618.7572
1019.005, 618.7374
1019.487, 618.9180
1019.969, 619.3077
1020.451, 619.5143
1020.934, 618.7379
1021.416, 617.2558
1021.898, 616.5341
1022.380, 616.5833
1022.862, 618.0367
1023.344, 621.1301
1023.826, 623.7006
1024.308, 624.3185
1024.791, 624.0134
1025.273, 624.7291
1025.755, 626.4179
1026.237, 627.1406
1026.719, 626.7752
1027.201, 626.3889
1027.683, 626.2014
1028.165, 625.9402
1028.647, 625.2076
1029.130, 624.7299
1029.612, 626.2485
1030.094, 630.0168
1030.576, 632.4811
1031.058, 633.4836
1031.540, 633.6036
1032.022, 632.4908
1032.504, 631.6010
1032.986, 632.0698
1033.469, 633.3416
1033.951, 634.2407
1034.433, 634.8229
1034.915, 634.5889
1035.397, 632.9290
1035.879, 631.7717
1036.361, 631.6316
1036.843, 631.9537
1037.326, 632.6424
1037.808, 633.3678
1038.290, 633.3168
1038.772, 632.3215
1039.254, 631.3039
1039.736, 630.0993
1040.218, 629.1632
1040.700, 629.3143
1041.182, 628.9896
1041.665, 626.3488
1042.147, 622.6403
1042.629, 620.9902
1043.111, 622.0685
1043.593, 622.2213
1044.075, 620.2858
1044.557, 618.9179
1045.039, 619.8757
1045.521, 620.3802
1046.004, 617.6390
1046.486, 613.3063
1046.968, 611.0107
1047.450, 611.2831
1047.932, 611.9344
1048.414, 612.8652
1048.896, 613.9758
1049.378, 615.3824
1049.861, 616.8266
1050.343, 618.3129
1050.825, 619.6505
1051.307, 620.3973
1051.789, 620.4175
1052.271, 620.6120
1052.753, 620.8820
1053.235, 621.7100
1053.718, 623.3354
1054.200, 625.4821
1054.682, 628.4719
1055.164, 631.6286
1055.646, 633.5237
1056.128, 633.8548
1056.610, 634.8522
1057.092, 637.8809
1057.574, 640.6166
1058.057, 641.2857
1058.539, 642.2825
1059.021, 645.9633
1059.503, 651.1067
1059.985, 655.3532
1060.467, 658.3428
1060.949, 661.3300
1061.431, 665.9272
1061.913, 669.0129
1062.396, 667.2928
1062.878, 665.6413
1063.360, 668.5388
1063.842, 673.8937
1064.324, 677.6645
1064.806, 679.2987
1065.288, 681.5071
1065.770, 685.9426
1066.253, 690.2410
1066.735, 693.5971
1067.217, 696.2805
1067.699, 698.4224
1068.181, 700.0833
1068.663, 701.5646
1069.145, 702.7675
1069.627, 702.7188
1070.109, 701.4572
1070.592, 698.1787
1071.074, 691.5399
1071.556, 683.7440
1072.038, 675.5620
1072.520, 667.7338
1073.002, 661.2271
1073.484, 655.9845
1073.966, 650.7094
1074.448, 644.5382
1074.931, 639.0897
1075.413, 635.6680
1075.895, 632.7052
1076.377, 628.7982
1076.859, 624.8073
1077.341, 622.1297
1077.823, 620.6640
1078.305, 619.1463
1078.788, 617.0789
1079.270, 615.1185
1079.752, 613.3035
1080.234, 612.0106
1080.716, 611.8590
1081.198, 612.1157
1081.680, 612.1817
1082.162, 611.8177
1082.644, 610.5629
1083.127, 608.0842
1083.609, 605.7180
1084.091, 603.7963
1084.573, 602.4554
1085.055, 602.3718
1085.537, 602.4449
1086.019, 601.3512
1086.501, 599.4210
1086.984, 597.5948
1087.466, 596.0114
1087.948, 595.7027
1088.430, 598.4168
1088.912, 600.8743
1089.394, 601.3425
1089.876, 600.7975
1090.358, 599.9697
1090.840, 598.9417
1091.323, 597.3023
1091.805, 594.9767
1092.287, 594.0803
1092.769, 596.1843
1093.251, 598.8193
1093.733, 601.3934
1094.215, 603.6785
1094.697, 606.1359
1095.179, 607.8762
1095.662, 607.1035
1096.144, 603.7980
1096.626, 600.7540
1097.108, 599.3650
1097.590, 597.5350
1098.072, 593.3687
1098.554, 589.8682
1099.036, 589.2178
1099.519, 590.1793
1100.001, 591.4817
1100.483, 592.7849
1100.965, 593.2784
1101.447, 591.9202
1101.929, 591.6454
1102.411, 595.2758
1102.893, 597.6637
1103.375, 594.9155
1103.858, 590.8582
1104.340, 589.7255
1104.822, 590.8300
1105.304, 590.7590
1105.786, 588.5624
1106.268, 586.8340
1106.750, 585.5558
1107.232, 585.4402
1107.714, 588.1085
1108.197, 590.7289
1108.679, 590.4812
1109.161, 588.6623
1109.643, 588.5406
1110.125, 590.7203
1110.607, 591.9611
1111.089, 591.4145
1111.571, 590.6907
1112.054, 589.6692
1112.536, 588.9927
1113.018, 589.4359
1113.500, 590.2337
1113.982, 589.9815
1114.464, 590.4510
1114.946, 590.8182
1115.428, 590.1449
1115.911, 589.6844
1116.393, 589.3458
1116.875, 587.5663
1117.357, 585.8340
1117.839, 584.3906
1118.321, 583.4235
1118.803, 582.9611
1119.285, 583.1671
1119.767, 584.1454
1120.250, 585.6156
1120.732, 588.1515
1121.214, 590.0016
1121.696, 590.5366
1122.178, 590.4418
1122.660, 590.2277
1123.142, 589.8102
1123.624, 588.8255
1124.106, 587.0292
1124.589, 586.5982
1125.071, 587.8056
1125.553, 589.6119
1126.035, 592.2608
1126.517, 594.0867
1126.999, 594.0450
1127.481, 592.6773
1127.963, 590.4766
1128.446, 587.7045
1128.928, 588.1125
1129.410, 592.3774
1129.892, 593.1198
1130.374, 588.9740
1130.856, 585.8547
1131.338, 586.4073
1131.820, 587.8994
1132.302, 587.4232
1132.785, 585.6659
1133.267, 584.4872
1133.749, 583.9315
1134.231, 585.2784
1134.713, 588.4786
1135.195, 589.9576
1135.677, 588.7322
1136.159, 586.7653
1136.641, 585.3647
1137.124, 584.6351
1137.606, 584.9316
1138.088, 586.0041
1138.570, 587.0616
1139.052, 588.0450
1139.534, 588.7488
1140.016, 589.1077
1140.498, 588.8191
1140.981, 587.7572
1141.463, 586.7653
1141.945, 586.7836
1142.427, 587.3831
1142.909, 588.0295
1143.391, 588.5901
1143.873, 588.8339
1144.355, 588.7052
1144.838, 588.1262
1145.320, 587.0872
1145.802, 585.5401
1146.284, 583.1571
1146.766, 581.2100
1147.248, 581.4554
1147.730, 582.4662
1148.212, 582.4537
1148.694, 581.9502
1149.177, 582.1026
1149.659, 582.8918
1150.141, 583.4718
1150.623, 583.4880
1151.105, 583.5950
1151.587, 584.6650
1152.069, 585.4149
1152.551, 585.1882
1153.033, 584.0084
1153.516, 580.8804
1153.998, 577.2229
1154.480, 575.7643
1154.962, 576.9421
1155.444, 578.9240
1155.926, 582.7490
1156.408, 584.8300
1156.890, 582.3073
1157.373, 579.7762
1157.855, 580.1900
1158.337, 581.7698
1158.819, 582.4680
1159.301, 582.3101
1159.783, 582.0908
1160.265, 581.8630
1160.747, 581.6185
1161.229, 580.9318
1161.712, 580.8453
1162.194, 582.2892
1162.676, 583.5793
1163.158, 583.6199
1163.640, 582.7781
1164.122, 581.5192
1164.604, 579.7958
1165.086, 579.1648
1165.568, 579.9301
1166.051, 580.9470
1166.533, 582.3154
1167.015, 583.2514
1167.497, 583.3165
1167.979, 583.1156
1168.461, 583.2348
1168.943, 583.6282
1169.425, 584.2234
1169.908, 585.0294
1170.390, 585.5732
1170.872, 585.8437
1171.354, 585.8482
1171.836, 585.5854
1172.318, 585.0593
1172.800, 584.2359
1173.282, 583.5091
1173.765, 583.5351
1174.247, 584.0034
1174.729, 584.0502
1175.211, 583.7345
1175.693, 583.1985
1176.175, 582.5095
1176.657, 581.7155
1177.139, 580.9013
1177.621, 580.6452
1178.104, 581.5296
1178.586, 582.6016
1179.068, 582.9357
1179.550, 582.5933
1180.032, 581.1465
1180.514, 579.3403
1180.996, 578.5721
1181.478, 578.7603
1181.960, 578.7487
1182.443, 578.0956
1182.925, 577.8459
1183.407, 579.2723
1183.889, 580.4658
1184.371, 579.8435
1184.853, 578.8941
1185.335, 578.7501
1185.817, 579.2860
1186.300, 580.4272
1186.782, 581.9915
1187.264, 582.8934
1187.746, 583.0550
1188.228, 582.2429
1188.710, 578.7224
1189.192, 576.4274
1189.674, 578.1443
1190.156, 580.3045
1190.639, 579.8548
1191.121, 577.9275
1191.603, 576.8843
1192.085, 576.7501
1192.567, 577.2618
1193.049, 579.0233
1193.531, 579.5255
1194.013, 577.9542
1194.495, 576.8180
1194.978, 577.2709
1195.460, 578.2938
1195.942, 578.9084
1196.424, 579.1682
1196.906, 579.0458
1197.388, 578.5945
1197.870, 579.0466
1198.352, 580.3646
1198.835, 581.6103
1199.317, 582.5645
1199.799, 583.1097
1200.281, 583.1827
1200.763, 582.7157
1201.245, 581.3409
1201.727, 579.7705
1202.209, 579.3054
1202.692, 579.6071
1203.174, 580.3221
1203.656, 581.0770
1204.138, 580.8826
1204.620, 579.7540
1205.102, 579.0555
1205.584, 579.6099
1206.066, 580.0356
1206.548, 579.0768
1207.031, 577.8965
1207.513, 577.5244
1207.995, 577.2980
1208.477, 575.9752
1208.959, 574.3978
1209.441, 574.7314
1209.923, 577.2139
1210.405, 578.8958
1210.887, 578.3719
1211.370, 578.1214
1211.852, 578.8178
1212.334, 579.5035
1212.816, 579.8422
1213.298, 579.9501
1213.780, 579.8499
1214.262, 579.6186
1214.744, 579.4482
1215.227, 579.3378
1215.709, 579.3994
1216.191, 579.9701
1216.673, 578.9332
1217.155, 575.4477
1217.637, 573.4287
1218.119, 574.7658
1218.601, 577.0722
1219.083, 577.9903
1219.566, 577.9480
1220.048, 577.9077
1220.530, 577.8217
1221.012, 577.4889
1221.494, 576.8902
1221.976, 575.7922
1222.458, 574.3008
1222.940, 572.9928
1223.422, 572.1556
1223.905, 572.1929
1224.387, 574.0270
1224.869, 576.0139
1225.351, 575.5887
1225.833, 574.9813
1226.315, 577.7468
1226.797, 581.8217
1227.279, 583.4493
1227.762, 582.5974
1228.244, 581.7162
1228.726, 581.6262
1229.208, 580.9539
1229.690, 578.2490
1230.172, 576.2518
1230.654, 576.6553
1231.136, 577.2852
1231.619, 576.2424
1232.101, 574.9224
1232.583, 575.5778
1233.065, 577.7613
1233.547, 578.4775
1234.029, 577.1355
1234.511, 576.2667
1234.993, 575.7631
1235.475, 576.3027
1235.958, 578.2756
1236.440, 580.2651
1236.922, 581.5196
1237.404, 582.0247
1237.886, 581.7022
1238.368, 580.6975
1238.850, 579.2228
1239.332, 577.4763
1239.814, 576.3571
1240.297, 575.7287
1240.779, 574.4714
1241.261, 572.5986
1241.743, 571.7418
1242.225, 572.7928
1242.707, 574.2582
1243.189, 574.7805
1243.671, 575.1568
1244.154, 576.3328
1244.636, 577.5557
1245.118, 578.1203
1245.600, 578.0686
1246.082, 577.1701
1246.564, 575.7441
1247.046, 575.5353
1247.528, 577.5242
1248.010, 578.9875
1248.493, 579.4998
1248.975, 579.3758
1249.457, 578.2665
1249.939, 577.1104
1250.421, 576.4177
1250.903, 575.9504
1251.385, 575.2878
1251.867, 574.6008
1252.349, 575.0469
1252.832, 576.7872
1253.314, 577.4980
1253.796, 577.0862
1254.278, 576.8633
1254.760, 577.1161
1255.242, 577.0911
1255.724, 576.3758
1256.206, 575.3995
1256.689, 574.5944
1257.171, 573.9119
1257.653, 573.0490
1258.135, 572.3989
1258.617, 572.9490
1259.099, 574.1248
1259.581, 574.5372
1260.063, 574.2521
1260.546, 574.5110
1261.028, 575.7708
1261.510, 577.2512
1261.992, 579.4366
1262.474, 580.5876
1262.956, 578.3475
1263.438, 576.7244
1263.920, 579.3666
1264.402, 583.1255
1264.885, 584.0226
1265.367, 582.8270
1265.849, 582.4293
1266.331, 583.1302
1266.813, 582.3972
1267.295, 579.5540
1267.777, 578.8877
1268.259, 581.4031
1268.741, 583.2015
1269.224, 582.6017
1269.706, 580.8207
1270.188, 578.7883
1270.670, 577.0891
1271.152, 577.3815
1271.634, 578.5276
1272.116, 577.0261
1272.598, 574.5061
1273.081, 575.7780
1273.563, 579.7758
1274.045, 581.2220
1274.527, 578.8544
1275.009, 576.8248
1275.491, 577.2920
1275.973, 578.3373
1276.455, 578.9361
1276.938, 579.9736
1277.420, 583.1103
1277.902, 585.8121
1278.384, 585.2508
1278.866, 582.8409
1279.348, 581.7712
1279.830, 579.8030
1280.312, 580.2231
1280.794, 575.8550
1281.276, 572.7073
1281.759, 570.8875
1282.241, 570.6075
1282.723, 571.9939
1283.205, 574.5201
1283.687, 578.0291
1284.169, 580.8195
1284.651, 580.3457
1285.133, 578.2745
1285.616, 577.3754
1286.098, 577.6010
##END=



