##NAMES=Ancylite-(Ce)
##RRUFFID=R060218
##IDEAL CHEMISTRY=CeSr(CO_3_)_2_(OH)&#183;H_2_O
##LOCALITY=Mont Saint-Hilaire, Rouville County, Quebec, Canada
##OWNER=RRUFF
##SOURCE=Royal Ontario Museum
##DESCRIPTION=Pale pink prismatic crystals
##STATUS=The identification of this mineral has been confirmed by X-ray diffraction and chemical analysis
##URL=rruff.info/R060218
##MEASURED CHEMISTRY=(Ce_0.40_(La,Pr)_0.23_Ca_0.18_Nd_0.10_Sr_0.09_)_Σ=1_CO_3_((OH)_0.67_(H_2_O)_0.27_F_0.06_)_Σ=1_
92.07813, 12.72554
92.56024, 12.59499
93.04236, 12.66992
93.52448, 12.90660
94.00659, 13.14335
94.48871, 13.29884
94.97083, 13.38559
95.45294, 13.44882
95.93506, 13.50439
96.41718, 13.51529
96.89929, 13.37046
97.38141, 13.06861
97.86353, 12.79090
98.34564, 12.65386
98.82776, 12.65769
99.30988, 12.77941
99.79199, 13.07703
100.2741, 13.46970
100.7562, 13.61349
101.2383, 13.43052
101.7205, 13.21556
102.2026, 13.30623
102.6847, 13.84211
103.1668, 14.12376
103.6489, 13.89187
104.1310, 13.12916
104.6132, 12.75587
105.0953, 12.93989
105.5774, 13.35888
106.0595, 13.61631
106.5416, 13.63555
107.0237, 13.61293
107.5059, 13.58711
107.9880, 13.54091
108.4701, 13.54667
108.9522, 13.63229
109.4343, 13.76436
109.9164, 13.88439
110.3986, 13.94897
110.8807, 14.03647
111.3628, 14.19024
111.8449, 14.57240
112.3270, 14.75492
112.8091, 14.41380
113.2913, 13.81291
113.7734, 13.68691
114.2555, 14.59758
114.7376, 15.72286
115.2197, 16.61598
115.7018, 16.96354
116.1840, 17.34760
116.6661, 17.91462
117.1482, 18.64381
117.6303, 19.42371
118.1124, 20.09344
118.5945, 20.86046
119.0767, 21.89409
119.5588, 23.47477
120.0409, 25.15622
120.5230, 26.59122
121.0051, 27.79819
121.4872, 29.31379
121.9694, 31.43694
122.4515, 34.05840
122.9336, 37.04004
123.4157, 40.22111
123.8978, 43.76258
124.3799, 47.76448
124.8621, 52.22477
125.3442, 57.22274
125.8263, 63.17057
126.3084, 69.75362
126.7905, 76.22949
127.2726, 82.22704
127.7548, 87.83119
128.2369, 93.17761
128.7190, 98.31545
129.2011, 103.0409
129.6832, 106.9791
130.1653, 110.1810
130.6474, 113.1717
131.1296, 116.2323
131.6117, 119.3050
132.0938, 122.2618
132.5759, 125.0373
133.0580, 127.7890
133.5401, 130.5722
134.0223, 133.3814
134.5044, 136.7792
134.9865, 141.2533
135.4686, 146.8321
135.9507, 152.7793
136.4328, 159.1624
136.9150, 165.8664
137.3971, 172.3302
137.8792, 178.5224
138.3613, 184.7298
138.8434, 191.2890
139.3255, 198.2590
139.8077, 205.0124
140.2898, 211.4981
140.7719, 217.6752
141.2540, 223.7562
141.7361, 229.7647
142.2182, 235.5282
142.7004, 240.8182
143.1825, 245.3916
143.6646, 249.9937
144.1467, 254.6874
144.6288, 259.5421
145.1109, 264.3848
145.5931, 269.3626
146.0752, 274.2447
146.5573, 278.7958
147.0394, 282.5187
147.5215, 286.5896
148.0036, 291.2059
148.4858, 296.4998
148.9679, 302.0873
149.4500, 307.8704
149.9321, 313.9957
150.4142, 320.5579
150.8963, 328.2706
151.3785, 335.8695
151.8606, 342.7549
152.3427, 348.3041
152.8248, 354.8687
153.3069, 363.1641
153.7890, 372.4605
154.2712, 380.3119
154.7533, 385.0653
155.2354, 389.1475
155.7175, 392.8003
156.1996, 396.0478
156.6817, 398.7348
157.1639, 400.6255
157.6460, 401.9649
158.1281, 403.2265
158.6102, 404.3973
159.0923, 405.5995
159.5744, 406.9526
160.0566, 408.8558
160.5387, 410.2895
161.0208, 410.5083
161.5029, 409.9645
161.9850, 409.9709
162.4671, 411.5943
162.9493, 413.5604
163.4314, 414.9674
163.9135, 414.8994
164.3956, 415.1564
164.8777, 416.6816
165.3598, 419.2365
165.8420, 421.8544
166.3241, 423.6214
166.8062, 425.4372
167.2883, 428.1146
167.7704, 432.2856
168.2525, 436.9370
168.7346, 441.7872
169.2168, 446.7505
169.6989, 451.2935
170.1810, 454.4904
170.6631, 457.2667
171.1452, 460.7543
171.6273, 465.7921
172.1095, 471.2647
172.5916, 476.2823
173.0737, 480.8880
173.5558, 485.5490
174.0379, 490.6272
174.5201, 495.9640
175.0022, 501.3946
175.4843, 506.8685
175.9664, 512.4390
176.4485, 517.8914
176.9306, 523.2740
177.4128, 528.9921
177.8949, 535.8314
178.3770, 543.2505
178.8591, 550.2084
179.3412, 555.8807
179.8233, 560.9694
180.3055, 566.5844
180.7876, 572.7849
181.2697, 579.2604
181.7518, 586.0474
182.2339, 592.9572
182.7160, 599.6132
183.1982, 605.7686
183.6803, 611.5289
184.1624, 616.9483
184.6445, 621.9545
185.1266, 626.9932
185.6087, 632.8167
186.0909, 639.2802
186.5730, 645.2789
187.0551, 650.2244
187.5372, 654.3331
188.0193, 658.6380
188.5014, 663.2627
188.9836, 667.5133
189.4657, 670.6706
189.9478, 672.7307
190.4299, 674.0133
190.9120, 674.8455
191.3941, 675.0797
191.8763, 673.7712
192.3584, 670.7393
192.8405, 666.6488
193.3226, 662.5963
193.8047, 658.6067
194.2868, 653.2981
194.7690, 645.4250
195.2511, 635.2305
195.7332, 625.6198
196.2153, 616.8390
196.6974, 608.2623
197.1795, 599.2557
197.6617, 589.7945
198.1438, 579.8438
198.6259, 568.9451
199.1080, 557.1481
199.5901, 546.5260
200.0722, 537.2347
200.5544, 529.0294
201.0365, 521.7196
201.5186, 515.3206
202.0007, 509.4038
202.4828, 503.6956
202.9649, 498.1521
203.4471, 493.3531
203.9292, 489.2866
204.4113, 485.9091
204.8934, 483.0712
205.3755, 480.7583
205.8576, 479.1098
206.3398, 478.1686
206.8219, 477.9165
207.3040, 478.5684
207.7861, 480.3688
208.2682, 482.8243
208.7503, 484.8688
209.2325, 486.3290
209.7146, 487.8803
210.1967, 489.7022
210.6788, 491.6725
211.1609, 494.5674
211.6430, 498.5703
212.1252, 503.3941
212.6073, 508.4146
213.0894, 513.7111
213.5715, 518.9543
214.0536, 523.8489
214.5357, 528.1190
215.0179, 533.1815
215.5000, 539.2642
215.9821, 546.0282
216.4642, 552.7982
216.9463, 559.5959
217.4284, 566.2264
217.9105, 572.6885
218.3927, 578.9481
218.8748, 584.9188
219.3569, 590.5357
219.8390, 595.8851
220.3211, 601.3043
220.8032, 606.9302
221.2854, 612.4055
221.7675, 617.7395
222.2496, 622.9919
222.7317, 627.7471
223.2138, 631.9651
223.6959, 635.6926
224.1781, 639.1882
224.6602, 642.6347
225.1423, 645.4774
225.6244, 647.2953
226.1065, 647.6293
226.5886, 648.3937
227.0708, 649.7422
227.5529, 651.4486
228.0350, 653.0300
228.5171, 654.3338
228.9992, 655.8014
229.4813, 657.6823
229.9635, 660.2377
230.4456, 662.3807
230.9277, 663.9996
231.4098, 665.2514
231.8919, 666.4150
232.3740, 667.3434
232.8562, 668.4244
233.3383, 669.8939
233.8204, 672.0455
234.3025, 673.5997
234.7846, 674.2299
235.2667, 674.4508
235.7489, 675.2023
236.2310, 676.7744
236.7131, 678.4085
237.1952, 679.8795
237.6773, 681.1248
238.1594, 682.4121
238.6416, 683.9899
239.1237, 685.4689
239.6058, 686.1849
240.0879, 685.8362
240.5700, 685.2335
241.0521, 684.7111
241.5343, 684.4726
242.0164, 683.3629
242.4985, 680.9055
242.9806, 677.8882
243.4627, 675.6043
243.9448, 675.0253
244.4270, 673.4823
244.9091, 670.0575
245.3912, 664.3605
245.8733, 658.7581
246.3554, 653.5613
246.8375, 648.1542
247.3197, 641.7043
247.8018, 633.9052
248.2839, 625.6043
248.7660, 616.9533
249.2481, 607.8894
249.7302, 598.7929
250.2124, 589.7463
250.6945, 580.5444
251.1766, 570.7772
251.6587, 560.1855
252.1408, 549.5750
252.6229, 539.2391
253.1051, 529.1486
253.5872, 518.4832
254.0693, 506.8245
254.5514, 494.8731
255.0335, 483.2621
255.5156, 472.0935
255.9978, 461.3014
256.4799, 450.9655
256.9620, 441.0343
257.4441, 430.9969
257.9262, 420.7458
258.4083, 410.5273
258.8904, 400.7134
259.3726, 391.2840
259.8547, 382.1161
260.3368, 373.2866
260.8189, 364.7153
261.3010, 356.3998
261.7831, 348.4419
262.2653, 340.6005
262.7474, 332.7120
263.2295, 324.4449
263.7116, 316.9238
264.1937, 310.3500
264.6758, 304.6494
265.1580, 299.0213
265.6401, 293.4101
266.1222, 288.0524
266.6043, 283.2243
267.0864, 279.0924
267.5685, 274.6973
268.0507, 269.6849
268.5328, 264.3720
269.0149, 259.9774
269.4970, 256.7340
269.9791, 253.7445
270.4612, 250.3730
270.9434, 246.5176
271.4255, 242.8609
271.9076, 239.4316
272.3897, 236.1956
272.8718, 232.9590
273.3539, 229.6090
273.8361, 226.6123
274.3182, 224.3749
274.8003, 223.0470
275.2824, 221.3012
275.7645, 218.9808
276.2466, 216.3658
276.7288, 213.9750
277.2109, 211.8255
277.6930, 209.8347
278.1751, 208.0120
278.6572, 206.3508
279.1393, 204.8831
279.6215, 203.7032
280.1036, 202.5439
280.5857, 200.9498
281.0678, 198.8920
281.5499, 196.7653
282.0320, 194.6616
282.5142, 192.5970
282.9963, 190.9555
283.4784, 189.7885
283.9605, 188.8875
284.4426, 188.0971
284.9247, 187.4231
285.4069, 186.5316
285.8890, 185.0577
286.3711, 183.2559
286.8532, 182.5202
287.3353, 183.0118
287.8174, 183.6708
288.2996, 183.2769
288.7817, 181.9237
289.2638, 180.7004
289.7459, 179.9706
290.2280, 179.5342
290.7101, 178.7671
291.1923, 177.6463
291.6744, 176.5187
292.1565, 175.6989
292.6386, 175.1318
293.1207, 174.5345
293.6028, 173.8205
294.0850, 173.0728
294.5671, 172.3912
295.0492, 171.7763
295.5313, 171.2657
296.0134, 171.0862
296.4955, 171.0508
296.9777, 170.5383
297.4598, 169.3167
297.9419, 167.8975
298.4240, 167.1000
298.9061, 166.8229
299.3882, 166.5158
299.8704, 165.7529
300.3525, 164.7542
300.8346, 163.9241
301.3167, 163.3233
301.7988, 162.8491
302.2809, 162.5328
302.7631, 162.2807
303.2452, 161.7981
303.7273, 160.6412
304.2094, 159.2858
304.6915, 158.4291
305.1736, 158.1248
305.6558, 158.0036
306.1379, 157.8189
306.6200, 157.5777
307.1021, 157.2952
307.5842, 156.9071
308.0663, 156.5175
308.5485, 156.2702
309.0306, 156.1571
309.5127, 155.9576
309.9948, 155.3438
310.4769, 154.6028
310.9590, 154.1201
311.4412, 154.4181
311.9233, 154.6192
312.4054, 153.8943
312.8875, 152.4243
313.3696, 151.1825
313.8517, 150.9488
314.3339, 151.0737
314.8160, 150.9762
315.2981, 150.3273
315.7802, 149.7407
316.2623, 149.6835
316.7444, 149.9517
317.2266, 149.9911
317.7087, 149.2811
318.1908, 148.4691
318.6729, 147.9758
319.1550, 147.9806
319.6371, 147.9942
320.1193, 147.9210
320.6014, 147.7396
321.0835, 147.4129
321.5656, 146.4294
322.0477, 145.7222
322.5298, 145.8376
323.0120, 147.0280
323.4941, 147.8856
323.9762, 147.8624
324.4583, 147.4580
324.9404, 147.2133
325.4225, 147.6081
325.9047, 147.7751
326.3868, 147.2578
326.8689, 146.0137
327.3510, 145.4061
327.8331, 146.0504
328.3152, 147.0553
328.7974, 147.8061
329.2795, 148.2914
329.7616, 148.5216
330.2437, 148.3352
330.7258, 147.8334
331.2079, 147.5774
331.6901, 147.7327
332.1722, 147.9667
332.6543, 148.0979
333.1364, 147.8836
333.6185, 148.0229
334.1006, 148.7059
334.5828, 149.6881
335.0649, 150.3700
335.5470, 150.6214
336.0291, 150.8069
336.5112, 151.0533
336.9933, 151.3733
337.4755, 151.6902
337.9576, 151.9788
338.4397, 152.2913
338.9218, 152.6850
339.4039, 153.1352
339.8860, 153.7599
340.3681, 154.6727
340.8503, 155.8422
341.3324, 156.6568
341.8145, 157.0193
342.2966, 157.3297
342.7787, 157.9455
343.2608, 158.8658
343.7430, 160.0393
344.2251, 161.5572
344.7072, 163.2436
345.1893, 164.5110
345.6714, 165.3478
346.1535, 166.0454
346.6357, 166.6031
347.1178, 167.1186
347.5999, 168.2604
348.0820, 170.2326
348.5641, 172.5612
349.0462, 174.6865
349.5284, 176.5865
350.0105, 178.1799
350.4926, 179.1190
350.9747, 179.7608
351.4568, 180.9731
351.9389, 182.8265
352.4211, 184.8491
352.9032, 186.3957
353.3853, 187.7098
353.8674, 189.3835
354.3495, 191.8479
354.8316, 194.6684
355.3138, 197.5324
355.7959, 200.4043
356.2780, 202.8839
356.7601, 204.3073
357.2422, 205.3248
357.7243, 206.8056
358.2065, 209.1535
358.6886, 211.7326
359.1707, 214.1227
359.6528, 216.3874
360.1349, 218.7188
360.6170, 221.1763
361.0992, 223.7547
361.5813, 226.5140
362.0634, 229.5257
362.5455, 232.4016
363.0276, 234.9326
363.5097, 237.2337
363.9919, 239.4772
364.4740, 241.5449
364.9561, 243.7124
365.4382, 246.1299
365.9203, 248.8358
366.4024, 251.4888
366.8846, 254.1031
367.3667, 256.6158
367.8488, 258.9767
368.3309, 261.5574
368.8130, 263.5655
369.2951, 264.6907
369.7773, 265.0619
370.2594, 265.5507
370.7415, 266.0734
371.2236, 266.8000
371.7057, 267.8595
372.1878, 269.6543
372.6700, 271.0441
373.1521, 272.1363
373.6342, 272.7715
374.1163, 272.5117
374.5984, 270.8503
375.0805, 269.2938
375.5627, 268.4238
376.0448, 268.3320
376.5269, 267.7328
377.0090, 266.5648
377.4911, 264.9836
377.9732, 263.0517
378.4554, 260.7208
378.9375, 258.4193
379.4196, 256.2589
379.9017, 254.1748
380.3838, 251.9144
380.8659, 249.5243
381.3481, 246.7579
381.8302, 243.1799
382.3123, 238.9503
382.7944, 235.2613
383.2765, 232.2529
383.7586, 229.7139
384.2408, 227.4933
384.7229, 225.5272
385.2050, 223.2789
385.6871, 220.2015
386.1692, 216.7665
386.6513, 213.7476
387.1335, 211.1967
387.6156, 208.9070
388.0977, 206.9841
388.5798, 205.1928
389.0619, 203.0510
389.5440, 200.1784
390.0262, 197.1254
390.5083, 194.3134
390.9904, 191.6975
391.4725, 189.1983
391.9546, 186.7528
392.4367, 184.4130
392.9189, 182.2164
393.4010, 180.2362
393.8831, 178.2639
394.3652, 176.1976
394.8473, 174.0962
395.3294, 172.0392
395.8116, 170.1322
396.2937, 168.2303
396.7758, 166.2631
397.2579, 164.2179
397.7400, 162.1948
398.2221, 160.2773
398.7043, 158.3756
399.1864, 156.4231
399.6685, 154.2962
400.1506, 152.2544
400.6327, 150.2842
401.1148, 148.4054
401.5970, 146.7091
402.0791, 145.2652
402.5612, 143.9455
403.0433, 142.7163
403.5254, 141.6324
404.0075, 140.4903
404.4897, 139.2777
404.9718, 138.0227
405.4539, 136.7486
405.9360, 135.4197
406.4181, 134.1841
406.9002, 133.0935
407.3824, 132.1401
407.8645, 131.1460
408.3466, 130.0945
408.8287, 129.0624
409.3108, 128.1778
409.7929, 127.4280
410.2751, 126.4663
410.7572, 125.1788
411.2393, 123.7354
411.7214, 122.3530
412.2035, 121.0497
412.6856, 120.0758
413.1678, 119.8223
413.6499, 119.9610
414.1320, 119.7692
414.6141, 119.1970
415.0962, 118.4759
415.5783, 117.6945
416.0605, 116.9323
416.5426, 116.3243
417.0247, 115.9886
417.5068, 115.7668
417.9889, 115.6574
418.4710, 115.5948
418.9532, 115.2636
419.4353, 114.1467
419.9174, 112.8930
420.3995, 112.0684
420.8816, 111.9180
421.3637, 111.7875
421.8459, 111.3408
422.3280, 110.7688
422.8101, 110.3575
423.2922, 110.4143
423.7743, 110.4180
424.2564, 110.2092
424.7386, 109.7756
425.2207, 109.2378
425.7028, 108.3685
426.1849, 107.5614
426.6670, 107.0880
427.1491, 107.2890
427.6313, 107.2784
428.1134, 106.8680
428.5955, 106.2504
429.0776, 105.9644
429.5597, 106.1464
430.0418, 106.3959
430.5240, 106.6450
431.0061, 106.9270
431.4882, 106.6955
431.9703, 105.7931
432.4524, 104.7235
432.9345, 104.0302
433.4167, 103.7188
433.8988, 103.6021
434.3809, 103.7359
434.8630, 103.9534
435.3451, 103.7421
435.8272, 103.1188
436.3094, 102.5952
436.7915, 102.6376
437.2736, 103.0254
437.7557, 103.1999
438.2378, 103.0879
438.7199, 102.9207
439.2020, 103.0225
439.6841, 103.2388
440.1663, 103.2525
440.6484, 102.6547
441.1305, 102.0021
441.6126, 101.8223
442.0947, 102.0433
442.5768, 102.2348
443.0590, 102.1562
443.5411, 101.9652
444.0232, 101.7832
444.5053, 101.6471
444.9874, 101.4875
445.4695, 101.2817
445.9517, 101.0392
446.4338, 100.7729
446.9159, 100.2913
447.3980, 99.97752
447.8801, 100.0186
448.3622, 100.4448
448.8444, 100.7362
449.3265, 100.8573
449.8086, 100.8757
450.2907, 100.8278
450.7728, 100.6791
451.2549, 100.5366
451.7371, 100.3792
452.2192, 100.2509
452.7013, 100.3024
453.1834, 100.6205
453.6655, 100.7913
454.1476, 100.5599
454.6298, 99.98254
455.1119, 99.73587
455.5940, 99.87317
456.0761, 100.0650
456.5582, 99.98820
457.0403, 99.67948
457.5225, 99.31766
458.0046, 98.91385
458.4867, 98.53154
458.9688, 98.22209
459.4509, 98.00516
459.9330, 97.97627
460.4152, 98.38354
460.8973, 98.91067
461.3794, 99.16389
461.8615, 99.12261
462.3436, 98.98904
462.8257, 98.82610
463.3079, 98.67151
463.7900, 98.57518
464.2721, 98.71683
464.7542, 98.71673
465.2363, 98.25680
465.7184, 97.51962
466.2006, 97.02294
466.6827, 97.05804
467.1648, 97.21559
467.6469, 97.35837
468.1290, 97.48843
468.6111, 97.56033
469.0933, 97.53947
469.5754, 97.48476
470.0575, 97.44423
470.5396, 97.40868
471.0217, 97.41534
471.5038, 97.51702
471.9860, 97.65263
472.4681, 97.60435
472.9502, 97.33940
473.4323, 96.99550
473.9144, 96.45776
474.3965, 95.75084
474.8787, 96.02657
475.3608, 97.49630
475.8429, 98.94450
476.3250, 98.69292
476.8071, 97.09583
477.2892, 95.95146
477.7714, 95.80870
478.2535, 96.22251
478.7356, 96.71700
479.2177, 97.26186
479.6998, 97.71500
480.1819, 98.18061
480.6641, 98.41695
481.1462, 97.97583
481.6283, 96.77048
482.1104, 95.80946
482.5925, 95.87538
483.0746, 96.40324
483.5568, 96.81261
484.0389, 96.99121
484.5210, 96.96818
485.0031, 96.62164
485.4852, 96.06147
485.9673, 95.61808
486.4495, 95.36231
486.9316, 95.21580
487.4137, 95.16737
487.8958, 95.23715
488.3779, 95.30460
488.8600, 95.40942
489.3422, 95.46778
489.8243, 95.37331
490.3064, 95.04792
490.7885, 94.83958
491.2706, 94.80148
491.7527, 94.89783
492.2349, 95.10695
492.7170, 95.44962
493.1991, 95.64632
493.6812, 95.43406
494.1633, 94.94706
494.6454, 94.78393
495.1276, 94.96281
495.6097, 95.15535
496.0918, 95.06542
496.5739, 94.76608
497.0560, 94.37194
497.5381, 93.79682
498.0203, 93.36846
498.5024, 93.49129
498.9845, 93.98018
499.4666, 94.42812
499.9487, 94.65897
500.4308, 94.78139
500.9130, 94.80497
501.3951, 94.73434
501.8772, 94.75178
502.3593, 95.10588
502.8414, 95.43999
503.3235, 95.51462
503.8057, 95.00368
504.2878, 94.66516
504.7699, 94.57297
505.2520, 94.64300
505.7341, 94.74467
506.2162, 94.90114
506.6984, 95.04508
507.1805, 95.18975
507.6626, 95.31702
508.1447, 95.19909
508.6268, 94.75103
509.1089, 94.37016
509.5911, 94.44138
510.0732, 94.90788
510.5553, 95.09343
511.0374, 94.90128
511.5195, 94.59712
512.0016, 94.51356
512.4838, 94.60157
512.9659, 94.70829
513.4480, 94.88679
513.9301, 94.95743
514.4122, 94.57424
514.8943, 93.85440
515.3765, 93.29189
515.8586, 93.29722
516.3407, 93.48091
516.8228, 93.54278
517.3049, 93.42236
517.7870, 93.32057
518.2692, 93.22131
518.7513, 93.21382
519.2334, 93.38528
519.7155, 94.11066
520.1976, 94.57713
520.6797, 94.61864
521.1619, 94.35121
521.6440, 94.07394
522.1261, 93.69770
522.6082, 93.48273
523.0903, 93.59300
523.5724, 94.03941
524.0546, 94.22166
524.5367, 94.08363
525.0188, 93.85503
525.5009, 93.63988
525.9830, 93.46252
526.4651, 93.70940
526.9473, 94.58421
527.4294, 95.48615
527.9115, 95.33620
528.3936, 94.42759
528.8757, 93.72994
529.3578, 93.99031
529.8400, 94.48709
530.3221, 94.34464
530.8042, 93.67696
531.2863, 93.22115
531.7684, 93.68032
532.2505, 94.32369
532.7327, 94.59348
533.2148, 94.32621
533.6969, 93.95586
534.1790, 93.31871
534.6611, 92.74988
535.1432, 92.64283
535.6254, 93.75572
536.1075, 94.39659
536.5896, 94.17627
537.0717, 93.37029
537.5538, 92.95027
538.0359, 93.04331
538.5181, 93.22336
539.0002, 93.33558
539.4823, 93.38036
539.9644, 93.34804
540.4465, 93.21003
540.9286, 93.13903
541.4108, 93.46505
541.8929, 94.04199
542.3750, 94.13848
542.8571, 93.50127
543.3392, 92.73090
543.8214, 92.58537
544.3035, 92.86943
544.7856, 93.09882
545.2677, 92.95003
545.7498, 92.75242
546.2319, 92.81365
546.7141, 93.07650
547.1962, 93.18987
547.6783, 92.82117
548.1604, 92.40770
548.6425, 92.18253
549.1246, 92.19930
549.6068, 92.32771
550.0889, 92.63338
550.5710, 92.99834
551.0531, 93.33565
551.5352, 93.73117
552.0173, 93.90218
552.4995, 93.75209
552.9816, 93.39995
553.4637, 93.12350
553.9458, 92.92494
554.4279, 92.78914
554.9100, 92.71706
555.3922, 92.70318
555.8743, 92.79211
556.3564, 92.98394
556.8385, 93.03585
557.3206, 92.48134
557.8027, 91.72822
558.2849, 91.54262
558.7670, 92.13713
559.2491, 92.82372
559.7312, 93.09348
560.2133, 93.12182
560.6954, 93.14505
561.1776, 93.33897
561.6597, 93.43924
562.1418, 93.26817
562.6239, 92.91164
563.1060, 92.68750
563.5881, 92.77574
564.0703, 92.86260
564.5524, 92.84422
565.0345, 92.70953
565.5166, 92.61813
565.9987, 92.58254
566.4808, 92.56949
566.9630, 92.56081
567.4451, 92.55872
567.9272, 92.55030
568.4093, 92.55715
568.8914, 92.49702
569.3735, 92.09090
569.8557, 91.45851
570.3378, 91.18382
570.8199, 91.67945
571.3020, 92.41176
571.7841, 92.68740
572.2662, 92.59766
572.7484, 92.47967
573.2305, 92.48973
573.7126, 92.55489
574.1947, 92.60432
574.6768, 92.62650
575.1589, 92.75098
575.6411, 93.12413
576.1232, 93.54388
576.6053, 93.87453
577.0874, 94.24818
577.5695, 94.28065
578.0516, 93.76849
578.5338, 93.04833
579.0159, 92.60755
579.4980, 92.51865
579.9801, 92.47121
580.4622, 92.37578
580.9443, 92.28876
581.4265, 92.49081
581.9086, 92.98110
582.3907, 93.27978
582.8728, 92.87794
583.3549, 92.14985
583.8370, 91.93417
584.3192, 92.23819
584.8013, 92.62454
585.2834, 92.79204
585.7655, 92.85661
586.2476, 92.94173
586.7297, 93.06582
587.2118, 93.23081
587.6939, 93.58182
588.1760, 93.92517
588.6581, 94.01414
589.1403, 93.50593
589.6224, 93.09262
590.1045, 92.89111
590.5866, 92.85428
591.0687, 92.83628
591.5508, 92.85453
592.0330, 92.84900
592.5151, 92.77441
592.9972, 92.64371
593.4793, 92.61777
593.9614, 92.70501
594.4435, 92.83701
594.9257, 92.97216
595.4078, 93.10940
595.8899, 93.31709
596.3720, 93.64275
596.8541, 93.75832
597.3362, 92.95619
597.8184, 91.84538
598.3005, 91.38099
598.7826, 92.42715
599.2647, 93.44808
599.7468, 93.66508
600.2289, 93.34358
600.7111, 93.06950
601.1932, 92.93289
601.6753, 92.90581
602.1574, 93.06525
602.6395, 93.38130
603.1216, 93.37784
603.6038, 92.68267
604.0859, 92.34483
604.5680, 93.26122
605.0501, 95.59380
605.5322, 96.35668
606.0143, 95.28651
606.4965, 93.85225
606.9786, 93.69447
607.4607, 94.44599
607.9428, 94.88982
608.4249, 94.74345
608.9070, 94.37910
609.3892, 94.05382
609.8713, 93.80254
610.3534, 93.68232
610.8355, 93.96969
611.3176, 94.15039
611.7997, 93.83698
612.2819, 93.18816
612.7640, 92.79251
613.2461, 92.95213
613.7282, 93.21327
614.2103, 93.50492
614.6924, 93.84009
615.1746, 93.81738
615.6567, 93.29461
616.1388, 92.68213
616.6209, 92.16928
617.1030, 91.75118
617.5851, 91.80572
618.0673, 92.43592
618.5494, 93.15990
619.0315, 93.41212
619.5136, 93.28817
619.9957, 93.01574
620.4778, 92.55772
620.9600, 92.16830
621.4421, 92.10816
621.9242, 92.29130
622.4063, 92.54110
622.8884, 92.88013
623.3705, 93.17863
623.8527, 93.40716
624.3348, 93.55665
624.8169, 93.58837
625.2990, 93.30725
625.7811, 93.11538
626.2632, 93.21523
626.7454, 93.64306
627.2275, 93.80330
627.7096, 93.66562
628.1917, 93.34096
628.6738, 92.75431
629.1559, 91.96391
629.6381, 91.72781
630.1202, 92.19796
630.6023, 92.79430
631.0844, 92.88193
631.5665, 92.61089
632.0486, 92.25968
632.5308, 91.77979
633.0129, 91.48051
633.4950, 91.68288
633.9771, 92.20818
634.4592, 92.71603
634.9413, 93.29637
635.4235, 93.63726
635.9056, 93.48258
636.3877, 92.93245
636.8698, 92.68191
637.3519, 92.94438
637.8340, 93.15528
638.3162, 93.02156
638.7983, 92.55325
639.2804, 92.44090
639.7625, 92.74235
640.2446, 93.06225
640.7267, 92.97845
641.2089, 92.64268
641.6910, 92.61527
642.1731, 92.98481
642.6552, 93.36058
643.1373, 93.37483
643.6194, 93.17854
644.1016, 92.96101
644.5837, 92.73020
645.0658, 92.56973
645.5479, 92.50056
646.0300, 92.53139
646.5121, 92.67894
646.9943, 93.11330
647.4764, 93.46548
647.9585, 93.68046
648.4406, 93.77783
648.9227, 93.82568
649.4048, 93.81238
649.8870, 93.78748
650.3691, 93.79219
650.8512, 93.79777
651.3333, 93.62337
651.8154, 93.27338
652.2975, 93.00504
652.7797, 92.97309
653.2618, 93.14861
653.7439, 93.63903
654.2260, 94.46814
654.7081, 94.98321
655.1902, 94.39994
655.6724, 93.55428
656.1545, 93.17833
656.6366, 93.68398
657.1187, 94.11905
657.6008, 94.28384
658.0829, 94.35783
658.5651, 94.54217
659.0472, 94.92426
659.5293, 95.17341
660.0114, 95.22093
660.4935, 95.14565
660.9756, 95.10545
661.4578, 95.09718
661.9399, 95.05286
662.4220, 94.92290
662.9041, 94.76811
663.3862, 94.69257
663.8683, 94.67833
664.3505, 94.65305
664.8326, 94.48056
665.3147, 94.36154
665.7968, 94.50229
666.2789, 94.89328
666.7610, 95.15487
667.2432, 95.18645
667.7253, 95.06774
668.2074, 94.76006
668.6895, 94.13138
669.1716, 94.04282
669.6537, 94.74535
670.1359, 95.50135
670.6180, 95.59406
671.1001, 95.05087
671.5822, 94.71864
672.0643, 94.68884
672.5464, 94.80322
673.0286, 94.89893
673.5107, 94.99470
673.9928, 95.13136
674.4749, 95.32298
674.9570, 95.55257
675.4391, 95.89198
675.9213, 96.24303
676.4034, 96.44210
676.8855, 96.27520
677.3676, 96.13609
677.8497, 96.00967
678.3318, 95.97565
678.8140, 96.29607
679.2961, 97.08910
679.7782, 97.95909
680.2603, 98.76647
680.7424, 99.54850
681.2245, 100.5517
681.7067, 101.7822
682.1888, 103.1207
682.6709, 104.4038
683.1530, 105.7898
683.6351, 107.5555
684.1172, 109.6838
684.5994, 112.1887
685.0815, 115.2017
685.5636, 118.4705
686.0457, 121.8371
686.5278, 125.2268
687.0099, 128.8153
687.4921, 132.4796
687.9742, 136.4459
688.4563, 140.8775
688.9384, 145.8049
689.4205, 151.1254
689.9026, 156.9732
690.3848, 163.0529
690.8669, 168.6062
691.3490, 173.8742
691.8311, 180.5563
692.3132, 189.1018
692.7953, 198.7903
693.2775, 209.1758
693.7596, 220.0837
694.2417, 231.2415
694.7238, 242.5542
695.2059, 254.0252
695.6880, 265.9821
696.1702, 278.1205
696.6523, 290.0373
697.1344, 301.6087
697.6165, 313.1400
698.0986, 325.5136
698.5807, 338.0237
699.0629, 346.9809
699.5450, 352.5893
700.0271, 354.0518
700.5092, 350.8898
700.9913, 343.3547
701.4734, 331.5110
701.9556, 315.5423
702.4377, 297.9792
702.9198, 279.3629
703.4019, 260.7722
703.8840, 242.9462
704.3661, 225.8338
704.8483, 210.6560
705.3304, 198.3217
705.8125, 187.7640
706.2946, 178.3204
706.7767, 169.7479
707.2589, 162.7259
707.7410, 157.5523
708.2231, 153.5986
708.7052, 150.2717
709.1873, 147.5649
709.6694, 145.7780
710.1516, 144.9732
710.6337, 144.9572
711.1158, 145.7213
711.5979, 147.0629
712.0800, 148.4707
712.5621, 149.6391
713.0443, 151.2392
713.5264, 153.8592
714.0085, 157.1497
714.4906, 160.6410
714.9727, 163.9869
715.4548, 167.7763
715.9370, 172.2573
716.4191, 177.1785
716.9012, 182.0514
717.3833, 186.6740
717.8654, 191.9103
718.3475, 198.3300
718.8297, 205.2506
719.3118, 210.4447
719.7939, 214.2312
720.2760, 218.9793
720.7581, 226.8762
721.2402, 235.6699
721.7224, 242.8447
722.2045, 248.6568
722.6866, 254.3525
723.1687, 260.7612
723.6508, 266.8966
724.1329, 272.4087
724.6151, 277.2491
725.0972, 281.0446
725.5793, 283.8452
726.0614, 285.4677
726.5435, 285.8972
727.0256, 285.1148
727.5078, 282.5469
727.9899, 278.1396
728.4720, 272.3663
728.9541, 265.5849
729.4362, 257.6808
729.9183, 248.4439
730.4005, 237.9146
730.8826, 226.5091
731.3647, 213.4867
731.8468, 200.3345
732.3289, 188.3677
732.8110, 177.8933
733.2932, 168.3280
733.7753, 159.3515
734.2574, 151.3930
734.7395, 145.0692
735.2216, 140.6031
735.7037, 136.2273
736.1859, 131.7238
736.6680, 127.4784
737.1501, 123.9305
737.6322, 121.0099
738.1143, 118.5985
738.5964, 116.7269
739.0786, 115.1147
739.5607, 113.5961
740.0428, 112.1652
740.5249, 110.8335
741.0070, 109.5815
741.4891, 108.4364
741.9713, 107.6486
742.4534, 106.8777
742.9355, 105.5517
743.4176, 103.4103
743.8997, 101.5352
744.3818, 100.2072
744.8640, 99.16108
745.3461, 97.84361
745.8282, 96.29984
746.3103, 94.86222
746.7924, 93.70932
747.2745, 92.65849
747.7567, 91.43951
748.2388, 90.17188
748.7209, 89.17288
749.2030, 88.69462
749.6851, 88.35178
750.1672, 88.10266
750.6494, 87.89220
751.1315, 87.48673
751.6136, 86.69259
752.0957, 86.17725
752.5778, 86.29617
753.0599, 86.81161
753.5421, 86.74934
754.0242, 86.13935
754.5063, 85.47109
754.9884, 84.88863
755.4705, 84.48817
755.9526, 84.54784
756.4348, 84.96772
756.9169, 85.22369
757.3990, 84.90148
757.8811, 84.50964
758.3632, 84.31230
758.8453, 84.32332
759.3275, 84.23312
759.8096, 83.95824
760.2917, 83.73343
760.7738, 83.70246
761.2559, 83.83763
761.7380, 83.84762
762.2202, 83.72959
762.7023, 83.57471
763.1844, 83.39797
763.6665, 83.24834
764.1486, 83.25716
764.6307, 83.42149
765.1129, 83.45980
765.5950, 83.06216
766.0771, 82.62246
766.5592, 82.38659
767.0413, 82.40198
767.5234, 82.49844
768.0056, 82.72239
768.4877, 82.95586
768.9698, 83.10824
769.4519, 83.18176
769.9340, 83.35598
770.4161, 83.65708
770.8983, 83.79568
771.3804, 83.30154
771.8625, 82.56030
772.3446, 82.17094
772.8267, 82.23148
773.3088, 82.43294
773.7910, 82.70975
774.2731, 83.00656
774.7552, 83.29504
775.2373, 83.62164
775.7194, 83.78210
776.2015, 83.68571
776.6837, 83.55663
777.1658, 83.62077
777.6479, 83.86983
778.1300, 83.98677
778.6121, 83.93826
779.0942, 83.83466
779.5764, 83.81413
780.0585, 83.80141
780.5406, 83.65694
781.0227, 83.31357
781.5048, 83.01500
781.9869, 82.92632
782.4691, 82.90552
782.9512, 82.81014
783.4332, 82.47010
783.9153, 82.42449
784.3975, 82.80977
784.8796, 83.26899
785.3617, 83.35475
785.8438, 83.10581
786.3259, 83.04052
786.8080, 83.24756
787.2902, 83.51078
787.7723, 83.67534
788.2544, 83.72578
788.7365, 83.61552
789.2186, 83.26436
789.7007, 82.93799
790.1829, 82.60799
790.6650, 82.41907
791.1471, 82.54224
791.6292, 83.20702
792.1113, 83.65921
792.5934, 83.87923
793.0756, 83.88039
793.5577, 83.56283
794.0398, 82.99844
794.5219, 82.62111
795.0040, 82.50529
795.4861, 82.57810
795.9683, 82.94636
796.4504, 83.38622
796.9325, 83.59316
797.4146, 83.34217
797.8967, 83.13638
798.3788, 83.12585
798.8610, 83.19956
799.3431, 83.26358
799.8252, 83.35274
800.3073, 83.26155
800.7894, 82.88590
801.2715, 82.54597
801.7537, 82.79898
802.2358, 83.45678
802.7179, 83.86002
803.2000, 83.84151
803.6821, 83.63912
804.1642, 83.16428
804.6464, 82.72961
805.1285, 82.73653
805.6106, 83.81921
806.0927, 84.42011
806.5748, 84.15916
807.0569, 83.60094
807.5391, 83.32053
808.0212, 83.35215
808.5033, 83.44643
808.9854, 83.60994
809.4675, 83.71355
809.9496, 83.47521
810.4318, 83.07404
810.9139, 82.91183
811.3960, 83.11245
811.8781, 83.43300
812.3602, 83.97307
812.8423, 84.44314
813.3245, 84.51171
813.8066, 83.70796
814.2887, 83.24968
814.7708, 83.21722
815.2529, 83.42223
815.7350, 83.79539
816.2172, 84.30898
816.6993, 84.30394
817.1814, 83.60862
817.6635, 82.93326
818.1456, 83.22089
818.6277, 83.91731
819.1099, 84.22869
819.5920, 83.85540
820.0741, 83.49709
820.5562, 83.35461
821.0383, 83.35578
821.5204, 83.43713
822.0026, 83.63810
822.4847, 83.81203
822.9668, 83.95789
823.4489, 84.07224
823.9310, 84.17557
824.4131, 84.24363
824.8953, 84.15594
825.3774, 83.88063
825.8595, 83.61971
826.3416, 83.53014
826.8237, 83.52848
827.3058, 83.55221
827.7880, 83.62104
828.2701, 83.61040
828.7522, 83.41879
829.2343, 83.24919
829.7164, 83.28027
830.1985, 83.53545
830.6807, 83.68841
831.1628, 83.73351
831.6449, 83.68081
832.1270, 83.40936
832.6091, 83.09576
833.0912, 83.10371
833.5734, 83.48714
834.0555, 83.75570
834.5376, 83.50481
835.0197, 83.18215
835.5018, 83.10865
835.9839, 83.33862
836.4661, 83.45718
836.9482, 83.41406
837.4303, 83.37850
837.9124, 83.48963
838.3945, 83.71041
838.8766, 83.89342
839.3588, 84.03406
839.8409, 84.04343
840.3230, 83.63232
840.8051, 83.22578
841.2872, 83.31834
841.7693, 83.93059
842.2515, 84.24146
842.7336, 83.71780
843.2157, 83.29807
843.6978, 83.39550
844.1799, 83.95531
844.6620, 84.21204
845.1442, 84.14106
845.6263, 84.10293
846.1084, 84.42540
846.5905, 84.85471
847.0726, 84.89188
847.5547, 84.63307
848.0369, 84.54259
848.5190, 84.93020
849.0011, 85.44759
849.4832, 86.02357
849.9653, 86.61900
850.4474, 87.01858
850.9296, 87.15617
851.4117, 87.30093
851.8938, 87.52354
852.3759, 87.83375
852.8580, 88.34716
853.3401, 88.99959
853.8223, 89.47726
854.3044, 89.30694
854.7865, 89.22242
855.2686, 89.95947
855.7507, 91.15652
856.2328, 91.94350
856.7150, 92.10580
857.1971, 91.88602
857.6792, 91.21119
858.1613, 90.25815
858.6434, 89.35274
859.1255, 88.50318
859.6077, 87.73008
860.0898, 87.01794
860.5719, 86.47272
861.0540, 86.40788
861.5361, 86.55497
862.0182, 86.44891
862.5004, 85.57124
862.9825, 84.97324
863.4646, 85.14761
863.9467, 85.58841
864.4288, 85.82272
864.9109, 85.87504
865.3931, 85.48884
865.8752, 84.49389
866.3573, 83.57061
866.8394, 83.78426
867.3215, 84.62868
867.8036, 84.97927
868.2858, 84.54163
868.7679, 84.09107
869.2500, 84.15916
869.7321, 84.31770
870.2142, 84.12585
870.6964, 83.33470
871.1785, 83.06117
871.6606, 83.47660
872.1427, 83.99757
872.6248, 84.17526
873.1069, 84.05540
873.5891, 83.75252
874.0712, 83.27654
874.5533, 82.91281
875.0354, 82.98349
875.5175, 83.16289
875.9996, 83.17812
876.4818, 82.99981
876.9639, 82.90095
877.4460, 82.99400
877.9281, 83.02222
878.4102, 82.82426
878.8923, 82.46143
879.3745, 82.40647
879.8566, 82.63689
880.3387, 82.76134
880.8208, 82.43165
881.3029, 81.97885
881.7850, 81.72349
882.2672, 81.63335
882.7493, 81.59109
883.2314, 81.52414
883.7135, 81.55443
884.1956, 81.74134
884.6777, 82.02930
885.1599, 82.31665
885.6420, 82.61661
886.1241, 82.66369
886.6062, 82.25332
887.0883, 81.81016
887.5704, 82.05861
888.0526, 82.67692
888.5347, 83.05478
889.0168, 82.74988
889.4989, 82.53108
889.9810, 82.77337
890.4631, 83.13662
890.9453, 83.24999
891.4274, 83.07943
891.9095, 82.72862
892.3916, 82.11890
892.8737, 81.65200
893.3558, 82.03295
893.8380, 82.84901
894.3201, 83.20101
894.8022, 82.89986
895.2843, 82.59581
895.7664, 82.68825
896.2485, 82.85788
896.7307, 82.86272
897.2128, 82.67563
897.6949, 82.45403
898.1770, 82.16183
898.6591, 81.95174
899.1412, 81.91237
899.6234, 82.03533
900.1055, 82.44194
900.5876, 83.06599
901.0697, 83.41646
901.5518, 82.84702
902.0339, 82.22396
902.5161, 82.09091
902.9982, 82.41390
903.4803, 82.65467
903.9624, 82.77549
904.4445, 82.90170
904.9266, 83.12905
905.4088, 83.32792
905.8909, 83.03962
906.3730, 82.39979
906.8551, 81.98299
907.3372, 82.11241
907.8193, 82.40073
908.3015, 82.68678
908.7836, 82.93008
909.2657, 83.05633
909.7478, 83.01267
910.2299, 82.92441
910.7120, 82.75159
911.1942, 82.61673
911.6763, 82.77734
912.1584, 83.14590
912.6405, 83.19066
913.1226, 82.78211
913.6047, 82.45442
914.0869, 82.85409
914.5690, 83.39590
915.0511, 83.49040
915.5332, 82.89176
916.0153, 82.52537
916.4974, 82.46882
916.9796, 82.56655
917.4617, 82.76429
917.9438, 83.04430
918.4259, 83.32371
918.9080, 83.59163
919.3901, 83.71350
919.8723, 83.39156
920.3544, 83.06303
920.8365, 83.15518
921.3186, 83.58491
921.8007, 83.82452
922.2828, 83.63509
922.7650, 83.53965
923.2471, 83.71224
923.7292, 84.01339
924.2113, 84.09212
924.6934, 83.96954
925.1755, 83.77444
925.6577, 83.47939
926.1398, 83.27608
926.6219, 83.37341
927.1040, 83.65281
927.5861, 83.94836
928.0682, 84.39286
928.5504, 84.55933
929.0325, 84.28252
929.5146, 83.96103
929.9967, 84.13577
930.4788, 84.70184
930.9609, 84.70596
931.4431, 84.03960
931.9252, 83.55491
932.4073, 84.28054
932.8894, 85.22594
933.3715, 85.39415
933.8536, 84.61470
934.3358, 84.38200
934.8179, 85.17729
935.3000, 85.86331
935.7821, 85.86062
936.2642, 85.39787
936.7463, 85.50190
937.2285, 86.09072
937.7106, 86.57755
938.1927, 86.61047
938.6748, 86.47653
939.1569, 86.25794
939.6390, 86.04589
940.1212, 86.06525
940.6033, 86.60318
941.0854, 86.87157
941.5675, 86.64783
942.0496, 86.33320
942.5317, 86.63817
943.0139, 87.41933
943.4960, 87.98488
943.9781, 88.21276
944.4602, 88.27628
944.9423, 88.12349
945.4244, 87.98991
945.9066, 88.07583
946.3887, 88.42339
946.8708, 89.00510
947.3529, 89.90350
947.8350, 90.85928
948.3171, 91.96456
948.7993, 92.98693
949.2814, 92.72613
949.7635, 91.37270
950.2456, 90.24489
950.7277, 90.29813
951.2098, 90.64622
951.6920, 90.81870
952.1741, 90.86850
952.6562, 91.04258
953.1383, 91.36445
953.6204, 91.77086
954.1025, 92.29460
954.5847, 92.81165
955.0668, 93.08780
955.5489, 93.19727
956.0310, 93.33822
956.5131, 93.57210
956.9952, 93.80509
957.4774, 93.94360
957.9595, 94.09035
958.4416, 94.34924
958.9237, 94.75540
959.4058, 95.10479
959.8879, 95.37524
960.3701, 95.67734
960.8522, 96.22851
961.3343, 96.82289
961.8164, 96.86411
962.2985, 96.46609
962.7806, 96.39066
963.2628, 97.48080
963.7449, 98.43049
964.2270, 98.58569
964.7091, 98.23537
965.1912, 98.20164
965.6733, 98.49693
966.1555, 99.03730
966.6376, 99.92503
967.1197, 100.7501
967.6018, 100.7304
968.0839, 100.3386
968.5660, 100.3846
969.0482, 101.3856
969.5303, 102.1291
970.0124, 102.1983
970.4945, 102.1230
970.9766, 102.2895
971.4587, 102.7038
971.9409, 103.0779
972.4230, 103.4048
972.9051, 103.7543
973.3872, 104.2675
973.8693, 104.7611
974.3514, 105.0251
974.8336, 105.0792
975.3157, 105.1228
975.7978, 105.2522
976.2799, 105.2584
976.7620, 105.0011
977.2441, 104.6778
977.7263, 104.8258
978.2084, 105.3589
978.6905, 105.8059
979.1726, 106.0120
979.6547, 106.1489
980.1368, 106.3190
980.6190, 106.5056
981.1010, 106.6830
981.5831, 106.8141
982.0652, 107.0838
982.5474, 107.5941
983.0295, 107.9631
983.5116, 107.7727
983.9937, 107.2194
984.4758, 106.7795
984.9579, 106.4823
985.4401, 106.4408
985.9222, 106.9674
986.4043, 107.5062
986.8864, 107.7628
987.3685, 107.8238
987.8506, 107.9709
988.3328, 108.2494
988.8149, 108.2746
989.2970, 107.8802
989.7791, 107.3972
990.2612, 107.3079
990.7433, 107.4284
991.2255, 107.4552
991.7076, 107.2843
992.1897, 107.1155
992.6718, 106.9831
993.1539, 106.8817
993.6360, 106.8015
994.1182, 106.7431
994.6003, 106.7536
995.0824, 106.8335
995.5645, 106.9910
996.0466, 107.3760
996.5287, 107.7194
997.0109, 107.7423
997.4930, 107.5172
997.9751, 107.3289
998.4572, 107.3204
998.9393, 107.1363
999.4214, 106.6478
999.9036, 106.0849
1000.386, 105.9199
1000.868, 106.0073
1001.350, 105.7830
1001.832, 105.0487
1002.314, 104.5582
1002.796, 105.1568
1003.278, 105.8991
1003.760, 106.0011
1004.243, 105.4086
1004.725, 105.0138
1005.207, 104.8433
1005.689, 104.6954
1006.171, 104.4644
1006.653, 104.1787
1007.135, 103.7730
1007.617, 103.3448
1008.100, 103.1464
1008.582, 103.6871
1009.064, 103.9094
1009.546, 103.4383
1010.028, 102.7289
1010.510, 102.3690
1010.992, 102.3455
1011.474, 102.4770
1011.956, 102.7775
1012.439, 102.8224
1012.921, 101.8614
1013.403, 100.7672
1013.885, 100.4180
1014.367, 100.9168
1014.849, 101.0970
1015.331, 100.8706
1015.813, 100.4305
1016.296, 99.73015
1016.778, 98.98780
1017.260, 98.82014
1017.742, 99.04732
1018.224, 99.13554
1018.706, 98.82057
1019.188, 98.45211
1019.670, 98.11912
1020.152, 97.83640
1020.635, 97.60374
1021.117, 97.40443
1021.599, 97.40150
1022.081, 97.62073
1022.563, 97.76119
1023.045, 97.52847
1023.527, 97.12029
1024.009, 96.62545
1024.492, 96.11881
1024.974, 95.99339
1025.456, 96.88461
1025.938, 97.32224
1026.420, 96.87418
1026.902, 95.98543
1027.384, 95.45876
1027.866, 95.24236
1028.349, 95.14598
1028.831, 95.15855
1029.313, 95.14536
1029.795, 94.67540
1030.277, 94.40708
1030.759, 95.14799
1031.241, 97.06535
1031.723, 97.68697
1032.205, 96.85413
1032.688, 95.73425
1033.170, 94.76188
1033.652, 94.07450
1034.134, 94.07293
1034.616, 94.52308
1035.098, 94.84092
1035.580, 94.65015
1036.062, 94.55943
1036.544, 94.64989
1037.027, 94.86155
1037.509, 95.13686
1037.991, 95.47211
1038.473, 95.92383
1038.955, 96.50204
1039.437, 96.77581
1039.919, 96.01208
1040.401, 95.20822
1040.884, 95.16077
1041.366, 95.78309
1041.848, 96.08004
1042.330, 95.95787
1042.812, 95.92457
1043.294, 96.14513
1043.776, 96.49907
1044.258, 96.86039
1044.740, 97.22044
1045.223, 97.56677
1045.705, 97.90723
1046.187, 98.21363
1046.669, 98.44849
1047.151, 98.69059
1047.633, 98.91172
1048.115, 99.15647
1048.597, 99.85439
1049.079, 100.9677
1049.562, 102.1357
1050.044, 103.2434
1050.526, 104.2446
1051.008, 104.9567
1051.490, 105.5727
1051.972, 106.4677
1052.454, 107.6840
1052.936, 109.0299
1053.419, 110.4998
1053.901, 112.0300
1054.383, 113.3970
1054.865, 114.8541
1055.347, 116.9186
1055.829, 119.6174
1056.311, 122.1591
1056.793, 123.8903
1057.276, 126.0368
1057.758, 128.9250
1058.240, 132.5202
1058.722, 136.6362
1059.204, 141.2969
1059.686, 146.6896
1060.168, 152.8365
1060.650, 159.8096
1061.132, 167.4796
1061.615, 176.1573
1062.097, 186.1147
1062.579, 197.2420
1063.061, 209.4725
1063.543, 222.6652
1064.025, 237.3537
1064.507, 254.0298
1064.989, 272.3086
1065.471, 291.2836
1065.954, 311.2812
1066.436, 333.3896
1066.918, 357.8969
1067.400, 384.7848
1067.882, 414.2068
1068.364, 446.1873
1068.846, 480.0935
1069.328, 516.4967
1069.811, 556.2942
1070.293, 599.3697
1070.775, 645.1126
1071.257, 694.6551
1071.739, 745.2249
1072.221, 796.4069
1072.703, 847.6464
1073.185, 899.4414
1073.667, 950.9732
1074.150, 1001.776
1074.632, 1051.244
1075.114, 1099.668
1075.596, 1145.422
1076.078, 1190.787
1076.560, 1237.239
1077.042, 1284.755
1077.524, 1335.319
1078.006, 1388.574
1078.489, 1445.499
1078.971, 1504.756
1079.453, 1568.904
1079.935, 1642.538
1080.417, 1724.088
1080.899, 1809.729
1081.381, 1906.921
1081.863, 1995.885
1082.345, 2078.285
1082.828, 2147.657
1083.310, 2204.543
1083.792, 2244.457
1084.274, 2234.239
1084.756, 2173.733
1085.238, 2078.971
1085.720, 1948.507
1086.202, 1798.259
1086.685, 1628.953
1087.167, 1447.663
1087.649, 1266.466
1088.131, 1083.383
1088.613, 918.9199
1089.095, 776.6009
1089.577, 652.7804
1090.059, 544.7624
1090.542, 452.5514
1091.024, 377.4497
1091.506, 320.2198
1091.988, 273.5759
1092.470, 237.4266
1092.952, 209.0658
1093.434, 188.5819
1093.916, 173.8183
1094.398, 161.6498
1094.880, 151.6987
1095.363, 143.5273
1095.845, 137.1196
1096.327, 131.8388
1096.809, 127.9059
1097.291, 124.5847
1097.773, 121.5234
1098.255, 118.6978
1098.737, 115.9663
1099.220, 113.3717
1099.702, 111.1124
1100.184, 109.3118
1100.666, 107.8659
1101.148, 106.8674
1101.630, 106.1126
1102.112, 105.3449
1102.594, 104.5733
1103.077, 103.6521
1103.559, 102.5559
1104.041, 101.4829
1104.523, 100.4982
1105.005, 99.67622
1105.487, 99.15850
1105.969, 98.87936
1106.451, 98.48808
1106.933, 97.91422
1107.416, 97.33605
1107.898, 96.72942
1108.380, 96.27007
1108.862, 96.36411
1109.344, 96.67971
1109.826, 96.63450
1110.308, 96.12476
1110.790, 95.67229
1111.272, 95.42786
1111.755, 95.23599
1112.237, 95.10116
1112.719, 94.93553
1113.201, 94.31942
1113.683, 93.46460
1114.165, 93.09404
1114.647, 93.58752
1115.129, 94.06548
1115.612, 94.14906
1116.094, 94.05041
1116.576, 93.86862
1117.058, 93.61506
1117.540, 93.48540
1118.022, 93.47607
1118.504, 93.55769
1118.986, 93.85994
1119.469, 94.06347
1119.951, 93.81680
1120.433, 93.39934
1120.915, 93.24435
1121.397, 93.46584
1121.879, 93.46498
1122.361, 93.21371
1122.843, 92.90926
1123.325, 92.62228
1123.807, 92.42647
1124.290, 92.45056
1124.772, 92.63875
1125.254, 92.79055
1125.736, 92.87216
1126.218, 92.97822
1126.700, 93.16214
1127.182, 93.24036
1127.664, 92.80032
1128.147, 92.19955
1128.629, 92.10764
1129.111, 92.54216
1129.593, 92.93839
1130.075, 93.26013
1130.557, 93.30543
1131.039, 92.87730
1131.521, 92.34065
1132.004, 92.43462
1132.486, 92.98627
1132.968, 93.64024
1133.450, 94.41451
1133.932, 94.60990
1134.414, 93.14767
1134.896, 91.86343
1135.378, 91.64552
1135.860, 92.28447
1136.343, 93.12827
1136.825, 94.07455
1137.307, 94.36472
1137.789, 93.42039
1138.271, 92.61472
1138.753, 93.04075
1139.235, 93.80611
1139.717, 94.12743
1140.199, 93.99989
1140.682, 93.69314
1141.164, 93.21481
1141.646, 93.04935
1142.128, 93.83142
1142.610, 94.57334
1143.092, 94.31276
1143.574, 93.55588
1144.056, 93.05758
1144.539, 92.88950
1145.021, 92.82239
1145.503, 92.85012
1145.985, 93.01926
1146.467, 93.52881
1146.949, 94.06902
1147.431, 94.30920
1147.913, 94.29800
1148.396, 94.16364
1148.878, 93.78967
1149.360, 93.69468
1149.842, 94.02486
1150.324, 94.27258
1150.806, 93.69198
1151.288, 92.81445
1151.770, 92.38445
1152.252, 92.42093
1152.734, 92.67175
1153.217, 93.31924
1153.699, 93.73079
1154.181, 93.72112
1154.663, 93.57088
1155.145, 93.59537
1155.627, 93.81357
1156.109, 94.49697
1156.591, 95.68738
1157.074, 96.14738
1157.556, 94.68475
1158.038, 93.36765
1158.520, 92.74239
1159.002, 92.61651
1159.484, 92.66752
1159.966, 92.85619
1160.448, 93.11167
1160.931, 93.46844
1161.413, 93.60179
1161.895, 93.22118
1162.377, 92.71563
1162.859, 92.19837
1163.341, 91.71990
1163.823, 91.52343
1164.305, 91.55999
1164.787, 91.59108
1165.270, 91.51198
1165.752, 91.48316
1166.234, 91.70259
1166.716, 91.89702
1167.198, 91.82727
1167.680, 91.92574
1168.162, 91.97322
1168.644, 91.79427
1169.126, 91.93601
1169.609, 91.68704
1170.091, 91.40812
1170.573, 91.32516
1171.055, 91.31375
1171.537, 91.24419
1172.019, 91.11440
1172.501, 90.94180
1172.983, 90.72850
1173.466, 90.47160
1173.948, 90.03894
1174.430, 89.70102
1174.912, 89.75529
1175.394, 89.98302
1175.876, 89.99759
1176.358, 89.74125
1176.840, 89.65401
1177.323, 89.76156
1177.805, 89.83754
1178.287, 89.61217
1178.769, 89.37467
1179.251, 89.49334
1179.733, 89.76815
1180.215, 89.63125
1180.697, 88.93343
1181.179, 88.61429
1181.661, 88.81998
1182.144, 88.91653
1182.626, 87.97102
1183.108, 86.92769
1183.590, 86.69154
1184.072, 87.21992
1184.554, 88.14174
1185.036, 89.74332
1185.518, 90.35569
1186.001, 89.59396
1186.483, 88.50007
1186.965, 88.15310
1187.447, 88.11274
1187.929, 87.93038
1188.411, 87.58428
1188.893, 87.25529
1189.375, 86.90813
1189.858, 86.77456
1190.340, 86.96999
1190.822, 87.17648
1191.304, 86.86560
1191.786, 86.42421
1192.268, 86.41628
1192.750, 86.91429
1193.232, 87.00903
1193.714, 86.51460
1194.197, 86.11437
1194.679, 86.02488
1195.161, 86.08009
1195.643, 86.10624
1196.125, 86.10221
1196.607, 86.07891
1197.089, 86.04345
1197.571, 85.86281
1198.053, 85.41325
1198.536, 85.21640
1199.018, 85.58891
1199.500, 86.06295
1199.982, 85.81382
1200.464, 85.21986
1200.946, 84.87826
1201.428, 84.99948
1201.910, 84.96944
1202.393, 84.69877
1202.875, 84.49046
1203.357, 84.53636
1203.839, 84.65510
1204.321, 84.45170
1204.803, 84.13703
1205.285, 84.12050
1205.767, 84.74229
1206.250, 84.85984
1206.732, 84.29385
1207.214, 83.67820
1207.696, 83.31276
1208.178, 83.17269
1208.660, 83.37760
1209.142, 83.74028
1209.624, 83.89519
1210.106, 83.57276
1210.589, 83.43606
1211.071, 83.54819
1211.553, 83.67472
1212.035, 83.65978
1212.517, 83.56906
1212.999, 83.50718
1213.481, 83.45810
1213.963, 83.38461
1214.445, 83.14775
1214.928, 83.16184
1215.410, 83.52245
1215.892, 83.83337
1216.374, 83.78371
1216.856, 83.50603
1217.338, 83.13588
1217.820, 82.71855
1218.302, 82.35998
1218.785, 82.02049
1219.267, 81.88289
1219.749, 82.00307
1220.231, 82.13979
1220.713, 82.05019
1221.195, 81.88866
1221.677, 81.84302
1222.159, 81.91743
1222.641, 82.14179
1223.124, 82.80936
1223.606, 82.86729
1224.088, 82.12367
1224.570, 81.35934
1225.052, 81.38923
1225.534, 81.71480
1226.016, 81.72314
1226.498, 81.46346
1226.980, 81.14555
1227.463, 80.67758
1227.945, 80.54187
1228.427, 80.83211
1228.909, 81.17287
1229.391, 81.24266
1229.873, 81.15101
1230.355, 80.96725
1230.837, 80.73117
1231.320, 80.55837
1231.802, 80.45593
1232.284, 80.40347
1232.766, 80.39616
1233.248, 80.46114
1233.730, 80.73389
1234.212, 81.00484
1234.694, 81.06518
1235.177, 80.92886
1235.659, 80.70840
1236.141, 80.40218
1236.623, 80.02836
1237.105, 79.56277
1237.587, 79.23790
1238.069, 79.37753
1238.551, 79.65531
1239.033, 79.80137
1239.516, 79.83051
1239.998, 79.88878
1240.480, 79.99375
1240.962, 79.89776
1241.444, 79.53194
1241.926, 79.27970
1242.408, 79.62785
1242.890, 80.06431
1243.372, 80.17210
1243.855, 80.04626
1244.337, 80.04472
1244.819, 80.17800
1245.301, 80.04270
1245.783, 79.56005
1246.265, 79.16877
1246.747, 79.36580
1247.229, 79.63018
1247.712, 79.62365
1248.194, 79.42928
1248.676, 79.18757
1249.158, 78.91137
1249.640, 78.77293
1250.122, 78.80064
1250.604, 78.92085
1251.086, 79.28113
1251.568, 79.49122
1252.051, 79.24145
1252.533, 78.78706
1253.015, 78.78406
1253.497, 79.11626
1253.979, 79.03992
1254.461, 78.41373
1254.943, 78.10344
1255.425, 79.12205
1255.907, 79.89173
1256.390, 79.74380
1256.872, 79.06752
1257.354, 78.44395
1257.836, 77.95848
1258.318, 77.98870
1258.800, 78.60142
1259.282, 79.11980
1259.764, 79.07017
1260.247, 79.17693
1260.729, 79.80258
1261.211, 80.41983
1261.693, 79.83150
1262.175, 78.60989
1262.657, 78.05447
1263.139, 78.34528
1263.621, 78.57572
1264.104, 78.42310
1264.586, 78.43191
1265.068, 78.82726
1265.550, 79.21638
1266.032, 78.83743
1266.514, 78.15059
1266.996, 77.92465
1267.478, 78.23608
1267.960, 78.43266
1268.443, 78.42357
1268.925, 78.39050
1269.407, 78.34940
1269.889, 78.39360
1270.371, 78.87976
1270.853, 79.35110
1271.335, 79.12454
1271.817, 78.22219
1272.299, 77.83216
1272.782, 78.03239
1273.264, 78.36926
1273.746, 78.79140
1274.228, 79.08701
1274.710, 78.96020
1275.192, 78.70216
1275.674, 78.58070
1276.156, 78.38116
1276.639, 78.16995
1277.121, 78.04575
1277.603, 77.80154
1278.085, 77.70425
1278.567, 77.62218
1279.049, 77.32111
1279.531, 77.15816
1280.013, 77.47108
1280.495, 78.01888
1280.978, 78.13694
1281.460, 77.90110
1281.942, 77.78568
1282.424, 77.87022
1282.906, 78.02537
1283.388, 78.34190
1283.870, 78.49689
1284.352, 78.29087
1284.834, 77.96731
1285.317, 78.14399
1285.799, 78.57246
1286.281, 78.46597
1286.763, 77.72970
1287.245, 77.23950
1287.727, 77.51128
1288.209, 77.69845
1288.691, 77.56898
1289.173, 77.38961
1289.656, 77.55061
1290.138, 77.91436
1290.620, 78.34566
1291.102, 78.80494
1291.584, 78.92155
1292.066, 78.49620
1292.548, 78.35056
1293.030, 78.71714
1293.513, 79.03265
1293.995, 78.45097
1294.477, 77.66463
1294.959, 77.41698
1295.441, 77.67661
1295.923, 77.85427
1296.405, 77.94880
1296.887, 77.93484
1297.370, 77.78945
1297.852, 77.76170
1298.334, 78.32717
1298.816, 78.83523
1299.298, 78.63799
1299.780, 78.10034
1300.262, 78.03590
1300.744, 78.38560
1301.226, 78.38207
1301.708, 77.95230
1302.191, 77.65205
1302.673, 77.83587
1303.155, 78.15891
1303.637, 78.46587
1304.119, 78.72074
##END=



