##NAMES=Ancylite-(Ce)
##RRUFFID=R060218
##IDEAL CHEMISTRY=CeSr(CO_3_)_2_(OH)&#183;H_2_O
##LOCALITY=Mont Saint-Hilaire, Rouville County, Quebec, Canada
##OWNER=RRUFF
##SOURCE=Royal Ontario Museum
##DESCRIPTION=Pale pink prismatic crystals
##STATUS=The identification of this mineral has been confirmed by X-ray diffraction and chemical analysis
##URL=rruff.info/R060218
##MEASURED CHEMISTRY=(Ce_0.40_(La,Pr)_0.23_Ca_0.18_Nd_0.10_Sr_0.09_)_Σ=1_CO_3_((OH)_0.67_(H_2_O)_0.27_F_0.06_)_Σ=1_
91.82715, 350.5522
92.30927, 346.5094
92.79138, 347.4284
93.27350, 350.3181
93.75562, 352.3584
94.23773, 353.3188
94.71985, 353.8361
95.20197, 353.8345
95.68408, 353.3345
96.16620, 352.5893
96.64832, 352.0732
97.13043, 351.9482
97.61255, 352.0309
98.09467, 351.8582
98.57678, 350.9166
99.05890, 350.3670
99.54102, 351.9419
100.0231, 354.6563
100.5052, 357.4826
100.9874, 359.8718
101.4695, 361.9216
101.9516, 364.2672
102.4337, 367.0313
102.9158, 369.9942
103.3979, 373.5001
103.8801, 377.1767
104.3622, 380.3817
104.8443, 382.6196
105.3264, 383.8412
105.8085, 384.3562
106.2906, 384.0705
106.7728, 383.2241
107.2549, 381.8987
107.7370, 380.1225
108.2191, 377.9226
108.7012, 375.1333
109.1833, 371.6771
109.6655, 368.7199
110.1476, 366.9778
110.6297, 365.6767
111.1118, 363.4571
111.5939, 359.6845
112.0760, 355.7530
112.5582, 353.0843
113.0403, 351.5812
113.5224, 350.6446
114.0045, 350.4013
114.4866, 350.7755
114.9688, 350.2012
115.4509, 347.2577
115.9330, 344.0417
116.4151, 341.7982
116.8972, 340.7151
117.3793, 340.1961
117.8615, 339.4160
118.3436, 338.0903
118.8257, 337.2336
119.3078, 337.4169
119.7899, 337.7772
120.2720, 337.5555
120.7542, 336.4568
121.2363, 334.8555
121.7184, 333.8156
122.2005, 333.6093
122.6826, 333.7771
123.1647, 334.7494
123.6468, 336.0050
124.1290, 336.7807
124.6111, 336.6065
125.0932, 335.6077
125.5753, 334.8569
126.0574, 334.8464
126.5395, 334.5472
127.0217, 333.0753
127.5038, 330.7130
127.9859, 328.9166
128.4680, 328.9413
128.9501, 330.5396
129.4323, 331.6728
129.9144, 332.2348
130.3965, 332.3274
130.8786, 331.7899
131.3607, 330.4129
131.8428, 329.3736
132.3250, 329.9693
132.8071, 331.5321
133.2892, 332.9405
133.7713, 333.5333
134.2534, 333.5725
134.7355, 333.9615
135.2177, 334.7491
135.6998, 335.8851
136.1819, 337.4724
136.6640, 339.3603
137.1461, 341.1794
137.6282, 342.6064
138.1104, 343.5959
138.5925, 344.6877
139.0746, 345.6149
139.5567, 346.8763
140.0388, 349.0068
140.5209, 351.8170
141.0031, 354.5533
141.4852, 356.2176
141.9673, 356.0548
142.4494, 356.8325
142.9315, 359.0342
143.4136, 361.6421
143.8958, 364.0218
144.3779, 366.0050
144.8600, 367.8643
145.3421, 370.0591
145.8242, 372.9694
146.3063, 375.4963
146.7885, 377.3431
147.2706, 378.8749
147.7527, 380.5627
148.2348, 382.5932
148.7169, 384.7601
149.1990, 386.6024
149.6812, 388.0013
150.1633, 389.5711
150.6454, 391.7650
151.1275, 394.3587
151.6096, 396.5080
152.0917, 397.5201
152.5739, 398.3420
153.0560, 400.4679
153.5381, 404.2437
154.0202, 408.1958
154.5023, 411.0381
154.9844, 412.7096
155.4665, 414.4329
155.9487, 417.1990
156.4308, 419.8848
156.9129, 421.3273
157.3950, 421.0659
157.8771, 420.3540
158.3592, 421.1864
158.8414, 424.2486
159.3235, 427.1638
159.8056, 429.4203
160.2877, 431.2618
160.7698, 432.7654
161.2519, 433.9232
161.7341, 434.9932
162.2162, 436.7530
162.6983, 439.9394
163.1804, 442.8777
163.6625, 445.2315
164.1446, 447.2477
164.6268, 449.1867
165.1089, 451.1992
165.5910, 453.2891
166.0731, 455.5449
166.5552, 458.0897
167.0373, 460.6683
167.5195, 463.0265
168.0016, 465.3885
168.4837, 468.2295
168.9658, 471.8960
169.4479, 476.3532
169.9300, 480.5639
170.4122, 484.9380
170.8943, 488.7551
171.3764, 491.4178
171.8585, 493.1132
172.3406, 494.6559
172.8227, 496.4476
173.3049, 498.6201
173.7870, 501.5433
174.2691, 506.2075
174.7512, 510.9523
175.2333, 514.2057
175.7154, 515.8808
176.1976, 517.4421
176.6797, 519.8373
177.1618, 522.9460
177.6439, 526.4634
178.1260, 530.6867
178.6081, 535.1615
179.0903, 539.2923
179.5724, 543.0472
180.0545, 546.4774
180.5366, 549.7020
181.0187, 552.6439
181.5008, 555.0377
181.9830, 556.3654
182.4651, 557.1043
182.9472, 558.8162
183.4293, 562.0092
183.9114, 565.4623
184.3935, 568.6574
184.8757, 571.6918
185.3578, 574.8329
185.8399, 578.5008
186.3220, 582.5313
186.8041, 585.0593
187.2862, 584.9178
187.7684, 584.3486
188.2505, 583.4650
188.7326, 582.6469
189.2147, 582.6035
189.6968, 584.1368
190.1789, 587.3711
190.6611, 588.7970
191.1432, 586.5914
191.6253, 584.3539
192.1074, 583.3257
192.5895, 583.2812
193.0716, 583.3204
193.5538, 582.6659
194.0359, 581.2321
194.5180, 579.7307
195.0001, 577.8693
195.4822, 576.2054
195.9643, 575.4088
196.4465, 575.2239
196.9286, 574.4855
197.4107, 571.8730
197.8928, 566.9756
198.3749, 564.1422
198.8570, 564.9504
199.3392, 566.4016
199.8213, 566.3759
200.3034, 564.7827
200.7855, 563.1291
201.2676, 562.7817
201.7497, 563.8641
202.2319, 565.0938
202.7140, 565.8239
203.1961, 567.0398
203.6782, 570.2518
204.1603, 575.7402
204.6424, 580.9383
205.1246, 582.9706
205.6067, 582.5489
206.0888, 582.9221
206.5709, 584.8935
207.0530, 587.9431
207.5351, 591.5261
208.0173, 595.7499
208.4994, 600.0439
208.9815, 603.8547
209.4636, 607.3978
209.9457, 611.1240
210.4278, 615.2018
210.9100, 619.5850
211.3921, 624.1900
211.8742, 628.9719
212.3563, 634.0422
212.8384, 639.7025
213.3205, 645.6511
213.8027, 651.3689
214.2848, 656.7067
214.7669, 661.5985
215.2490, 665.5502
215.7311, 667.6677
216.2132, 670.2604
216.6954, 674.3250
217.1775, 679.4464
217.6596, 684.9326
218.1417, 690.3943
218.6238, 695.8738
219.1059, 701.6559
219.5881, 708.7039
220.0702, 714.7491
220.5523, 718.7070
221.0344, 721.3254
221.5165, 723.8449
221.9986, 727.0902
222.4808, 730.9465
222.9629, 734.3192
223.4450, 736.5794
223.9271, 738.9631
224.4092, 741.6258
224.8913, 744.6093
225.3735, 748.0450
225.8556, 752.1418
226.3377, 756.7371
226.8198, 760.2160
227.3019, 761.2237
227.7840, 762.4674
228.2662, 764.4004
228.7483, 766.9750
229.2304, 770.1010
229.7125, 773.8022
230.1946, 777.9719
230.6767, 781.3533
231.1589, 783.4415
231.6410, 785.3635
232.1231, 787.1501
232.6052, 788.9803
233.0873, 791.2672
233.5694, 794.3577
234.0516, 798.0309
234.5337, 800.6000
235.0158, 801.6207
235.4979, 802.3054
235.9800, 802.7220
236.4621, 803.0637
236.9443, 803.7897
237.4264, 805.2525
237.9085, 807.1914
238.3906, 808.3846
238.8727, 808.7112
239.3548, 808.6210
239.8370, 807.9619
240.3191, 806.9717
240.8012, 806.3739
241.2833, 806.7530
241.7654, 807.4766
242.2475, 806.6061
242.7297, 803.0471
243.2118, 799.9315
243.6939, 799.1022
244.1760, 799.8761
244.6581, 800.2736
245.1402, 799.5900
245.6224, 797.8969
246.1045, 795.3458
246.5866, 791.6689
247.0687, 788.0032
247.5508, 784.8879
248.0329, 782.2500
248.5151, 779.8575
248.9972, 777.8324
249.4793, 775.7448
249.9614, 772.8735
250.4435, 769.0587
250.9256, 765.4730
251.4078, 763.1474
251.8899, 761.7171
252.3720, 759.3859
252.8541, 755.1904
253.3362, 750.5897
253.8183, 747.1841
254.3005, 744.9500
254.7826, 743.0329
255.2647, 740.9134
255.7468, 738.6682
256.2289, 736.6932
256.7110, 735.1058
257.1931, 733.7721
257.6753, 732.7171
258.1574, 731.8698
258.6395, 730.7639
259.1216, 728.8266
259.6037, 726.2731
260.0858, 724.2834
260.5680, 723.0955
261.0501, 722.3763
261.5322, 722.0588
262.0143, 722.0016
262.4964, 721.7821
262.9785, 720.8447
263.4607, 719.4050
263.9428, 718.7917
264.4249, 719.5692
264.9070, 720.4055
265.3891, 720.3277
265.8712, 719.8282
266.3534, 719.9455
266.8355, 721.5790
267.3176, 724.2813
267.7997, 726.0791
268.2818, 726.2993
268.7639, 726.6093
269.2461, 727.9051
269.7282, 729.6116
270.2103, 730.7637
270.6924, 730.6342
271.1745, 729.8531
271.6566, 730.6146
272.1388, 733.9922
272.6209, 737.1399
273.1030, 739.4186
273.5851, 741.0553
274.0672, 742.1352
274.5493, 742.6340
275.0315, 742.9314
275.5136, 743.9648
275.9957, 745.9644
276.4778, 748.3409
276.9599, 750.9166
277.4420, 753.7685
277.9242, 757.1249
278.4063, 761.0718
278.8884, 765.1419
279.3705, 768.4898
279.8526, 770.8654
280.3347, 772.9742
280.8169, 774.4391
281.2990, 775.9996
281.7811, 778.3371
282.2632, 781.5634
282.7453, 785.0925
283.2274, 788.0139
283.7096, 789.9529
284.1917, 792.2236
284.6738, 795.2170
285.1559, 798.2278
285.6380, 800.6984
286.1201, 802.6443
286.6023, 804.6091
287.0844, 807.2048
287.5665, 810.4633
288.0486, 814.1934
288.5307, 818.6896
289.0128, 823.3225
289.4950, 828.1336
289.9771, 832.9015
290.4592, 837.0123
290.9413, 839.7036
291.4234, 840.7507
291.9055, 843.2847
292.3877, 849.0159
292.8698, 854.5131
293.3519, 858.3407
293.8340, 861.0521
294.3161, 863.9984
294.7982, 868.1454
295.2804, 873.4181
295.7625, 878.6099
296.2446, 883.6415
296.7267, 888.6968
297.2088, 893.9221
297.6909, 899.1653
298.1731, 904.1813
298.6552, 908.8204
299.1373, 913.1081
299.6194, 917.0963
300.1015, 920.1272
300.5836, 923.6427
301.0658, 927.6703
301.5479, 932.2350
302.0300, 937.6370
302.5121, 943.9415
302.9942, 950.4959
303.4763, 956.0201
303.9585, 959.8049
304.4406, 963.4543
304.9227, 966.2592
305.4048, 969.3779
305.8869, 974.1749
306.3690, 980.7659
306.8512, 987.7216
307.3333, 992.9969
307.8154, 995.7552
308.2975, 998.9550
308.7796, 1002.896
309.2617, 1006.978
309.7439, 1011.025
310.2260, 1014.912
310.7081, 1018.386
311.1902, 1021.156
311.6723, 1023.182
312.1544, 1024.900
312.6366, 1025.093
313.1187, 1026.202
313.6008, 1030.056
314.0829, 1035.709
314.5650, 1040.734
315.0471, 1043.240
315.5293, 1043.491
316.0114, 1045.011
316.4935, 1049.794
316.9756, 1053.632
317.4577, 1055.429
317.9398, 1055.764
318.4220, 1055.396
318.9041, 1054.680
319.3862, 1053.825
319.8683, 1053.528
320.3504, 1055.388
320.8326, 1055.713
321.3147, 1053.073
321.7968, 1049.458
322.2789, 1046.833
322.7610, 1045.844
323.2431, 1045.665
323.7253, 1044.952
324.2074, 1043.666
324.6895, 1041.818
325.1716, 1039.167
325.6537, 1036.211
326.1358, 1033.457
326.6180, 1030.856
327.1001, 1027.738
327.5822, 1023.157
328.0643, 1016.505
328.5464, 1011.542
329.0285, 1009.786
329.5107, 1008.022
329.9928, 1004.963
330.4749, 1000.742
330.9570, 996.0900
331.4391, 991.5297
331.9212, 987.0424
332.4034, 982.3430
332.8855, 977.2870
333.3676, 972.1201
333.8497, 966.7655
334.3318, 961.3742
334.8139, 956.1401
335.2961, 951.1945
335.7782, 946.4630
336.2603, 941.9083
336.7424, 938.0448
337.2245, 933.5196
337.7066, 927.4164
338.1888, 921.1093
338.6709, 916.0643
339.1530, 912.5645
339.6351, 909.5273
340.1172, 905.2328
340.5993, 899.0054
341.0815, 893.2559
341.5636, 887.9449
342.0457, 883.0949
342.5278, 879.1385
343.0099, 875.7956
343.4920, 872.0657
343.9742, 866.7767
344.4563, 859.7672
344.9384, 854.2008
345.4205, 851.4469
345.9026, 848.9021
346.3847, 845.9385
346.8669, 842.6986
347.3490, 839.5883
347.8311, 836.9161
348.3132, 834.4687
348.7953, 831.3496
349.2774, 826.4960
349.7596, 822.6289
350.2417, 820.8953
350.7238, 819.9397
351.2059, 818.4745
351.6880, 816.0505
352.1701, 813.0629
352.6523, 810.1441
353.1344, 807.3264
353.6165, 804.4772
354.0986, 801.1053
354.5807, 798.0576
355.0628, 796.0623
355.5450, 795.0447
356.0271, 794.1899
356.5092, 792.6667
356.9913, 790.4553
357.4734, 788.4407
357.9555, 786.4850
358.4377, 784.9417
358.9198, 784.3279
359.4019, 784.2036
359.8840, 783.6047
360.3661, 781.6678
360.8482, 779.0938
361.3304, 778.1778
361.8125, 779.7784
362.2946, 781.1676
362.7767, 781.1824
363.2588, 780.6227
363.7409, 780.3974
364.2231, 780.8513
364.7052, 781.2238
365.1873, 779.9662
365.6694, 776.7025
366.1515, 775.3535
366.6336, 779.0995
367.1158, 783.2062
367.5979, 784.0859
368.0800, 781.7066
368.5621, 778.5015
369.0442, 775.9286
369.5263, 773.9370
370.0085, 772.3342
370.4906, 771.1404
370.9727, 770.2944
371.4548, 769.9886
371.9369, 769.9763
372.4190, 769.6749
372.9012, 768.6314
373.3833, 767.3355
373.8654, 766.7507
374.3475, 767.0354
374.8296, 766.6698
375.3117, 764.3174
375.7939, 761.1395
376.2760, 758.9011
376.7581, 758.0110
377.2402, 757.3983
377.7223, 756.3080
378.2044, 754.8408
378.6866, 753.5977
379.1687, 753.1224
379.6508, 752.2502
380.1329, 748.7775
380.6150, 742.7784
381.0971, 738.2643
381.5793, 737.6693
382.0614, 738.8129
382.5435, 738.7656
383.0256, 737.1818
383.5077, 734.7350
383.9898, 731.4345
384.4720, 727.5849
384.9541, 725.0084
385.4362, 725.0897
385.9183, 725.2655
386.4004, 723.8057
386.8825, 721.1008
387.3647, 718.5203
387.8468, 716.7381
388.3289, 715.4444
388.8110, 713.8264
389.2931, 711.6201
389.7752, 709.7011
390.2574, 708.7623
390.7395, 707.9813
391.2216, 706.2809
391.7037, 703.4473
392.1858, 700.1237
392.6679, 696.9822
393.1501, 693.9805
393.6322, 691.5526
394.1143, 689.9385
394.5964, 688.6112
395.0785, 687.2199
395.5606, 685.8600
396.0428, 685.0695
396.5249, 685.3392
397.0070, 686.2360
397.4891, 685.3732
397.9712, 680.5961
398.4533, 676.6347
398.9355, 674.3661
399.4176, 672.9826
399.8997, 671.6242
400.3818, 670.0147
400.8639, 668.3591
401.3460, 667.0175
401.8282, 666.2687
402.3103, 665.0411
402.7924, 662.8381
403.2745, 660.6591
403.7566, 659.0705
404.2387, 657.9647
404.7209, 656.8691
405.2030, 655.4112
405.6851, 653.6563
406.1672, 652.1974
406.6493, 651.4155
407.1314, 650.3890
407.6136, 648.8393
408.0957, 646.9954
408.5778, 644.9753
409.0599, 642.8183
409.5420, 640.8821
410.0241, 639.8445
410.5063, 639.9401
410.9884, 639.7062
411.4705, 639.0773
411.9526, 637.9034
412.4347, 635.6759
412.9168, 632.6731
413.3990, 630.0463
413.8811, 628.6973
414.3632, 628.3766
414.8453, 628.2957
415.3274, 628.7192
415.8095, 628.7242
416.2917, 627.7149
416.7738, 626.0198
417.2559, 623.7281
417.7380, 620.1962
418.2201, 617.4925
418.7022, 618.8442
419.1844, 623.6514
419.6665, 625.8422
420.1486, 622.4406
420.6307, 617.2419
421.1128, 615.3220
421.5949, 616.6191
422.0771, 617.4052
422.5592, 615.8567
423.0413, 613.2388
423.5234, 611.1318
424.0055, 609.7047
424.4876, 608.7889
424.9698, 608.4291
425.4519, 608.5216
425.9340, 608.3212
426.4161, 607.4906
426.8982, 606.7316
427.3803, 606.5209
427.8625, 606.5973
428.3446, 606.4322
428.8267, 605.8298
429.3088, 604.8899
429.7909, 603.7303
430.2730, 602.0450
430.7552, 600.8934
431.2373, 600.2369
431.7194, 600.1598
432.2015, 601.1869
432.6836, 603.0116
433.1657, 604.4207
433.6479, 604.3638
434.1300, 602.9835
434.6121, 602.1688
435.0942, 602.9114
435.5763, 603.0692
436.0584, 601.7216
436.5406, 599.8580
437.0227, 598.6033
437.5048, 598.3486
437.9869, 598.6903
438.4690, 599.0120
438.9511, 599.2341
439.4333, 599.6966
439.9154, 600.9887
440.3975, 602.0007
440.8796, 601.9780
441.3617, 601.2224
441.8438, 600.6229
442.3260, 600.8471
442.8081, 601.5986
443.2902, 601.8605
443.7723, 601.4703
444.2544, 600.9995
444.7365, 600.2003
445.2187, 599.6484
445.7008, 600.1082
446.1829, 601.7841
446.6650, 603.5263
447.1471, 604.1808
447.6292, 603.9589
448.1114, 604.0896
448.5935, 604.8903
449.0756, 605.7849
449.5577, 606.1934
450.0398, 606.2814
450.5219, 606.5567
451.0041, 607.3778
451.4862, 608.2783
451.9683, 608.6881
452.4504, 608.6976
452.9325, 608.9596
453.4146, 609.8446
453.8968, 611.0553
454.3789, 611.8773
454.8610, 612.0875
455.3431, 612.6708
455.8252, 614.6605
456.3073, 616.6954
456.7895, 616.9485
457.2716, 615.3338
457.7537, 613.6251
458.2358, 613.3992
458.7179, 614.6596
459.2000, 615.5362
459.6822, 615.5648
460.1643, 615.8127
460.6464, 616.6683
461.1285, 617.8931
461.6106, 619.2155
462.0927, 620.5189
462.5748, 621.6850
463.0569, 622.3690
463.5391, 621.9456
464.0212, 622.7543
464.5033, 626.2063
464.9854, 629.4857
465.4675, 631.2143
465.9496, 631.6568
466.4318, 631.7177
466.9139, 631.8612
467.3960, 632.1824
467.8781, 633.0006
468.3602, 634.4222
468.8423, 636.0817
469.3245, 638.2858
469.8066, 640.4436
470.2887, 642.0758
470.7708, 643.1151
471.2529, 643.8034
471.7350, 644.4437
472.2172, 644.9050
472.6993, 644.3001
473.1814, 641.9015
473.6635, 640.3493
474.1456, 642.3817
474.6277, 646.6072
475.1099, 650.0198
475.5920, 652.0881
476.0741, 653.2874
476.5562, 653.0446
477.0383, 652.1061
477.5204, 653.1467
478.0026, 657.4368
478.4847, 662.3946
478.9668, 664.1648
479.4489, 661.9420
479.9310, 660.4037
480.4131, 659.8550
480.8953, 660.0110
481.3774, 660.8225
481.8595, 662.1940
482.3416, 664.0692
482.8237, 666.5238
483.3058, 669.1515
483.7880, 670.5146
484.2701, 668.7440
484.7522, 668.4102
485.2343, 670.4437
485.7164, 673.3378
486.1985, 676.1812
486.6807, 678.7382
487.1628, 680.9923
487.6449, 682.9763
488.1270, 684.6746
488.6091, 685.8496
489.0912, 686.0129
489.5734, 686.4343
490.0555, 688.0169
490.5376, 689.7902
491.0197, 690.3292
491.5018, 689.1552
491.9839, 688.1713
492.4661, 689.7252
492.9482, 693.5005
493.4303, 696.6436
493.9124, 698.7021
494.3945, 700.1950
494.8766, 701.1652
495.3588, 701.8655
495.8409, 703.0166
496.3230, 705.3209
496.8051, 707.6429
497.2872, 708.9280
497.7693, 709.3986
498.2515, 709.8474
498.7336, 710.5410
499.2157, 711.4167
499.6978, 712.4620
500.1799, 713.8489
500.6620, 714.7357
501.1442, 714.0082
501.6263, 713.6530
502.1084, 715.4302
502.5905, 718.8842
503.0726, 722.4078
503.5547, 725.0733
504.0369, 726.9333
504.5190, 728.1276
505.0011, 727.8922
505.4832, 728.2107
505.9653, 729.6525
506.4474, 731.2787
506.9296, 732.3316
507.4117, 732.8312
507.8938, 733.3317
508.3759, 734.1897
508.8580, 735.4423
509.3401, 737.4037
509.8223, 740.5286
510.3044, 743.3582
510.7865, 745.3608
511.2686, 746.8153
511.7507, 747.7964
512.2328, 748.2759
512.7150, 748.8939
513.1971, 750.3459
513.6792, 752.3134
514.1613, 753.7158
514.6434, 754.2546
515.1255, 755.1367
515.6077, 757.7335
516.0898, 761.4608
516.5719, 763.7340
517.0540, 763.0266
517.5361, 762.5980
518.0182, 764.1002
518.5004, 766.8065
518.9825, 769.7289
519.4646, 772.5861
519.9467, 774.9918
520.4288, 776.4354
520.9109, 776.7676
521.3931, 777.1133
521.8752, 776.9581
522.3573, 777.3701
522.8394, 778.8620
523.3215, 781.1129
523.8036, 783.8381
524.2858, 786.8824
524.7679, 789.7639
525.2500, 791.5067
525.7321, 791.8094
526.2142, 792.4800
526.6964, 793.9736
527.1785, 795.4633
527.6606, 796.1755
528.1427, 796.6125
528.6248, 798.0704
529.1069, 801.7216
529.5891, 805.5442
530.0712, 806.2353
530.5533, 804.0279
531.0354, 802.9972
531.5175, 804.5370
531.9996, 807.2266
532.4818, 809.6213
532.9639, 811.7325
533.4460, 813.5322
533.9281, 815.4216
534.4102, 816.6600
534.8923, 815.8866
535.3745, 813.8584
535.8566, 813.1531
536.3387, 815.0683
536.8208, 818.4804
537.3029, 821.1057
537.7850, 822.7928
538.2672, 823.9639
538.7493, 823.9301
539.2314, 824.0452
539.7135, 825.2092
540.1956, 827.1920
540.6777, 829.3220
541.1599, 831.2561
541.6420, 832.8705
542.1241, 833.7916
542.6062, 833.8538
543.0883, 833.7645
543.5704, 833.8200
544.0526, 833.5971
544.5347, 832.3079
545.0168, 830.3084
545.4989, 829.2980
545.9810, 831.1826
546.4631, 834.0039
546.9453, 834.0342
547.4274, 831.3826
547.9095, 830.2667
548.3916, 832.9054
548.8737, 837.3327
549.3558, 840.1058
549.8380, 841.0706
550.3201, 841.9813
550.8022, 843.3378
551.2843, 844.6066
551.7664, 845.5275
552.2485, 845.9869
552.7307, 845.4775
553.2128, 843.5447
553.6949, 841.1616
554.1770, 841.2699
554.6591, 846.8417
555.1412, 849.5304
555.6234, 847.2227
556.1055, 844.0723
556.5876, 842.1415
557.0697, 841.5847
557.5518, 842.0452
558.0339, 843.6105
558.5161, 845.5480
558.9982, 845.9241
559.4803, 844.4037
559.9624, 843.3546
560.4445, 843.5040
560.9266, 844.3026
561.4088, 845.5117
561.8909, 847.0363
562.3730, 847.8542
562.8551, 846.8530
563.3372, 845.4824
563.8193, 845.4476
564.3015, 846.5302
564.7836, 847.3514
565.2657, 847.2350
565.7478, 846.7533
566.2299, 846.9595
566.7120, 848.1121
567.1942, 849.3948
567.6763, 851.7364
568.1584, 853.3307
568.6405, 852.5431
569.1226, 850.2052
569.6047, 848.2579
570.0869, 847.7244
570.5690, 848.0599
571.0511, 848.1701
571.5332, 847.9632
572.0153, 847.8907
572.4974, 848.2225
572.9796, 848.4713
573.4617, 848.2684
573.9438, 847.7842
574.4259, 847.5211
574.9080, 847.9540
575.3901, 848.2972
575.8723, 847.3373
576.3544, 845.3607
576.8365, 843.9719
577.3186, 843.6497
577.8007, 843.9437
578.2828, 844.5392
578.7650, 845.4590
579.2471, 845.8239
579.7292, 845.3549
580.2113, 844.5840
580.6934, 843.4799
581.1755, 842.3207
581.6577, 841.5706
582.1398, 841.3740
582.6219, 841.3897
583.1040, 841.1650
583.5861, 840.6652
584.0682, 840.2015
584.5504, 839.7196
585.0325, 839.3499
585.5146, 839.2126
585.9967, 839.1791
586.4788, 839.1575
586.9609, 839.1379
587.4431, 838.8749
587.9252, 838.2372
588.4073, 837.1783
588.8894, 835.3137
589.3715, 832.3862
589.8536, 829.6188
590.3358, 827.6788
590.8179, 826.5687
591.3000, 826.1541
591.7821, 827.0059
592.2642, 827.5016
592.7463, 826.8996
593.2285, 825.8098
593.7106, 824.6830
594.1927, 823.7050
594.6748, 823.3417
595.1569, 824.1414
595.6390, 825.6599
596.1212, 825.3948
596.6033, 821.6836
597.0854, 819.0870
597.5675, 819.3909
598.0496, 819.8898
598.5317, 818.2181
599.0139, 814.7231
599.4960, 811.8481
599.9781, 811.7042
600.4602, 812.7322
600.9423, 811.5536
601.4244, 808.1339
601.9066, 805.8138
602.3887, 806.1509
602.8708, 807.4226
603.3529, 807.3852
603.8350, 806.0878
604.3171, 804.2904
604.7993, 801.4672
605.2814, 798.7562
605.7635, 796.9232
606.2456, 795.7355
606.7277, 794.6105
607.2098, 793.3314
607.6920, 792.1459
608.1741, 791.5706
608.6562, 791.8789
609.1383, 791.2933
609.6204, 789.1168
610.1025, 786.8146
610.5847, 784.5662
611.0668, 782.5773
611.5489, 781.2939
612.0310, 780.8824
612.5131, 780.3412
612.9952, 778.6276
613.4774, 776.0573
613.9595, 773.4386
614.4416, 770.7532
614.9237, 768.7067
615.4058, 767.7614
615.8879, 767.7698
616.3701, 768.3821
616.8522, 770.7875
617.3343, 771.3580
617.8164, 768.3336
618.2985, 763.9173
618.7806, 759.4434
619.2628, 755.3785
619.7449, 752.3256
620.2270, 750.7194
620.7091, 750.1876
621.1912, 749.8432
621.6733, 749.9515
622.1555, 749.4326
622.6376, 747.3362
623.1197, 745.3436
623.6018, 744.6764
624.0839, 744.8802
624.5660, 744.6407
625.0482, 743.3748
625.5303, 741.6272
626.0124, 739.9301
626.4945, 738.2155
626.9766, 736.1764
627.4587, 733.6884
627.9409, 731.2628
628.4230, 729.3415
628.9051, 727.9313
629.3872, 726.7917
629.8693, 726.5067
630.3514, 725.7158
630.8336, 723.5339
631.3157, 721.0558
631.7978, 719.7284
632.2799, 719.4969
632.7620, 718.7433
633.2441, 715.8055
633.7263, 711.4359
634.2084, 708.8227
634.6905, 708.4175
635.1726, 707.9464
635.6547, 706.4085
636.1368, 704.8592
636.6190, 704.6278
637.1011, 705.5925
637.5832, 705.9470
638.0653, 705.0934
638.5474, 703.4520
639.0295, 700.8107
639.5117, 697.6942
639.9938, 695.4637
640.4759, 694.5957
640.9580, 694.2740
641.4401, 693.4822
641.9222, 692.1815
642.4044, 690.7714
642.8865, 688.5741
643.3686, 687.0905
643.8507, 687.2531
644.3328, 687.9481
644.8149, 688.0516
645.2971, 687.3356
645.7792, 686.1707
646.2613, 684.6629
646.7434, 682.9701
647.2255, 681.4899
647.7076, 680.2369
648.1898, 679.0495
648.6719, 677.7705
649.1540, 677.2220
649.6361, 676.1689
650.1182, 676.5070
650.6003, 676.6615
651.0825, 676.8801
651.5646, 676.5768
652.0467, 674.9193
652.5288, 672.6275
653.0109, 670.9933
653.4930, 670.4761
653.9752, 670.4991
654.4573, 670.3995
654.9394, 670.1797
655.4215, 669.7180
655.9036, 668.9418
656.3857, 668.0701
656.8679, 667.2292
657.3500, 666.3359
657.8321, 665.1816
658.3142, 663.6877
658.7963, 662.5052
659.2784, 662.1439
659.7606, 662.0978
660.2427, 661.9296
660.7248, 661.5703
661.2069, 660.8318
661.6890, 659.5859
662.1711, 658.2185
662.6533, 657.5071
663.1354, 657.8629
663.6175, 657.4062
664.0996, 654.8401
664.5817, 652.8746
665.0638, 652.8832
665.5460, 653.7936
666.0281, 654.1885
666.5102, 653.6898
666.9923, 652.6935
667.4744, 651.1599
667.9565, 649.4570
668.4387, 648.6166
668.9208, 648.7073
669.4029, 648.7297
669.8850, 648.1411
670.3671, 647.2306
670.8492, 646.6271
671.3314, 646.5838
671.8135, 646.1514
672.2956, 644.5056
672.7777, 643.2789
673.2598, 644.3967
673.7419, 646.2294
674.2241, 645.6057
674.7062, 641.4237
675.1883, 636.5086
675.6704, 634.5706
676.1525, 635.2631
676.6346, 634.9366
677.1168, 633.0318
677.5989, 631.7410
678.0810, 632.6454
678.5631, 634.5049
679.0452, 635.0195
679.5273, 633.9060
680.0095, 633.0118
680.4916, 633.1432
680.9737, 633.3407
681.4558, 632.4832
681.9379, 631.1473
682.4200, 630.9296
682.9022, 632.4523
683.3843, 634.4345
683.8664, 634.9293
684.3485, 633.7955
684.8306, 633.2007
685.3127, 633.1290
685.7949, 633.6363
686.2770, 635.6382
686.7591, 637.7463
687.2412, 638.1927
687.7233, 636.7005
688.2054, 635.4650
688.6876, 635.3011
689.1697, 635.9681
689.6518, 637.7202
690.1339, 640.1256
690.6160, 641.7019
691.0981, 641.8363
691.5803, 641.6860
692.0624, 642.9890
692.5445, 645.9628
693.0266, 648.4998
693.5087, 650.3292
693.9908, 652.0521
694.4730, 653.3242
694.9551, 654.8676
695.4372, 657.8420
695.9193, 662.2552
696.4014, 666.0494
696.8835, 668.6183
697.3657, 669.5339
697.8478, 667.9778
698.3299, 664.1799
698.8120, 659.2119
699.2941, 653.4633
699.7762, 646.8027
700.2584, 639.0473
700.7405, 630.1385
701.2226, 620.8920
701.7047, 610.9285
702.1868, 601.1458
702.6689, 590.9587
703.1511, 581.5605
703.6332, 574.1296
704.1153, 568.6992
704.5974, 564.2003
705.0795, 560.4621
705.5616, 556.8975
706.0438, 552.1747
706.5259, 546.6196
707.0080, 542.5266
707.4901, 540.7454
707.9722, 539.3845
708.4543, 536.2278
708.9365, 531.3464
709.4186, 528.5693
709.9007, 530.2436
710.3828, 530.7626
710.8649, 528.3167
711.3470, 525.1133
711.8292, 522.9483
712.3113, 521.8437
712.7934, 520.9097
713.2755, 519.5268
713.7576, 518.2343
714.2397, 518.1660
714.7219, 519.0865
715.2040, 519.1819
715.6861, 517.9672
716.1682, 516.6199
716.6503, 516.1495
717.1324, 516.3558
717.6146, 516.0785
718.0967, 515.0948
718.5788, 513.9948
719.0609, 512.4682
719.5430, 511.1573
720.0251, 510.5493
720.5073, 510.5385
720.9894, 510.9178
721.4715, 511.6900
721.9536, 512.1223
722.4357, 511.0565
722.9178, 508.7139
723.4000, 506.4834
723.8821, 504.5429
724.3642, 502.4351
724.8463, 500.0664
725.3284, 497.2167
725.8105, 493.3200
726.2927, 487.9756
726.7748, 482.5741
727.2569, 477.9357
727.7390, 472.4723
728.2211, 464.3340
728.7032, 455.0851
729.1854, 447.5253
729.6675, 442.5313
730.1496, 438.3404
730.6317, 433.1390
731.1138, 427.2487
731.5959, 421.7786
732.0781, 416.7399
732.5602, 412.3282
733.0423, 408.7767
733.5244, 405.5782
734.0065, 401.9329
734.4886, 397.6613
734.9708, 394.0811
735.4529, 391.7500
735.9350, 389.4383
736.4171, 386.6284
736.8992, 383.6812
737.3813, 381.0414
737.8635, 378.7415
738.3456, 376.3684
738.8277, 373.4844
739.3098, 370.4445
739.7919, 367.9894
740.2740, 366.0865
740.7562, 364.3359
741.2383, 362.6750
741.7204, 361.0445
742.2025, 359.3891
742.6846, 357.7106
743.1667, 356.0858
743.6489, 355.1295
744.1310, 353.3786
744.6131, 349.7445
745.0952, 346.0445
745.5773, 343.6564
746.0594, 342.3915
746.5416, 341.4497
747.0237, 340.5617
747.5058, 339.3961
747.9879, 336.9550
748.4700, 333.8644
748.9521, 333.0362
749.4343, 334.8996
749.9164, 335.9023
750.3985, 333.7206
750.8806, 329.8018
751.3627, 327.4583
751.8448, 327.6006
752.3270, 326.9922
752.8091, 324.8877
753.2912, 322.9225
753.7733, 321.9342
754.2554, 321.3802
754.7375, 320.5903
755.2197, 319.3956
755.7018, 317.8419
756.1839, 315.6582
756.6660, 313.2950
757.1481, 311.5966
757.6302, 310.4593
758.1124, 309.2380
758.5945, 307.7096
759.0766, 306.1693
759.5587, 304.9402
760.0408, 304.0221
760.5229, 303.1475
761.0051, 302.4451
761.4872, 301.5879
761.9693, 300.1717
762.4514, 298.9041
762.9335, 298.6507
763.4156, 299.0184
763.8978, 298.6150
764.3799, 296.6788
764.8620, 294.2825
765.3441, 291.9855
765.8262, 289.9365
766.3083, 288.4084
766.7905, 287.4199
767.2726, 286.9568
767.7547, 287.0885
768.2368, 287.3444
768.7189, 286.5359
769.2010, 284.2604
769.6832, 282.4038
770.1653, 281.1136
770.6474, 280.0486
771.1295, 279.1492
771.6116, 278.3400
772.0938, 277.6801
772.5759, 277.2244
773.0580, 276.1789
773.5401, 273.5248
774.0222, 270.8275
774.5043, 269.4084
774.9865, 268.8853
775.4686, 268.6620
775.9507, 268.4663
776.4328, 267.6827
776.9149, 265.4628
777.3970, 262.3255
777.8792, 260.8689
778.3613, 261.4781
778.8434, 261.6066
779.3255, 260.5253
779.8076, 259.1048
780.2897, 258.0240
780.7719, 257.2173
781.2540, 256.4669
781.7361, 256.1236
782.2182, 255.2441
782.7003, 253.0814
783.1824, 250.7309
783.6646, 248.9691
784.1467, 247.7915
784.6288, 247.0855
785.1109, 246.8174
785.5930, 246.3747
786.0751, 244.8233
786.5573, 242.4534
787.0394, 240.3281
787.5215, 238.4906
788.0036, 237.3382
788.4857, 237.2759
788.9678, 237.4377
789.4500, 236.4581
789.9321, 234.0864
790.4142, 232.5720
790.8963, 232.6122
791.3784, 232.5670
791.8605, 232.3040
792.3427, 231.6655
792.8248, 230.4277
793.3069, 228.6643
793.7890, 226.6567
794.2711, 224.1776
794.7532, 222.1484
795.2354, 221.9761
795.7175, 222.7704
796.1996, 222.5991
796.6817, 221.2498
797.1638, 219.4782
797.6459, 217.6740
798.1281, 216.0745
798.6102, 215.3453
799.0923, 215.7873
799.5744, 215.8390
800.0565, 215.4182
800.5386, 214.7368
801.0208, 213.8045
801.5029, 212.7062
801.9850, 211.4617
802.4671, 210.0601
802.9492, 208.8608
803.4313, 208.1766
803.9135, 207.5041
804.3956, 206.3826
804.8777, 205.1575
805.3598, 204.4596
805.8419, 204.2881
806.3240, 203.9695
806.8062, 202.9849
807.2883, 201.5666
807.7704, 199.9623
808.2525, 198.2118
808.7346, 197.6453
809.2167, 198.7537
809.6989, 199.6949
810.1810, 199.1885
810.6631, 197.7052
811.1452, 196.5438
811.6273, 195.9682
812.1094, 195.1191
812.5916, 193.6913
813.0737, 192.3445
813.5558, 191.4254
814.0379, 190.7138
814.5200, 189.8488
815.0021, 188.8019
815.4843, 188.0052
815.9664, 188.1036
816.4485, 188.2906
816.9306, 187.3830
817.4127, 185.8500
817.8948, 184.9496
818.3770, 184.9176
818.8591, 185.1406
819.3412, 185.1866
819.8233, 184.9662
820.3054, 184.0518
820.7875, 182.1563
821.2697, 180.8335
821.7518, 180.2836
822.2339, 180.2038
822.7160, 180.8390
823.1981, 181.6722
823.6802, 181.7044
824.1624, 180.7212
824.6445, 179.8680
825.1266, 179.3815
825.6087, 179.0748
826.0908, 179.0064
826.5729, 178.9776
827.0551, 178.6470
827.5372, 178.0177
828.0193, 177.5332
828.5014, 177.7073
828.9835, 177.9606
829.4656, 176.9979
829.9478, 175.1672
830.4299, 174.2791
830.9120, 174.6743
831.3941, 175.1545
831.8762, 174.8791
832.3583, 174.1413
832.8404, 173.7421
833.3225, 173.8359
833.8046, 173.8020
834.2867, 173.0915
834.7689, 172.9857
835.2510, 175.2391
835.7331, 177.5482
836.2152, 176.6210
836.6973, 172.2738
837.1794, 169.1254
837.6616, 169.5765
838.1437, 170.6557
838.6258, 170.7537
839.1079, 170.2632
839.5900, 169.5912
840.0721, 168.9144
840.5543, 168.5470
841.0364, 168.7482
841.5185, 169.0801
842.0006, 168.7650
842.4827, 167.8943
842.9648, 167.0242
843.4470, 166.2026
843.9291, 165.4243
844.4112, 164.6245
844.8933, 164.0251
845.3754, 164.0709
845.8575, 164.9216
846.3397, 165.4040
846.8218, 165.0768
847.3039, 164.9800
847.7860, 165.7720
848.2681, 166.5013
848.7502, 166.1996
849.2324, 165.0807
849.7145, 164.2061
850.1966, 163.8342
850.6787, 163.8818
851.1608, 164.5708
851.6429, 165.4656
852.1251, 166.1559
852.6072, 166.5962
853.0893, 166.7897
853.5714, 166.7416
854.0535, 166.5911
854.5356, 166.6160
855.0178, 166.6946
855.4999, 166.1319
855.9820, 164.9060
856.4641, 163.8952
856.9462, 163.3563
857.4283, 163.1348
857.9105, 163.1292
858.3926, 163.3091
858.8747, 163.4121
859.3568, 163.1498
859.8389, 163.3215
860.3210, 164.9733
860.8032, 166.0059
861.2853, 164.8345
861.7674, 162.5654
862.2495, 161.0104
862.7316, 160.4837
863.2137, 160.4774
863.6959, 161.1764
864.1780, 161.9205
864.6601, 162.1022
865.1422, 162.0133
865.6243, 162.2767
866.1064, 162.9113
866.5886, 163.2327
867.0707, 162.6529
867.5528, 161.7007
868.0349, 161.3001
868.5170, 161.4014
868.9991, 161.8281
869.4813, 162.5853
869.9634, 162.9550
870.4455, 162.4700
870.9276, 161.5788
871.4097, 161.1119
871.8918, 161.1469
872.3740, 161.0858
872.8561, 161.0168
873.3382, 160.7108
873.8203, 159.7221
874.3024, 158.7860
874.7845, 158.5576
875.2667, 158.9147
875.7488, 159.2421
876.2309, 159.4460
876.7130, 159.5712
877.1951, 159.6379
877.6772, 159.6250
878.1594, 159.3869
878.6415, 159.0830
879.1236, 159.0306
879.6057, 159.3286
880.0878, 159.8153
880.5699, 160.5122
881.0521, 161.2078
881.5342, 161.5079
882.0163, 161.4592
882.4984, 161.2649
882.9805, 160.9704
883.4626, 160.3900
883.9448, 159.2655
884.4269, 158.0359
884.9090, 158.1911
885.3911, 160.1143
885.8732, 161.1865
886.3553, 160.9909
886.8375, 160.6135
887.3196, 160.5358
887.8017, 160.5576
888.2838, 160.3661
888.7659, 159.9415
889.2480, 159.5625
889.7302, 159.0344
890.2123, 158.8183
890.6944, 159.4465
891.1765, 160.0755
891.6586, 159.8355
892.1407, 159.0240
892.6229, 158.5664
893.1050, 158.7869
893.5871, 159.3104
894.0692, 160.2612
894.5513, 161.1022
895.0334, 160.9723
895.5156, 160.2480
895.9977, 159.8477
896.4798, 160.0432
896.9619, 160.6307
897.4440, 161.5595
897.9261, 162.5506
898.4083, 162.6759
898.8904, 162.0588
899.3725, 162.3857
899.8546, 164.0356
900.3367, 165.1216
900.8188, 164.4195
901.3010, 162.7519
901.7831, 161.6446
902.2652, 161.0954
902.7473, 161.1440
903.2294, 162.2419
903.7115, 163.1454
904.1937, 163.5363
904.6758, 163.5971
905.1579, 163.3658
905.6400, 162.9202
906.1221, 162.5514
906.6042, 162.0930
907.0864, 162.0892
907.5685, 163.0931
908.0506, 164.1846
908.5327, 164.7702
909.0148, 164.9974
909.4969, 165.1485
909.9791, 165.2974
910.4612, 165.4261
910.9433, 165.6262
911.4254, 165.6995
911.9075, 165.0803
912.3896, 164.2980
912.8718, 164.5954
913.3539, 165.9442
913.8360, 167.2273
914.3181, 167.8158
914.8002, 168.0197
915.2823, 168.3525
915.7645, 168.7556
916.2466, 168.7292
916.7287, 168.2473
917.2108, 167.7350
917.6929, 167.2707
918.1750, 167.0559
918.6572, 167.3107
919.1393, 167.9781
919.6214, 168.8034
920.1035, 170.1847
920.5856, 170.7035
921.0677, 169.4980
921.5499, 168.4864
922.0320, 168.9808
922.5141, 169.9876
922.9962, 169.9794
923.4783, 168.8173
923.9604, 168.5419
924.4426, 170.3934
924.9247, 171.9250
925.4068, 171.8432
925.8889, 171.5060
926.3710, 172.3436
926.8531, 173.9315
927.3353, 174.8348
927.8174, 174.5002
928.2995, 174.0548
928.7816, 174.0967
929.2637, 174.5518
929.7458, 175.6875
930.2280, 177.0727
930.7101, 177.7169
931.1922, 177.5266
931.6743, 177.3896
932.1564, 178.0000
932.6385, 178.8786
933.1207, 179.1093
933.6028, 178.8716
934.0849, 178.9160
934.5670, 179.3070
935.0491, 180.0348
935.5313, 181.1322
936.0134, 182.2165
936.4955, 182.7947
936.9776, 182.9163
937.4597, 183.0662
937.9418, 183.2519
938.4240, 183.3992
938.9061, 183.3238
939.3882, 183.6279
939.8703, 185.1066
940.3524, 186.9481
940.8345, 187.1729
941.3167, 184.9512
941.7988, 184.2640
942.2809, 186.7159
942.7630, 188.5207
943.2451, 188.0470
943.7272, 187.2122
944.2094, 187.6129
944.6915, 189.0257
945.1736, 190.4209
945.6557, 191.6084
946.1378, 192.6946
946.6199, 194.1185
947.1021, 195.0502
947.5842, 194.1516
948.0663, 192.7467
948.5484, 193.0472
949.0305, 195.1792
949.5126, 197.1239
949.9948, 197.7170
950.4769, 197.6924
950.9590, 197.4470
951.4411, 197.2418
951.9232, 197.5719
952.4053, 198.3572
952.8875, 199.2140
953.3696, 199.9830
953.8517, 200.6456
954.3338, 201.1368
954.8159, 201.5372
955.2980, 202.0377
955.7802, 202.6387
956.2623, 203.3411
956.7444, 204.1447
957.2265, 205.1881
957.7086, 206.6259
958.1907, 208.0169
958.6729, 208.4490
959.1550, 207.8862
959.6371, 207.9077
960.1192, 208.6231
960.6013, 209.4962
961.0834, 210.4888
961.5656, 211.3989
962.0477, 212.0322
962.5298, 212.4590
963.0119, 212.8980
963.4940, 213.1838
963.9761, 213.9165
964.4583, 215.6317
964.9404, 217.0838
965.4225, 217.7040
965.9046, 218.0508
966.3867, 218.7189
966.8688, 219.6211
967.3510, 220.1015
967.8331, 219.3180
968.3152, 219.4256
968.7973, 221.7939
969.2794, 224.2342
969.7615, 225.2870
970.2437, 225.6410
970.7258, 226.4659
971.2079, 227.8559
971.6900, 228.7915
972.1721, 228.2000
972.6542, 227.8527
973.1364, 229.1042
973.6185, 231.0103
974.1006, 233.0189
974.5827, 234.6731
975.0648, 234.7901
975.5469, 233.1494
976.0291, 232.1471
976.5112, 234.3748
976.9933, 237.7832
977.4754, 239.9395
977.9575, 241.0101
978.4396, 240.9793
978.9218, 240.1669
979.4039, 239.8636
979.8860, 240.7172
980.3681, 242.3024
980.8502, 244.5313
981.3323, 246.9356
981.8145, 247.2603
982.2966, 245.8663
982.7787, 246.0417
983.2608, 248.5049
983.7429, 251.0565
984.2250, 252.1980
984.7072, 252.5211
985.1893, 253.1865
985.6714, 254.2018
986.1535, 255.2914
986.6356, 256.4761
987.1177, 257.6144
987.5999, 258.6723
988.0820, 259.6667
988.5641, 260.5544
989.0462, 261.4319
989.5283, 262.6748
990.0104, 264.5231
990.4926, 265.9521
990.9747, 266.7844
991.4568, 267.5040
991.9389, 268.0487
992.4210, 268.7927
992.9031, 270.2622
993.3853, 272.3153
993.8674, 273.9970
994.3495, 275.0755
994.8316, 276.1765
995.3137, 277.6523
995.7958, 278.7471
996.2780, 278.4640
996.7601, 278.1126
997.2422, 279.4056
997.7243, 282.1855
998.2064, 284.4551
998.6885, 285.8151
999.1707, 286.6576
999.6528, 286.7723
1000.135, 286.7130
1000.617, 286.3921
1001.099, 286.3496
1001.581, 287.5016
1002.063, 289.8519
1002.545, 292.1547
1003.028, 294.0903
1003.510, 295.5664
1003.992, 296.2157
1004.474, 296.6537
1004.956, 297.3216
1005.438, 298.2887
1005.920, 299.6164
1006.402, 301.2931
1006.885, 303.1214
1007.367, 305.0902
1007.849, 307.0015
1008.331, 308.7704
1008.813, 310.2924
1009.295, 311.2481
1009.777, 311.8317
1010.259, 312.6239
1010.741, 313.8244
1011.224, 315.2103
1011.706, 316.5286
1012.188, 317.9789
1012.670, 320.1305
1013.152, 322.5819
1013.634, 324.2712
1014.116, 325.2529
1014.598, 326.4378
1015.081, 328.2157
1015.563, 330.1324
1016.045, 331.7643
1016.527, 333.0928
1017.009, 333.7945
1017.491, 334.1145
1017.973, 335.4613
1018.455, 337.9112
1018.937, 339.9258
1019.420, 340.7058
1019.902, 341.0923
1020.384, 342.1837
1020.866, 343.8921
1021.348, 345.9220
1021.830, 348.2621
1022.312, 350.4089
1022.794, 352.2726
1023.276, 354.3263
1023.759, 356.9283
1024.241, 359.4689
1024.723, 360.9062
1025.205, 361.3336
1025.687, 361.9460
1026.169, 362.7100
1026.651, 363.9810
1027.133, 365.8975
1027.616, 367.9555
1028.098, 369.7957
1028.580, 371.7305
1029.062, 374.3977
1029.544, 377.8452
1030.026, 380.5477
1030.508, 382.4188
1030.990, 383.8246
1031.473, 384.6344
1031.955, 385.4652
1032.437, 386.7622
1032.919, 388.2577
1033.401, 389.3689
1033.883, 389.9805
1034.365, 391.4088
1034.847, 394.0427
1035.329, 396.6317
1035.812, 398.7662
1036.294, 401.1647
1036.776, 404.6436
1037.258, 408.4361
1037.740, 410.9499
1038.222, 411.9766
1038.704, 413.1332
1039.186, 414.0955
1039.668, 415.7112
1040.151, 418.4688
1040.633, 421.5039
1041.115, 424.5870
1041.597, 427.4566
1042.079, 429.4191
1042.561, 430.2568
1043.043, 431.6777
1043.525, 433.8959
1044.008, 436.4427
1044.490, 439.6750
1044.972, 442.7677
1045.454, 445.2361
1045.936, 447.2152
1046.418, 448.7728
1046.900, 449.7846
1047.382, 451.6500
1047.865, 454.8335
1048.347, 458.4525
1048.829, 462.9679
1049.311, 467.1938
1049.793, 469.9790
1050.275, 472.1365
1050.757, 475.3069
1051.239, 479.7183
1051.721, 483.2704
1052.203, 484.7077
1052.686, 486.4044
1053.168, 489.0475
1053.650, 492.1136
1054.132, 495.1638
1054.614, 498.4127
1055.096, 502.2267
1055.578, 506.6494
1056.060, 511.6628
1056.543, 517.8734
1057.025, 523.8166
1057.507, 528.5195
1057.989, 533.3406
1058.471, 539.0296
1058.953, 545.5988
1059.435, 553.4528
1059.917, 562.5099
1060.400, 570.4664
1060.882, 574.6350
1061.364, 580.3412
1061.846, 590.7913
1062.328, 602.1627
1062.810, 611.2640
1063.292, 619.6458
1063.774, 629.7607
1064.256, 641.8725
1064.739, 654.8351
1065.221, 668.0740
1065.703, 682.3224
1066.185, 698.0562
1066.667, 714.6939
1067.149, 731.7138
1067.631, 749.5117
1068.113, 768.7404
1068.595, 789.3795
1069.078, 811.0162
1069.560, 833.2733
1070.042, 857.2735
1070.524, 885.6512
1071.006, 913.8019
1071.488, 938.7571
1071.970, 961.5961
1072.452, 984.6874
1072.935, 1007.697
1073.417, 1027.683
1073.899, 1042.542
1074.381, 1057.896
1074.863, 1076.972
1075.345, 1096.710
1075.827, 1115.025
1076.309, 1132.823
1076.792, 1150.807
1077.274, 1169.387
1077.756, 1189.163
1078.238, 1210.369
1078.720, 1232.677
1079.202, 1256.606
1079.684, 1280.703
1080.166, 1306.162
1080.648, 1329.795
1081.130, 1350.866
1081.613, 1366.906
1082.095, 1373.615
1082.577, 1369.978
1083.059, 1354.867
1083.541, 1325.932
1084.023, 1287.413
1084.505, 1238.615
1084.987, 1183.953
1085.469, 1123.758
1085.952, 1062.169
1086.434, 1007.134
1086.916, 960.5048
1087.398, 918.6455
1087.880, 879.2150
1088.362, 845.2859
1088.844, 818.3393
1089.326, 797.4796
1089.809, 784.0992
1090.291, 775.4104
1090.773, 766.4792
1091.255, 756.6612
1091.737, 750.6340
1092.219, 752.4362
1092.701, 754.9982
1093.183, 755.3085
1093.666, 755.7017
1094.148, 758.4964
1094.630, 762.1089
1095.112, 763.4139
1095.594, 762.6853
1096.076, 764.4623
1096.558, 771.8883
1097.040, 778.2996
1097.522, 780.2202
1098.005, 782.0169
1098.487, 786.4814
1098.969, 792.0350
1099.451, 797.0961
1099.933, 801.3919
1100.415, 804.6580
1100.897, 806.0623
1101.379, 808.6671
1101.861, 813.5040
1102.344, 819.3456
1102.826, 826.9593
1103.308, 834.2963
1103.790, 839.2834
1104.272, 842.5156
1104.754, 845.7000
1105.236, 848.9294
1105.718, 852.9230
1106.201, 858.8697
1106.683, 864.1467
1107.165, 867.1265
1107.647, 870.0826
1108.129, 874.3700
1108.611, 879.8426
1109.093, 886.4018
1109.575, 894.1596
1110.057, 901.0801
1110.540, 906.4344
1111.022, 911.6940
1111.504, 917.0672
1111.986, 922.3476
1112.468, 927.5818
1112.950, 932.6199
1113.432, 937.0041
1113.914, 940.8170
1114.396, 945.6517
1114.879, 952.1775
1115.361, 958.6038
1115.843, 965.2787
1116.325, 971.2740
1116.807, 975.3464
1117.289, 979.6224
1117.771, 986.4171
1118.253, 995.0715
1118.736, 1003.105
1119.218, 1010.690
1119.700, 1016.971
1120.182, 1020.867
1120.664, 1025.825
1121.146, 1033.193
1121.628, 1040.950
1122.110, 1047.588
1122.593, 1053.670
1123.075, 1060.270
1123.557, 1067.380
1124.039, 1075.025
1124.521, 1083.472
1125.003, 1091.384
1125.485, 1098.459
1125.967, 1105.204
1126.449, 1111.728
1126.932, 1118.566
1127.414, 1125.717
1127.896, 1133.241
1128.378, 1140.207
1128.860, 1147.805
1129.342, 1154.956
1129.824, 1162.074
1130.306, 1170.285
1130.788, 1178.106
1131.271, 1186.307
1131.753, 1195.597
1132.235, 1205.512
1132.717, 1214.768
1133.199, 1223.392
1133.681, 1232.026
1134.163, 1240.683
1134.645, 1248.615
1135.128, 1255.680
1135.610, 1263.681
1136.092, 1273.899
1136.574, 1284.693
1137.056, 1293.574
1137.538, 1301.178
1138.020, 1309.429
1138.502, 1318.352
1138.984, 1327.886
1139.467, 1338.022
1139.949, 1348.682
1140.431, 1359.825
1140.913, 1370.685
1141.395, 1380.355
1141.877, 1389.713
1142.359, 1400.126
1142.841, 1411.366
1143.323, 1422.839
1143.806, 1434.530
1144.288, 1446.826
1144.770, 1459.579
1145.252, 1471.517
1145.734, 1481.549
1146.216, 1491.961
1146.698, 1505.679
1147.180, 1517.295
1147.663, 1532.734
1148.145, 1544.381
1148.627, 1558.097
1149.109, 1573.508
1149.591, 1588.219
1150.073, 1601.538
1150.555, 1614.055
1151.037, 1624.922
1151.520, 1636.733
1152.002, 1651.711
1152.484, 1667.930
1152.966, 1684.218
1153.448, 1699.928
1153.930, 1713.635
1154.412, 1725.553
1154.894, 1739.190
1155.376, 1756.187
1155.859, 1773.823
1156.341, 1791.979
1156.823, 1809.721
1157.305, 1825.335
1157.787, 1841.397
1158.269, 1861.550
1158.751, 1884.495
1159.233, 1905.164
1159.715, 1922.315
1160.198, 1941.025
1160.680, 1964.124
1161.162, 1985.086
1161.644, 1999.998
1162.126, 2016.285
1162.608, 2039.175
1163.090, 2064.974
1163.572, 2088.018
1164.055, 2108.642
1164.537, 2131.200
1165.019, 2157.046
1165.501, 2180.239
1165.983, 2199.131
1166.465, 2219.132
1166.947, 2242.101
1167.429, 2266.643
1167.911, 2291.542
1168.394, 2317.131
1168.876, 2345.285
1169.358, 2375.897
1169.840, 2403.746
1170.322, 2428.705
1170.804, 2454.170
1171.286, 2480.812
1171.768, 2510.464
1172.250, 2544.447
1172.733, 2578.281
1173.215, 2605.827
1173.697, 2630.330
1174.179, 2660.162
1174.661, 2693.750
1175.143, 2725.813
1175.625, 2756.307
1176.107, 2787.393
1176.590, 2819.678
1177.072, 2852.657
1177.554, 2886.060
1178.036, 2920.265
1178.518, 2955.452
1179.000, 2991.376
1179.482, 3027.870
1179.964, 3064.676
1180.447, 3101.509
1180.929, 3138.616
1181.411, 3176.673
1181.893, 3215.822
1182.375, 3255.015
1182.857, 3294.078
1183.339, 3332.514
1183.821, 3367.994
1184.303, 3404.873
1184.786, 3447.317
1185.268, 3492.938
1185.750, 3538.878
1186.232, 3584.411
1186.714, 3627.728
1187.196, 3667.461
1187.678, 3708.204
1188.160, 3748.602
1188.642, 3792.542
1189.125, 3844.347
1189.607, 3896.473
1190.089, 3943.142
1190.571, 3987.243
1191.053, 4033.197
1191.535, 4080.930
1192.017, 4130.142
1192.499, 4181.816
1192.982, 4232.254
1193.464, 4280.648
1193.946, 4329.790
1194.428, 4380.594
1194.910, 4432.528
1195.392, 4484.712
1195.874, 4538.060
1196.356, 4595.337
1196.839, 4647.985
1197.321, 4710.587
1197.803, 4759.595
1198.285, 4814.491
1198.767, 4876.336
1199.249, 4935.830
1199.731, 4988.819
1200.213, 5043.103
1200.695, 5107.221
1201.177, 5174.792
1201.660, 5235.650
1202.142, 5292.863
1202.624, 5352.804
1203.106, 5414.748
1203.588, 5475.218
1204.070, 5534.542
1204.552, 5596.213
1205.034, 5662.005
1205.517, 5728.920
1205.999, 5795.604
1206.481, 5861.384
1206.963, 5924.229
1207.445, 5986.862
1207.927, 6051.648
1208.409, 6118.861
1208.891, 6188.812
1209.374, 6260.799
1209.856, 6330.169
1210.338, 6392.351
1210.820, 6458.448
1211.302, 6532.260
1211.784, 6607.502
1212.266, 6684.913
1212.748, 6759.578
1213.230, 6826.227
1213.713, 6889.283
1214.195, 6957.595
1214.677, 7031.178
1215.159, 7106.117
1215.641, 7183.940
1216.123, 7258.189
1216.605, 7328.524
1217.087, 7394.830
1217.569, 7456.377
1218.052, 7516.401
1218.534, 7577.026
1219.016, 7637.726
1219.498, 7696.176
1219.980, 7753.200
1220.462, 7814.042
1220.944, 7877.692
1221.426, 7941.329
1221.909, 8003.874
1222.391, 8063.183
1222.873, 8118.447
1223.355, 8172.563
1223.837, 8228.924
1224.319, 8282.155
1224.801, 8323.611
1225.283, 8362.203
1225.766, 8409.796
1226.248, 8460.026
1226.730, 8504.037
1227.212, 8540.649
1227.694, 8570.099
1228.176, 8591.708
1228.658, 8614.403
1229.140, 8648.074
1229.622, 8672.854
1230.104, 8676.005
1230.587, 8676.294
1231.069, 8685.173
1231.551, 8695.903
1232.033, 8702.470
1232.515, 8704.214
1232.997, 8698.511
1233.479, 8684.830
1233.961, 8665.777
1234.444, 8639.041
1234.926, 8617.405
1235.408, 8605.387
1235.890, 8586.174
1236.372, 8550.845
1236.854, 8508.685
1237.336, 8470.347
1237.818, 8424.576
1238.301, 8376.490
1238.783, 8327.412
1239.265, 8271.551
1239.747, 8215.819
1240.229, 8155.758
1240.711, 8091.703
1241.193, 8029.108
1241.675, 7970.273
1242.157, 7910.772
1242.640, 7847.713
1243.122, 7781.455
1243.604, 7710.040
1244.086, 7636.829
1244.568, 7564.162
1245.050, 7492.297
1245.532, 7422.319
1246.014, 7353.317
1246.496, 7283.550
1246.979, 7213.392
1247.461, 7139.850
1247.943, 7058.145
1248.425, 6979.173
1248.907, 6906.132
1249.389, 6834.424
1249.871, 6761.245
1250.353, 6689.430
1250.836, 6621.769
1251.318, 6557.761
1251.800, 6495.540
1252.282, 6435.336
1252.764, 6373.445
1253.246, 6317.278
1253.728, 6262.455
1254.210, 6206.443
1254.693, 6158.040
1255.175, 6104.036
1255.657, 6052.381
1256.139, 6012.200
1256.621, 5962.322
1257.103, 5927.299
1257.585, 5875.828
1258.067, 5831.266
1258.549, 5793.903
1259.031, 5765.643
1259.514, 5743.257
1259.996, 5717.314
1260.478, 5685.076
1260.960, 5654.643
1261.442, 5628.483
1261.924, 5606.313
1262.406, 5589.089
1262.888, 5574.716
1263.371, 5561.698
1263.853, 5551.368
1264.335, 5546.568
1264.817, 5538.031
1265.299, 5539.258
1265.781, 5529.562
1266.263, 5524.919
1266.745, 5525.597
1267.228, 5531.071
1267.710, 5542.261
1268.192, 5548.788
1268.674, 5546.597
1269.156, 5546.462
1269.638, 5557.249
1270.120, 5562.007
1270.602, 5580.776
1271.084, 5586.890
1271.567, 5603.504
1272.049, 5626.491
1272.531, 5648.239
1273.013, 5667.728
1273.495, 5684.523
1273.977, 5699.214
1274.459, 5715.194
1274.941, 5733.689
1275.423, 5755.165
1275.906, 5782.137
1276.388, 5809.460
1276.870, 5835.000
1277.352, 5859.897
1277.834, 5884.788
1278.316, 5910.021
1278.798, 5936.053
1279.280, 5962.702
1279.763, 5987.492
1280.245, 6008.671
1280.727, 6033.792
1281.209, 6064.267
1281.691, 6094.918
1282.173, 6124.849
1282.655, 6150.865
1283.137, 6171.339
1283.620, 6191.851
1284.102, 6218.370
1284.584, 6245.983
1285.066, 6267.851
##END=



