##NAMES=Andalusite
##RRUFFID=R050449
##IDEAL CHEMISTRY=Al_2_SiO_5_
##LOCALITY=Itinga, Minas Gerais, Brazil
##OWNER=RRUFF
##SOURCE=Marcus Origlieri
##DESCRIPTION=Green fragment
##STATUS=The identification of this mineral has been confirmed by X-ray diffraction and chemical analysis
##URL=rruff.info/R050449
##MEASURED CHEMISTRY=Al_2.00_Fe^3+^_0.01_Si_0.99_O_5_
93.78320, 168.1617
94.26532, 170.3278
94.74744, 171.1361
95.22955, 170.1435
95.71167, 168.1754
96.19379, 165.4934
96.67590, 162.3983
97.15802, 159.0564
97.64014, 155.0969
98.12225, 150.9491
98.60437, 147.3737
99.08649, 144.7143
99.56860, 142.7300
100.0507, 141.0266
100.5328, 139.4756
101.0150, 137.7352
101.4971, 135.4545
101.9792, 132.5959
102.4613, 129.9663
102.9434, 127.8721
103.4255, 126.0915
103.9077, 124.4727
104.3898, 122.9368
104.8719, 121.6033
105.3540, 120.7897
105.8361, 120.9267
106.3182, 120.8162
106.8004, 120.4036
107.2825, 119.5788
107.7646, 118.1323
108.2467, 115.8764
108.7288, 112.8878
109.2109, 110.2514
109.6931, 107.7620
110.1752, 105.7809
110.6573, 104.6737
111.1394, 104.2164
111.6215, 103.8171
112.1036, 102.9092
112.5858, 101.3584
113.0679, 100.5223
113.5500, 100.9530
114.0321, 101.6418
114.5142, 101.8846
114.9964, 101.5690
115.4785, 101.0038
115.9606, 100.5708
116.4427, 100.2637
116.9248, 99.68237
117.4069, 98.42085
117.8891, 96.84117
118.3712, 95.68952
118.8533, 95.19140
119.3354, 95.07146
119.8175, 95.02893
120.2996, 95.06290
120.7818, 95.20955
121.2639, 95.58557
121.7460, 96.20552
122.2281, 96.64310
122.7102, 96.64125
123.1923, 96.54405
123.6745, 96.56316
124.1566, 96.72325
124.6387, 96.84656
125.1208, 96.65675
125.6029, 95.99649
126.0850, 95.33153
126.5672, 94.77608
127.0493, 94.19601
127.5314, 93.41299
128.0135, 92.36205
128.4956, 91.22069
128.9777, 90.47124
129.4599, 90.59306
129.9420, 90.61251
130.4241, 90.43508
130.9062, 90.11745
131.3883, 89.74908
131.8705, 89.37709
132.3526, 88.99193
132.8347, 88.53357
133.3168, 87.81935
133.7989, 87.22455
134.2810, 86.81911
134.7632, 86.63103
135.2453, 86.84409
135.7274, 87.89155
136.2095, 89.38683
136.6916, 90.01881
137.1737, 89.06705
137.6559, 87.62219
138.1380, 86.75965
138.6201, 86.54164
139.1022, 86.61812
139.5843, 87.18813
140.0664, 87.85616
140.5486, 87.95461
141.0307, 86.84123
141.5128, 85.01498
141.9949, 84.00920
142.4770, 84.28924
142.9591, 84.75782
143.4413, 84.96900
143.9234, 84.99860
144.4055, 85.02510
144.8876, 85.27378
145.3697, 85.75060
145.8518, 85.61201
146.3340, 83.77896
146.8161, 82.25537
147.2982, 82.02637
147.7803, 82.76159
148.2624, 83.36024
148.7445, 82.61945
149.2267, 79.98671
149.7088, 78.36496
150.1909, 78.12411
150.6730, 78.33930
151.1551, 78.50266
151.6372, 78.54652
152.1194, 78.73966
152.6015, 79.47475
153.0836, 81.14017
153.5657, 82.24459
154.0478, 82.63502
154.5299, 82.54346
155.0121, 82.14630
155.4942, 81.48003
155.9763, 80.60900
156.4584, 79.46981
156.9405, 77.97774
157.4227, 76.90034
157.9048, 76.46120
158.3869, 76.58080
158.8690, 77.18905
159.3511, 78.49136
159.8332, 79.93629
160.3154, 80.97566
160.7975, 81.63936
161.2796, 81.82307
161.7617, 81.15945
162.2438, 79.73235
162.7259, 78.71906
163.2081, 78.77934
163.6902, 79.04675
164.1723, 78.84980
164.6544, 78.12443
165.1365, 77.26564
165.6186, 76.60073
166.1008, 76.08098
166.5829, 76.00968
167.0650, 76.98073
167.5471, 78.05666
168.0292, 78.61860
168.5113, 78.52139
168.9935, 78.11092
169.4756, 77.99856
169.9577, 78.53770
170.4398, 78.67538
170.9219, 78.00285
171.4040, 77.14468
171.8862, 76.66235
172.3683, 76.75484
172.8504, 77.15572
173.3325, 77.22381
173.8146, 76.16393
174.2967, 75.74010
174.7789, 76.75813
175.2610, 78.18867
175.7431, 78.71770
176.2252, 77.72343
176.7073, 75.72848
177.1894, 74.46106
177.6716, 74.03456
178.1537, 74.07230
178.6358, 74.83453
179.1179, 76.00462
179.6000, 77.00227
180.0821, 77.55214
180.5643, 77.71300
181.0464, 77.67289
181.5285, 77.21221
182.0106, 76.89783
182.4927, 77.31693
182.9749, 78.24049
183.4570, 78.52943
183.9391, 77.19047
184.4212, 75.15023
184.9033, 74.42169
185.3854, 75.61339
185.8676, 77.16010
186.3497, 77.75447
186.8318, 77.37029
187.3139, 76.95900
187.7960, 76.95134
188.2781, 77.14188
188.7603, 77.35872
189.2424, 77.63070
189.7245, 77.78439
190.2066, 77.38718
190.6887, 76.11946
191.1708, 75.49154
191.6530, 77.02144
192.1351, 78.96271
192.6172, 79.65691
193.0993, 78.38806
193.5814, 76.13470
194.0635, 74.88035
194.5457, 75.10542
195.0278, 75.43289
195.5099, 75.50060
195.9920, 74.14692
196.4741, 75.76424
196.9562, 76.65813
197.4384, 76.86744
197.9205, 74.34187
198.4026, 75.34785
198.8847, 74.93854
199.3668, 74.47119
199.8489, 75.97421
200.3311, 73.84641
200.8132, 75.31819
201.2953, 75.35309
201.7774, 76.04560
202.2595, 77.68951
202.7416, 79.06116
203.2238, 77.76183
203.7059, 75.25895
204.1880, 73.67757
204.6701, 74.20161
205.1522, 76.30476
205.6344, 77.64320
206.1165, 78.17027
206.5986, 78.11490
207.0807, 76.84567
207.5628, 75.05608
208.0449, 74.15532
208.5271, 75.03075
209.0092, 77.11239
209.4913, 78.01891
209.9734, 77.01906
210.4555, 76.00349
210.9376, 75.70512
211.4198, 75.92181
211.9019, 76.06985
212.3840, 75.79953
212.8661, 75.32928
213.3482, 75.28551
213.8303, 75.95416
214.3125, 76.55981
214.7946, 76.53982
215.2767, 76.01570
215.7588, 75.67706
216.2409, 75.97559
216.7230, 76.53120
217.2052, 76.57929
217.6873, 75.83286
218.1694, 75.17635
218.6515, 75.44985
219.1336, 76.61417
219.6157, 77.59137
220.0979, 77.87270
220.5800, 77.81850
221.0621, 77.79149
221.5442, 77.80765
222.0263, 77.94096
222.5084, 78.41958
222.9906, 79.31245
223.4727, 79.80696
223.9548, 79.23213
224.4369, 78.39317
224.9190, 77.83329
225.4011, 77.65057
225.8833, 77.71634
226.3654, 77.96040
226.8475, 78.45557
227.3296, 78.76887
227.8117, 78.62769
228.2938, 78.38991
228.7760, 78.28623
229.2581, 78.35986
229.7402, 78.46623
230.2223, 78.35795
230.7044, 77.88342
231.1866, 77.68797
231.6687, 78.06194
232.1508, 78.55615
232.6329, 78.89645
233.1150, 79.03482
233.5971, 79.10782
234.0793, 79.33452
234.5614, 79.85925
235.0435, 80.17122
235.5256, 80.25163
236.0077, 80.16248
236.4898, 79.79154
236.9720, 79.19451
237.4541, 78.68116
237.9362, 78.73179
238.4183, 79.74422
238.9004, 80.34698
239.3825, 80.21672
239.8647, 79.99353
240.3468, 80.23281
240.8289, 80.93028
241.3110, 81.51836
241.7931, 81.22299
242.2752, 79.50632
242.7574, 78.47329
243.2395, 78.26408
243.7216, 78.51443
244.2037, 79.22133
244.6858, 80.27136
245.1679, 81.25859
245.6501, 81.72243
246.1322, 81.52231
246.6143, 81.26645
247.0964, 80.95399
247.5785, 80.59284
248.0606, 80.10151
248.5428, 79.51540
249.0249, 79.05978
249.5070, 78.99903
249.9891, 79.42220
250.4712, 79.57312
250.9533, 79.29252
251.4355, 78.88416
251.9176, 78.56207
252.3997, 78.32912
252.8818, 78.01336
253.3639, 77.38287
253.8460, 76.45677
254.3282, 76.06790
254.8103, 76.77254
255.2924, 77.56139
255.7745, 77.72537
256.2566, 77.27461
256.7387, 76.62376
257.2209, 75.98324
257.7030, 75.39274
258.1851, 74.98312
258.6672, 74.60929
259.1493, 74.53236
259.6314, 75.27959
260.1136, 76.72017
260.5957, 77.58351
261.0778, 76.61939
261.5599, 74.69319
262.0420, 74.46303
262.5241, 77.21330
263.0063, 80.16655
263.4884, 81.43748
263.9705, 81.14619
264.4526, 80.25041
264.9347, 78.77300
265.4168, 77.23048
265.8990, 76.60058
266.3811, 77.25661
266.8632, 78.02625
267.3453, 77.79742
267.8275, 76.75493
268.3096, 76.40485
268.7917, 77.55657
269.2738, 79.47181
269.7559, 81.25100
270.2380, 82.96543
270.7202, 84.08815
271.2023, 83.76244
271.6844, 82.26779
272.1665, 81.55254
272.6486, 82.39041
273.1307, 83.93510
273.6129, 85.33482
274.0950, 86.59371
274.5771, 87.76516
275.0592, 88.80095
275.5413, 89.75093
276.0234, 90.93079
276.5056, 92.61548
276.9877, 94.23560
277.4698, 95.45595
277.9519, 96.28271
278.4340, 96.76552
278.9161, 96.63908
279.3983, 96.11330
279.8804, 96.21726
280.3625, 97.42882
280.8446, 98.62041
281.3267, 98.91428
281.8088, 98.65539
282.2910, 98.65485
282.7731, 99.34554
283.2552, 100.6280
283.7373, 102.2874
284.2194, 104.6920
284.7015, 106.7601
285.1837, 107.9241
285.6658, 108.5021
286.1479, 108.9054
286.6300, 109.1926
287.1121, 109.5386
287.5942, 110.4472
288.0764, 112.2594
288.5585, 113.8260
289.0406, 114.8524
289.5227, 115.3970
290.0048, 115.4372
290.4869, 114.9316
290.9691, 114.0472
291.4512, 113.1004
291.9333, 112.1925
292.4154, 110.8930
292.8975, 109.0328
293.3796, 106.7903
293.8618, 104.1204
294.3439, 101.0142
294.8260, 97.93383
295.3081, 95.56265
295.7902, 94.07962
296.2723, 92.47012
296.7545, 90.39831
297.2366, 88.27601
297.7187, 86.02144
298.2008, 83.76568
298.6829, 82.20285
299.1650, 82.36832
299.6472, 84.48758
300.1293, 86.19872
300.6114, 87.43303
301.0935, 88.12263
301.5756, 87.88737
302.0577, 86.98556
302.5399, 86.18936
303.0220, 86.12621
303.5041, 86.76952
303.9862, 87.57762
304.4683, 88.99740
304.9504, 90.03744
305.4326, 89.93233
305.9147, 89.24501
306.3968, 89.05127
306.8789, 90.12859
307.3610, 92.12695
307.8431, 93.48595
308.3253, 93.74767
308.8074, 94.06462
309.2895, 94.61116
309.7716, 95.43498
310.2537, 96.69178
310.7358, 98.51311
311.2180, 100.5192
311.7001, 101.7896
312.1822, 101.9354
312.6643, 102.2140
313.1464, 102.5412
313.6285, 103.2638
314.1107, 104.8296
314.5928, 107.3317
315.0749, 110.2083
315.5570, 112.7457
316.0392, 114.9957
316.5213, 116.6900
317.0034, 117.1660
317.4855, 117.5768
317.9676, 118.8195
318.4497, 120.8056
318.9319, 122.5208
319.4140, 122.8780
319.8961, 121.7610
320.3782, 120.4578
320.8603, 118.9353
321.3424, 117.2375
321.8246, 115.4806
322.3067, 113.5726
322.7888, 111.2503
323.2709, 108.2272
323.7530, 104.6160
324.2351, 101.3257
324.7173, 98.27139
325.1994, 95.70954
325.6815, 93.81058
326.1636, 92.34962
326.6457, 91.05696
327.1278, 89.86156
327.6100, 88.62480
328.0921, 86.84779
328.5742, 83.90923
329.0563, 81.81145
329.5384, 81.31005
330.0205, 81.57111
330.5027, 82.06383
330.9848, 82.62975
331.4669, 83.04340
331.9490, 82.82544
332.4311, 81.70995
332.9132, 81.13662
333.3954, 81.84687
333.8775, 82.78044
334.3596, 83.48286
334.8417, 83.87877
335.3238, 84.00717
335.8059, 83.63885
336.2881, 82.75410
336.7702, 82.72459
337.2523, 84.45909
337.7344, 86.08973
338.2165, 86.57542
338.6986, 86.29380
339.1808, 86.19790
339.6629, 86.96934
340.1450, 88.34607
340.6271, 89.34752
341.1092, 89.85873
341.5913, 90.19188
342.0735, 90.16415
342.5556, 90.15157
343.0377, 90.69061
343.5198, 92.07183
344.0019, 93.80373
344.4840, 95.04942
344.9662, 95.68546
345.4483, 96.41619
345.9304, 97.67632
346.4125, 98.98164
346.8946, 99.94024
347.3767, 100.4990
347.8589, 100.9783
348.3410, 101.6809
348.8231, 102.6039
349.3052, 103.4667
349.7873, 103.8075
350.2694, 104.6178
350.7516, 107.1470
351.2337, 110.8953
351.7158, 113.7241
352.1979, 113.7116
352.6800, 111.7577
353.1621, 110.8204
353.6443, 111.1421
354.1264, 112.0527
354.6085, 113.6710
355.0906, 115.5063
355.5727, 116.7307
356.0548, 116.9509
356.5370, 116.5947
357.0191, 116.1354
357.5012, 115.5623
357.9833, 115.0554
358.4654, 114.9181
358.9475, 114.7377
359.4297, 114.0618
359.9118, 112.8352
360.3939, 111.1843
360.8760, 108.8436
361.3581, 106.0331
361.8402, 103.9348
362.3224, 103.1827
362.8045, 102.6687
363.2866, 101.0471
363.7687, 98.45419
364.2508, 96.19379
364.7329, 95.07475
365.2151, 94.51209
365.6972, 93.41805
366.1793, 91.59318
366.6614, 89.87486
367.1436, 88.97313
367.6257, 88.69190
368.1078, 88.42249
368.5899, 88.23511
369.0720, 87.90961
369.5541, 87.15078
370.0363, 86.02861
370.5184, 84.99614
371.0005, 84.21390
371.4826, 83.71145
371.9647, 83.54388
372.4468, 83.80785
372.9290, 84.11420
373.4111, 84.49614
373.8932, 84.78638
374.3753, 84.53906
374.8574, 83.56770
375.3395, 82.49782
375.8217, 82.26482
376.3038, 83.02023
376.7859, 83.20310
377.2680, 81.89541
377.7501, 80.48143
378.2322, 80.39646
378.7144, 81.57467
379.1965, 82.62223
379.6786, 82.40623
380.1607, 81.08421
380.6428, 80.53708
381.1249, 81.39650
381.6071, 82.21393
382.0892, 82.37341
382.5713, 82.14467
383.0534, 82.14836
383.5355, 82.68425
384.0176, 83.34499
384.4998, 83.22575
384.9819, 81.50196
385.4640, 80.32680
385.9461, 79.80434
386.4282, 79.81400
386.9103, 80.54336
387.3925, 81.86675
387.8746, 83.11048
388.3567, 83.53684
388.8388, 83.05339
389.3209, 82.38313
389.8030, 80.93778
390.2852, 79.92471
390.7673, 80.11353
391.2494, 81.06762
391.7315, 81.93753
392.2136, 82.23897
392.6957, 82.03048
393.1779, 81.48553
393.6600, 79.83833
394.1421, 78.98267
394.6242, 79.67513
395.1063, 80.83543
395.5884, 81.53104
396.0706, 81.51942
396.5527, 81.12071
397.0348, 80.68194
397.5169, 80.12859
397.9990, 79.84251
398.4811, 80.00559
398.9633, 80.28201
399.4454, 80.61238
399.9275, 80.95213
400.4096, 81.23926
400.8917, 81.42809
401.3738, 81.53118
401.8560, 81.59974
402.3381, 81.62857
402.8202, 81.63100
403.3023, 81.64954
403.7844, 81.63094
404.2665, 81.48265
404.7487, 81.16689
405.2308, 80.85158
405.7129, 80.68034
406.1950, 80.64226
406.6771, 80.97939
407.1592, 82.27312
407.6414, 83.38412
408.1235, 83.18965
408.6056, 81.94681
409.0877, 81.10620
409.5698, 81.86131
410.0519, 83.55332
410.5341, 84.71616
411.0162, 85.32161
411.4983, 85.34021
411.9804, 84.08180
412.4625, 82.37433
412.9446, 81.69639
413.4268, 82.72612
413.9089, 84.07499
414.3910, 84.66148
414.8731, 84.60878
415.3553, 84.49170
415.8374, 84.46169
416.3195, 84.49487
416.8016, 84.66425
417.2837, 85.01907
417.7658, 84.99311
418.2480, 83.93983
418.7301, 82.69015
419.2122, 82.42528
419.6943, 83.21397
420.1764, 83.81497
420.6585, 83.11812
421.1407, 81.28291
421.6228, 80.26161
422.1049, 80.36794
422.5870, 80.83568
423.0691, 81.65268
423.5512, 82.57390
424.0334, 83.23354
424.5155, 83.49126
424.9976, 83.30580
425.4797, 82.53581
425.9618, 80.49690
426.4439, 79.28740
426.9261, 79.53078
427.4082, 80.08455
427.8903, 80.21484
428.3724, 79.86665
428.8545, 79.27023
429.3366, 78.52975
429.8188, 77.68401
430.3009, 77.64323
430.7830, 79.84636
431.2651, 81.27328
431.7472, 80.83587
432.2293, 79.59805
432.7115, 78.79997
433.1936, 78.90636
433.6757, 79.57991
434.1578, 80.40092
434.6399, 81.55537
435.1220, 82.18749
435.6042, 81.41426
436.0863, 80.79092
436.5684, 81.37647
437.0505, 82.84270
437.5326, 83.97306
438.0147, 83.79679
438.4969, 82.68388
438.9790, 81.94209
439.4611, 81.67778
439.9432, 81.52058
440.4253, 81.30006
440.9074, 81.11310
441.3896, 81.03613
441.8717, 81.06511
442.3538, 81.31596
442.8359, 82.07596
443.3180, 83.22957
443.8001, 84.01431
444.2823, 84.18358
444.7644, 84.14433
445.2465, 84.28816
445.7286, 84.57164
446.2107, 84.79582
446.6928, 84.83170
447.1750, 84.83435
447.6571, 85.01948
448.1392, 85.35957
448.6213, 85.56178
449.1034, 85.42107
449.5855, 85.08318
450.0677, 84.93984
450.5498, 84.93329
451.0319, 85.18015
451.5140, 86.28746
451.9961, 87.40182
452.4782, 87.23252
452.9604, 85.61754
453.4425, 83.74417
453.9246, 82.81667
454.4067, 82.92308
454.8888, 83.10747
455.3709, 83.81522
455.8531, 84.11237
456.3352, 83.06377
456.8173, 81.49826
457.2994, 80.94601
457.7815, 82.12622
458.2636, 84.12959
458.7458, 85.00801
459.2279, 84.13098
459.7100, 83.41442
460.1921, 82.87493
460.6742, 82.52153
461.1563, 82.58825
461.6385, 82.89937
462.1206, 82.84614
462.6027, 81.70763
463.0848, 79.86562
463.5669, 79.46264
464.0491, 81.30364
464.5312, 82.95934
465.0133, 83.46273
465.4954, 83.45750
465.9775, 83.61632
466.4597, 84.11357
466.9418, 84.48222
467.4239, 84.10567
467.9060, 83.12717
468.3881, 82.48647
468.8702, 82.28596
469.3524, 82.51013
469.8345, 83.63483
470.3166, 85.24881
470.7987, 86.04530
471.2808, 84.97145
471.7629, 83.51768
472.2451, 83.07631
472.7272, 83.47353
473.2093, 83.78121
473.6914, 83.55574
474.1735, 83.14547
474.6556, 83.33215
475.1378, 84.41428
475.6199, 84.99870
476.1020, 84.33168
476.5841, 83.45419
477.0662, 83.30779
477.5483, 83.92016
478.0305, 84.80458
478.5126, 85.65179
478.9947, 86.42024
479.4768, 86.71253
479.9589, 86.00931
480.4410, 85.45876
480.9232, 85.14565
481.4053, 85.08611
481.8874, 85.43429
482.3695, 86.16119
482.8516, 86.85411
483.3337, 86.95402
483.8159, 86.36655
484.2980, 85.98315
484.7801, 85.73849
485.2622, 85.80437
485.7443, 86.54409
486.2264, 87.55135
486.7086, 88.17310
487.1907, 88.10381
487.6728, 87.66850
488.1549, 87.21918
488.6370, 86.73650
489.1191, 86.61673
489.6013, 87.19545
490.0834, 87.89193
490.5655, 88.18077
491.0476, 88.10966
491.5297, 87.99992
492.0118, 88.03438
492.4940, 88.07048
492.9761, 87.99305
493.4582, 87.78755
493.9403, 85.76216
494.4224, 87.25047
494.9045, 88.01533
495.3867, 88.09561
495.8688, 85.44101
496.3509, 86.31797
496.8330, 85.77964
497.3151, 85.18328
497.7972, 86.55728
498.2794, 84.30045
498.7615, 85.64320
499.2436, 85.54908
499.7257, 86.11257
500.2078, 85.25205
500.6899, 84.82376
501.1721, 84.77109
501.6542, 85.06392
502.1363, 85.41182
502.6184, 85.49092
503.1005, 85.22571
503.5826, 84.80172
504.0648, 84.41553
504.5469, 84.06018
505.0290, 83.81489
505.5111, 83.66925
505.9932, 83.66065
506.4753, 83.93637
506.9575, 84.31421
507.4396, 84.49510
507.9217, 84.34299
508.4038, 84.05182
508.8859, 83.74232
509.3680, 83.43413
509.8502, 83.59789
510.3323, 84.72018
510.8144, 85.72469
511.2965, 85.24028
511.7786, 83.56639
512.2607, 82.31160
512.7429, 81.96092
513.2250, 82.11738
513.7071, 82.70394
514.1892, 83.56456
514.6713, 84.02273
515.1534, 83.68233
515.6356, 83.07644
516.1177, 83.32527
516.5998, 85.17972
517.0819, 86.19106
517.5640, 85.79800
518.0461, 84.95298
518.5283, 84.01203
519.0104, 83.18034
519.4925, 82.81780
519.9746, 83.19069
520.4567, 84.12328
520.9388, 85.01772
521.4210, 86.16309
521.9031, 86.69290
522.3852, 85.97275
522.8673, 85.09001
523.3494, 84.85334
523.8315, 85.26241
524.3137, 85.77664
524.7958, 86.11172
525.2779, 86.20843
525.7600, 85.56364
526.2421, 83.73292
526.7242, 82.87532
527.2064, 85.09508
527.6885, 88.19374
528.1706, 89.18598
528.6527, 87.48067
529.1348, 85.82484
529.6169, 85.61559
530.0991, 86.35561
530.5812, 87.45277
531.0633, 88.81729
531.5454, 89.89672
532.0275, 90.27226
532.5096, 90.01148
532.9918, 89.56499
533.4739, 88.30846
533.9560, 87.68864
534.4381, 88.74583
534.9202, 90.19063
535.4023, 90.39844
535.8845, 89.20521
536.3666, 87.89472
536.8487, 87.80373
537.3308, 88.92686
537.8129, 89.81511
538.2951, 90.43761
538.7772, 90.83954
539.2593, 91.00490
539.7415, 90.98489
540.2236, 90.66042
540.7057, 90.03023
541.1878, 89.69031
541.6699, 90.59904
542.1520, 92.49384
542.6342, 93.41426
543.1163, 92.86187
543.5984, 92.22049
544.0805, 92.45483
544.5626, 93.20319
545.0447, 93.80949
545.5269, 94.11742
546.0090, 94.40996
546.4911, 94.85418
546.9732, 95.39973
547.4553, 96.04914
547.9374, 96.81018
548.4196, 97.27775
548.9017, 96.93022
549.3838, 95.73275
549.8659, 95.38040
550.3480, 96.92705
550.8301, 97.90875
551.3123, 97.27708
551.7944, 95.87116
552.2765, 94.57793
552.7586, 93.70247
553.2407, 93.29610
553.7228, 93.63917
554.2050, 94.82164
554.6871, 95.03221
555.1692, 93.48264
555.6513, 92.05974
556.1334, 91.44097
556.6155, 91.33107
557.0977, 91.45894
557.5798, 91.81100
558.0619, 91.95036
558.5440, 91.18356
559.0261, 89.83785
559.5082, 89.19911
559.9904, 89.54922
560.4725, 90.13685
560.9546, 90.47237
561.4367, 90.56444
561.9188, 90.55440
562.4009, 90.39229
562.8831, 90.19172
563.3652, 89.90132
563.8473, 89.63520
564.3294, 89.58803
564.8115, 89.78435
565.2936, 90.03079
565.7758, 90.10950
566.2579, 90.01956
566.7400, 90.21276
567.2221, 91.28238
567.7042, 91.91031
568.1863, 91.53313
568.6685, 90.80196
569.1506, 90.38612
569.6327, 90.42354
570.1148, 90.56786
570.5969, 90.39555
571.0790, 89.99989
571.5612, 90.16544
572.0433, 91.31595
572.5254, 91.78963
573.0075, 89.84740
573.4896, 87.09957
573.9717, 86.06013
574.4539, 87.35572
574.9360, 88.80090
575.4181, 89.51167
575.9002, 89.69007
576.3823, 89.41640
576.8644, 88.77398
577.3466, 88.35672
577.8287, 88.63998
578.3108, 89.45183
578.7929, 89.94456
579.2750, 90.03075
579.7571, 89.89078
580.2393, 89.25052
580.7214, 88.59459
581.2035, 88.33382
581.6856, 88.45254
582.1677, 88.62432
582.6498, 88.56028
583.1320, 88.40902
583.6141, 88.78360
584.0962, 89.92242
584.5783, 90.76507
585.0604, 90.75459
585.5425, 90.54073
586.0247, 90.80421
586.5068, 91.49864
586.9889, 91.82594
587.4710, 90.89826
587.9531, 89.78056
588.4352, 90.00709
588.9174, 91.32964
589.3995, 92.12669
589.8816, 91.62017
590.3637, 90.46529
590.8458, 89.74343
591.3279, 89.48363
591.8101, 89.67320
592.2922, 90.80813
592.7743, 91.89602
593.2564, 92.43668
593.7385, 92.52884
594.2206, 92.35836
594.7028, 92.00600
595.1849, 91.67207
595.6670, 91.76389
596.1491, 92.36597
596.6312, 92.76357
597.1133, 92.86806
597.5955, 92.81020
598.0776, 92.64818
598.5597, 92.39698
599.0418, 92.06712
599.5239, 91.61070
600.0060, 91.19080
600.4882, 90.75446
600.9703, 90.47092
601.4524, 90.95107
601.9345, 92.34749
602.4166, 93.66237
602.8987, 93.92501
603.3809, 93.23757
603.8630, 93.10538
604.3451, 94.16693
604.8272, 94.88237
605.3093, 94.72247
605.7914, 94.23625
606.2736, 93.95388
606.7557, 93.94471
607.2378, 93.93987
607.7199, 93.64680
608.2020, 93.19438
608.6841, 93.31192
609.1663, 94.27985
609.6484, 95.00838
610.1305, 95.03209
610.6126, 94.77718
611.0947, 94.55635
611.5768, 94.38930
612.0590, 94.27746
612.5411, 94.29731
613.0232, 94.32011
613.5053, 94.15989
613.9874, 93.85676
614.4695, 93.56850
614.9517, 93.32870
615.4338, 93.28331
615.9159, 93.76548
616.3980, 95.18005
616.8801, 95.67956
617.3622, 94.28377
617.8444, 93.12331
618.3265, 93.26649
618.8086, 94.19028
619.2907, 95.07575
619.7728, 95.61894
620.2549, 95.90411
620.7371, 95.96120
621.2192, 95.80257
621.7013, 95.79549
622.1834, 96.07851
622.6655, 96.23818
623.1476, 96.00362
623.6298, 95.49535
624.1119, 94.80136
624.5940, 93.71117
625.0761, 93.10570
625.5582, 93.90260
626.0403, 95.12980
626.5225, 95.36064
627.0046, 94.63930
627.4867, 94.24530
627.9688, 95.08059
628.4509, 96.65240
628.9330, 97.31310
629.4152, 96.24605
629.8973, 95.74985
630.3794, 96.30594
630.8615, 96.98997
631.3436, 97.40300
631.8257, 97.50755
632.3079, 97.29002
632.7900, 96.63233
633.2721, 95.95361
633.7542, 95.89433
634.2363, 96.39467
634.7184, 96.95413
635.2006, 97.53463
635.6827, 97.99071
636.1648, 98.18996
636.6469, 98.13298
637.1291, 97.94415
637.6112, 97.43063
638.0933, 97.02074
638.5754, 96.94319
639.0576, 96.99402
639.5397, 96.92696
640.0218, 96.71919
640.5039, 96.50271
640.9860, 96.36013
641.4681, 96.32227
641.9503, 96.55654
642.4324, 97.15170
642.9145, 97.79594
643.3966, 98.69041
643.8787, 99.39610
644.3608, 99.48542
644.8430, 99.06573
645.3251, 98.72026
645.8072, 98.82412
646.2893, 98.98689
646.7714, 98.70265
647.2535, 98.13592
647.7357, 97.93144
648.2178, 98.31152
648.6999, 98.60665
649.1820, 97.92692
649.6641, 96.17384
650.1462, 95.49495
650.6284, 96.92633
651.1105, 98.08334
651.5926, 98.42992
652.0747, 98.31447
652.5568, 97.90630
653.0389, 97.34615
653.5211, 97.05930
654.0032, 97.63998
654.4853, 98.63456
654.9674, 98.62526
655.4495, 97.50942
655.9316, 96.53298
656.4138, 96.08498
656.8959, 95.99551
657.3780, 96.22948
657.8601, 96.78143
658.3422, 96.91885
658.8243, 95.99982
659.3065, 95.20366
659.7886, 95.15285
660.2707, 95.67063
660.7528, 96.56676
661.2349, 97.72698
661.7170, 98.84410
662.1992, 99.58959
662.6813, 99.96571
663.1634, 99.99438
663.6455, 99.52445
664.1276, 99.00218
664.6097, 98.35478
665.0919, 97.85646
665.5740, 97.92665
666.0561, 98.54901
666.5382, 98.88618
667.0203, 98.31580
667.5024, 97.45806
667.9846, 96.89709
668.4667, 96.61944
668.9488, 96.50038
669.4309, 96.49667
669.9130, 96.64938
670.3951, 97.06535
670.8773, 97.82235
671.3594, 98.21196
671.8415, 97.92484
672.3236, 97.62535
672.8057, 97.20113
673.2878, 96.97963
673.7700, 97.51608
674.2521, 98.79301
674.7342, 99.86068
675.2163, 99.87380
675.6984, 99.22904
676.1805, 98.67411
676.6627, 98.20918
677.1448, 97.76808
677.6269, 97.24700
678.1090, 96.93423
678.5911, 97.35152
679.0732, 98.73419
679.5554, 99.46779
680.0375, 98.78190
680.5196, 98.35172
681.0017, 99.23625
681.4838, 100.5270
681.9659, 100.9699
682.4481, 100.3404
682.9302, 99.48557
683.4123, 99.15420
683.8944, 99.25121
684.3765, 99.46323
684.8586, 99.84464
685.3408, 99.98163
685.8229, 99.58891
686.3050, 99.05194
686.7871, 98.73945
687.2692, 98.63652
687.7513, 99.07700
688.2335, 100.9087
688.7156, 102.4498
689.1977, 102.4829
689.6798, 101.7463
690.1619, 101.5055
690.6440, 102.0111
691.1262, 102.4254
691.6083, 101.7854
692.0904, 100.3208
692.5725, 99.75861
693.0546, 100.4569
693.5367, 101.0085
694.0189, 100.7938
694.5010, 100.4878
694.9831, 100.8506
695.4652, 101.7694
695.9473, 102.2949
696.4294, 101.7775
696.9116, 101.1527
697.3937, 101.1770
697.8758, 101.5163
698.3579, 101.3589
698.8400, 100.6014
699.3221, 100.1683
699.8043, 101.0231
700.2864, 102.9600
700.7685, 104.5046
701.2506, 105.9651
701.7327, 106.3690
702.2148, 104.3907
702.6970, 102.2119
703.1791, 101.1373
703.6612, 101.0920
704.1433, 101.4502
704.6254, 101.9626
705.1075, 102.8357
705.5897, 104.8505
706.0718, 107.2145
706.5539, 107.9261
707.0360, 106.7227
707.5181, 105.5307
708.0002, 106.0193
708.4824, 107.7268
708.9645, 108.2547
709.4466, 106.6706
709.9287, 105.6933
710.4108, 105.9412
710.8929, 106.4746
711.3751, 106.9793
711.8572, 107.3381
712.3393, 107.2491
712.8214, 106.3108
713.3035, 105.6746
713.7856, 106.8569
714.2678, 108.9435
714.7499, 109.8911
715.2320, 109.4688
715.7141, 108.8421
716.1962, 108.7907
716.6783, 109.0613
717.1605, 108.8832
717.6426, 107.9537
718.1247, 107.1652
718.6068, 106.2668
719.0889, 105.7642
719.5710, 106.2510
720.0532, 107.1830
720.5353, 107.6138
721.0174, 107.2267
721.4995, 106.6168
721.9816, 106.1149
722.4637, 105.7746
722.9459, 105.8440
723.4280, 106.2821
723.9101, 106.4145
724.3922, 105.8299
724.8743, 105.0241
725.3564, 104.9921
725.8386, 106.1155
726.3207, 106.6343
726.8028, 105.8360
727.2849, 105.2796
727.7670, 105.8650
728.2491, 106.7327
728.7313, 106.6091
729.2134, 105.3282
729.6955, 104.3561
730.1776, 105.2384
730.6597, 106.7792
731.1418, 107.0022
731.6240, 106.0816
732.1061, 105.0975
732.5882, 104.3856
733.0703, 104.0287
733.5524, 104.1525
734.0345, 104.7709
734.5167, 105.5468
734.9988, 107.0949
735.4809, 107.9778
735.9631, 107.5416
736.4452, 106.6922
736.9273, 106.0174
737.4094, 105.6298
737.8915, 105.5691
738.3737, 106.0240
738.8558, 106.5901
739.3379, 106.8428
739.8200, 106.8370
740.3021, 106.7524
740.7842, 106.6247
741.2664, 106.2992
741.7485, 105.5292
742.2306, 104.5579
742.7127, 104.6487
743.1948, 106.8697
743.6769, 108.2005
744.1591, 107.7280
744.6412, 107.1191
745.1233, 107.2558
745.6054, 107.9012
746.0875, 108.5460
746.5696, 109.1112
747.0518, 109.2885
747.5339, 108.1754
748.0160, 106.7978
748.4981, 107.3966
748.9802, 109.7728
749.4623, 111.3602
749.9445, 110.7990
750.4266, 109.0932
750.9087, 108.0672
751.3908, 107.8378
751.8729, 107.7462
752.3550, 107.9486
752.8372, 108.0816
753.3193, 107.6871
753.8014, 107.3675
754.2835, 108.0207
754.7656, 109.7093
755.2477, 110.9960
755.7299, 111.1425
756.2120, 110.6451
756.6941, 109.5498
757.1762, 108.2429
757.6583, 107.6703
758.1404, 108.0669
758.6226, 108.8783
759.1047, 109.6467
759.5868, 110.3053
760.0689, 110.2965
760.5510, 109.1686
761.0331, 108.6028
761.5153, 109.4838
761.9974, 110.4415
762.4795, 110.2427
762.9616, 109.3024
763.4437, 109.0239
763.9258, 110.2128
764.4080, 111.1730
764.8901, 110.7880
765.3722, 109.9330
765.8543, 109.5960
766.3364, 109.7821
766.8185, 109.9587
767.3007, 109.8191
767.7828, 109.7458
768.2649, 110.7980
768.7470, 113.0703
769.2291, 113.4549
769.7112, 110.9602
770.1934, 108.8882
770.6755, 109.0923
771.1576, 110.4808
771.6397, 111.2765
772.1218, 111.4577
772.6039, 111.3394
773.0861, 110.5003
773.5682, 109.8823
774.0503, 109.9628
774.5324, 110.5856
775.0145, 111.9079
775.4966, 113.7084
775.9788, 114.6754
776.4609, 113.2436
776.9430, 110.6749
777.4251, 110.3137
777.9072, 112.0929
778.3893, 113.0377
778.8715, 112.2711
779.3536, 111.2827
779.8357, 111.4085
780.3178, 112.4577
780.7999, 113.1190
781.2820, 112.6593
781.7642, 112.8843
782.2463, 114.7584
782.7284, 116.5203
783.2105, 116.9298
783.6926, 116.3948
784.1747, 115.8904
784.6569, 115.7543
785.1390, 115.6915
785.6211, 115.2463
786.1032, 114.7626
786.5853, 115.2389
787.0674, 116.5139
787.5496, 116.9294
788.0317, 115.6771
788.5138, 113.9842
788.9959, 113.6394
789.4780, 114.7495
789.9601, 115.7051
790.4423, 116.5519
790.9244, 117.1652
791.4065, 117.2540
791.8886, 117.3145
792.3707, 117.9266
792.8528, 118.9484
793.3350, 119.5016
793.8171, 118.9552
794.2992, 118.3342
794.7813, 118.3263
795.2634, 118.6032
795.7455, 118.6982
796.2277, 118.5902
796.7098, 118.5531
797.1919, 118.7664
797.6740, 119.0442
798.1561, 118.9523
798.6382, 118.4666
799.1204, 118.2463
799.6025, 118.3380
800.0846, 118.7027
800.5667, 119.6295
801.0488, 120.6052
801.5309, 120.4946
802.0131, 119.0528
802.4952, 118.2517
802.9773, 118.5230
803.4594, 119.1652
803.9415, 120.1607
804.4236, 121.1985
804.9058, 122.0482
805.3879, 122.5991
805.8700, 122.5958
806.3521, 121.5966
806.8342, 120.3425
807.3163, 119.9300
807.7985, 120.2566
808.2806, 121.0223
808.7627, 122.1825
809.2448, 123.2502
809.7269, 123.8804
810.2090, 124.1731
810.6912, 124.4409
811.1733, 124.7657
811.6554, 124.8651
812.1375, 124.1515
812.6196, 123.9009
813.1017, 125.1671
813.5839, 126.8883
814.0660, 127.5198
814.5481, 126.8207
815.0302, 126.2581
815.5123, 126.7674
815.9944, 127.3516
816.4766, 126.9955
816.9587, 126.2068
817.4408, 126.0544
817.9229, 126.6903
818.4050, 127.2861
818.8871, 127.0848
819.3693, 126.4829
819.8514, 126.6558
820.3335, 127.6472
820.8156, 128.3712
821.2977, 128.6648
821.7798, 128.6483
822.2620, 128.2947
822.7441, 127.7376
823.2262, 127.3734
823.7083, 127.2779
824.1904, 127.1951
824.6725, 127.0341
825.1547, 126.9764
825.6368, 127.2314
826.1189, 127.5750
826.6010, 127.7118
827.0831, 127.5907
827.5652, 127.3770
828.0474, 127.0848
828.5295, 126.8292
829.0116, 126.9447
829.4937, 127.1869
829.9758, 126.6709
830.4579, 125.3076
830.9401, 124.3599
831.4222, 124.8747
831.9043, 126.3238
832.3864, 127.1465
832.8685, 127.2529
833.3506, 127.1238
833.8328, 126.6495
834.3149, 126.2166
834.7971, 126.1508
835.2792, 126.2035
835.7613, 125.7935
836.2434, 124.7138
836.7255, 124.3452
837.2076, 125.8569
837.6898, 127.0595
838.1719, 126.5365
838.6540, 125.3117
839.1361, 124.4706
839.6182, 124.2837
840.1003, 124.8203
840.5825, 126.5466
841.0646, 128.2800
841.5467, 128.1334
842.0288, 126.6501
842.5109, 125.4173
842.9930, 124.6867
843.4752, 124.6212
843.9573, 125.4044
844.4394, 126.5801
844.9215, 127.1350
845.4036, 126.9168
845.8857, 126.8865
846.3679, 127.2961
846.8500, 127.4364
847.3321, 126.5306
847.8142, 125.6009
848.2963, 126.0484
848.7784, 127.7760
849.2606, 128.6351
849.7427, 127.5340
850.2248, 126.3538
850.7069, 125.5367
851.1890, 125.2122
851.6711, 125.7795
852.1533, 126.9556
852.6354, 127.9873
853.1175, 128.5560
853.5996, 128.5387
854.0817, 127.2968
854.5638, 125.4652
855.0460, 124.8772
855.5281, 125.5234
856.0102, 126.2643
856.4923, 126.6658
856.9744, 126.7974
857.4565, 126.7241
857.9387, 126.4516
858.4208, 126.1204
858.9029, 125.5400
859.3850, 125.3754
859.8671, 126.0783
860.3492, 126.8796
860.8314, 127.1933
861.3135, 127.1644
861.7956, 127.2330
862.2777, 127.7196
862.7598, 127.6445
863.2419, 125.7551
863.7241, 124.2075
864.2062, 124.9472
864.6883, 126.8764
865.1704, 128.0963
865.6525, 128.1195
866.1346, 127.6744
866.6168, 126.9975
867.0989, 126.4639
867.5810, 126.9185
868.0631, 128.0364
868.5452, 128.6888
869.0273, 128.6604
869.5095, 128.3382
869.9916, 127.9646
870.4737, 127.6200
870.9558, 127.5416
871.4379, 127.7832
871.9200, 127.9958
872.4022, 128.2159
872.8843, 128.2675
873.3664, 126.2295
873.8485, 127.9480
874.3306, 128.9431
874.8127, 129.2537
875.2949, 126.8293
875.7770, 127.9365
876.2591, 127.6284
876.7412, 127.2623
877.2233, 128.8666
877.7054, 126.8400
878.1876, 128.4130
878.6697, 128.5491
879.1518, 129.3428
879.6339, 128.7126
880.1160, 128.5221
880.5981, 129.7561
881.0803, 130.2014
881.5624, 129.4072
882.0445, 130.2428
882.5266, 128.1665
883.0087, 128.6453
883.4908, 130.2267
883.9730, 129.5041
884.4551, 130.3656
884.9372, 130.6239
885.4193, 128.1401
885.9014, 130.4249
886.3835, 130.0789
886.8657, 130.4200
887.3478, 130.6145
887.8299, 131.1591
888.3120, 132.5833
888.7941, 132.9263
889.2762, 131.1963
889.7584, 129.6003
890.2405, 128.5410
890.7226, 128.1015
891.2047, 128.6183
891.6868, 129.9517
892.1689, 131.0069
892.6511, 131.5672
893.1332, 131.5976
893.6153, 130.3085
894.0974, 129.0422
894.5795, 129.5688
895.0616, 131.4164
895.5438, 132.9765
896.0259, 133.5937
896.5080, 133.5253
896.9901, 132.4561
897.4722, 131.1169
897.9543, 131.5159
898.4365, 133.3583
898.9186, 134.8109
899.4007, 135.3561
899.8828, 135.7112
900.3649, 136.5338
900.8470, 137.6190
901.3292, 138.1147
901.8113, 137.7665
902.2934, 138.1200
902.7755, 139.4796
903.2576, 141.1387
903.7397, 142.9472
904.2219, 144.6916
904.7040, 145.9551
905.1861, 146.6399
905.6682, 147.5538
906.1503, 148.2028
906.6324, 149.7505
907.1146, 153.7014
907.5967, 157.6327
908.0788, 159.0880
908.5609, 158.8648
909.0430, 159.6437
909.5251, 162.4676
910.0073, 165.4797
910.4894, 167.5230
910.9715, 169.3081
911.4536, 171.8316
911.9357, 174.5853
912.4178, 176.0802
912.9000, 176.1939
913.3821, 176.8910
913.8642, 180.0284
914.3463, 184.3040
914.8284, 187.2210
915.3105, 189.0876
915.7927, 191.7188
916.2748, 195.2769
916.7569, 197.4702
917.2390, 196.9488
917.7211, 194.8626
918.2032, 193.0090
918.6854, 191.4014
919.1675, 190.1612
919.6496, 189.8784
920.1317, 188.0485
920.6138, 183.2706
921.0959, 177.8156
921.5781, 173.4339
922.0602, 170.0161
922.5423, 167.0614
923.0244, 164.7218
923.5065, 162.5092
923.9886, 160.2297
924.4708, 158.2717
924.9529, 157.0202
925.4350, 156.0634
925.9171, 154.7966
926.3992, 153.2130
926.8813, 152.0170
927.3635, 152.3154
927.8456, 152.0842
928.3277, 149.2831
928.8098, 145.9731
929.2919, 144.5748
929.7740, 144.7728
930.2562, 145.0913
930.7383, 144.9294
931.2204, 144.2517
931.7025, 142.4458
932.1846, 140.4028
932.6667, 140.1026
933.1489, 141.0839
933.6310, 141.5755
934.1132, 141.1845
934.5953, 140.5323
935.0774, 140.0832
935.5595, 139.6799
936.0416, 138.8458
936.5237, 137.5712
937.0059, 136.8817
937.4880, 136.9137
937.9701, 137.0050
938.4522, 136.9015
938.9343, 136.7236
939.4164, 136.5611
939.8986, 136.4329
940.3807, 136.7155
940.8628, 137.9069
941.3449, 138.5243
941.8270, 138.2453
942.3091, 137.5819
942.7913, 136.3271
943.2734, 135.0727
943.7555, 134.8714
944.2376, 135.9022
944.7197, 136.8828
945.2018, 137.8590
945.6840, 138.4297
946.1661, 138.1070
946.6482, 137.5793
947.1303, 137.4301
947.6124, 137.6422
948.0945, 137.9982
948.5767, 138.4816
949.0588, 138.8105
949.5409, 138.8174
950.0230, 138.5823
950.5051, 137.9907
950.9872, 137.2878
951.4694, 136.8752
951.9515, 136.8436
952.4336, 137.1703
952.9157, 137.9765
953.3978, 138.7316
953.8799, 138.7043
954.3621, 138.0103
954.8442, 136.5091
955.3263, 134.4705
955.8084, 133.7048
956.2905, 134.9320
956.7726, 136.6611
957.2548, 137.2397
957.7369, 136.8734
958.2190, 136.3214
958.7011, 135.5478
959.1832, 135.4737
959.6653, 136.4162
960.1475, 137.0824
960.6296, 136.5783
961.1117, 135.6365
961.5938, 135.6691
962.0759, 136.8274
962.5580, 137.4704
963.0402, 137.3845
963.5223, 137.2213
964.0044, 137.0952
964.4865, 136.9561
964.9686, 136.6401
965.4507, 136.2932
965.9329, 136.4206
966.4150, 137.3490
966.8971, 137.8646
967.3792, 137.6915
967.8613, 137.3314
968.3434, 136.7139
968.8256, 136.1826
969.3077, 135.9259
969.7898, 136.0446
970.2719, 136.9392
970.7540, 139.4826
971.2361, 141.1429
971.7183, 140.1418
972.2004, 138.5670
972.6825, 137.8015
973.1646, 137.7173
973.6467, 138.0632
974.1288, 138.6918
974.6110, 139.1933
975.0931, 139.3241
975.5752, 139.2399
976.0573, 139.1271
976.5394, 138.8672
977.0215, 137.8439
977.5037, 136.5165
977.9858, 136.6047
978.4679, 138.6141
978.9500, 140.5886
979.4321, 140.4792
979.9142, 139.1908
980.3964, 138.3730
980.8785, 137.9491
981.3606, 137.7499
981.8427, 137.7064
982.3248, 137.3951
982.8069, 136.5575
983.2891, 135.8204
983.7712, 136.1689
984.2533, 137.4640
984.7354, 138.9368
985.2175, 140.6227
985.6996, 140.9921
986.1818, 139.5103
986.6639, 138.0499
987.1460, 137.9304
987.6281, 138.7040
988.1102, 139.3532
988.5923, 139.8117
989.0745, 140.8430
989.5566, 143.0339
990.0387, 143.9258
990.5208, 142.0902
991.0029, 140.0867
991.4850, 140.4577
991.9672, 142.4038
992.4493, 142.7624
992.9314, 140.5478
993.4135, 139.0988
993.8956, 138.4462
994.3777, 138.5316
994.8599, 140.1906
995.3420, 141.9204
995.8241, 142.0450
996.3062, 140.8815
996.7883, 140.4010
997.2704, 141.1451
997.7526, 141.8838
998.2347, 142.5053
998.7168, 143.0275
999.1989, 143.4926
999.6810, 143.8471
1000.163, 143.9659
1000.645, 143.8783
1001.127, 143.8611
1001.609, 144.1153
1002.092, 144.2621
1002.574, 144.2787
1003.056, 144.0078
1003.538, 142.8876
1004.020, 141.5830
1004.502, 141.1891
1004.984, 141.8778
1005.466, 142.9830
1005.949, 144.5505
1006.431, 145.8460
1006.913, 146.2615
1007.395, 146.1596
1007.877, 145.8069
1008.359, 145.3362
1008.841, 144.8466
1009.323, 144.4011
1009.805, 144.2858
1010.288, 145.0327
1010.770, 145.8568
1011.252, 145.8340
1011.734, 145.1886
1012.216, 143.9442
1012.698, 142.4548
1013.180, 141.8505
1013.662, 142.5695
1014.145, 143.7152
1014.627, 144.4807
1015.109, 144.9606
1015.591, 145.3056
1016.073, 145.5238
1016.555, 145.4990
1017.037, 145.3055
1017.519, 145.6155
1018.001, 146.7776
1018.484, 147.9916
1018.966, 148.1671
1019.448, 147.5562
1019.930, 146.8536
1020.412, 146.1347
1020.894, 146.3684
1021.376, 147.6928
1021.858, 148.2162
1022.341, 146.7503
1022.823, 144.5908
1023.305, 143.7182
1023.787, 144.0588
1024.269, 145.1040
1024.751, 146.9313
1025.233, 147.9225
1025.715, 147.6641
1026.198, 147.2414
1026.680, 147.3416
1027.162, 147.6969
1027.644, 147.8216
1028.126, 147.7142
1028.608, 147.4402
1029.090, 146.9613
1029.572, 146.4891
1030.054, 146.0251
1030.536, 145.7296
1031.019, 145.7883
1031.501, 145.9720
1031.983, 145.7027
1032.465, 144.8276
1032.947, 144.7711
1033.429, 145.8907
1033.911, 146.9133
1034.393, 147.6568
1034.876, 148.0558
1035.358, 147.8489
1035.840, 147.4152
1036.322, 147.7443
1036.804, 149.1355
1037.286, 149.8244
1037.768, 149.2685
1038.250, 149.0062
1038.733, 149.7666
1039.215, 150.4210
1039.697, 149.9295
1040.179, 148.8001
1040.661, 148.3893
1041.143, 149.0236
1041.625, 149.1606
1042.107, 148.2366
1042.589, 147.5919
1043.072, 147.6047
1043.554, 147.8662
1044.036, 147.9094
1044.518, 148.0258
1045.000, 149.1709
1045.482, 151.9924
1045.964, 153.3181
1046.446, 151.5950
1046.928, 150.1609
1047.411, 150.1891
1047.893, 150.4927
1048.375, 150.1281
1048.857, 149.3650
1049.339, 148.8797
1049.821, 148.7204
1050.303, 148.9112
1050.785, 149.8094
1051.268, 150.5905
1051.750, 150.9585
1052.232, 151.1388
1052.714, 151.2305
1053.196, 151.2955
1053.678, 151.3614
1054.160, 151.3618
1054.642, 151.8601
1055.125, 153.5688
1055.607, 155.0351
1056.089, 155.8189
1056.571, 156.0547
1057.053, 155.3671
1057.535, 154.3723
1058.017, 154.4640
1058.499, 156.0176
1058.981, 157.1790
1059.464, 157.2179
1059.946, 156.9754
1060.428, 156.4922
1060.910, 156.1405
1061.392, 156.4209
1061.874, 157.0030
1062.356, 157.1366
1062.838, 156.6570
1063.320, 156.2806
1063.803, 156.3065
1064.285, 156.4314
1064.767, 156.6706
1065.249, 156.8174
1065.731, 156.6767
1066.213, 156.3180
1066.695, 155.8446
1067.177, 155.2843
1067.660, 154.8522
1068.142, 154.5213
1068.624, 154.4868
1069.106, 155.2342
1069.588, 155.9505
1070.070, 155.9632
1070.552, 155.4349
1071.034, 154.5441
1071.516, 153.4013
1071.999, 152.8402
1072.481, 153.6616
1072.963, 154.5397
1073.445, 155.0617
1073.927, 155.2010
1074.409, 154.4449
1074.891, 153.5228
1075.373, 153.9472
1075.855, 155.7274
1076.338, 156.5950
1076.820, 154.9172
1077.302, 153.3477
1077.784, 153.1885
1078.266, 153.6144
1078.748, 154.3434
1079.230, 155.0358
1079.712, 155.1833
1080.195, 154.8073
1080.677, 154.4850
1081.159, 154.3949
1081.641, 154.4786
1082.123, 154.6358
1082.605, 155.0348
1083.087, 156.1812
1083.569, 157.4070
1084.052, 157.6648
1084.534, 157.0690
1085.016, 156.8098
1085.498, 157.5219
1085.980, 157.9104
1086.462, 157.2494
1086.944, 156.2523
1087.426, 154.8097
1087.908, 153.6956
1088.391, 154.1188
1088.873, 155.7022
1089.355, 156.8458
1089.837, 157.0269
1090.319, 157.0578
1090.801, 157.3968
1091.283, 157.5243
1091.765, 156.8975
1092.248, 156.1181
1092.730, 155.6980
1093.212, 155.6804
1093.694, 156.1494
1094.176, 157.2566
1094.658, 157.7477
1095.140, 156.5473
1095.622, 155.4367
1096.104, 155.0733
1096.587, 155.2697
1097.069, 156.0940
1097.551, 157.2487
1098.033, 158.3603
1098.515, 159.3868
1098.997, 159.5868
1099.479, 157.6604
1099.961, 156.3660
1100.443, 157.3328
1100.926, 158.5432
1101.408, 158.4019
1101.890, 157.6192
1102.372, 157.4709
1102.854, 158.0686
1103.336, 158.5639
1103.818, 158.5324
1104.300, 158.7353
1104.783, 159.8041
1105.265, 160.6217
1105.747, 160.4314
1106.229, 159.7456
1106.711, 159.2269
1107.193, 158.8664
1107.675, 158.2168
1108.157, 156.5318
1108.640, 155.8870
1109.122, 157.2499
1109.604, 158.8160
1110.086, 160.4702
1110.568, 161.5321
1111.050, 160.9348
1111.532, 159.1810
1112.014, 158.2516
1112.496, 158.6466
1112.979, 158.7325
1113.461, 157.6775
1113.943, 157.3679
1114.425, 159.0159
1114.907, 160.7863
1115.389, 161.4368
1115.871, 161.2581
1116.353, 160.7379
1116.835, 159.6536
1117.318, 159.5950
1117.800, 161.4522
1118.282, 162.6748
1118.764, 162.4823
1119.246, 162.2315
1119.728, 162.9843
1120.210, 163.7832
1120.692, 162.8760
1121.175, 160.3245
1121.657, 159.5430
1122.139, 161.4638
1122.621, 162.4960
1123.103, 161.9111
1123.585, 161.5283
1124.067, 162.2359
1124.549, 163.2398
1125.031, 163.7267
1125.514, 163.7165
1125.996, 163.1954
1126.478, 161.9623
1126.960, 161.3489
1127.442, 161.5110
1127.924, 161.7037
1128.406, 161.6418
1128.888, 161.8254
1129.370, 162.7117
1129.853, 164.0023
1130.335, 165.1080
1130.817, 166.0308
1131.299, 166.1264
1131.781, 165.3549
1132.263, 164.4952
1132.745, 163.6531
1133.227, 163.7331
1133.710, 165.3897
1134.192, 167.2000
1134.674, 166.8981
1135.156, 165.1414
1135.638, 164.7361
1136.120, 165.4936
1136.602, 165.7766
1137.084, 165.4956
1137.567, 166.1567
1138.049, 168.3109
1138.531, 169.9417
1139.013, 168.9206
1139.495, 166.6625
1139.977, 165.9376
1140.459, 166.2332
1140.941, 166.0196
1141.423, 165.4191
1141.906, 165.4257
1142.388, 166.1703
1142.870, 166.6009
1143.352, 165.9588
1143.834, 165.4586
1144.316, 167.1335
1144.798, 169.4175
1145.280, 169.8593
1145.762, 169.0948
1146.245, 168.2676
1146.727, 167.6707
1147.209, 167.4650
1147.691, 167.7096
1148.173, 168.1280
1148.655, 168.6983
1149.137, 169.1468
1149.619, 169.0872
1150.102, 168.8908
1150.584, 168.8379
1151.066, 169.0505
1151.548, 169.9106
1152.030, 171.3311
1152.512, 172.1499
1152.994, 171.6285
1153.476, 170.8800
1153.958, 170.2019
1154.441, 169.7475
1154.923, 169.6813
1155.405, 169.8503
1155.887, 170.2060
1156.369, 170.6229
1156.851, 170.7043
1157.333, 170.2426
1157.815, 169.9743
1158.297, 170.0436
1158.780, 170.3487
1159.262, 171.3027
1159.744, 172.0405
1160.226, 171.8595
1160.708, 171.0710
1161.190, 170.0234
1161.672, 168.6497
1162.154, 168.4945
1162.637, 170.4764
1163.119, 171.9647
1163.601, 172.7649
1164.083, 173.0406
1164.565, 172.6044
1165.047, 172.0200
1165.529, 171.7801
1166.011, 171.9332
1166.494, 172.9013
1166.976, 175.1954
1167.458, 175.4214
1167.940, 172.9442
1168.422, 171.7144
1168.904, 172.9096
1169.386, 174.2278
1169.868, 174.0926
1170.350, 173.4198
1170.833, 173.8287
1171.315, 175.0309
1171.797, 175.1308
1172.279, 174.2724
1172.761, 174.2884
1173.243, 175.2891
1173.725, 175.6308
1174.207, 174.7043
1174.689, 173.8371
1175.172, 174.2776
1175.654, 175.3588
1176.136, 175.9988
1176.618, 176.3747
1177.100, 176.9292
1177.582, 177.5638
1178.064, 178.0054
1178.546, 178.1714
1179.029, 177.9975
1179.511, 177.4413
1179.993, 176.7255
1180.475, 175.5517
1180.957, 174.8127
1181.439, 176.0791
1181.921, 177.7746
1182.403, 177.6136
1182.885, 176.3155
1183.368, 175.9034
1183.850, 176.7274
1184.332, 177.3351
1184.814, 177.0404
1185.296, 176.5888
1185.778, 175.8391
1186.260, 175.5338
1186.742, 176.6048
1187.225, 177.9768
1187.707, 178.3579
1188.189, 178.0043
1188.671, 178.1775
1189.153, 179.3505
1189.635, 179.6702
1190.117, 177.6484
1190.599, 176.9005
1191.082, 179.1658
1191.564, 181.0925
1192.046, 180.6083
1192.528, 179.1269
1193.010, 178.5309
1193.492, 178.7252
1193.974, 178.9165
1194.456, 179.1233
1194.938, 179.1471
1195.421, 178.8603
1195.903, 179.2534
1196.385, 180.7737
1196.867, 181.8629
1197.349, 181.2601
1197.831, 179.9614
1198.313, 179.8244
1198.795, 180.5837
1199.277, 181.0511
1199.760, 181.2388
1200.242, 181.0712
1200.724, 180.6344
1201.206, 180.5100
1201.688, 180.8877
1202.170, 181.2141
1202.652, 180.9427
1203.134, 180.6339
1203.617, 181.0903
1204.099, 181.8817
1204.581, 182.5327
1205.063, 182.9758
1205.545, 183.1314
1206.027, 183.0335
1206.509, 182.7750
1206.991, 182.3643
1207.474, 182.1201
1207.956, 182.2708
1208.438, 182.5546
1208.920, 182.7826
1209.402, 183.1448
1209.884, 184.2930
1210.366, 185.3932
1210.848, 184.8604
1211.330, 182.8244
1211.813, 181.5943
1212.295, 181.5452
1212.777, 182.0626
1213.259, 183.6704
1213.741, 184.9581
1214.223, 185.6814
1214.705, 185.7813
1215.187, 184.9988
1215.669, 183.8343
1216.152, 183.1758
1216.634, 183.0134
1217.116, 183.3243
1217.598, 184.1771
1218.080, 184.4564
1218.562, 183.9936
1219.044, 184.5860
1219.526, 186.9158
1220.009, 188.5352
1220.491, 187.3373
1220.973, 184.9129
1221.455, 183.7062
1221.937, 183.5526
1222.419, 184.3491
1222.901, 185.7497
1223.383, 187.0117
1223.865, 187.9573
1224.348, 188.4913
1224.830, 188.5842
1225.312, 188.2411
1225.794, 187.0416
1226.276, 186.2087
1226.758, 186.9878
1227.240, 188.2241
1227.722, 189.0759
1228.204, 189.6185
1228.687, 190.1355
1229.169, 190.5094
1229.651, 190.1528
1230.133, 188.7392
1230.615, 187.9120
1231.097, 188.3807
1231.579, 188.8418
1232.061, 189.3590
1232.544, 189.3745
1233.026, 188.0093
1233.508, 186.7741
1233.990, 187.5926
1234.472, 189.8715
1234.954, 191.0991
1235.436, 191.1294
1235.918, 191.1649
1236.401, 191.2536
1236.883, 190.6952
1237.365, 189.3076
1237.847, 188.2182
1238.329, 188.0207
1238.811, 188.4565
1239.293, 189.3517
1239.775, 190.4566
1240.257, 191.5423
1240.740, 192.3097
1241.222, 191.7789
1241.704, 190.3862
1242.186, 189.1559
1242.668, 188.4359
1243.150, 188.6378
1243.632, 190.0129
1244.114, 191.3224
1244.596, 191.9647
1245.079, 191.9994
1245.561, 190.6033
1246.043, 189.4709
1246.525, 190.4892
1247.007, 192.4516
1247.489, 193.5609
1247.971, 193.7384
1248.453, 193.6457
1248.936, 192.9724
1249.418, 193.0197
1249.900, 194.7137
1250.382, 195.2544
1250.864, 193.4392
1251.346, 191.7805
1251.828, 191.7594
1252.310, 192.4656
1252.792, 192.7553
1253.275, 192.6759
1253.757, 192.3344
1254.239, 191.7688
1254.721, 191.2996
1255.203, 191.0197
1255.685, 191.7855
1256.167, 193.6097
1256.649, 195.0347
1257.131, 195.3095
1257.614, 194.9727
1258.096, 194.2004
1258.578, 193.5542
1259.060, 193.7932
1259.542, 194.4522
1260.024, 195.2327
1260.506, 195.8521
1260.988, 195.7319
1261.471, 195.0467
1261.953, 194.7734
1262.435, 195.2228
1262.917, 195.8318
1263.399, 196.9258
1263.881, 197.4890
1264.363, 196.4815
1264.845, 195.8479
1265.328, 197.1721
1265.810, 198.6248
1266.292, 197.8680
1266.774, 195.6281
1267.256, 194.8544
1267.738, 195.6772
1268.220, 196.7465
1268.702, 198.0762
1269.184, 199.0272
1269.667, 199.4918
1270.149, 199.9765
1270.631, 200.7122
1271.113, 201.2822
1271.595, 201.3840
1272.077, 200.8601
1272.559, 198.5566
1273.041, 196.1994
1273.523, 196.8480
1274.006, 199.1335
1274.488, 200.7997
1274.970, 201.5208
1275.452, 201.4541
1275.934, 200.6438
1276.416, 200.2365
1276.898, 201.0506
1277.380, 201.7329
1277.863, 201.8994
1278.345, 201.8809
1278.827, 202.1030
1279.309, 201.8802
1279.791, 200.1000
1280.273, 197.8971
1280.755, 197.9761
1281.237, 200.3016
1281.719, 201.6894
1282.202, 202.0406
1282.684, 202.9825
1283.166, 204.6682
1283.648, 205.8014
1284.130, 205.9679
1284.612, 205.1926
1285.094, 203.2585
1285.576, 202.5462
1286.059, 207.5082
1286.541, 214.1617
1287.023, 218.1084
1287.505, 219.3071
##END=



