##NAMES=Andalusite
##RRUFFID=R060212
##IDEAL CHEMISTRY=Al_2_SiO_5_
##LOCALITY=Brazil
##OWNER=RRUFF
##SOURCE=Marcus Origlieri
##DESCRIPTION=Transparent yellow-green water-worn pebble
##STATUS=The identification of this mineral is confirmed by single-crystal X-ray diffraction and chemical analysis.
##URL=rruff.info/R060212
##MEASURED CHEMISTRY=(Al_1.98_Fe^3+^_0.02_)_Î£=2_Si_1.00_O_5_
91.62726, 0.0000000E+00
92.10938, 5.141037
92.59149, 5.043173
93.07361, 5.114234
93.55573, 5.336267
94.03784, 5.480008
94.51996, 5.219881
95.00208, 4.685985
95.48419, 4.340869
95.96631, 4.419500
96.44843, 4.769140
96.93054, 4.948874
97.41266, 4.939263
97.89478, 4.855258
98.37689, 4.830012
98.85901, 4.864736
99.34113, 4.894880
99.82324, 4.905433
100.3054, 4.896350
100.7875, 4.824008
101.2696, 4.655078
101.7517, 4.465949
102.2338, 4.434096
102.7159, 4.638878
103.1981, 4.773625
103.6802, 4.629999
104.1623, 4.029668
104.6444, 3.741300
105.1265, 3.891793
105.6086, 4.363398
106.0908, 4.722221
106.5729, 4.939250
107.0550, 5.073218
107.5371, 5.152379
108.0192, 5.135896
108.5013, 5.125247
108.9835, 5.100321
109.4656, 5.064707
109.9477, 5.130236
110.4298, 5.406753
110.9119, 5.724156
111.3940, 5.972229
111.8762, 6.056273
112.3583, 6.160962
112.8404, 6.321100
113.3225, 6.541289
113.8046, 6.773417
114.2867, 6.945440
114.7689, 7.150389
115.2510, 7.486666
115.7331, 8.138848
116.2152, 8.792827
116.6973, 9.333391
117.1794, 9.742661
117.6616, 10.06796
118.1437, 10.31259
118.6258, 10.48755
119.1079, 10.60312
119.5900, 10.42034
120.0721, 10.33249
120.5543, 10.67089
121.0364, 11.66417
121.5185, 12.64344
122.0006, 13.13180
122.4827, 13.26348
122.9648, 13.43196
123.4470, 13.98119
123.9291, 14.64329
124.4112, 15.07023
124.8933, 15.00755
125.3754, 14.95083
125.8575, 15.45761
126.3397, 16.46287
126.8218, 17.57170
127.3039, 18.50440
127.7860, 19.32357
128.2681, 20.16347
128.7502, 21.16188
129.2324, 22.13109
129.7145, 22.72820
130.1966, 22.95693
130.6787, 22.96734
131.1608, 22.72113
131.6429, 22.30668
132.1251, 22.16251
132.6072, 22.61691
133.0893, 23.44576
133.5714, 23.83010
134.0535, 23.70144
134.5356, 23.44276
135.0178, 23.49968
135.4999, 23.87672
135.9820, 24.40884
136.4641, 25.11868
136.9462, 25.99961
137.4283, 26.65659
137.9105, 27.01678
138.3926, 27.29252
138.8747, 27.93821
139.3568, 29.11330
139.8389, 30.02466
140.3210, 30.21770
140.8032, 29.50949
141.2853, 29.06926
141.7674, 28.97661
142.2495, 29.11596
142.7316, 29.17665
143.2137, 28.97092
143.6959, 28.71286
144.1780, 28.67444
144.6601, 28.86218
145.1422, 29.24530
145.6243, 29.95652
146.1064, 30.85995
146.5886, 31.45374
147.0707, 31.60986
147.5528, 31.61260
148.0349, 31.61209
148.5170, 31.65724
148.9991, 31.62280
149.4813, 31.44417
149.9634, 31.14529
150.4455, 30.96733
150.9276, 30.94159
151.4097, 31.00913
151.8918, 31.13226
152.3740, 31.32488
152.8561, 31.55484
153.3382, 31.87606
153.8203, 32.28216
154.3024, 32.54217
154.7845, 32.65240
155.2667, 32.60572
155.7488, 32.39628
156.2309, 31.77558
156.7130, 31.24385
157.1951, 30.90212
157.6772, 30.75561
158.1594, 30.73873
158.6415, 30.92117
159.1236, 31.19361
159.6057, 31.45031
160.0878, 31.70509
160.5699, 31.90162
161.0521, 32.00247
161.5342, 31.99427
162.0163, 31.98944
162.4984, 32.07566
162.9805, 32.17592
163.4626, 32.19278
163.9448, 31.94722
164.4269, 31.71972
164.9090, 31.69797
165.3911, 31.94334
165.8732, 32.14187
166.3553, 32.02909
166.8375, 31.77721
167.3196, 31.67076
167.8017, 32.02440
168.2838, 32.45185
168.7659, 32.64871
169.2480, 32.52966
169.7302, 32.37687
170.2123, 32.39402
170.6944, 32.51995
171.1765, 32.61727
171.6586, 32.53340
172.1407, 32.42521
172.6229, 32.50268
173.1050, 32.88736
173.5871, 33.19123
174.0692, 32.96421
174.5513, 32.35236
175.0334, 31.78940
175.5156, 31.54795
175.9977, 31.50381
176.4798, 31.50110
176.9619, 31.53351
177.4440, 31.55528
177.9261, 31.47243
178.4083, 31.31580
178.8904, 31.22111
179.3725, 31.41214
179.8546, 31.71379
180.3367, 31.74489
180.8188, 31.32500
181.3010, 30.80329
181.7831, 30.71330
182.2652, 31.00824
182.7473, 31.31507
183.2294, 31.21785
183.7115, 30.90518
184.1937, 30.92142
184.6758, 31.44155
185.1579, 32.25624
185.6400, 33.14901
186.1221, 34.10278
186.6042, 34.87549
187.0864, 34.96461
187.5685, 34.60124
188.0506, 34.89946
188.5327, 36.44274
189.0148, 38.47919
189.4969, 39.34868
189.9791, 39.01413
190.4612, 38.23310
190.9433, 37.56011
191.4254, 36.98258
191.9075, 36.33046
192.3896, 35.54227
192.8718, 34.67366
193.3539, 33.82694
193.8360, 32.98205
194.3181, 32.25254
194.8002, 31.77043
195.2823, 31.52665
195.7645, 31.33301
196.2466, 31.15921
196.7287, 30.99915
197.2108, 30.81442
197.6929, 30.59207
198.1750, 30.40108
198.6572, 30.35427
199.1393, 30.46378
199.6214, 30.44801
200.1035, 30.17177
200.5856, 29.70651
201.0677, 29.49758
201.5499, 29.57891
202.0320, 29.79683
202.5141, 30.02031
202.9962, 30.25109
203.4783, 30.48857
203.9604, 30.79065
204.4426, 31.12078
204.9247, 31.13408
205.4068, 30.77625
205.8889, 30.24282
206.3710, 29.66663
206.8531, 29.00455
207.3353, 28.52762
207.8174, 28.34092
208.2995, 28.42095
208.7816, 28.44755
209.2637, 28.39872
209.7458, 28.33876
210.2280, 28.35846
210.7101, 28.50536
211.1922, 28.55328
211.6743, 28.42999
212.1564, 28.14243
212.6385, 27.84473
213.1207, 27.49213
213.6028, 27.20547
214.0849, 27.12929
214.5670, 27.31903
215.0491, 27.55413
215.5313, 27.80899
216.0134, 28.08386
216.4955, 28.29149
216.9776, 28.43805
217.4597, 28.51201
217.9418, 28.47502
218.4240, 28.25223
218.9061, 28.11450
219.3882, 28.12896
219.8703, 28.29585
220.3524, 28.49740
220.8345, 28.72802
221.3167, 28.99697
221.7988, 29.35805
222.2809, 29.94130
222.7630, 30.28968
223.2451, 30.18634
223.7272, 29.61929
224.2094, 29.50935
224.6915, 30.11371
225.1736, 30.88514
225.6557, 31.21269
226.1378, 30.77605
226.6199, 30.60945
227.1021, 31.03720
227.5842, 32.06746
228.0663, 32.66414
228.5484, 32.63994
229.0305, 32.39246
229.5126, 32.26670
229.9948, 32.22892
230.4769, 32.38815
230.9590, 32.83556
231.4411, 33.56852
231.9232, 34.13316
232.4053, 34.40259
232.8875, 34.64629
233.3696, 35.10625
233.8517, 35.85695
234.3338, 36.67523
234.8159, 37.50142
235.2980, 38.34593
235.7802, 39.38524
236.2623, 40.77086
236.7444, 42.18779
237.2265, 43.34827
237.7086, 44.04394
238.1907, 44.90680
238.6729, 46.16441
239.1550, 47.77047
239.6371, 48.91587
240.1192, 49.52244
240.6013, 49.75817
241.0834, 49.72337
241.5656, 49.33163
242.0477, 48.84063
242.5298, 48.27650
243.0119, 47.63805
243.4940, 46.90972
243.9761, 46.04980
244.4583, 45.14840
244.9404, 44.26828
245.4225, 43.41576
245.9046, 42.56612
246.3867, 41.70000
246.8688, 40.82621
247.3510, 39.97889
247.8331, 39.02601
248.3152, 38.26873
248.7973, 37.93494
249.2794, 38.24459
249.7615, 38.52035
250.2437, 38.73491
250.7258, 38.87783
251.2079, 38.87459
251.6900, 38.63776
252.1721, 38.37965
252.6542, 38.22398
253.1364, 38.20985
253.6185, 38.21299
254.1006, 38.24300
254.5827, 38.28393
255.0648, 38.25438
255.5469, 38.05400
256.0291, 37.94492
256.5112, 38.09304
256.9933, 38.64152
257.4754, 39.07475
257.9575, 39.29331
258.4396, 39.41300
258.9218, 39.78517
259.4039, 40.56445
259.8860, 41.31969
260.3681, 41.83200
260.8502, 41.98617
261.3323, 42.25067
261.8145, 42.69047
262.2966, 43.20537
262.7787, 43.52054
263.2608, 43.43153
263.7429, 43.58020
264.2250, 44.34166
264.7072, 45.94987
265.1893, 47.15334
265.6714, 47.77059
266.1535, 48.12501
266.6356, 48.80243
267.1177, 49.89934
267.5999, 51.07288
268.0820, 52.07731
268.5641, 52.80396
269.0462, 54.34158
269.5283, 57.03103
270.0104, 60.13544
270.4926, 62.43215
270.9747, 63.53736
271.4568, 65.28222
271.9389, 68.41796
272.4210, 73.01865
272.9031, 77.32533
273.3853, 81.23564
273.8674, 85.04456
274.3495, 88.99857
274.8316, 93.13204
275.3137, 97.34943
275.7958, 101.8609
276.2780, 106.5655
276.7601, 110.2995
277.2422, 112.9154
277.7243, 114.9352
278.2064, 116.6773
278.6885, 118.0490
279.1707, 119.9599
279.6528, 122.7061
280.1349, 126.1617
280.6170, 129.6052
281.0991, 132.9455
281.5812, 136.6612
282.0634, 141.1205
282.5455, 146.3872
283.0276, 152.0841
283.5097, 158.0837
283.9918, 164.5067
284.4739, 171.7462
284.9561, 179.8250
285.4382, 188.5601
285.9203, 197.8440
286.4024, 207.6052
286.8845, 218.0869
287.3666, 229.2754
287.8488, 241.0755
288.3309, 253.6548
288.8130, 267.0483
289.2951, 279.6482
289.7772, 291.1657
290.2593, 301.2072
290.7415, 308.3942
291.2236, 312.8779
291.7057, 313.6201
292.1878, 308.4291
292.6699, 297.5012
293.1520, 283.1174
293.6342, 265.7289
294.1163, 245.7926
294.5984, 224.8905
295.0805, 202.5311
295.5626, 180.9323
296.0447, 162.2742
296.5269, 146.4334
297.0090, 132.7688
297.4911, 121.5894
297.9732, 112.3365
298.4553, 104.1478
298.9374, 97.04601
299.4196, 90.86372
299.9017, 85.58859
300.3838, 81.17595
300.8659, 77.57065
301.3480, 74.87171
301.8301, 72.94289
302.3123, 71.72292
302.7944, 71.18766
303.2765, 70.97449
303.7586, 70.87588
304.2407, 70.87640
304.7228, 70.94588
305.2050, 71.06992
305.6871, 71.26615
306.1692, 71.54319
306.6513, 71.90545
307.1334, 72.35711
307.6155, 72.92342
308.0977, 73.57874
308.5798, 74.28034
309.0619, 74.99145
309.5440, 75.80964
310.0261, 76.68143
310.5082, 77.69738
310.9904, 79.12712
311.4725, 81.41938
311.9546, 84.04287
312.4367, 86.44919
312.9188, 88.37205
313.4009, 90.62006
313.8831, 93.41990
314.3652, 96.87731
314.8473, 101.2251
315.3294, 106.7839
315.8115, 113.1501
316.2936, 120.1947
316.7758, 127.9613
317.2579, 135.9720
317.7400, 144.6153
318.2221, 153.2564
318.7042, 161.2667
319.1863, 169.2839
319.6685, 175.8764
320.1506, 180.9452
320.6327, 184.4907
321.1148, 184.9171
321.5969, 180.9083
322.0790, 174.0265
322.5612, 165.4795
323.0433, 153.7815
323.5254, 142.3159
324.0075, 131.7863
324.4896, 122.1055
324.9717, 112.9251
325.4539, 103.5151
325.9360, 94.92715
326.4181, 87.84895
326.9002, 82.93889
327.3823, 78.68344
327.8644, 74.98760
328.3466, 71.88076
328.8287, 69.45858
329.3108, 68.29873
329.7929, 67.30112
330.2750, 66.07809
330.7571, 64.36459
331.2393, 62.99245
331.7214, 62.03682
332.2035, 61.39180
332.6856, 60.89083
333.1677, 60.44994
333.6498, 60.27338
334.1320, 60.51593
334.6141, 61.26254
335.0962, 61.71348
335.5783, 61.78286
336.0604, 61.64568
336.5425, 61.40488
337.0247, 60.84585
337.5068, 60.74327
337.9889, 61.34446
338.4710, 62.56829
338.9531, 63.69216
339.4352, 64.63249
339.9174, 65.68296
340.3995, 67.12460
340.8816, 69.05321
341.3637, 70.82888
341.8458, 72.35263
342.3279, 73.70985
342.8101, 75.21523
343.2922, 76.87108
343.7743, 78.57677
344.2564, 80.24180
344.7385, 81.88501
345.2206, 83.55592
345.7028, 85.23520
346.1849, 87.04379
346.6670, 89.17972
347.1491, 91.63593
347.6312, 94.29543
348.1133, 97.12354
348.5955, 100.1289
349.0776, 103.2903
349.5597, 106.6114
350.0418, 110.3541
350.5239, 114.8021
351.0060, 119.9006
351.4882, 125.2968
351.9703, 130.8443
352.4524, 136.6675
352.9345, 142.7772
353.4166, 149.1961
353.8987, 156.1592
354.3809, 164.3055
354.8630, 172.9460
355.3451, 180.9514
355.8272, 188.2434
356.3093, 194.5204
356.7914, 199.6745
357.2736, 203.6505
357.7557, 206.1552
358.2378, 207.5905
358.7199, 207.1410
359.2020, 203.8607
359.6841, 197.4176
360.1663, 189.4842
360.6484, 180.3620
361.1305, 170.4819
361.6126, 160.4492
362.0947, 150.0045
362.5768, 139.8857
363.0590, 130.2550
363.5411, 121.1278
364.0232, 112.6755
364.5053, 104.7541
364.9874, 97.63779
365.4695, 91.53948
365.9517, 87.11649
366.4338, 83.03625
366.9159, 78.95390
367.3980, 74.96612
367.8801, 71.44917
368.3622, 68.47712
368.8444, 66.00278
369.3265, 64.07602
369.8086, 63.20360
370.2907, 61.94563
370.7728, 59.98648
371.2549, 57.74276
371.7371, 55.90755
372.2192, 54.66609
372.7013, 53.57409
373.1834, 52.52649
373.6655, 51.50779
374.1476, 50.65590
374.6298, 50.10561
375.1119, 49.58197
375.5940, 48.75090
376.0761, 47.41744
376.5582, 46.44781
377.0403, 46.08405
377.5225, 46.18340
378.0046, 46.09749
378.4867, 45.79546
378.9688, 45.43152
379.4509, 45.06862
379.9330, 44.70759
380.4152, 44.48047
380.8973, 44.43827
381.3794, 44.45416
381.8615, 44.25432
382.3436, 43.84423
382.8257, 43.55608
383.3079, 43.63313
383.7900, 43.95255
384.2721, 44.10188
384.7542, 44.07335
385.2363, 43.94303
385.7184, 43.72733
386.2006, 43.46565
386.6827, 43.23609
387.1648, 42.95893
387.6469, 42.83907
388.1290, 43.28678
388.6111, 44.20585
389.0933, 45.05352
389.5754, 45.40514
390.0575, 45.52439
390.5396, 45.75335
391.0217, 46.20892
391.5038, 46.60887
391.9860, 46.86739
392.4681, 46.92356
392.9502, 46.66533
393.4323, 45.93556
393.9144, 44.95610
394.3965, 43.77416
394.8787, 42.37701
395.3608, 41.09969
395.8429, 39.96867
396.3250, 39.04425
396.8071, 38.37459
397.2892, 38.18192
397.7714, 38.01466
398.2535, 37.84379
398.7356, 37.64275
399.2177, 37.28842
399.6998, 36.23949
400.1819, 35.46947
400.6641, 35.46883
401.1462, 36.86723
401.6283, 37.73069
402.1104, 37.80003
402.5925, 37.45262
403.0746, 37.24038
403.5568, 37.13236
404.0389, 37.22660
404.5210, 37.64240
405.0031, 38.38045
405.4852, 38.78538
405.9673, 38.75245
406.4495, 38.58311
406.9316, 38.53338
407.4137, 38.62011
407.8958, 38.68678
408.3779, 38.69572
408.8600, 38.68787
409.3422, 38.81891
409.8243, 39.10378
410.3064, 39.27880
410.7885, 39.12006
411.2706, 38.70474
411.7527, 38.35802
412.2349, 38.06649
412.7170, 37.98263
413.1991, 38.44925
413.6812, 39.30762
414.1633, 40.02394
414.6454, 40.42908
415.1276, 40.57053
415.6097, 40.32950
416.0918, 39.77637
416.5739, 39.41095
417.0560, 39.81771
417.5381, 40.50434
418.0203, 40.90234
418.5024, 40.87987
418.9845, 40.60532
419.4666, 40.02738
419.9487, 39.28183
420.4308, 38.63757
420.9130, 38.37349
421.3951, 38.08485
421.8772, 37.47519
422.3593, 36.50250
422.8414, 35.74226
423.3235, 35.52351
423.8057, 35.49259
424.2878, 35.36952
424.7699, 34.97343
425.2520, 34.64739
425.7341, 34.48902
426.2162, 34.44497
426.6984, 34.30588
427.1805, 33.93671
427.6626, 33.63048
428.1447, 33.52466
428.6268, 33.71017
429.1089, 33.75576
429.5911, 33.59541
430.0732, 33.36435
430.5553, 33.23176
431.0374, 33.21974
431.5195, 33.21270
432.0016, 33.16156
432.4838, 33.09691
432.9659, 33.17766
433.4480, 33.41855
433.9301, 33.71088
434.4122, 34.01333
434.8943, 34.31413
435.3765, 34.51023
435.8586, 34.57034
436.3407, 34.59198
436.8228, 34.72044
437.3049, 34.93363
437.7870, 35.13259
438.2692, 35.21370
438.7513, 35.28343
439.2334, 35.54820
439.7155, 35.99409
440.1976, 36.38037
440.6797, 36.42069
441.1619, 36.34460
441.6440, 36.44971
442.1261, 36.91323
442.6082, 37.37254
443.0903, 37.55420
443.5724, 37.57734
444.0546, 37.69908
444.5367, 38.02607
445.0188, 38.46500
445.5009, 38.94574
445.9830, 39.43805
446.4651, 40.14661
446.9473, 41.29950
447.4294, 42.58706
447.9115, 43.73524
448.3936, 44.60556
448.8757, 45.50032
449.3578, 46.51671
449.8400, 47.56720
450.3221, 48.42115
450.8042, 49.07713
451.2863, 49.54808
451.7684, 49.96759
452.2505, 50.47963
452.7327, 49.93760
453.2148, 48.10955
453.6969, 45.65200
454.1790, 43.23397
454.6611, 40.80771
455.1432, 38.82735
455.6254, 37.44075
456.1075, 36.55013
456.5896, 36.04549
457.0717, 35.91508
457.5538, 35.84970
458.0359, 35.68174
458.5181, 35.42343
459.0002, 35.01173
459.4823, 34.39828
459.9644, 33.95824
460.4465, 34.26585
460.9286, 35.00129
461.4108, 35.54938
461.8929, 35.51129
462.3750, 35.33789
462.8571, 35.39373
463.3392, 35.62214
463.8214, 35.75525
464.3035, 35.47085
464.7856, 35.18158
465.2677, 35.18286
465.7498, 35.60434
466.2319, 36.07583
466.7141, 36.57693
467.1962, 37.05399
467.6783, 37.44436
468.1604, 37.78319
468.6425, 37.97631
469.1246, 37.90942
469.6068, 37.62003
470.0889, 37.58152
470.5710, 37.96034
471.0531, 38.36214
471.5352, 38.51955
472.0173, 38.27434
472.4995, 38.41691
472.9816, 39.10801
473.4637, 39.98063
473.9458, 40.43052
474.4279, 40.43634
474.9100, 40.39830
475.3922, 40.39067
475.8743, 40.45288
476.3564, 40.77970
476.8385, 41.36799
477.3206, 41.91292
477.8027, 42.08076
478.2849, 42.04875
478.7670, 42.20807
479.2491, 42.64317
479.7312, 43.12699
480.2133, 43.46000
480.6954, 43.68490
481.1776, 43.88249
481.6597, 44.07357
482.1418, 44.25594
482.6239, 44.54128
483.1060, 44.87574
483.5881, 44.89377
484.0703, 44.19470
484.5524, 43.31861
485.0345, 42.58832
485.5166, 42.10173
485.9987, 41.65859
486.4808, 41.37046
486.9630, 41.07001
487.4451, 40.52479
487.9272, 39.49024
488.4093, 38.55001
488.8914, 37.75578
489.3735, 37.11740
489.8557, 36.82513
490.3378, 37.05429
490.8199, 37.22737
491.3020, 36.91305
491.7841, 36.05115
492.2662, 35.50930
492.7484, 35.38167
493.2305, 35.40911
493.7126, 35.19905
494.1947, 34.79324
494.6768, 34.55146
495.1589, 34.72607
495.6411, 35.00722
496.1232, 34.73500
496.6053, 33.99219
497.0874, 33.35565
497.5695, 33.25845
498.0516, 33.42865
498.5338, 33.57063
499.0159, 33.64838
499.4980, 33.69220
499.9801, 33.62606
500.4622, 33.57030
500.9443, 33.66731
501.4265, 34.20945
501.9086, 34.64635
502.3907, 34.75883
502.8728, 34.61786
503.3549, 34.52622
503.8370, 34.52643
504.3192, 34.58223
504.8013, 34.69783
505.2834, 34.90291
505.7655, 35.04031
506.2476, 35.11315
506.7297, 35.11544
507.2119, 34.99137
507.6940, 34.65937
508.1761, 34.56527
508.6582, 34.84932
509.1403, 35.33254
509.6224, 35.54972
510.1046, 35.49278
510.5867, 35.47937
511.0688, 35.78978
511.5509, 36.26398
512.0330, 36.37330
512.5151, 36.10974
512.9973, 35.77689
513.4794, 35.60889
513.9615, 35.54738
514.4436, 35.51233
514.9257, 35.51242
515.4078, 35.47292
515.8900, 35.25728
516.3721, 34.97055
516.8542, 34.81257
517.3363, 35.02184
517.8184, 35.22125
518.3005, 35.19615
518.7827, 34.94882
519.2648, 34.83095
519.7469, 35.13048
520.2290, 35.40039
520.7111, 35.37683
521.1932, 34.83411
521.6754, 34.46587
522.1575, 34.30998
522.6396, 34.29327
523.1217, 34.32136
523.6038, 34.40023
524.0859, 34.50344
524.5681, 34.63457
525.0502, 34.77975
525.5323, 34.87011
526.0144, 34.90029
526.4965, 34.97933
526.9786, 35.25613
527.4608, 35.63729
527.9429, 35.81576
528.4250, 35.76347
528.9071, 35.65786
529.3892, 35.61452
529.8713, 35.64128
530.3535, 35.76566
530.8356, 36.09551
531.3177, 36.38012
531.7998, 36.26445
532.2819, 35.97024
532.7640, 36.03158
533.2462, 37.11292
533.7283, 38.15054
534.2104, 38.65477
534.6925, 38.54247
535.1746, 38.49428
535.6567, 38.45523
536.1389, 38.58774
536.6210, 39.01521
537.1031, 39.94976
537.5852, 40.69596
538.0673, 41.15145
538.5494, 41.50621
539.0316, 42.12377
539.5137, 43.06800
539.9958, 43.85854
540.4779, 44.26287
540.9600, 44.46406
541.4421, 45.00449
541.9243, 45.87415
542.4064, 46.93306
542.8885, 48.14867
543.3706, 49.46373
543.8527, 50.81030
544.3348, 52.19237
544.8170, 53.48009
545.2991, 54.38022
545.7812, 55.18882
546.2633, 56.31306
546.7454, 58.23821
547.2275, 59.99410
547.7097, 61.17801
548.1918, 61.90190
548.6739, 62.41044
549.1560, 62.66985
549.6381, 62.81305
550.1202, 62.88237
550.6024, 62.88219
551.0845, 62.77598
551.5666, 62.70826
552.0487, 62.33796
552.5308, 61.38557
553.0129, 59.73615
553.4951, 58.12302
553.9772, 56.60228
554.4593, 55.06366
554.9414, 53.22687
555.4235, 51.13968
555.9056, 49.39106
556.3878, 48.30275
556.8699, 47.49211
557.3520, 46.25277
557.8341, 44.70539
558.3162, 43.39697
558.7983, 42.74650
559.2805, 42.42490
559.7626, 42.17083
560.2447, 41.96692
560.7268, 41.74823
561.2089, 41.38769
561.6910, 41.05436
562.1732, 40.89212
562.6553, 41.08868
563.1374, 41.20597
563.6195, 41.05902
564.1016, 40.84370
564.5837, 40.87514
565.0659, 41.38977
565.5480, 41.69846
566.0301, 41.54201
566.5122, 41.06319
566.9943, 41.03103
567.4764, 41.52591
567.9586, 42.08051
568.4407, 42.40856
568.9228, 42.55096
569.4049, 42.73914
569.8870, 42.97585
570.3691, 43.25502
570.8513, 43.69931
571.3334, 44.16114
571.8155, 44.31423
572.2976, 44.01007
572.7797, 43.57518
573.2618, 43.23829
573.7440, 42.94410
574.2261, 42.58527
574.7082, 42.08423
575.1903, 41.55053
575.6724, 41.06093
576.1545, 40.60196
576.6367, 40.03202
577.1188, 39.04265
577.6009, 38.24899
578.0830, 37.94704
578.5651, 38.26836
579.0472, 38.40123
579.5294, 38.29961
580.0115, 38.09408
580.4936, 37.90577
580.9757, 37.73417
581.4578, 37.51100
581.9399, 37.19548
582.4221, 36.89863
582.9042, 36.87054
583.3863, 37.03396
583.8684, 37.06859
584.3505, 36.64592
584.8326, 36.17432
585.3148, 36.18043
585.7969, 36.56140
586.2790, 36.84586
586.7611, 36.60583
587.2432, 36.32223
587.7253, 36.38280
588.2075, 36.91385
588.6896, 37.20918
589.1717, 36.78496
589.6538, 36.29959
590.1359, 36.27507
590.6180, 37.13559
591.1002, 37.61866
591.5823, 37.52150
592.0644, 37.16819
592.5465, 37.12668
593.0286, 37.44690
593.5107, 37.69884
593.9929, 37.73738
594.4750, 37.64768
594.9571, 37.62234
595.4392, 37.66260
595.9213, 37.77251
596.4034, 38.05659
596.8856, 38.36499
597.3677, 38.45192
597.8498, 38.31077
598.3319, 38.19227
598.8140, 38.33765
599.2961, 38.52854
599.7783, 38.55016
600.2604, 38.21725
600.7425, 38.03906
601.2246, 38.26165
601.7067, 38.64768
602.1888, 38.87304
602.6710, 38.74781
603.1531, 38.79570
603.6352, 39.21426
604.1173, 39.80093
604.5994, 39.88372
605.0815, 39.36602
605.5637, 38.87275
606.0458, 38.66197
606.5279, 38.68800
607.0100, 38.81308
607.4921, 39.03288
607.9742, 39.22235
608.4564, 39.23022
608.9385, 39.16794
609.4206, 39.26496
609.9027, 39.59327
610.3848, 39.73658
610.8669, 39.23717
611.3491, 38.50534
611.8312, 37.95985
612.3133, 37.75278
612.7954, 37.68163
613.2775, 37.81993
613.7596, 38.05037
614.2418, 38.14912
614.7239, 38.01937
615.2060, 37.92471
615.6881, 37.94909
616.1702, 38.05051
616.6523, 37.99048
617.1345, 37.73336
617.6166, 37.53183
618.0987, 37.63014
618.5808, 37.90947
619.0629, 37.82866
619.5450, 37.38176
620.0272, 36.99395
620.5093, 37.13246
620.9914, 37.49820
621.4735, 37.65683
621.9556, 37.46843
622.4377, 37.31354
622.9199, 37.43638
623.4020, 37.68871
623.8841, 37.89815
624.3662, 37.85889
624.8483, 37.98230
625.3304, 38.50880
625.8126, 39.20424
626.2947, 39.52417
626.7768, 39.29863
627.2589, 39.08744
627.7410, 39.08772
628.2231, 39.23053
628.7053, 39.10445
629.1874, 38.68919
629.6695, 38.31654
630.1516, 38.27322
630.6337, 38.41753
631.1158, 38.40783
631.5980, 38.23130
632.0801, 38.00035
632.5622, 37.79667
633.0443, 37.58619
633.5264, 37.31948
634.0085, 36.95015
634.4907, 36.62336
634.9728, 36.33849
635.4549, 36.14518
635.9370, 36.10921
636.4191, 36.43353
636.9012, 36.63172
637.3834, 36.56432
637.8655, 36.38622
638.3476, 36.48693
638.8297, 36.92119
639.3118, 37.37934
639.7939, 37.79341
640.2761, 38.14263
640.7582, 38.31668
641.2403, 38.32704
641.7224, 38.32596
642.2045, 38.41243
642.6866, 38.54517
643.1688, 38.70169
643.6509, 38.87890
644.1330, 38.95839
644.6151, 38.74219
645.0972, 38.48317
645.5793, 38.42962
646.0615, 38.81373
646.5436, 38.90873
647.0257, 38.27098
647.5078, 37.49546
647.9899, 37.16462
648.4720, 37.54475
648.9542, 37.68277
649.4363, 37.44976
649.9184, 36.97617
650.4005, 36.37863
650.8826, 35.66738
651.3647, 35.26613
651.8469, 35.47397
652.3290, 35.90208
652.8111, 35.82815
653.2932, 35.36108
653.7753, 34.95973
654.2574, 34.92854
654.7396, 35.01499
655.2217, 35.02047
655.7038, 34.94534
656.1859, 34.95258
656.6680, 35.16118
657.1501, 35.41080
657.6323, 35.63367
658.1144, 35.85586
658.5965, 35.91510
659.0786, 35.69146
659.5607, 35.48327
660.0428, 35.62189
660.5250, 36.13970
661.0071, 36.38002
661.4892, 36.23834
661.9713, 35.96162
662.4534, 35.83800
662.9355, 35.83522
663.4177, 35.87324
663.8998, 35.96817
664.3819, 36.02460
664.8640, 35.97348
665.3461, 35.82372
665.8282, 35.59256
666.3104, 35.15530
666.7925, 34.77367
667.2746, 34.53846
667.7567, 34.43953
668.2388, 34.38023
668.7209, 34.32730
669.2031, 34.37589
669.6852, 34.62829
670.1673, 35.05369
670.6494, 35.14280
671.1315, 34.85472
671.6136, 34.54910
672.0958, 34.53522
672.5779, 34.70034
673.0600, 34.66689
673.5421, 34.40425
674.0242, 34.26027
674.5063, 34.66118
674.9885, 35.25575
675.4706, 35.65812
675.9527, 35.76434
676.4348, 35.76506
676.9169, 35.60353
677.3990, 35.42218
677.8812, 35.39261
678.3633, 35.69450
678.8454, 35.82125
679.3275, 35.66241
679.8096, 35.37697
680.2917, 35.25239
680.7739, 35.29715
681.2560, 35.41206
681.7381, 35.58977
682.2202, 35.79620
682.7023, 36.02099
683.1844, 36.23210
683.6666, 36.29227
684.1487, 35.89847
684.6308, 35.51022
685.1129, 35.59999
685.5950, 36.07427
686.0771, 36.36472
686.5593, 36.05057
687.0414, 35.70646
687.5235, 35.59661
688.0056, 35.73261
688.4877, 35.95398
688.9698, 36.36337
689.4520, 36.67426
689.9341, 36.62697
690.4162, 36.21488
690.8983, 36.05651
691.3804, 36.18562
691.8625, 36.41420
692.3447, 36.58692
692.8268, 36.71391
693.3089, 36.84192
693.7910, 37.01006
694.2731, 37.03945
694.7552, 36.58262
695.2374, 36.00867
695.7195, 35.74753
696.2016, 36.25375
696.6837, 36.63473
697.1658, 36.74181
697.6479, 36.66626
698.1301, 36.48273
698.6122, 36.04865
699.0943, 35.94390
699.5764, 36.38522
700.0585, 37.11587
700.5406, 37.54784
701.0228, 37.70201
701.5049, 37.80183
701.9870, 37.93615
702.4691, 38.07760
702.9512, 38.16582
703.4333, 38.22369
703.9155, 38.33535
704.3976, 38.55302
704.8797, 38.82766
705.3618, 39.12450
705.8439, 39.44317
706.3260, 39.85435
706.8082, 40.49669
707.2903, 41.07465
707.7724, 41.43810
708.2545, 41.58152
708.7366, 41.72963
709.2188, 41.89363
709.7009, 42.00944
710.1830, 41.87413
710.6651, 41.64447
711.1472, 41.91995
711.6293, 42.78163
712.1115, 43.64111
712.5936, 44.05294
713.0757, 44.19678
713.5578, 44.24784
714.0399, 44.19847
714.5220, 44.18098
715.0042, 44.29662
715.4863, 44.43084
715.9684, 44.45521
716.4505, 44.27734
716.9326, 44.21915
717.4147, 44.39385
717.8969, 44.57558
718.3790, 44.37406
718.8611, 43.80213
719.3432, 43.18480
719.8253, 42.60789
720.3074, 42.01020
720.7896, 41.21505
721.2717, 40.33352
721.7538, 39.60247
722.2359, 39.26859
722.7180, 38.97550
723.2001, 38.56792
723.6823, 38.06523
724.1644, 37.54113
724.6465, 36.91326
725.1286, 36.38705
725.6107, 36.04442
726.0928, 35.84679
726.5750, 35.56149
727.0571, 35.15690
727.5392, 34.89597
728.0213, 34.94994
728.5034, 35.22403
728.9855, 35.57130
729.4677, 35.95416
729.9498, 36.09597
730.4319, 35.55405
730.9140, 34.87446
731.3961, 34.50940
731.8782, 34.48897
732.3604, 34.54895
732.8425, 34.70840
733.3246, 34.84659
733.8067, 34.87834
734.2888, 34.76551
734.7709, 34.79723
735.2531, 34.99700
735.7352, 35.27970
736.2173, 35.71291
736.6994, 36.21925
737.1815, 36.17665
737.6636, 35.50227
738.1458, 34.84301
738.6279, 34.89203
739.1100, 35.27437
739.5921, 35.51923
740.0742, 35.51220
740.5563, 35.46469
741.0385, 35.46770
741.5206, 35.46461
742.0027, 35.39112
742.4848, 35.15116
742.9669, 35.03185
743.4490, 35.07705
743.9312, 35.19294
744.4133, 35.23798
744.8954, 35.21637
745.3775, 35.34171
745.8596, 35.72819
746.3417, 36.04707
746.8239, 35.71113
747.3060, 35.02586
747.7881, 34.59507
748.2702, 34.78789
748.7523, 35.03854
749.2344, 35.08367
749.7166, 35.00710
750.1987, 34.95994
750.6808, 35.00352
751.1629, 35.01066
751.6450, 34.95279
752.1271, 34.85572
752.6093, 34.79053
753.0914, 34.76100
753.5735, 34.68073
754.0556, 34.46329
754.5377, 34.25673
755.0198, 34.42446
755.5020, 34.83971
755.9841, 35.10044
756.4662, 34.78625
756.9483, 34.47447
757.4304, 34.57566
757.9125, 34.97861
758.3947, 35.23536
758.8768, 35.18824
759.3589, 35.08187
759.8410, 34.95214
760.3231, 34.81010
760.8052, 34.73220
761.2874, 34.73484
761.7695, 34.68137
762.2516, 34.42059
762.7337, 34.09547
763.2158, 34.08726
763.6979, 34.34220
764.1801, 34.55760
764.6622, 34.54179
765.1443, 34.43118
765.6264, 34.24330
766.1085, 33.99603
766.5906, 33.95200
767.0728, 34.32342
767.5549, 34.72841
768.0370, 35.07781
768.5191, 35.36754
769.0012, 35.34815
769.4833, 34.98212
769.9655, 34.53898
770.4476, 34.05902
770.9297, 33.65747
771.4118, 33.71674
771.8939, 34.21718
772.3760, 34.71930
772.8582, 34.95574
773.3403, 35.05187
773.8224, 35.04754
774.3045, 34.92339
774.7866, 34.95518
775.2687, 35.40596
775.7509, 35.78544
776.2330, 35.79418
776.7151, 35.37410
777.1972, 35.18135
777.6793, 35.24501
778.1614, 35.36782
778.6436, 35.36206
779.1257, 35.29500
779.6078, 35.32993
780.0899, 35.48157
780.5720, 35.66558
781.0541, 35.86209
781.5363, 36.04476
782.0184, 36.21634
782.5005, 36.42729
782.9826, 36.42141
783.4647, 35.97902
783.9468, 35.54121
784.4290, 35.40444
784.9111, 35.59013
785.3932, 35.92972
785.8753, 36.45230
786.3574, 36.93689
786.8395, 37.12511
787.3217, 37.12349
787.8038, 37.16706
788.2859, 37.29676
788.7680, 37.37452
789.2501, 37.22499
789.7322, 37.04053
790.2144, 37.00965
790.6965, 37.32282
791.1786, 37.37080
791.6607, 36.90831
792.1428, 36.46749
792.6249, 36.62685
793.1071, 37.42179
793.5892, 37.69847
794.0713, 37.31891
794.5534, 36.83905
795.0355, 36.80333
795.5176, 37.06865
795.9998, 37.45444
796.4819, 37.99152
796.9640, 38.32568
797.4461, 38.06081
797.9282, 37.64564
798.4103, 37.51468
798.8925, 37.93452
799.3746, 38.08480
799.8567, 37.83901
800.3388, 37.52836
800.8209, 37.49294
801.3030, 37.71513
801.7852, 38.00771
802.2673, 38.37342
802.7494, 38.67129
803.2315, 38.68712
803.7136, 38.57656
804.1957, 38.56127
804.6779, 38.73460
805.1600, 38.83639
805.6421, 38.66993
806.1242, 38.46106
806.6063, 38.43079
807.0884, 38.74215
807.5706, 38.73941
808.0527, 38.30001
808.5348, 37.83634
809.0169, 37.87552
809.4990, 38.28707
809.9811, 38.52704
810.4633, 38.52763
810.9454, 38.32066
811.4275, 37.79199
811.9096, 37.14216
812.3917, 36.55629
812.8738, 35.96348
813.3560, 35.72277
813.8381, 36.22757
814.3202, 36.81127
814.8023, 36.90807
815.2844, 36.39926
815.7665, 36.16431
816.2487, 36.29332
816.7308, 36.43988
817.2129, 36.11438
817.6950, 35.56470
818.1771, 35.36563
818.6592, 35.64118
819.1414, 35.96116
819.6235, 36.14392
820.1056, 36.20966
820.5877, 36.14515
821.0698, 35.81041
821.5519, 35.72505
822.0341, 36.03898
822.5162, 36.38565
822.9983, 36.43031
823.4804, 36.18940
823.9625, 36.11354
824.4446, 36.23636
824.9268, 36.37805
825.4089, 36.33273
825.8910, 36.22473
826.3731, 36.24960
826.8552, 36.46153
827.3373, 36.56516
827.8195, 36.22242
828.3016, 35.92783
828.7837, 36.04871
829.2658, 36.71170
829.7479, 37.07304
830.2300, 37.06846
830.7122, 36.95895
831.1943, 36.89838
831.6764, 36.90316
832.1585, 37.11278
832.6406, 37.52505
833.1227, 37.77996
833.6049, 37.50965
834.0870, 37.05603
834.5691, 36.61593
835.0512, 36.18822
835.5333, 36.03592
836.0154, 36.39789
836.4976, 36.71890
836.9797, 36.65844
837.4618, 36.23070
837.9439, 36.14326
838.4260, 36.40993
838.9081, 36.62359
839.3903, 36.38180
839.8724, 35.97170
840.3545, 35.80333
840.8366, 35.87352
841.3187, 35.95486
841.8008, 36.08902
842.2830, 36.07336
842.7651, 35.67258
843.2472, 34.93494
843.7293, 34.67686
844.2114, 35.04341
844.6935, 35.41197
845.1757, 35.47324
845.6578, 35.31633
846.1399, 35.15636
846.6220, 35.00521
847.1041, 34.93196
847.5862, 35.04894
848.0684, 35.19353
848.5505, 35.26241
849.0326, 35.26006
849.5147, 35.23013
849.9968, 35.13611
850.4789, 35.08296
850.9611, 35.11764
851.4432, 35.20433
851.9253, 35.25656
852.4074, 35.27103
852.8895, 35.10617
853.3716, 34.49805
853.8538, 33.92715
854.3359, 34.14879
854.8180, 34.86254
855.3001, 35.35240
855.7822, 35.22511
856.2643, 34.99433
856.7465, 34.60658
857.2286, 34.27516
857.7107, 34.50804
858.1928, 35.48676
858.6749, 36.11428
859.1570, 36.06871
859.6392, 35.77987
860.1213, 36.06007
860.6034, 36.65718
861.0855, 36.90894
861.5676, 36.40556
862.0497, 35.89915
862.5319, 35.76219
863.0140, 35.87641
863.4961, 36.11287
863.9782, 36.69449
864.4603, 36.87995
864.9424, 36.48846
865.4246, 35.95203
865.9067, 35.82030
866.3888, 36.03370
866.8709, 36.28534
867.3530, 36.53613
867.8351, 36.76441
868.3173, 37.07124
868.7994, 37.28593
869.2815, 37.17137
869.7636, 36.47607
870.2457, 36.08295
870.7278, 36.13144
871.2100, 36.41639
871.6921, 36.91277
872.1742, 37.63559
872.6563, 37.79881
873.1384, 37.34570
873.6205, 36.91640
874.1027, 37.19340
874.5848, 37.73320
875.0669, 37.92882
875.5490, 37.73352
876.0311, 37.57738
876.5132, 37.66070
876.9954, 37.77847
877.4775, 37.83805
877.9596, 37.84085
878.4417, 37.85421
878.9238, 37.89247
879.4059, 37.85256
879.8881, 37.52795
880.3702, 37.16003
880.8523, 37.34929
881.3344, 37.96864
881.8165, 38.47581
882.2986, 38.47289
882.7808, 38.41912
883.2629, 38.52787
883.7450, 38.76659
884.2271, 38.99149
884.7092, 39.20595
885.1913, 39.39836
885.6735, 39.57139
886.1556, 39.71306
886.6377, 39.76844
887.1198, 39.76508
887.6019, 39.80358
888.0840, 39.92506
888.5662, 40.09246
889.0483, 40.28065
889.5304, 40.50158
890.0125, 40.76934
890.4946, 41.03395
890.9767, 41.47638
891.4589, 42.24232
891.9410, 42.98358
892.4231, 43.10374
892.9052, 42.74200
893.3873, 42.75069
893.8694, 43.28336
894.3516, 44.04863
894.8337, 45.05661
895.3158, 46.01731
895.7979, 46.54497
896.2800, 46.29224
896.7621, 46.58427
897.2443, 47.81829
897.7264, 49.16357
898.2085, 49.98222
898.6906, 50.29749
899.1727, 51.03209
899.6548, 52.18225
900.1370, 53.45308
900.6191, 54.43464
901.1012, 55.54023
901.5833, 57.31759
902.0654, 59.70350
902.5475, 61.99479
903.0297, 63.44450
903.5118, 65.41495
903.9939, 68.42460
904.4760, 72.24805
904.9581, 75.92898
905.4402, 79.46294
905.9224, 83.17558
906.4045, 87.31358
906.8866, 91.68321
907.3687, 96.02052
907.8508, 100.4335
908.3329, 105.0703
908.8151, 110.0677
909.2972, 115.1870
909.7793, 120.1341
910.2614, 125.3286
910.7435, 131.4071
911.2256, 138.3901
911.7078, 145.9269
912.1899, 153.9558
912.6720, 162.8812
913.1541, 173.5946
913.6362, 185.3063
914.1183, 196.7468
914.6005, 207.5369
915.0826, 218.4640
915.5647, 230.1701
916.0468, 241.7771
916.5289, 253.0458
917.0110, 264.3238
917.4932, 272.9864
917.9753, 279.1617
918.4574, 282.0788
918.9395, 281.1743
919.4216, 276.6129
919.9037, 268.1276
920.3859, 255.8902
920.8680, 241.7985
921.3501, 224.7662
921.8322, 207.8509
922.3143, 191.8688
922.7964, 177.0521
923.2786, 163.8760
923.7607, 152.3631
924.2428, 142.3295
924.7249, 134.0159
925.2070, 126.8664
925.6891, 120.0767
926.1713, 113.8704
926.6534, 108.8181
927.1355, 105.9977
927.6176, 103.3284
928.0997, 100.1579
928.5818, 96.82961
929.0640, 93.72721
929.5461, 90.82373
930.0282, 88.18996
930.5103, 85.84306
930.9924, 83.82043
931.4745, 82.25994
931.9567, 81.05653
932.4388, 80.03530
932.9209, 79.18129
933.4030, 78.49290
933.8851, 78.07655
934.3672, 77.74178
934.8494, 77.26826
935.3315, 76.62765
935.8136, 76.78878
936.2957, 77.80262
936.7778, 79.16273
937.2599, 80.85384
937.7421, 82.54229
938.2242, 83.48652
938.7063, 83.93006
939.1884, 84.84529
939.6705, 87.10635
940.1526, 89.33568
940.6348, 90.89987
941.1169, 92.23863
941.5990, 94.39402
942.0811, 97.42715
942.5632, 100.3771
943.0453, 102.9405
943.5275, 105.5068
944.0096, 108.4695
944.4917, 111.8738
944.9738, 115.8743
945.4559, 120.8005
945.9380, 125.5912
946.4202, 130.1651
946.9023, 134.4315
947.3844, 138.3241
947.8665, 141.8772
948.3486, 144.9601
948.8307, 147.6028
949.3129, 149.2620
949.7950, 149.3515
950.2771, 148.3158
950.7592, 146.7338
951.2413, 144.5802
951.7234, 141.3877
952.2056, 136.6854
952.6877, 131.2221
953.1698, 124.9495
953.6519, 118.1719
954.1340, 111.9306
954.6161, 106.1864
955.0983, 100.5485
955.5804, 94.82859
956.0625, 89.27713
956.5446, 83.92623
957.0267, 79.00349
957.5089, 74.86096
957.9910, 72.17142
958.4731, 69.38559
958.9552, 66.24635
959.4373, 63.20766
959.9194, 60.65708
960.4016, 58.57930
960.8837, 56.97820
961.3658, 55.87608
961.8479, 54.67940
962.3300, 52.62297
962.8121, 50.52343
963.2943, 49.09734
963.7764, 48.40026
964.2585, 47.83843
964.7406, 47.49508
965.2227, 47.03645
965.7048, 46.29100
966.1870, 45.38737
966.6691, 44.59034
967.1512, 43.90611
967.6333, 43.37957
968.1154, 43.10377
968.5975, 42.88015
969.0797, 42.63361
969.5618, 42.35012
970.0439, 41.98321
970.5260, 41.45014
971.0081, 41.06435
971.4902, 40.84734
971.9724, 40.77676
972.4545, 40.98688
972.9366, 41.29335
973.4187, 41.21855
973.9008, 40.71547
974.3829, 40.16636
974.8651, 39.62132
975.3472, 39.23646
975.8293, 39.24524
976.3114, 39.56530
976.7935, 39.18047
977.2756, 37.95742
977.7578, 37.10406
978.2399, 37.32445
978.7220, 37.98339
979.2041, 38.16138
979.6862, 38.01397
980.1683, 37.87733
980.6505, 37.94444
981.1326, 37.92893
981.6147, 37.71904
982.0968, 37.46076
982.5789, 37.32152
983.0610, 37.30137
983.5432, 37.31578
984.0253, 37.36807
984.5074, 37.32861
984.9895, 37.02007
985.4716, 36.60402
985.9537, 36.15066
986.4359, 35.66243
986.9180, 35.57824
987.4001, 36.22425
987.8822, 36.76604
988.3643, 36.88145
988.8464, 36.67784
989.3286, 36.40062
989.8107, 36.08422
990.2928, 35.90075
990.7749, 35.98085
991.2570, 36.12904
991.7391, 36.27711
992.2213, 36.39271
992.7034, 36.42592
993.1855, 36.33344
993.6676, 36.26472
994.1497, 36.20881
994.6318, 36.22712
995.1140, 36.53323
995.5961, 36.91145
996.0782, 36.76894
996.5603, 36.09708
997.0424, 35.71887
997.5245, 36.32143
998.0067, 36.99680
998.4888, 37.34525
998.9709, 37.41957
999.4530, 37.42041
999.9351, 37.33577
1000.417, 37.43215
1000.899, 37.90699
1001.381, 38.39591
1001.864, 38.31924
1002.346, 38.00784
1002.828, 38.00269
1003.310, 38.75479
1003.792, 39.21127
1004.274, 39.05118
1004.756, 38.93993
1005.238, 39.57609
1005.721, 40.82482
1006.203, 41.62199
1006.685, 41.95258
1007.167, 42.37828
1007.649, 43.40448
1008.131, 44.53280
1008.613, 45.43716
1009.095, 46.12508
1009.577, 46.76944
1010.060, 47.30275
1010.542, 48.00206
1011.024, 48.95975
1011.506, 50.05145
1011.988, 51.14781
1012.470, 52.21590
1012.952, 53.11891
1013.434, 53.71391
1013.917, 54.51159
1014.399, 55.86351
1014.881, 57.33528
1015.363, 58.65614
1015.845, 59.82017
1016.327, 60.94633
1016.809, 62.03056
1017.291, 63.08483
1017.773, 64.31303
1018.256, 65.35538
1018.738, 65.94517
1019.220, 66.07265
1019.702, 65.69986
1020.184, 64.50414
1020.666, 63.34935
1021.148, 62.39270
1021.630, 61.41522
1022.112, 60.08143
1022.595, 58.46431
1023.077, 56.78353
1023.559, 55.05935
1024.041, 53.42698
1024.523, 51.95757
1025.005, 50.60883
1025.487, 49.34029
1025.969, 48.14782
1026.452, 47.34228
1026.934, 46.97580
1027.416, 46.56688
1027.898, 45.89368
1028.380, 45.07493
1028.862, 44.15153
1029.344, 43.24510
1029.826, 42.57606
1030.308, 42.40708
1030.791, 42.21288
1031.273, 41.97510
1031.755, 41.66805
1032.237, 41.18952
1032.719, 40.58696
1033.201, 40.29858
1033.683, 40.32570
1034.165, 40.33184
1034.647, 40.12901
1035.130, 39.79393
1035.612, 39.22260
1036.094, 38.53435
1036.576, 38.32057
1037.058, 38.73557
1037.540, 38.93412
1038.022, 38.64967
1038.504, 38.22203
1038.987, 38.11703
1039.469, 38.21096
1039.951, 38.32640
1040.433, 38.47555
1040.915, 38.43547
1041.397, 37.94505
1041.879, 37.51268
1042.361, 37.41076
1042.844, 37.61477
1043.326, 38.02321
1043.808, 38.60449
1044.290, 39.06485
1044.772, 39.22899
1045.254, 39.24929
1045.736, 39.06337
1046.218, 38.84820
1046.700, 38.98219
1047.183, 39.65879
1047.665, 39.99920
1048.147, 39.84563
1048.629, 39.67185
1049.111, 40.10105
1049.593, 40.78294
1050.075, 41.04790
1050.557, 40.86412
1051.040, 41.01934
1051.522, 42.03533
1052.004, 43.12074
1052.486, 44.02887
1052.968, 44.85365
1053.450, 45.93852
1053.932, 47.21844
1054.414, 48.28858
1054.896, 48.97710
1055.379, 49.57687
1055.861, 50.21562
1056.343, 50.92396
1056.825, 51.70909
1057.307, 52.52761
1057.789, 53.66144
1058.271, 55.13335
1058.753, 56.79525
1059.235, 58.77745
1059.718, 60.72600
1060.200, 61.79996
1060.682, 62.38953
1061.164, 63.58858
1061.646, 66.63493
1062.128, 69.05180
1062.610, 70.35281
1063.092, 71.15279
1063.574, 72.45002
1064.057, 73.96703
1064.539, 74.47105
1065.021, 73.83559
1065.503, 72.43494
1065.985, 70.10664
1066.467, 67.45313
1066.949, 64.68989
1067.431, 61.89549
1067.914, 59.20272
1068.396, 56.58722
1068.878, 54.26083
1069.360, 52.28653
1069.842, 50.54744
1070.324, 48.91623
1070.806, 47.41578
1071.288, 46.10923
1071.771, 45.03029
1072.253, 44.05636
1072.735, 43.14563
1073.217, 42.42934
1073.699, 42.05343
1074.181, 41.91500
1074.663, 41.82174
1075.145, 41.71867
1075.627, 41.41640
1076.110, 40.59565
1076.592, 39.84870
1077.074, 39.41539
1077.556, 39.10122
1078.038, 38.64684
1078.520, 38.05333
1079.002, 37.77032
1079.484, 37.83289
1079.967, 37.95226
1080.449, 37.96736
1080.931, 37.89459
1081.413, 37.72535
1081.895, 37.46894
1082.377, 37.17313
1082.859, 36.77251
1083.341, 36.61163
1083.823, 36.82199
1084.306, 37.16560
1084.788, 37.38570
1085.270, 37.48714
1085.752, 37.43448
1086.234, 37.17882
1086.716, 37.03035
1087.198, 37.14437
1087.680, 37.19827
1088.162, 36.98270
1088.645, 36.62853
1089.127, 36.62185
1089.609, 36.87267
1090.091, 37.02813
1090.573, 36.92712
1091.055, 36.73133
1091.537, 36.30901
1092.019, 35.97271
1092.501, 36.08311
1092.984, 36.69646
1093.466, 37.03918
1093.948, 37.09935
1094.430, 37.21696
1094.912, 37.82093
1095.394, 38.41891
1095.876, 38.43793
1096.358, 38.86084
1096.841, 39.17870
1097.323, 39.10881
1097.805, 39.59563
1098.287, 39.48588
1098.769, 39.21452
1099.251, 39.21020
1099.733, 39.40926
1100.215, 39.72749
1100.698, 40.15531
1101.180, 40.66704
1101.662, 41.42891
1102.144, 42.01070
1102.626, 42.24976
1103.108, 42.28483
1103.590, 42.39759
1104.072, 42.57940
1104.554, 42.79229
1105.037, 43.00063
1105.519, 43.32769
1106.001, 44.00440
1106.483, 44.66301
1106.965, 45.08236
1107.447, 45.26680
1107.929, 45.16590
1108.411, 44.80858
1108.894, 44.66732
1109.376, 45.21341
1109.858, 45.75153
1110.340, 45.77744
1110.822, 45.44450
1111.304, 44.95213
1111.786, 44.25042
1112.268, 43.63997
1112.750, 43.12799
1113.233, 42.70102
1113.715, 42.47398
1114.197, 42.23249
1114.679, 41.62851
1115.161, 40.76179
1115.643, 40.01347
1116.125, 39.45139
1116.607, 39.03374
1117.089, 38.80999
1117.572, 38.61542
1118.054, 38.18452
1118.536, 37.64494
1119.018, 37.29353
1119.500, 37.15311
1119.982, 36.98069
1120.464, 36.53968
1120.946, 36.24323
1121.428, 36.28675
1121.911, 36.49412
1122.393, 36.44829
1122.875, 36.19027
1123.357, 35.88625
1123.839, 35.55947
1124.321, 35.26604
1124.803, 34.92815
1125.285, 34.75256
1125.768, 34.94555
1126.250, 35.44008
1126.732, 35.56874
1127.214, 35.34113
1127.696, 34.97980
1128.178, 34.45129
1128.660, 34.05012
1129.142, 34.10457
1129.625, 34.38911
1130.107, 34.65280
1130.589, 34.91228
1131.071, 34.96589
1131.553, 34.78283
1132.035, 34.63897
1132.517, 34.79392
1132.999, 35.02852
1133.481, 35.10101
1133.964, 35.04681
1134.446, 34.93557
1134.928, 34.64322
1135.410, 34.62172
1135.892, 34.99902
1136.374, 35.33013
1136.856, 35.00481
1137.338, 34.41363
1137.821, 34.31174
1138.303, 34.64182
1138.785, 34.83049
1139.267, 34.47383
1139.749, 34.27809
1140.231, 34.44372
1140.713, 34.68921
1141.195, 34.50276
1141.677, 34.07050
1142.160, 33.94651
1142.642, 34.20585
1143.124, 34.46405
1143.606, 34.46948
1144.088, 34.53253
1144.570, 34.82622
1145.052, 35.21686
1145.534, 35.28923
1146.016, 35.10357
1146.499, 35.02556
1146.981, 35.20215
1147.463, 35.21349
1147.945, 34.41106
1148.427, 33.73314
1148.909, 33.94390
1149.391, 34.88586
1149.873, 35.10300
1150.355, 34.63525
1150.838, 34.24876
1151.320, 34.22911
1151.802, 34.39818
1152.284, 34.85217
1152.766, 35.27377
1153.248, 35.26617
1153.730, 34.76050
1154.212, 34.45353
1154.695, 34.35608
1155.177, 34.32297
1155.659, 34.23486
1156.141, 34.20616
1156.623, 34.42475
1157.105, 34.75786
1157.587, 34.96633
1158.069, 35.04908
1158.552, 34.95491
1159.034, 34.65706
1159.516, 34.32983
1159.998, 34.07077
1160.480, 33.89051
1160.962, 33.76879
1161.444, 33.73548
1161.926, 33.91264
1162.408, 34.50014
1162.891, 34.88073
1163.373, 34.99583
1163.855, 34.90225
1164.337, 34.52122
1164.819, 34.04420
1165.301, 33.79016
1165.783, 33.75882
1166.265, 33.74705
1166.748, 33.68792
1167.230, 33.69669
1167.712, 33.84090
1168.194, 33.96771
1168.676, 33.75306
1169.158, 33.38744
1169.640, 33.30952
1170.122, 33.57146
1170.604, 33.75219
1171.087, 33.57061
1171.569, 33.49237
1172.051, 33.67486
1172.533, 33.98892
1173.015, 34.23526
1173.497, 34.38865
1173.979, 34.35056
1174.461, 34.06688
1174.943, 33.81805
1175.426, 33.75553
1175.908, 33.69197
1176.390, 33.50755
1176.872, 33.60750
1177.354, 33.40343
1177.836, 33.74747
1178.318, 34.01027
1178.800, 34.07201
1179.282, 34.11148
1179.765, 34.22138
1180.247, 34.31419
1180.729, 34.32973
1181.211, 34.28504
1181.693, 34.29356
1182.175, 34.33811
1182.657, 34.32486
1183.139, 34.18808
1183.622, 34.03559
1184.104, 33.86329
1184.586, 33.74986
1185.068, 33.80300
1185.550, 34.00625
1186.032, 33.94228
1186.514, 33.65462
1186.996, 33.50781
1187.479, 33.89503
1187.961, 34.24384
1188.443, 34.20420
1188.925, 34.03114
1189.407, 33.99710
1189.889, 34.10737
1190.371, 34.15318
1190.853, 34.13441
1191.335, 34.12821
1191.818, 34.15517
1192.300, 34.23839
1192.782, 34.50043
1193.264, 34.76742
1193.746, 34.75761
1194.228, 34.45619
1194.710, 34.22498
1195.192, 34.08714
1195.675, 34.06196
1196.157, 34.33691
1196.639, 34.55518
1197.121, 34.37703
1197.603, 34.01184
1198.085, 33.92598
1198.567, 34.13737
1199.049, 34.21041
1199.531, 34.09598
1200.014, 33.97906
1200.496, 34.04557
1200.978, 34.12577
1201.460, 34.10307
1201.942, 33.99570
1202.424, 33.83683
1202.906, 33.62004
1203.388, 33.54741
1203.870, 33.66352
1204.353, 33.79295
1204.835, 33.79935
1205.317, 33.74706
1205.799, 33.65368
1206.281, 33.54380
1206.763, 33.48233
1207.245, 33.46610
1207.727, 33.63934
1208.209, 34.07569
1208.692, 34.43139
1209.174, 34.35282
1209.656, 34.10823
1210.138, 33.86187
1210.620, 33.64192
1211.102, 33.51273
1211.584, 33.46968
1212.066, 33.80622
1212.549, 34.75987
1213.031, 35.48162
1213.513, 34.91492
1213.995, 34.06216
1214.477, 33.89427
1214.959, 34.31760
1215.441, 34.33036
1215.923, 33.92831
1216.406, 33.53985
1216.888, 33.27785
1217.370, 33.16528
1217.852, 33.35480
1218.334, 33.60944
1218.816, 33.69068
1219.298, 33.60786
1219.780, 33.63371
1220.262, 33.76677
1220.745, 33.86720
1221.227, 33.88029
1221.709, 33.85263
1222.191, 33.80554
1222.673, 33.74438
1223.155, 33.64265
1223.637, 33.50291
1224.119, 33.62720
1224.602, 33.99508
1225.084, 34.22723
1225.566, 34.09182
1226.048, 33.88172
1226.530, 33.68127
1227.012, 33.60751
1227.494, 33.84314
1227.976, 34.38647
1228.458, 34.36301
1228.941, 33.82785
1229.423, 33.58160
1229.905, 34.36491
1230.387, 34.99725
1230.869, 34.40642
1231.351, 33.60198
1231.833, 33.64241
1232.315, 34.51715
1232.797, 34.86049
1233.280, 34.71181
1233.762, 34.45018
1234.244, 34.13898
1234.726, 33.93546
1235.208, 33.99759
1235.690, 34.14977
1236.172, 34.24129
1236.654, 34.27467
1237.136, 34.32654
1237.619, 34.38613
1238.101, 34.37523
1238.583, 34.14080
1239.065, 33.96749
1239.547, 34.03426
1240.029, 34.14909
1240.511, 34.16126
1240.993, 34.07203
1241.476, 33.77462
1241.958, 33.34125
1242.440, 33.18949
1242.922, 33.89292
1243.404, 34.41571
1243.886, 34.40163
1244.368, 34.17087
1244.850, 33.95047
1245.333, 33.77206
1245.815, 33.83077
1246.297, 34.08454
1246.779, 34.30711
1247.261, 34.37636
1247.743, 34.42013
1248.225, 34.44519
1248.707, 34.48624
1249.189, 34.61283
1249.672, 34.77645
1250.154, 34.87391
1250.636, 34.88869
1251.118, 34.76258
1251.600, 34.27781
1252.082, 33.94317
1252.564, 33.82662
1253.046, 33.84770
1253.529, 34.00150
1254.011, 34.19478
1254.493, 34.21746
1254.975, 34.10225
1255.457, 34.02831
1255.939, 34.09559
1256.421, 34.09380
1256.903, 33.96239
1257.385, 33.89455
1257.868, 34.18567
1258.350, 34.59573
1258.832, 34.74717
1259.314, 34.68985
1259.796, 34.70247
1260.278, 34.89360
1260.760, 34.92789
1261.242, 34.73774
1261.724, 34.57501
1262.207, 34.76572
1262.689, 35.04191
1263.171, 35.14186
1263.653, 35.06374
1264.135, 34.84265
1264.617, 34.41392
1265.099, 34.20971
1265.581, 34.28890
1266.063, 34.40235
1266.546, 34.24632
1267.028, 34.11524
1267.510, 34.31511
1267.992, 34.72348
1268.474, 35.05301
1268.956, 35.32123
1269.438, 35.15271
1269.920, 34.50558
1270.403, 34.04992
1270.885, 34.69418
1271.367, 35.26823
1271.849, 34.76985
1272.331, 33.87525
1272.813, 33.66198
1273.295, 34.08631
1273.777, 34.60951
1274.260, 35.17358
1274.742, 35.48482
1275.224, 35.15659
1275.706, 34.79047
1276.188, 34.58217
1276.670, 34.49660
1277.152, 34.53196
1277.634, 34.65216
1278.116, 34.70530
1278.599, 34.68633
1279.081, 34.64716
1279.563, 34.58747
1280.045, 34.54468
1280.527, 34.52960
1281.009, 34.52812
1281.491, 34.47237
1281.973, 34.43612
1282.456, 34.68888
1282.938, 35.15987
1283.420, 35.34927
1283.902, 34.89124
1284.384, 34.57344
1284.866, 34.49935
1285.348, 34.53956
1285.830, 34.60372
1286.313, 34.66330
1286.795, 34.67957
1287.277, 34.65509
1287.759, 34.59896
1288.241, 34.47286
1288.723, 34.48983
1289.205, 34.69612
1289.687, 34.86801
1290.169, 34.77309
1290.651, 34.58933
1291.134, 34.45175
1291.616, 34.35987
1292.098, 34.26355
1292.580, 34.14801
1293.062, 34.25951
1293.544, 34.61852
1294.026, 34.90256
1294.508, 34.79011
1294.990, 34.63204
1295.473, 34.62268
1295.955, 34.69770
1296.437, 34.79893
1296.919, 34.91741
1297.401, 34.96073
1297.883, 34.92999
1298.365, 34.89460
1298.847, 34.80890
1299.330, 34.85710
1299.812, 35.18047
1300.294, 35.49382
1300.776, 35.44319
1301.258, 35.13698
1301.740, 34.76021
1302.222, 34.38332
1302.704, 34.26975
1303.187, 34.78502
1303.669, 35.16624
1304.151, 35.36779
##END=



