##NAMES=Andalusite
##RRUFFID=R050561
##IDEAL CHEMISTRY=Al_2_SiO_5_
##LOCALITY=Cargo Muchacho Mountain, Imperial County, California
##OWNER=RRUFF
##SOURCE=Dave Bunk Minerals
##DESCRIPTION=Brown coarsely crystalline massive
##STATUS=The identification of this mineral has been confirmed by X-ray diffraction and chemical analysis
##URL=rruff.info/R050561
##MEASURED CHEMISTRY=(Al_1.98_Fe^3+^_0.02_)_Î£=2_Si_1.00_O_5_
93.07361, 4.786524
93.55573, 5.272690
94.03784, 5.732508
94.51996, 5.816058
95.00208, 5.588497
95.48419, 5.272128
95.96631, 4.826680
96.44843, 4.360175
96.93054, 4.237984
97.41266, 4.503642
97.89478, 4.885880
98.37689, 5.025062
98.85901, 4.914812
99.34113, 4.881839
99.82324, 5.172982
100.3054, 5.785642
100.7875, 5.946795
101.2696, 5.497182
101.7517, 4.801428
102.2338, 4.566386
102.7159, 4.930864
103.1981, 5.365571
103.6802, 5.656683
104.1623, 5.827208
104.6444, 5.746360
105.1265, 5.208153
105.6086, 4.427660
106.0908, 4.258385
106.5729, 5.139837
107.0550, 6.120103
107.5371, 6.647020
108.0192, 6.409568
108.5013, 6.186105
108.9835, 5.961866
109.4656, 5.745595
109.9477, 5.782730
110.4298, 6.313808
110.9119, 6.966377
111.3940, 7.497505
111.8762, 7.257199
112.3583, 7.540960
112.8404, 8.998779
113.3225, 11.83582
113.8046, 13.67550
114.2867, 13.36921
114.7689, 12.17070
115.2510, 11.45441
115.7331, 11.80633
116.2152, 12.45150
116.6973, 13.16025
117.1794, 13.94144
117.6616, 14.64141
118.1437, 15.16881
118.6258, 15.58618
119.1079, 15.97934
119.5900, 16.23453
120.0721, 16.57466
120.5543, 17.18798
121.0364, 18.20505
121.5185, 19.24135
122.0006, 20.00951
122.4827, 20.59911
122.9648, 21.27946
123.4470, 22.26438
123.9291, 23.39430
124.4112, 24.48640
124.8933, 25.48731
125.3754, 26.45651
125.8575, 27.43071
126.3397, 28.41518
126.8218, 29.44668
127.3039, 30.42127
127.7860, 31.45840
128.2681, 32.83130
128.7502, 34.84371
129.2324, 37.07478
129.7145, 38.87047
130.1966, 40.24145
130.6787, 41.15764
131.1608, 41.30403
131.6429, 40.84876
132.1251, 40.63482
132.6072, 41.06728
133.0893, 41.94900
133.5714, 42.55683
134.0535, 42.82802
134.5356, 43.11365
135.0178, 43.99739
135.4999, 45.49342
135.9820, 46.76112
136.4641, 47.26855
136.9462, 47.05509
137.4283, 47.54769
137.9105, 48.91294
138.3926, 50.69696
138.8747, 52.16721
139.3568, 53.30902
139.8389, 54.25332
140.3210, 55.08065
140.8032, 55.83301
141.2853, 56.21831
141.7674, 56.04245
142.2495, 55.61459
142.7316, 55.65592
143.2137, 56.12056
143.6959, 56.48978
144.1780, 56.88131
144.6601, 57.39289
145.1422, 57.70465
145.6243, 57.74851
146.1064, 57.59650
146.5886, 57.51851
147.0707, 57.59104
147.5528, 57.65150
148.0349, 57.61784
148.5170, 57.51392
148.9991, 57.28008
149.4813, 56.76287
149.9634, 56.02150
150.4455, 55.67097
150.9276, 56.00219
151.4097, 56.51295
151.8918, 56.88665
152.3740, 56.94548
152.8561, 57.07878
153.3382, 57.44334
153.8203, 58.02634
154.3024, 58.29175
154.7845, 58.07211
155.2667, 57.59456
155.7488, 57.02332
156.2309, 56.15536
156.7130, 55.43013
157.1951, 54.94769
157.6772, 54.71462
158.1594, 54.61879
158.6415, 54.58828
159.1236, 54.70196
159.6057, 55.03852
160.0878, 55.92723
160.5699, 56.75663
161.0521, 57.33264
161.5342, 57.63094
162.0163, 57.75097
162.4984, 57.59973
162.9805, 57.32453
163.4626, 57.11153
163.9448, 57.04334
164.4269, 57.04078
164.9090, 57.07207
165.3911, 57.13968
165.8732, 57.21022
166.3553, 57.24192
166.8375, 57.26819
167.3196, 57.34417
167.8017, 57.56249
168.2838, 57.79665
168.7659, 57.94722
169.2480, 57.98532
169.7302, 58.00678
170.2123, 58.04370
170.6944, 58.10910
171.1765, 58.23156
171.6586, 58.41127
172.1407, 58.66026
172.6229, 59.05047
173.1050, 59.67759
173.5871, 60.19419
174.0692, 60.13277
174.5513, 59.67175
175.0334, 59.34071
175.5156, 59.56989
175.9977, 60.08671
176.4798, 60.49758
176.9619, 60.72437
177.4440, 60.87855
177.9261, 61.07587
178.4083, 61.30634
178.8904, 61.52248
179.3725, 61.66833
179.8546, 61.78044
180.3367, 61.95243
180.8188, 62.26542
181.3010, 62.53548
181.7831, 62.31876
182.2652, 61.69850
182.7473, 61.32261
183.2294, 61.92733
183.7115, 63.17320
184.1937, 64.06350
184.6758, 64.28320
185.1579, 64.21084
185.6400, 64.57487
186.1221, 65.35363
186.6042, 66.10295
187.0864, 66.35832
187.5685, 66.24434
188.0506, 66.32756
188.5327, 66.84117
189.0148, 67.52372
189.4969, 67.68087
189.9791, 67.28347
190.4612, 66.99483
190.9433, 67.70260
191.4254, 69.22620
191.9075, 69.99960
192.3896, 69.39481
192.8718, 67.94521
193.3539, 67.19192
193.8360, 67.18177
194.3181, 67.43652
194.8002, 67.49345
195.2823, 67.36179
195.7645, 67.45705
196.2466, 67.93835
196.7287, 68.70371
197.2108, 69.37202
197.6929, 69.94703
198.1750, 70.40211
198.6572, 70.66127
199.1393, 70.71110
199.6214, 70.79235
200.1035, 70.91033
200.5856, 71.09962
201.0677, 71.59159
201.5499, 72.43497
202.0320, 73.42426
202.5141, 74.41634
202.9962, 75.43340
203.4783, 76.28629
203.9604, 76.93498
204.4426, 77.38536
204.9247, 77.72368
205.4068, 78.02549
205.8889, 78.03280
206.3710, 77.37307
206.8531, 75.90447
207.3353, 74.50476
207.8174, 73.38548
208.2995, 72.52639
208.7816, 71.61475
209.2637, 70.57133
209.7458, 69.64491
210.2280, 69.11437
210.7101, 69.04319
211.1922, 69.14954
211.6743, 69.48582
212.1564, 70.02867
212.6385, 70.07102
213.1207, 69.37923
213.6028, 68.56326
214.0849, 68.27678
214.5670, 68.66055
215.0491, 69.16778
215.5313, 69.79578
216.0134, 70.54153
216.4955, 70.73479
216.9776, 70.12664
217.4597, 69.31137
217.9418, 68.89665
218.4240, 68.99567
218.9061, 69.21008
219.3882, 69.46282
219.8703, 69.75100
220.3524, 70.13067
220.8345, 70.60794
221.3167, 71.16281
221.7988, 71.84060
222.2809, 72.81840
222.7630, 73.47594
223.2451, 73.55537
223.7272, 73.04528
224.2094, 72.89468
224.6915, 73.17995
225.1736, 73.73915
225.6557, 74.49789
226.1378, 75.82971
226.6199, 76.55322
227.1021, 76.15598
227.5842, 74.62592
228.0663, 74.08183
228.5484, 75.12126
229.0305, 76.49186
229.5126, 76.94207
229.9948, 75.83713
230.4769, 75.11065
230.9590, 75.18041
231.4411, 76.04546
231.9232, 76.87276
232.4053, 77.84358
232.8875, 78.59288
233.3696, 78.65696
233.8517, 77.25005
234.3338, 76.74337
234.8159, 77.87171
235.2980, 80.59754
235.7802, 82.37870
236.2623, 82.74678
236.7444, 82.68191
237.2265, 82.99216
237.7086, 83.88204
238.1907, 84.75790
238.6729, 85.57812
239.1550, 86.33534
239.6371, 86.87968
240.1192, 87.10863
240.6013, 87.23972
241.0834, 87.46800
241.5656, 87.97035
242.0477, 88.20956
242.5298, 88.08175
243.0119, 87.61015
243.4940, 87.02336
243.9761, 86.23811
244.4583, 85.43410
244.9404, 84.78422
245.4225, 84.54624
245.9046, 83.90210
246.3867, 82.50730
246.8688, 80.54452
247.3510, 79.30612
247.8331, 79.06074
248.3152, 79.19500
248.7973, 79.37965
249.2794, 79.80932
249.7615, 79.84136
250.2437, 79.19784
250.7258, 78.09370
251.2079, 77.58439
251.6900, 77.92827
252.1721, 78.50000
252.6542, 78.95720
253.1364, 79.27037
253.6185, 79.53423
254.1006, 79.77568
254.5827, 79.96907
255.0648, 80.01598
255.5469, 79.90362
256.0291, 79.66732
256.5112, 79.27232
256.9933, 78.53214
257.4754, 78.12275
257.9575, 78.16959
258.4396, 78.52894
258.9218, 78.78430
259.4039, 78.86824
259.8860, 78.97653
260.3681, 79.17246
260.8502, 79.39780
261.3323, 79.91442
261.8145, 80.83155
262.2966, 81.97311
262.7787, 82.98582
263.2608, 83.87173
263.7429, 84.62099
264.2250, 85.18125
264.7072, 85.44337
265.1893, 85.91472
265.6714, 86.56148
266.1535, 87.44139
266.6356, 88.71053
267.1177, 90.51878
267.5999, 92.34512
268.0820, 93.92400
268.5641, 95.18613
269.0462, 96.83489
269.5283, 98.96328
270.0104, 101.3934
270.4926, 103.8762
270.9747, 106.3750
271.4568, 109.1501
271.9389, 112.2774
272.4210, 115.7883
272.9031, 119.6045
273.3853, 123.7697
273.8674, 128.1704
274.3495, 132.6598
274.8316, 137.3568
275.3137, 141.6069
275.7958, 145.0908
276.2780, 147.8790
276.7601, 151.2101
277.2422, 155.2027
277.7243, 159.4264
278.2064, 163.3118
278.6885, 166.7618
279.1707, 170.7041
279.6528, 175.3654
280.1349, 180.6918
280.6170, 186.4137
281.0991, 192.5264
281.5812, 199.0860
282.0634, 205.9480
282.5455, 213.1909
283.0276, 221.1515
283.5097, 229.8845
283.9918, 239.3938
284.4739, 249.5652
284.9561, 260.3386
285.4382, 272.2265
285.9203, 286.0786
286.4024, 301.6639
286.8845, 317.2252
287.3666, 332.3740
287.8488, 347.2771
288.3309, 362.7548
288.8130, 378.8579
289.2951, 393.2662
289.7772, 405.3248
290.2593, 414.6337
290.7415, 419.5807
291.2236, 420.0411
291.7057, 415.9147
292.1878, 406.3737
292.6699, 391.5966
293.1520, 373.6241
293.6342, 352.7043
294.1163, 329.3875
294.5984, 305.7938
295.0805, 281.5248
295.5626, 258.3109
296.0447, 237.8456
296.5269, 219.9853
297.0090, 203.9798
297.4911, 189.5687
297.9732, 176.8051
298.4553, 166.3494
298.9374, 158.3083
299.4196, 151.7358
299.9017, 145.9725
300.3838, 141.0150
300.8659, 136.9242
301.3480, 133.7997
301.8301, 131.5571
302.3123, 130.2243
302.7944, 129.7735
303.2765, 129.7738
303.7586, 129.8949
304.2407, 130.2122
304.7228, 130.8788
305.2050, 132.0300
305.6871, 133.4641
306.1692, 134.9613
306.6513, 136.5417
307.1334, 138.1974
307.6155, 139.6087
308.0977, 141.2181
308.5798, 143.6382
309.0619, 147.2666
309.5440, 151.3309
310.0261, 155.1741
310.5082, 158.9359
310.9904, 163.0236
311.4725, 167.3436
311.9546, 172.3014
312.4367, 178.1978
312.9188, 184.9619
313.4009, 192.9688
313.8831, 202.5167
314.3652, 213.3741
314.8473, 225.2376
315.3294, 237.6917
315.8115, 251.4457
316.2936, 267.4431
316.7758, 286.1176
317.2579, 304.5438
317.7400, 322.5048
318.2221, 339.2852
318.7042, 354.3590
319.1863, 370.0315
319.6685, 381.7426
320.1506, 387.9813
320.6327, 388.6705
321.1148, 383.7847
321.5969, 371.5426
322.0790, 354.6813
322.5612, 335.1972
323.0433, 309.5333
323.5254, 285.5993
324.0075, 265.6530
324.4896, 249.2381
324.9717, 233.4457
325.4539, 216.9769
325.9360, 201.3492
326.4181, 187.5794
326.9002, 176.1122
327.3823, 165.8808
327.8644, 156.8708
328.3466, 149.0578
328.8287, 142.3763
329.3108, 137.0259
329.7929, 132.5874
330.2750, 129.0970
330.7571, 126.9798
331.2393, 124.7151
331.7214, 121.8501
332.2035, 118.9964
332.6856, 117.2134
333.1677, 117.0958
333.6498, 117.1623
334.1320, 116.9872
334.6141, 116.5004
335.0962, 116.3692
335.5783, 116.7750
336.0604, 117.3484
336.5425, 117.6174
337.0247, 117.2414
337.5068, 117.4435
337.9889, 118.5689
338.4710, 120.5192
338.9531, 122.4414
339.4352, 124.2703
339.9174, 126.2550
340.3995, 128.6971
340.8816, 131.7571
341.3637, 134.3445
341.8458, 136.2212
342.3279, 137.6561
342.8101, 139.3968
343.2922, 141.4210
343.7743, 143.8012
344.2564, 146.6357
344.7385, 149.9276
345.2206, 153.2564
345.7028, 156.6448
346.1849, 160.0405
346.6670, 163.1716
347.1491, 166.0883
347.6312, 169.5557
348.1133, 174.0837
348.5955, 179.4533
349.0776, 184.8999
349.5597, 190.4362
350.0418, 196.4365
350.5239, 203.1458
351.0060, 210.6196
351.4882, 218.7954
351.9703, 227.8940
352.4524, 237.4956
352.9345, 246.8191
353.4166, 255.8979
353.8987, 265.0677
354.3809, 274.7209
354.8630, 284.5333
355.3451, 293.9615
355.8272, 303.2732
356.3093, 311.3820
356.7914, 317.7569
357.2736, 322.2505
357.7557, 324.2741
358.2378, 323.3427
358.7199, 319.9055
359.2020, 313.9972
359.6841, 305.3920
360.1663, 295.6997
360.6484, 285.7933
361.1305, 275.3716
361.6126, 264.0126
362.0947, 250.1491
362.5768, 236.5536
363.0590, 224.1292
363.5411, 212.9294
364.0232, 203.1873
364.5053, 195.7480
364.9874, 189.3826
365.4695, 183.1358
365.9517, 176.1918
366.4338, 170.0338
366.9159, 165.0176
367.3980, 161.0045
367.8801, 157.4255
368.3622, 154.3146
368.8444, 151.5781
369.3265, 149.2102
369.8086, 147.4206
370.2907, 145.6003
370.7728, 143.5792
371.2549, 141.5801
371.7371, 140.0191
372.2192, 139.4052
372.7013, 138.5158
373.1834, 136.9429
373.6655, 134.5839
374.1476, 132.4889
374.6298, 130.7437
375.1119, 129.2172
375.5940, 127.8337
376.0761, 126.6722
376.5582, 125.4335
377.0403, 123.9972
377.5225, 122.4623
378.0046, 121.1735
378.4867, 120.1421
378.9688, 119.4003
379.4509, 119.1531
379.9330, 119.4186
380.4152, 119.1974
380.8973, 118.2907
381.3794, 117.1217
381.8615, 116.4519
382.3436, 116.2623
382.8257, 116.1202
383.3079, 115.7416
383.7900, 115.2450
384.2721, 115.1155
384.7542, 115.3888
385.2363, 115.6397
385.7184, 115.3213
386.2006, 114.6361
386.6827, 114.1179
387.1648, 113.9102
387.6469, 113.9783
388.1290, 114.3821
388.6111, 115.0738
389.0933, 115.7819
389.5754, 116.4157
390.0575, 116.9383
390.5396, 117.3677
391.0217, 117.7912
391.5038, 117.8752
391.9860, 117.1523
392.4681, 115.9497
392.9502, 114.8509
393.4323, 114.0428
393.9144, 113.4707
394.3965, 113.2554
394.8787, 113.4235
395.3608, 113.3286
395.8429, 112.4307
396.3250, 111.3106
396.8071, 110.4846
397.2892, 110.1909
397.7714, 110.0654
398.2535, 110.1507
398.7356, 110.3840
399.2177, 110.4650
399.6998, 110.1340
400.1819, 109.8335
400.6641, 109.7476
401.1462, 109.9092
401.6283, 110.2115
402.1104, 110.5594
402.5925, 111.0905
403.0746, 112.0921
403.5568, 113.9852
404.0389, 115.5750
404.5210, 116.4525
405.0031, 116.6158
405.4852, 117.0833
405.9673, 118.0095
406.4495, 118.9533
406.9316, 119.4700
407.4137, 119.4860
407.8958, 119.6543
408.3779, 120.0237
408.8600, 120.6412
409.3422, 121.8111
409.8243, 123.5775
410.3064, 125.1162
410.7885, 125.7489
411.2706, 125.7107
411.7527, 126.0777
412.2349, 126.8901
412.7170, 128.1236
413.1991, 129.8623
413.6812, 132.0218
414.1633, 134.2918
414.6454, 136.8028
415.1276, 139.1745
415.6097, 140.7851
416.0918, 141.6940
416.5739, 142.4478
417.0560, 143.6938
417.5381, 144.8745
418.0203, 145.3359
418.5024, 144.8913
418.9845, 143.8685
419.4666, 142.5077
419.9487, 140.7115
420.4308, 138.3301
420.9130, 134.5113
421.3951, 130.7425
421.8772, 127.7801
422.3593, 125.7801
422.8414, 123.8130
423.3235, 121.5491
423.8057, 119.2801
424.2878, 117.2648
424.7699, 115.4894
425.2520, 114.0260
425.7341, 113.0132
426.2162, 112.3611
426.6984, 111.7113
427.1805, 111.1863
427.6626, 110.5292
428.1447, 109.5847
428.6268, 108.2182
429.1089, 107.0712
429.5911, 106.1328
430.0732, 105.4111
430.5553, 104.9405
431.0374, 104.7879
431.5195, 104.6098
432.0016, 104.2820
432.4838, 103.8701
432.9659, 103.6811
433.4480, 103.7262
433.9301, 103.9193
434.4122, 104.1820
434.8943, 104.5286
435.3765, 105.0927
435.8586, 105.9230
436.3407, 106.8619
436.8228, 107.7396
437.3049, 108.5545
437.7870, 109.2777
438.2692, 109.8988
438.7513, 110.4296
439.2334, 110.8103
439.7155, 111.0568
440.1976, 111.4183
440.6797, 112.1256
441.1619, 113.0327
441.6440, 113.9548
442.1261, 114.7747
442.6082, 115.7179
443.0903, 116.9309
443.5724, 118.3610
444.0546, 119.8948
444.5367, 121.8832
445.0188, 123.6297
445.5009, 124.5375
445.9830, 124.3599
446.4651, 124.9840
446.9473, 127.1289
447.4294, 130.0331
447.9115, 133.0314
448.3936, 136.5088
448.8757, 139.5615
449.3578, 141.8357
449.8400, 143.6035
450.3221, 146.1283
450.8042, 150.5934
451.2863, 153.9479
451.7684, 155.1442
452.2505, 154.1990
452.7327, 150.6629
453.2148, 143.8086
453.6969, 135.7221
454.1790, 128.8985
454.6611, 123.2923
455.1432, 118.4625
455.6254, 114.3268
456.1075, 110.9265
456.5896, 108.7147
457.0717, 107.6511
457.5538, 106.8538
458.0359, 105.7588
458.5181, 104.4954
459.0002, 103.2590
459.4823, 102.0371
459.9644, 101.1216
460.4465, 100.9903
460.9286, 101.3673
461.4108, 101.7312
461.8929, 101.7865
462.3750, 101.8357
462.8571, 102.2601
463.3392, 102.9413
463.8214, 103.3035
464.3035, 102.4903
464.7856, 101.6660
465.2677, 101.7165
465.7498, 103.1470
466.2319, 104.3995
466.7141, 104.8956
467.1962, 105.0654
467.6783, 105.4666
468.1604, 106.5577
468.6425, 107.4403
469.1246, 107.8724
469.6068, 107.8990
470.0889, 108.0438
470.5710, 108.2081
471.0531, 108.6228
471.5352, 109.5138
472.0173, 111.1482
472.4995, 112.2920
472.9816, 112.8307
473.4637, 113.0127
473.9458, 113.1410
474.4279, 113.2041
474.9100, 113.4020
475.3922, 113.7698
475.8743, 114.3314
476.3564, 115.2424
476.8385, 116.4999
477.3206, 117.7845
477.8027, 119.0958
478.2849, 120.2162
478.7670, 120.4712
479.2491, 119.5652
479.7312, 118.7043
480.2133, 119.4778
480.6954, 121.0760
481.1776, 121.9931
481.6597, 121.0870
482.1418, 119.7045
482.6239, 118.5409
483.1060, 117.5967
483.5881, 116.8287
484.0703, 116.4384
484.5524, 116.0542
485.0345, 115.4352
485.5166, 114.4595
485.9987, 113.4616
486.4808, 112.4109
486.9630, 111.3980
487.4451, 110.5531
487.9272, 110.0322
488.4093, 109.4568
488.8914, 108.6858
489.3735, 107.7631
489.8557, 107.1699
490.3378, 107.0373
490.8199, 106.9224
491.3020, 106.5349
491.7841, 105.8455
492.2662, 105.2297
492.7484, 104.6810
493.2305, 104.2694
493.7126, 104.1473
494.1947, 104.2848
494.6768, 104.4597
495.1589, 104.5151
495.6411, 104.6428
496.1232, 105.3582
496.6053, 106.5644
497.0874, 107.5607
497.5695, 107.5686
498.0516, 107.2952
498.5338, 107.6096
499.0159, 108.6833
499.4980, 109.8844
499.9801, 110.9965
500.4622, 111.9636
500.9443, 112.7427
501.4265, 112.9398
501.9086, 113.3254
502.3907, 114.1875
502.8728, 115.4445
503.3549, 116.7517
503.8370, 118.3110
504.3192, 119.7015
504.8013, 120.7784
505.2834, 121.5167
505.7655, 122.0020
506.2476, 121.9121
506.7297, 121.9296
507.2119, 122.8885
507.6940, 125.1364
508.1761, 126.8596
508.6582, 127.7265
509.1403, 127.9871
509.6224, 128.1569
510.1046, 128.2320
510.5867, 128.3389
511.0688, 128.5112
511.5509, 128.7646
512.0330, 129.1985
512.5151, 129.8195
512.9973, 130.4161
513.4794, 131.0120
513.9615, 131.4187
514.4436, 131.2347
514.9257, 130.0907
515.4078, 128.9988
515.8900, 128.9261
516.3721, 129.4218
516.8542, 129.6182
517.3363, 128.9690
517.8184, 128.1635
518.3005, 127.4326
518.7827, 126.7904
519.2648, 126.2743
519.7469, 126.1024
520.2290, 125.8972
520.7111, 125.4123
521.1932, 124.3066
521.6754, 123.6551
522.1575, 123.6336
522.6396, 123.9139
523.1217, 123.9752
523.6038, 123.6752
524.0859, 123.7232
524.5681, 124.4615
525.0502, 125.5963
525.5323, 126.0180
526.0144, 125.6902
526.4965, 125.3028
526.9786, 125.1222
527.4608, 125.2253
527.9429, 125.9519
528.4250, 127.3685
528.9071, 128.9213
529.3892, 130.3193
529.8713, 131.4649
530.3535, 132.1105
530.8356, 131.7706
531.3177, 131.5387
531.7998, 132.2989
532.2819, 133.7256
532.7640, 135.0007
533.2462, 135.3775
533.7283, 135.9837
534.2104, 137.4326
534.6925, 139.8307
535.1746, 142.0415
535.6567, 143.8277
536.1389, 145.5031
536.6210, 147.2194
537.1031, 149.0962
537.5852, 150.7526
538.0673, 151.9943
538.5494, 153.2158
539.0316, 155.2320
539.5137, 158.2306
539.9958, 160.8328
540.4779, 162.4543
540.9600, 163.4939
541.4421, 165.2070
541.9243, 167.5603
542.4064, 169.9871
542.8885, 171.9252
543.3706, 173.6976
543.8527, 175.9926
544.3348, 178.9074
544.8170, 181.8243
545.2991, 184.2462
545.7812, 186.3774
546.2633, 188.4946
546.7454, 190.5948
547.2275, 192.7805
547.7097, 195.1975
548.1918, 197.7399
548.6739, 200.1197
549.1560, 202.4046
549.6381, 204.4197
550.1202, 206.3082
550.6024, 208.1125
551.0845, 208.6592
551.5666, 207.4832
552.0487, 205.6699
552.5308, 204.0172
553.0129, 202.7092
553.4951, 200.4249
553.9772, 196.9238
554.4593, 192.8429
554.9414, 188.8880
555.4235, 185.0799
555.9056, 181.6575
556.3878, 178.7348
556.8699, 176.2261
557.3520, 174.1737
557.8341, 172.4988
558.3162, 170.9014
558.7983, 169.1960
559.2805, 167.4919
559.7626, 165.8510
560.2447, 164.2860
560.7268, 162.9021
561.2089, 161.6213
561.6910, 160.6042
562.1732, 160.0232
562.6553, 160.5469
563.1374, 160.5169
563.6195, 159.1459
564.1016, 157.2838
564.5837, 156.2095
565.0659, 156.3375
565.5480, 156.4876
566.0301, 156.4715
566.5122, 156.2842
566.9943, 155.8171
567.4764, 154.9981
567.9586, 154.2651
568.4407, 153.9642
568.9228, 154.0055
569.4049, 153.8002
569.8870, 153.3079
570.3691, 152.9204
570.8513, 153.3322
571.3334, 154.0772
571.8155, 154.1955
572.2976, 153.3191
572.7797, 152.1462
573.2618, 151.0713
573.7440, 150.0820
574.2261, 149.1316
574.7082, 148.0322
575.1903, 147.1448
575.6724, 146.9275
576.1545, 147.2412
576.6367, 146.8422
577.1188, 144.9635
577.6009, 143.0252
578.0830, 141.5673
578.5651, 140.6890
579.0472, 139.8547
579.5294, 139.1134
580.0115, 138.3116
580.4936, 137.2195
580.9757, 135.8190
581.4578, 134.6102
581.9399, 133.6944
582.4221, 132.9279
582.9042, 132.1654
583.3863, 131.3772
583.8684, 130.3937
584.3505, 128.7660
584.8326, 127.1971
585.3148, 126.6321
585.7969, 126.8660
586.2790, 126.9854
586.7611, 126.4090
587.2432, 125.6311
587.7253, 124.9749
588.2075, 124.4933
588.6896, 123.9774
589.1717, 123.0770
589.6538, 122.3324
590.1359, 122.1739
590.6180, 123.0564
591.1002, 123.6557
591.5823, 123.8929
592.0644, 123.8515
592.5465, 123.5887
593.0286, 123.0570
593.5107, 122.6937
593.9929, 122.7146
594.4750, 122.9152
594.9571, 122.5923
595.4392, 121.8253
595.9213, 121.4034
596.4034, 122.1850
596.8856, 123.4092
597.3677, 123.9253
597.8498, 123.6954
598.3319, 123.6158
598.8140, 124.5635
599.2961, 125.7307
599.7783, 126.3496
600.2604, 125.8398
600.7425, 125.7581
601.2246, 126.7314
601.7067, 128.2131
602.1888, 129.4659
602.6710, 130.3157
603.1531, 131.2211
603.6352, 132.2399
604.1173, 133.3493
604.5994, 134.5459
605.0815, 135.8768
605.5637, 136.9582
606.0458, 137.4560
606.5279, 137.5829
607.0100, 138.2488
607.4921, 139.4352
607.9742, 140.7490
608.4564, 142.0375
608.9385, 143.2043
609.4206, 144.0729
609.9027, 144.6233
610.3848, 144.9617
610.8669, 144.7895
611.3491, 144.6121
611.8312, 144.9693
612.3133, 146.4837
612.7954, 147.8850
613.2775, 148.8244
613.7596, 149.5041
614.2418, 150.3427
614.7239, 151.5954
615.2060, 152.5249
615.6881, 152.8392
616.1702, 152.7169
616.6523, 153.1024
617.1345, 154.0777
617.6166, 155.0732
618.0987, 155.9072
618.5808, 156.5162
619.0629, 156.5177
619.5450, 155.9069
620.0272, 155.2538
620.5093, 155.0595
620.9914, 155.0965
621.4735, 155.0388
621.9556, 154.7800
622.4377, 154.6090
622.9199, 154.7005
623.4020, 154.9538
623.8841, 155.2506
624.3662, 155.5656
624.8483, 155.9234
625.3304, 156.3624
625.8126, 156.8377
626.2947, 157.2820
626.7768, 157.7894
627.2589, 158.0229
627.7410, 157.7785
628.2231, 157.1878
628.7053, 157.0019
629.1874, 157.2543
629.6695, 157.4371
630.1516, 157.0419
630.6337, 156.3716
631.1158, 156.3164
631.5980, 156.9096
632.0801, 157.2379
632.5622, 156.3880
633.0443, 155.0097
633.5264, 153.7548
634.0085, 152.6883
634.4907, 151.9280
634.9728, 151.9951
635.4549, 152.1945
635.9370, 151.6954
636.4191, 149.7068
636.9012, 147.9810
637.3834, 146.6468
637.8655, 145.6732
638.3476, 145.0855
638.8297, 144.9671
639.3118, 144.8560
639.7939, 144.6287
640.2761, 144.2836
640.7582, 143.8715
641.2403, 143.3754
641.7224, 142.6344
642.2045, 141.1059
642.6866, 139.4647
643.1688, 138.8240
643.6509, 139.2132
644.1330, 139.5459
644.6151, 139.1556
645.0972, 138.4724
645.5793, 137.8324
646.0615, 137.3171
646.5436, 136.7782
647.0257, 136.3712
647.5078, 135.8203
647.9899, 134.8119
648.4720, 133.0401
648.9542, 131.6132
649.4363, 130.7904
649.9184, 130.1657
650.4005, 128.8732
650.8826, 126.9285
651.3647, 124.9821
651.8469, 123.1694
652.3290, 121.5382
652.8111, 120.1381
653.2932, 118.9611
653.7753, 118.0578
654.2574, 117.7259
654.7396, 117.4469
655.2217, 116.7945
655.7038, 115.7739
656.1859, 114.8038
656.6680, 113.8561
657.1501, 113.1086
657.6323, 112.6800
658.1144, 112.5992
658.5965, 112.6835
659.0786, 113.0241
659.5607, 113.4021
660.0428, 113.6689
660.5250, 113.8313
661.0071, 113.7626
661.4892, 113.4202
661.9713, 112.9656
662.4534, 112.7403
662.9355, 112.5794
663.4177, 112.0064
663.8998, 110.8169
664.3819, 109.2848
664.8640, 107.3283
665.3461, 105.2346
665.8282, 103.5303
666.3104, 102.6250
666.7925, 101.9023
667.2746, 101.1095
667.7567, 100.3096
668.2388, 99.87228
668.7209, 100.0799
669.2031, 100.1928
669.6852, 99.87715
670.1673, 99.18114
670.6494, 98.82307
671.1315, 98.81989
671.6136, 99.00500
672.0958, 99.36471
672.5779, 99.81447
673.0600, 100.0787
673.5421, 100.1347
674.0242, 100.1949
674.5063, 100.2980
674.9885, 100.5567
675.4706, 101.2006
675.9527, 102.5787
676.4348, 103.4904
676.9169, 102.7081
677.3990, 101.6313
677.8812, 101.9319
678.3633, 105.2810
678.8454, 106.9821
679.3275, 106.0911
679.8096, 103.9217
680.2917, 102.8985
680.7739, 103.1087
681.2560, 103.3736
681.7381, 103.3443
682.2202, 103.2057
682.7023, 103.3277
683.1844, 103.6575
683.6666, 103.9788
684.1487, 104.1733
684.6308, 104.3203
685.1129, 104.4664
685.5950, 104.6171
686.0771, 104.8033
686.5593, 105.1510
687.0414, 105.4304
687.5235, 105.4310
688.0056, 105.1070
688.4877, 105.2149
688.9698, 106.0404
689.4520, 106.7861
689.9341, 106.8858
690.4162, 106.3296
690.8983, 105.8304
691.3804, 105.3857
691.8625, 105.0826
692.3447, 105.1731
692.8268, 105.4365
693.3089, 105.3521
693.7910, 104.7121
694.2731, 104.2231
694.7552, 104.5770
695.2374, 105.2772
695.7195, 105.7467
696.2016, 105.5466
696.6837, 105.4863
697.1658, 105.8692
697.6479, 106.3751
698.1301, 106.4789
698.6122, 105.9637
699.0943, 105.6760
699.5764, 105.8295
700.0585, 106.2559
700.5406, 106.6142
701.0228, 106.9017
701.5049, 107.0869
701.9870, 107.0318
702.4691, 106.9661
702.9512, 107.3243
703.4333, 107.9770
703.9155, 108.4202
704.3976, 108.0874
704.8797, 107.7700
705.3618, 107.8625
705.8439, 108.3853
706.3260, 109.1674
706.8082, 110.6582
707.2903, 111.8417
707.7724, 112.1349
708.2545, 111.4845
708.7366, 111.2454
709.2188, 111.4505
709.7009, 111.9143
710.1830, 112.6856
710.6651, 113.5907
711.1472, 114.0362
711.6293, 113.9516
712.1115, 113.6661
712.5936, 113.3633
713.0757, 113.0423
713.5578, 112.7296
714.0399, 112.4982
714.5220, 112.0901
715.0042, 111.2890
715.4863, 110.3550
715.9684, 109.5936
716.4505, 109.3225
716.9326, 108.5444
717.4147, 107.1547
717.8969, 105.2931
718.3790, 103.0413
718.8611, 100.4097
719.3432, 98.05262
719.8253, 96.15955
720.3074, 94.55253
720.7896, 93.06435
721.2717, 91.66381
721.7538, 90.24100
722.2359, 88.54414
722.7180, 87.02612
723.2001, 86.01778
723.6823, 85.38898
724.1644, 84.80323
724.6465, 84.30451
725.1286, 83.72233
725.6107, 82.97049
726.0928, 82.11046
726.5750, 81.40952
727.0571, 80.88472
727.5392, 80.48532
728.0213, 80.22237
728.5034, 80.05523
728.9855, 79.86468
729.4677, 79.65835
729.9498, 79.48726
730.4319, 79.44213
730.9140, 79.40728
731.3961, 79.18910
731.8782, 78.78288
732.3604, 78.67018
732.8425, 79.32323
733.3246, 80.01905
733.8067, 80.36494
734.2888, 80.28650
734.7709, 80.35133
735.2531, 80.61841
735.7352, 80.87732
736.2173, 80.91635
736.6994, 80.78198
737.1815, 80.77132
737.6636, 80.90574
738.1458, 81.12856
738.6279, 81.47393
739.1100, 81.83666
739.5921, 82.01801
740.0742, 81.86848
740.5563, 81.97038
741.0385, 83.13032
741.5206, 84.33658
742.0027, 84.52755
742.4848, 82.85369
742.9669, 81.79480
743.4490, 81.57154
743.9312, 81.73930
744.4133, 81.75728
744.8954, 81.62872
745.3775, 81.49093
745.8596, 81.38731
746.3417, 81.22422
746.8239, 80.79900
747.3060, 80.23913
747.7881, 79.79334
748.2702, 79.57331
748.7523, 79.45261
749.2344, 79.44991
749.7166, 79.49287
750.1987, 79.44893
750.6808, 79.25246
751.1629, 79.04920
751.6450, 78.87801
752.1271, 78.70079
752.6093, 78.38451
753.0914, 77.91047
753.5735, 77.60612
754.0556, 77.72929
754.5377, 77.89268
755.0198, 77.21597
755.5020, 75.97663
755.9841, 75.06897
756.4662, 75.14353
756.9483, 75.45989
757.4304, 75.74162
757.9125, 75.92881
758.3947, 75.84428
758.8768, 75.33004
759.3589, 74.67201
759.8410, 73.78844
760.3231, 72.80804
760.8052, 72.51022
761.2874, 72.98893
761.7695, 73.49866
762.2516, 73.77299
762.7337, 73.79797
763.2158, 73.41098
763.6979, 72.68723
764.1801, 72.06666
764.6622, 71.79857
765.1443, 71.73566
765.6264, 71.85344
766.1085, 72.13264
766.5906, 72.31395
767.0728, 72.44353
767.5549, 72.35111
768.0370, 71.82399
768.5191, 70.88095
769.0012, 70.63267
769.4833, 71.18212
769.9655, 71.81292
770.4476, 72.04078
770.9297, 72.00127
771.4118, 72.02881
771.8939, 72.13040
772.3760, 72.25256
772.8582, 72.53319
773.3403, 72.69387
773.8224, 72.37617
774.3045, 71.45544
774.7866, 70.98164
775.2687, 71.40829
775.7509, 71.99561
776.2330, 72.34274
776.7151, 72.39929
777.1972, 72.79471
777.6793, 73.59550
778.1614, 74.37882
778.6436, 74.77210
779.1257, 74.88037
779.6078, 74.87326
780.0899, 74.76059
780.5720, 74.76247
781.0541, 75.18948
781.5363, 75.68933
782.0184, 75.91502
782.5005, 75.68559
782.9826, 75.73067
783.4647, 76.25959
783.9468, 76.90925
784.4290, 77.45254
784.9111, 77.88835
785.3932, 78.19415
785.8753, 78.32010
786.3574, 78.56759
786.8395, 79.51031
787.3217, 80.72546
787.8038, 81.24178
788.2859, 80.83824
788.7680, 80.48711
789.2501, 80.68509
789.7322, 81.26030
790.2144, 82.11941
790.6965, 83.48022
791.1786, 84.53404
791.6607, 85.01986
792.1428, 85.48930
792.6249, 86.52977
793.1071, 88.18369
793.5892, 89.28915
794.0713, 89.70401
794.5534, 90.05958
795.0355, 90.95960
795.5176, 92.27352
795.9998, 93.87592
796.4819, 95.84028
796.9640, 97.59758
797.4461, 98.56020
797.9282, 99.38474
798.4103, 100.7016
798.8925, 102.8642
799.3746, 104.8403
799.8567, 106.4842
800.3388, 108.1413
800.8209, 110.1809
801.3030, 112.5698
801.7852, 114.8553
802.2673, 116.9926
802.7494, 119.1659
803.2315, 121.5781
803.7136, 124.1179
804.1957, 126.7071
804.6779, 129.5274
805.1600, 131.8061
805.6421, 132.6908
806.1242, 133.2902
806.6063, 134.6383
807.0884, 137.2553
807.5706, 139.1620
808.0527, 140.1749
808.5348, 140.9097
809.0169, 142.1009
809.4990, 143.6029
809.9811, 144.7581
810.4633, 145.4445
810.9454, 146.0737
811.4275, 146.7453
811.9096, 147.6882
812.3917, 149.2297
812.8738, 151.7894
813.3560, 153.9977
813.8381, 155.5010
814.3202, 156.7039
814.8023, 157.9261
815.2844, 159.2017
815.7665, 160.1384
816.2487, 160.6315
816.7308, 161.1860
817.2129, 162.6452
817.6950, 164.5009
818.1771, 165.6440
818.6592, 165.8654
819.1414, 165.6690
819.6235, 165.0577
820.1056, 164.3561
820.5877, 163.9345
821.0698, 164.3535
821.5519, 163.6766
822.0341, 161.5273
822.5162, 158.8216
822.9983, 156.2334
823.4804, 153.7375
823.9625, 150.8939
824.4446, 147.6309
824.9268, 144.4595
825.4089, 141.9654
825.8910, 139.8026
826.3731, 137.6103
826.8552, 135.2953
827.3373, 133.0286
827.8195, 130.9272
828.3016, 128.8244
828.7837, 126.5400
829.2658, 124.0101
829.7479, 121.7746
830.2300, 119.9324
830.7122, 118.1874
831.1943, 116.3442
831.6764, 114.4245
832.1585, 112.5229
832.6406, 110.6550
833.1227, 108.8773
833.6049, 107.5362
834.0870, 106.1133
834.5691, 104.0020
835.0512, 101.0145
835.5333, 98.62411
836.0154, 97.32627
836.4976, 96.06526
836.9797, 94.25340
837.4618, 91.88738
837.9439, 89.82113
838.4260, 88.04768
838.9081, 86.47086
839.3903, 85.13103
839.8724, 83.88538
840.3545, 82.54093
840.8366, 81.10400
841.3187, 79.71824
841.8008, 78.55898
842.2830, 77.37963
842.7651, 75.88879
843.2472, 74.13539
843.7293, 73.23806
844.2114, 73.47646
844.6935, 73.64426
845.1757, 73.06729
845.6578, 72.02247
846.1399, 71.27974
846.6220, 70.80901
847.1041, 70.43911
847.5862, 70.20095
848.0684, 69.91294
848.5505, 69.29497
849.0326, 68.46514
849.5147, 68.04780
849.9968, 68.52401
850.4789, 68.78981
850.9611, 68.47961
851.4432, 67.79243
851.9253, 67.38144
852.4074, 67.24361
852.8895, 67.29811
853.3716, 67.72714
853.8538, 68.07620
854.3359, 67.58002
854.8180, 66.57468
855.3001, 65.86449
855.7822, 65.87259
856.2643, 66.05781
856.7465, 66.39440
857.2286, 66.76679
857.7107, 66.95821
858.1928, 66.94084
858.6749, 66.86801
859.1570, 66.75684
859.6392, 66.63544
860.1213, 66.51460
860.6034, 66.42319
861.0855, 66.44122
861.5676, 66.64337
862.0497, 66.86824
862.5319, 66.99880
863.0140, 67.11221
863.4961, 67.31894
863.9782, 67.68557
864.4603, 68.03559
864.9424, 68.39863
865.4246, 68.68479
865.9067, 68.75029
866.3888, 68.62943
866.8709, 68.44662
867.3530, 68.17646
867.8351, 68.13394
868.3173, 68.89346
868.7994, 69.84942
869.2815, 70.31738
869.7636, 69.95371
870.2457, 69.79238
870.7278, 70.09166
871.2100, 70.42765
871.6921, 70.43796
872.1742, 70.10567
872.6563, 70.03836
873.1384, 70.25916
873.6205, 70.56702
874.1027, 70.79056
874.5848, 71.00407
875.0669, 71.35415
875.5490, 71.84461
876.0311, 72.19376
876.5132, 72.04424
876.9954, 71.98274
877.4775, 72.36520
877.9596, 73.16640
878.4417, 73.58337
878.9238, 73.56295
879.4059, 73.46976
879.8881, 73.40902
880.3702, 73.45983
880.8523, 73.84813
881.3344, 74.51226
881.8165, 75.18930
882.2986, 75.89578
882.7808, 76.43520
883.2629, 76.47877
883.7450, 76.25195
884.2271, 76.61228
884.7092, 77.78320
885.1913, 78.90133
885.6735, 79.73518
886.1556, 80.40008
886.6377, 81.19248
887.1198, 82.03076
887.6019, 82.65545
888.0840, 82.79050
888.5662, 82.96960
889.0483, 83.55868
889.5304, 84.40481
890.0125, 85.26400
890.4946, 86.15054
890.9767, 86.96481
891.4589, 87.63150
891.9410, 88.34668
892.4231, 89.40620
892.9052, 90.77187
893.3873, 92.21339
893.8694, 93.73393
894.3516, 95.15579
894.8337, 95.94552
895.3158, 96.77963
895.7979, 98.37593
896.2800, 101.0202
896.7621, 103.8858
897.2443, 107.1337
897.7264, 110.2190
898.2085, 112.4626
898.6906, 113.9125
899.1727, 116.6862
899.6548, 120.7679
900.1370, 125.2505
900.6191, 129.3225
901.1012, 133.4926
901.5833, 138.1895
902.0654, 143.3860
902.5475, 149.1246
903.0297, 155.2738
903.5118, 162.1053
903.9939, 169.6369
904.4760, 177.8454
904.9581, 187.0726
905.4402, 197.3354
905.9224, 207.3725
906.4045, 216.3388
906.8866, 225.4721
907.3687, 236.3776
907.8508, 248.7240
908.3329, 261.5476
908.8151, 273.9916
909.2972, 287.5715
909.7793, 302.4074
910.2614, 318.6142
910.7435, 336.3911
911.2256, 355.7361
911.7078, 376.5707
912.1899, 398.9922
912.6720, 423.3896
913.1541, 450.7619
913.6362, 480.0353
914.1183, 509.5591
914.6005, 539.1182
915.0826, 568.4391
915.5647, 599.5317
916.0468, 628.5490
916.5289, 653.5606
917.0110, 675.0300
917.4932, 689.5325
917.9753, 697.2853
918.4574, 697.0615
918.9395, 686.6927
919.4216, 668.3401
919.9037, 644.1119
920.3859, 614.3996
920.8680, 582.4183
921.3501, 545.5403
921.8322, 510.5176
922.3143, 479.6075
922.7964, 452.8232
923.2786, 429.2930
923.7607, 409.1029
924.2428, 391.5644
924.7249, 377.1044
925.2070, 364.4783
925.6891, 352.1242
926.1713, 340.2280
926.6534, 329.3240
927.1355, 321.1129
927.6176, 312.1102
928.0997, 300.8128
928.5818, 288.3405
929.0640, 275.9525
929.5461, 263.5835
930.0282, 251.2222
930.5103, 238.9045
930.9924, 226.8844
931.4745, 215.3902
931.9567, 204.6355
932.4388, 194.9030
932.9209, 186.3938
933.4030, 178.3529
933.8851, 170.4329
934.3672, 163.0822
934.8494, 156.6935
935.3315, 151.2420
935.8136, 145.8284
936.2957, 140.3917
936.7778, 135.5509
937.2599, 131.6700
937.7421, 128.5908
938.2242, 126.2175
938.7063, 124.4182
939.1884, 122.6498
939.6705, 120.6072
940.1526, 118.6677
940.6348, 117.0332
941.1169, 115.5330
941.5990, 113.7118
942.0811, 111.5124
942.5632, 109.7988
943.0453, 108.8552
943.5275, 108.2881
944.0096, 107.6444
944.4917, 107.0025
944.9738, 106.4589
945.4559, 105.9503
945.9380, 105.7643
946.4202, 106.5334
946.9023, 107.1660
947.3844, 106.7010
947.8665, 104.9980
948.3486, 104.0968
948.8307, 104.0614
949.3129, 104.0727
949.7950, 103.5042
950.2771, 102.6038
950.7592, 101.6697
951.2413, 100.7021
951.7234, 99.57923
952.2056, 98.04003
952.6877, 96.60922
953.1698, 95.44358
953.6519, 94.49171
954.1340, 93.66213
954.6161, 92.93838
955.0983, 91.94991
955.5804, 90.37937
956.0625, 88.85828
956.5446, 88.20876
957.0267, 87.97703
957.5089, 87.47297
957.9910, 86.14249
958.4731, 85.11086
958.9552, 84.47147
959.4373, 84.05870
959.9194, 83.72674
960.4016, 83.47192
960.8837, 83.30296
961.3658, 83.22292
961.8479, 83.09811
962.3300, 82.80363
962.8121, 82.43681
963.2943, 82.03174
963.7764, 81.59459
964.2585, 81.33802
964.7406, 81.31927
965.2227, 81.38729
965.7048, 81.53414
966.1870, 81.69743
966.6691, 81.63729
967.1512, 81.42441
967.6333, 81.36563
968.1154, 81.78563
968.5975, 82.12988
969.0797, 81.98342
969.5618, 81.59622
970.0439, 81.35426
970.5260, 81.30198
971.0081, 81.29618
971.4902, 81.30217
971.9724, 81.42899
972.4545, 81.87177
972.9366, 82.51119
973.4187, 83.13103
973.9008, 83.70912
974.3829, 84.00143
974.8651, 83.49348
975.3472, 83.02351
975.8293, 83.20168
976.3114, 83.92430
976.7935, 83.95618
977.2756, 83.18376
977.7578, 82.63728
978.2399, 82.89807
978.7220, 83.46770
979.2041, 83.56258
979.6862, 83.37255
980.1683, 83.30725
980.6505, 83.64915
981.1326, 83.95444
981.6147, 84.21853
982.0968, 84.34878
982.5789, 84.12743
983.0610, 83.55080
983.5432, 83.36659
984.0253, 83.65726
984.5074, 84.08775
984.9895, 84.43694
985.4716, 84.72582
985.9537, 85.00687
986.4359, 85.28750
986.9180, 85.34054
987.4001, 84.80007
987.8822, 84.65280
988.3643, 85.41688
988.8464, 86.74364
989.3286, 87.39231
989.8107, 87.53965
990.2928, 88.07616
990.7749, 89.70747
991.2570, 91.34745
991.7391, 92.08495
992.2213, 92.48440
992.7034, 93.42439
993.1855, 95.11238
993.6676, 96.81121
994.1497, 98.42854
994.6318, 100.2671
995.1140, 102.9802
995.5961, 106.0056
996.0782, 108.0627
996.5603, 109.1038
997.0424, 110.2227
997.5245, 111.7814
998.0067, 113.7246
998.4888, 116.0872
998.9709, 118.7832
999.4530, 121.5233
999.9351, 124.2813
1000.417, 127.4183
1000.899, 131.2748
1001.381, 135.1987
1001.864, 138.5177
1002.346, 141.4001
1002.828, 144.1095
1003.310, 147.1459
1003.792, 149.1756
1004.274, 150.1801
1004.756, 150.1771
1005.238, 148.9761
1005.721, 146.7130
1006.203, 144.2897
1006.685, 141.7690
1007.167, 139.0279
1007.649, 135.8540
1008.131, 132.5877
1008.613, 129.3401
1009.095, 126.2199
1009.577, 123.5851
1010.060, 121.5826
1010.542, 119.6299
1011.024, 117.5124
1011.506, 115.5477
1011.988, 114.3357
1012.470, 113.6412
1012.952, 112.9686
1013.434, 112.1051
1013.917, 111.5628
1014.399, 111.8222
1014.881, 112.2469
1015.363, 112.4418
1015.845, 112.4049
1016.327, 112.3021
1016.809, 112.1329
1017.291, 112.0421
1017.773, 112.4202
1018.256, 112.6803
1018.738, 112.0893
1019.220, 110.9053
1019.702, 109.9001
1020.184, 109.4066
1020.666, 108.7616
1021.148, 107.8866
1021.630, 106.8258
1022.112, 105.6093
1022.595, 104.2689
1023.077, 102.8952
1023.559, 101.4894
1024.041, 100.1918
1024.523, 99.07519
1025.005, 98.10290
1025.487, 97.34396
1025.969, 96.76185
1026.452, 95.92895
1026.934, 94.81557
1027.416, 93.68981
1027.898, 92.63899
1028.380, 91.67509
1028.862, 90.79902
1029.344, 90.03928
1029.826, 89.44048
1030.308, 89.15548
1030.791, 88.84737
1031.273, 88.54035
1031.755, 88.13871
1032.237, 87.49810
1032.719, 86.65280
1033.201, 85.80146
1033.683, 84.96520
1034.165, 84.50994
1034.647, 85.07616
1035.130, 85.75047
1035.612, 86.00370
1036.094, 85.83858
1036.576, 85.41601
1037.058, 84.64791
1037.540, 84.05260
1038.022, 83.79428
1038.504, 83.67583
1038.987, 83.54716
1039.469, 83.32322
1039.951, 82.81896
1040.433, 81.91193
1040.915, 81.05216
1041.397, 80.32133
1041.879, 79.68977
1042.361, 79.09171
1042.844, 78.84641
1043.326, 78.45235
1043.808, 78.71539
1044.290, 79.03240
1044.772, 79.37206
1045.254, 79.56578
1045.736, 79.44303
1046.218, 79.11613
1046.700, 78.77071
1047.183, 78.27850
1047.665, 78.29000
1048.147, 78.95988
1048.629, 79.73286
1049.111, 79.73573
1049.593, 79.59258
1050.075, 80.53059
1050.557, 82.60204
1051.040, 84.26200
1051.522, 84.54628
1052.004, 84.85215
1052.486, 85.56336
1052.968, 86.57313
1053.450, 87.57481
1053.932, 88.59050
1054.414, 89.72215
1054.896, 90.93027
1055.379, 92.47381
1055.861, 94.70185
1056.343, 97.26467
1056.825, 99.84615
1057.307, 102.4408
1057.789, 104.8530
1058.271, 106.9721
1058.753, 109.5768
1059.235, 113.7296
1059.718, 118.2880
1060.200, 121.4306
1060.682, 123.5572
1061.164, 125.8016
1061.646, 129.0041
1062.128, 131.6893
1062.610, 133.7932
1063.092, 135.1320
1063.574, 135.5956
1064.057, 135.1187
1064.539, 133.3013
1065.021, 130.0912
1065.503, 126.1133
1065.985, 120.8426
1066.467, 115.7533
1066.949, 111.9011
1067.431, 108.9813
1067.914, 105.4909
1068.396, 101.3161
1068.878, 97.71478
1069.360, 95.07414
1069.842, 92.98051
1070.324, 90.95204
1070.806, 89.14898
1071.288, 87.87118
1071.771, 87.39721
1072.253, 86.70419
1072.735, 85.64123
1073.217, 84.61704
1073.699, 83.90228
1074.181, 83.41302
1074.663, 82.91859
1075.145, 82.43453
1075.627, 82.03389
1076.110, 81.72540
1076.592, 81.53513
1077.074, 81.67131
1077.556, 81.77547
1078.038, 81.36907
1078.520, 80.45631
1079.002, 79.66609
1079.484, 79.04276
1079.967, 78.61059
1080.449, 78.35569
1080.931, 78.33786
1081.413, 78.72270
1081.895, 79.43726
1082.377, 79.99255
1082.859, 80.42483
1083.341, 80.48669
1083.823, 79.99844
1084.306, 79.44833
1084.788, 79.90077
1085.270, 80.58372
1085.752, 80.05499
1086.234, 77.68591
1086.716, 76.33224
1087.198, 76.98491
1087.680, 77.86890
1088.162, 78.24106
1088.645, 78.20878
1089.127, 78.09119
1089.609, 77.89236
1090.091, 77.61942
1090.573, 77.17693
1091.055, 76.81859
1091.537, 76.79836
1092.019, 76.81524
1092.501, 76.57755
1092.984, 76.06776
1093.466, 75.44997
1093.948, 74.71970
1094.430, 74.11366
1094.912, 73.75082
1095.394, 73.61474
1095.876, 73.90100
1096.358, 74.40120
1096.841, 74.43493
1097.323, 73.70021
1097.805, 73.39726
1098.287, 73.76970
1098.769, 74.27504
1099.251, 74.27213
1099.733, 73.99599
1100.215, 73.72204
1100.698, 73.48531
1101.180, 73.55790
1101.662, 74.38147
1102.144, 74.93613
1102.626, 74.78374
1103.108, 74.35435
1103.590, 74.92339
1104.072, 76.08137
1104.554, 76.44359
1105.037, 75.41842
1105.519, 74.40286
1106.001, 74.11064
1106.483, 74.03828
1106.965, 73.83675
1107.447, 73.53107
1107.929, 73.55238
1108.411, 73.87254
1108.894, 74.00609
1109.376, 73.54553
1109.858, 73.03098
1110.340, 73.02825
1110.822, 73.16017
1111.304, 72.82851
1111.786, 71.76616
1112.268, 71.21878
1112.750, 71.27880
1113.233, 71.36298
1113.715, 71.00113
1114.197, 70.41686
1114.679, 69.70093
1115.161, 68.97653
1115.643, 68.66998
1116.125, 69.17727
1116.607, 69.49149
1117.089, 69.48490
1117.572, 69.26814
1118.054, 68.88942
1118.536, 68.43312
1119.018, 68.05162
1119.500, 67.76316
1119.982, 67.61015
1120.464, 67.75677
1120.946, 67.86385
1121.428, 67.82178
1121.911, 67.67905
1122.393, 67.47237
1122.875, 67.25298
1123.357, 67.31271
1123.839, 67.80284
1124.321, 68.15588
1124.803, 67.93443
1125.285, 67.54576
1125.768, 67.20697
1126.250, 66.93771
1126.732, 67.00196
1127.214, 67.38367
1127.696, 67.63947
1128.178, 67.49967
1128.660, 67.32436
1129.142, 67.48795
1129.625, 67.75052
1130.107, 67.80757
1130.589, 67.61510
1131.071, 67.35022
1131.553, 66.98654
1132.035, 66.74535
1132.517, 66.93540
1132.999, 67.20284
1133.481, 67.10854
1133.964, 66.76572
1134.446, 66.42186
1134.928, 65.96563
1135.410, 65.87157
1135.892, 66.27120
1136.374, 66.70708
1136.856, 66.62286
1137.338, 66.31271
1137.821, 66.30962
1138.303, 66.59019
1138.785, 66.84390
1139.267, 66.90737
1139.749, 67.03515
1140.231, 67.30943
1140.713, 67.60374
1141.195, 67.84919
1141.677, 67.94942
1142.160, 67.44461
1142.642, 66.26155
1143.124, 65.50378
1143.606, 66.14874
1144.088, 66.78506
1144.570, 66.81360
1145.052, 66.50442
1145.534, 66.57834
1146.016, 66.98941
1146.499, 67.58228
1146.981, 68.43446
1147.463, 68.89401
1147.945, 68.18551
1148.427, 67.27976
1148.909, 66.76641
1149.391, 66.63972
1149.873, 66.98835
1150.355, 67.78117
1150.838, 68.26797
1151.320, 68.05447
1151.802, 67.68006
1152.284, 67.48381
1152.766, 67.39882
1153.248, 67.38756
1153.730, 67.47983
1154.212, 67.25568
1154.695, 66.67637
1155.177, 66.32565
1155.659, 66.80722
1156.141, 67.39281
1156.623, 67.26821
1157.105, 66.78231
1157.587, 66.59637
1158.069, 66.93805
1158.552, 67.00311
1159.034, 66.73758
1159.516, 66.42623
1159.998, 66.26567
1160.480, 66.20903
1160.962, 66.21218
1161.444, 66.26991
1161.926, 66.37743
1162.408, 66.58038
1162.891, 66.74140
1163.373, 66.87229
1163.855, 66.88221
1164.337, 66.49197
1164.819, 66.00996
1165.301, 66.10812
1165.783, 66.69978
1166.265, 66.81917
1166.748, 65.58595
1167.230, 65.06841
1167.712, 65.86610
1168.194, 67.05267
1168.676, 67.23148
1169.158, 66.81219
1169.640, 66.69841
1170.122, 66.99996
1170.604, 67.05383
1171.087, 66.35116
1171.569, 65.74816
1172.051, 65.42650
1172.533, 65.38233
1173.015, 65.76367
1173.497, 66.39586
1173.979, 66.78500
1174.461, 66.80308
1174.943, 66.77408
1175.426, 66.86612
1175.908, 66.87619
1176.390, 66.69289
1176.872, 66.38425
1177.354, 66.07017
1177.836, 65.81676
1178.318, 65.92075
1178.800, 66.65280
1179.282, 67.19077
1179.765, 66.97167
1180.247, 66.63470
1180.729, 66.54708
1181.211, 66.66044
1181.693, 66.70989
1182.175, 66.70366
1182.657, 66.68737
1183.139, 66.69938
1183.622, 66.67026
1184.104, 66.55254
1184.586, 66.38927
1185.068, 66.15180
1185.550, 65.85983
1186.032, 66.01886
1186.514, 66.56907
1186.996, 67.00175
1187.479, 67.05931
1187.961, 66.90218
1188.443, 66.34840
1188.925, 65.79753
1189.407, 65.76033
1189.889, 66.26173
1190.371, 66.20798
1190.853, 65.61606
1191.335, 65.23180
1191.818, 65.84039
1192.300, 66.44126
1192.782, 66.32927
1193.264, 65.92068
1193.746, 65.83777
1194.228, 66.09538
1194.710, 66.34490
1195.192, 66.56292
1195.675, 66.61858
1196.157, 66.27940
1196.639, 65.88636
1197.121, 65.59733
1197.603, 65.43642
1198.085, 65.46581
1198.567, 65.69628
1199.049, 65.95588
1199.531, 66.23910
1200.014, 66.30709
1200.496, 65.69370
1200.978, 65.05766
1201.460, 64.95284
1201.942, 65.18600
1202.424, 65.14439
1202.906, 64.81207
1203.388, 64.63876
1203.870, 64.70491
1204.353, 64.82755
1204.835, 64.88549
1205.317, 64.90694
1205.799, 65.00490
1206.281, 65.08506
1206.763, 64.62657
1207.245, 63.59479
1207.727, 63.11891
1208.209, 63.51951
1208.692, 64.03526
1209.174, 64.07834
1209.656, 63.89355
1210.138, 63.53712
1210.620, 63.10728
1211.102, 63.21598
1211.584, 63.88427
1212.066, 64.29182
1212.549, 64.18737
1213.031, 63.85612
1213.513, 63.19832
1213.995, 62.69319
1214.477, 62.92455
1214.959, 63.76842
1215.441, 64.25710
1215.923, 64.39351
1216.406, 64.21258
1216.888, 63.64915
1217.370, 63.02347
1217.852, 62.44556
1218.334, 62.06603
1218.816, 62.08034
1219.298, 62.45882
1219.780, 62.77353
1220.262, 63.02562
1220.745, 63.23653
1221.227, 63.46287
1221.709, 63.54683
1222.191, 63.28809
1222.673, 62.87566
1223.155, 62.43983
1223.637, 61.98710
1224.119, 61.85839
1224.602, 62.03969
1225.084, 62.33057
1225.566, 62.74821
1226.048, 63.04753
1226.530, 63.02060
1227.012, 62.80367
1227.494, 62.47900
1227.976, 62.05041
1228.458, 62.16433
1228.941, 62.75828
1229.423, 62.91704
1229.905, 61.70660
1230.387, 60.69639
1230.869, 61.01892
1231.351, 61.87372
1231.833, 62.55896
1232.315, 63.07284
1232.797, 63.09566
1233.280, 62.67877
1233.762, 62.29218
1234.244, 62.31348
1234.726, 62.25552
1235.208, 61.60990
1235.690, 60.98906
1236.172, 61.09346
1236.654, 61.87687
1237.136, 61.84565
1237.619, 61.12516
1238.101, 60.61829
1238.583, 61.09255
1239.065, 61.53257
1239.547, 61.39201
1240.029, 61.18705
1240.511, 61.48342
1240.993, 62.18008
1241.476, 62.34787
1241.958, 62.05157
1242.440, 61.74962
1242.922, 61.66787
1243.404, 61.61674
1243.886, 61.59291
1244.368, 61.51394
1244.850, 61.23719
1245.333, 60.83193
1245.815, 60.63463
1246.297, 60.61750
1246.779, 60.59582
1247.261, 60.31065
1247.743, 60.28672
1248.225, 60.71019
1248.707, 61.24492
1249.189, 61.67191
1249.672, 61.91150
1250.154, 61.55641
1250.636, 60.76329
1251.118, 60.28001
1251.600, 60.76575
1252.082, 61.02735
1252.564, 60.86845
1253.046, 60.57510
1253.529, 60.37458
1254.011, 60.28703
1254.493, 60.40008
1254.975, 60.67482
1255.457, 60.94210
1255.939, 61.36345
1256.421, 61.31965
1256.903, 60.60877
1257.385, 59.90113
1257.868, 59.91576
1258.350, 60.31115
1258.832, 60.66130
1259.314, 60.94057
1259.796, 61.12629
1260.278, 61.15357
1260.760, 61.32076
1261.242, 61.71190
1261.724, 61.96043
1262.207, 61.53344
1262.689, 60.92589
1263.171, 60.73043
1263.653, 60.83285
1264.135, 60.71670
1264.617, 60.28197
1265.099, 59.98644
1265.581, 59.86474
1266.063, 59.96547
1266.546, 60.59169
1267.028, 61.21970
1267.510, 61.32916
1267.992, 61.10933
1268.474, 61.09319
1268.956, 61.30156
1269.438, 61.47123
1269.920, 61.58153
1270.403, 61.55013
1270.885, 61.17462
1271.367, 60.78526
1271.849, 60.60588
1272.331, 60.53389
1272.813, 60.43619
1273.295, 60.30650
1273.777, 60.00076
1274.260, 59.52008
1274.742, 59.18681
1275.224, 59.34802
1275.706, 59.50221
1276.188, 59.38271
1276.670, 59.23517
1277.152, 59.50649
1277.634, 60.06108
1278.116, 60.28599
1278.599, 60.17661
1279.081, 60.07673
1279.563, 60.18802
1280.045, 60.26762
1280.527, 60.29543
1281.009, 60.22277
1281.491, 59.94649
1281.973, 59.53917
1282.456, 59.13036
1282.938, 58.73723
1283.420, 58.37989
1283.902, 57.87350
1284.384, 57.85166
1284.866, 58.54285
1285.348, 59.22778
1285.830, 58.87104
1286.313, 58.18529
1286.795, 58.26308
1287.277, 58.91426
1287.759, 59.03064
1288.241, 58.31783
1288.723, 57.90133
1289.205, 57.92048
1289.687, 58.06285
1290.169, 58.09287
1290.651, 58.08460
1291.134, 58.13092
1291.616, 58.18438
1292.098, 58.08835
1292.580, 57.81408
##END=



