##NAMES=Andalusite
##RRUFFID=R050258
##IDEAL CHEMISTRY=Al_2_SiO_5_
##LOCALITY=Bautista Canyon, near Hemet, Riverside County, California, USA
##OWNER=RRUFF
##SOURCE=Marcus Origlieri
##DESCRIPTION=Brown fragment
##STATUS=The identification of this mineral has been confirmed by X-ray diffraction and chemical analysis
##URL=rruff.info/R050258
##MEASURED CHEMISTRY=Al_2.00_Si_1.00_O_5_
92.67285, 1817.857
93.15497, 1809.305
93.63708, 1818.642
94.11920, 1878.550
94.60132, 1939.845
95.08344, 1999.667
95.56555, 2028.667
96.04767, 2034.227
96.52979, 2032.716
97.01190, 2025.760
97.49402, 2017.028
97.97614, 2008.711
98.45825, 1999.992
98.94037, 1991.387
99.42249, 1979.984
99.90460, 1963.918
100.3867, 1948.105
100.8688, 1934.818
101.3510, 1924.034
101.8331, 1915.552
102.3152, 1907.881
102.7973, 1899.390
103.2794, 1889.768
103.7615, 1881.936
104.2437, 1877.773
104.7258, 1875.440
105.2079, 1873.914
105.6900, 1872.947
106.1721, 1872.226
106.6542, 1870.959
107.1364, 1867.914
107.6185, 1865.132
108.1006, 1862.784
108.5827, 1860.979
109.0648, 1859.883
109.5469, 1859.609
110.0291, 1860.091
110.5112, 1860.757
110.9933, 1862.242
111.4754, 1863.192
111.9575, 1862.752
112.4396, 1861.250
112.9218, 1859.746
113.4039, 1859.296
113.8860, 1860.217
114.3681, 1860.769
114.8502, 1860.762
115.3323, 1860.519
115.8144, 1860.049
116.2966, 1859.347
116.7787, 1858.954
117.2608, 1859.905
117.7429, 1862.249
118.2250, 1864.169
118.7071, 1865.461
119.1893, 1866.008
119.6714, 1865.333
120.1535, 1862.603
120.6356, 1859.598
121.1177, 1858.349
121.5998, 1858.848
122.0820, 1859.645
122.5641, 1859.608
123.0462, 1858.677
123.5283, 1857.857
124.0104, 1857.157
124.4925, 1856.786
124.9747, 1857.150
125.4568, 1858.317
125.9389, 1859.573
126.4210, 1859.647
126.9031, 1857.633
127.3852, 1856.252
127.8674, 1856.539
128.3495, 1857.157
128.8316, 1856.751
129.3137, 1854.705
129.7958, 1851.616
130.2780, 1849.662
130.7601, 1850.214
131.2422, 1850.507
131.7243, 1849.987
132.2064, 1849.052
132.6885, 1848.364
133.1707, 1848.351
133.6528, 1848.965
134.1349, 1849.576
134.6170, 1850.409
135.0991, 1851.063
135.5812, 1851.209
136.0633, 1850.937
136.5455, 1850.827
137.0276, 1851.707
137.5097, 1853.140
137.9918, 1852.987
138.4739, 1849.047
138.9560, 1844.518
139.4382, 1843.489
139.9203, 1846.930
140.4024, 1850.195
140.8845, 1849.062
141.3666, 1845.236
141.8487, 1841.567
142.3309, 1838.884
142.8130, 1837.244
143.2951, 1837.001
143.7772, 1839.103
144.2593, 1841.370
144.7414, 1843.058
145.2236, 1844.094
145.7057, 1844.365
146.1878, 1843.470
146.6699, 1841.300
147.1520, 1839.892
147.6341, 1839.877
148.1163, 1840.161
148.5984, 1840.407
149.0805, 1840.598
149.5626, 1840.908
150.0447, 1841.623
150.5268, 1843.157
151.0090, 1843.752
151.4911, 1842.622
151.9732, 1841.326
152.4553, 1841.211
152.9374, 1842.353
153.4195, 1843.382
153.9017, 1842.143
154.3838, 1836.248
154.8659, 1832.819
155.3480, 1833.607
155.8301, 1836.084
156.3122, 1837.697
156.7944, 1837.631
157.2765, 1836.597
157.7586, 1835.764
158.2407, 1835.155
158.7228, 1834.591
159.2049, 1834.327
159.6871, 1834.087
160.1692, 1833.079
160.6513, 1830.662
161.1334, 1827.921
161.6155, 1826.449
162.0976, 1826.338
162.5798, 1826.753
163.0619, 1827.569
163.5440, 1828.713
164.0261, 1829.044
164.5082, 1827.459
164.9903, 1825.373
165.4725, 1824.184
165.9546, 1824.180
166.4367, 1824.218
166.9188, 1822.569
167.4009, 1818.499
167.8830, 1815.791
168.3652, 1815.982
168.8473, 1817.443
169.3294, 1819.560
169.8115, 1822.157
170.2936, 1824.448
170.7757, 1824.742
171.2579, 1821.654
171.7400, 1819.011
172.2221, 1817.203
172.7042, 1816.029
173.1863, 1815.518
173.6684, 1815.679
174.1506, 1816.109
174.6327, 1815.574
175.1148, 1812.406
175.5969, 1810.107
176.0790, 1809.344
176.5611, 1809.480
177.0433, 1809.675
177.5254, 1809.484
178.0075, 1809.039
178.4896, 1809.005
178.9717, 1809.702
179.4538, 1810.398
179.9360, 1811.243
180.4181, 1811.980
180.9002, 1811.946
181.3823, 1810.573
181.8644, 1808.272
182.3465, 1807.074
182.8287, 1808.307
183.3108, 1809.195
183.7929, 1807.905
184.2750, 1804.865
184.7571, 1802.278
185.2392, 1801.420
185.7214, 1802.058
186.2035, 1803.040
186.6856, 1805.478
187.1677, 1807.135
187.6498, 1805.195
188.1319, 1799.458
188.6141, 1794.565
189.0962, 1793.722
189.5783, 1795.172
190.0604, 1796.695
190.5425, 1798.114
191.0246, 1799.105
191.5068, 1799.122
191.9889, 1797.953
192.4710, 1796.506
192.9531, 1794.563
193.4352, 1792.792
193.9173, 1792.175
194.3995, 1793.505
194.8816, 1795.644
195.3637, 1795.711
195.8458, 1792.117
196.3279, 1789.397
196.8100, 1789.649
197.2922, 1791.094
197.7743, 1791.614
198.2564, 1790.031
198.7385, 1786.944
199.2206, 1784.657
199.7027, 1783.926
200.1849, 1783.047
200.6670, 1780.699
201.1491, 1778.245
201.6312, 1777.806
202.1133, 1780.800
202.5954, 1786.371
203.0776, 1789.406
203.5597, 1786.966
204.0418, 1784.892
204.5239, 1784.784
205.0060, 1785.557
205.4881, 1785.303
205.9703, 1782.770
206.4524, 1778.293
206.9345, 1774.809
207.4166, 1772.421
207.8987, 1770.777
208.3808, 1770.631
208.8630, 1771.220
209.3451, 1770.818
209.8272, 1768.143
210.3093, 1763.669
210.7914, 1761.021
211.2735, 1761.023
211.7557, 1761.566
212.2378, 1762.243
212.7199, 1762.861
213.2020, 1762.852
213.6841, 1761.685
214.1662, 1759.661
214.6484, 1758.292
215.1305, 1758.687
215.6126, 1758.615
216.0947, 1755.971
216.5768, 1751.259
217.0589, 1747.847
217.5410, 1748.193
218.0232, 1750.992
218.5053, 1752.407
218.9874, 1752.001
219.4695, 1750.705
219.9516, 1748.841
220.4337, 1746.434
220.9159, 1744.605
221.3980, 1744.217
221.8801, 1744.624
222.3622, 1744.959
222.8443, 1745.245
223.3264, 1745.191
223.8086, 1744.264
224.2907, 1742.343
224.7728, 1740.679
225.2549, 1739.868
225.7370, 1739.539
226.2191, 1739.476
226.7013, 1739.694
227.1834, 1739.932
227.6655, 1740.030
228.1476, 1740.147
228.6297, 1739.381
229.1118, 1736.137
229.5940, 1732.623
230.0761, 1730.632
230.5582, 1730.731
231.0403, 1731.672
231.5224, 1731.635
232.0045, 1730.386
232.4867, 1728.828
232.9688, 1725.898
233.4509, 1723.468
233.9330, 1723.729
234.4151, 1727.148
234.8972, 1731.045
235.3794, 1730.548
235.8615, 1722.610
236.3436, 1717.333
236.8257, 1716.828
237.3078, 1718.075
237.7899, 1719.431
238.2721, 1720.312
238.7542, 1720.483
239.2363, 1719.452
239.7184, 1716.406
240.2005, 1713.701
240.6826, 1711.150
241.1648, 1709.046
241.6469, 1707.629
242.1290, 1706.948
242.6111, 1706.904
243.0932, 1707.434
243.5753, 1709.127
244.0575, 1710.176
244.5396, 1710.267
245.0217, 1710.017
245.5038, 1710.081
245.9859, 1710.485
246.4680, 1710.465
246.9502, 1708.781
247.4323, 1703.852
247.9144, 1701.436
248.3965, 1704.198
248.8786, 1707.408
249.3607, 1707.094
249.8429, 1702.889
250.3250, 1697.831
250.8071, 1695.549
251.2892, 1697.099
251.7713, 1697.956
252.2534, 1698.217
252.7356, 1697.749
253.2177, 1695.958
253.6998, 1692.969
254.1819, 1690.122
254.6640, 1688.841
255.1461, 1689.470
255.6283, 1689.778
256.1104, 1689.887
256.5925, 1689.616
257.0746, 1688.438
257.5567, 1686.448
258.0388, 1684.932
258.5210, 1685.318
259.0031, 1687.619
259.4852, 1688.354
259.9673, 1685.907
260.4494, 1683.111
260.9315, 1682.312
261.4137, 1683.474
261.8958, 1684.689
262.3779, 1684.587
262.8600, 1683.318
263.3421, 1682.312
263.8242, 1681.765
264.3064, 1681.339
264.7885, 1680.853
265.2706, 1680.294
265.7527, 1679.537
266.2348, 1678.215
266.7169, 1676.765
267.1991, 1676.246
267.6812, 1676.774
268.1633, 1678.122
268.6454, 1680.581
269.1275, 1684.012
269.6096, 1687.046
270.0918, 1688.993
270.5739, 1690.161
271.0560, 1691.182
271.5381, 1691.896
272.0202, 1692.881
272.5023, 1694.535
272.9845, 1696.836
273.4666, 1699.682
273.9487, 1703.748
274.4308, 1707.691
274.9129, 1709.860
275.3951, 1710.044
275.8772, 1709.599
276.3593, 1709.076
276.8414, 1708.561
277.3235, 1708.615
277.8056, 1709.415
278.2878, 1710.856
278.7699, 1712.836
279.2520, 1715.348
279.7341, 1717.839
280.2162, 1719.826
280.6983, 1721.450
281.1805, 1723.342
281.6626, 1725.471
282.1447, 1728.088
282.6268, 1730.916
283.1089, 1734.139
283.5910, 1738.618
284.0732, 1745.662
284.5553, 1754.473
285.0374, 1762.140
285.5195, 1768.184
286.0016, 1773.562
286.4837, 1777.844
286.9659, 1781.938
287.4480, 1787.923
287.9301, 1797.773
288.4122, 1810.038
288.8943, 1820.719
289.3764, 1829.537
289.8586, 1837.358
290.3407, 1846.254
290.8228, 1854.205
291.3049, 1858.511
291.7870, 1858.254
292.2691, 1853.515
292.7513, 1843.860
293.2334, 1828.324
293.7155, 1810.534
294.1976, 1789.854
294.6797, 1768.636
295.1618, 1748.603
295.6440, 1730.325
296.1261, 1713.926
296.6082, 1699.937
297.0903, 1688.816
297.5724, 1678.165
298.0545, 1665.315
298.5367, 1653.929
299.0188, 1647.427
299.5009, 1646.363
299.9830, 1646.979
300.4651, 1644.938
300.9472, 1639.757
301.4294, 1635.514
301.9115, 1632.609
302.3936, 1631.035
302.8757, 1631.442
303.3578, 1633.534
303.8399, 1635.691
304.3221, 1636.756
304.8042, 1636.724
305.2863, 1635.332
305.7684, 1630.599
306.2505, 1626.601
306.7326, 1625.191
307.2148, 1626.019
307.6969, 1628.032
308.1790, 1631.111
308.6611, 1634.882
309.1432, 1636.865
309.6253, 1635.976
310.1075, 1634.728
310.5896, 1633.412
311.0717, 1632.526
311.5538, 1632.899
312.0359, 1635.187
312.5180, 1638.686
313.0002, 1641.447
313.4823, 1642.848
313.9644, 1644.792
314.4465, 1647.568
314.9286, 1651.175
315.4107, 1655.639
315.8929, 1660.986
316.3750, 1667.192
316.8571, 1674.395
317.3392, 1683.010
317.8213, 1691.450
318.3034, 1699.583
318.7856, 1707.335
319.2677, 1715.248
319.7498, 1723.237
320.2319, 1729.552
320.7140, 1732.057
321.1961, 1730.447
321.6783, 1727.546
322.1604, 1724.064
322.6425, 1718.710
323.1246, 1710.514
323.6067, 1699.768
324.0888, 1687.590
324.5710, 1674.535
325.0531, 1660.733
325.5352, 1646.724
326.0173, 1630.966
326.4994, 1617.196
326.9815, 1607.244
327.4637, 1600.085
327.9458, 1593.921
328.4279, 1587.756
328.9100, 1581.896
329.3921, 1577.266
329.8742, 1574.105
330.3564, 1571.802
330.8385, 1571.136
331.3206, 1570.707
331.8027, 1568.803
332.2848, 1564.680
332.7669, 1559.702
333.2491, 1555.942
333.7312, 1553.557
334.2133, 1551.720
334.6954, 1550.271
335.1775, 1549.305
335.6596, 1549.167
336.1418, 1549.849
336.6239, 1550.562
337.1060, 1550.418
337.5881, 1549.386
338.0702, 1548.555
338.5523, 1548.086
339.0345, 1547.813
339.5165, 1547.505
339.9987, 1547.262
340.4808, 1547.458
340.9629, 1548.880
341.4450, 1551.096
341.9271, 1551.804
342.4092, 1550.578
342.8914, 1548.492
343.3735, 1544.859
343.8556, 1541.032
344.3377, 1539.467
344.8198, 1542.044
345.3019, 1546.337
345.7841, 1547.858
346.2662, 1545.976
346.7483, 1543.808
347.2304, 1541.947
347.7125, 1540.709
348.1946, 1540.732
348.6768, 1542.329
349.1589, 1544.055
349.6410, 1543.735
350.1231, 1541.408
350.6052, 1541.412
351.0873, 1546.625
351.5695, 1552.635
352.0516, 1555.760
352.5337, 1556.055
353.0158, 1555.509
353.4979, 1554.394
353.9800, 1553.298
354.4622, 1554.576
354.9443, 1559.352
355.4264, 1564.580
355.9085, 1568.075
356.3906, 1570.369
356.8727, 1572.615
357.3549, 1575.832
357.8370, 1578.863
358.3191, 1580.215
358.8012, 1579.892
359.2833, 1577.766
359.7654, 1572.663
360.2476, 1566.097
360.7297, 1560.655
361.2118, 1557.245
361.6939, 1553.620
362.1760, 1547.581
362.6581, 1539.612
363.1403, 1532.513
363.6224, 1527.404
364.1045, 1523.208
364.5866, 1518.100
365.0687, 1511.963
365.5508, 1507.002
366.0330, 1505.242
366.5151, 1504.987
366.9972, 1502.761
367.4793, 1497.646
367.9614, 1492.810
368.4435, 1491.835
368.9257, 1494.006
369.4078, 1494.964
369.8899, 1493.599
370.3720, 1491.174
370.8541, 1488.562
371.3362, 1485.789
371.8184, 1482.836
372.3005, 1479.471
372.7826, 1476.037
373.2647, 1473.622
373.7468, 1472.504
374.2289, 1471.812
374.7111, 1471.825
375.1932, 1471.951
375.6753, 1470.835
376.1574, 1467.913
376.6395, 1464.227
377.1216, 1461.322
377.6038, 1459.187
378.0859, 1457.878
378.5680, 1458.233
379.0501, 1458.893
379.5322, 1458.610
380.0143, 1457.267
380.4965, 1455.465
380.9786, 1453.665
381.4607, 1451.860
381.9428, 1450.247
382.4249, 1449.542
382.9070, 1448.272
383.3892, 1444.869
383.8713, 1440.484
384.3534, 1437.862
384.8355, 1438.593
385.3176, 1441.300
385.7997, 1441.897
386.2819, 1437.886
386.7640, 1434.830
387.2461, 1432.496
387.7282, 1431.427
388.2103, 1433.218
388.6924, 1437.742
389.1746, 1441.878
389.6567, 1441.515
390.1388, 1435.169
390.6209, 1430.102
391.1030, 1425.862
391.5851, 1423.063
392.0673, 1422.665
392.5494, 1423.964
393.0315, 1425.413
393.5136, 1425.999
393.9957, 1425.789
394.4778, 1425.193
394.9600, 1423.868
395.4421, 1422.575
395.9242, 1421.541
396.4063, 1420.544
396.8884, 1419.192
397.3705, 1417.395
397.8527, 1415.698
398.3348, 1415.012
398.8169, 1415.611
399.2990, 1416.265
399.7811, 1417.811
400.2632, 1418.629
400.7454, 1417.118
401.2275, 1413.939
401.7096, 1411.470
402.1917, 1411.942
402.6738, 1414.729
403.1559, 1416.026
403.6381, 1415.060
404.1202, 1413.895
404.6023, 1413.510
405.0844, 1413.350
405.5665, 1412.587
406.0486, 1410.774
406.5308, 1408.872
407.0129, 1408.334
407.4950, 1409.280
407.9771, 1409.916
408.4592, 1409.814
408.9413, 1409.192
409.4235, 1407.823
409.9056, 1405.812
410.3877, 1404.702
410.8698, 1406.068
411.3519, 1408.939
411.8340, 1410.801
412.3162, 1411.315
412.7983, 1411.373
413.2804, 1410.902
413.7625, 1410.493
414.2446, 1411.734
414.7267, 1416.832
415.2089, 1421.597
415.6910, 1421.724
416.1731, 1418.085
416.6552, 1415.473
417.1373, 1416.141
417.6194, 1418.283
418.1016, 1418.520
418.5837, 1416.667
419.0658, 1414.477
419.5479, 1412.609
420.0300, 1410.563
420.5121, 1407.492
420.9943, 1403.309
421.4764, 1399.128
421.9585, 1396.142
422.4406, 1394.375
422.9227, 1391.197
423.4048, 1385.025
423.8870, 1379.218
424.3691, 1375.124
424.8512, 1372.543
425.3333, 1371.248
425.8154, 1371.233
426.2975, 1371.659
426.7797, 1370.557
427.2618, 1366.322
427.7439, 1362.938
428.2260, 1360.861
428.7081, 1359.300
429.1902, 1357.489
429.6724, 1355.471
430.1545, 1354.027
430.6366, 1354.081
431.1187, 1355.695
431.6008, 1356.141
432.0829, 1353.999
432.5651, 1352.152
433.0472, 1351.302
433.5293, 1351.086
434.0114, 1351.043
434.4935, 1350.990
434.9756, 1350.791
435.4578, 1350.340
435.9399, 1349.933
436.4220, 1348.296
436.9041, 1342.765
437.3862, 1337.916
437.8683, 1337.137
438.3505, 1339.864
438.8326, 1342.429
439.3147, 1341.723
439.7968, 1338.595
440.2789, 1336.755
440.7610, 1336.641
441.2432, 1336.829
441.7253, 1336.639
442.2074, 1336.321
442.6895, 1336.227
443.1716, 1336.543
443.6537, 1336.798
444.1359, 1336.344
444.6180, 1335.338
445.1001, 1334.882
445.5822, 1335.502
446.0643, 1336.328
446.5464, 1336.153
447.0286, 1335.109
447.5107, 1334.553
447.9928, 1334.919
448.4749, 1335.911
448.9570, 1337.628
449.4391, 1339.942
449.9213, 1341.611
450.4034, 1341.832
450.8855, 1340.881
451.3676, 1339.874
451.8497, 1339.573
452.3318, 1338.108
452.8140, 1334.258
453.2961, 1329.281
453.7782, 1324.649
454.2603, 1320.739
454.7424, 1317.392
455.2245, 1314.412
455.7067, 1311.801
456.1888, 1309.582
456.6709, 1307.434
457.1530, 1305.918
457.6351, 1305.771
458.1172, 1306.342
458.5994, 1306.327
459.0815, 1305.013
459.5636, 1303.077
460.0457, 1302.369
460.5278, 1303.990
461.0099, 1304.578
461.4921, 1303.051
461.9742, 1301.226
462.4563, 1300.465
462.9384, 1300.678
463.4205, 1300.722
463.9026, 1299.639
464.3848, 1297.557
464.8669, 1295.192
465.3490, 1291.909
465.8311, 1289.604
466.3132, 1289.848
466.7953, 1291.046
467.2775, 1291.336
467.7596, 1290.149
468.2417, 1288.487
468.7238, 1287.207
469.2059, 1286.274
469.6880, 1285.521
470.1702, 1284.896
470.6523, 1284.476
471.1344, 1284.521
471.6165, 1284.888
472.0986, 1284.972
472.5807, 1284.422
473.0629, 1283.671
473.5450, 1283.113
474.0271, 1282.729
474.5092, 1282.492
474.9913, 1282.622
475.4734, 1282.553
475.9556, 1280.663
476.4377, 1275.815
476.9198, 1272.285
477.4019, 1271.781
477.8840, 1272.239
478.3661, 1271.766
478.8483, 1270.183
479.3304, 1268.279
479.8125, 1266.605
480.2946, 1265.192
480.7767, 1264.425
481.2589, 1264.232
481.7410, 1264.788
482.2231, 1267.239
482.7052, 1269.927
483.1873, 1270.958
483.6694, 1269.830
484.1516, 1267.552
484.6337, 1265.294
485.1158, 1262.990
485.5979, 1261.030
486.0800, 1259.698
486.5621, 1258.426
487.0443, 1256.960
487.5264, 1255.408
488.0085, 1253.937
488.4906, 1252.561
488.9727, 1251.476
489.4548, 1251.408
489.9370, 1252.500
490.4191, 1252.312
490.9012, 1249.386
491.3833, 1245.764
491.8654, 1243.468
492.3475, 1242.427
492.8297, 1241.537
493.3118, 1240.288
493.7939, 1238.983
494.2760, 1238.057
494.7581, 1237.512
495.2402, 1237.104
495.7224, 1236.877
496.2045, 1236.561
496.6866, 1235.225
497.1687, 1232.171
497.6508, 1229.688
498.1329, 1228.432
498.6151, 1227.932
499.0972, 1228.074
499.5793, 1228.647
500.0614, 1228.636
500.5435, 1226.969
501.0256, 1223.669
501.5078, 1221.403
501.9899, 1220.994
502.4720, 1220.652
502.9541, 1219.920
503.4362, 1219.139
503.9183, 1218.997
504.4004, 1219.602
504.8825, 1219.994
505.3647, 1218.678
505.8468, 1215.348
506.3289, 1212.641
506.8110, 1210.317
507.2931, 1209.037
507.7752, 1209.779
508.2574, 1211.538
508.7395, 1212.602
509.2216, 1212.266
509.7037, 1211.098
510.1858, 1209.351
510.6679, 1207.109
511.1501, 1206.033
511.6322, 1207.047
512.1143, 1208.615
512.5964, 1209.287
513.0786, 1209.133
513.5607, 1208.240
514.0428, 1205.902
514.5249, 1203.383
515.0070, 1201.984
515.4891, 1201.487
515.9713, 1200.764
516.4534, 1199.219
516.9355, 1197.314
517.4176, 1196.139
517.8997, 1196.668
518.3818, 1195.894
518.8640, 1191.612
519.3461, 1187.682
519.8282, 1187.820
520.3103, 1191.094
520.7924, 1193.448
521.2745, 1191.939
521.7567, 1187.652
522.2388, 1185.333
522.7209, 1186.573
523.2030, 1186.846
523.6851, 1184.432
524.1672, 1181.771
524.6494, 1181.039
525.1315, 1182.148
525.6136, 1182.935
526.0957, 1180.988
526.5778, 1177.387
527.0599, 1176.599
527.5421, 1179.683
528.0242, 1181.852
528.5063, 1179.624
528.9884, 1175.885
529.4705, 1174.829
529.9526, 1177.470
530.4348, 1179.502
530.9169, 1178.011
531.3990, 1174.667
531.8811, 1172.109
532.3632, 1170.685
532.8453, 1169.991
533.3275, 1169.906
533.8096, 1170.296
534.2917, 1170.080
534.7738, 1168.555
535.2559, 1167.404
535.7380, 1167.446
536.2202, 1167.823
536.7023, 1167.301
537.1844, 1165.797
537.6665, 1164.616
538.1486, 1165.424
538.6307, 1168.258
539.1129, 1168.912
539.5950, 1164.830
540.0771, 1161.891
540.5592, 1162.037
541.0413, 1163.737
541.5234, 1165.566
542.0056, 1167.109
542.4877, 1168.038
542.9698, 1167.748
543.4519, 1166.411
543.9340, 1165.272
544.4161, 1164.383
544.8983, 1163.772
545.3804, 1163.363
545.8625, 1163.266
546.3446, 1163.853
546.8267, 1165.718
547.3088, 1167.249
547.7910, 1166.978
548.2731, 1165.825
548.7552, 1165.820
549.2373, 1167.419
549.7194, 1169.111
550.2015, 1169.318
550.6837, 1167.985
551.1658, 1167.411
551.6479, 1168.853
552.1300, 1169.447
552.6121, 1168.194
553.0942, 1165.742
553.5764, 1162.722
554.0585, 1159.395
554.5406, 1156.048
555.0227, 1153.006
555.5048, 1150.258
555.9869, 1147.762
556.4691, 1145.836
556.9512, 1143.695
557.4333, 1140.798
557.9154, 1137.647
558.3975, 1134.879
558.8796, 1132.677
559.3618, 1130.840
559.8439, 1129.471
560.3260, 1128.365
560.8081, 1126.629
561.2902, 1123.998
561.7723, 1121.372
562.2545, 1119.420
562.7366, 1118.060
563.2187, 1116.696
563.7008, 1114.897
564.1829, 1113.654
564.6650, 1113.740
565.1472, 1114.447
565.6293, 1114.786
566.1114, 1114.559
566.5935, 1114.254
567.0756, 1114.385
567.5577, 1114.947
568.0399, 1115.127
568.5220, 1114.930
569.0041, 1114.291
569.4862, 1112.707
569.9683, 1110.948
570.4504, 1110.047
570.9326, 1110.083
571.4147, 1109.873
571.8968, 1107.945
572.3789, 1104.637
572.8610, 1102.085
573.3431, 1100.382
573.8253, 1099.227
574.3074, 1098.940
574.7895, 1098.920
575.2716, 1098.181
575.7537, 1096.411
576.2358, 1094.978
576.7180, 1094.897
577.2001, 1095.391
577.6822, 1095.495
578.1643, 1095.080
578.6464, 1094.017
579.1285, 1091.966
579.6107, 1089.427
580.0928, 1088.565
580.5749, 1091.690
581.0570, 1093.431
581.5391, 1093.074
582.0212, 1091.664
582.5034, 1089.703
582.9855, 1087.435
583.4676, 1085.143
583.9497, 1082.886
584.4318, 1080.913
584.9139, 1080.115
585.3961, 1080.677
585.8782, 1081.804
586.3602, 1084.317
586.8423, 1086.460
587.3245, 1086.586
587.8066, 1084.844
588.2887, 1082.978
588.7708, 1082.054
589.2529, 1081.184
589.7350, 1078.753
590.2172, 1075.174
590.6993, 1073.142
591.1814, 1073.976
591.6635, 1076.013
592.1456, 1076.527
592.6277, 1074.859
593.1099, 1073.822
593.5920, 1074.193
594.0741, 1074.416
594.5562, 1073.517
595.0383, 1071.949
595.5204, 1070.517
596.0026, 1069.578
596.4847, 1069.108
596.9668, 1069.298
597.4489, 1070.361
597.9310, 1070.571
598.4131, 1069.567
598.8953, 1068.065
599.3774, 1065.320
599.8595, 1062.635
600.3416, 1062.672
600.8237, 1067.126
601.3058, 1071.336
601.7880, 1071.359
602.2701, 1068.430
602.7522, 1065.114
603.2343, 1061.783
603.7164, 1059.598
604.1985, 1059.865
604.6807, 1062.168
605.1628, 1063.062
605.6449, 1061.712
606.1270, 1060.266
606.6091, 1059.040
607.0912, 1057.898
607.5734, 1056.655
608.0555, 1055.349
608.5376, 1054.234
609.0197, 1053.563
609.5018, 1053.217
609.9839, 1052.704
610.4661, 1052.056
610.9482, 1051.177
611.4303, 1049.947
611.9124, 1048.553
612.3945, 1046.771
612.8766, 1044.769
613.3588, 1043.728
613.8409, 1045.404
614.3230, 1047.404
614.8051, 1046.623
615.2872, 1043.661
615.7693, 1041.373
616.2515, 1040.888
616.7336, 1041.129
617.2157, 1040.575
617.6978, 1038.970
618.1799, 1037.694
618.6620, 1036.745
619.1442, 1036.080
619.6263, 1035.569
620.1084, 1035.375
620.5905, 1035.393
621.0726, 1036.225
621.5547, 1036.388
622.0369, 1035.916
622.5190, 1032.910
623.0011, 1033.176
623.4832, 1032.131
623.9653, 1031.032
624.4474, 1031.759
624.9296, 1029.121
625.4117, 1029.819
625.8938, 1029.185
626.3759, 1029.161
626.8580, 1027.818
627.3401, 1026.881
627.8223, 1027.265
628.3044, 1026.918
628.7865, 1025.422
629.2686, 1025.437
629.7507, 1022.753
630.2328, 1022.437
630.7150, 1023.143
631.1971, 1021.713
631.6792, 1019.938
632.1613, 1019.377
632.6434, 1019.997
633.1255, 1021.064
633.6077, 1021.057
634.0898, 1019.233
634.5719, 1016.536
635.0540, 1013.568
635.5361, 1010.532
636.0182, 1009.811
636.5004, 1012.576
636.9825, 1015.081
637.4646, 1013.880
637.9467, 1010.169
638.4288, 1009.006
638.9109, 1013.266
639.3931, 1015.623
639.8752, 1012.244
640.3573, 1006.754
640.8394, 1002.414
641.3215, 999.8859
641.8036, 999.3964
642.2858, 1001.373
642.7679, 1004.819
643.2500, 1006.024
643.7321, 1003.823
644.2142, 1002.351
644.6964, 1002.783
645.1785, 1003.580
645.6606, 1004.193
646.1427, 1004.489
646.6248, 1004.165
647.1069, 1002.623
647.5891, 1001.154
648.0712, 1001.650
648.5533, 1003.282
649.0354, 1003.165
649.5175, 1000.556
649.9996, 997.4187
650.4818, 995.4151
650.9639, 994.5214
651.4460, 994.3341
651.9281, 995.6270
652.4102, 996.5687
652.8923, 997.0381
653.3745, 996.9444
653.8566, 996.0063
654.3387, 994.3677
654.8208, 992.5940
655.3029, 990.9536
655.7850, 989.6169
656.2672, 989.1332
656.7493, 989.5876
657.2314, 989.9080
657.7135, 989.7531
658.1956, 989.4857
658.6777, 989.4750
659.1599, 989.6813
659.6420, 989.9118
660.1241, 990.7207
660.6062, 990.9076
661.0883, 989.2919
661.5704, 986.9111
662.0526, 985.3419
662.5347, 984.8732
663.0168, 984.7653
663.4989, 984.3742
663.9810, 983.6990
664.4631, 982.7910
664.9453, 981.7374
665.4274, 980.2527
665.9095, 977.8303
666.3916, 975.2814
666.8737, 973.0922
667.3558, 971.2947
667.8380, 969.8158
668.3201, 968.6447
668.8022, 967.7672
669.2843, 967.2742
669.7664, 967.0753
670.2485, 966.9781
670.7307, 966.9495
671.2128, 966.6571
671.6949, 965.6818
672.1770, 964.0371
672.6591, 962.6541
673.1412, 961.4670
673.6234, 960.6566
674.1055, 960.5756
674.5876, 960.6628
675.0697, 960.4001
675.5518, 959.7903
676.0339, 959.2015
676.5161, 958.8523
676.9982, 958.6985
677.4803, 958.8939
677.9624, 959.3840
678.4445, 959.0900
678.9266, 957.5539
679.4088, 955.5584
679.8909, 953.7783
680.3730, 952.2305
680.8551, 951.0534
681.3372, 950.5120
681.8193, 949.9886
682.3015, 949.1320
682.7836, 948.2924
683.2657, 947.9993
683.7478, 948.1954
684.2299, 948.2546
684.7120, 947.6644
685.1942, 946.6138
685.6763, 945.7043
686.1584, 945.0010
686.6405, 943.8629
687.1226, 941.4240
687.6047, 939.4817
688.0869, 940.6974
688.5690, 944.0802
689.0511, 945.4153
689.5332, 942.2052
690.0153, 938.9686
690.4974, 937.8316
690.9796, 937.8416
691.4617, 937.9937
691.9438, 937.9987
692.4259, 937.6234
692.9080, 936.6115
693.3901, 935.2102
693.8723, 934.3787
694.3544, 934.2465
694.8365, 934.2519
695.3186, 934.3636
695.8007, 934.5341
696.2828, 934.9931
696.7650, 935.4876
697.2471, 935.2798
697.7292, 933.9172
698.2113, 932.2604
698.6934, 930.6000
699.1755, 929.1208
699.6577, 928.0889
700.1398, 927.5621
700.6219, 927.7296
701.1040, 928.8861
701.5861, 930.4689
702.0682, 930.4578
702.5504, 927.9688
703.0325, 925.8905
703.5146, 924.1960
703.9967, 923.1685
704.4788, 923.2719
704.9609, 924.0939
705.4431, 924.8998
705.9252, 925.5582
706.4073, 925.8100
706.8894, 925.3115
707.3715, 924.3149
707.8536, 922.8766
708.3358, 921.1601
708.8179, 920.7806
709.3000, 922.9734
709.7821, 926.3881
710.2642, 927.5392
710.7463, 924.9423
711.2285, 923.4962
711.7106, 924.5223
712.1927, 925.2257
712.6748, 923.8629
713.1569, 921.6748
713.6390, 920.7953
714.1212, 921.8782
714.6033, 922.9616
715.0854, 922.2194
715.5675, 920.4741
716.0496, 919.3824
716.5317, 918.9833
717.0139, 918.5800
717.4960, 917.8619
717.9781, 916.9255
718.4602, 915.8908
718.9423, 914.6732
719.4244, 913.7172
719.9066, 913.3401
720.3887, 912.8307
720.8708, 912.0812
721.3529, 911.0284
721.8350, 909.5461
722.3171, 907.6418
722.7993, 905.5756
723.2814, 903.0912
723.7635, 900.7737
724.2456, 899.9380
724.7277, 900.4161
725.2098, 900.9246
725.6920, 901.1075
726.1741, 900.8691
726.6562, 900.0248
727.1383, 898.5446
727.6204, 897.2307
728.1025, 896.1994
728.5847, 895.1905
729.0668, 894.0910
729.5489, 893.0541
730.0310, 892.3137
730.5131, 891.8019
730.9952, 891.1092
731.4774, 889.7040
731.9595, 888.4632
732.4416, 889.2237
732.9237, 891.3926
733.4058, 892.0153
733.8879, 890.4103
734.3701, 888.0735
734.8522, 886.0156
735.3343, 884.3016
735.8164, 883.2764
736.2985, 883.5486
736.7806, 883.6537
737.2628, 883.0547
737.7449, 882.7598
738.2270, 884.1191
738.7091, 886.1489
739.1912, 886.6296
739.6733, 884.5736
740.1555, 881.6381
740.6376, 878.9954
741.1197, 876.8381
741.6018, 875.8994
742.0839, 876.2111
742.5660, 876.7978
743.0482, 877.2175
743.5303, 877.4260
744.0124, 877.3090
744.4945, 876.7241
744.9766, 876.2581
745.4587, 876.5053
745.9409, 876.1728
746.4230, 874.1580
746.9051, 869.4532
747.3872, 871.5895
747.8693, 872.5564
748.3514, 872.4167
748.8336, 867.8557
749.3157, 869.0038
749.7978, 867.8640
750.2799, 866.6304
750.7620, 868.5819
751.2441, 864.6642
751.7263, 866.5651
752.2084, 866.1434
752.6905, 866.7848
753.1726, 865.1241
753.6547, 864.1745
754.1368, 865.5276
754.6190, 865.6056
755.1011, 863.6800
755.5832, 864.3889
756.0653, 860.3907
756.5474, 860.5231
757.0295, 862.4377
757.5117, 860.6276
757.9938, 861.3787
758.4759, 861.1544
758.9580, 856.4976
759.4401, 859.5493
759.9222, 859.2674
760.4044, 855.5623
760.8865, 858.3500
761.3686, 855.1169
761.8507, 854.0329
762.3328, 854.5662
762.8149, 853.4135
763.2971, 854.9188
763.7792, 853.8635
764.2613, 852.5793
764.7434, 852.2936
765.2255, 849.1786
765.7076, 851.3126
766.1898, 849.8610
766.6719, 850.1918
767.1540, 850.9265
767.6361, 848.5679
768.1182, 849.4842
768.6003, 845.3221
769.0825, 848.1090
769.5646, 848.2325
770.0467, 847.9783
770.5288, 847.4067
771.0109, 846.3239
771.4930, 845.5375
771.9752, 845.4797
772.4573, 845.5241
772.9394, 844.7262
773.4215, 843.4786
773.9036, 843.5003
774.3857, 846.3077
774.8679, 848.6322
775.3500, 848.9601
775.8321, 848.3314
776.3142, 847.9840
776.7963, 847.7467
777.2784, 846.3629
777.7606, 843.0668
778.2427, 839.2917
778.7248, 837.4031
779.2069, 837.2963
779.6890, 837.4291
780.1711, 837.7128
780.6533, 838.3117
781.1354, 839.7384
781.6175, 841.1124
782.0996, 840.5748
782.5817, 837.4625
783.0638, 835.6731
783.5460, 836.5193
784.0281, 837.3967
784.5102, 837.5043
784.9923, 836.9423
785.4744, 835.5334
785.9565, 833.5017
786.4387, 831.9766
786.9208, 831.9698
787.4029, 832.6536
787.8850, 832.7450
788.3671, 832.3376
788.8492, 831.9561
789.3314, 831.7269
789.8135, 831.2425
790.2956, 830.0821
790.7777, 828.4930
791.2598, 827.5001
791.7419, 827.3475
792.2241, 827.3494
792.7062, 827.8521
793.1883, 828.1228
793.6704, 827.8152
794.1525, 827.0615
794.6346, 825.8708
795.1168, 824.1543
795.5989, 823.1061
796.0810, 824.1710
796.5631, 825.7158
797.0452, 825.8778
797.5273, 824.9031
798.0095, 823.6758
798.4916, 822.5030
798.9737, 821.3722
799.4558, 820.1533
799.9379, 818.9805
800.4200, 819.2418
800.9022, 821.7099
801.3843, 822.7664
801.8664, 820.8055
802.3485, 818.2617
802.8306, 817.0469
803.3127, 816.8866
803.7949, 817.0598
804.2770, 818.3849
804.7591, 818.5087
805.2412, 814.7304
805.7233, 811.2291
806.2054, 812.4495
806.6876, 816.6411
807.1697, 819.2692
807.6518, 818.5250
808.1339, 816.4105
808.6160, 814.8217
809.0981, 813.7221
809.5803, 813.1263
810.0624, 813.0277
810.5445, 812.7190
811.0266, 811.8726
811.5087, 810.9796
811.9908, 810.7059
812.4730, 811.0569
812.9551, 810.7965
813.4372, 808.9496
813.9193, 807.8608
814.4014, 808.4191
814.8835, 809.2320
815.3657, 809.5104
815.8478, 809.2151
816.3299, 808.3523
816.8120, 806.6176
817.2941, 805.2572
817.7762, 805.6212
818.2584, 806.5865
818.7405, 806.5063
819.2226, 805.5441
819.7047, 804.8792
820.1868, 805.0208
820.6689, 805.3838
821.1511, 805.2122
821.6332, 804.5146
822.1153, 803.2901
822.5974, 801.2036
823.0795, 799.8528
823.5616, 799.8202
824.0438, 800.5809
824.5259, 802.0266
825.0080, 803.9949
825.4901, 804.8702
825.9722, 804.1908
826.4543, 802.9645
826.9365, 800.7084
827.4186, 798.5735
827.9007, 797.3922
828.3828, 797.1109
828.8649, 797.6155
829.3470, 798.9514
829.8292, 799.9250
830.3113, 798.7435
830.7934, 796.5865
831.2755, 796.1580
831.7576, 797.3068
832.2397, 798.3046
832.7219, 798.5345
833.2040, 797.9846
833.6861, 796.4090
834.1682, 793.9362
834.6503, 793.2380
835.1324, 795.5258
835.6146, 796.7922
836.0967, 795.6591
836.5788, 793.9442
837.0609, 792.8124
837.5430, 792.1138
838.0251, 791.4582
838.5073, 790.9973
838.9894, 790.0989
839.4715, 787.9918
839.9536, 785.8671
840.4357, 784.5340
840.9178, 783.9760
841.4000, 784.2351
841.8821, 785.2322
842.3642, 786.0668
842.8463, 785.7084
843.3284, 784.6219
843.8105, 783.8445
844.2927, 783.3745
844.7748, 783.2782
845.2569, 783.6132
845.7390, 783.9616
846.2211, 783.9768
846.7032, 783.6925
847.1854, 783.2748
847.6675, 782.8137
848.1496, 782.0170
848.6317, 780.7906
849.1138, 779.2977
849.5959, 777.1879
850.0781, 775.0368
850.5602, 773.6663
851.0423, 773.1957
851.5244, 773.2621
852.0065, 774.3710
852.4886, 775.3275
852.9708, 775.2413
853.4529, 774.5185
853.9350, 773.8488
854.4171, 773.2936
854.8992, 772.2432
855.3813, 769.9939
855.8635, 767.7344
856.3456, 768.1434
856.8277, 770.5911
857.3098, 771.2582
857.7919, 769.6085
858.2740, 767.8116
858.7562, 767.0131
859.2383, 766.9251
859.7204, 767.1710
860.2025, 768.0291
860.6846, 767.5370
861.1667, 764.1241
861.6489, 761.7428
862.1310, 761.7950
862.6131, 762.9134
863.0952, 764.5916
863.5773, 766.4576
864.0594, 766.9889
864.5416, 764.8226
865.0237, 762.8582
865.5058, 762.9720
865.9879, 763.3932
866.4700, 762.0659
866.9521, 759.5936
867.4343, 757.8102
867.9164, 757.4453
868.3985, 757.8658
868.8806, 758.9578
869.3627, 760.1696
869.8448, 759.6563
870.3270, 757.6726
870.8091, 756.6911
871.2912, 757.4708
871.7733, 758.6918
872.2554, 759.2942
872.7375, 759.1906
873.2197, 757.7521
873.7018, 754.0905
874.1839, 751.7213
874.6660, 752.0393
875.1481, 752.1175
875.6302, 749.4978
876.1124, 746.1094
876.5945, 744.9742
877.0766, 746.5427
877.5587, 747.7841
878.0408, 748.2031
878.5229, 748.0508
879.0051, 746.8734
879.4872, 745.5561
879.9693, 745.0632
880.4514, 745.4345
880.9335, 746.3015
881.4156, 747.7178
881.8978, 748.7758
882.3799, 747.9980
882.8620, 746.3155
883.3441, 745.7058
883.8262, 746.1854
884.3083, 746.9171
884.7905, 747.5499
885.2726, 747.8111
885.7547, 747.2442
886.2368, 745.9604
886.7189, 744.9383
887.2010, 744.0805
887.6832, 744.1627
888.1653, 746.0558
888.6474, 747.5038
889.1295, 746.3430
889.6116, 743.3434
890.0938, 741.4709
890.5759, 741.0694
891.0580, 741.0848
891.5401, 741.4763
892.0222, 742.3036
892.5043, 744.5323
892.9865, 746.6711
893.4686, 746.4236
893.9507, 743.8092
894.4328, 741.8903
894.9149, 742.4849
895.3970, 743.7664
895.8792, 744.9172
896.3613, 745.6701
896.8434, 745.4352
897.3255, 744.4041
897.8076, 743.2988
898.2897, 742.4551
898.7719, 742.1415
899.2540, 742.7565
899.7361, 744.1887
900.2182, 746.1498
900.7003, 748.6119
901.1824, 751.0824
901.6646, 753.4563
902.1467, 755.4356
902.6288, 756.5442
903.1109, 757.1345
903.5930, 759.2303
904.0751, 763.8821
904.5573, 766.8679
905.0394, 766.2563
905.5215, 766.4210
906.0036, 770.0130
906.4857, 775.4802
906.9678, 780.6223
907.4500, 785.4101
907.9321, 789.7396
908.4142, 792.8314
908.8963, 796.4373
909.3784, 801.6038
909.8605, 807.2034
910.3427, 811.7283
910.8248, 815.7582
911.3069, 821.5043
911.7890, 830.1373
912.2711, 839.0340
912.7532, 845.6760
913.2354, 851.8607
913.7175, 859.6030
914.1996, 868.8738
914.6817, 879.6300
915.1638, 891.6571
915.6459, 903.6253
916.1280, 914.4308
916.6101, 924.4297
917.0922, 935.3112
917.5743, 946.6473
918.0565, 954.1432
918.5386, 957.2862
919.0207, 955.8859
919.5028, 949.4747
919.9849, 939.5557
920.4670, 928.5074
920.9492, 916.1332
921.4313, 904.1081
921.9134, 892.5230
922.3955, 881.0742
922.8776, 869.2156
923.3597, 858.0419
923.8419, 848.0349
924.3240, 839.4542
924.8061, 833.4078
925.2882, 830.9117
925.7703, 828.6337
926.2524, 826.7549
926.7346, 824.2669
927.2167, 820.4818
927.6988, 815.9202
928.1809, 811.1569
928.6630, 806.3079
929.1451, 801.2294
929.6273, 795.9727
930.1094, 790.3000
930.5915, 783.3739
931.0736, 776.2975
931.5557, 770.8800
932.0378, 766.5941
932.5200, 761.4117
933.0021, 754.5633
933.4842, 747.5645
933.9663, 741.7366
934.4484, 737.0460
934.9305, 733.5468
935.4127, 731.1852
935.8948, 729.9812
936.3769, 729.9006
936.8590, 729.5434
937.3411, 727.9163
937.8232, 725.5464
938.3054, 723.4111
938.7875, 721.4613
939.2696, 720.5440
939.7517, 721.0959
940.2338, 721.0645
940.7159, 719.6374
941.1981, 717.5764
941.6802, 715.4412
942.1623, 713.3182
942.6444, 711.9708
943.1265, 712.0272
943.6086, 711.8056
944.0908, 710.3187
944.5729, 709.6425
945.0550, 711.8284
945.5371, 714.6668
946.0192, 715.0426
946.5013, 712.7596
946.9835, 710.6592
947.4656, 709.5313
947.9477, 708.6180
948.4298, 707.1774
948.9119, 706.1975
949.3940, 707.5580
949.8762, 709.9241
950.3583, 709.7928
950.8404, 705.9622
951.3225, 702.3766
951.8046, 702.5919
952.2867, 703.8798
952.7689, 703.2825
953.2510, 701.4632
953.7331, 699.7641
954.2152, 698.4166
954.6973, 697.0081
955.1794, 695.2664
955.6616, 693.4865
956.1437, 691.9756
956.6258, 690.7922
957.1079, 690.3928
957.5900, 690.6694
958.0721, 690.3539
958.5543, 689.0345
959.0364, 687.6547
959.5185, 687.1301
960.0006, 687.1390
960.4827, 686.6350
960.9648, 685.6193
961.4470, 683.8293
961.9291, 680.7267
962.4112, 678.9298
962.8933, 680.1225
963.3754, 682.3094
963.8575, 682.9094
964.3397, 681.9536
964.8218, 680.9903
965.3039, 679.8979
965.7860, 679.0373
966.2681, 678.8249
966.7502, 678.4226
967.2324, 676.7785
967.7145, 674.9393
968.1966, 674.9109
968.6787, 677.0707
969.1608, 678.1278
969.6429, 677.0422
970.1251, 675.5800
970.6072, 673.6019
971.0893, 672.0714
971.5714, 672.3213
972.0535, 673.5356
972.5356, 673.5214
973.0178, 671.4804
973.4999, 669.9605
973.9820, 670.9841
974.4641, 672.1897
974.9462, 671.8494
975.4283, 670.5219
975.9105, 668.4733
976.3926, 666.2712
976.8747, 665.6592
977.3568, 667.8471
977.8389, 669.8466
978.3210, 667.9422
978.8032, 664.5123
979.2853, 662.9850
979.7674, 663.1314
980.2495, 664.2433
980.7316, 665.8615
981.2137, 666.4148
981.6959, 664.5008
982.1780, 661.7130
982.6601, 660.9840
983.1422, 661.8908
983.6243, 662.9380
984.1064, 663.9476
984.5886, 664.0426
985.0707, 662.8653
985.5528, 661.7059
986.0349, 662.0121
986.5170, 663.1983
986.9991, 662.7754
987.4813, 660.5638
987.9634, 659.8159
988.4455, 661.1928
988.9276, 662.0511
989.4097, 661.0579
989.8918, 659.2292
990.3740, 657.7567
990.8561, 656.6678
991.3382, 656.6081
991.8203, 658.2136
992.3024, 659.1345
992.7845, 658.9033
993.2667, 658.2621
993.7488, 657.1331
994.2309, 656.1799
994.7130, 656.8284
995.1951, 659.4162
995.6772, 660.4902
996.1594, 658.9740
996.6415, 657.4960
997.1236, 655.8674
997.6057, 654.8889
998.0878, 655.9152
998.5699, 657.6111
999.0521, 657.1644
999.5342, 653.9086
1000.016, 652.0037
1000.498, 652.8188
1000.981, 654.3705
1001.463, 657.2709
1001.945, 659.4845
1002.427, 658.5029
1002.909, 655.6444
1003.391, 654.2854
1003.873, 655.4434
1004.355, 656.3824
1004.837, 655.7644
1005.320, 654.6810
1005.802, 653.2767
1006.284, 652.1902
1006.766, 652.6765
1007.248, 654.1445
1007.730, 654.4124
1008.212, 652.5016
1008.694, 650.6651
1009.177, 650.9102
1009.659, 651.7527
1010.141, 651.6021
1010.623, 650.9334
1011.105, 650.3881
1011.587, 650.2612
1012.069, 651.2151
1012.551, 653.7178
1013.033, 656.2216
1013.516, 657.0781
1013.998, 656.8033
1014.480, 655.7783
1014.962, 654.4639
1015.444, 654.1556
1015.926, 655.0046
1016.408, 656.1696
1016.890, 657.1774
1017.372, 657.7250
1017.855, 657.0123
1018.337, 655.5396
1018.819, 655.0468
1019.301, 655.3797
1019.783, 655.3369
1020.265, 654.6153
1020.747, 653.4235
1021.229, 651.8632
1021.712, 650.2502
1022.194, 649.4001
1022.676, 649.1674
1023.158, 648.1179
1023.640, 646.2249
1024.122, 644.9532
1024.604, 644.7642
1025.086, 644.7048
1025.568, 643.9678
1026.051, 642.8232
1026.533, 641.9933
1027.015, 641.4958
1027.497, 640.8190
1027.979, 639.8669
1028.461, 639.2656
1028.943, 639.1737
1029.425, 639.7947
1029.908, 641.7322
1030.390, 643.9825
1030.872, 642.7099
1031.354, 636.6882
1031.836, 633.5353
1032.318, 634.2061
1032.800, 634.9529
1033.282, 634.6417
1033.765, 633.8709
1034.247, 633.0364
1034.729, 632.2698
1035.211, 632.1456
1035.693, 632.9739
1036.175, 633.4830
1036.657, 633.4183
1037.139, 633.5521
1037.621, 634.2399
1038.104, 635.0657
1038.586, 635.6630
1039.068, 636.0735
1039.550, 636.5318
1040.032, 637.4510
1040.514, 637.3824
1040.996, 635.5108
1041.478, 633.8542
1041.960, 633.2067
1042.443, 632.8279
1042.925, 632.1410
1043.407, 631.1710
1043.889, 629.9056
1044.371, 627.4899
1044.853, 626.7311
1045.335, 629.4879
1045.817, 631.5822
1046.300, 631.1476
1046.782, 630.0491
1047.264, 629.9860
1047.746, 630.6578
1048.228, 630.7189
1048.710, 629.4398
1049.192, 629.2523
1049.674, 631.9264
1050.156, 633.8232
1050.639, 632.5716
1051.121, 630.9242
1051.603, 631.7794
1052.085, 634.3379
1052.567, 635.5898
1053.049, 634.6731
1053.531, 634.0588
1054.013, 633.7457
1054.495, 634.4103
1054.978, 637.6096
1055.460, 640.8288
1055.942, 640.8543
1056.424, 639.0779
1056.906, 640.0296
1057.388, 645.3005
1057.870, 649.6241
1058.352, 651.0256
1058.835, 651.9005
1059.317, 653.0541
1059.799, 654.3311
1060.281, 655.4526
1060.763, 656.5670
1061.245, 658.1795
1061.727, 660.4954
1062.209, 662.4929
1062.692, 663.6683
1063.174, 664.6395
1063.656, 666.1826
1064.138, 667.2272
1064.620, 666.6491
1065.102, 664.8047
1065.584, 662.6590
1066.066, 660.4130
1066.548, 657.7180
1067.031, 654.3644
1067.513, 650.6249
1067.995, 646.0473
1068.477, 641.6567
1068.959, 638.2952
1069.441, 635.8890
1069.923, 634.2560
1070.405, 633.3449
1070.887, 632.3434
1071.370, 631.1184
1071.852, 629.4786
1072.334, 627.0408
1072.816, 624.4220
1073.298, 621.5920
1073.780, 619.2302
1074.262, 619.0508
1074.744, 621.0934
1075.227, 621.8206
1075.709, 618.4680
1076.191, 615.2275
1076.673, 614.4610
1077.155, 614.2615
1077.637, 612.5612
1078.119, 610.5790
1078.601, 610.9738
1079.083, 613.7173
1079.566, 615.2799
1080.048, 613.8962
1080.530, 611.7944
1081.012, 609.0494
1081.494, 606.9991
1081.976, 606.9911
1082.458, 608.1573
1082.940, 609.7078
1083.422, 611.2130
1083.905, 611.5283
1084.387, 609.8928
1084.869, 607.9827
1085.351, 606.0508
1085.833, 604.6893
1086.315, 604.8183
1086.797, 605.4055
1087.279, 605.2430
1087.761, 604.3058
1088.244, 603.0483
1088.726, 601.3900
1089.208, 600.3659
1089.690, 601.2358
1090.172, 601.9054
1090.654, 600.6091
1091.136, 598.8792
1091.618, 598.3021
1092.101, 598.7650
1092.583, 599.5989
1093.065, 600.7297
1093.547, 601.4289
1094.029, 600.9734
1094.511, 600.5706
1094.993, 601.2209
1095.475, 601.8113
1095.958, 601.0851
1096.440, 599.5938
1096.922, 598.6385
1097.404, 598.4791
1097.886, 598.1180
1098.368, 596.4593
1098.850, 595.5975
1099.332, 596.9834
1099.814, 598.7490
1100.297, 600.0001
1100.779, 600.4714
1101.261, 599.4267
1101.743, 596.9961
1102.225, 595.7999
1102.707, 598.1545
1103.189, 599.2457
1103.671, 596.0623
1104.153, 593.3206
1104.636, 594.4706
1105.118, 597.0449
1105.600, 598.0725
1106.082, 597.5195
1106.564, 596.6722
1107.046, 595.2683
1107.528, 594.6321
1108.010, 595.9063
1108.493, 596.8380
1108.975, 596.2849
1109.457, 595.1769
1109.939, 594.0671
1110.421, 593.1774
1110.903, 593.2307
1111.385, 594.9603
1111.867, 595.2304
1112.349, 592.5308
1112.832, 590.0573
1113.314, 588.4734
1113.796, 587.4662
1114.278, 587.0104
1114.760, 586.9004
1115.242, 586.7917
1115.724, 586.7045
1116.206, 586.4330
1116.688, 586.2087
1117.171, 585.3959
1117.653, 582.8849
1118.135, 581.1644
1118.617, 582.0319
1119.099, 583.8843
1119.581, 584.5455
1120.063, 584.1154
1120.545, 584.2743
1121.028, 585.7939
1121.510, 586.0417
1121.992, 584.1290
1122.474, 582.5135
1122.956, 582.2744
1123.438, 582.3441
1123.920, 581.5302
1124.402, 580.2693
1124.885, 580.3154
1125.367, 582.2330
1125.849, 582.8493
1126.331, 581.6066
1126.813, 581.0383
1127.295, 582.1279
1127.777, 582.9372
1128.259, 581.9785
1128.741, 580.0862
1129.224, 578.8262
1129.706, 578.1985
1130.188, 578.0084
1130.670, 578.3047
1131.152, 578.7150
1131.634, 579.2452
1132.116, 579.3539
1132.598, 578.6934
1133.080, 577.8815
1133.563, 577.6563
1134.045, 577.9515
1134.527, 578.6055
1135.009, 579.5951
1135.491, 580.6359
1135.973, 581.6656
1136.455, 581.0766
1136.937, 578.3358
1137.420, 575.6283
1137.902, 574.7825
1138.384, 575.1663
1138.866, 575.9551
1139.348, 576.8807
1139.830, 576.6239
1140.312, 575.4443
1140.794, 574.9414
1141.276, 575.2947
1141.759, 574.9865
1142.241, 573.1570
1142.723, 571.5159
1143.205, 572.7634
1143.687, 575.0881
1144.169, 574.6606
1144.651, 572.7734
1145.133, 572.5129
1145.615, 573.7157
1146.098, 574.5867
1146.580, 574.4860
1147.062, 573.6380
1147.544, 571.9086
1148.026, 570.1469
1148.508, 569.2020
1148.990, 568.7815
1149.472, 568.4362
1149.955, 568.3383
1150.437, 569.2433
1150.919, 570.8763
1151.401, 571.5573
1151.883, 570.3636
1152.365, 569.1107
1152.847, 568.9932
1153.329, 569.1907
1153.812, 568.9761
1154.294, 568.8555
1154.776, 569.7037
1155.258, 571.0598
1155.740, 571.7396
1156.222, 571.4786
1156.704, 571.0582
1157.186, 570.3723
1157.668, 570.1035
1158.151, 571.2077
1158.633, 572.0134
1159.115, 571.2158
1159.597, 569.6447
1160.079, 568.3415
1160.561, 567.3564
1161.043, 566.4492
1161.525, 565.6777
1162.007, 564.8189
1162.490, 563.2209
1162.972, 562.4258
1163.454, 563.4046
1163.936, 564.7081
1164.418, 565.3923
1164.900, 565.5689
1165.382, 565.3826
1165.864, 564.7443
1166.347, 564.7784
1166.829, 565.8099
1167.311, 566.6612
1167.793, 567.5131
1168.275, 567.0126
1168.757, 563.9540
1169.239, 560.7841
1169.721, 560.4462
1170.203, 562.2369
1170.686, 563.3461
1171.168, 563.7653
1171.650, 563.6882
1172.132, 563.0970
1172.614, 563.1905
1173.096, 564.3233
1173.578, 564.6873
1174.060, 562.9468
1174.542, 560.6327
1175.025, 560.4757
1175.507, 561.5381
1175.989, 559.9720
1176.471, 556.8542
1176.953, 556.8549
1177.435, 559.7448
1177.917, 561.0598
1178.399, 559.3254
1178.882, 557.5609
1179.364, 558.3691
1179.846, 559.8740
1180.328, 559.7429
1180.810, 558.8681
1181.292, 558.5096
1181.774, 558.4272
1182.256, 557.8196
1182.739, 556.8172
1183.221, 556.4142
1183.703, 557.0387
1184.185, 557.9993
1184.667, 559.5106
1185.149, 560.4496
1185.631, 559.5714
1186.113, 558.2809
1186.595, 558.1243
1187.078, 558.4230
1187.560, 557.6134
1188.042, 555.6202
1188.524, 554.1862
1189.006, 553.9784
1189.488, 553.8639
1189.970, 553.2402
1190.452, 553.1964
1190.934, 555.2640
1191.417, 557.0691
1191.899, 556.1370
1192.381, 553.5559
1192.863, 552.0263
1193.345, 551.6697
1193.827, 551.4293
1194.309, 551.0404
1194.791, 551.7669
1195.274, 554.5329
1195.756, 556.0040
1196.238, 554.3197
1196.720, 551.5177
1197.202, 549.7350
1197.684, 548.9005
1198.166, 548.8828
1198.648, 549.6608
1199.130, 550.9839
1199.613, 552.7308
1200.095, 552.4786
1200.577, 549.8158
1201.059, 547.4660
1201.541, 546.9835
1202.023, 547.3439
1202.505, 547.2959
1202.987, 547.2352
1203.469, 548.2742
1203.952, 549.7297
1204.434, 550.0665
1204.916, 549.5029
1205.398, 549.0114
1205.880, 548.8376
1206.362, 548.6765
1206.844, 548.3444
1207.326, 548.0682
1207.809, 547.9446
1208.291, 548.0259
1208.773, 548.6435
1209.255, 549.2538
1209.737, 548.8780
1210.219, 548.1149
1210.701, 548.7499
1211.183, 551.0826
1211.666, 552.1718
1212.148, 550.5967
1212.630, 548.8781
1213.112, 547.1989
1213.594, 545.8109
1214.076, 544.9513
1214.558, 544.3046
1215.040, 543.5813
1215.522, 542.8597
1216.005, 542.3858
1216.487, 542.1934
1216.969, 541.9683
1217.451, 541.6985
1217.933, 541.4141
1218.415, 541.0859
1218.897, 540.9222
1219.379, 541.0351
1219.861, 541.2998
1220.344, 541.6733
1220.826, 541.8835
1221.308, 540.8461
1221.790, 539.0037
1222.272, 538.7981
1222.754, 539.9134
1223.236, 540.5812
1223.718, 540.4527
1224.201, 539.7689
1224.683, 538.6564
1225.165, 537.5712
1225.647, 536.6370
1226.129, 536.3221
1226.611, 538.2194
1227.093, 540.1345
1227.575, 538.2479
1228.057, 534.9485
1228.540, 535.3412
1229.022, 539.0692
1229.504, 540.9094
1229.986, 538.7308
1230.468, 537.2053
1230.950, 538.9081
1231.432, 540.1545
1231.914, 539.3986
1232.396, 537.9588
1232.879, 535.9993
1233.361, 534.3911
1233.843, 534.5116
1234.325, 536.1252
1234.807, 537.4301
1235.289, 538.6344
1235.771, 538.7270
1236.253, 537.2059
1236.736, 536.5884
1237.218, 537.7499
1237.700, 538.4637
1238.182, 537.2676
1238.664, 535.3614
1239.146, 534.4334
1239.628, 534.1429
1240.110, 533.1105
1240.593, 531.7162
1241.075, 532.0829
1241.557, 533.7214
1242.039, 533.8490
1242.521, 532.0438
1243.003, 530.1325
1243.485, 529.0526
1243.967, 528.8161
1244.449, 529.6915
1244.932, 531.1326
1245.414, 533.4662
1245.896, 535.3732
1246.378, 534.6774
1246.860, 532.8561
1247.342, 532.9374
1247.824, 534.8702
1248.306, 535.5096
1248.788, 533.6409
1249.271, 531.8751
1249.753, 530.6354
1250.235, 529.5729
1250.717, 528.1510
1251.199, 527.5072
1251.681, 528.7648
1252.163, 530.6073
1252.645, 531.1741
1253.128, 530.6829
1253.610, 530.4510
1254.092, 530.5038
1254.574, 530.5969
1255.056, 530.7399
1255.538, 529.8820
1256.020, 527.8245
1256.502, 526.0667
1256.984, 525.4431
1257.467, 525.7858
1257.949, 527.2954
1258.431, 529.0465
1258.913, 529.6171
1259.395, 529.2587
1259.877, 527.9358
1260.359, 526.2394
1260.841, 525.1330
1261.323, 524.8273
1261.806, 525.4919
1262.288, 527.3575
1262.770, 528.4311
1263.252, 526.8170
1263.734, 525.6174
1264.216, 526.6725
1264.698, 527.8541
1265.180, 527.8939
1265.663, 527.2537
1266.145, 526.3972
1266.627, 525.4152
1267.109, 524.5220
1267.591, 523.5558
1268.073, 523.8054
1268.555, 525.7016
1269.037, 526.5891
1269.520, 525.9159
1270.002, 525.5867
1270.484, 526.4914
1270.966, 527.2639
1271.448, 526.6002
1271.930, 525.0780
1272.412, 523.4199
1272.894, 521.8804
1273.376, 520.9865
1273.859, 520.7222
1274.341, 521.4219
1274.823, 522.6263
1275.305, 522.7919
1275.787, 521.6224
1276.269, 520.9370
1276.751, 522.1339
1277.233, 522.8884
1277.715, 521.2360
1278.198, 519.8471
1278.680, 520.4694
1279.162, 521.7526
1279.644, 522.8786
1280.126, 523.5562
1280.608, 523.2052
1281.090, 521.8561
1281.572, 520.9627
1282.055, 520.7451
1282.537, 520.3787
1283.019, 519.7128
1283.501, 519.9374
1283.983, 521.5413
1284.465, 521.9128
1284.947, 519.3655
1285.429, 515.8552
1285.911, 513.5481
1286.394, 512.6893
##END=



