##NAMES=Andalusite
##RRUFFID=R050626
##IDEAL CHEMISTRY=Al_2_SiO_5_
##LOCALITY=Minas Gerais, Brazil
##OWNER=RRUFF
##SOURCE=Gemological Center
##DESCRIPTION=Grayish brown fragment
##STATUS=The identification of this mineral has been confirmed by X-ray diffraction and chemical analysis
##URL=rruff.info/R050626
##MEASURED CHEMISTRY=(Al_1.99_Fe^3+^_0.01_)_Î£=1_Si_1.00_O_5_
91.62726, 0.0000000E+00
92.10938, 1.304385
92.59149, 1.388563
93.07361, 1.349649
93.55573, 1.198344
94.03784, 1.069144
94.51996, 1.116809
95.00208, 1.291842
95.48419, 1.418791
95.96631, 1.424755
96.44843, 1.348300
96.93054, 1.285925
97.41266, 1.234386
97.89478, 1.217231
98.37689, 1.303964
98.85901, 1.495246
99.34113, 1.621553
99.82324, 1.577007
100.3054, 1.362106
100.7875, 1.237552
101.2696, 1.223724
101.7517, 1.274065
102.2338, 1.312323
102.7159, 1.345777
103.1981, 1.345017
103.6802, 1.275765
104.1623, 1.088334
104.6444, 0.9986134
105.1265, 1.054049
105.6086, 1.209095
106.0908, 1.289375
106.5729, 1.248280
107.0550, 1.186057
107.5371, 1.159492
108.0192, 1.187743
108.5013, 1.222042
108.9835, 1.244079
109.4656, 1.255896
109.9477, 1.326574
110.4298, 1.554727
110.9119, 1.787428
111.3940, 1.924886
111.8762, 1.839709
112.3583, 1.783760
112.8404, 1.812011
113.3225, 1.935437
113.8046, 2.043048
114.2867, 2.082144
114.7689, 2.110554
115.2510, 2.190629
115.7331, 2.332159
116.2152, 2.531252
116.6973, 2.828098
117.1794, 3.272885
117.6616, 3.606969
118.1437, 3.685615
118.6258, 3.597603
119.1079, 3.487801
119.5900, 3.309822
120.0721, 3.194677
120.5543, 3.263496
121.0364, 3.616441
121.5185, 3.950760
122.0006, 4.003571
122.4827, 3.872231
122.9648, 3.836295
123.4470, 4.170201
123.9291, 4.644233
124.4112, 4.989885
124.8933, 5.095011
125.3754, 5.131400
125.8575, 5.281425
126.3397, 5.527253
126.8218, 5.760211
127.3039, 5.842977
127.7860, 5.855234
128.2681, 5.962544
128.7502, 6.246572
129.2324, 6.626299
129.7145, 6.984094
130.1966, 7.321863
130.6787, 7.609581
131.1608, 7.835222
131.6429, 7.991339
132.1251, 8.044438
132.6072, 7.901623
133.0893, 7.650031
133.5714, 7.616396
134.0535, 7.832108
134.5356, 8.121647
135.0178, 8.258721
135.4999, 8.238942
135.9820, 8.227493
136.4641, 8.268936
136.9462, 8.364868
137.4283, 8.561347
137.9105, 8.883168
138.3926, 9.264788
138.8747, 9.612800
139.3568, 9.941787
139.8389, 10.19000
140.3210, 10.31697
140.8032, 10.30306
141.2853, 10.27693
141.7674, 10.24377
142.2495, 10.19624
142.7316, 10.09106
143.2137, 9.829778
143.6959, 9.585670
144.1780, 9.517758
144.6601, 9.702395
145.1422, 9.850651
145.6243, 9.909731
146.1064, 9.926418
146.5886, 10.10532
147.0707, 10.63093
147.5528, 11.10861
148.0349, 11.31640
148.5170, 11.11779
148.9991, 10.87759
149.4813, 10.54562
149.9634, 10.14659
150.4455, 9.952470
150.9276, 10.18834
151.4097, 10.47104
151.8918, 10.56218
152.3740, 10.18430
152.8561, 9.935107
153.3382, 9.930631
153.8203, 10.16287
154.3024, 10.31679
154.7845, 10.35639
155.2667, 10.31777
155.7488, 10.22770
156.2309, 9.959783
156.7130, 9.771555
157.1951, 9.756103
157.6772, 9.923177
158.1594, 10.05501
158.6415, 10.09243
159.1236, 10.07888
159.6057, 10.05671
160.0878, 10.00621
160.5699, 9.975737
161.0521, 9.994444
161.5342, 10.07112
162.0163, 10.13099
162.4984, 10.15225
162.9805, 10.14118
163.4626, 10.10562
163.9448, 9.949751
164.4269, 9.844483
164.9090, 9.915333
165.3911, 10.20949
165.8732, 10.47371
166.3553, 10.58356
166.8375, 10.58088
167.3196, 10.53429
167.8017, 10.34973
168.2838, 10.20944
168.7659, 10.28799
169.2480, 10.66382
169.7302, 11.02485
170.2123, 11.19177
170.6944, 11.19005
171.1765, 11.07555
171.6586, 10.74648
172.1407, 10.38124
172.6229, 10.17189
173.1050, 10.18592
173.5871, 10.24069
174.0692, 10.15476
174.5513, 9.973646
175.0334, 9.833498
175.5156, 9.833228
175.9977, 9.917345
176.4798, 10.01440
176.9619, 10.12470
177.4440, 10.22110
177.9261, 10.24796
178.4083, 10.22330
178.8904, 10.22490
179.3725, 10.34678
179.8546, 10.52619
180.3367, 10.63589
180.8188, 10.63570
181.3010, 10.58741
181.7831, 10.55890
182.2652, 10.55115
182.7473, 10.57105
183.2294, 10.60366
183.7115, 10.66571
184.1937, 10.81591
184.6758, 11.10653
185.1579, 11.44191
185.6400, 11.64895
186.1221, 11.73090
186.6042, 11.80936
187.0864, 11.95097
187.5685, 12.16145
188.0506, 12.47950
188.5327, 12.98100
189.0148, 13.53782
189.4969, 13.88528
189.9791, 14.01736
190.4612, 14.03697
190.9433, 14.05519
191.4254, 14.05617
191.9075, 13.88200
192.3896, 13.43041
192.8718, 12.81704
193.3539, 12.35885
193.8360, 12.05906
194.3181, 11.85323
194.8002, 11.66136
195.2823, 11.48445
195.7645, 11.46231
196.2466, 11.69137
196.7287, 12.08611
197.2108, 12.28701
197.6929, 12.26908
198.1750, 12.17169
198.6572, 12.10444
199.1393, 12.06649
199.6214, 12.07338
200.1035, 12.14052
200.5856, 12.25713
201.0677, 12.33558
201.5499, 12.34885
202.0320, 12.41157
202.5141, 12.66761
202.9962, 13.14365
203.4783, 13.60403
203.9604, 14.01347
204.4426, 14.36704
204.9247, 14.63303
205.4068, 14.82720
205.8889, 14.89242
206.3710, 14.74672
206.8531, 14.36024
207.3353, 13.91149
207.8174, 13.40413
208.2995, 12.85074
208.7816, 12.43226
209.2637, 12.17773
209.7458, 12.00841
210.2280, 11.82938
210.7101, 11.60500
211.1922, 11.51296
211.6743, 11.66683
212.1564, 12.04950
212.6385, 12.14138
213.1207, 11.82852
213.6028, 11.40812
214.0849, 11.19340
214.5670, 11.24463
215.0491, 11.32531
215.5313, 11.40123
216.0134, 11.47210
216.4955, 11.47086
216.9776, 11.34687
217.4597, 11.22017
217.9418, 11.22931
218.4240, 11.43665
218.9061, 11.61686
219.3882, 11.71862
219.8703, 11.74069
220.3524, 11.74788
220.8345, 11.70669
221.3167, 11.69172
221.7988, 11.80735
222.2809, 12.16004
222.7630, 12.38425
223.2451, 12.33866
223.7272, 12.01649
224.2094, 11.93306
224.6915, 12.19027
225.1736, 12.57117
225.6557, 12.85941
226.1378, 13.04142
226.6199, 13.16915
227.1021, 13.24041
227.5842, 13.25550
228.0663, 13.28174
228.5484, 13.34517
229.0305, 13.39170
229.5126, 13.34354
229.9948, 13.06901
230.4769, 12.97392
230.9590, 13.18802
231.4411, 13.70990
231.9232, 14.10849
232.4053, 14.33412
232.8875, 14.49446
233.3696, 14.67952
233.8517, 14.88364
234.3338, 15.11902
234.8159, 15.35318
235.2980, 15.59197
235.7802, 16.03256
236.2623, 16.76200
236.7444, 17.59877
237.2265, 18.39917
237.7086, 19.15536
238.1907, 19.89542
238.6729, 20.65530
239.1550, 21.42542
239.6371, 22.04796
240.1192, 22.57171
240.6013, 22.89428
241.0834, 22.90076
241.5656, 22.42492
242.0477, 21.96380
242.5298, 21.59097
243.0119, 21.29416
243.4940, 20.93998
243.9761, 20.47043
244.4583, 20.01158
244.9404, 19.66626
245.4225, 19.52369
245.9046, 19.30738
246.3867, 18.94164
246.8688, 18.46130
247.3510, 18.10549
247.8331, 17.88832
248.3152, 17.77747
248.7973, 17.76524
249.2794, 17.90832
249.7615, 18.03619
250.2437, 18.16278
250.7258, 18.26743
251.2079, 18.22489
251.6900, 17.91526
252.1721, 17.62889
252.6542, 17.54193
253.1364, 17.73191
253.6185, 17.94130
254.1006, 18.15210
254.5827, 18.37112
255.0648, 18.62391
255.5469, 18.92270
256.0291, 19.23119
256.5112, 19.52480
256.9933, 19.78117
257.4754, 20.08997
257.9575, 20.48636
258.4396, 20.92834
258.9218, 21.26838
259.4039, 21.43852
259.8860, 21.63675
260.3681, 21.96334
260.8502, 22.46105
261.3323, 22.96635
261.8145, 23.46377
262.2966, 23.97364
262.7787, 24.54736
263.2608, 25.19332
263.7429, 25.88850
264.2250, 26.66277
264.7072, 27.56498
265.1893, 28.28112
265.6714, 28.67087
266.1535, 28.98798
266.6356, 29.69726
267.1177, 30.89071
267.5999, 32.25176
268.0820, 33.65002
268.5641, 35.07704
269.0462, 36.69880
269.5283, 38.56586
270.0104, 40.59168
270.4926, 42.55066
270.9747, 44.24443
271.4568, 46.64875
271.9389, 50.17405
272.4210, 54.87917
272.9031, 59.71003
273.3853, 64.62119
273.8674, 69.74738
274.3495, 75.09611
274.8316, 80.68185
275.3137, 86.58925
275.7958, 93.29158
276.2780, 100.5928
276.7601, 106.1817
277.2422, 109.8940
277.7243, 112.3148
278.2064, 113.4749
278.6885, 113.0887
279.1707, 113.9597
279.6528, 116.9123
280.1349, 121.6473
280.6170, 126.5121
281.0991, 131.3493
281.5812, 136.9775
282.0634, 144.1796
282.5455, 153.0747
283.0276, 162.3148
283.5097, 171.4517
283.9918, 180.8892
284.4739, 191.8552
284.9561, 204.3779
285.4382, 218.2293
285.9203, 233.0683
286.4024, 248.8311
286.8845, 266.8689
287.3666, 287.4924
287.8488, 310.0086
288.3309, 333.1603
288.8130, 356.9622
289.2951, 380.6157
289.7772, 405.4929
290.2593, 430.3891
290.7415, 450.1867
291.2236, 464.8196
291.7057, 472.7017
292.1878, 471.1205
292.6699, 460.1948
293.1520, 441.1756
293.6342, 411.9111
294.1163, 374.7444
294.5984, 337.8015
295.0805, 300.8263
295.5626, 265.6641
296.0447, 233.6078
296.5269, 204.7154
297.0090, 179.1872
297.4911, 157.7007
297.9732, 139.6538
298.4553, 124.5278
298.9374, 112.4283
299.4196, 102.3840
299.9017, 93.91566
300.3838, 86.88155
300.8659, 81.00013
301.3480, 76.37317
301.8301, 72.78683
302.3123, 70.10516
302.7944, 68.28918
303.2765, 66.91815
303.7586, 65.81391
304.2407, 64.88045
304.7228, 63.90434
305.2050, 62.71660
305.6871, 61.57167
306.1692, 60.72750
306.6513, 60.17236
307.1334, 59.91797
307.6155, 60.08649
308.0977, 60.51733
308.5798, 60.96972
309.0619, 61.26316
309.5440, 61.79765
310.0261, 62.88851
310.5082, 64.48464
310.9904, 66.42338
311.4725, 68.68723
311.9546, 71.23679
312.4367, 74.01600
312.9188, 76.95556
313.4009, 80.28426
313.8831, 83.71463
314.3652, 87.61703
314.8473, 92.73319
315.3294, 99.49663
315.8115, 107.5406
316.2936, 116.7316
316.7758, 127.0953
317.2579, 138.2754
317.7400, 150.8121
318.2221, 163.9372
318.7042, 176.9223
319.1863, 190.4360
319.6685, 202.9495
320.1506, 214.9744
320.6327, 226.5508
321.1148, 233.3635
321.5969, 233.7866
322.0790, 229.0832
322.5612, 220.3054
323.0433, 204.3613
323.5254, 187.8376
324.0075, 171.5628
324.4896, 155.6270
324.9717, 141.1323
325.4539, 128.1051
325.9360, 116.4820
326.4181, 106.3585
326.9002, 97.70995
327.3823, 90.46707
327.8644, 84.94041
328.3466, 80.86156
328.8287, 77.41621
329.3108, 74.85554
329.7929, 72.66415
330.2750, 70.70139
330.7571, 68.88135
331.2393, 67.43089
331.7214, 66.51324
332.2035, 65.90119
332.6856, 65.24375
333.1677, 64.49429
333.6498, 63.76075
334.1320, 63.08731
334.6141, 62.50677
335.0962, 61.80310
335.5783, 60.86293
336.0604, 59.91777
336.5425, 59.21778
337.0247, 58.86184
337.5068, 58.49977
337.9889, 58.05495
338.4710, 57.54168
338.9531, 57.05384
339.4352, 56.56725
339.9174, 56.15260
340.3995, 55.90398
340.8816, 55.85676
341.3637, 55.71629
341.8458, 55.38003
342.3279, 54.98285
342.8101, 54.92237
343.2922, 55.25006
343.7743, 55.57422
344.2564, 55.58670
344.7385, 55.31377
345.2206, 55.29052
345.7028, 55.57292
346.1849, 56.03951
346.6670, 56.46191
347.1491, 56.85543
347.6312, 57.45602
348.1133, 58.34402
348.5955, 59.52300
349.0776, 61.01934
349.5597, 62.85021
350.0418, 64.96202
350.5239, 67.16243
351.0060, 69.57580
351.4882, 72.52652
351.9703, 76.28200
352.4524, 80.49544
352.9345, 84.45903
353.4166, 88.23998
353.8987, 92.46178
354.3809, 97.76604
354.8630, 103.7313
355.3451, 109.6912
355.8272, 115.6683
356.3093, 121.2682
356.7914, 126.3353
357.2736, 130.7982
357.7557, 134.3310
358.2378, 137.1693
358.7199, 138.7314
359.2020, 138.4663
359.6841, 136.2497
360.1663, 132.5732
360.6484, 127.2502
361.1305, 120.7460
361.6126, 113.7136
362.0947, 105.5268
362.5768, 97.62679
363.0590, 90.62614
363.5411, 84.54256
364.0232, 78.89481
364.5053, 73.49520
364.9874, 68.48329
365.4695, 63.96737
365.9517, 60.16033
366.4338, 56.63927
366.9159, 53.25847
367.3980, 50.06442
367.8801, 47.23326
368.3622, 44.87054
368.8444, 42.84026
369.3265, 41.11383
369.8086, 39.86614
370.2907, 38.59554
370.7728, 37.24304
371.2549, 35.88755
371.7371, 34.66619
372.2192, 33.60083
372.7013, 32.63708
373.1834, 31.78671
373.6655, 31.05610
374.1476, 30.32581
374.6298, 29.58813
375.1119, 28.88149
375.5940, 28.26107
376.0761, 27.77163
376.5582, 27.23290
377.0403, 26.55914
377.5225, 25.82318
378.0046, 25.33317
378.4867, 25.13060
378.9688, 25.05140
379.4509, 25.00135
379.9330, 24.98025
380.4152, 25.02735
380.8973, 25.16367
381.3794, 25.33158
381.8615, 25.47328
382.3436, 25.58661
382.8257, 25.55575
383.3079, 25.30515
383.7900, 24.86923
384.2721, 24.32194
384.7542, 23.65675
385.2363, 22.97927
385.7184, 22.33840
386.2006, 21.76489
386.6827, 21.31453
387.1648, 21.05784
387.6469, 20.88577
388.1290, 20.66656
388.6111, 20.40744
389.0933, 20.14495
389.5754, 19.86983
390.0575, 19.61669
390.5396, 19.42698
391.0217, 19.31719
391.5038, 19.23708
391.9860, 19.15847
392.4681, 19.08397
392.9502, 19.01713
393.4323, 19.10876
393.9144, 19.09130
394.3965, 18.72976
394.8787, 17.99225
395.3608, 17.34633
395.8429, 16.95761
396.3250, 16.73121
396.8071, 16.57999
397.2892, 16.57858
397.7714, 16.54880
398.2535, 16.46402
398.7356, 16.32332
399.2177, 16.12383
399.6998, 15.73452
400.1819, 15.39349
400.6641, 15.19723
401.1462, 15.15314
401.6283, 15.24666
402.1104, 15.59425
402.5925, 16.02542
403.0746, 16.27019
403.5568, 16.19821
404.0389, 16.17854
404.5210, 16.33739
405.0031, 16.67508
405.4852, 16.87517
405.9673, 16.88773
406.4495, 16.85691
406.9316, 16.90640
407.4137, 17.04560
407.8958, 17.16947
408.3779, 17.20568
408.8600, 17.27416
409.3422, 17.85432
409.8243, 18.99417
410.3064, 19.82785
410.7885, 19.53373
411.2706, 18.43075
411.7527, 18.11671
412.2349, 18.71258
412.7170, 19.73091
413.1991, 20.76396
413.6812, 21.77827
414.1633, 22.63049
414.6454, 23.26014
415.1276, 23.70752
415.6097, 23.90170
416.0918, 23.88719
416.5739, 24.00268
417.0560, 24.64357
417.5381, 25.47680
418.0203, 26.16363
418.5024, 26.71976
418.9845, 26.90166
419.4666, 26.43846
419.9487, 25.49608
420.4308, 24.39785
420.9130, 23.10254
421.3951, 21.81648
421.8772, 20.59765
422.3593, 19.46956
422.8414, 18.46203
423.3235, 17.63574
423.8057, 16.91425
424.2878, 16.24597
424.7699, 15.58745
425.2520, 15.02294
425.7341, 14.58711
426.2162, 14.26380
426.6984, 13.97251
427.1805, 13.65921
427.6626, 13.44541
428.1447, 13.41763
428.6268, 13.68405
429.1089, 13.71851
429.5911, 13.39321
430.0732, 12.97001
430.5553, 12.80184
431.0374, 12.97163
431.5195, 13.05949
432.0016, 12.92919
432.4838, 12.64636
432.9659, 12.53786
433.4480, 12.62600
433.9301, 12.74791
434.4122, 12.76754
434.8943, 12.70601
435.3765, 12.74051
435.8586, 12.91886
436.3407, 13.10015
436.8228, 13.01023
437.3049, 12.72418
437.7870, 12.56462
438.2692, 12.74361
438.7513, 13.10180
439.2334, 13.45894
439.7155, 13.81044
440.1976, 14.08792
440.6797, 14.13280
441.1619, 14.11669
441.6440, 14.26395
442.1261, 14.71296
442.6082, 15.17496
443.0903, 15.46895
443.5724, 15.65294
444.0546, 15.85214
444.5367, 16.00218
445.0188, 16.27208
445.5009, 16.73454
445.9830, 17.39205
446.4651, 18.24016
446.9473, 19.48019
447.4294, 20.80749
447.9115, 21.95043
448.3936, 22.52735
448.8757, 23.38711
449.3578, 24.69964
449.8400, 26.32909
450.3221, 27.91168
450.8042, 29.47546
451.2863, 30.96841
451.7684, 32.67187
452.2505, 34.91988
452.7327, 35.08142
453.2148, 32.68212
453.6969, 29.04785
454.1790, 25.57382
454.6611, 22.19985
455.1432, 19.41811
455.6254, 17.41154
456.1075, 16.03893
456.5896, 15.10772
457.0717, 14.60242
457.5538, 14.20244
458.0359, 13.68214
458.5181, 13.11180
459.0002, 12.63112
459.4823, 12.25165
459.9644, 11.99461
460.4465, 11.92137
460.9286, 11.98578
461.4108, 12.10407
461.8929, 12.33686
462.3750, 12.53060
462.8571, 12.53499
463.3392, 12.38610
463.8214, 12.25085
464.3035, 12.14764
464.7856, 12.12544
465.2677, 12.25954
465.7498, 12.67494
466.2319, 12.92402
466.7141, 12.68332
467.1962, 12.28523
467.6783, 12.15368
468.1604, 12.59118
468.6425, 13.02400
469.1246, 13.36238
469.6068, 13.61122
470.0889, 13.82373
470.5710, 13.96363
471.0531, 14.11642
471.5352, 14.34720
472.0173, 14.71101
472.4995, 14.94986
472.9816, 15.02706
473.4637, 15.02527
473.9458, 15.10313
474.4279, 15.27423
474.9100, 15.30791
475.3922, 15.05546
475.8743, 14.64577
476.3564, 14.52073
476.8385, 14.67713
477.3206, 14.81307
477.8027, 14.60938
478.2849, 14.23191
478.7670, 14.03810
479.2491, 14.09490
479.7312, 14.25199
480.2133, 14.46162
480.6954, 14.66012
481.1776, 14.72903
481.6597, 14.41971
482.1418, 14.12959
482.6239, 14.17790
483.1060, 14.51260
483.5881, 14.75365
484.0703, 14.77078
484.5524, 14.63622
485.0345, 14.35475
485.5166, 13.77722
485.9987, 13.39606
486.4808, 13.47712
486.9630, 13.72888
487.4451, 13.74775
487.9272, 13.30094
488.4093, 12.95202
488.8914, 12.83483
489.3735, 12.91693
489.8557, 12.91862
490.3378, 12.83376
490.8199, 12.68465
491.3020, 12.44179
491.7841, 12.08482
492.2662, 11.91638
492.7484, 11.99832
493.2305, 12.13311
493.7126, 12.01270
494.1947, 11.67235
494.6768, 11.38209
495.1589, 11.22058
495.6411, 11.16858
496.1232, 11.24249
496.6053, 11.42353
497.0874, 11.58088
497.5695, 11.64357
498.0516, 11.63290
498.5338, 11.54917
499.0159, 11.37684
499.4980, 11.23941
499.9801, 11.24613
500.4622, 11.31709
500.9443, 11.35784
501.4265, 11.28122
501.9086, 11.23068
502.3907, 11.25934
502.8728, 11.35201
503.3549, 11.44339
503.8370, 11.53837
504.3192, 11.61890
504.8013, 11.66591
505.2834, 11.65591
505.7655, 11.73036
506.2476, 11.97330
506.7297, 12.20583
507.2119, 12.21898
507.6940, 11.93161
508.1761, 11.75378
508.6582, 11.74066
509.1403, 11.87430
509.6224, 12.20419
510.1046, 12.73957
510.5867, 13.10838
511.0688, 12.97090
511.5509, 12.52615
512.0330, 12.40213
512.5151, 12.60612
512.9973, 12.87228
513.4794, 12.99623
513.9615, 13.02814
514.4436, 13.03891
514.9257, 13.02750
515.4078, 13.03882
515.8900, 13.15326
516.3721, 13.30983
516.8542, 13.39228
517.3363, 13.25760
517.8184, 13.13342
518.3005, 13.13659
518.7827, 13.26719
519.2648, 13.36650
519.7469, 13.46553
520.2290, 13.48089
520.7111, 13.33264
521.1932, 12.74724
521.6754, 12.60325
522.1575, 13.16272
522.6396, 13.94748
523.1217, 14.22967
523.6038, 13.85717
524.0859, 13.54396
524.5681, 13.46437
525.0502, 13.56846
525.5323, 13.71366
526.0144, 13.90475
526.4965, 14.05824
526.9786, 14.04936
527.4608, 13.96320
527.9429, 14.08779
528.4250, 14.45613
528.9071, 14.84910
529.3892, 14.97795
529.8713, 15.01270
530.3535, 15.24296
530.8356, 15.88844
531.3177, 16.55871
531.7998, 16.91766
532.2819, 17.10368
532.7640, 17.43136
533.2462, 18.14817
533.7283, 18.91015
534.2104, 19.57355
534.6925, 20.11221
535.1746, 20.69312
535.6567, 21.25129
536.1389, 21.91858
536.6210, 22.77122
537.1031, 23.92418
537.5852, 25.02815
538.0673, 26.06933
538.5494, 27.07774
539.0316, 28.07697
539.5137, 29.05660
539.9958, 30.15763
540.4779, 31.41068
540.9600, 32.82200
541.4421, 34.43623
541.9243, 36.24178
542.4064, 38.15537
542.8885, 40.04554
543.3706, 42.00625
543.8527, 44.22741
544.3348, 46.73326
544.8170, 49.38946
545.2991, 52.09630
545.7812, 54.87703
546.2633, 57.81841
546.7454, 61.18826
547.2275, 64.35588
547.7097, 67.07996
548.1918, 69.42013
548.6739, 71.47195
549.1560, 73.36031
549.6381, 74.88318
550.1202, 76.05123
550.6024, 76.88566
551.0845, 76.95558
551.5666, 76.14239
552.0487, 74.71832
552.5308, 72.87573
553.0129, 70.63130
553.4951, 67.79268
553.9772, 64.26198
554.4593, 60.33154
554.9414, 56.24147
555.4235, 52.02876
555.9056, 48.11654
556.3878, 44.67934
556.8699, 41.59812
557.3520, 38.72914
557.8341, 36.08650
558.3162, 33.79112
558.7983, 32.08484
559.2805, 30.65266
559.7626, 29.16702
560.2447, 27.60876
560.7268, 26.23285
561.2089, 25.15753
561.6910, 24.30256
562.1732, 23.60543
562.6553, 23.09909
563.1374, 22.69354
563.6195, 22.52993
564.1016, 22.41329
564.5837, 22.03027
565.0659, 21.14550
565.5480, 20.42135
566.0301, 20.01385
566.5122, 19.87890
566.9943, 19.82432
567.4764, 19.85669
567.9586, 19.93961
568.4407, 20.10437
568.9228, 20.31748
569.4049, 20.35985
569.8870, 20.21424
570.3691, 20.04406
570.8513, 20.04441
571.3334, 20.12904
571.8155, 20.11950
572.2976, 19.93896
572.7797, 19.74370
573.2618, 19.70364
573.7440, 19.72310
574.2261, 19.62868
574.7082, 19.24059
575.1903, 18.83987
575.6724, 18.59424
576.1545, 18.47381
576.6367, 18.18702
577.1188, 17.50919
577.6009, 16.86602
578.0830, 16.43457
578.5651, 16.26757
579.0472, 16.03451
579.5294, 15.67286
580.0115, 15.35235
580.4936, 15.30168
580.9757, 15.52949
581.4578, 15.54053
581.9399, 15.20443
582.4221, 14.76747
582.9042, 14.63775
583.3863, 14.74978
583.8684, 14.82810
584.3505, 14.70724
584.8326, 14.53172
585.3148, 14.46370
585.7969, 14.48158
586.2790, 14.48951
586.7611, 14.34084
587.2432, 14.23734
587.7253, 14.36772
588.2075, 14.80932
588.6896, 15.09706
589.1717, 15.02367
589.6538, 14.83714
590.1359, 14.72510
590.6180, 14.72441
591.1002, 14.72767
591.5823, 14.72916
592.0644, 14.73468
592.5465, 14.75905
593.0286, 14.80652
593.5107, 14.83911
593.9929, 14.83571
594.4750, 14.81897
594.9571, 14.82755
595.4392, 14.86611
595.9213, 14.97822
596.4034, 15.27610
596.8856, 15.62338
597.3677, 15.81232
597.8498, 15.83613
598.3319, 15.86151
598.8140, 15.94466
599.2961, 16.10358
599.7783, 16.36654
600.2604, 16.79267
600.7425, 17.20277
601.2246, 17.57546
601.7067, 17.90673
602.1888, 18.18733
602.6710, 18.39074
603.1531, 18.59228
603.6352, 18.80385
604.1173, 19.01855
604.5994, 19.23499
605.0815, 19.46914
605.5637, 19.60382
606.0458, 19.55354
606.5279, 19.36653
607.0100, 19.25537
607.4921, 19.21896
607.9742, 19.11218
608.4564, 18.77435
608.9385, 18.31683
609.4206, 17.90979
609.9027, 17.57560
610.3848, 17.24947
610.8669, 16.85776
611.3491, 16.46765
611.8312, 16.14282
612.3133, 15.86892
612.7954, 15.70638
613.2775, 15.77438
613.7596, 15.94238
614.2418, 15.96457
614.7239, 15.77101
615.2060, 15.54399
615.6881, 15.28990
616.1702, 15.03180
616.6523, 14.87625
617.1345, 14.82550
617.6166, 14.85602
618.0987, 15.02023
618.5808, 15.26103
619.0629, 15.31899
619.5450, 15.19127
620.0272, 15.08011
620.5093, 15.20100
620.9914, 15.42126
621.4735, 15.56112
621.9556, 15.58031
622.4377, 15.54894
622.9199, 15.40933
623.4020, 15.27827
623.8841, 15.29081
624.3662, 15.68380
624.8483, 15.97198
625.3304, 16.03827
625.8126, 15.96358
626.2947, 15.91663
626.7768, 15.89272
627.2589, 15.90793
627.7410, 15.96666
628.2231, 16.06841
628.7053, 16.26167
629.1874, 16.56092
629.6695, 16.73878
630.1516, 16.57496
630.6337, 16.19563
631.1158, 15.91300
631.5980, 15.74141
632.0801, 15.52429
632.5622, 15.01165
633.0443, 14.45422
633.5264, 14.15755
634.0085, 14.29485
634.4907, 14.37843
634.9728, 14.08628
635.4549, 13.70186
635.9370, 13.56533
636.4191, 14.04230
636.9012, 14.30019
637.3834, 14.18570
637.8655, 13.84412
638.3476, 13.60680
638.8297, 13.48181
639.3118, 13.42629
639.7939, 13.43569
640.2761, 13.50070
640.7582, 13.61801
641.2403, 13.78316
641.7224, 13.90217
642.2045, 13.86016
642.6866, 13.76633
643.1688, 13.78395
643.6509, 13.91951
644.1330, 14.05488
644.6151, 14.13061
645.0972, 14.17374
645.5793, 14.21146
646.0615, 14.27343
646.5436, 14.26551
647.0257, 14.13818
647.5078, 13.95493
647.9899, 13.76755
648.4720, 13.56265
648.9542, 13.38079
649.4363, 13.21552
649.9184, 13.08519
650.4005, 13.04549
650.8826, 13.09408
651.3647, 13.08845
651.8469, 12.93542
652.3290, 12.74811
652.8111, 12.78550
653.2932, 12.98159
653.7753, 13.06208
654.2574, 12.69335
654.7396, 12.29318
655.2217, 12.21218
655.7038, 12.44520
656.1859, 12.65117
656.6680, 12.70261
657.1501, 12.71954
657.6323, 12.75915
658.1144, 12.81722
658.5965, 12.91979
659.0786, 13.06608
659.5607, 13.26033
660.0428, 13.53699
660.5250, 13.90567
661.0071, 14.19493
661.4892, 14.39822
661.9713, 14.47976
662.4534, 14.33199
662.9355, 14.02057
663.4177, 13.74199
663.8998, 13.61242
664.3819, 13.42958
664.8640, 12.91199
665.3461, 12.22965
665.8282, 11.70688
666.3104, 11.61107
666.7925, 11.53157
667.2746, 11.33497
667.7567, 11.03523
668.2388, 10.73605
668.7209, 10.39813
669.2031, 10.12407
669.6852, 9.955462
670.1673, 9.886372
670.6494, 9.841284
671.1315, 9.820958
671.6136, 9.816632
672.0958, 9.812334
672.5779, 9.819892
673.0600, 9.889124
673.5421, 10.02446
674.0242, 10.14596
674.5063, 10.17464
674.9885, 10.16294
675.4706, 10.17514
675.9527, 10.24860
676.4348, 10.27635
676.9169, 10.19779
677.3990, 10.06695
677.8812, 9.935620
678.3633, 9.728228
678.8454, 9.678088
679.3275, 9.894812
679.8096, 10.19614
680.2917, 10.18429
680.7739, 9.830616
681.2560, 9.624328
681.7381, 9.754651
682.2202, 10.04943
682.7023, 10.19426
683.1844, 10.21694
683.6666, 10.22245
684.1487, 10.26699
684.6308, 10.31573
685.1129, 10.36488
685.5950, 10.40276
686.0771, 10.37086
686.5593, 10.08904
687.0414, 9.874759
687.5235, 9.921246
688.0056, 10.25000
688.4877, 10.50001
688.9698, 10.68639
689.4520, 10.76686
689.9341, 10.67443
690.4162, 10.40648
690.8983, 10.20986
691.3804, 10.08775
691.8625, 10.03716
692.3447, 10.03579
692.8268, 10.10643
693.3089, 10.34157
693.7910, 10.81092
694.2731, 11.20796
694.7552, 11.29014
695.2374, 11.19183
695.7195, 11.06714
696.2016, 10.80044
696.6837, 10.70910
697.1658, 10.97197
697.6479, 11.37956
698.1301, 11.61353
698.6122, 11.59806
699.0943, 11.63228
699.5764, 11.80021
700.0585, 12.02525
700.5406, 12.07534
701.0228, 11.97650
701.5049, 12.01224
701.9870, 12.41068
702.4691, 12.92922
702.9512, 13.24049
703.4333, 13.38807
703.9155, 13.53253
704.3976, 13.72821
704.8797, 13.96674
705.3618, 14.25237
705.8439, 14.58455
706.3260, 14.92758
706.8082, 15.28231
707.2903, 15.64537
707.7724, 16.00569
708.2545, 16.36514
708.7366, 16.70981
709.2188, 17.00497
709.7009, 17.44407
710.1830, 18.32313
710.6651, 19.47253
711.1472, 20.32982
711.6293, 20.83154
712.1115, 21.22418
712.5936, 21.63000
713.0757, 22.07910
713.5578, 22.61483
714.0399, 23.29772
714.5220, 23.93900
715.0042, 24.44880
715.4863, 24.90116
715.9684, 25.40539
716.4505, 26.12037
716.9326, 26.52918
717.4147, 26.57057
717.8969, 26.32336
718.3790, 25.85253
718.8611, 25.16350
719.3432, 24.45761
719.8253, 23.77035
720.3074, 23.11822
720.7896, 22.62860
721.2717, 22.18594
721.7538, 21.50986
722.2359, 20.27347
722.7180, 18.97839
723.2001, 17.85608
723.6823, 16.87925
724.1644, 16.01229
724.6465, 15.24321
725.1286, 14.59491
725.6107, 14.10637
726.0928, 13.75044
726.5750, 13.38016
727.0571, 12.99307
727.5392, 12.64100
728.0213, 12.34249
728.5034, 12.09693
728.9855, 11.92402
729.4677, 11.81360
729.9498, 11.68319
730.4319, 11.44426
730.9140, 11.18851
731.3961, 10.99482
731.8782, 10.86858
732.3604, 10.74441
732.8425, 10.57444
733.3246, 10.42991
733.8067, 10.35335
734.2888, 10.35908
734.7709, 10.32500
735.2531, 10.21454
735.7352, 10.15760
736.2173, 10.33267
736.6994, 10.68123
737.1815, 10.79562
737.6636, 10.63684
738.1458, 10.41895
738.6279, 10.32727
739.1100, 10.30108
739.5921, 10.26707
740.0742, 10.21104
740.5563, 10.14825
741.0385, 10.00490
741.5206, 9.900679
742.0027, 9.973945
742.4848, 10.45166
742.9669, 10.65612
743.4490, 10.49197
743.9312, 10.16131
744.4133, 9.870484
744.8954, 9.622420
745.3775, 9.558499
745.8596, 9.743174
746.3417, 10.00453
746.8239, 10.16381
747.3060, 10.23242
747.7881, 10.22037
748.2702, 10.03659
748.7523, 9.914381
749.2344, 10.04224
749.7166, 10.29203
750.1987, 10.42655
750.6808, 10.36415
751.1629, 10.27034
751.6450, 10.15251
752.1271, 10.02457
752.6093, 9.913054
753.0914, 9.815177
753.5735, 9.774598
754.0556, 9.834268
754.5377, 9.922919
755.0198, 9.909617
755.5020, 9.819080
755.9841, 9.729719
756.4662, 9.628420
756.9483, 9.586474
757.4304, 9.714374
757.9125, 9.950165
758.3947, 10.05983
758.8768, 9.901380
759.3589, 9.733402
759.8410, 9.604148
760.3231, 9.516211
760.8052, 9.508288
761.2874, 9.599031
761.7695, 9.629620
762.2516, 9.438228
762.7337, 9.172174
763.2158, 9.233679
763.6979, 9.563007
764.1801, 9.820997
764.6622, 9.729690
765.1443, 9.557223
765.6264, 9.479182
766.1085, 9.501555
766.5906, 9.538879
767.0728, 9.617616
767.5549, 9.662312
768.0370, 9.631565
768.5191, 9.527415
769.0012, 9.466656
769.4833, 9.457779
769.9655, 9.444397
770.4476, 9.364942
770.9297, 9.257262
771.4118, 9.230632
771.8939, 9.282729
772.3760, 9.333683
772.8582, 9.282632
773.3403, 9.243162
773.8224, 9.343728
774.3045, 9.624219
774.7866, 9.762869
775.2687, 9.553356
775.7509, 9.360101
776.2330, 9.400242
776.7151, 9.713041
777.1972, 9.846487
777.6793, 9.777372
778.1614, 9.659598
778.6436, 9.629189
779.1257, 9.645848
779.6078, 9.588446
780.0899, 9.444674
780.5720, 9.370418
781.0541, 9.551517
781.5363, 9.793410
782.0184, 9.926005
782.5005, 9.893313
782.9826, 9.884782
783.4647, 9.915824
783.9468, 9.976077
784.4290, 10.06986
784.9111, 10.20651
785.3932, 10.28960
785.8753, 10.30678
786.3574, 10.32445
786.8395, 10.43110
787.3217, 10.57998
787.8038, 10.67537
788.2859, 10.69930
788.7680, 10.69877
789.2501, 10.69642
789.7322, 10.68556
790.2144, 10.65356
790.6965, 10.56263
791.1786, 10.54304
791.6607, 10.63289
792.1428, 10.75048
792.6249, 10.82298
793.1071, 10.84902
793.5892, 10.88832
794.0713, 10.94275
794.5534, 11.02576
795.0355, 11.17219
795.5176, 11.35148
795.9998, 11.50800
796.4819, 11.62481
796.9640, 11.75285
797.4461, 11.91263
797.9282, 12.09926
798.4103, 12.31807
798.8925, 12.64490
799.3746, 12.81987
799.8567, 12.75091
800.3388, 12.67709
800.8209, 12.88430
801.3030, 13.34440
801.7852, 13.69242
802.2673, 13.88307
802.7494, 14.03196
803.2315, 14.25650
803.7136, 14.51021
804.1957, 14.74233
804.6779, 14.96596
805.1600, 15.09535
805.6421, 14.91327
806.1242, 14.74754
806.6063, 14.90872
807.0884, 15.61681
807.5706, 16.04052
808.0527, 16.11529
808.5348, 16.05371
809.0169, 16.08164
809.4990, 16.16966
809.9811, 16.17572
810.4633, 16.06987
810.9454, 15.96610
811.4275, 15.93389
811.9096, 15.96786
812.3917, 16.06666
812.8738, 16.24579
813.3560, 16.44919
813.8381, 16.69791
814.3202, 16.94227
814.8023, 17.12613
815.2844, 17.22109
815.7665, 17.45164
816.2487, 17.86424
816.7308, 18.24854
817.2129, 18.30922
817.6950, 18.19864
818.1771, 18.26106
818.6592, 18.56478
819.1414, 18.89930
819.6235, 19.19795
820.1056, 19.43597
820.5877, 19.58894
821.0698, 19.62683
821.5519, 19.63218
822.0341, 19.58023
822.5162, 19.53219
822.9983, 19.55203
823.4804, 19.63546
823.9625, 19.65367
824.4446, 19.59425
824.9268, 19.54484
825.4089, 19.58762
825.8910, 19.68832
826.3731, 19.80260
826.8552, 19.92485
827.3373, 20.06601
827.8195, 20.23904
828.3016, 20.42617
828.7837, 20.61422
829.2658, 20.83220
829.7479, 21.01944
830.2300, 21.29642
830.7122, 21.57287
831.1943, 21.83133
831.6764, 22.05247
832.1585, 22.12701
832.6406, 22.05400
833.1227, 22.01058
833.6049, 22.31312
834.0870, 22.55812
834.5691, 22.37325
835.0512, 21.66059
835.5333, 21.05816
836.0154, 20.72393
836.4976, 20.35730
836.9797, 19.77863
837.4618, 18.98829
837.9439, 18.32834
838.4260, 17.79956
838.9081, 17.29502
839.3903, 16.71095
839.8724, 16.11878
840.3545, 15.63005
840.8366, 15.24350
841.3187, 14.89286
841.8008, 14.60382
842.2830, 14.29690
842.7651, 13.89998
843.2472, 13.42323
843.7293, 13.09632
844.2114, 12.97055
844.6935, 12.82367
845.1757, 12.52139
845.6578, 12.12900
846.1399, 11.80140
846.6220, 11.54414
847.1041, 11.38954
847.5862, 11.50904
848.0684, 11.60283
848.5505, 11.38740
849.0326, 10.93517
849.5147, 10.64888
849.9968, 10.68305
850.4789, 10.72942
850.9611, 10.70916
851.4432, 10.64587
851.9253, 10.62354
852.4074, 10.64096
852.8895, 10.65331
853.3716, 10.61349
853.8538, 10.59206
854.3359, 10.74993
854.8180, 10.99153
855.3001, 11.08886
855.7822, 10.80321
856.2643, 10.54439
856.7465, 10.43877
857.2286, 10.43065
857.7107, 10.42529
858.1928, 10.42266
858.6749, 10.41552
859.1570, 10.38736
859.6392, 10.38571
860.1213, 10.52932
860.6034, 10.76019
861.0855, 10.93338
861.5676, 11.00028
862.0497, 11.00907
862.5319, 10.95543
863.0140, 10.87001
863.4961, 10.78981
863.9782, 10.65462
864.4603, 10.67054
864.9424, 10.92366
865.4246, 11.19662
865.9067, 11.12541
866.3888, 10.80170
866.8709, 10.76252
867.3530, 11.13408
867.8351, 11.52938
868.3173, 11.66589
868.7994, 11.63574
869.2815, 11.50025
869.7636, 11.16344
870.2457, 11.04924
870.7278, 11.29789
871.2100, 11.64413
871.6921, 11.91621
872.1742, 12.11114
872.6563, 12.23772
873.1384, 12.29372
873.6205, 12.30103
874.1027, 12.23805
874.5848, 12.15868
875.0669, 12.13202
875.5490, 12.16401
876.0311, 12.22556
876.5132, 12.30545
876.9954, 12.41427
877.4775, 12.55214
877.9596, 12.71924
878.4417, 12.95922
878.9238, 13.29543
879.4059, 13.56745
879.8881, 13.66894
880.3702, 13.65240
880.8523, 13.54913
881.3344, 13.39998
881.8165, 13.37941
882.2986, 13.68495
882.7808, 14.03025
883.2629, 14.28346
883.7450, 14.46245
884.2271, 14.63484
884.7092, 14.77200
885.1913, 14.99341
885.6735, 15.36014
886.1556, 15.78915
886.6377, 16.09099
887.1198, 16.29623
887.6019, 16.52996
888.0840, 16.82816
888.5662, 17.18228
889.0483, 17.63439
889.5304, 18.12659
890.0125, 18.55696
890.4946, 18.85050
890.9767, 19.21608
891.4589, 19.70587
891.9410, 20.21390
892.4231, 20.57575
892.9052, 20.82629
893.3873, 21.13795
893.8694, 21.52454
894.3516, 22.08240
894.8337, 23.04349
895.3158, 24.12956
895.7979, 25.03757
896.2800, 25.61000
896.7621, 26.33896
897.2443, 27.26406
897.7264, 28.32639
898.2085, 29.46558
898.6906, 30.67933
899.1727, 32.13612
899.6548, 33.82576
900.1370, 35.53036
900.6191, 36.84936
901.1012, 38.24153
901.5833, 40.24506
902.0654, 42.81358
902.5475, 45.42983
903.0297, 47.67213
903.5118, 50.25095
903.9939, 53.35688
904.4760, 56.94091
904.9581, 60.82920
905.4402, 65.02303
905.9224, 69.76649
906.4045, 75.49289
906.8866, 81.56807
907.3687, 87.06314
907.8508, 92.34160
908.3329, 98.09399
908.8151, 104.4930
909.2972, 111.5003
909.7793, 119.0013
910.2614, 127.1425
910.7435, 136.2193
911.2256, 146.2657
911.7078, 156.7543
912.1899, 167.6319
912.6720, 179.2665
913.1541, 191.6062
913.6362, 205.0895
914.1183, 220.5036
914.6005, 238.4186
915.0826, 256.7860
915.5647, 275.1111
916.0468, 293.5696
916.5289, 312.7866
917.0110, 333.3921
917.4932, 350.7552
917.9753, 365.1485
918.4574, 374.8229
918.9395, 379.2622
919.4216, 377.7033
919.9037, 367.9358
920.3859, 350.3317
920.8680, 329.3642
921.3501, 304.3442
921.8322, 278.7609
922.3143, 253.0500
922.7964, 227.9775
923.2786, 206.1237
923.7607, 187.5847
924.2428, 171.5085
924.7249, 157.9490
925.2070, 146.4034
925.6891, 136.6120
926.1713, 128.3607
926.6534, 121.2774
927.1355, 116.0705
927.6176, 110.9776
928.0997, 105.1428
928.5818, 99.29650
929.0640, 94.45529
929.5461, 90.81078
930.0282, 86.80549
930.5103, 82.24772
930.9924, 77.58919
931.4745, 73.32404
931.9567, 69.39297
932.4388, 65.56902
932.9209, 61.80207
933.4030, 58.58359
933.8851, 56.26585
934.3672, 54.49107
934.8494, 53.10841
935.3315, 52.11766
935.8136, 51.14614
936.2957, 50.17259
936.7778, 49.40938
937.2599, 49.04485
937.7421, 48.93288
938.2242, 48.84419
938.7063, 48.79990
939.1884, 48.88586
939.6705, 49.01236
940.1526, 49.43169
940.6348, 50.28331
941.1169, 51.43951
941.5990, 52.60854
942.0811, 53.77595
942.5632, 55.04788
943.0453, 56.40107
943.5275, 57.98539
944.0096, 60.23144
944.4917, 62.79992
944.9738, 65.11897
945.4559, 66.83041
945.9380, 68.81310
946.4202, 71.78801
946.9023, 74.71329
947.3844, 76.72549
947.8665, 77.73891
948.3486, 79.21001
948.8307, 81.20196
949.3129, 82.83876
949.7950, 83.50854
950.2771, 83.38747
950.7592, 82.73547
951.2413, 81.52595
951.7234, 79.41346
952.2056, 75.69791
952.6877, 71.72391
953.1698, 67.82128
953.6519, 63.95483
954.1340, 59.91435
954.6161, 55.70384
955.0983, 51.78736
955.5804, 48.38469
956.0625, 45.24244
956.5446, 42.10915
957.0267, 39.07943
957.5089, 36.29409
957.9910, 33.63245
958.4731, 31.50441
958.9552, 30.06676
959.4373, 28.92085
959.9194, 27.65955
960.4016, 26.30727
960.8837, 25.06508
961.3658, 23.95646
961.8479, 22.95962
962.3300, 22.11738
962.8121, 21.34946
963.2943, 20.59748
963.7764, 19.85547
964.2585, 19.19619
964.7406, 18.65703
965.2227, 18.12924
965.7048, 17.52077
966.1870, 16.93914
966.6691, 16.75743
967.1512, 16.87020
967.6333, 16.82959
968.1154, 16.33370
968.5975, 15.78622
969.0797, 15.37399
969.5618, 15.07352
970.0439, 14.83130
970.5260, 14.64851
971.0081, 14.50499
971.4902, 14.39063
971.9724, 14.34510
972.4545, 14.54248
972.9366, 14.81529
973.4187, 14.69948
973.9008, 14.14957
974.3829, 13.65233
974.8651, 13.45547
975.3472, 13.39495
975.8293, 13.41882
976.3114, 13.50966
976.7935, 13.49401
977.2756, 13.35194
977.7578, 13.27115
978.2399, 13.40387
978.7220, 13.55804
979.2041, 13.34341
979.6862, 12.93043
980.1683, 12.68825
980.6505, 12.94585
981.1326, 13.12298
981.6147, 13.10579
982.0968, 12.97561
982.5789, 12.78647
983.0610, 12.53761
983.5432, 12.40819
984.0253, 12.42194
984.5074, 12.43721
984.9895, 12.27358
985.4716, 12.08378
985.9537, 12.01244
986.4359, 12.07481
986.9180, 12.23136
987.4001, 12.54887
987.8822, 12.82746
988.3643, 12.98711
988.8464, 13.05672
989.3286, 13.10366
989.8107, 13.13532
990.2928, 13.18843
990.7749, 13.29082
991.2570, 13.40103
991.7391, 13.49453
992.2213, 13.57826
992.7034, 13.66164
993.1855, 13.72428
993.6676, 13.84279
994.1497, 14.02480
994.6318, 14.24779
995.1140, 14.51836
995.5961, 14.80091
996.0782, 14.98671
996.5603, 15.07724
997.0424, 15.26386
997.5245, 15.70665
998.0067, 16.19831
998.4888, 16.65527
998.9709, 17.07880
999.4530, 17.48028
999.9351, 17.85333
1000.417, 18.29699
1000.899, 18.87144
1001.381, 19.48773
1001.864, 20.05294
1002.346, 20.59287
1002.828, 21.13784
1003.310, 21.64082
1003.792, 22.26486
1004.274, 23.09941
1004.756, 23.94452
1005.238, 24.59891
1005.721, 25.09807
1006.203, 25.76796
1006.685, 26.60241
1007.167, 27.50158
1007.649, 28.28976
1008.131, 29.20443
1008.613, 30.49432
1009.095, 31.59819
1009.577, 33.43513
1010.060, 34.38908
1010.542, 35.65125
1011.024, 37.41367
1011.506, 39.50243
1011.988, 41.72646
1012.470, 44.05373
1012.952, 46.33064
1013.434, 48.41282
1013.917, 50.79702
1014.399, 53.89722
1014.881, 57.12091
1015.363, 60.08368
1015.845, 62.77141
1016.327, 65.52353
1016.809, 68.33570
1017.291, 70.82639
1017.773, 72.72719
1018.256, 74.20984
1018.738, 75.75901
1019.220, 77.05851
1019.702, 77.15501
1020.184, 75.57053
1020.666, 73.23186
1021.148, 70.03461
1021.630, 66.44859
1022.112, 63.19835
1022.595, 60.16976
1023.077, 56.98742
1023.559, 53.57246
1024.041, 50.26099
1024.523, 47.27704
1025.005, 44.42865
1025.487, 41.53635
1025.969, 38.60826
1026.452, 36.42925
1026.934, 35.08428
1027.416, 33.77545
1027.898, 32.04151
1028.380, 30.29116
1028.862, 29.25572
1029.344, 28.62673
1029.826, 27.80923
1030.308, 26.37701
1030.791, 25.09139
1031.273, 24.00024
1031.755, 23.10053
1032.237, 22.43390
1032.719, 21.97159
1033.201, 21.55414
1033.683, 21.16794
1034.165, 20.79408
1034.647, 20.35999
1035.130, 19.99426
1035.612, 19.84001
1036.094, 19.84543
1036.576, 19.69373
1037.058, 19.31623
1037.540, 19.12410
1038.022, 19.28271
1038.504, 19.50332
1038.987, 19.33834
1039.469, 18.96233
1039.951, 18.64217
1040.433, 18.41723
1040.915, 18.35321
1041.397, 18.57816
1041.879, 18.83023
1042.361, 18.99137
1042.844, 19.05829
1043.326, 18.90290
1043.808, 18.57233
1044.290, 18.48807
1044.772, 19.19209
1045.254, 19.89122
1045.736, 19.92454
1046.218, 19.65191
1046.700, 19.82750
1047.183, 20.66747
1047.665, 21.22107
1048.147, 21.31071
1048.629, 21.47260
1049.111, 22.47980
1049.593, 23.84119
1050.075, 24.68420
1050.557, 24.95775
1051.040, 25.47550
1051.522, 26.60852
1052.004, 27.90868
1052.486, 29.26383
1052.968, 30.67695
1053.450, 32.10744
1053.932, 33.58573
1054.414, 35.30938
1054.896, 37.38824
1055.379, 39.59754
1055.861, 41.76334
1056.343, 44.02068
1056.825, 46.49814
1057.307, 49.17759
1057.789, 52.13442
1058.271, 55.37424
1058.753, 58.87564
1059.235, 62.56390
1059.718, 66.50157
1060.200, 70.81890
1060.682, 75.44722
1061.164, 80.19444
1061.646, 85.19733
1062.128, 90.10637
1062.610, 95.10462
1063.092, 99.60665
1063.574, 103.1919
1064.057, 105.7091
1064.539, 106.4978
1065.021, 105.4868
1065.503, 102.8353
1065.985, 97.77453
1066.467, 91.90788
1066.949, 85.94828
1067.431, 79.98125
1067.914, 73.87328
1068.396, 67.54231
1068.878, 61.75792
1069.360, 56.71873
1069.842, 52.19627
1070.324, 47.95444
1070.806, 44.01101
1071.288, 40.45373
1071.771, 37.27298
1072.253, 34.55522
1072.735, 32.37215
1073.217, 30.52116
1073.699, 29.00368
1074.181, 27.70153
1074.663, 26.23623
1075.145, 24.67114
1075.627, 23.28139
1076.110, 22.12885
1076.592, 21.23152
1077.074, 20.77733
1077.556, 20.43767
1078.038, 19.79481
1078.520, 18.84967
1079.002, 18.18291
1079.484, 17.84011
1079.967, 17.52446
1080.449, 16.93077
1080.931, 16.34121
1081.413, 16.04776
1081.895, 15.54863
1082.377, 15.66300
1082.859, 14.93121
1083.341, 14.45362
1083.823, 14.42767
1084.306, 14.59966
1084.788, 14.70527
1085.270, 14.73821
1085.752, 14.67411
1086.234, 14.49439
1086.716, 14.29607
1087.198, 14.05373
1087.680, 13.86136
1088.162, 13.75417
1088.645, 13.73372
1089.127, 13.84286
1089.609, 14.04859
1090.091, 14.23041
1090.573, 14.41980
1091.055, 14.44730
1091.537, 14.01272
1092.019, 13.53740
1092.501, 13.44317
1092.984, 13.75843
1093.466, 14.13958
1093.948, 14.58671
1094.430, 14.98074
1094.912, 15.23695
1095.394, 15.41249
1095.876, 15.47116
1096.358, 15.48899
1096.841, 15.69531
1097.323, 16.15012
1097.805, 16.64085
1098.287, 17.15269
1098.769, 17.63681
1099.251, 17.93330
1099.733, 18.21263
1100.215, 18.77160
1100.698, 19.63659
1101.180, 20.50483
1101.662, 21.40921
1102.144, 22.12789
1102.626, 22.49997
1103.108, 22.76410
1103.590, 23.49835
1104.072, 24.58946
1104.554, 25.70590
1105.037, 26.79425
1105.519, 27.74009
1106.001, 28.34120
1106.483, 28.90117
1106.965, 29.66609
1107.447, 30.59834
1107.929, 31.15510
1108.411, 31.35230
1108.894, 31.52871
1109.376, 32.00821
1109.858, 32.31807
1110.340, 32.03466
1110.822, 31.37664
1111.304, 30.64831
1111.786, 29.88624
1112.268, 29.02441
1112.750, 28.06569
1113.233, 27.00853
1113.715, 25.81357
1114.197, 24.53802
1114.679, 23.08691
1115.161, 21.57289
1115.643, 20.39577
1116.125, 19.89990
1116.607, 19.18746
1117.089, 18.06480
1117.572, 16.90647
1118.054, 16.26276
1118.536, 15.91347
1119.018, 15.38224
1119.500, 14.62716
1119.982, 13.89846
1120.464, 13.19043
1120.946, 12.67157
1121.428, 12.47511
1121.911, 12.43225
1122.393, 12.09316
1122.875, 11.53417
1123.357, 11.09349
1123.839, 10.85984
1124.321, 10.70078
1124.803, 10.57199
1125.285, 10.46406
1125.768, 10.36828
1126.250, 10.28460
1126.732, 10.23835
1127.214, 10.22513
1127.696, 10.11105
1128.178, 9.744390
1128.660, 9.430500
1129.142, 9.547538
1129.625, 9.800680
1130.107, 9.803838
1130.589, 9.470647
1131.071, 9.231635
1131.553, 9.086912
1132.035, 9.023413
1132.517, 9.110417
1132.999, 9.213777
1133.481, 9.112665
1133.964, 8.911326
1134.446, 8.859893
1134.928, 9.142270
1135.410, 9.278538
1135.892, 9.219563
1136.374, 9.090579
1136.856, 8.985116
1137.338, 8.910080
1137.821, 8.901049
1138.303, 8.944946
1138.785, 8.958269
1139.267, 8.893985
1139.749, 8.820554
1140.231, 8.745669
1140.713, 8.673230
1141.195, 8.601635
1141.677, 8.537593
1142.160, 8.500242
1142.642, 8.492161
1143.124, 8.495718
1143.606, 8.559537
1144.088, 8.558290
1144.570, 8.407787
1145.052, 8.188971
1145.534, 8.145794
1146.016, 8.246784
1146.499, 8.327954
1146.981, 8.351624
1147.463, 8.338429
1147.945, 8.274647
1148.427, 8.200796
1148.909, 8.132743
1149.391, 8.076435
1149.873, 8.106845
1150.355, 8.218216
1150.838, 8.280361
1151.320, 8.222563
1151.802, 8.144759
1152.284, 8.089545
1152.766, 8.079024
1153.248, 8.162167
1153.730, 8.364138
1154.212, 8.398644
1154.695, 8.252720
1155.177, 8.109879
1155.659, 8.088557
1156.141, 8.104808
1156.623, 8.107567
1157.105, 8.081699
1157.587, 7.980731
1158.069, 7.715744
1158.552, 7.669774
1159.034, 7.888513
1159.516, 8.099254
1159.998, 8.022314
1160.480, 7.859865
1160.962, 7.902679
1161.444, 8.078982
1161.926, 8.125304
1162.408, 7.938859
1162.891, 7.771545
1163.373, 7.646913
1163.855, 7.543381
1164.337, 7.426211
1164.819, 7.320765
1165.301, 7.279059
1165.783, 7.296267
1166.265, 7.306748
1166.748, 7.289256
1167.230, 7.279889
1167.712, 7.300152
1168.194, 7.300568
1168.676, 7.138891
1169.158, 6.925342
1169.640, 6.924974
1170.122, 7.169133
1170.604, 7.352896
1171.087, 7.342105
1171.569, 7.301169
1172.051, 7.266927
1172.533, 7.233761
1173.015, 7.190244
1173.497, 7.137430
1173.979, 7.066297
1174.461, 6.963493
1174.943, 6.915987
1175.426, 7.022141
1175.908, 7.115197
1176.390, 7.117080
1176.872, 7.064679
1177.354, 7.088742
1177.836, 7.165327
1178.318, 7.211108
1178.800, 7.199430
1179.282, 7.157632
1179.765, 7.096474
1180.247, 7.004899
1180.729, 6.849771
1181.211, 6.659516
1181.693, 6.612499
1182.175, 6.686800
1182.657, 6.765154
1183.139, 6.805280
1183.622, 6.831418
1184.104, 6.852172
1184.586, 6.865024
1185.068, 6.858809
1185.550, 6.836538
1186.032, 6.883942
1186.514, 6.988271
1186.996, 7.040101
1187.479, 6.902840
1187.961, 6.788871
1188.443, 6.863554
1188.925, 6.970812
1189.407, 6.921998
1189.889, 6.709743
1190.371, 6.633110
1190.853, 6.691885
1191.335, 6.772397
1191.818, 6.793884
1192.300, 6.826643
1192.782, 6.941664
1193.264, 7.076446
1193.746, 7.141786
1194.228, 7.136035
1194.710, 7.094387
1195.192, 7.019381
1195.675, 6.931267
1196.157, 6.838252
1196.639, 6.743380
1197.121, 6.629627
1197.603, 6.522418
1198.085, 6.482672
1198.567, 6.514196
1199.049, 6.503131
1199.531, 6.433146
1200.014, 6.433948
1200.496, 6.751920
1200.978, 7.042946
1201.460, 6.998124
1201.942, 6.739663
1202.424, 6.641731
1202.906, 6.712476
1203.388, 6.733428
1203.870, 6.667035
1204.353, 6.584725
1204.835, 6.544692
1205.317, 6.515536
1205.799, 6.466136
1206.281, 6.406834
1206.763, 6.381376
1207.245, 6.390386
1207.727, 6.423290
1208.209, 6.479965
1208.692, 6.545487
1209.174, 6.577913
1209.656, 6.740036
1210.138, 6.632822
1210.620, 6.657553
1211.102, 6.627553
1211.584, 6.477632
1212.066, 6.507308
1212.549, 6.313611
1213.031, 6.120074
1213.513, 6.158033
1213.995, 6.248137
1214.477, 6.188622
1214.959, 6.011113
1215.441, 6.084860
1215.923, 6.414176
1216.406, 6.599850
1216.888, 6.471254
1217.370, 6.283637
1217.852, 6.208595
1218.334, 6.208698
1218.816, 6.281556
1219.298, 6.416464
1219.780, 6.395703
1220.262, 6.221367
1220.745, 6.087084
1221.227, 6.069716
1221.709, 6.100288
1222.191, 6.139264
1222.673, 6.189896
1223.155, 6.262435
1223.637, 6.356018
1224.119, 6.423182
1224.602, 6.462158
1225.084, 6.419294
1225.566, 6.194918
1226.048, 6.022176
1226.530, 6.140265
1227.012, 6.338140
1227.494, 6.409581
1227.976, 6.353416
1228.458, 6.202249
1228.941, 5.970259
1229.423, 5.867986
1229.905, 6.086967
1230.387, 6.323180
1230.869, 6.428240
1231.351, 6.432092
1231.833, 6.355936
1232.315, 6.200622
1232.797, 6.060338
1233.280, 5.940495
1233.762, 5.880741
1234.244, 5.929573
1234.726, 6.008560
1235.208, 6.138571
1235.690, 6.230929
1236.172, 6.168968
1236.654, 5.963071
1237.136, 5.944158
1237.619, 6.083540
1238.101, 6.171265
1238.583, 6.025658
1239.065, 5.890450
1239.547, 5.849275
1240.029, 5.869285
1240.511, 5.941364
1240.993, 6.057684
1241.476, 6.164087
1241.958, 6.252501
1242.440, 6.282964
1242.922, 6.193863
1243.404, 6.094889
1243.886, 5.975668
1244.368, 5.908980
1244.850, 6.000923
1245.333, 6.210158
1245.815, 6.372686
1246.297, 6.480653
1246.779, 6.523962
1247.261, 6.435422
1247.743, 6.366261
1248.225, 6.347159
1248.707, 6.352583
1249.189, 6.386829
1249.672, 6.417769
1250.154, 6.326319
1250.636, 6.137737
1251.118, 5.983284
1251.600, 5.918093
1252.082, 5.889968
1252.564, 5.898636
1253.046, 5.926077
1253.529, 5.991333
1254.011, 6.044271
1254.493, 5.934316
1254.975, 5.708180
1255.457, 5.589150
1255.939, 5.758867
1256.421, 5.808461
1256.903, 5.665001
1257.385, 5.518153
1257.868, 5.564168
1258.350, 5.718633
1258.832, 5.921954
1259.314, 6.129393
1259.796, 6.156420
1260.278, 5.865944
1260.760, 5.754916
1261.242, 5.900802
1261.724, 6.070781
1262.207, 6.037694
1262.689, 5.917147
1263.171, 5.815831
1263.653, 5.738318
1264.135, 5.664999
1264.617, 5.572381
1265.099, 5.604498
1265.581, 5.786203
1266.063, 5.975892
1266.546, 6.053996
1267.028, 6.086370
1267.510, 6.141619
1267.992, 6.188970
1268.474, 6.133954
1268.956, 5.962418
1269.438, 5.867414
1269.920, 5.865301
1270.403, 5.930780
1270.885, 6.133431
1271.367, 6.304828
1271.849, 6.342416
1272.331, 6.278559
1272.813, 6.103851
1273.295, 5.836699
1273.777, 5.783729
1274.260, 5.959527
1274.742, 6.133095
1275.224, 6.160092
1275.706, 6.163170
1276.188, 6.211988
1276.670, 6.240308
1277.152, 6.106114
1277.634, 5.865515
1278.116, 5.764447
1278.599, 5.808275
1279.081, 5.888331
1279.563, 6.026341
1280.045, 6.090188
1280.527, 6.031963
1281.009, 5.935435
1281.491, 5.913031
1281.973, 5.930042
1282.456, 5.897703
1282.938, 5.825102
1283.420, 5.797924
1283.902, 5.839788
1284.384, 5.953890
1284.866, 6.185102
1285.348, 6.343696
1285.830, 6.097163
1286.313, 5.732751
1286.795, 5.679456
1287.277, 5.870908
1287.759, 5.911933
1288.241, 5.702516
1288.723, 5.606032
1289.205, 5.666516
1289.687, 5.792897
1290.169, 5.981454
1290.651, 6.132848
1291.134, 6.138709
1291.616, 6.034947
1292.098, 5.929895
1292.580, 5.818359
1293.062, 5.778969
1293.544, 5.817871
1294.026, 5.846689
1294.508, 5.776056
1294.990, 5.704659
1295.473, 5.690181
1295.955, 5.710248
1296.437, 5.757559
1296.919, 5.821860
1297.401, 5.781028
1297.883, 5.643439
1298.365, 5.572711
1298.847, 5.743949
1299.330, 5.869819
1299.812, 5.841289
1300.294, 5.790217
1300.776, 5.930228
1301.258, 5.850578
1301.740, 6.105749
1302.222, 5.842062
1302.704, 5.657987
1303.187, 5.707603
1303.669, 5.778493
1304.151, 5.858340
##END=



