##NAMES=Andalusite
##RRUFFID=R050561
##IDEAL CHEMISTRY=Al_2_SiO_5_
##LOCALITY=Cargo Muchacho Mountain, Imperial County, California
##OWNER=RRUFF
##SOURCE=Dave Bunk Minerals
##DESCRIPTION=Brown coarsely crystalline massive
##STATUS=The identification of this mineral has been confirmed by X-ray diffraction and chemical analysis
##URL=rruff.info/R050561
##MEASURED CHEMISTRY=(Al_1.98_Fe^3+^_0.02_)_Î£=2_Si_1.00_O_5_
92.20605, 110.9775
92.68817, 111.9830
93.17029, 113.1879
93.65240, 112.9840
94.13452, 112.4075
94.61664, 111.7109
95.09875, 111.1308
95.58087, 110.6026
96.06299, 109.6286
96.54510, 107.6996
97.02722, 106.0725
97.50933, 105.0838
97.99145, 104.5460
98.47356, 104.2431
98.95568, 104.0051
99.43780, 103.6880
99.91991, 102.9341
100.4020, 101.3292
100.8841, 99.81890
101.3663, 98.75053
101.8484, 98.10997
102.3305, 97.69435
102.8126, 97.30237
103.2947, 96.91092
103.7768, 96.72491
104.2590, 97.01112
104.7411, 97.36867
105.2232, 97.30914
105.7053, 96.66527
106.1874, 95.85701
106.6695, 95.43710
107.1517, 95.36597
107.6338, 95.28568
108.1159, 95.02821
108.5980, 94.61863
109.0801, 94.16166
109.5622, 93.44930
110.0444, 92.92824
110.5265, 93.07603
111.0086, 93.94648
111.4907, 94.89971
111.9728, 95.16114
112.4549, 94.50880
112.9371, 93.91216
113.4192, 93.35143
113.9013, 93.01006
114.3834, 93.16212
114.8655, 93.90968
115.3476, 94.94495
115.8298, 95.43140
116.3119, 94.83968
116.7940, 94.29646
117.2761, 93.81206
117.7582, 93.46326
118.2403, 93.36233
118.7225, 93.59171
119.2046, 94.11511
119.6867, 94.50896
120.1688, 94.80651
120.6509, 94.97659
121.1330, 94.88630
121.6152, 94.61393
122.0973, 94.44003
122.5794, 94.61132
123.0615, 95.13258
123.5436, 95.54905
124.0257, 95.85481
124.5079, 96.05944
124.9900, 96.12048
125.4721, 96.01008
125.9542, 95.91163
126.4363, 96.04251
126.9184, 96.32207
127.4006, 96.57494
127.8827, 96.73758
128.3648, 96.82310
128.8469, 96.87478
129.3290, 96.92648
129.8111, 96.88970
130.2932, 96.71253
130.7754, 96.41427
131.2575, 96.06360
131.7396, 95.65441
132.2217, 95.15728
132.7038, 94.87531
133.1859, 95.05264
133.6681, 95.27624
134.1502, 95.38163
134.6323, 95.34839
135.1144, 95.25004
135.5965, 95.15484
136.0786, 94.93822
136.5608, 95.01176
137.0429, 95.61467
137.5250, 96.30912
138.0071, 96.77488
138.4892, 96.91420
138.9713, 96.83435
139.4535, 96.75381
139.9356, 96.84281
140.4177, 96.67963
140.8998, 96.04530
141.3819, 95.18875
141.8640, 94.43603
142.3462, 93.92870
142.8283, 93.61646
143.3104, 93.36183
143.7925, 93.09927
144.2746, 92.97295
144.7567, 93.13661
145.2388, 93.52288
145.7210, 93.84884
146.2031, 93.98293
146.6852, 93.95731
147.1673, 93.87553
147.6494, 93.72836
148.1315, 93.54379
148.6137, 93.37373
149.0958, 93.23427
149.5779, 92.99133
150.0600, 92.19042
150.5421, 91.38219
151.0242, 91.22146
151.5064, 92.14176
151.9885, 93.52987
152.4706, 94.02503
152.9527, 92.97785
153.4348, 92.25953
153.9169, 92.86507
154.3991, 93.97028
154.8812, 94.49662
155.3633, 93.72386
155.8454, 91.94569
156.3275, 90.97159
156.8096, 91.76698
157.2918, 92.43381
157.7739, 92.50581
158.2560, 92.17680
158.7381, 91.82878
159.2202, 91.74764
159.7023, 91.94209
160.1845, 92.07563
160.6666, 92.17620
161.1487, 92.20162
161.6308, 92.07372
162.1129, 91.83640
162.5950, 91.63361
163.0772, 91.61089
163.5593, 91.80341
164.0414, 91.83224
164.5235, 91.46270
165.0056, 91.11772
165.4877, 91.16961
165.9698, 91.63400
166.4520, 92.11401
166.9341, 92.13766
167.4162, 91.70670
167.8983, 91.55190
168.3804, 92.00761
168.8625, 92.67793
169.3447, 93.08570
169.8268, 93.15316
170.3089, 93.01469
170.7910, 92.65115
171.2731, 92.13899
171.7552, 91.80673
172.2374, 91.95533
172.7195, 92.39352
173.2016, 92.52859
173.6837, 92.06454
174.1658, 91.64713
174.6479, 91.79366
175.1301, 92.39034
175.6122, 93.00658
176.0943, 93.39104
176.5764, 93.54710
177.0585, 93.51092
177.5406, 93.04006
178.0228, 92.59483
178.5049, 92.34288
178.9870, 92.30291
179.4691, 92.46278
179.9512, 92.88560
180.4333, 93.66984
180.9155, 94.26427
181.3976, 94.70872
181.8797, 94.93999
182.3618, 94.70773
182.8439, 94.11190
183.3260, 93.61082
183.8082, 93.83248
184.2903, 95.21397
184.7724, 96.18439
185.2545, 96.55337
185.7366, 96.74575
186.2187, 97.04805
186.7009, 97.50379
187.1830, 97.93279
187.6651, 98.05306
188.1472, 97.56889
188.6293, 97.40414
189.1114, 97.76089
189.5936, 98.30933
190.0757, 98.83457
190.5578, 99.26895
191.0399, 99.54671
191.5220, 99.50410
192.0041, 98.93875
192.4863, 98.62046
192.9684, 98.84747
193.4505, 99.29527
193.9326, 99.51064
194.4147, 99.32825
194.8968, 99.02749
195.3790, 99.08876
195.8611, 99.50614
196.3432, 100.0115
196.8253, 100.5869
197.3074, 101.1916
197.7895, 101.7295
198.2717, 102.1525
198.7538, 102.5394
199.2359, 103.0030
199.7180, 103.5474
200.2001, 104.0720
200.6822, 104.3537
201.1644, 104.5089
201.6465, 105.1635
202.1286, 106.8336
202.6107, 108.6380
203.0928, 109.8495
203.5749, 110.4639
204.0571, 110.6513
204.5392, 110.4871
205.0213, 109.9743
205.5034, 109.2504
205.9855, 108.2307
206.4676, 107.0749
206.9497, 105.7582
207.4319, 104.3264
207.9140, 103.0633
208.3961, 102.3002
208.8782, 102.1026
209.3603, 101.9945
209.8424, 102.0482
210.3246, 102.0972
210.8067, 101.9506
211.2888, 101.6435
211.7709, 101.4671
212.2530, 101.8691
212.7351, 103.1466
213.2173, 104.0474
213.6994, 104.5423
214.1815, 104.7047
214.6636, 104.3487
215.1457, 103.5666
215.6278, 102.8084
216.1100, 102.6964
216.5921, 103.5658
217.0742, 104.2806
217.5563, 104.8748
218.0384, 105.3310
218.5205, 105.5852
219.0027, 105.6543
219.4848, 105.6675
219.9669, 105.7960
220.4490, 106.0881
220.9311, 106.3917
221.4132, 106.7432
221.8954, 107.0824
222.3775, 107.3686
222.8596, 107.5937
223.3417, 107.7658
223.8238, 107.8774
224.3059, 107.8484
224.7881, 108.0163
225.2702, 108.4353
225.7523, 109.0138
226.2344, 109.7843
226.7165, 110.7340
227.1986, 111.5773
227.6807, 111.9064
228.1629, 111.5730
228.6450, 111.4503
229.1271, 111.7323
229.6092, 112.1769
230.0913, 112.5543
230.5734, 112.8232
231.0556, 113.0350
231.5377, 113.2609
232.0198, 113.5012
232.5019, 113.6121
232.9840, 113.3734
233.4661, 113.0754
233.9483, 113.0139
234.4304, 113.2086
234.9125, 113.7574
235.3946, 115.0684
235.8767, 116.9371
236.3588, 118.4664
236.8410, 119.4184
237.3231, 119.9021
237.8052, 119.9469
238.2873, 119.4116
238.7694, 118.9471
239.2515, 119.3406
239.7337, 120.2266
240.2158, 120.7877
240.6979, 120.5005
241.1800, 119.7702
241.6621, 119.4154
242.1442, 119.6214
242.6264, 119.7155
243.1085, 119.1346
243.5906, 118.1762
244.0727, 117.3025
244.5548, 116.7280
245.0369, 116.3458
245.5191, 115.9222
246.0012, 115.4197
246.4833, 114.9691
246.9654, 114.6789
247.4475, 114.4641
247.9296, 114.2036
248.4117, 113.8145
248.8939, 113.3807
249.3760, 113.0968
249.8581, 113.0290
250.3402, 112.9776
250.8223, 112.8563
251.3044, 112.7154
251.7866, 112.6080
252.2687, 112.5543
252.7508, 112.5504
253.2329, 112.6330
253.7150, 112.9794
254.1971, 113.0266
254.6793, 112.2470
255.1614, 111.3269
255.6435, 111.0035
256.1256, 111.5973
256.6077, 112.6624
257.0898, 113.2771
257.5720, 113.2953
258.0541, 113.1021
258.5362, 112.4842
259.0183, 111.8723
259.5004, 111.7223
259.9825, 112.1783
260.4647, 112.8701
260.9468, 113.0155
261.4289, 111.9704
261.9110, 111.6827
262.3931, 112.5999
262.8752, 113.9866
263.3574, 115.3557
263.8395, 116.5545
264.3216, 117.6203
264.8037, 118.6246
265.2858, 119.5985
265.7679, 120.4324
266.2501, 120.7543
266.7322, 121.2126
267.2143, 122.2466
267.6964, 123.9282
268.1785, 126.0529
268.6606, 128.3892
269.1428, 131.0574
269.6249, 133.6077
270.1070, 135.8256
270.5891, 138.1124
271.0712, 140.8121
271.5533, 143.8870
272.0355, 146.9441
272.5176, 149.5154
272.9997, 151.3873
273.4818, 153.6315
273.9639, 156.6467
274.4460, 159.6071
274.9282, 161.9568
275.4103, 163.7856
275.8924, 165.5990
276.3745, 167.8750
276.8566, 170.6905
277.3387, 173.2681
277.8208, 175.1864
278.3029, 177.3306
278.7851, 180.0928
279.2672, 183.4313
279.7493, 187.1149
280.2314, 190.9975
280.7135, 195.0683
281.1956, 199.2518
281.6778, 203.4154
282.1599, 207.8144
282.6420, 212.3003
283.1241, 217.0870
283.6062, 222.6575
284.0883, 229.3334
284.5705, 236.9933
285.0526, 244.6880
285.5347, 252.6351
286.0168, 260.4030
286.4989, 268.0035
286.9810, 275.3409
287.4632, 282.2943
287.9453, 288.8335
288.4274, 294.8899
288.9095, 300.3702
289.3916, 306.8090
289.8737, 310.5182
290.3559, 310.6475
290.8380, 307.7549
291.3201, 302.3916
291.8022, 294.7153
292.2843, 285.0785
292.7664, 273.6808
293.2486, 259.6900
293.7307, 246.0635
294.2128, 232.6546
294.6949, 219.9474
295.1770, 208.4563
295.6591, 198.2547
296.1413, 189.2404
296.6234, 181.3046
297.1055, 174.5798
297.5876, 168.8070
298.0697, 164.0356
298.5518, 160.1800
299.0340, 157.3511
299.5161, 155.5175
299.9982, 154.1627
300.4803, 152.7897
300.9624, 151.4005
301.4445, 150.6279
301.9267, 150.9960
302.4088, 151.5442
302.8909, 151.5802
303.3730, 151.1518
303.8551, 150.7870
304.3372, 150.8250
304.8194, 151.2725
305.3015, 151.9597
305.7836, 153.1140
306.2657, 154.2587
306.7478, 154.9248
307.2299, 155.3529
307.7121, 156.2607
308.1942, 158.0229
308.6763, 160.5287
309.1584, 163.3959
309.6405, 166.7532
310.1227, 170.1926
310.6048, 173.5138
311.0869, 176.8312
311.5690, 180.2122
312.0511, 183.5882
312.5332, 187.3104
313.0154, 192.1625
313.4975, 198.3783
313.9796, 204.7774
314.4617, 210.9584
314.9438, 217.2554
315.4259, 224.2093
315.9081, 231.9438
316.3902, 240.1084
316.8723, 248.4306
317.3544, 257.0154
317.8365, 265.1606
318.3186, 273.9124
318.8007, 281.5220
319.2828, 286.8468
319.7650, 289.6861
320.2471, 289.3808
320.7292, 284.9619
321.2113, 276.1831
321.6934, 266.7780
322.1755, 256.1902
322.6577, 245.4369
323.1398, 234.8762
323.6219, 224.6439
324.1040, 215.0069
324.5861, 206.3219
325.0682, 198.3341
325.5504, 190.0640
326.0325, 180.4903
326.5146, 171.7604
326.9967, 164.6234
327.4788, 158.8578
327.9609, 153.9819
328.4431, 149.8269
328.9252, 146.3582
329.4073, 143.5375
329.8894, 141.2742
330.3715, 139.6918
330.8536, 139.4674
331.3358, 139.7035
331.8179, 139.1586
332.3000, 137.4987
332.7821, 135.4675
333.2642, 133.9631
333.7463, 133.0262
334.2285, 132.7029
334.7106, 133.4247
335.1927, 134.4726
335.6748, 135.3277
336.1569, 135.9228
336.6390, 136.3872
337.1212, 136.7588
337.6033, 137.0372
338.0854, 137.8164
338.5675, 139.6927
339.0496, 141.4461
339.5317, 142.3346
340.0139, 142.5799
340.4960, 142.8217
340.9781, 143.3954
341.4602, 144.3117
341.9423, 145.6721
342.4244, 148.0589
342.9066, 150.1185
343.3887, 151.3624
343.8708, 152.1713
344.3529, 153.0322
344.8350, 154.1237
345.3171, 155.4345
345.7993, 156.9436
346.2814, 158.7307
346.7635, 160.6194
347.2456, 162.3726
347.7277, 164.3586
348.2098, 166.9452
348.6920, 170.1505
349.1741, 173.7039
349.6562, 177.2120
350.1383, 180.5341
350.6204, 184.7269
351.1025, 190.7449
351.5847, 196.6061
352.0668, 201.0833
352.5489, 204.4559
353.0310, 207.7856
353.5131, 211.8238
353.9952, 216.4781
354.4774, 220.8907
354.9595, 225.4385
355.4416, 229.2993
355.9237, 232.4039
356.4058, 234.6914
356.8879, 236.2679
357.3701, 237.1733
357.8522, 237.0303
358.3343, 234.8938
358.8164, 229.3127
359.2985, 223.8264
359.7806, 218.8046
360.2627, 213.7012
360.7448, 208.1108
361.2270, 201.9456
361.7091, 195.4221
362.1912, 188.6190
362.6733, 181.2403
363.1554, 174.9346
363.6375, 170.0832
364.1197, 165.8667
364.6018, 162.1148
365.0839, 158.7195
365.5660, 155.6212
366.0481, 152.7622
366.5302, 150.1539
367.0124, 147.8857
367.4945, 145.9757
367.9766, 144.4403
368.4587, 143.4605
368.9408, 142.7703
369.4229, 142.1195
369.9051, 141.4115
370.3872, 140.5880
370.8693, 139.4420
371.3514, 137.6703
371.8335, 136.3821
372.3156, 136.1416
372.7978, 136.0662
373.2799, 135.6582
373.7620, 134.8416
374.2441, 133.7689
374.7262, 132.4335
375.2083, 130.8054
375.6905, 129.6813
376.1726, 129.5681
376.6547, 129.4018
377.1368, 128.6154
377.6189, 127.4349
378.1010, 126.3473
378.5832, 125.5763
379.0653, 125.1071
379.5474, 124.9704
380.0295, 125.3404
380.5116, 125.5805
380.9937, 125.3901
381.4759, 124.9861
381.9580, 124.5614
382.4401, 124.1679
382.9222, 123.7243
383.4043, 123.0658
383.8864, 122.1944
384.3686, 121.5202
384.8507, 121.1114
385.3328, 120.9763
385.8149, 121.2509
386.2970, 121.8654
386.7791, 122.2440
387.2613, 121.7592
387.7434, 120.8435
388.2255, 120.6198
388.7076, 121.3414
389.1897, 122.1328
389.6718, 122.2753
390.1540, 122.0503
390.6361, 122.0355
391.1182, 122.6720
391.6003, 123.2172
392.0824, 122.8063
392.5645, 121.5560
393.0467, 120.5272
393.5288, 120.2223
394.0109, 120.3233
394.4930, 120.1993
394.9751, 119.7587
395.4572, 119.4626
395.9394, 119.4430
396.4215, 119.6970
396.9036, 120.3018
397.3857, 121.3079
397.8678, 122.3823
398.3499, 123.1670
398.8321, 123.6376
399.3142, 124.1926
399.7963, 124.8740
400.2784, 125.6285
400.7605, 126.5991
401.2426, 127.6646
401.7247, 128.2451
402.2068, 127.8217
402.6890, 126.8107
403.1711, 127.1355
403.6532, 129.9985
404.1353, 132.4771
404.6174, 134.0382
405.0995, 134.9509
405.5817, 135.3184
406.0638, 135.2154
406.5459, 135.1552
407.0280, 135.9198
407.5101, 137.9264
407.9922, 139.4308
408.4744, 139.9129
408.9565, 140.4179
409.4386, 141.6335
409.9207, 143.4075
410.4028, 145.1250
410.8849, 146.3429
411.3671, 147.1427
411.8492, 148.1889
412.3313, 149.5493
412.8134, 151.0999
413.2955, 153.0264
413.7776, 155.0356
414.2598, 156.8106
414.7419, 158.2519
415.2240, 159.5195
415.7061, 160.9281
416.1882, 162.6776
416.6703, 163.8810
417.1525, 164.6509
417.6346, 164.7040
418.1167, 163.7714
418.5988, 161.9535
419.0809, 159.5845
419.5630, 156.7902
420.0452, 153.6516
420.5273, 150.4109
421.0094, 146.9652
421.4915, 143.6777
421.9736, 140.5463
422.4557, 137.7118
422.9379, 135.4058
423.4200, 133.7212
423.9021, 132.3978
424.3842, 131.1974
424.8663, 130.1232
425.3484, 129.2099
425.8306, 128.5258
426.3127, 127.9352
426.7948, 127.3342
427.2769, 126.7189
427.7590, 126.0509
428.2411, 125.1442
428.7233, 124.2428
429.2054, 123.7910
429.6875, 123.8280
430.1696, 123.9144
430.6517, 123.7615
431.1339, 123.4724
431.6160, 123.3671
432.0981, 123.5631
432.5802, 123.7583
433.0623, 123.7165
433.5444, 123.5745
434.0266, 123.6613
434.5087, 124.0972
434.9908, 124.6324
435.4729, 124.9315
435.9550, 124.9389
436.4371, 124.9258
436.9193, 124.8506
437.4014, 124.7988
437.8835, 124.8758
438.3656, 125.0436
438.8477, 125.1170
439.3298, 124.9385
439.8120, 124.6098
440.2941, 124.6876
440.7762, 125.6571
441.2583, 126.4359
441.7404, 126.6977
442.2225, 126.8283
442.7046, 127.2291
443.1867, 127.9921
443.6689, 128.9195
444.1510, 129.7401
444.6331, 130.3953
445.1152, 131.2490
445.5973, 132.5254
446.0794, 133.7772
446.5616, 134.5577
447.0437, 135.2259
447.5258, 136.5276
448.0079, 138.9509
448.4900, 142.0338
448.9721, 144.6595
449.4543, 146.7488
449.9364, 148.6003
450.4185, 150.8253
450.9006, 152.4715
451.3827, 152.8929
451.8648, 152.0050
452.3470, 149.9981
452.8291, 146.4924
453.3112, 141.8703
453.7933, 137.8604
454.2754, 134.5751
454.7575, 131.9050
455.2397, 129.8316
455.7218, 128.3196
456.2039, 127.4568
456.6860, 127.4901
457.1681, 127.8593
457.6502, 128.1895
458.1324, 128.4765
458.6145, 128.6752
459.0966, 128.7182
459.5787, 128.7756
460.0608, 129.2371
460.5429, 130.1810
461.0251, 130.6743
461.5072, 129.8984
461.9893, 129.0530
462.4714, 129.4882
462.9535, 131.0603
463.4356, 132.3680
463.9178, 132.3874
464.3999, 131.4362
464.8820, 131.2805
465.3641, 132.8166
465.8462, 133.9453
466.3283, 134.0725
466.8105, 133.8117
467.2926, 133.7618
467.7747, 134.0865
468.2568, 134.6875
468.7389, 135.5038
469.2210, 136.6247
469.7032, 137.4022
470.1853, 137.4249
470.6674, 137.5280
471.1495, 137.9850
471.6316, 138.6837
472.1137, 139.4604
472.5959, 140.2570
473.0780, 140.9704
473.5601, 141.2973
474.0422, 141.0561
474.5243, 141.2084
475.0064, 142.2482
475.4886, 143.4823
475.9707, 144.6971
476.4528, 145.7835
476.9349, 146.4174
477.4170, 145.9073
477.8991, 144.8988
478.3813, 145.0123
478.8634, 146.4345
479.3455, 147.8913
479.8276, 148.9549
480.3097, 149.5187
480.7918, 149.3987
481.2740, 148.3846
481.7561, 147.2692
482.2382, 146.2998
482.7203, 145.5363
483.2024, 145.1464
483.6845, 145.1753
484.1666, 145.3462
484.6487, 145.4155
485.1309, 145.3771
485.6130, 145.3353
486.0951, 145.3656
486.5772, 145.3129
487.0593, 145.2163
487.5414, 144.9689
488.0236, 144.3396
488.5057, 143.2360
488.9878, 141.8742
489.4699, 140.6296
489.9520, 139.4769
490.4341, 138.4939
490.9163, 137.7225
491.3984, 137.0521
491.8805, 136.5125
492.3626, 136.0303
492.8447, 135.4356
493.3268, 134.5902
493.8090, 133.6355
494.2911, 133.0272
494.7732, 132.9321
495.2553, 132.7357
495.7374, 132.0516
496.2195, 131.3898
496.7017, 131.2096
497.1838, 131.5009
497.6659, 131.7382
498.1480, 131.4345
498.6301, 130.8043
499.1122, 130.4749
499.5944, 130.5251
500.0765, 130.6016
500.5586, 130.5256
501.0407, 130.3271
501.5228, 130.0319
502.0049, 129.4603
502.4871, 129.1841
502.9692, 129.8210
503.4513, 130.8613
503.9334, 131.3005
504.4155, 130.9126
504.8976, 130.3785
505.3798, 130.3808
505.8619, 130.9609
506.3440, 131.3879
506.8261, 131.6101
507.3082, 131.7580
507.7903, 131.9484
508.2725, 132.0778
508.7546, 131.8837
509.2367, 131.2876
509.7188, 130.6521
510.2009, 130.6169
510.6830, 131.4624
511.1652, 131.9598
511.6473, 131.7763
512.1294, 131.5722
512.6115, 131.6430
513.0936, 131.8807
513.5757, 132.0333
514.0579, 131.9621
514.5400, 131.7735
515.0221, 131.6620
515.5042, 131.6381
515.9863, 131.6113
516.4684, 131.6008
516.9506, 131.5357
517.4327, 131.3860
517.9148, 131.1453
518.3969, 130.7762
518.8790, 130.1244
519.3611, 129.4120
519.8433, 128.8573
520.3254, 128.4757
520.8075, 128.4408
521.2896, 128.9817
521.7717, 129.7512
522.2538, 129.8565
522.7360, 129.0213
523.2181, 128.4459
523.7002, 128.4102
524.1823, 128.6604
524.6644, 129.1068
525.1465, 129.6582
525.6287, 130.0741
526.1108, 130.1629
526.5929, 129.9887
527.0750, 129.8748
527.5571, 129.6155
528.0392, 129.7442
528.5214, 130.7966
529.0035, 131.8978
529.4856, 132.2340
529.9677, 131.7860
530.4498, 131.2191
530.9319, 131.1418
531.4141, 131.4591
531.8962, 131.5101
532.3783, 131.0185
532.8604, 130.9035
533.3425, 131.9436
533.8246, 133.3818
534.3068, 134.5012
534.7889, 135.1894
535.2710, 135.5967
535.7531, 135.6603
536.2352, 135.5468
536.7173, 135.6142
537.1995, 135.9126
537.6816, 136.3281
538.1637, 136.7825
538.6458, 137.2859
539.1279, 137.8677
539.6100, 138.3504
540.0922, 139.1211
540.5743, 140.7212
541.0564, 142.4741
541.5385, 143.3772
542.0206, 143.3090
542.5027, 143.1479
542.9849, 143.8579
543.4670, 145.4684
543.9491, 146.6276
544.4312, 146.5066
544.9133, 146.9262
545.3954, 148.8019
545.8775, 151.1187
546.3596, 152.6531
546.8417, 153.1172
547.3239, 153.3186
547.8060, 154.1560
548.2881, 155.5676
548.7702, 156.8897
549.2523, 158.3315
549.7344, 159.1676
550.2166, 158.3590
550.6987, 156.7915
551.1808, 155.9102
551.6629, 156.3722
552.1450, 156.5704
552.6271, 155.3153
553.1093, 153.1094
553.5914, 150.9031
554.0735, 148.8816
554.5556, 147.0330
555.0377, 145.3835
555.5198, 143.9237
556.0020, 142.3723
556.4841, 140.3038
556.9662, 138.6663
557.4483, 137.8285
557.9304, 137.4918
558.4125, 137.4754
558.8947, 137.6509
559.3768, 137.6442
559.8589, 136.9167
560.3410, 135.4438
560.8231, 134.5626
561.3052, 134.7224
561.7874, 134.8454
562.2695, 134.6077
562.7516, 134.1427
563.2337, 133.5146
563.7158, 132.7210
564.1979, 132.1007
564.6801, 132.0262
565.1622, 132.3642
565.6443, 132.7145
566.1264, 133.0633
566.6085, 133.2853
567.0906, 133.2469
567.5728, 133.0122
568.0549, 132.8590
568.5370, 132.8924
569.0191, 132.8423
569.5012, 132.4988
569.9833, 132.0793
570.4655, 131.8948
570.9476, 131.9683
571.4297, 132.0559
571.9118, 131.9569
572.3939, 131.6700
572.8760, 131.1708
573.3582, 129.9460
573.8403, 129.2264
574.3224, 129.5088
574.8045, 130.1236
575.2866, 130.5666
575.7687, 130.7284
576.2509, 130.6604
576.7330, 130.4261
577.2151, 129.9985
577.6972, 129.0906
578.1793, 127.4668
578.6614, 126.4090
579.1436, 126.8077
579.6257, 127.9113
580.1078, 128.6847
580.5899, 129.1373
581.0720, 129.1090
581.5541, 128.0137
582.0363, 126.7316
582.5184, 126.3125
583.0005, 126.7302
583.4826, 127.3323
583.9647, 127.7629
584.4468, 128.0475
584.9290, 128.2515
585.4111, 128.1344
585.8932, 128.3289
586.3753, 129.3061
586.8574, 130.1674
587.3395, 130.1370
587.8217, 129.4831
588.3038, 129.0891
588.7859, 129.5394
589.2680, 130.3958
589.7501, 130.6889
590.2322, 130.3410
590.7144, 129.9450
591.1965, 129.3830
591.6786, 129.0975
592.1607, 129.6830
592.6428, 130.9181
593.1249, 131.7710
593.6071, 131.7095
594.0892, 131.3372
594.5713, 131.0355
595.0534, 130.8219
595.5355, 130.7232
596.0176, 130.7453
596.4998, 130.9503
596.9819, 131.4875
597.4640, 132.4936
597.9461, 132.9729
598.4282, 132.5296
598.9103, 132.0955
599.3925, 131.7976
599.8746, 131.7569
600.3567, 132.2102
600.8388, 133.1933
601.3209, 134.2701
601.8030, 134.8960
602.2852, 135.0954
602.7673, 135.4770
603.2494, 136.1991
603.7315, 136.7656
604.2136, 136.7361
604.6957, 136.4665
605.1779, 136.4216
605.6600, 136.6829
606.1421, 137.0341
606.6242, 137.4361
607.1063, 137.8319
607.5884, 138.2424
608.0706, 138.6240
608.5527, 138.6186
609.0348, 137.9240
609.5169, 136.7744
609.9990, 135.9658
610.4811, 135.4489
610.9633, 135.3999
611.4454, 136.2401
611.9275, 137.1716
612.4096, 137.8188
612.8917, 138.0998
613.3738, 137.9419
613.8560, 137.2291
614.3381, 136.2492
614.8202, 135.4931
615.3023, 134.9511
615.7844, 134.7391
616.2665, 135.0336
616.7487, 135.4475
617.2308, 135.7438
617.7129, 135.8976
618.1950, 135.7582
618.6771, 134.8914
619.1592, 134.1363
619.6414, 134.0859
620.1235, 134.4854
620.6056, 134.9237
621.0877, 135.2798
621.5698, 135.4806
622.0519, 135.4382
622.5341, 135.1517
623.0162, 134.8098
623.4983, 134.1611
623.9804, 133.7914
624.4625, 133.9810
624.9446, 134.3710
625.4268, 134.5959
625.9089, 134.6255
626.3910, 134.7448
626.8731, 135.4625
627.3552, 136.3613
627.8373, 136.1431
628.3194, 134.7012
628.8015, 133.5817
629.2836, 133.5059
629.7657, 133.9214
630.2479, 133.9891
630.7300, 133.7024
631.2121, 133.3299
631.6942, 132.6900
632.1763, 132.1814
632.6584, 132.1202
633.1406, 132.3800
633.6227, 132.7204
634.1048, 133.0379
634.5869, 133.2541
635.0690, 133.1737
635.5511, 132.6935
636.0333, 132.6777
636.5154, 133.5985
636.9975, 134.3307
637.4796, 134.3054
637.9617, 133.9450
638.4438, 133.7733
638.9260, 133.9068
639.4081, 134.1479
639.8902, 134.4111
640.3723, 134.6709
640.8544, 134.8876
641.3365, 135.0571
641.8187, 135.1919
642.3008, 135.3122
642.7829, 135.3818
643.2650, 135.2935
643.7471, 134.8242
644.2292, 134.6381
644.7114, 134.8242
645.1935, 135.2074
645.6756, 135.8738
646.1577, 136.6322
646.6398, 137.1522
647.1219, 137.2806
647.6041, 137.1041
648.0862, 136.6440
648.5683, 135.9073
649.0504, 135.3195
649.5325, 134.8294
650.0146, 134.7058
650.4968, 135.4056
650.9789, 136.5466
651.4610, 137.2483
651.9431, 137.2046
652.4252, 137.2693
652.9073, 137.8646
653.3895, 138.6839
653.8716, 139.4241
654.3537, 140.0443
654.8358, 140.5693
655.3179, 141.0014
655.8000, 141.4032
656.2822, 142.0028
656.7643, 143.0271
657.2464, 143.6683
657.7285, 143.3885
658.2106, 143.1611
658.6927, 143.3906
659.1749, 144.0135
659.6570, 144.8943
660.1391, 146.1061
660.6212, 147.2386
661.1033, 147.9512
661.5854, 148.2892
662.0676, 148.3723
662.5497, 148.2179
663.0318, 147.7992
663.5139, 147.0391
663.9960, 146.0191
664.4781, 145.1510
664.9603, 144.7362
665.4424, 144.0540
665.9245, 142.8989
666.4066, 141.6182
666.8887, 140.2706
667.3708, 139.0112
667.8530, 138.1444
668.3351, 137.8439
668.8172, 137.9682
669.2993, 138.5125
669.7814, 139.4379
670.2635, 139.6495
670.7457, 138.7067
671.2278, 137.7238
671.7099, 137.6308
672.1920, 138.2269
672.6741, 138.5995
673.1563, 138.6687
673.6384, 138.6168
674.1205, 138.2773
674.6026, 137.9859
675.0847, 138.1530
675.5668, 138.7250
676.0490, 139.3473
676.5311, 139.8146
677.0132, 140.0911
677.4953, 139.9896
677.9774, 139.3530
678.4595, 139.1213
678.9417, 139.7702
679.4238, 140.3915
679.9059, 140.2368
680.3880, 139.6525
680.8701, 139.4367
681.3522, 139.9044
681.8344, 140.4494
682.3165, 140.7713
682.7986, 140.9314
683.2807, 140.9630
683.7628, 140.9021
684.2449, 140.8814
684.7271, 140.9770
685.2092, 141.2160
685.6913, 141.7541
686.1734, 142.9798
686.6555, 143.6021
687.1376, 142.9241
687.6198, 142.2299
688.1019, 142.1061
688.5840, 142.4068
689.0661, 142.8344
689.5482, 143.3722
690.0303, 143.7312
690.5125, 143.5506
690.9946, 143.0365
691.4767, 142.6192
691.9588, 142.3503
692.4409, 142.1465
692.9230, 141.9607
693.4052, 141.7907
693.8873, 141.6344
694.3694, 141.6031
694.8515, 141.3756
695.3336, 140.4920
695.8157, 139.8911
696.2979, 140.1858
696.7800, 141.0724
697.2621, 141.9976
697.7442, 142.7725
698.2263, 143.3965
698.7084, 143.9042
699.1906, 144.2619
699.6727, 144.2963
700.1548, 143.9724
700.6369, 143.6342
701.1190, 143.4119
701.6011, 143.3714
702.0833, 143.7305
702.5654, 144.9033
703.0475, 145.4743
703.5296, 144.6372
704.0117, 143.9937
704.4938, 144.5854
704.9760, 145.8825
705.4581, 146.9776
705.9402, 147.5518
706.4223, 147.8571
706.9044, 148.1405
707.3865, 148.3819
707.8687, 148.4492
708.3508, 148.3066
708.8329, 148.2245
709.3149, 148.2995
709.7971, 148.5301
710.2792, 148.9543
710.7613, 149.6210
711.2434, 150.2049
711.7255, 150.6329
712.2076, 151.0321
712.6898, 151.5959
713.1719, 152.1165
713.6540, 152.2484
714.1361, 151.9238
714.6182, 151.4352
715.1003, 151.0889
715.5825, 150.8201
716.0646, 150.2627
716.5467, 149.3462
717.0288, 148.7054
717.5109, 148.7651
717.9930, 148.9245
718.4752, 148.4646
718.9573, 147.4062
719.4394, 146.0665
719.9215, 143.7844
720.4036, 142.0244
720.8857, 141.7015
721.3679, 142.0720
721.8500, 142.3799
722.3321, 142.4063
722.8142, 142.0797
723.2963, 141.2526
723.7784, 140.1487
724.2606, 139.4081
724.7427, 139.0428
725.2248, 138.8763
725.7069, 138.8836
726.1890, 139.0680
726.6711, 139.6497
727.1533, 140.4625
727.6354, 140.6743
728.1175, 139.7664
728.5996, 138.9015
729.0817, 138.2829
729.5638, 137.9614
730.0460, 138.0466
730.5281, 138.4924
731.0102, 139.2650
731.4923, 140.4274
731.9744, 141.4183
732.4565, 140.8907
732.9387, 138.8035
733.4208, 137.5611
733.9029, 137.5322
734.3850, 138.0602
734.8671, 139.1048
735.3492, 140.3050
735.8314, 140.6890
736.3135, 139.7786
736.7956, 139.4137
737.2777, 140.7384
737.7598, 142.0325
738.2419, 141.7858
738.7241, 140.5963
739.2062, 139.8799
739.6883, 140.1625
740.1704, 140.8158
740.6525, 141.1555
741.1346, 141.1883
741.6168, 140.8087
742.0989, 139.8306
742.5810, 139.4279
743.0631, 140.4046
743.5452, 141.8410
744.0273, 142.3784
744.5095, 141.9757
744.9916, 141.5732
745.4737, 141.2367
745.9558, 140.9252
746.4379, 140.4745
746.9200, 140.1161
747.4022, 140.2918
747.8843, 140.9588
748.3664, 141.4614
748.8485, 141.1957
749.3306, 140.5148
749.8127, 140.2970
750.2949, 140.5441
750.7770, 140.6802
751.2591, 140.5659
751.7412, 140.3420
752.2233, 140.0519
752.7054, 139.7397
753.1876, 139.7120
753.6697, 140.4670
754.1518, 140.7819
754.6339, 140.1565
755.1160, 139.3313
755.5981, 138.7114
756.0803, 138.3793
756.5624, 138.3991
757.0445, 138.8285
757.5266, 139.3908
758.0087, 139.8773
758.4908, 140.2204
758.9730, 139.9966
759.4551, 139.1345
759.9372, 138.5102
760.4193, 138.6357
760.9014, 139.1661
761.3835, 139.4394
761.8657, 139.3509
762.3478, 139.3548
762.8299, 139.7471
763.3120, 139.8794
763.7941, 139.1988
764.2762, 138.3240
764.7584, 138.0275
765.2405, 138.4021
765.7226, 138.8632
766.2047, 139.0264
766.6868, 139.0373
767.1689, 139.1379
767.6511, 139.2817
768.1332, 139.2006
768.6153, 138.8116
769.0974, 138.4850
769.5795, 138.6038
770.0616, 139.0979
770.5438, 139.3755
771.0259, 139.1934
771.5080, 139.2311
771.9901, 139.8553
772.4722, 140.4207
772.9543, 140.4555
773.4365, 140.1518
773.9186, 140.0023
774.4007, 140.1896
774.8828, 140.4198
775.3649, 140.5728
775.8470, 140.6101
776.3292, 140.3456
776.8113, 139.8809
777.2934, 139.6825
777.7755, 139.9807
778.2576, 140.5222
778.7397, 140.8989
779.2219, 141.0961
779.7040, 141.3403
780.1861, 141.7166
780.6682, 141.9580
781.1503, 141.7311
781.6324, 141.4946
782.1146, 141.8700
782.5967, 142.8330
783.0788, 143.4568
783.5609, 143.2225
784.0430, 142.9278
784.5251, 142.9952
785.0073, 143.2573
785.4894, 143.4785
785.9715, 143.6333
786.4536, 143.8432
786.9357, 144.2003
787.4178, 144.6468
787.9000, 145.1012
788.3821, 145.5606
788.8642, 145.8334
789.3463, 145.8910
789.8284, 145.7397
790.3105, 145.2118
790.7927, 144.5608
791.2748, 144.5496
791.7568, 145.5194
792.2390, 146.2414
792.7211, 146.3703
793.2032, 146.5350
793.6853, 147.2025
794.1674, 148.0389
794.6495, 148.5385
795.1317, 148.5885
795.6138, 148.4844
796.0959, 148.1785
796.5780, 148.0153
797.0601, 148.8925
797.5422, 150.5489
798.0244, 151.5477
798.5065, 151.4810
798.9886, 151.0576
799.4707, 150.9343
799.9528, 151.0622
800.4349, 151.0439
800.9171, 150.4463
801.3992, 150.5672
801.8813, 152.5144
802.3634, 154.2699
802.8455, 154.5269
803.3276, 153.8867
803.8098, 153.6443
804.2919, 154.1631
804.7740, 154.7327
805.2561, 154.9875
805.7382, 155.1252
806.2203, 155.4620
806.7025, 155.8484
807.1846, 155.7499
807.6667, 155.0043
808.1488, 154.2730
808.6309, 154.3985
809.1130, 155.2331
809.5952, 155.8650
810.0773, 156.2950
810.5594, 156.5197
811.0415, 156.4787
811.5236, 156.3376
812.0057, 156.2887
812.4879, 156.3021
812.9700, 156.0884
813.4521, 155.4610
813.9342, 154.8741
814.4163, 154.1199
814.8984, 153.6763
815.3806, 154.2808
815.8627, 155.4159
816.3448, 155.7732
816.8269, 154.7936
817.3090, 153.8896
817.7911, 154.7779
818.2733, 156.5137
818.7554, 157.1670
819.2375, 156.7848
819.7196, 156.3304
820.2017, 156.1695
820.6838, 156.0602
821.1660, 155.6281
821.6481, 155.8657
822.1302, 154.9274
822.6123, 156.2069
823.0944, 157.1862
823.5765, 157.3870
824.0587, 157.3401
824.5408, 157.4755
825.0229, 157.6794
825.5050, 157.5335
825.9871, 156.6419
826.4692, 156.0510
826.9514, 156.3012
827.4335, 156.9144
827.9156, 157.6707
828.3977, 158.3864
828.8798, 158.7404
829.3619, 158.6176
829.8441, 158.2710
830.3262, 157.8743
830.8083, 157.4950
831.2904, 157.5139
831.7725, 157.9236
832.2546, 157.8620
832.7368, 156.8942
833.2189, 156.0810
833.7010, 156.7534
834.1831, 158.6741
834.6652, 159.0927
835.1473, 156.3354
835.6295, 154.7677
836.1116, 155.7775
836.5937, 156.9255
837.0758, 156.6784
837.5579, 155.6118
838.0400, 155.0262
838.5222, 155.2956
839.0043, 155.6343
839.4864, 155.6015
839.9685, 155.4722
840.4506, 155.5159
840.9327, 155.6889
841.4149, 155.9202
841.8970, 156.1592
842.3791, 156.1889
842.8612, 155.6766
843.3433, 154.8992
843.8254, 154.9279
844.3076, 155.8009
844.7897, 156.3098
845.2718, 156.1941
845.7539, 155.7121
846.2360, 154.8847
846.7181, 153.9202
847.2003, 153.5639
847.6824, 154.2574
848.1645, 154.6983
848.6466, 154.7104
849.1287, 154.6772
849.6108, 154.6879
850.0930, 154.7811
850.5751, 155.0030
851.0572, 155.3568
851.5393, 155.7783
852.0214, 156.3824
852.5035, 156.9012
852.9857, 157.0688
853.4678, 157.0019
853.9499, 156.8576
854.4320, 156.6942
854.9141, 156.5598
855.3962, 156.4658
855.8784, 156.5373
856.3605, 157.2665
856.8426, 158.6153
857.3247, 158.8835
857.8068, 157.6771
858.2889, 156.8691
858.7711, 157.5669
859.2532, 158.7964
859.7353, 158.9680
860.2174, 157.8471
860.6995, 157.3935
861.1816, 158.2645
861.6638, 158.9027
862.1459, 158.8440
862.6280, 158.5931
863.1101, 158.5656
863.5922, 158.7128
864.0743, 158.7102
864.5565, 158.2822
865.0386, 158.1470
865.5207, 159.1559
866.0028, 160.4218
866.4849, 160.9866
866.9670, 160.8723
867.4492, 160.1646
867.9313, 158.9676
868.4134, 158.1172
868.8955, 158.8527
869.3776, 160.5811
869.8597, 160.8360
870.3419, 159.6044
870.8240, 159.1805
871.3061, 160.2833
871.7882, 161.4673
872.2703, 161.5254
872.7524, 160.7180
873.2346, 160.0433
873.7167, 159.4136
874.1987, 159.0906
874.6808, 159.2668
875.1630, 159.5424
875.6451, 159.6672
876.1272, 159.8725
876.6093, 160.6736
877.0914, 162.0916
877.5735, 162.8816
878.0557, 162.1173
878.5378, 161.1761
879.0199, 160.5662
879.5020, 160.4129
879.9841, 161.2141
880.4662, 162.6498
880.9484, 163.5257
881.4305, 163.1529
881.9126, 162.2991
882.3947, 161.7960
882.8768, 161.6414
883.3589, 162.0055
883.8411, 162.8259
884.3232, 163.2934
884.8053, 163.0590
885.2874, 162.6681
885.7695, 162.7783
886.2516, 163.3441
886.7338, 163.8685
887.2159, 164.4052
887.6980, 164.7208
888.1801, 164.5152
888.6622, 164.4435
889.1443, 165.0486
889.6265, 166.0935
890.1086, 167.0512
890.5907, 167.9413
891.0728, 168.6413
891.5549, 168.9019
892.0370, 169.2344
892.5192, 170.0184
893.0013, 170.9332
893.4834, 171.3851
893.9655, 171.4659
894.4476, 172.0938
894.9297, 174.0546
895.4119, 176.2207
895.8940, 177.4982
896.3761, 178.2798
896.8582, 178.9667
897.3403, 179.7604
897.8224, 181.2157
898.3046, 183.5836
898.7867, 186.3364
899.2688, 188.7857
899.7509, 190.9826
900.2330, 193.1259
900.7151, 195.1595
901.1973, 198.2488
901.6794, 202.9662
902.1615, 207.7894
902.6436, 211.1629
903.1257, 216.2541
903.6078, 221.3964
904.0900, 225.5574
904.5721, 232.0503
905.0542, 236.9778
905.5363, 241.4337
906.0184, 245.2496
906.5005, 249.1566
906.9827, 253.9739
907.4648, 259.7371
907.9469, 266.1058
908.4290, 273.1584
908.9111, 280.5682
909.3932, 287.9067
909.8754, 295.6792
910.3575, 304.3767
910.8396, 313.9676
911.3217, 324.2420
911.8038, 335.0623
912.2859, 346.8155
912.7681, 360.6688
913.2502, 375.2533
913.7323, 388.2321
914.2144, 399.9395
914.6965, 412.1535
915.1786, 425.2128
915.6608, 437.6542
916.1429, 448.6066
916.6250, 457.3490
917.1071, 462.2500
917.5892, 463.3095
918.0714, 460.5705
918.5535, 453.7290
919.0356, 444.6266
919.5177, 433.9557
919.9998, 421.7136
920.4819, 407.5359
920.9641, 391.0485
921.4462, 376.5360
921.9283, 364.1938
922.4104, 353.4917
922.8925, 344.9406
923.3746, 337.4586
923.8568, 330.4727
924.3389, 324.0848
924.8210, 318.6685
925.3031, 314.5454
925.7852, 310.4119
926.2673, 306.1438
926.7495, 301.5845
927.2316, 296.9784
927.7137, 291.8595
928.1958, 285.4590
928.6779, 277.8925
929.1600, 270.1250
929.6422, 262.4976
930.1243, 255.2711
930.6064, 248.7462
931.0885, 242.6524
931.5706, 236.3547
932.0527, 230.0438
932.5349, 224.5812
933.0170, 220.2784
933.4991, 216.6749
933.9812, 213.4380
934.4633, 210.4475
934.9454, 207.3308
935.4276, 204.1170
935.9097, 201.0204
936.3918, 198.0942
936.8739, 195.3443
937.3560, 192.7466
937.8381, 190.4234
938.3203, 188.6555
938.8024, 187.4899
939.2845, 186.4485
939.7666, 185.4359
940.2487, 184.8360
940.7308, 185.1599
941.2130, 185.3871
941.6951, 184.4109
942.1772, 182.4884
942.6593, 181.0455
943.1414, 180.1846
943.6235, 179.5911
944.1057, 179.1144
944.5878, 179.0613
945.0699, 180.1140
945.5520, 181.3386
946.0341, 181.4116
946.5162, 180.3333
946.9984, 179.5977
947.4805, 180.0329
947.9626, 180.4909
948.4447, 180.5004
948.9268, 180.2099
949.4089, 179.6185
949.8911, 178.8803
950.3732, 178.3507
950.8553, 178.1284
951.3374, 177.7251
951.8195, 176.3980
952.3016, 174.9401
952.7838, 174.5367
953.2659, 174.7759
953.7480, 174.7710
954.2301, 174.3717
954.7122, 173.7011
955.1943, 172.8018
955.6765, 171.9778
956.1586, 171.7748
956.6406, 172.0680
957.1227, 172.2836
957.6049, 172.4068
958.0870, 172.2216
958.5691, 171.6322
959.0512, 171.0929
959.5333, 171.0303
960.0154, 171.2801
960.4976, 171.2932
960.9797, 171.0398
961.4618, 170.6535
961.9439, 169.9713
962.4260, 169.6689
962.9081, 170.3325
963.3903, 171.0725
963.8724, 170.6623
964.3545, 169.1814
964.8366, 168.4629
965.3187, 169.2029
965.8008, 169.6040
966.2830, 169.1837
966.7651, 168.8357
967.2472, 169.1614
967.7293, 169.7307
968.2114, 169.8255
968.6935, 169.3728
969.1757, 169.1708
969.6578, 169.8099
970.1399, 170.1766
970.6220, 169.4015
971.1041, 168.5962
971.5862, 168.9201
972.0684, 169.9411
972.5505, 170.5010
973.0326, 170.2448
973.5147, 170.0138
973.9968, 170.5553
974.4789, 171.0525
974.9611, 170.4783
975.4432, 169.5921
975.9253, 169.7892
976.4074, 170.8849
976.8895, 171.4082
977.3716, 170.5722
977.8538, 169.4600
978.3359, 169.1584
978.8180, 169.3993
979.3001, 169.9147
979.7822, 170.5385
980.2643, 170.6865
980.7465, 170.2904
981.2286, 170.0154
981.7107, 170.3719
982.1928, 171.0117
982.6749, 171.2915
983.1570, 171.2601
983.6392, 171.1404
984.1213, 170.9527
984.6034, 170.9466
985.0855, 171.2193
985.5676, 171.5723
986.0497, 171.8245
986.5319, 171.9782
987.0140, 172.0407
987.4961, 172.0064
987.9782, 171.8787
988.4603, 171.5894
988.9424, 171.5056
989.4246, 171.8952
989.9067, 172.3354
990.3888, 172.2560
990.8709, 171.7022
991.3530, 171.3894
991.8351, 171.4151
992.3173, 171.4459
992.7994, 171.2462
993.2815, 171.3552
993.7636, 172.0954
994.2457, 173.2679
994.7278, 174.9295
995.2100, 177.2126
995.6921, 177.8743
996.1742, 175.1505
996.6563, 173.2948
997.1384, 173.3173
997.6205, 174.0077
998.1027, 174.9562
998.5848, 175.9468
999.0669, 176.6731
999.5490, 177.0864
1000.031, 177.3960
1000.513, 177.9716
1000.995, 178.0403
1001.477, 176.5777
1001.960, 175.1015
1002.442, 175.1062
1002.924, 176.1245
1003.406, 176.9630
1003.888, 177.3155
1004.370, 177.3764
1004.852, 176.8593
1005.334, 176.5088
1005.817, 177.1045
1006.299, 177.9886
1006.781, 178.3328
1007.263, 178.1800
1007.745, 177.9523
1008.227, 177.7983
1008.709, 177.8516
1009.191, 178.2417
1009.673, 178.8733
1010.156, 179.8801
1010.638, 180.9478
1011.120, 181.4248
1011.602, 181.3362
1012.084, 181.2354
1012.566, 181.4026
1013.048, 181.7314
1013.530, 182.2689
1014.013, 182.7949
1014.495, 182.6311
1014.977, 182.1101
1015.459, 182.5063
1015.941, 183.8995
1016.423, 184.9249
1016.905, 184.7051
1017.387, 183.8414
1017.869, 183.0070
1018.352, 182.3185
1018.834, 182.3460
1019.316, 182.9996
1019.798, 183.6180
1020.280, 184.0310
1020.762, 184.2251
1021.244, 184.1741
1021.726, 183.9797
1022.208, 183.9948
1022.691, 184.1452
1023.173, 183.1793
1023.655, 181.0349
1024.137, 179.8088
1024.619, 180.1394
1025.101, 181.0560
1025.583, 181.9093
1026.065, 182.4797
1026.547, 181.9533
1027.030, 180.1693
1027.512, 179.5509
1027.994, 180.3770
1028.476, 180.8894
1028.958, 180.4906
1029.440, 179.8800
1029.922, 179.6673
1030.404, 179.7074
1030.887, 179.4881
1031.369, 178.8438
1031.851, 178.7170
1032.333, 179.2959
1032.815, 179.8669
1033.297, 180.2591
1033.779, 180.4910
1034.261, 180.5698
1034.744, 180.5055
1035.226, 180.2995
1035.708, 179.7659
1036.190, 179.6739
1036.672, 180.3026
1037.154, 180.8492
1037.636, 181.0439
1038.118, 181.1046
1038.600, 181.2856
1039.083, 181.4892
1039.565, 181.2609
1040.047, 180.0984
1040.529, 179.7505
1041.011, 181.1022
1041.493, 182.0242
1041.975, 181.4320
1042.457, 180.5940
1042.939, 180.7579
1043.422, 181.6032
1043.904, 181.8975
1044.386, 181.2683
1044.868, 180.9617
1045.350, 181.3305
1045.832, 181.6386
1046.314, 181.1772
1046.796, 180.9714
1047.279, 182.3017
1047.761, 184.6455
1048.243, 186.1325
1048.725, 186.2648
1049.207, 186.5177
1049.689, 187.2302
1050.171, 187.8987
1050.653, 188.3482
1051.135, 188.6754
1051.618, 188.9057
1052.100, 189.0987
1052.582, 189.3931
1053.064, 189.7762
1053.546, 190.3799
1054.028, 191.1847
1054.510, 192.2772
1054.992, 194.1817
1055.474, 195.9792
1055.957, 196.6174
1056.439, 196.4843
1056.921, 196.7711
1057.403, 197.7793
1057.885, 198.7888
1058.367, 199.1970
1058.849, 200.0621
1059.331, 202.5125
1059.814, 205.0692
1060.296, 206.2963
1060.778, 206.5265
1061.260, 206.8707
1061.742, 207.6183
1062.224, 208.0324
1062.706, 207.8509
1063.188, 207.2953
1063.671, 206.2572
1064.153, 205.0745
1064.635, 204.1320
1065.117, 203.2747
1065.599, 202.0898
1066.081, 200.4718
1066.563, 198.7628
1067.045, 196.8342
1067.527, 195.1753
1068.010, 194.0682
1068.492, 193.2947
1068.974, 192.8975
1069.456, 192.6033
1069.938, 191.8582
1070.420, 190.5570
1070.902, 189.3656
1071.384, 188.4639
1071.866, 187.8627
1072.349, 187.5947
1072.831, 187.5986
1073.313, 188.2183
1073.795, 188.9063
1074.277, 188.4351
1074.759, 186.7203
1075.241, 185.6971
1075.723, 186.7493
1076.206, 187.8655
1076.688, 187.8053
1077.170, 187.6750
1077.652, 188.7378
1078.134, 190.1928
1078.616, 190.5214
1079.098, 189.6419
1079.580, 188.9377
1080.062, 188.9883
1080.545, 189.2409
1081.027, 189.7078
1081.509, 189.9938
1081.991, 189.6299
1082.473, 188.9945
1082.955, 188.5327
1083.437, 188.3499
1083.919, 188.5446
1084.401, 189.3672
1084.884, 190.0025
1085.366, 189.9042
1085.848, 189.6757
1086.330, 189.7538
1086.812, 189.9226
1087.294, 189.7302
1087.776, 189.3370
1088.258, 189.5796
1088.740, 191.0128
1089.223, 191.8472
1089.705, 190.9406
1090.187, 189.6897
1090.669, 188.4401
1091.151, 187.6422
1091.633, 188.0412
1092.115, 189.2265
1092.597, 190.0360
1093.080, 190.1716
1093.562, 190.0965
1094.044, 189.4407
1094.526, 189.2985
1095.008, 190.9556
1095.490, 192.6819
1095.972, 192.8256
1096.454, 191.8769
1096.937, 190.9498
1097.419, 190.2446
1097.901, 189.8816
1098.383, 190.0208
1098.865, 190.3419
1099.347, 190.8115
1099.829, 191.3447
1100.311, 192.0043
1100.793, 192.6267
1101.276, 192.9306
1101.758, 192.9058
1102.240, 192.9057
1102.722, 193.1884
1103.204, 193.2434
1103.686, 192.7692
1104.168, 192.2383
1104.650, 191.9082
1105.132, 191.6730
1105.615, 191.2685
1106.097, 190.7814
1106.579, 190.8238
1107.061, 191.9782
1107.543, 192.6079
1108.025, 191.7834
1108.507, 191.2437
1108.989, 192.2783
1109.472, 193.3965
1109.954, 192.8727
1110.436, 191.2664
1110.918, 190.5969
1111.400, 191.3521
1111.882, 191.8554
1112.364, 191.9147
1112.846, 191.8160
1113.328, 191.4773
1113.811, 191.1504
1114.293, 190.8312
1114.775, 190.7068
1115.257, 191.3032
1115.739, 192.8010
1116.221, 193.6144
1116.703, 193.3723
1117.185, 193.0547
1117.667, 192.6475
1118.150, 192.3594
1118.632, 192.3886
1119.114, 192.5060
1119.596, 192.3365
1120.078, 191.9180
1120.560, 191.9054
1121.042, 192.6472
1121.524, 192.9155
1122.007, 192.4301
1122.489, 191.9166
1122.971, 191.4966
1123.453, 191.4252
1123.935, 192.1273
1124.417, 193.2849
1124.899, 193.6482
1125.381, 192.9885
1125.864, 192.5954
1126.346, 192.5180
1126.828, 192.5220
1127.310, 192.5415
1127.792, 192.6609
1128.274, 192.9600
1128.756, 193.3581
1129.238, 193.7154
1129.720, 194.0281
1130.203, 194.1243
1130.685, 193.9551
1131.167, 194.1670
1131.649, 194.8939
1132.131, 195.7390
1132.613, 196.5476
1133.095, 197.0726
1133.577, 196.9174
1134.059, 197.2387
1134.542, 196.2595
1135.024, 196.6756
1135.506, 196.2458
1135.988, 194.9433
1136.470, 194.3174
1136.952, 194.8871
1137.434, 196.0511
1137.916, 197.4377
1138.399, 198.5571
1138.881, 198.1004
1139.363, 196.6764
1139.845, 196.5093
1140.327, 197.3408
1140.809, 197.5937
1141.291, 197.0889
1141.773, 197.1089
1142.255, 198.3819
1142.738, 199.7477
1143.220, 199.7610
1143.702, 199.0434
1144.184, 198.4683
1144.666, 198.0568
1145.148, 198.0369
1145.630, 198.2109
1146.112, 197.8584
1146.594, 196.7911
1147.077, 195.6691
1147.559, 194.7248
1148.041, 194.3826
1148.523, 195.5582
1149.005, 197.1527
1149.487, 197.8702
1149.969, 197.9949
1150.451, 198.1392
1150.934, 198.4323
1151.416, 198.8094
1151.898, 199.2841
1152.380, 199.6622
1152.862, 199.8567
1153.344, 199.8886
1153.826, 199.5965
1154.308, 199.2886
1154.791, 199.1660
1155.273, 199.3336
1155.755, 200.1416
1156.237, 201.7174
1156.719, 202.6273
1157.201, 201.8178
1157.683, 201.2009
1158.165, 201.6309
1158.647, 202.1094
1159.130, 201.8868
1159.612, 201.4249
1160.094, 201.3653
1160.576, 201.7043
1161.058, 202.1097
1161.540, 202.7730
1162.022, 203.1001
1162.504, 203.0265
1162.986, 202.6799
1163.469, 201.6404
1163.951, 200.9403
1164.433, 201.6126
1164.915, 203.0330
1165.397, 203.7573
1165.879, 203.7297
1166.361, 203.5207
1166.843, 202.9971
1167.325, 202.8295
1167.808, 203.2300
1168.290, 203.5421
1168.772, 203.3803
1169.254, 203.2294
1169.736, 203.7237
1170.218, 204.6434
1170.700, 205.1245
1171.182, 205.1746
1171.665, 205.0033
1172.147, 204.6360
1172.629, 204.6792
1173.111, 205.2883
1173.593, 205.4707
1174.075, 204.4693
1174.557, 203.2930
1175.039, 203.7063
1175.521, 205.0785
1176.004, 205.7276
1176.486, 205.7815
1176.968, 205.5112
1177.450, 205.0415
1177.932, 204.5493
1178.414, 204.1394
1178.896, 204.2071
1179.378, 205.2464
1179.860, 206.5253
1180.343, 207.3433
1180.825, 207.8374
1181.307, 208.1999
1181.789, 208.3692
1182.271, 208.1242
1182.753, 207.5340
1183.235, 206.8960
1183.717, 206.2568
1184.200, 206.0365
1184.682, 206.7847
1185.164, 207.6089
1185.646, 208.1894
1186.128, 208.4570
1186.610, 208.1341
1187.092, 207.5680
1187.574, 207.4043
1188.057, 207.6996
1188.539, 207.9295
1189.021, 207.8098
1189.503, 207.9383
1189.985, 208.7286
1190.467, 209.3154
1190.949, 209.3362
1191.431, 209.0727
1191.913, 208.4651
1192.396, 207.9092
1192.878, 208.6756
1193.360, 211.1164
1193.842, 211.8961
1194.324, 210.4696
1194.806, 209.3632
1195.288, 208.9328
1195.770, 209.0610
1196.252, 209.8064
1196.735, 210.6142
1197.217, 210.8242
1197.699, 210.6042
1198.181, 210.3969
1198.663, 210.2332
1199.145, 210.4642
1199.627, 211.0448
1200.109, 211.5252
1200.592, 211.7829
1201.074, 211.7126
1201.556, 211.2352
1202.038, 210.8098
1202.520, 211.1244
1203.002, 210.8842
1203.484, 211.6161
1203.966, 211.3009
1204.448, 211.6587
1204.931, 212.4641
1205.413, 212.8745
1205.895, 212.7579
1206.377, 212.8088
1206.859, 213.5300
1207.341, 214.0383
1207.823, 213.5051
1208.305, 212.8829
1208.787, 212.7124
1209.270, 212.9070
1209.752, 213.5148
1210.234, 214.3340
1210.716, 215.0219
1211.198, 215.5447
1211.680, 215.6363
1212.162, 215.0452
1212.644, 214.3526
1213.127, 213.3810
1213.609, 212.6541
1214.091, 212.3158
1214.573, 212.3750
1215.055, 212.9232
1215.537, 213.8360
1216.019, 214.8328
1216.501, 216.0329
1216.984, 216.1163
1217.466, 214.8978
1217.948, 213.6625
1218.430, 212.5522
1218.912, 212.2876
1219.394, 213.2750
1219.876, 214.6808
1220.358, 215.6163
1220.840, 216.2218
1221.323, 216.8327
1221.805, 217.3955
1222.287, 217.7218
1222.769, 217.8280
1223.251, 217.7875
1223.733, 217.6261
1224.215, 217.3259
1224.697, 216.8760
1225.179, 216.5337
1225.662, 216.7068
1226.144, 216.8668
1226.626, 216.0737
1227.108, 215.4232
1227.590, 216.6066
1228.072, 218.5042
1228.554, 219.0086
1229.036, 218.1567
1229.519, 217.8120
1230.001, 218.5830
1230.483, 219.4234
1230.965, 220.5934
1231.447, 221.1083
1231.929, 220.1179
1232.411, 218.9724
1232.893, 218.4134
1233.375, 218.2761
1233.858, 218.4053
1234.340, 218.7587
1234.822, 218.9008
1235.304, 218.6805
1235.786, 219.0988
1236.268, 220.3798
1236.750, 221.0461
1237.232, 220.6729
1237.714, 220.0232
1238.197, 219.5390
1238.679, 219.3678
1239.161, 219.8395
1239.643, 220.6481
1240.125, 220.9436
1240.607, 220.8929
1241.089, 220.9231
1241.571, 221.0916
1242.054, 221.6005
1242.536, 222.3429
1243.018, 222.4497
1243.500, 221.3454
1243.982, 220.4235
1244.464, 220.8311
1244.946, 221.7062
1245.428, 222.7986
1245.910, 223.6659
1246.393, 223.8632
1246.875, 223.5455
1247.357, 222.8999
1247.839, 222.0083
1248.321, 221.2723
1248.803, 220.7336
1249.285, 220.3833
1249.767, 220.1190
1250.250, 220.2154
1250.732, 220.8442
1251.214, 221.7010
1251.696, 222.8000
1252.178, 223.6621
1252.660, 223.4725
1253.142, 222.4789
1253.624, 222.0152
1254.106, 222.0760
1254.589, 222.5697
1255.071, 223.4422
1255.553, 224.0387
1256.035, 224.1956
1256.517, 223.9695
1256.999, 223.3793
1257.481, 222.9196
1257.963, 223.2595
1258.445, 223.8871
1258.928, 224.1089
1259.410, 224.1754
1259.892, 224.3985
1260.374, 224.7569
1260.856, 225.3242
1261.338, 225.9450
1261.820, 225.9249
1262.302, 224.8384
1262.785, 224.2538
1263.267, 225.1695
1263.749, 225.9374
1264.231, 225.8313
1264.713, 225.6749
1265.195, 226.0084
1265.677, 226.4754
1266.159, 226.6412
1266.641, 226.6120
1267.124, 226.9013
1267.606, 227.6601
1268.088, 227.3055
1268.570, 225.6574
1269.052, 225.0385
1269.534, 225.8612
1270.016, 226.6632
1270.498, 226.7898
1270.980, 226.8794
1271.463, 227.5863
1271.945, 228.4658
1272.427, 228.8892
1272.909, 228.9436
1273.391, 228.5923
1273.873, 228.0924
1274.355, 227.7889
1274.837, 227.7859
1275.320, 228.3006
1275.802, 229.3443
1276.284, 230.1004
1276.766, 230.0807
1277.248, 229.9909
1277.730, 229.9353
1278.212, 230.0247
1278.694, 230.5616
1279.177, 231.0167
1279.659, 230.8426
1280.141, 230.3647
1280.623, 230.1425
1281.105, 230.1767
1281.587, 230.5852
1282.069, 231.4589
1282.551, 232.0432
1283.033, 232.2892
1283.516, 232.1753
1283.998, 231.7014
1284.480, 231.1160
1284.962, 230.5513
1285.444, 230.3039
1285.926, 230.6929
1286.408, 231.7371
##END=



