##NAMES=Andalusite
##RRUFFID=R050449
##IDEAL CHEMISTRY=Al_2_SiO_5_
##LOCALITY=Itinga, Minas Gerais, Brazil
##OWNER=RRUFF
##SOURCE=Marcus Origlieri
##DESCRIPTION=Green fragment
##STATUS=The identification of this mineral has been confirmed by X-ray diffraction and chemical analysis
##URL=rruff.info/R050449
##MEASURED CHEMISTRY=Al_2.00_Fe^3+^_0.01_Si_0.99_O_5_
91.00781, 2.848444
91.48993, 2.935768
91.97205, 2.970773
92.45416, 2.937929
92.93628, 2.853790
93.41840, 2.748575
93.90051, 2.618420
94.38263, 2.484590
94.86475, 2.319675
95.34686, 2.125540
95.82898, 2.079494
96.31110, 2.321258
96.79321, 2.841748
97.27533, 3.608681
97.75745, 4.813384
98.23956, 6.228473
98.72168, 6.731749
99.20380, 6.149386
99.68591, 5.186255
100.1680, 4.393346
100.6501, 3.654086
101.1323, 3.722182
101.6144, 5.129073
102.0965, 8.052735
102.5786, 10.09064
103.0607, 10.99648
103.5428, 11.25122
104.0250, 11.63121
104.5071, 12.12071
104.9892, 12.75646
105.4713, 13.53375
105.9534, 14.38662
106.4355, 15.53665
106.9177, 17.21515
107.3998, 19.20023
107.8819, 20.84945
108.3640, 21.96603
108.8461, 22.88601
109.3282, 23.77475
109.8104, 24.36744
110.2925, 25.20989
110.7746, 26.49310
111.2567, 28.13675
111.7388, 29.56500
112.2209, 30.32131
112.7031, 31.04062
113.1852, 32.17191
113.6673, 34.31974
114.1494, 36.38227
114.6315, 38.02055
115.1136, 39.22514
115.5958, 40.44400
116.0779, 41.85392
116.5600, 43.34337
117.0421, 44.78112
117.5242, 45.81556
118.0063, 47.03030
118.4885, 48.86743
118.9706, 51.48201
119.4527, 54.06683
119.9348, 55.81559
120.4169, 57.22396
120.8990, 59.23502
121.3812, 63.10802
121.8633, 67.42557
122.3454, 70.93883
122.8275, 73.61702
123.3096, 75.13778
123.7917, 74.59496
124.2739, 72.43481
124.7560, 70.29535
125.2381, 69.07548
125.7202, 68.59188
126.2023, 68.57469
126.6844, 69.04905
127.1666, 69.84830
127.6487, 70.81174
128.1308, 71.93724
128.6129, 73.10756
129.0950, 74.17728
129.5771, 75.20689
130.0593, 76.46626
130.5414, 78.30779
131.0235, 80.31208
131.5056, 80.95936
131.9877, 79.79091
132.4698, 78.36549
132.9520, 79.08633
133.4341, 81.81781
133.9162, 84.22097
134.3983, 85.41150
134.8804, 85.55273
135.3625, 85.68533
135.8447, 85.69315
136.3268, 85.96800
136.8089, 87.26653
137.2910, 89.78948
137.7731, 92.14606
138.2552, 93.86678
138.7374, 94.93336
139.2195, 95.53370
139.7016, 95.68250
140.1837, 95.37785
140.6658, 94.49178
141.1479, 92.71753
141.6301, 91.04932
142.1122, 90.02940
142.5943, 90.06525
143.0764, 89.54659
143.5585, 88.05321
144.0406, 86.01079
144.5228, 84.94546
145.0049, 85.43520
145.4870, 86.17650
145.9691, 86.48343
146.4512, 86.35242
146.9333, 85.78429
147.4155, 84.42413
147.8976, 82.41904
148.3797, 81.29231
148.8618, 81.44788
149.3439, 82.16871
149.8260, 82.98878
150.3082, 84.30379
150.7903, 85.28712
151.2724, 85.73272
151.7545, 85.61999
152.2366, 85.71494
152.7188, 86.42330
153.2009, 87.16177
153.6830, 87.45334
154.1651, 86.99303
154.6472, 86.33916
155.1293, 85.43861
155.6115, 84.20013
156.0936, 83.48393
156.5757, 83.74699
157.0578, 84.49267
157.5399, 85.17653
158.0220, 86.00111
158.5042, 86.47368
158.9863, 86.23555
159.4684, 85.06683
159.9505, 84.18214
160.4326, 84.06367
160.9147, 84.44421
161.3969, 84.92686
161.8790, 85.84640
162.3611, 86.49615
162.8432, 86.32950
163.3253, 84.94383
163.8074, 83.78810
164.2896, 83.66885
164.7717, 84.24480
165.2538, 84.83730
165.7359, 85.19661
166.2180, 85.42230
166.7001, 85.59605
167.1823, 85.75383
167.6644, 85.80586
168.1465, 85.47100
168.6286, 84.93842
169.1107, 84.74266
169.5928, 85.72485
170.0750, 86.96475
170.5571, 87.41126
171.0392, 86.35224
171.5213, 85.23270
172.0034, 85.63924
172.4855, 87.20851
172.9677, 88.32164
173.4498, 87.43098
173.9319, 85.57821
174.4140, 84.23491
174.8961, 83.84280
175.3782, 84.04518
175.8604, 84.56203
176.3425, 85.37404
176.8246, 86.29256
177.3067, 87.53899
177.7888, 88.78832
178.2709, 89.30384
178.7531, 88.40913
179.2352, 87.04066
179.7173, 86.75639
180.1994, 87.51160
180.6815, 88.26437
181.1636, 87.63933
181.6458, 86.18584
182.1279, 85.60243
182.6100, 86.96781
183.0921, 89.31367
183.5742, 90.62048
184.0563, 90.82826
184.5385, 90.76848
185.0206, 91.17902
185.5027, 92.00671
185.9848, 92.99191
186.4669, 94.25040
186.9490, 95.57970
187.4312, 96.22050
187.9133, 96.05321
188.3954, 95.91628
188.8775, 97.18864
189.3596, 99.66533
189.8417, 101.4259
190.3239, 101.4868
190.8060, 100.1503
191.2881, 98.80688
191.7702, 97.41729
192.2523, 96.22649
192.7344, 95.61944
193.2166, 95.59950
193.6987, 95.70066
194.1808, 95.98882
194.6629, 96.38454
195.1450, 95.71321
195.6271, 93.64785
196.1093, 91.34882
196.5914, 90.68276
197.0735, 91.77110
197.5556, 92.96400
198.0377, 93.37320
198.5198, 92.99150
199.0020, 93.55504
199.4841, 95.40479
199.9662, 97.59813
200.4483, 98.43491
200.9304, 97.67194
201.4125, 97.03142
201.8947, 97.39043
202.3768, 98.84794
202.8589, 100.0683
203.3410, 101.0716
203.8231, 101.8060
204.3052, 102.1013
204.7874, 101.8820
205.2695, 101.5591
205.7516, 101.4743
206.2337, 101.7866
206.7158, 101.1339
207.1979, 99.13548
207.6801, 96.52074
208.1622, 94.87362
208.6443, 94.41133
209.1264, 94.20296
209.6085, 93.78735
210.0906, 93.04382
210.5728, 92.69707
211.0549, 92.94247
211.5370, 93.45872
212.0191, 93.43286
212.5012, 92.60906
212.9833, 91.87544
213.4655, 91.71040
213.9476, 92.30329
214.4297, 92.74941
214.9118, 92.98372
215.3939, 93.08720
215.8760, 93.27846
216.3581, 93.60995
216.8403, 93.91720
217.3224, 94.10011
217.8045, 94.09495
218.2866, 94.17294
218.7687, 94.39101
219.2508, 94.67300
219.7330, 94.79374
220.2151, 94.67104
220.6972, 94.53327
221.1793, 94.47401
221.6614, 94.46972
222.1435, 94.61559
222.6257, 94.99333
223.1078, 95.49657
223.5899, 95.81483
224.0720, 95.80244
224.5541, 95.84171
225.0362, 96.15892
225.5184, 96.97934
226.0005, 97.50944
226.4826, 97.66122
226.9647, 97.53934
227.4468, 97.41206
227.9289, 97.20677
228.4111, 97.11421
228.8932, 97.25105
229.3753, 97.76380
229.8574, 98.15361
230.3395, 98.34912
230.8216, 98.43026
231.3038, 98.65131
231.7859, 99.20084
232.2680, 99.60870
232.7501, 99.61707
233.2322, 98.93977
233.7143, 98.48946
234.1965, 98.20045
234.6786, 98.15239
235.1607, 98.58770
235.6428, 99.68246
236.1249, 101.0011
236.6070, 102.4039
237.0892, 104.0841
237.5713, 105.4037
238.0534, 106.2475
238.5355, 106.7593
239.0176, 107.3008
239.4997, 107.9009
239.9819, 108.5000
240.4640, 109.0759
240.9461, 109.6593
241.4282, 110.1786
241.9103, 110.7676
242.3924, 111.2516
242.8746, 111.1551
243.3567, 110.1118
243.8388, 109.0475
244.3209, 108.3512
244.8030, 108.2128
245.2851, 107.9410
245.7673, 107.4052
246.2494, 106.7909
246.7315, 106.5044
247.2136, 106.6426
247.6957, 106.9581
248.1778, 107.4229
248.6600, 108.1992
249.1421, 108.6107
249.6242, 108.5521
250.1063, 108.1892
250.5884, 107.7890
251.0705, 107.1559
251.5527, 106.8204
252.0348, 107.0536
252.5169, 108.0787
252.9990, 108.8880
253.4811, 109.5457
253.9632, 109.9528
254.4454, 109.8286
254.9275, 108.7377
255.4096, 107.9407
255.8917, 107.8662
256.3738, 108.6070
256.8560, 109.7230
257.3381, 111.5143
257.8202, 113.4371
258.3023, 114.6066
258.7844, 114.6097
259.2665, 114.7357
259.7487, 115.4135
260.2308, 116.7251
260.7129, 118.0471
261.1950, 119.4945
261.6771, 120.8234
262.1592, 121.5466
262.6414, 121.2205
263.1235, 121.4154
263.6056, 122.7557
264.0877, 125.3649
264.5698, 127.3423
265.0519, 128.3362
265.5341, 129.1717
266.0162, 130.8409
266.4983, 133.4850
266.9804, 136.5085
267.4625, 139.8663
267.9446, 143.5253
268.4268, 147.1366
268.9089, 150.4389
269.3910, 154.0266
269.8731, 158.5034
270.3552, 163.8631
270.8373, 170.0238
271.3195, 177.0004
271.8016, 184.7815
272.2837, 193.6290
272.7658, 203.9293
273.2479, 214.6851
273.7300, 225.1368
274.2122, 235.1679
274.6943, 245.5195
275.1764, 256.7871
275.6585, 268.4357
276.1406, 277.3930
276.6227, 283.2204
277.1049, 287.8229
277.5870, 292.5081
278.0691, 297.2600
278.5512, 302.2424
279.0333, 307.3192
279.5154, 312.7278
279.9976, 319.1198
280.4797, 326.4626
280.9618, 335.0667
281.4439, 345.5576
281.9260, 357.9077
282.4081, 370.7726
282.8903, 383.7988
283.3724, 397.4418
283.8545, 412.7950
284.3366, 429.8934
284.8187, 448.3972
285.3008, 467.6707
285.7830, 487.9666
286.2651, 510.3734
286.7472, 535.4667
287.2293, 562.0823
287.7114, 588.6978
288.1935, 615.3007
288.6757, 640.7883
289.1578, 665.6649
289.6399, 689.2896
290.1220, 708.0551
290.6041, 722.6183
291.0862, 729.9812
291.5684, 726.0065
292.0505, 710.8070
292.5326, 686.2882
293.0147, 650.0463
293.4968, 605.1237
293.9789, 558.1798
294.4611, 509.3233
294.9432, 461.5662
295.4253, 417.3960
295.9074, 376.9641
296.3895, 341.9417
296.8716, 313.6742
297.3538, 290.8019
297.8359, 270.7099
298.3180, 253.2436
298.8001, 238.0972
299.2822, 224.7203
299.7643, 213.1955
300.2465, 203.9436
300.7286, 197.4610
301.2107, 193.0855
301.6928, 190.2053
302.1749, 188.7952
302.6570, 188.0883
303.1392, 187.7191
303.6213, 187.6207
304.1034, 187.6785
304.5855, 187.8129
305.0676, 188.1461
305.5497, 188.8698
306.0319, 189.9342
306.5140, 191.1174
306.9961, 191.9014
307.4782, 192.8414
307.9603, 194.7277
308.4424, 198.1313
308.9246, 201.7547
309.4067, 204.3837
309.8888, 206.3643
310.3709, 208.7442
310.8530, 211.8741
311.3351, 215.7410
311.8173, 220.2878
312.2994, 225.5009
312.7815, 231.5760
313.2636, 238.4687
313.7457, 246.2448
314.2278, 255.1111
314.7100, 264.8856
315.1921, 275.8951
315.6742, 288.4584
316.1563, 302.6526
316.6384, 317.8609
317.1205, 334.0257
317.6027, 350.7650
318.0848, 367.5106
318.5669, 385.7926
319.0490, 402.5279
319.5311, 417.6674
320.0132, 431.3167
320.4954, 439.1757
320.9775, 439.9042
321.4596, 434.3479
321.9417, 423.1352
322.4238, 402.0720
322.9059, 379.8559
323.3881, 357.6195
323.8702, 335.6819
324.3523, 314.9348
324.8344, 295.3277
325.3165, 277.1111
325.7986, 260.2451
326.2808, 243.9517
326.7629, 229.9288
327.2450, 218.3395
327.7271, 209.1254
328.2092, 202.0215
328.6913, 198.5956
329.1735, 195.9044
329.6556, 192.6933
330.1377, 188.1635
330.6198, 184.6295
331.1019, 182.2967
331.5840, 180.9037
332.0662, 180.0052
332.5483, 180.2088
333.0304, 180.0016
333.5125, 178.6390
333.9946, 175.6272
334.4767, 174.0702
334.9589, 174.6082
335.4410, 175.9882
335.9231, 176.6094
336.4052, 176.1490
336.8873, 175.7648
337.3694, 175.7337
337.8516, 176.0403
338.3336, 176.4207
338.8158, 176.8675
339.2979, 177.4131
339.7800, 178.0445
340.2621, 178.7207
340.7442, 179.7910
341.2263, 181.4254
341.7085, 183.4287
342.1906, 184.9822
342.6727, 186.0166
343.1548, 187.1215
343.6369, 188.9176
344.1190, 191.3206
344.6012, 193.0808
345.0833, 193.8182
345.5654, 194.3091
346.0475, 196.0225
346.5296, 198.8862
347.0117, 201.9513
347.4939, 204.4732
347.9760, 206.7452
348.4581, 209.8114
348.9402, 213.7718
349.4223, 218.1987
349.9044, 222.7639
350.3866, 227.4835
350.8687, 232.4423
351.3508, 237.2929
351.8329, 242.6233
352.3150, 249.7177
352.7971, 258.5644
353.2793, 267.5653
353.7614, 275.5928
354.2435, 283.0777
354.7256, 290.8028
355.2077, 299.2341
355.6898, 307.6480
356.1720, 316.3215
356.6541, 324.8079
357.1362, 331.2090
357.6183, 334.5560
358.1004, 335.3615
358.5826, 334.0498
359.0647, 330.6593
359.5468, 325.2704
360.0289, 317.3088
360.5110, 307.4177
360.9931, 296.7753
361.4753, 285.3810
361.9574, 273.8532
362.4395, 262.3129
362.9216, 250.6396
363.4037, 239.8469
363.8858, 230.4939
364.3680, 222.0735
364.8501, 214.0184
365.3322, 205.5279
365.8143, 198.2033
366.2964, 192.9102
366.7785, 189.5797
367.2607, 185.9240
367.7428, 180.8608
368.2249, 175.9513
368.7070, 172.1346
369.1891, 169.9800
369.6712, 168.2121
370.1534, 166.9434
370.6355, 166.0295
371.1176, 165.0519
371.5997, 164.1932
372.0818, 163.0196
372.5639, 161.2219
373.0461, 158.3920
373.5282, 156.2667
374.0103, 155.0506
374.4924, 154.2982
374.9745, 153.2985
375.4566, 151.8624
375.9388, 150.7653
376.4209, 150.3477
376.9030, 150.5539
377.3851, 150.5216
377.8672, 150.2173
378.3493, 149.7970
378.8315, 149.3211
379.3136, 148.7822
379.7957, 148.5627
380.2778, 148.8154
380.7599, 149.3482
381.2420, 149.8366
381.7242, 150.2730
382.2063, 150.3402
382.6884, 149.5179
383.1705, 148.1054
383.6526, 147.1903
384.1347, 146.9189
384.6169, 146.9632
385.0990, 147.0855
385.5811, 147.2220
386.0632, 147.1622
386.5453, 146.6670
387.0274, 145.9823
387.5096, 145.2511
387.9917, 144.4887
388.4738, 144.2370
388.9559, 145.4755
389.4380, 147.3238
389.9201, 148.6260
390.4023, 148.8599
390.8844, 148.6107
391.3665, 148.0230
391.8486, 147.2084
392.3307, 146.5955
392.8128, 146.8074
393.2950, 147.0140
393.7771, 146.5956
394.2592, 145.2296
394.7413, 143.8416
395.2234, 142.7008
395.7055, 141.7322
396.1877, 140.8209
396.6698, 139.7712
397.1519, 138.9373
397.6340, 138.5260
398.1161, 138.6112
398.5982, 138.4912
399.0804, 137.7352
399.5625, 136.9963
400.0446, 136.7686
400.5267, 137.6476
401.0088, 138.1590
401.4909, 137.9391
401.9731, 137.2402
402.4552, 137.1028
402.9373, 137.7490
403.4194, 138.5962
403.9015, 139.3576
404.3836, 139.9613
404.8658, 140.8204
405.3479, 142.0838
405.8300, 143.3850
406.3121, 144.0872
406.7942, 144.0835
407.2763, 144.2145
407.7585, 144.7707
408.2406, 145.6882
408.7227, 146.7507
409.2048, 148.0128
409.6869, 148.9286
410.1690, 148.4980
410.6512, 147.1207
411.1333, 146.7966
411.6154, 148.0972
412.0975, 150.2555
412.5796, 152.3287
413.0617, 154.3081
413.5439, 156.1868
414.0260, 158.0169
414.5081, 159.7471
414.9902, 161.2986
415.4723, 162.6800
415.9544, 163.8480
416.4366, 164.6757
416.9187, 165.2773
417.4008, 165.8210
417.8829, 167.0568
418.3650, 167.6713
418.8471, 166.7149
419.3293, 164.3654
419.8114, 161.6471
420.2935, 158.5854
420.7756, 155.5732
421.2577, 152.9848
421.7398, 151.0959
422.2220, 149.1195
422.7041, 146.8481
423.1862, 144.3731
423.6683, 141.8539
424.1504, 138.5682
424.6325, 135.9447
425.1147, 134.6221
425.5968, 134.7804
426.0789, 134.4234
426.5610, 133.3269
427.0431, 131.9199
427.5252, 130.4494
428.0074, 128.5271
428.4895, 127.5201
428.9716, 127.9611
429.4537, 129.2968
429.9358, 129.7132
430.4179, 128.9932
430.9001, 128.1200
431.3822, 127.4168
431.8643, 126.8755
432.3464, 127.2386
432.8285, 128.7425
433.3106, 130.3869
433.7928, 130.6319
434.2749, 129.6787
434.7570, 129.2592
435.2391, 130.1391
435.7212, 131.6948
436.2033, 132.7990
436.6855, 133.4632
437.1676, 133.8905
437.6497, 134.1021
438.1318, 134.2042
438.6139, 134.3033
439.0960, 134.3542
439.5782, 134.6352
440.0603, 135.5059
440.5424, 136.7631
441.0245, 138.0108
441.5066, 139.1430
441.9887, 140.1765
442.4709, 141.0137
442.9530, 141.6709
443.4351, 142.5549
443.9172, 143.8280
444.3993, 145.3748
444.8814, 147.1066
445.3636, 149.3411
445.8457, 151.3249
446.3278, 152.6354
446.8099, 153.6133
447.2920, 155.1593
447.7741, 158.1465
448.2563, 160.7540
448.7384, 162.2297
449.2205, 162.3652
449.7026, 163.2278
450.1847, 165.2055
450.6668, 167.4122
451.1490, 169.3390
451.6311, 171.4259
452.1132, 171.4630
452.5953, 168.8581
453.0774, 164.2173
453.5595, 158.6452
454.0417, 151.9934
454.5238, 145.5884
455.0059, 139.6482
455.4880, 134.4203
455.9701, 131.3131
456.4522, 130.6138
456.9344, 130.5200
457.4165, 128.9653
457.8986, 126.4348
458.3807, 124.3285
458.8628, 123.1212
459.3449, 122.4781
459.8271, 122.2174
460.3092, 122.2467
460.7913, 122.1627
461.2734, 121.4276
461.7555, 120.6607
462.2376, 120.5020
462.7198, 121.2069
463.2019, 121.7287
463.6840, 121.2694
464.1661, 120.4534
464.6482, 120.0364
465.1303, 120.6406
465.6125, 121.2179
466.0946, 121.4773
466.5767, 121.4460
467.0588, 121.4034
467.5409, 120.9872
468.0230, 120.9047
468.5052, 121.6119
468.9873, 123.8749
469.4694, 124.9361
469.9515, 124.1623
470.4336, 122.7388
470.9157, 122.4404
471.3979, 123.6655
471.8800, 124.6497
472.3621, 124.8508
472.8442, 124.4661
473.3263, 124.4957
473.8084, 124.9922
474.2906, 125.4944
474.7727, 125.5993
475.2548, 125.3999
475.7369, 125.3377
476.2190, 125.4547
476.7011, 125.7179
477.1833, 126.2954
477.6654, 127.0109
478.1475, 127.3751
478.6296, 126.7485
479.1117, 125.9765
479.5938, 126.0678
480.0760, 126.8939
480.5581, 127.5879
481.0402, 127.4726
481.5223, 127.1323
482.0044, 127.0874
482.4865, 127.6075
482.9687, 127.9460
483.4508, 127.6692
483.9329, 127.1066
484.4150, 126.7322
484.8971, 126.7058
485.3792, 126.7915
485.8614, 126.9841
486.3435, 127.2721
486.8256, 127.5162
487.3077, 127.7976
487.7898, 127.9376
488.2719, 127.7735
488.7541, 127.1074
489.2362, 126.8431
489.7183, 127.1838
490.2004, 127.6637
490.6825, 127.4467
491.1646, 126.4316
491.6468, 125.7486
492.1289, 125.8008
492.6110, 126.3768
493.0931, 126.8848
493.5752, 127.3282
494.0573, 127.8118
494.5395, 128.7207
495.0216, 129.6767
495.5037, 129.6375
495.9858, 128.2689
496.4679, 127.1320
496.9500, 128.0169
497.4322, 130.0486
497.9143, 131.7616
498.3964, 132.1563
498.8785, 132.4538
499.3606, 133.4465
499.8427, 134.9852
500.3249, 136.2940
500.8070, 137.2321
501.2891, 137.7896
501.7712, 137.7834
502.2533, 136.7210
502.7354, 136.4617
503.2176, 137.8827
503.6997, 139.7896
504.1818, 140.9324
504.6639, 140.6650
505.1460, 140.8651
505.6281, 142.0364
506.1103, 143.8399
506.5924, 144.8581
507.0745, 144.9143
507.5566, 144.8025
508.0387, 144.9220
508.5208, 145.2577
509.0030, 145.5235
509.4851, 145.7212
509.9672, 145.8388
510.4493, 145.7712
510.9314, 145.5995
511.4135, 145.6344
511.8957, 146.0786
512.3778, 146.5489
512.8599, 146.4850
513.3420, 146.0605
513.8242, 145.7798
514.3063, 146.0872
514.7884, 146.5111
515.2705, 146.6836
515.7526, 146.5788
516.2347, 146.4189
516.7169, 146.2662
517.1990, 146.1059
517.6811, 145.9217
518.1632, 145.5862
518.6453, 145.3921
519.1274, 145.4025
519.6096, 145.5644
520.0917, 145.7879
520.5738, 146.0795
521.0559, 146.4193
521.5380, 146.8242
522.0201, 147.2872
522.5023, 147.6425
522.9844, 147.8179
523.4665, 148.0999
523.9486, 148.8159
524.4307, 149.9357
524.9128, 150.6681
525.3950, 150.8533
525.8771, 150.9672
526.3592, 151.7351
526.8413, 152.9852
527.3234, 154.1232
527.8055, 154.8856
528.2877, 155.4552
528.7698, 155.8452
529.2519, 156.1615
529.7340, 156.8716
530.2161, 158.6178
530.6982, 160.6005
531.1804, 162.1357
531.6625, 162.9783
532.1446, 164.2208
532.6267, 166.5614
533.1088, 169.2932
533.5909, 171.7278
534.0731, 173.5049
534.5552, 175.3424
535.0373, 177.1814
535.5194, 179.1257
536.0015, 181.5818
536.4836, 184.7251
536.9658, 187.9999
537.4479, 191.3250
537.9300, 194.6610
538.4121, 197.2634
538.8942, 198.9515
539.3763, 200.5954
539.8585, 202.8870
540.3406, 205.7681
540.8227, 208.9952
541.3048, 212.6615
541.7869, 216.3222
542.2690, 219.2674
542.7512, 221.7765
543.2333, 224.5511
543.7154, 227.9147
544.1975, 231.6349
544.6796, 235.8471
545.1617, 240.3874
545.6439, 244.3584
546.1260, 246.6964
546.6081, 248.8526
547.0902, 251.9410
547.5723, 256.5369
548.0544, 259.9863
548.5366, 261.2507
549.0187, 261.6095
549.5008, 262.2476
549.9829, 263.8797
550.4650, 264.5002
550.9471, 263.8958
551.4293, 262.2142
551.9114, 259.6613
552.3935, 256.1263
552.8756, 252.2779
553.3577, 248.5045
553.8398, 244.6253
554.3220, 239.4434
554.8041, 232.8853
555.2862, 226.5953
555.7683, 221.9682
556.2504, 218.4633
556.7325, 214.8460
557.2147, 210.8865
557.6968, 207.1945
558.1789, 204.3642
558.6610, 202.0996
559.1431, 199.9919
559.6252, 197.7702
560.1074, 195.8033
560.5895, 194.3914
561.0716, 193.3741
561.5537, 192.2458
562.0358, 190.6375
562.5179, 189.1464
563.0001, 188.0149
563.4822, 187.2801
563.9643, 186.5274
564.4464, 185.6570
564.9285, 184.9100
565.4106, 184.5059
565.8928, 184.5069
566.3749, 184.4384
566.8570, 184.2567
567.3391, 184.0128
567.8212, 183.7400
568.3033, 183.4521
568.7855, 183.2894
569.2676, 183.4357
569.7497, 183.5912
570.2318, 183.1833
570.7139, 182.3437
571.1960, 181.6159
571.6782, 181.6317
572.1603, 181.6875
572.6424, 181.1023
573.1245, 179.7675
573.6066, 178.5837
574.0887, 177.9123
574.5709, 177.5112
575.0530, 177.1991
575.5351, 177.5133
576.0172, 177.0723
576.4993, 175.4153
576.9814, 173.1965
577.4636, 171.4937
577.9457, 170.4532
578.4278, 169.5634
578.9099, 168.7963
579.3920, 168.0787
579.8741, 166.9926
580.3563, 165.4974
580.8384, 164.2528
581.3205, 163.8965
581.8026, 164.0786
582.2847, 163.7503
582.7668, 162.8707
583.2490, 161.9463
583.7311, 161.3548
584.2132, 160.9913
584.6953, 160.7429
585.1774, 160.6613
585.6595, 160.5126
586.1416, 160.1904
586.6237, 159.7221
587.1058, 159.1447
587.5880, 158.1601
588.0701, 157.4057
588.5522, 157.2173
589.0343, 157.4315
589.5164, 157.2760
589.9985, 156.5625
590.4807, 155.7876
590.9628, 155.0868
591.4449, 154.4547
591.9270, 154.1737
592.4091, 154.2932
592.8912, 154.5459
593.3734, 154.6391
593.8555, 154.6420
594.3376, 154.9509
594.8197, 155.6982
595.3018, 156.4282
595.7839, 156.5403
596.2661, 156.2840
596.7482, 156.1334
597.2303, 156.1576
597.7124, 156.4626
598.1945, 157.2618
598.6766, 158.4106
599.1588, 159.4812
599.6409, 160.7108
600.1230, 161.4910
600.6051, 161.1695
601.0872, 159.6161
601.5693, 159.4507
602.0515, 161.4478
602.5336, 163.7766
603.0157, 165.3219
603.4978, 165.9516
603.9799, 166.5988
604.4620, 167.2802
604.9442, 168.0103
605.4263, 168.8287
605.9084, 169.7248
606.3905, 170.5767
606.8726, 171.3852
607.3547, 172.1109
607.8369, 172.6405
608.3190, 173.0506
608.8011, 173.5513
609.2832, 174.4477
609.7653, 175.2839
610.2474, 175.6738
610.7296, 175.6832
611.2117, 175.8473
611.6938, 176.4077
612.1759, 177.0786
612.6580, 177.7444
613.1401, 178.4277
613.6223, 179.0018
614.1044, 179.3971
614.5865, 179.7679
615.0686, 180.2674
615.5507, 180.9212
616.0328, 181.5016
616.5150, 182.0195
616.9971, 182.3772
617.4792, 182.2320
617.9613, 181.7343
618.4434, 181.5963
618.9255, 182.2367
619.4077, 183.1318
619.8898, 183.7280
620.3719, 184.0866
620.8540, 184.4087
621.3361, 184.7300
621.8182, 185.0948
622.3004, 185.5867
622.7825, 186.2014
623.2646, 186.6632
623.7467, 186.7979
624.2288, 186.8565
624.7109, 186.9210
625.1931, 186.8988
625.6752, 187.2185
626.1573, 187.9678
626.6394, 188.9079
627.1215, 189.8593
627.6036, 190.8234
628.0858, 191.6246
628.5679, 192.2807
629.0500, 192.6477
629.5321, 192.3910
630.0142, 191.6423
630.4963, 190.8164
630.9785, 189.8345
631.4606, 189.0805
631.9427, 189.2417
632.4248, 189.9720
632.9069, 190.1607
633.3890, 188.7566
633.8712, 187.2463
634.3533, 186.3484
634.8354, 186.1524
635.3175, 185.7361
635.7996, 184.9266
636.2817, 184.0502
636.7639, 183.2367
637.2460, 182.4594
637.7281, 181.9179
638.2102, 181.6501
638.6923, 181.4900
639.1744, 181.3280
639.6566, 181.1377
640.1387, 180.7996
640.6208, 180.3576
641.1029, 179.5823
641.5850, 177.6556
642.0671, 175.2564
642.5493, 173.7015
643.0314, 174.2445
643.5135, 175.1038
643.9956, 175.5709
644.4777, 175.6521
644.9598, 175.3766
645.4420, 174.3146
645.9241, 173.3623
646.4062, 172.9383
646.8883, 173.0022
647.3704, 172.4642
647.8525, 171.1077
648.3347, 169.6314
648.8168, 168.5810
649.2989, 167.9160
649.7810, 166.6105
650.2631, 164.5943
650.7452, 162.5297
651.2274, 161.1760
651.7095, 160.2476
652.1916, 159.0987
652.6737, 157.5625
653.1558, 156.0593
653.6379, 154.8978
654.1201, 153.9429
654.6022, 153.0103
655.0843, 152.2562
655.5664, 151.2752
656.0485, 149.8328
656.5306, 148.1210
657.0128, 146.5126
657.4949, 144.8030
657.9770, 143.6260
658.4591, 143.3639
658.9412, 143.7292
659.4233, 143.3371
659.9055, 142.1071
660.3876, 140.9923
660.8697, 140.6383
661.3518, 140.7544
661.8339, 140.7214
662.3160, 140.5266
662.7982, 140.0430
663.2803, 139.1500
663.7624, 137.9386
664.2445, 136.4709
664.7266, 134.7223
665.2087, 132.8916
665.6909, 130.9236
666.1730, 128.9731
666.6551, 127.1576
667.1372, 125.2154
667.6193, 123.8808
668.1014, 123.3970
668.5836, 123.2861
669.0657, 122.9192
669.5478, 122.2818
670.0299, 121.5594
670.5120, 120.7169
670.9941, 119.9382
671.4763, 119.5986
671.9584, 119.6226
672.4405, 119.7088
672.9226, 119.8800
673.4047, 119.9263
673.8868, 119.4786
674.3690, 118.7124
674.8511, 118.2360
675.3332, 118.6125
675.8153, 119.0241
676.2974, 118.9881
676.7795, 118.4667
677.2617, 118.5587
677.7438, 119.8892
678.2259, 120.8757
678.7080, 120.4008
679.1901, 118.3027
679.6722, 117.6388
680.1544, 118.6075
680.6365, 119.7796
681.1186, 119.6221
681.6007, 118.6554
682.0828, 118.2662
682.5649, 118.7293
683.0471, 119.3304
683.5292, 119.5333
684.0113, 119.5062
684.4934, 119.4382
684.9755, 119.3377
685.4576, 119.2632
685.9398, 119.3257
686.4219, 119.3910
686.9040, 119.2018
687.3861, 118.3901
687.8682, 118.1015
688.3503, 118.6923
688.8325, 119.7882
689.3146, 120.4169
689.7967, 120.5733
690.2788, 120.6346
690.7609, 120.7178
691.2430, 120.8253
691.7252, 121.0214
692.2073, 121.2685
692.6894, 121.3874
693.1715, 121.2018
693.6536, 120.9075
694.1357, 120.5776
694.6179, 120.2260
695.1000, 120.0304
695.5821, 119.9189
696.0642, 120.0896
696.5463, 120.7544
697.0284, 122.0749
697.5106, 122.7112
697.9927, 122.3850
698.4748, 122.0292
698.9569, 122.5284
699.4390, 123.7635
699.9211, 124.7107
700.4033, 125.2793
700.8854, 125.7204
701.3675, 126.1756
701.8496, 126.7052
702.3317, 127.4864
702.8138, 128.7697
703.2960, 129.7246
703.7781, 129.6087
704.2602, 129.0504
704.7423, 128.8187
705.2244, 129.1646
705.7065, 129.6875
706.1887, 130.3395
706.6708, 131.1578
707.1529, 132.3498
707.6350, 134.0290
708.1171, 135.3658
708.5992, 136.0691
709.0814, 136.3973
709.5635, 136.8534
710.0456, 137.4233
710.5277, 138.0289
711.0098, 138.4839
711.4919, 139.0735
711.9741, 140.3040
712.4562, 141.9481
712.9383, 143.1363
713.4204, 142.9847
713.9025, 142.8542
714.3846, 143.4373
714.8668, 144.6963
715.3489, 145.6694
715.8310, 146.4035
716.3131, 146.7735
716.7952, 146.6632
717.2773, 146.0986
717.7595, 145.4565
718.2416, 144.7470
718.7237, 143.8104
719.2058, 142.3575
719.6879, 140.6502
720.1700, 139.1173
720.6522, 137.7912
721.1343, 136.5890
721.6164, 135.7639
722.0985, 134.8398
722.5806, 133.3374
723.0627, 130.7734
723.5449, 128.6052
724.0270, 126.7748
724.5091, 125.4480
724.9912, 124.9616
725.4733, 125.5528
725.9554, 125.4517
726.4376, 124.3389
726.9197, 123.0056
727.4018, 122.6770
727.8839, 123.0416
728.3660, 123.0852
728.8481, 122.4214
729.3303, 121.6613
729.8124, 121.3155
730.2945, 121.2221
730.7766, 121.1381
731.2587, 120.7803
731.7408, 120.6692
732.2230, 121.1723
732.7051, 121.9372
733.1872, 122.3219
733.6693, 122.2652
734.1514, 121.9607
734.6335, 121.3359
735.1157, 120.6001
735.5978, 120.2194
736.0799, 120.1970
736.5620, 120.5739
737.0441, 121.9327
737.5262, 123.2467
738.0084, 123.0666
738.4905, 121.7934
738.9726, 120.7915
739.4547, 120.7519
739.9368, 121.0120
740.4189, 121.5243
740.9011, 122.2146
741.3832, 122.1911
741.8653, 120.9286
742.3474, 119.9097
742.8295, 119.8786
743.3116, 120.6748
743.7938, 120.9144
744.2759, 120.5750
744.7580, 120.3861
745.2401, 121.2235
745.7222, 122.3692
746.2043, 122.6065
746.6865, 121.9287
747.1686, 121.2444
747.6507, 120.8183
748.1328, 120.7385
748.6149, 121.2928
749.0970, 122.8021
749.5792, 123.2988
750.0613, 122.0413
750.5434, 120.6448
751.0255, 120.1854
751.5076, 120.7660
751.9897, 121.1204
752.4719, 121.2232
752.9540, 121.1784
753.4361, 120.9948
753.9182, 120.7565
754.4003, 120.6474
754.8824, 120.7051
755.3646, 120.7820
755.8467, 120.6979
756.3288, 120.6329
756.8109, 120.7757
757.2930, 121.3306
757.7751, 121.7498
758.2573, 122.1765
758.7394, 122.3050
759.2215, 121.6239
759.7036, 119.8902
760.1857, 119.1535
760.6678, 119.7706
761.1500, 120.8272
761.6321, 121.3140
762.1142, 121.3156
762.5963, 120.9393
763.0784, 120.0002
763.5605, 119.2959
764.0427, 119.6649
764.5248, 120.4916
765.0069, 121.0053
765.4890, 120.5319
765.9711, 120.4304
766.4532, 121.2033
766.9354, 122.1124
767.4175, 121.8985
767.8996, 120.2851
768.3817, 119.3518
768.8638, 119.5684
769.3459, 120.3375
769.8281, 120.8025
770.3102, 121.0403
770.7923, 121.3028
771.2744, 121.8672
771.7565, 122.1800
772.2386, 121.5029
772.7208, 120.3899
773.2029, 119.8053
773.6850, 120.2637
774.1671, 120.9338
774.6492, 121.8992
775.1313, 122.9017
775.6135, 123.2847
776.0956, 122.9262
776.5777, 122.8069
777.0598, 123.2378
777.5419, 123.9691
778.0240, 124.7308
778.5062, 125.4407
778.9883, 125.8408
779.4704, 125.6096
779.9525, 125.2374
780.4346, 124.8628
780.9167, 124.5786
781.3989, 124.6043
781.8810, 125.4419
782.3631, 126.0245
782.8452, 126.0346
783.3273, 125.7055
783.8094, 125.6452
784.2916, 125.8380
784.7737, 126.5662
785.2558, 128.3105
785.7379, 130.2447
786.2200, 130.5710
786.7021, 129.7071
787.1843, 129.0476
787.6664, 129.4729
788.1485, 130.0829
788.6306, 130.2218
789.1127, 130.1030
789.5948, 130.5818
790.0770, 132.3921
790.5591, 133.8209
791.0412, 134.2986
791.5233, 134.1562
792.0054, 134.6236
792.4875, 135.7061
792.9697, 136.9093
793.4518, 138.1040
793.9339, 139.2022
794.4160, 139.9252
794.8981, 140.3929
795.3802, 141.0062
795.8624, 142.0327
796.3445, 143.1717
796.8266, 144.3646
797.3087, 145.5602
797.7908, 146.5546
798.2729, 147.1699
798.7551, 147.9006
799.2372, 148.8691
799.7193, 150.0854
800.2014, 151.7292
800.6835, 153.7566
801.1656, 155.6352
801.6478, 156.8150
802.1299, 157.8951
802.6120, 159.6356
803.0941, 161.8860
803.5762, 164.2063
804.0583, 166.6753
804.5405, 168.8906
805.0226, 170.4319
805.5047, 171.5502
805.9868, 173.2503
806.4689, 175.6556
806.9510, 178.2229
807.4332, 180.8416
807.9153, 183.4413
808.3974, 185.8150
808.8795, 187.9466
809.3616, 189.7493
809.8438, 190.6345
810.3259, 191.6124
810.8080, 193.5549
811.2901, 196.2708
811.7722, 199.1671
812.2543, 202.6190
812.7365, 205.5854
813.2186, 207.5650
813.7007, 208.9206
814.1828, 211.0175
814.6649, 213.9810
815.1470, 216.7651
815.6292, 218.9280
816.1113, 220.6962
816.5934, 222.4837
817.0755, 224.2313
817.5576, 225.7201
818.0397, 226.8525
818.5219, 227.6909
819.0040, 228.3382
819.4861, 228.7224
819.9682, 228.5974
820.4503, 228.0753
820.9324, 226.8633
821.4146, 224.7893
821.8967, 222.1100
822.3788, 219.3460
822.8609, 216.5440
823.3430, 214.1169
823.8251, 212.4934
824.3073, 210.9398
824.7894, 208.5608
825.2715, 205.5703
825.7536, 202.3239
826.2357, 198.4376
826.7178, 194.9415
827.2000, 192.3429
827.6821, 190.2926
828.1642, 188.2301
828.6463, 186.0492
829.1284, 184.2034
829.6105, 182.8728
830.0927, 181.7116
830.5748, 180.0355
831.0569, 177.9618
831.5390, 175.8613
832.0211, 173.7448
832.5032, 171.7878
832.9854, 170.2879
833.4675, 168.9837
833.9496, 167.5128
834.4317, 165.5470
834.9138, 163.7728
835.3959, 162.3225
835.8781, 161.0186
836.3602, 159.6337
836.8423, 158.1819
837.3244, 156.3848
837.8065, 154.0995
838.2886, 151.7675
838.7708, 149.9110
839.2529, 148.3402
839.7350, 146.6843
840.2171, 144.5569
840.6992, 142.9136
841.1813, 142.6044
841.6635, 142.6140
842.1456, 141.8118
842.6277, 139.8136
843.1098, 138.2078
843.5919, 137.1265
844.0740, 136.3155
844.5562, 135.5720
845.0383, 134.8596
845.5204, 134.0272
846.0025, 133.0191
846.4846, 132.1425
846.9667, 131.7041
847.4489, 131.4516
847.9310, 131.1497
848.4131, 130.7100
848.8952, 130.3715
849.3773, 130.1897
849.8594, 130.0346
850.3416, 129.8686
850.8237, 129.6848
851.3058, 129.0981
851.7879, 128.0562
852.2700, 127.1408
852.7521, 126.9035
853.2343, 127.0089
853.7164, 127.0632
854.1985, 127.0202
854.6806, 127.0832
855.1627, 127.4906
855.6448, 127.8595
856.1270, 127.9639
856.6091, 127.7953
857.0912, 127.8233
857.5733, 128.0965
858.0554, 128.2849
858.5375, 128.1786
859.0197, 127.8354
859.5018, 127.2480
859.9839, 126.4868
860.4660, 125.9543
860.9481, 126.0083
861.4302, 126.2271
861.9124, 126.3707
862.3945, 126.4532
862.8766, 126.7464
863.3587, 127.4347
863.8408, 127.8700
864.3229, 127.6906
864.8051, 127.1922
865.2872, 127.3913
865.7693, 128.1575
866.2514, 128.7142
866.7335, 128.5701
867.2156, 128.1740
867.6978, 127.5546
868.1799, 126.9664
868.6620, 126.9867
869.1441, 128.6694
869.6262, 129.7376
870.1083, 129.6365
870.5905, 128.9656
871.0726, 128.9320
871.5547, 129.5190
872.0368, 130.1672
872.5189, 130.7987
873.0010, 131.2768
873.4832, 131.3427
873.9653, 131.1800
874.4474, 131.0735
874.9295, 130.9860
875.4116, 131.1646
875.8937, 131.9092
876.3759, 132.7860
876.8580, 133.4552
877.3401, 133.9684
877.8222, 133.7877
878.3043, 132.6808
878.7864, 131.7358
879.2686, 132.4971
879.7507, 134.1140
880.2328, 134.9549
880.7149, 134.7092
881.1970, 134.4987
881.6791, 134.8617
882.1613, 135.4753
882.6434, 136.1761
883.1255, 136.9965
883.6076, 137.5509
884.0897, 137.7421
884.5718, 137.9872
885.0540, 138.6024
885.5361, 139.4960
886.0182, 140.3869
886.5003, 141.2717
886.9824, 142.1017
887.4645, 142.8595
887.9467, 143.5399
888.4288, 143.9941
888.9109, 144.2849
889.3930, 145.0765
889.8751, 146.6484
890.3572, 148.1171
890.8394, 149.1474
891.3215, 149.9118
891.8036, 150.7354
892.2857, 151.6709
892.7678, 153.0752
893.2499, 155.5775
893.7321, 158.0108
894.2142, 159.3969
894.6963, 160.1376
895.1784, 160.9715
895.6605, 161.5174
896.1426, 163.0104
896.6248, 165.8223
897.1069, 169.3441
897.5890, 172.8612
898.0711, 176.3574
898.5532, 179.1036
899.0353, 180.7204
899.5175, 182.9231
899.9996, 187.9285
900.4817, 194.2176
900.9638, 199.9380
901.4459, 204.6276
901.9280, 209.2961
902.4102, 213.4080
902.8923, 218.3653
903.3744, 225.2845
903.8565, 234.2536
904.3386, 243.4552
904.8207, 252.7547
905.3029, 262.6956
905.7850, 274.0064
906.2671, 285.7815
906.7492, 297.0198
907.2313, 307.6997
907.7134, 318.9356
908.1956, 331.1349
908.6777, 343.8942
909.1598, 357.0836
909.6419, 370.7092
910.1240, 384.7126
910.6061, 399.0298
911.0883, 414.1547
911.5704, 430.0056
912.0525, 446.9406
912.5346, 465.6249
913.0167, 485.9378
913.4988, 507.6169
913.9810, 530.6039
914.4631, 555.0042
914.9452, 581.8906
915.4273, 609.4770
915.9094, 635.8854
916.3915, 661.0755
916.8737, 683.3295
917.3558, 702.8556
917.8379, 717.2550
918.3200, 725.3514
918.8021, 725.9297
919.2842, 716.3820
919.7664, 695.1168
920.2485, 669.2972
920.7306, 638.9651
921.2127, 606.2715
921.6948, 571.8731
922.1769, 535.2025
922.6591, 503.2453
923.1412, 476.0032
923.6233, 452.5672
924.1054, 432.3661
924.5875, 415.2393
925.0696, 401.4160
925.5518, 390.4441
926.0339, 379.9611
926.5160, 369.0447
926.9981, 358.6237
927.4802, 349.1622
927.9623, 340.4568
928.4445, 331.8400
928.9266, 323.3069
929.4087, 314.5217
929.8908, 305.2409
930.3729, 295.7299
930.8550, 285.7976
931.3372, 275.9474
931.8193, 267.3338
932.3014, 260.8368
932.7835, 254.5609
933.2656, 247.5428
933.7477, 240.9050
934.2299, 235.6132
934.7120, 231.7742
935.1941, 228.6308
935.6762, 226.1969
936.1583, 224.0887
936.6404, 221.7948
937.1226, 219.7258
937.6047, 218.4787
938.0868, 218.1064
938.5689, 218.2012
939.0510, 219.1967
939.5331, 220.0132
940.0153, 220.0579
940.4974, 219.5256
940.9795, 219.8546
941.4616, 221.0567
941.9437, 222.4055
942.4258, 223.3896
942.9080, 224.5312
943.3901, 226.5272
943.8722, 229.1383
944.3543, 231.8504
944.8364, 234.6799
945.3185, 237.3599
945.8007, 239.8064
946.2828, 242.1207
946.7649, 244.5711
947.2470, 247.1444
947.7291, 249.3153
948.2112, 251.0583
948.6934, 252.0823
949.1755, 252.1125
949.6576, 251.2763
950.1397, 249.6598
950.6218, 247.2212
951.1039, 244.3308
951.5861, 241.2769
952.0682, 237.4806
952.5503, 232.5051
953.0324, 226.5081
953.5145, 220.3976
953.9966, 214.2234
954.4788, 208.3058
954.9609, 202.6637
955.4430, 197.4369
955.9251, 192.7870
956.4072, 188.6400
956.8893, 184.7965
957.3715, 181.2094
957.8536, 177.9884
958.3357, 175.1881
958.8178, 172.7538
959.2999, 170.7434
959.7820, 169.0579
960.2642, 167.2709
960.7463, 165.2490
961.2284, 163.3228
961.7105, 161.4107
962.1926, 159.8940
962.6747, 159.2645
963.1569, 159.8442
963.6390, 159.7673
964.1211, 158.8492
964.6032, 157.7716
965.0853, 156.9509
965.5674, 156.3054
966.0496, 155.6001
966.5317, 154.8682
967.0138, 154.2324
967.4959, 153.6805
967.9780, 153.3328
968.4601, 153.4273
968.9423, 153.7451
969.4244, 153.7827
969.9065, 153.4745
970.3886, 153.1635
970.8707, 152.8988
971.3528, 152.6702
971.8350, 152.4354
972.3171, 152.2313
972.7992, 152.1515
973.2813, 152.2584
973.7634, 152.2649
974.2455, 152.0081
974.7277, 151.6552
975.2098, 151.2104
975.6919, 150.6651
976.1740, 150.7787
976.6561, 151.5766
977.1382, 152.4631
977.6204, 153.2244
978.1025, 153.7686
978.5846, 153.8340
979.0667, 153.5838
979.5488, 153.5002
980.0309, 153.9161
980.5131, 154.2565
980.9952, 154.3592
981.4773, 154.4158
981.9594, 154.8639
982.4415, 155.6210
982.9236, 155.9821
983.4058, 155.7828
983.8879, 155.3941
984.3700, 154.7469
984.8521, 154.3069
985.3342, 154.6534
985.8163, 156.1105
986.2985, 156.9812
986.7806, 157.0181
987.2627, 157.0122
987.7448, 157.4217
988.2269, 158.0883
988.7090, 158.4519
989.1912, 158.6105
989.6733, 158.9676
990.1554, 159.7098
990.6375, 160.7274
991.1196, 161.9367
991.6017, 163.4019
992.0839, 165.3054
992.5660, 167.8747
993.0481, 169.7507
993.5302, 170.6269
994.0123, 171.4304
994.4944, 173.4176
994.9766, 175.9373
995.4587, 177.8493
995.9408, 178.9300
996.4229, 180.4827
996.9050, 183.3722
997.3871, 186.3618
997.8693, 188.7449
998.3514, 190.7672
998.8335, 194.0508
999.3156, 198.4944
999.7977, 202.5348
1000.280, 205.0271
1000.762, 207.3694
1001.244, 210.9889
1001.726, 215.3151
1002.208, 219.4247
1002.690, 223.7205
1003.173, 226.7111
1003.655, 228.0115
1004.137, 228.6506
1004.619, 229.7248
1005.101, 231.0017
1005.583, 231.6074
1006.065, 231.5052
1006.547, 231.0251
1007.029, 230.2636
1007.512, 229.2611
1007.994, 227.8521
1008.476, 226.1775
1008.958, 224.8831
1009.440, 223.9775
1009.922, 223.4014
1010.404, 223.1802
1010.886, 223.1875
1011.369, 223.0476
1011.851, 223.0761
1012.333, 223.8069
1012.815, 225.4826
1013.297, 227.7026
1013.779, 230.8836
1014.261, 233.9970
1014.743, 236.1100
1015.225, 237.3347
1015.708, 239.8240
1016.190, 243.4744
1016.672, 246.5525
1017.154, 247.5228
1017.636, 247.8380
1018.118, 248.9223
1018.600, 250.1902
1019.082, 249.6865
1019.565, 246.9484
1020.047, 243.4524
1020.529, 239.2303
1021.011, 234.7790
1021.493, 230.9975
1021.975, 227.3868
1022.457, 222.7059
1022.939, 216.6027
1023.421, 210.7469
1023.904, 205.5708
1024.386, 201.1835
1024.868, 197.7175
1025.350, 195.0436
1025.832, 191.7446
1026.314, 187.8367
1026.796, 184.6095
1027.278, 182.9571
1027.760, 181.8591
1028.243, 180.3140
1028.725, 178.6046
1029.207, 177.2244
1029.689, 176.8153
1030.171, 175.7174
1030.653, 173.6048
1031.135, 171.4276
1031.617, 170.1012
1032.100, 169.4688
1032.582, 169.1939
1033.064, 169.1975
1033.546, 168.8894
1034.028, 167.2299
1034.510, 165.9444
1034.992, 166.2885
1035.474, 167.5514
1035.957, 167.5998
1036.439, 166.3538
1036.921, 165.3522
1037.403, 165.0099
1037.885, 164.8272
1038.367, 164.2278
1038.849, 163.4642
1039.331, 162.8610
1039.813, 162.4865
1040.296, 162.1836
1040.778, 161.9203
1041.260, 161.7576
1041.742, 161.7466
1042.224, 161.8555
1042.706, 162.0007
1043.188, 162.1728
1043.670, 162.3479
1044.152, 162.3128
1044.635, 162.5063
1045.117, 163.4416
1045.599, 164.5214
1046.081, 164.9012
1046.563, 164.4513
1047.045, 164.3758
1047.527, 164.7616
1048.009, 165.4092
1048.492, 166.0287
1048.974, 166.8967
1049.456, 168.4790
1049.938, 170.7242
1050.420, 172.6574
1050.902, 173.9504
1051.384, 175.4428
1051.866, 177.3429
1052.349, 179.5498
1052.831, 181.8015
1053.313, 184.2036
1053.795, 187.1618
1054.277, 190.9214
1054.759, 194.4971
1055.241, 197.0640
1055.723, 199.6107
1056.205, 202.7746
1056.688, 206.5409
1057.170, 210.3106
1057.652, 214.0991
1058.134, 218.2259
1058.616, 222.8270
1059.098, 227.9321
1059.580, 233.9248
1060.062, 240.3582
1060.544, 246.3876
1061.027, 251.8868
1061.509, 257.2033
1061.991, 262.6044
1062.473, 267.0643
1062.955, 269.6544
1063.437, 270.5213
1063.919, 269.9247
1064.401, 267.8946
1064.884, 264.4930
1065.366, 259.5214
1065.848, 253.3378
1066.330, 245.8385
1066.812, 237.5810
1067.294, 229.6896
1067.776, 222.2253
1068.258, 215.0755
1068.740, 208.2169
1069.223, 201.9754
1069.705, 196.4605
1070.187, 191.7240
1070.669, 187.9847
1071.151, 185.2598
1071.633, 182.1214
1072.115, 178.3432
1072.597, 175.1496
1073.079, 173.2280
1073.562, 171.9870
1074.044, 170.6824
1074.526, 169.3429
1075.008, 167.9906
1075.490, 166.6078
1075.972, 165.2594
1076.454, 163.8339
1076.936, 162.6313
1077.419, 162.0368
1077.901, 161.8777
1078.383, 161.2061
1078.865, 160.1085
1079.347, 159.2918
1079.829, 159.5575
1080.311, 159.7348
1080.793, 159.1480
1081.275, 158.2003
1081.758, 157.4706
1082.240, 156.9525
1082.722, 156.7386
1083.204, 156.8843
1083.686, 156.8913
1084.168, 156.0159
1084.650, 155.0194
1085.132, 154.7433
1085.615, 155.1985
1086.097, 155.1547
1086.579, 154.4155
1087.061, 153.6787
1087.543, 153.0907
1088.025, 152.7340
1088.507, 152.8546
1088.989, 153.2839
1089.471, 153.7782
1089.953, 154.3913
1090.436, 154.6203
1090.918, 153.7731
1091.400, 153.3378
1091.882, 154.3642
1092.364, 156.3817
1092.846, 157.0555
1093.328, 156.6679
1093.810, 156.6105
1094.293, 157.9757
1094.775, 159.1832
1095.257, 159.1934
1095.739, 158.8704
1096.221, 159.2286
1096.703, 160.4109
1097.185, 160.8136
1097.667, 160.3774
1098.150, 160.3336
1098.632, 162.1026
1099.114, 164.2113
1099.596, 165.2899
1100.078, 165.6594
1100.560, 166.5208
1101.042, 168.2130
1101.524, 169.4986
1102.006, 170.1384
1102.489, 170.6383
1102.971, 171.6608
1103.453, 172.9120
1103.935, 173.9743
1104.417, 174.8141
1104.899, 175.4104
1105.381, 175.1880
1105.863, 175.6812
1106.345, 177.6076
1106.828, 180.0981
1107.310, 181.3861
1107.792, 181.6472
1108.274, 181.2512
1108.756, 180.1295
1109.238, 179.0896
1109.720, 178.6151
1110.202, 178.2664
1110.685, 177.9023
1111.167, 177.4625
1111.649, 176.4857
1112.131, 175.0058
1112.613, 173.2707
1113.095, 171.2542
1113.577, 169.3075
1114.059, 167.7901
1114.542, 166.4488
1115.024, 164.8569
1115.506, 162.6995
1115.988, 162.1644
1116.470, 163.4846
1116.952, 164.0735
1117.434, 161.1214
1117.916, 157.4006
1118.398, 156.2378
1118.880, 156.6644
1119.363, 156.2166
1119.845, 153.6860
1120.327, 152.2158
1120.809, 152.2537
1121.291, 152.6230
1121.773, 152.0793
1122.255, 151.0961
1122.737, 150.6140
1123.220, 150.5656
1123.702, 150.1702
1124.184, 148.2239
1124.666, 147.3187
1125.148, 148.3072
1125.630, 149.9529
1126.112, 150.0364
1126.594, 149.1472
1127.077, 149.3526
1127.559, 151.0002
1128.041, 152.0314
1128.523, 150.7723
1129.005, 149.3968
1129.487, 148.7948
1129.969, 148.8205
1130.451, 149.2122
1130.933, 149.8809
1131.416, 150.0401
1131.898, 149.3113
1132.380, 148.7553
1132.862, 149.4903
1133.344, 150.3494
1133.826, 150.2877
1134.308, 149.3661
1134.790, 148.9653
1135.272, 149.0934
1135.755, 149.3632
1136.237, 149.7877
1136.719, 149.9837
1137.201, 149.3517
1137.683, 148.3995
1138.165, 147.7813
1138.647, 147.5766
1139.129, 147.5489
1139.612, 147.7035
1140.094, 148.0034
1140.576, 148.4616
1141.058, 149.0185
1141.540, 149.7769
1142.022, 150.5430
1142.504, 150.8948
1142.986, 150.4627
1143.469, 150.1734
1143.951, 150.0689
1144.433, 150.0386
1144.915, 149.9801
1145.397, 149.9321
1145.879, 149.9874
1146.361, 150.1229
1146.843, 150.2361
1147.325, 150.3822
1147.807, 150.3241
1148.290, 149.8683
1148.772, 149.5052
1149.254, 150.1489
1149.736, 151.2917
1150.218, 151.4992
1150.700, 150.7474
1151.182, 150.0923
1151.664, 150.0995
1152.147, 150.1420
1152.629, 150.0746
1153.111, 149.9040
1153.593, 149.6061
1154.075, 149.2149
1154.557, 148.7231
1155.039, 148.0962
1155.521, 148.0437
1156.004, 149.9018
1156.486, 151.3727
1156.968, 151.2591
1157.450, 150.0687
1157.932, 149.1488
1158.414, 148.5460
1158.896, 148.7423
1159.378, 150.0443
1159.860, 151.2148
1160.343, 151.4297
1160.825, 151.1936
1161.307, 150.7736
1161.789, 150.2318
1162.271, 150.0101
1162.753, 150.0973
1163.235, 150.2432
1163.717, 150.3812
1164.199, 150.4926
1164.682, 150.6845
1165.164, 150.7459
1165.646, 150.3580
1166.128, 149.4786
1166.610, 149.1718
1167.092, 149.4604
1167.574, 149.7061
1168.056, 149.4030
1168.539, 149.2097
1169.021, 149.9575
1169.503, 151.0776
1169.985, 151.7734
1170.467, 151.9494
1170.949, 151.9716
1171.431, 151.8329
1171.913, 151.6263
1172.396, 151.4617
1172.878, 151.2189
1173.360, 150.5536
1173.842, 149.7736
1174.324, 149.4834
1174.806, 149.7635
1175.288, 150.5373
1175.770, 151.9536
1176.252, 153.0429
1176.734, 152.7086
1177.217, 151.8579
1177.699, 151.5850
1178.181, 151.7291
1178.663, 151.7677
1179.145, 151.5309
1179.627, 151.4238
1180.109, 151.4961
1180.591, 151.6152
1181.074, 151.5929
1181.556, 151.5797
1182.038, 151.9464
1182.520, 152.5626
1183.002, 152.7164
1183.484, 151.9576
1183.966, 151.5282
1184.448, 151.6579
1184.931, 151.9137
1185.413, 151.7318
1185.895, 151.3831
1186.377, 151.2977
1186.859, 151.4835
1187.341, 151.7575
1187.823, 152.2432
1188.305, 152.4497
1188.787, 152.1927
1189.270, 151.8345
1189.752, 151.8383
1190.234, 152.1040
1190.716, 152.6083
1191.198, 153.3212
1191.680, 153.5668
1192.162, 153.0221
1192.644, 152.2871
1193.126, 151.2916
1193.609, 150.5938
1194.091, 151.7836
1194.573, 153.6752
1195.055, 153.7219
1195.537, 151.4305
1196.019, 150.1412
1196.501, 151.2673
1196.983, 152.1978
1197.466, 152.1089
1197.948, 151.5015
1198.430, 151.1547
1198.912, 151.0217
1199.394, 151.0425
1199.876, 151.2262
1200.358, 151.3710
1200.840, 151.3188
1201.323, 151.4634
1201.805, 152.0995
1202.287, 152.8044
1202.769, 152.4237
1203.251, 151.5013
1203.733, 151.3099
1204.215, 152.3912
1204.697, 152.9580
1205.179, 152.5130
1205.661, 151.9205
1206.144, 151.5155
1206.626, 151.2582
1207.108, 151.0610
1207.590, 150.9467
1208.072, 150.9558
1208.554, 151.0717
1209.036, 151.4506
1209.518, 152.3492
1210.001, 153.0001
1210.483, 152.8769
1210.965, 152.3642
1211.447, 152.4371
1211.929, 152.8432
1212.411, 153.0344
1212.893, 152.8192
1213.375, 152.4334
1213.858, 151.7755
1214.340, 151.2594
1214.822, 151.1656
1215.304, 151.3357
1215.786, 151.3150
1216.268, 151.2633
1216.750, 151.5929
1217.232, 152.9328
1217.714, 153.4787
1218.197, 152.8759
1218.679, 152.0113
1219.161, 151.3241
1219.643, 150.8538
1220.125, 150.8319
1220.607, 151.0567
1221.089, 151.0422
1221.571, 150.2238
1222.053, 150.0451
1222.536, 150.8416
1223.018, 151.5633
1223.500, 151.2959
1223.982, 150.6186
1224.464, 150.8220
1224.946, 151.5067
1225.428, 151.7586
1225.910, 150.6284
1226.393, 150.2829
1226.875, 150.9405
1227.357, 151.7979
1227.839, 152.5855
1228.321, 152.9932
1228.803, 152.0974
1229.285, 150.4809
1229.767, 149.4931
1230.250, 149.7345
1230.732, 150.0866
1231.214, 150.5531
1231.696, 151.0760
1232.178, 151.6765
1232.660, 152.2537
1233.142, 152.8385
1233.624, 153.2625
1234.106, 153.0569
1234.589, 151.7388
1235.071, 150.9431
1235.553, 150.7399
1236.035, 150.8883
1236.517, 151.5133
1236.999, 152.1348
1237.481, 152.0570
1237.963, 151.5698
1238.445, 151.3733
1238.928, 151.6751
1239.410, 151.6253
1239.892, 151.1381
1240.374, 150.7934
1240.856, 151.3701
1241.338, 151.9755
1241.820, 151.4961
1242.302, 150.5358
1242.785, 150.4397
1243.267, 151.5064
1243.749, 151.9636
1244.231, 151.7183
1244.713, 151.5298
1245.195, 152.2759
1245.677, 152.9594
1246.159, 152.6013
1246.641, 151.7499
1247.124, 151.4739
1247.606, 151.8483
1248.088, 151.8409
1248.570, 151.4160
1249.052, 151.1099
1249.534, 151.4701
1250.016, 151.8491
1250.498, 151.7251
1250.980, 151.4652
1251.463, 151.6382
1251.945, 152.2320
1252.427, 152.3410
1252.909, 151.9793
1253.391, 151.7188
1253.873, 151.9065
1254.355, 152.2878
1254.837, 152.9711
1255.320, 153.6070
1255.802, 153.8048
1256.284, 153.5995
1256.766, 152.9855
1257.248, 152.0701
1257.730, 151.5636
1258.212, 152.0038
1258.694, 152.7498
1259.177, 154.0248
1259.659, 154.9458
1260.141, 154.1095
1260.623, 152.2110
1261.105, 151.7494
1261.587, 152.5257
1262.069, 153.1809
1262.551, 153.0331
1263.033, 152.8690
1263.516, 152.7344
1263.998, 152.7331
1264.480, 153.2067
1264.962, 153.7779
1265.444, 153.4312
1265.926, 152.4494
1266.408, 151.9393
1266.890, 152.6873
1267.372, 152.9988
1267.855, 152.7299
1268.337, 152.2027
1268.819, 151.3601
1269.301, 150.6645
1269.783, 150.9594
1270.265, 151.9212
1270.747, 152.6728
1271.229, 153.2323
1271.712, 153.0996
1272.194, 152.1310
1272.676, 151.3894
1273.158, 152.1054
1273.640, 153.0436
1274.122, 152.7816
1274.604, 152.0043
1275.086, 152.1894
1275.568, 153.6503
1276.051, 153.9141
1276.533, 152.9058
1277.015, 152.2164
1277.497, 153.3676
1277.979, 154.6338
1278.461, 155.1017
1278.943, 154.9657
1279.425, 154.3261
1279.907, 153.1982
1280.390, 152.8521
1280.872, 153.1962
1281.354, 153.3208
1281.836, 152.4337
1282.318, 151.6185
1282.800, 151.1065
1283.282, 150.9868
1283.764, 151.5514
1284.247, 152.6073
1284.729, 153.1356
1285.211, 153.2446
1285.693, 153.3519
1286.175, 153.7071
1286.657, 153.9641
1287.139, 154.1495
1287.621, 154.1051
1288.104, 153.4206
1288.586, 152.5819
1289.068, 152.8972
1289.550, 153.8395
1290.032, 154.1785
1290.514, 153.0815
1290.996, 152.3085
1291.478, 151.8547
1291.960, 151.7578
1292.443, 152.2335
1292.925, 152.8728
1293.407, 153.3075
1293.889, 153.5040
1294.371, 153.3142
1294.853, 152.6266
1295.335, 152.3049
1295.817, 152.3500
1296.299, 152.6194
1296.782, 153.1938
1297.264, 153.7162
1297.746, 153.9853
1298.228, 153.9982
1298.710, 153.6717
1299.192, 153.0662
1299.674, 153.2791
1300.156, 154.1427
1300.639, 154.5368
1301.121, 153.7945
1301.603, 153.0288
1302.085, 152.5757
1302.567, 152.5029
1303.049, 152.8615
1303.531, 153.6238
##END=



