##NAMES=Andalusite
##RRUFFID=R050626
##IDEAL CHEMISTRY=Al_2_SiO_5_
##LOCALITY=Minas Gerais, Brazil
##OWNER=RRUFF
##SOURCE=Gemological Center
##DESCRIPTION=Grayish brown fragment
##STATUS=The identification of this mineral has been confirmed by X-ray diffraction and chemical analysis
##URL=rruff.info/R050626
##MEASURED CHEMISTRY=(Al_1.99_Fe^3+^_0.01_)_Î£=1_Si_1.00_O_5_
91.72394, 0.0000000E+00
92.20605, 103.5400
92.68817, 104.6642
93.17029, 105.8717
93.65240, 106.0222
94.13452, 105.5537
94.61664, 104.0900
95.09875, 101.5180
95.58087, 98.36939
96.06299, 95.82558
96.54510, 94.27784
97.02721, 92.75404
97.50933, 90.97897
97.99145, 89.17730
98.47356, 87.69690
98.95568, 86.76084
99.43780, 86.24604
99.91991, 85.34142
100.4020, 84.05857
100.8841, 82.52396
101.3663, 80.61665
101.8484, 78.41862
102.3305, 76.24358
102.8126, 74.38741
103.2947, 72.90355
103.7768, 71.61640
104.2590, 70.44646
104.7411, 69.48458
105.2232, 68.93208
105.7053, 68.89537
106.1874, 68.96638
106.6695, 68.56507
107.1517, 67.73336
107.6338, 66.85448
108.1159, 66.11550
108.5980, 65.47843
109.0801, 64.73525
109.5622, 63.72010
110.0444, 62.67899
110.5265, 61.88399
111.0086, 61.36012
111.4907, 60.79089
111.9728, 59.66663
112.4549, 57.67828
112.9371, 56.23876
113.4192, 55.93789
113.9013, 56.03589
114.3834, 56.03068
114.8655, 55.72942
115.3476, 55.26435
115.8298, 54.99237
116.3119, 55.08081
116.7940, 55.17673
117.2761, 55.32061
117.7582, 55.43401
118.2403, 55.40275
118.7225, 55.14774
119.2046, 54.69524
119.6867, 54.36131
120.1688, 54.25790
120.6509, 54.13381
121.1330, 53.83590
121.6152, 53.41456
122.0973, 53.07427
122.5794, 53.00544
123.0615, 53.20617
123.5436, 53.28141
124.0257, 53.19952
124.5079, 53.01020
124.9900, 52.71650
125.4721, 52.29738
125.9542, 51.90273
126.4363, 51.70568
126.9184, 51.64386
127.4006, 51.59304
127.8827, 51.50212
128.3648, 51.38660
128.8469, 51.30471
129.3290, 51.31047
129.8111, 51.27746
130.2932, 51.15258
130.7754, 50.93731
131.2575, 50.64217
131.7396, 50.19732
132.2217, 49.55975
132.7038, 49.16731
133.1859, 49.29315
133.6681, 49.47743
134.1502, 49.55593
134.6323, 49.49810
135.1144, 49.34855
135.5965, 49.13633
136.0786, 48.71662
136.5608, 48.55004
137.0429, 48.85048
137.5250, 49.22748
138.0071, 49.40537
138.4892, 49.29758
138.9713, 48.97842
139.4535, 48.59517
139.9356, 48.00478
140.4177, 47.54852
140.8998, 47.23024
141.3819, 47.05800
141.8640, 47.10237
142.3462, 47.43813
142.8283, 47.90025
143.3104, 47.99929
143.7925, 47.61554
144.2746, 47.17859
144.7567, 46.79461
145.2388, 46.47940
145.7210, 46.30490
146.2031, 46.35176
146.6852, 46.54786
147.1673, 46.72252
147.6494, 46.85400
148.1315, 46.98633
148.6137, 47.24405
149.0958, 47.67788
149.5779, 47.87529
150.0600, 47.27224
150.5421, 46.44759
151.0242, 45.96825
151.5064, 46.09045
151.9885, 46.56507
152.4706, 46.90117
152.9527, 47.06935
153.4348, 47.14150
153.9169, 47.09130
154.3991, 46.99310
154.8812, 46.94365
155.3633, 47.00693
155.8454, 47.15749
156.3275, 47.23999
156.8096, 47.21407
157.2918, 47.15094
157.7739, 47.04656
158.2560, 46.91607
158.7381, 46.77462
159.2202, 46.62628
159.7023, 46.46835
160.1845, 46.40953
160.6666, 46.45966
161.1487, 46.58094
161.6308, 46.83406
162.1129, 47.16883
162.5950, 47.44061
163.0772, 47.51302
163.5593, 47.35488
164.0414, 47.21831
164.5235, 47.08491
165.0056, 46.98422
165.4877, 46.88971
165.9698, 46.80915
166.4520, 46.87624
166.9341, 47.34108
167.4162, 48.19921
167.8983, 48.72612
168.3804, 48.72734
168.8625, 48.40606
169.3447, 47.91265
169.8268, 47.19612
170.3089, 46.59403
170.7910, 46.59127
171.2731, 47.03419
171.7552, 47.40470
172.2374, 47.45988
172.7195, 47.28680
173.2016, 47.13570
173.6837, 47.06527
174.1658, 46.96534
174.6479, 46.70576
175.1301, 46.33380
175.6122, 46.03100
176.0943, 45.93441
176.5764, 46.03721
177.0585, 46.19898
177.5406, 46.56851
178.0228, 46.84357
178.5049, 46.74929
178.9870, 46.37337
179.4691, 46.08288
179.9512, 46.37464
180.4333, 47.49473
180.9155, 48.04934
181.3976, 47.43666
181.8797, 46.75674
182.3618, 46.49685
182.8439, 46.69913
183.3260, 47.12063
183.8082, 47.45839
184.2903, 47.61998
184.7724, 47.95209
185.2545, 48.44564
185.7366, 49.07281
186.2187, 49.90424
186.7009, 50.91302
187.1830, 51.91349
187.6651, 52.63062
188.1472, 52.91880
188.6293, 53.18755
189.1114, 53.60383
189.5936, 53.91169
190.0757, 53.84065
190.5578, 53.32471
191.0399, 52.57405
191.5220, 51.90464
192.0041, 51.34932
192.4863, 50.79072
192.9684, 50.16648
193.4505, 49.55163
193.9326, 49.02960
194.4147, 48.62054
194.8968, 48.32564
195.3790, 48.18253
195.8611, 48.18724
196.3432, 48.23523
196.8253, 48.38085
197.3074, 48.54443
197.7895, 48.52656
198.2717, 48.21360
198.7538, 47.80634
199.2359, 47.52974
199.7180, 47.37136
200.2001, 47.34671
200.6822, 47.49704
201.1644, 47.80025
201.6465, 48.14510
202.1286, 48.50158
202.6107, 48.90993
203.0928, 49.50923
203.5749, 50.29075
204.0571, 50.84458
204.5392, 50.70128
205.0213, 49.87345
205.5034, 49.27234
205.9855, 49.28344
206.4676, 49.38027
206.9497, 49.24918
207.4319, 48.87556
207.9140, 48.41396
208.3961, 47.98739
208.8782, 47.58533
209.3603, 47.28656
209.8424, 47.08638
210.3246, 47.00666
210.8067, 47.16058
211.2888, 47.51361
211.7709, 47.84570
212.2530, 47.85612
212.7351, 47.40284
213.2173, 47.07458
213.6994, 46.90304
214.1815, 46.82824
214.6636, 46.81688
215.1457, 46.86633
215.6278, 46.99942
216.1100, 47.25902
216.5921, 47.71592
217.0742, 48.12886
217.5563, 48.54372
218.0384, 48.89441
218.5205, 49.08094
219.0027, 49.11673
219.4848, 49.16208
219.9669, 49.45136
220.4490, 50.18052
220.9311, 50.65408
221.4132, 50.67826
221.8954, 50.60984
222.3775, 50.73252
222.8596, 51.08758
223.3417, 51.49107
223.8238, 51.70251
224.3059, 51.61839
224.7881, 51.60891
225.2702, 51.64840
225.7523, 51.77498
226.2344, 52.06681
226.7165, 52.53028
227.1986, 53.01883
227.6807, 53.33303
228.1629, 53.41207
228.6450, 53.63267
229.1271, 54.02759
229.6092, 54.56913
230.0913, 55.24302
230.5734, 56.04707
231.0556, 56.94133
231.5377, 57.90373
232.0198, 58.93227
232.5019, 59.94516
232.9840, 60.79731
233.4661, 61.67992
233.9483, 62.82096
234.4304, 64.25546
234.9125, 65.90810
235.3946, 67.66851
235.8767, 69.56346
236.3588, 71.87830
236.8410, 75.11143
237.3231, 78.66174
237.8052, 81.71178
238.2873, 84.22319
238.7694, 86.20125
239.2515, 87.73887
239.7337, 88.79218
240.2158, 89.05357
240.6979, 88.13306
241.1800, 86.41734
241.6621, 84.57565
242.1442, 82.57275
242.6264, 80.53657
243.1085, 78.45792
243.5906, 76.40609
244.0727, 74.51065
244.5548, 72.79409
245.0369, 71.28692
245.5191, 70.06998
246.0012, 69.18839
246.4833, 68.51067
246.9654, 68.13339
247.4475, 67.86572
247.9296, 67.41779
248.4117, 66.56225
248.8939, 65.55735
249.3760, 65.00313
249.8581, 65.08299
250.3402, 65.24835
250.8223, 65.31475
251.3044, 65.34336
251.7866, 65.40427
252.2687, 65.53224
252.7508, 65.69557
253.2329, 65.81240
253.7150, 65.82462
254.1971, 65.91247
254.6793, 66.14445
255.1614, 66.44804
255.6435, 66.71027
256.1256, 66.87358
256.6077, 67.09218
257.0898, 67.78277
257.5720, 69.42909
258.0541, 70.56923
258.5362, 70.57363
259.0183, 70.29423
259.5004, 70.48866
259.9825, 71.41123
260.4647, 72.70741
260.9468, 73.69731
261.4289, 74.13518
261.9110, 74.74706
262.3931, 75.60009
262.8752, 76.60967
263.3574, 77.68152
263.8395, 78.80489
264.3216, 80.06078
264.8037, 81.59072
265.2858, 83.45370
265.7679, 85.51350
266.2501, 87.57753
266.7322, 89.91714
267.2143, 92.77950
267.6964, 96.16521
268.1785, 99.82178
268.6606, 103.3510
269.1428, 106.3607
269.6249, 110.3329
270.1070, 115.4287
270.5891, 121.1442
271.0712, 127.2467
271.5533, 133.6653
272.0355, 140.3827
272.5176, 147.4258
272.9997, 154.8463
273.4818, 162.1886
273.9639, 169.7772
274.4460, 177.0205
274.9282, 183.9781
275.4103, 190.4024
275.8924, 195.5351
276.3745, 198.5669
276.8566, 199.2604
277.3387, 200.0583
277.8208, 200.4815
278.3029, 201.4274
278.7851, 202.8842
279.2672, 205.1384
279.7493, 208.8129
280.2314, 214.4006
280.7135, 221.8556
281.1956, 230.4697
281.6778, 240.3828
282.1599, 251.0593
282.6420, 262.0921
283.1241, 273.7511
283.6062, 286.5251
284.0883, 300.6051
284.5705, 316.1786
285.0526, 333.9254
285.5347, 353.7871
286.0168, 375.5416
286.4989, 398.9160
286.9810, 424.1927
287.4632, 452.4572
287.9453, 484.5892
288.4274, 518.7686
288.9095, 550.3786
289.3916, 582.3087
289.8737, 607.6985
290.3559, 627.2495
290.8380, 638.9280
291.3201, 639.6816
291.8022, 628.4237
292.2843, 606.5240
292.7664, 574.6984
293.2486, 529.2064
293.7307, 483.0454
294.2128, 434.7788
294.6949, 387.6718
295.1770, 344.9403
295.6591, 307.1787
296.1413, 274.2032
296.6234, 245.9555
297.1055, 223.1918
297.5876, 203.6435
298.0697, 188.0622
298.5518, 175.1617
299.0340, 163.9155
299.5161, 154.2259
299.9982, 146.3891
300.4803, 140.8955
300.9624, 138.0529
301.4445, 135.6963
301.9267, 134.3327
302.4088, 133.0499
302.8909, 131.0333
303.3730, 128.4049
303.8551, 126.1225
304.3372, 125.0178
304.8194, 124.8848
305.3015, 123.8117
305.7836, 120.4392
306.2657, 117.5591
306.7478, 116.5934
307.2299, 117.2190
307.7121, 118.4662
308.1942, 119.9251
308.6763, 121.5636
309.1584, 123.2324
309.6405, 124.6662
310.1227, 126.5006
310.6048, 128.8785
311.0869, 131.7990
311.5690, 135.2483
312.0511, 139.2101
312.5332, 143.6820
313.0154, 148.5842
313.4975, 153.6420
313.9796, 159.7896
314.4617, 167.0110
314.9438, 175.4931
315.4259, 185.4881
315.9081, 197.0255
316.3902, 210.1956
316.8723, 225.4885
317.3544, 243.2939
317.8365, 261.2205
318.3186, 280.6718
318.8007, 299.1919
319.2828, 315.6948
319.7650, 329.8464
320.2471, 339.2547
320.7292, 341.9244
321.2113, 337.1288
321.6934, 327.1277
322.1755, 308.9724
322.6577, 288.3309
323.1398, 267.3625
323.6219, 246.6518
324.1040, 227.2958
324.5861, 210.0285
325.0682, 194.7928
325.5504, 181.6547
326.0325, 170.2999
326.5146, 160.9157
326.9967, 154.0793
327.4788, 149.2184
327.9609, 145.0673
328.4431, 141.0678
328.9252, 138.6165
329.4073, 135.5057
329.8894, 135.4080
330.3715, 135.3829
330.8536, 135.3929
331.3358, 135.1785
331.8179, 134.1847
332.3000, 132.2541
332.7821, 130.2233
333.2642, 129.2254
333.7463, 129.5949
334.2285, 129.9258
334.7106, 130.1114
335.1927, 130.2864
335.6748, 130.6007
336.1569, 131.0477
336.6390, 131.4252
337.1212, 131.4626
337.6033, 131.1453
338.0854, 131.5679
338.5675, 133.4755
339.0496, 135.3213
339.5317, 136.3911
340.0139, 136.7708
340.4960, 136.7402
340.9781, 136.3915
341.4602, 135.8493
341.9423, 135.7677
342.4244, 136.3495
342.9066, 137.0674
343.3887, 137.8102
343.8708, 138.6269
344.3529, 139.5586
344.8350, 140.6142
345.3171, 141.8514
345.7993, 143.3663
346.2814, 145.0774
346.7635, 147.3067
347.2456, 150.0976
347.7277, 153.3685
348.2098, 157.0771
348.6920, 161.1828
349.1741, 165.6670
349.6562, 170.3804
350.1383, 175.1821
350.6204, 181.2448
351.1025, 188.5406
351.5847, 196.8751
352.0668, 206.2581
352.5489, 216.5491
353.0310, 227.5473
353.5131, 239.0794
353.9952, 251.1131
354.4774, 263.6354
354.9595, 277.8779
355.4416, 291.1427
355.9237, 303.9671
356.4058, 315.1783
356.8879, 323.4692
357.3701, 328.2178
357.8522, 329.5450
358.3343, 327.7567
358.8164, 322.4515
359.2985, 314.1176
359.7806, 301.9520
360.2627, 287.6002
360.7448, 271.7466
361.2270, 254.7886
361.7091, 237.7464
362.1912, 221.6076
362.6733, 206.2725
363.1554, 192.3562
363.6375, 180.2206
364.1197, 169.0712
364.6018, 158.6100
365.0839, 148.8338
365.5660, 140.0541
366.0481, 132.4790
366.5302, 126.0637
367.0124, 120.4952
367.4945, 116.3289
367.9766, 112.3720
368.4587, 108.2400
368.9408, 104.2452
369.4229, 100.7641
369.9051, 97.96777
370.3872, 95.69437
370.8693, 93.72153
371.3514, 92.26344
371.8335, 90.55773
372.3156, 88.10331
372.7978, 85.68958
373.2799, 83.85063
373.7620, 82.62057
374.2441, 81.56809
374.7262, 80.27082
375.2083, 78.71687
375.6905, 77.22952
376.1726, 75.58614
376.6547, 74.29696
377.1368, 73.67420
377.6189, 73.54003
378.1010, 73.53251
378.5832, 73.46060
379.0653, 73.37231
379.5474, 73.44906
380.0295, 73.83053
380.5116, 74.00183
380.9937, 73.69346
381.4759, 73.12309
381.9580, 72.40202
382.4401, 71.51697
382.9222, 70.74245
383.4043, 70.52864
383.8864, 70.86758
384.3686, 70.86752
384.8507, 70.16238
385.3328, 69.22560
385.8149, 68.37521
386.2970, 67.63518
386.7791, 67.12132
387.2613, 67.03352
387.7434, 67.20834
388.2255, 67.23449
388.7076, 67.03547
389.1897, 66.86147
389.6718, 66.93389
390.1540, 67.15720
390.6361, 67.35947
391.1182, 67.62203
391.6003, 67.73256
392.0824, 67.49770
392.5645, 66.93008
393.0467, 66.11176
393.5288, 64.96433
394.0109, 63.69361
394.4930, 62.64234
394.9751, 61.78860
395.4572, 61.17693
395.9394, 60.92289
396.4215, 60.89844
396.9036, 60.94005
397.3857, 61.02805
397.8678, 61.04083
398.3499, 60.77064
398.8321, 60.19538
399.3142, 59.94917
399.7963, 60.48941
400.2784, 61.01257
400.7605, 60.77047
401.2426, 59.93679
401.7247, 59.35704
402.2068, 59.58140
402.6890, 60.40255
403.1711, 60.89270
403.6532, 60.72619
404.1353, 60.68897
404.6174, 61.02978
405.0995, 61.53028
405.5817, 61.96220
406.0638, 62.24900
406.5459, 62.36757
407.0280, 62.25629
407.5101, 61.78515
407.9922, 61.50318
408.4744, 61.48656
408.9565, 61.56581
409.4386, 61.62064
409.9207, 61.68382
410.4028, 61.88970
410.8849, 62.35593
411.3671, 63.03696
411.8492, 63.58924
412.3313, 63.78662
412.8134, 64.13724
413.2955, 64.80246
413.7776, 65.60734
414.2598, 66.37493
414.7419, 67.04515
415.2240, 67.66250
415.7061, 68.32565
416.1882, 69.11568
416.6703, 69.67422
417.1525, 69.93017
417.6346, 69.98869
418.1167, 69.90938
418.5988, 69.67015
419.0809, 69.18472
419.5630, 68.31746
420.0452, 67.17178
420.5273, 66.18463
421.0094, 65.45280
421.4915, 64.68721
421.9736, 63.68612
422.4557, 62.63938
422.9379, 61.76871
423.4200, 61.14568
423.9021, 60.63742
424.3842, 60.07447
424.8663, 59.46643
425.3484, 59.04445
425.8306, 58.95203
426.3127, 58.94253
426.7948, 58.72213
427.2769, 58.34024
427.7590, 58.13342
428.2411, 58.36976
428.7233, 58.81348
429.2054, 59.10943
429.6875, 59.23861
430.1696, 59.31108
430.6517, 59.38064
431.1339, 59.44246
431.6160, 59.49483
432.0981, 59.59079
432.5802, 59.59344
433.0623, 59.25956
433.5444, 58.80178
434.0266, 58.69581
434.5087, 59.10273
434.9908, 59.77264
435.4729, 60.44677
435.9550, 61.19930
436.4371, 61.52186
436.9193, 60.98675
437.4014, 60.34879
437.8835, 60.13446
438.3656, 60.30821
438.8477, 60.55968
439.3298, 60.68314
439.8120, 60.72035
440.2941, 60.89500
440.7762, 61.34922
441.2583, 61.76728
441.7404, 61.99110
442.2225, 62.22791
442.7046, 62.73954
443.1867, 63.56469
443.6689, 64.47041
444.1510, 65.13329
444.6331, 65.47495
445.1152, 65.97616
445.5973, 66.64094
446.0794, 67.46444
446.5616, 68.45335
447.0437, 69.59682
447.5258, 70.88790
448.0079, 72.31025
448.4900, 73.88209
448.9721, 75.67184
449.4543, 77.74234
449.9364, 79.84792
450.4185, 82.52235
450.9006, 84.81824
451.3827, 86.23447
451.8648, 86.65905
452.3470, 85.85825
452.8291, 83.12752
453.3112, 78.89694
453.7933, 75.02995
454.2754, 71.54702
454.7575, 68.67141
455.2397, 66.75453
455.7218, 65.52143
456.2039, 64.64050
456.6860, 64.27015
457.1681, 63.91005
457.6502, 62.90804
458.1324, 61.47681
458.6145, 60.62115
459.0966, 60.77189
459.5787, 61.42757
460.0608, 61.93994
460.5429, 62.33215
461.0251, 62.50746
461.5072, 62.24855
461.9893, 61.90211
462.4714, 61.76604
462.9535, 61.84898
463.4356, 62.03782
463.9178, 62.27742
464.3999, 62.54878
464.8820, 62.75260
465.3641, 62.83955
465.8462, 62.92663
466.3283, 62.94892
466.8105, 63.02055
467.2926, 63.28521
467.7747, 63.76538
468.2568, 64.34559
468.7389, 64.89660
469.2210, 65.42238
469.7032, 65.91940
470.1853, 66.56537
470.6674, 66.99235
471.1495, 66.88724
471.6316, 66.52934
472.1137, 66.36851
472.5959, 66.62398
473.0780, 67.12275
473.5601, 67.63462
474.0422, 68.26643
474.5243, 68.44763
475.0064, 67.64969
475.4886, 66.70312
475.9707, 66.05785
476.4528, 65.72586
476.9349, 65.55300
477.4170, 65.41335
477.8991, 65.37682
478.3813, 65.67684
478.8634, 66.37762
479.3455, 67.02409
479.8276, 67.38978
480.3097, 67.54530
480.7918, 67.60568
481.2740, 67.51418
481.7561, 67.50292
482.2382, 67.92146
482.7203, 68.44669
483.2024, 68.38110
483.6845, 67.56582
484.1666, 66.60117
484.6487, 66.03712
485.1309, 65.89698
485.6130, 65.76334
486.0951, 65.66734
486.5772, 65.54463
487.0593, 65.37926
487.5414, 65.16457
488.0236, 64.87119
488.5057, 64.48683
488.9878, 64.07812
489.4699, 63.76081
489.9520, 63.53024
490.4341, 63.40619
490.9163, 63.46252
491.3984, 63.53768
491.8805, 63.54282
492.3626, 63.49802
492.8447, 63.48211
493.3268, 63.55901
493.8090, 63.66738
494.2911, 63.62788
494.7732, 63.42295
495.2553, 63.11927
495.7374, 62.47046
496.2195, 61.91433
496.7017, 61.86915
497.1838, 62.31970
497.6659, 62.74958
498.1480, 62.80858
498.6301, 62.56972
499.1122, 62.15858
499.5944, 61.51154
500.0765, 61.00017
500.5586, 60.76377
501.0407, 60.84748
501.5228, 61.39222
502.0049, 62.77660
502.4871, 63.80941
502.9692, 63.64427
503.4513, 62.79456
503.9334, 62.13464
504.4155, 61.85344
504.8976, 61.81777
505.3798, 61.93563
505.8619, 62.22100
506.3440, 62.41254
506.8261, 62.37933
507.3082, 62.40852
507.7903, 62.64698
508.2725, 63.00490
508.7546, 63.37243
509.2367, 63.70273
509.7188, 63.93870
510.2009, 63.94117
510.6830, 63.55413
511.1652, 63.46421
511.6473, 64.03560
512.1294, 64.54436
512.6115, 64.69619
513.0936, 64.57527
513.5757, 64.34202
514.0579, 64.02557
514.5400, 63.78952
515.0221, 64.04649
515.5042, 64.89838
515.9863, 65.46107
516.4684, 65.35847
516.9506, 65.06636
517.4327, 64.96626
517.9148, 65.04764
518.3969, 65.19142
518.8790, 65.42868
519.3611, 65.65532
519.8433, 65.63746
520.3254, 65.40534
520.8075, 65.43834
521.2896, 66.08352
521.7717, 66.99710
522.2538, 67.33616
522.7360, 66.95994
523.2181, 66.55289
523.7002, 66.12362
524.1823, 65.78256
524.6644, 65.69807
525.1465, 65.82862
525.6287, 65.91061
526.1108, 65.72021
526.5929, 65.36404
527.0750, 65.41433
527.5571, 66.12364
528.0392, 66.90830
528.5214, 67.76738
529.0035, 68.64294
529.4856, 69.50522
529.9677, 70.33994
530.4498, 71.11883
530.9319, 71.78916
531.4141, 72.37595
531.8962, 73.09217
532.3783, 74.09095
532.8604, 74.85569
533.3425, 74.83759
533.8246, 74.62513
534.3068, 74.79858
534.7889, 75.44994
535.2710, 76.44291
535.7531, 78.02469
536.2352, 79.82129
536.7173, 80.93092
537.1995, 81.19446
537.6816, 81.37737
538.1637, 82.03325
538.6458, 83.10091
539.1279, 84.13196
539.6100, 84.98576
540.0922, 85.98177
540.5743, 87.07573
541.0564, 88.42775
541.5385, 90.33287
542.0206, 92.80090
542.5027, 95.46606
542.9849, 97.91416
543.4670, 100.1330
543.9491, 102.6828
544.4312, 105.7803
544.9133, 108.9524
545.3954, 111.9320
545.8775, 115.0164
546.3596, 118.7507
546.8417, 123.2140
547.3239, 127.4903
547.8060, 130.6198
548.2881, 132.6450
548.7702, 133.8950
549.2523, 134.3064
549.7344, 134.1132
550.2166, 133.1524
550.6987, 131.7439
551.1808, 130.4084
551.6629, 129.4867
552.1450, 128.0630
552.6271, 125.4601
553.1093, 121.9579
553.5914, 117.9566
554.0735, 113.5217
554.5556, 109.1227
555.0377, 105.1580
555.5198, 101.6177
556.0020, 98.44718
556.4841, 95.65427
556.9662, 93.15778
557.4483, 90.98920
557.9304, 89.06257
558.4125, 87.31564
558.8947, 85.71832
559.3768, 84.27090
559.8589, 82.91605
560.3410, 81.65125
560.8231, 80.88984
561.3052, 80.95375
561.7874, 81.08101
562.2695, 81.13222
562.7516, 81.05764
563.2337, 80.74899
563.7158, 80.16737
564.1979, 79.57870
564.6801, 79.18532
565.1622, 78.96792
565.6443, 78.85408
566.1264, 78.82752
566.6085, 78.95601
567.0906, 79.32789
567.5728, 79.89671
568.0549, 80.44572
568.5370, 80.92741
569.0191, 81.46307
569.5012, 82.13689
569.9833, 82.86535
570.4655, 83.65080
570.9476, 84.43831
571.4297, 84.97180
571.9118, 84.99940
572.3939, 84.55065
572.8760, 84.00678
573.3582, 83.31493
573.8403, 82.58962
574.3224, 81.80294
574.8045, 81.01643
575.2866, 80.35384
575.7687, 79.78882
576.2509, 79.07474
576.7330, 77.72743
577.2151, 76.06092
577.6972, 75.46661
578.1793, 76.23026
578.6614, 76.82716
579.1436, 76.47678
579.6257, 75.64798
580.1078, 75.05773
580.5899, 74.76147
581.0720, 74.43919
581.5541, 73.88526
582.0363, 73.29707
582.5184, 72.87813
583.0005, 72.64055
583.4826, 72.52687
583.9647, 72.51002
584.4468, 72.57978
584.9290, 72.70496
585.4111, 72.87827
585.8932, 73.12709
586.3753, 73.58089
586.8574, 73.99410
587.3395, 74.16369
587.8217, 74.15443
588.3038, 74.18021
588.7859, 74.37513
589.2680, 74.65920
589.7501, 74.86391
590.2322, 74.98286
590.7144, 75.06432
591.1965, 75.09446
591.6786, 75.11668
592.1607, 75.16872
592.6428, 75.24502
593.1249, 75.32054
593.6071, 75.32978
594.0892, 75.38564
594.5713, 75.64470
595.0534, 76.02776
595.5355, 76.28974
596.0176, 76.34184
596.4998, 76.34411
596.9819, 76.49197
597.4640, 76.79482
597.9461, 77.20118
598.4282, 77.87978
598.9103, 78.45396
599.3925, 78.78466
599.8746, 78.94820
600.3567, 78.97677
600.8388, 78.90452
601.3209, 78.94249
601.8030, 79.43110
602.2852, 80.34489
602.7673, 81.01257
603.2494, 81.36703
603.7315, 81.59639
604.2136, 81.64873
604.6957, 81.68804
605.1779, 82.01988
605.6600, 82.80925
606.1421, 83.33186
606.6242, 83.06739
607.1063, 82.39553
607.5884, 81.85410
608.0706, 81.48313
608.5527, 81.02802
609.0348, 80.29641
609.5169, 79.40441
609.9990, 78.74686
610.4811, 78.43262
610.9633, 78.21784
611.4454, 78.29910
611.9275, 78.30709
612.4096, 77.81393
612.8917, 77.02512
613.3738, 76.61189
613.8560, 77.07820
614.3381, 77.83617
614.8202, 77.56075
615.3023, 76.12852
615.7844, 75.28332
616.2665, 75.64870
616.7487, 76.29971
617.2308, 76.35896
617.7129, 75.99029
618.1950, 75.83231
618.6771, 76.21486
619.1592, 76.63699
619.6414, 76.84295
620.1235, 76.86452
620.6056, 76.69363
621.0877, 76.34451
621.5698, 76.04140
622.0519, 76.02938
622.5341, 76.31063
623.0162, 76.58497
623.4983, 76.80239
623.9804, 77.08116
624.4625, 77.35955
624.9446, 77.75626
625.4268, 78.55045
625.9089, 79.68342
626.3910, 80.55885
626.8730, 80.54153
627.3552, 79.96474
627.8373, 79.67867
628.3194, 79.70150
628.8015, 79.79269
629.2836, 79.95159
629.7657, 80.02679
630.2479, 79.67690
630.7300, 78.85209
631.2121, 78.24265
631.6942, 78.10722
632.1763, 78.06657
632.6584, 77.86362
633.1406, 77.56585
633.6227, 77.37265
634.1048, 77.36021
634.5869, 77.37089
635.0690, 77.10371
635.5511, 76.45666
636.0333, 76.27572
636.5154, 76.99247
636.9975, 77.58335
637.4796, 77.53529
637.9617, 77.22108
638.4438, 77.11476
638.9260, 77.32682
639.4081, 77.61866
639.8902, 77.80615
640.3723, 77.96754
640.8544, 78.28748
641.3365, 78.76945
641.8187, 79.19627
642.3008, 79.43199
642.7829, 79.55644
643.2650, 79.78172
643.7471, 80.30747
644.2292, 80.53638
644.7114, 80.22693
645.1935, 79.85268
645.6756, 79.66933
646.1577, 79.63485
646.6398, 79.60217
647.1219, 79.50161
647.6041, 79.40709
648.0862, 79.43975
648.5683, 79.59704
649.0504, 79.78245
649.5325, 80.07411
650.0146, 80.19009
650.4968, 79.80209
650.9789, 79.13176
651.4610, 78.65031
651.9431, 78.35749
652.4252, 78.32809
652.9073, 78.85533
653.3895, 79.50254
653.8716, 79.74951
654.3537, 79.59859
654.8358, 79.33614
655.3179, 79.12363
655.8000, 79.01290
656.2822, 79.19877
656.7643, 79.90428
657.2464, 80.33754
657.7285, 80.10081
658.2106, 79.89930
658.6927, 80.19374
659.1749, 80.74969
659.6570, 80.98618
660.1391, 80.57278
660.6212, 80.15149
661.1033, 80.46900
661.5854, 81.21867
662.0676, 81.52145
662.5497, 81.22588
663.0318, 80.93826
663.5139, 81.15603
663.9960, 81.72919
664.4781, 81.91685
664.9603, 81.52009
665.4424, 81.00019
665.9245, 80.15963
666.4066, 79.37810
666.8887, 78.88937
667.3708, 78.69450
667.8530, 78.74030
668.3351, 79.03836
668.8172, 79.41967
669.2993, 79.62399
669.7814, 79.65511
670.2635, 79.58820
670.7457, 79.40168
671.2278, 79.20260
671.7099, 79.04039
672.1920, 78.93620
672.6741, 78.96934
673.1563, 79.34544
673.6384, 79.53796
674.1205, 79.23698
674.6026, 78.78277
675.0847, 78.44094
675.5668, 78.27279
676.0490, 78.31291
676.5311, 78.60088
677.0132, 79.04502
677.4953, 79.42850
677.9774, 79.75534
678.4595, 80.00048
678.9417, 80.12938
679.4238, 80.21468
679.9059, 80.29636
680.3880, 80.37263
680.8701, 80.44482
681.3522, 80.54015
681.8344, 80.57507
682.3165, 80.36510
682.7986, 80.12712
683.2807, 80.22966
683.7628, 80.67738
684.2449, 81.18169
684.7271, 81.56192
685.2092, 81.81697
685.6913, 81.92220
686.1734, 81.74641
686.6555, 81.72343
687.1376, 82.10235
687.6198, 82.41862
688.1019, 82.44668
688.5840, 82.25331
689.0661, 81.95383
689.5482, 81.52750
690.0303, 81.20969
690.5125, 81.34631
690.9946, 81.70583
691.4767, 81.64902
691.9588, 81.12571
692.4409, 80.91949
692.9230, 81.61691
693.4052, 82.85262
693.8873, 83.55667
694.3694, 83.46456
694.8515, 83.30106
695.3336, 82.81470
695.8157, 82.51579
696.2979, 82.83289
696.7800, 83.48258
697.2621, 83.90390
697.7442, 83.87308
698.2263, 83.76060
698.7084, 83.96842
699.1906, 84.40435
699.6727, 84.76476
700.1548, 85.01696
700.6369, 85.27950
701.1190, 85.64010
701.6011, 86.02628
702.0833, 86.24169
702.5654, 86.10047
703.0475, 86.23277
703.5296, 86.74503
704.0117, 87.43173
704.4938, 88.45237
704.9760, 89.48885
705.4581, 89.96762
705.9402, 89.70828
706.4223, 89.30765
706.9044, 89.38692
707.3865, 89.88131
707.8687, 90.56186
708.3508, 91.45409
708.8329, 92.26752
709.3149, 92.82513
709.7971, 93.28911
710.2792, 93.94821
710.7613, 94.83821
711.2434, 95.71479
711.7255, 96.65430
712.2076, 97.48463
712.6898, 97.94139
713.1719, 98.30418
713.6540, 99.03568
714.1361, 100.2295
714.6182, 101.4929
715.1003, 102.5799
715.5825, 103.4013
716.0646, 103.3818
716.5467, 102.3436
717.0288, 101.7807
717.5109, 102.4588
717.9930, 103.4852
718.4752, 103.8497
718.9573, 103.5714
719.4394, 102.8919
719.9215, 101.5632
720.4036, 100.1459
720.8857, 98.71621
721.3679, 97.41253
721.8500, 96.39359
722.3321, 95.67721
722.8142, 95.18307
723.2963, 94.91422
723.7784, 94.73146
724.2606, 94.18424
724.7427, 93.22231
725.2248, 92.35039
725.7069, 91.65884
726.1890, 91.12110
726.6711, 90.81904
727.1533, 90.67678
727.6354, 90.33678
728.1175, 89.57464
728.5996, 88.89078
729.0817, 88.37243
729.5638, 88.04131
730.0460, 87.98786
730.5281, 88.15701
731.0102, 88.38276
731.4923, 88.57633
731.9744, 88.72446
732.4565, 88.78469
732.9387, 88.75476
733.4208, 88.74989
733.9029, 88.77223
734.3850, 88.84887
734.8671, 89.06110
735.3492, 89.31690
735.8314, 89.38851
736.3135, 89.22138
736.7956, 89.02671
737.2777, 88.65664
737.7598, 88.44453
738.2419, 88.82063
738.7241, 89.50314
739.2062, 89.89322
739.6883, 89.76942
740.1704, 89.40443
740.6525, 89.04111
741.1346, 88.70734
741.6168, 88.69679
742.0989, 89.09499
742.5810, 89.39831
743.0631, 89.38805
743.5452, 89.19822
744.0273, 88.94423
744.5095, 88.60019
744.9916, 88.53311
745.4737, 89.02962
745.9558, 89.51556
746.4379, 89.68113
746.9200, 89.73150
747.4022, 90.02856
747.8843, 90.55950
748.3664, 90.87798
748.8485, 90.57298
749.3306, 89.88451
749.8127, 89.26721
750.2949, 88.71964
750.7770, 88.68415
751.2591, 89.43290
751.7412, 90.20787
752.2233, 90.28001
752.7054, 89.77603
753.1876, 89.65395
753.6697, 90.44449
754.1518, 90.83727
754.6339, 90.29101
755.1160, 89.60884
755.5981, 89.33855
756.0803, 89.45025
756.5624, 89.76171
757.0445, 90.22520
757.5266, 90.59801
758.0087, 90.42702
758.4908, 89.90150
758.9730, 89.83556
759.4551, 90.31738
759.9372, 90.76751
760.4193, 90.88730
760.9014, 90.79470
761.3835, 90.68825
761.8657, 90.49236
762.3478, 90.54704
762.8299, 91.22441
763.3120, 91.69763
763.7941, 91.40256
764.2762, 90.90807
764.7584, 90.96632
765.2405, 91.65134
765.7226, 92.29713
766.2047, 92.36457
766.6868, 92.19057
767.1689, 92.27693
767.6511, 92.56258
768.1332, 92.83447
768.6153, 93.04533
769.0974, 92.99667
769.5795, 92.40642
770.0616, 91.40025
770.5438, 91.07183
771.0259, 91.96851
771.5080, 92.56624
771.9901, 92.36092
772.4722, 92.17045
772.9543, 92.66386
773.4365, 93.51205
773.9186, 93.85571
774.4007, 93.29402
774.8828, 92.69321
775.3649, 92.58266
775.8470, 92.80512
776.3292, 93.30308
776.8113, 93.95523
777.2934, 94.33437
777.7755, 94.22963
778.2576, 93.89260
778.7397, 93.73485
779.2219, 93.77663
779.7040, 93.71272
780.1861, 93.40257
780.6682, 93.27527
781.1503, 93.51617
781.6324, 93.99801
782.1146, 94.72451
782.5967, 95.67390
783.0788, 96.24039
783.5609, 96.03988
784.0430, 95.69001
784.5251, 95.42860
785.0073, 95.26090
785.4894, 95.19356
785.9715, 95.21963
786.4536, 95.31540
786.9357, 95.47060
787.4178, 95.66609
787.9000, 95.90690
788.3821, 96.19048
788.8642, 96.23485
789.3463, 95.92411
789.8284, 95.63322
790.3105, 95.57001
790.7927, 95.72002
791.2747, 96.07344
791.7568, 96.76212
792.2390, 97.31606
792.7211, 97.68506
793.2032, 97.94030
793.6853, 98.14382
794.1674, 98.24630
794.6495, 98.07636
795.1317, 97.63390
795.6138, 97.33987
796.0959, 97.56145
796.5780, 98.12216
797.0601, 98.84156
797.5422, 99.66093
798.0244, 100.2728
798.5065, 100.5973
798.9886, 100.6370
799.4707, 100.3218
799.9528, 99.74555
800.4349, 99.62034
800.9171, 100.1987
801.3992, 100.7194
801.8813, 101.0956
802.3634, 101.4008
802.8455, 101.6521
803.3276, 101.8592
803.8098, 102.0234
804.2919, 102.1217
804.7740, 102.2671
805.2561, 102.6890
805.7382, 103.0526
806.2203, 102.8861
806.7025, 102.3773
807.1846, 102.0778
807.6667, 102.1846
808.1488, 102.3690
808.6309, 102.1707
809.1130, 102.4346
809.5952, 101.8082
810.0773, 102.6193
810.5594, 103.1444
811.0415, 102.9851
811.5236, 102.6689
812.0057, 102.6720
812.4879, 102.9804
812.9700, 103.3773
813.4521, 104.0060
813.9342, 104.5171
814.4163, 104.8212
814.8984, 105.0188
815.3806, 105.1075
815.8627, 105.1589
816.3448, 105.3492
816.8269, 105.7622
817.3090, 106.0844
817.7911, 105.9056
818.2733, 105.4740
818.7554, 105.2726
819.2375, 105.3026
819.7196, 105.3725
820.2017, 105.4020
820.6838, 105.5317
821.1660, 105.9314
821.6481, 106.6005
822.1302, 107.5503
822.6123, 109.2936
823.0944, 110.2111
823.5765, 108.9346
824.0587, 107.7199
824.5408, 108.6854
825.0229, 111.0425
825.5050, 112.1789
825.9871, 110.8971
826.4692, 109.8525
826.9514, 110.3715
827.4335, 111.3237
827.9156, 111.6598
828.3977, 111.5496
828.8798, 111.6442
829.3619, 112.1912
829.8441, 112.8718
830.3262, 113.3068
830.8083, 113.5776
831.2904, 114.0658
831.7725, 114.7644
832.2546, 115.1479
832.7368, 115.0069
833.2189, 114.6383
833.7010, 114.2354
834.1831, 113.8556
834.6652, 114.2227
835.1473, 116.8179
835.6295, 117.7352
836.1116, 115.3475
836.5937, 112.6523
837.0758, 111.2869
837.5579, 110.8415
838.0400, 110.2554
838.5222, 109.1882
839.0043, 108.5132
839.4864, 109.1591
839.9685, 110.0232
840.4506, 109.9335
840.9327, 109.1795
841.4149, 108.5556
841.8970, 108.2928
842.3791, 108.0574
842.8612, 107.4801
843.3433, 106.7211
843.8254, 106.3030
844.3076, 106.2316
844.7897, 106.4634
845.2718, 107.1389
845.7539, 107.5906
846.2360, 107.2253
846.7181, 106.2912
847.2003, 105.6245
847.6824, 105.1498
848.1645, 105.1176
848.6466, 105.9919
849.1287, 106.7676
849.6108, 106.8242
850.0930, 106.6475
850.5751, 107.0013
851.0572, 107.9597
851.5393, 108.6605
852.0214, 108.4768
852.5035, 108.0345
852.9857, 107.8576
853.4678, 107.8193
853.9499, 107.6635
854.4320, 107.3730
854.9141, 107.1285
855.3962, 107.0602
855.8784, 107.0832
856.3605, 107.0408
856.8426, 106.9338
857.3247, 106.7646
857.8068, 106.5126
858.2889, 106.2719
858.7711, 105.9700
859.2532, 105.8944
859.7353, 106.6367
860.2174, 108.4136
860.6995, 109.3920
861.1816, 108.9268
861.6638, 108.5494
862.1459, 108.7415
862.6280, 108.9599
863.1101, 108.5616
863.5922, 107.7886
864.0743, 107.5572
864.5565, 108.3637
865.0386, 109.2195
865.5207, 109.5380
866.0028, 109.5425
866.4849, 109.2673
866.9670, 108.9230
867.4492, 109.1396
867.9313, 110.1020
868.4134, 111.0159
868.8955, 110.8248
869.3776, 109.9260
869.8597, 109.9265
870.3419, 110.8331
870.8240, 111.4232
871.3061, 111.3633
871.7882, 111.1446
872.2703, 111.1499
872.7524, 111.3316
873.2346, 111.5072
873.7166, 111.6893
874.1987, 111.8392
874.6808, 112.1104
875.1630, 112.1699
875.6451, 111.5837
876.1272, 110.8900
876.6093, 110.7883
877.0914, 111.3467
877.5735, 112.0204
878.0557, 112.8708
878.5378, 113.5060
879.0199, 113.4905
879.5020, 113.2546
879.9841, 113.3922
880.4662, 113.8670
880.9484, 114.1893
881.4305, 114.0650
881.9126, 113.9094
882.3947, 114.2726
882.8768, 115.0424
883.3589, 116.0745
883.8411, 117.2856
884.3232, 117.7632
884.8053, 117.0780
885.2874, 116.1975
885.7695, 116.3035
886.2516, 117.3033
886.7338, 118.1633
887.2159, 118.8973
887.6980, 119.4436
888.1801, 119.6934
888.6622, 119.8903
889.1443, 120.1350
889.6265, 120.4629
890.1086, 120.9673
890.5907, 121.6913
891.0728, 122.4557
891.5549, 123.3281
892.0370, 124.1337
892.5192, 124.7251
893.0013, 125.2371
893.4834, 125.7947
893.9655, 126.4367
894.4476, 127.1995
894.9297, 128.1496
895.4119, 129.1475
895.8940, 129.8998
896.3761, 130.6836
896.8582, 132.0038
897.3403, 133.8281
897.8224, 135.7962
898.3046, 137.7304
898.7867, 139.7813
899.2688, 142.2327
899.7509, 144.3748
900.2330, 147.3555
900.7151, 149.2947
901.1973, 151.6416
901.6794, 154.6125
902.1615, 158.1250
902.6436, 162.1998
903.1257, 166.7157
903.6078, 171.1161
904.0900, 175.1011
904.5721, 179.6512
905.0542, 185.1271
905.5363, 190.7612
906.0184, 196.0221
906.5005, 201.3906
906.9827, 207.5861
907.4648, 214.6063
907.9469, 221.2858
908.4290, 226.7702
908.9111, 232.5398
909.3932, 238.8466
909.8754, 245.9474
910.3575, 254.2606
910.8396, 263.5768
911.3217, 273.2042
911.8038, 282.7584
912.2859, 293.5561
912.7681, 307.0019
913.2502, 322.3602
913.7323, 338.4507
914.2144, 355.3323
914.6965, 373.8358
915.1786, 394.0536
915.6608, 414.9193
916.1429, 436.0466
916.6250, 456.2496
917.1071, 473.5276
917.5892, 487.9033
918.0714, 496.0622
918.5535, 497.8334
919.0356, 492.7516
919.5177, 480.0366
919.9998, 461.2681
920.4819, 438.2455
920.9641, 410.4243
921.4462, 383.6297
921.9283, 356.7571
922.4104, 332.7730
922.8925, 312.8787
923.3746, 295.3984
923.8568, 279.5061
924.3389, 265.3301
924.8210, 253.2581
925.3031, 243.4810
925.7852, 235.3207
926.2673, 229.4477
926.7495, 224.2743
927.2316, 219.1663
927.7137, 214.1231
928.1958, 209.0972
928.6779, 204.1857
929.1600, 199.7973
929.6422, 196.3065
930.1243, 193.0938
930.6064, 189.4501
931.0885, 185.7841
931.5706, 182.6178
932.0527, 179.9928
932.5349, 177.8801
933.0170, 176.2662
933.4991, 175.1417
933.9812, 174.6149
934.4633, 174.4940
934.9454, 174.0984
935.4276, 173.5044
935.9097, 173.5274
936.3918, 174.3239
936.8739, 175.5978
937.3560, 177.2316
937.8381, 179.0119
938.3203, 180.4858
938.8024, 181.6114
939.2845, 182.7492
939.7666, 183.7628
940.2487, 185.1495
940.7308, 187.0798
941.2130, 189.4162
941.6951, 192.0425
942.1772, 194.9636
942.6593, 198.2509
943.1414, 201.8576
943.6235, 205.9083
944.1057, 210.7394
944.5878, 215.6366
945.0699, 220.2284
945.5520, 224.7495
946.0341, 229.4592
946.5162, 234.3901
946.9984, 239.4227
947.4805, 245.2815
947.9626, 250.2701
948.4447, 253.4221
948.9268, 255.3925
949.4089, 257.1054
949.8911, 258.0974
950.3732, 257.2720
950.8553, 254.2666
951.3374, 249.5479
951.8195, 242.7284
952.3016, 234.9863
952.7838, 227.6277
953.2659, 220.5774
953.7480, 213.7153
954.2301, 206.9546
954.7122, 199.9073
955.1943, 192.2659
955.6764, 184.8217
956.1585, 178.7897
956.6406, 174.0123
957.1227, 169.8450
957.6049, 166.2369
958.0870, 162.6135
958.5691, 158.7713
959.0512, 155.1410
959.5333, 152.1074
960.0154, 149.5989
960.4976, 147.4552
960.9797, 145.6573
961.4618, 144.3837
961.9439, 143.9654
962.4260, 143.1614
962.9081, 141.2641
963.3903, 139.0361
963.8724, 137.3480
964.3545, 136.1853
964.8366, 135.1747
965.3187, 134.2510
965.8008, 133.5912
966.2830, 133.3693
966.7651, 133.2234
967.2472, 132.9895
967.7293, 132.7226
968.2114, 132.5607
968.6935, 132.5217
969.1757, 132.2631
969.6578, 131.4806
970.1399, 130.7698
970.6220, 130.3052
971.1041, 130.0368
971.5862, 129.9993
972.0684, 130.1034
972.5505, 130.2676
973.0326, 130.4909
973.5147, 130.3291
973.9968, 128.9622
974.4789, 127.6731
974.9611, 127.8420
975.4432, 128.6359
975.9253, 128.6975
976.4074, 128.0620
976.8895, 127.6829
977.3716, 128.0424
977.8538, 128.7424
978.3359, 129.7197
978.8180, 130.5514
979.3001, 130.1679
979.7822, 128.9804
980.2643, 128.5191
980.7465, 129.0546
981.2286, 129.4726
981.7107, 128.9169
982.1928, 127.9754
982.6749, 127.7671
983.1570, 128.1827
983.6392, 128.6140
984.1213, 129.0281
984.6034, 129.5194
985.0855, 130.1421
985.5676, 130.5487
986.0497, 130.3421
986.5319, 129.7267
987.0140, 129.5067
987.4961, 129.7494
987.9782, 129.7863
988.4603, 129.4323
988.9424, 129.4645
989.4246, 130.3872
989.9067, 131.5058
990.3888, 131.9358
990.8709, 131.7230
991.3530, 131.6328
991.8351, 131.8566
992.3173, 131.7316
992.7994, 130.7241
993.2815, 130.0666
993.7636, 130.5739
994.2457, 131.6639
994.7278, 132.5049
995.2100, 133.0870
995.6921, 133.5672
996.1742, 133.9171
996.6563, 134.2134
997.1384, 134.3920
997.6205, 134.5957
998.1027, 134.7601
998.5848, 135.0679
999.0669, 135.9100
999.5490, 137.3705
1000.031, 138.6836
1000.513, 139.6363
1000.995, 140.4335
1001.477, 141.1133
1001.960, 141.6973
1002.442, 142.0650
1002.924, 142.3801
1003.406, 142.9831
1003.888, 143.9685
1004.370, 145.1179
1004.852, 146.2720
1005.334, 147.6021
1005.817, 149.3638
1006.299, 151.2932
1006.781, 153.2098
1007.263, 154.9899
1007.745, 156.3383
1008.227, 157.1147
1008.709, 157.9758
1009.191, 159.4944
1009.673, 161.3250
1010.156, 162.9242
1010.638, 164.6054
1011.120, 167.1187
1011.602, 170.3794
1012.084, 173.6247
1012.566, 176.4516
1013.048, 179.0227
1013.530, 181.1904
1014.013, 183.4021
1014.495, 186.7019
1014.977, 190.7856
1015.459, 194.7720
1015.941, 198.4480
1016.423, 201.8338
1016.905, 204.9757
1017.387, 207.5647
1017.869, 209.1786
1018.352, 209.8431
1018.834, 209.4847
1019.316, 208.1897
1019.798, 206.6279
1020.280, 204.9485
1020.762, 202.5033
1021.244, 198.7528
1021.726, 194.2421
1022.208, 189.8900
1022.691, 185.7259
1023.173, 181.9834
1023.655, 178.6699
1024.137, 175.2656
1024.619, 171.5736
1025.101, 168.2986
1025.583, 166.0814
1026.065, 163.1933
1026.547, 162.1216
1027.030, 158.9448
1027.512, 156.6508
1027.994, 155.3172
1028.476, 154.5700
1028.958, 154.4821
1029.440, 154.2949
1029.922, 153.2519
1030.404, 151.7157
1030.887, 150.9221
1031.369, 151.0639
1031.851, 151.1152
1032.333, 151.1667
1032.815, 150.8459
1033.297, 149.9177
1033.779, 148.7887
1034.261, 147.7419
1034.744, 146.8201
1035.226, 146.1621
1035.708, 145.7168
1036.190, 145.7399
1036.672, 146.6954
1037.154, 147.2294
1037.636, 146.6523
1038.118, 145.8412
1038.600, 145.5074
1039.083, 145.5948
1039.565, 145.9178
1040.047, 146.7629
1040.529, 147.1303
1041.011, 146.6104
1041.493, 146.1865
1041.975, 146.0822
1042.457, 146.2302
1042.939, 146.5762
1043.422, 147.1252
1043.904, 147.9421
1044.386, 149.3622
1044.868, 150.2363
1045.350, 149.9651
1045.832, 149.8566
1046.314, 150.1948
1046.796, 150.9498
1047.279, 152.4056
1047.761, 154.2489
1048.243, 155.4068
1048.725, 155.4302
1049.207, 155.8032
1049.689, 156.9364
1050.171, 158.1665
1050.653, 159.2976
1051.135, 160.3928
1051.618, 161.3860
1052.100, 162.4134
1052.582, 163.9545
1053.064, 166.3108
1053.546, 168.2986
1054.028, 169.2793
1054.510, 170.3378
1054.992, 171.9050
1055.474, 173.7545
1055.957, 175.5737
1056.439, 177.5037
1056.921, 179.9445
1057.403, 182.9983
1057.885, 186.4169
1058.367, 190.4492
1058.849, 194.4300
1059.331, 197.6208
1059.814, 200.9823
1060.296, 205.5599
1060.778, 211.0264
1061.260, 216.6721
1061.742, 222.5281
1062.224, 227.1375
1062.706, 229.7198
1063.188, 231.3303
1063.671, 233.0558
1064.153, 233.5460
1064.635, 231.0994
1065.117, 226.5239
1065.599, 221.6952
1066.081, 217.0054
1066.563, 212.0560
1067.045, 206.8154
1067.527, 201.1174
1068.010, 193.8360
1068.492, 186.9805
1068.974, 182.7368
1069.456, 180.2439
1069.938, 177.4632
1070.420, 173.9733
1070.902, 170.8265
1071.384, 168.5283
1071.866, 166.5894
1072.349, 164.9958
1072.831, 163.4440
1073.313, 161.4661
1073.795, 159.4029
1074.277, 157.8826
1074.759, 157.0091
1075.241, 156.3970
1075.723, 156.0641
1076.206, 155.7026
1076.688, 155.1131
1077.170, 154.4838
1077.652, 153.8991
1078.134, 153.4128
1078.616, 153.2170
1079.098, 153.2522
1079.580, 152.9355
1080.062, 151.8332
1080.545, 150.7164
1081.027, 149.6228
1081.509, 148.9879
1081.991, 149.5025
1082.473, 150.4722
1082.955, 151.0187
1083.437, 151.0134
1083.919, 150.5908
1084.401, 149.4897
1084.884, 148.7913
1085.366, 149.4685
1085.848, 150.2042
1086.330, 149.9191
1086.812, 149.2969
1087.294, 149.1888
1087.776, 149.6062
1088.258, 150.1679
1088.740, 150.8275
1089.223, 151.3476
1089.705, 151.5097
1090.187, 151.6507
1090.669, 152.0733
1091.151, 152.4944
1091.633, 152.4575
1092.115, 152.1706
1092.597, 152.3037
1093.080, 153.0757
1093.562, 153.8020
1094.044, 154.1501
1094.526, 154.4911
1095.008, 155.0060
1095.490, 155.5819
1095.972, 156.1285
1096.454, 156.6491
1096.937, 157.2009
1097.419, 157.7966
1097.901, 158.2607
1098.383, 158.0630
1098.865, 158.3759
1099.347, 160.1918
1099.829, 162.0902
1100.311, 162.8665
1100.793, 163.1236
1101.276, 163.9916
1101.758, 165.5436
1102.240, 166.7626
1102.722, 167.1798
1103.204, 167.5628
1103.686, 167.7847
1104.168, 168.3651
1104.650, 169.9510
1105.132, 171.8166
1105.615, 173.0483
1106.097, 173.6900
1106.579, 174.4028
1107.061, 175.4038
1107.543, 176.2206
1108.025, 176.6496
1108.507, 177.0494
1108.989, 177.9337
1109.472, 178.5461
1109.954, 177.9977
1110.436, 176.5945
1110.918, 175.4018
1111.400, 174.6010
1111.882, 173.6435
1112.364, 172.3999
1112.846, 171.1302
1113.328, 169.9880
1113.811, 168.7417
1114.293, 167.0012
1114.775, 165.1304
1115.257, 163.9114
1115.739, 163.4598
1116.221, 162.7989
1116.703, 161.6561
1117.185, 160.7742
1117.667, 160.4867
1118.150, 160.1149
1118.632, 159.1101
1119.114, 158.0266
1119.596, 157.7454
1120.078, 158.1879
1120.560, 158.0051
1121.042, 156.7718
1121.524, 155.9397
1122.007, 155.5416
1122.489, 155.6976
1122.971, 156.8877
1123.453, 157.8786
1123.935, 157.2620
1124.417, 155.5595
1124.899, 154.7491
1125.381, 155.0240
1125.864, 155.3532
1126.346, 155.8548
1126.828, 155.8877
1127.310, 155.1119
1127.792, 154.4425
1128.274, 154.5712
1128.756, 155.1664
1129.238, 155.6331
1129.720, 155.9644
1130.203, 155.8062
1130.685, 155.0776
1131.167, 154.9128
1131.649, 155.5752
1132.131, 155.8630
1132.613, 155.0729
1133.095, 154.3080
1133.577, 155.1436
1134.059, 156.9633
1134.542, 157.2375
1135.024, 156.1218
1135.506, 155.4978
1135.988, 155.5081
1136.470, 155.7047
1136.952, 155.9367
1137.434, 156.4390
1137.916, 157.4987
1138.399, 158.5798
1138.881, 158.4845
1139.363, 157.6013
1139.845, 157.1656
1140.327, 157.1817
1140.809, 157.6097
1141.291, 158.3371
1141.773, 158.7594
1142.255, 158.5424
1142.738, 158.0932
1143.220, 157.8348
1143.702, 157.6974
1144.184, 157.3965
1144.666, 157.1968
1145.148, 158.0696
1145.630, 159.5671
1146.112, 159.8337
1146.594, 158.3803
1147.077, 156.9157
1147.559, 156.6013
1148.041, 156.9200
1148.523, 157.7007
1149.005, 158.5594
1149.487, 159.0369
1149.969, 159.2418
1150.451, 159.4262
1150.934, 159.6187
1151.416, 159.6587
1151.898, 159.4075
1152.380, 159.3035
1152.862, 159.8188
1153.344, 160.3103
1153.826, 160.2486
1154.308, 160.0121
1154.791, 160.0515
1155.273, 160.2661
1155.755, 160.2803
1156.237, 160.0066
1156.719, 159.8686
1157.201, 160.0243
1157.683, 160.2827
1158.165, 160.7879
1158.647, 161.1626
1159.130, 161.0292
1159.612, 160.7215
1160.094, 160.6261
1160.576, 160.7716
1161.058, 161.2252
1161.540, 162.5015
1162.022, 163.1023
1162.504, 162.3993
1162.986, 161.9538
1163.469, 162.2842
1163.951, 162.9171
1164.433, 163.6490
1164.915, 164.3094
1165.397, 164.4751
1165.879, 164.1029
1166.361, 163.6251
1166.843, 162.8959
1167.325, 162.6968
1167.808, 163.3682
1168.290, 163.6825
1168.772, 162.9059
1169.254, 161.9534
1169.736, 161.9007
1170.218, 162.5986
1170.700, 163.6296
1171.182, 164.9715
1171.665, 165.6941
1172.147, 165.7596
1172.629, 165.5417
1173.111, 165.1498
1173.593, 164.9125
1174.075, 165.0748
1174.557, 164.8486
1175.039, 165.2311
1175.521, 164.9041
1176.004, 164.9205
1176.486, 165.1786
1176.968, 165.3453
1177.450, 165.4245
1177.932, 165.7049
1178.414, 166.2632
1178.896, 166.6999
1179.378, 166.6394
1179.860, 166.4359
1180.343, 166.4639
1180.825, 166.5926
1181.307, 166.7530
1181.789, 166.8400
1182.271, 166.5653
1182.753, 166.0354
1183.235, 165.8424
1183.717, 166.2825
1184.200, 166.6044
1184.682, 166.1571
1185.164, 165.8062
1185.646, 166.1853
1186.128, 166.7405
1186.610, 166.8499
1187.092, 166.8267
1187.574, 167.5001
1188.057, 168.9057
1188.539, 169.5785
1189.021, 168.5623
1189.503, 167.9491
1189.985, 168.0875
1190.467, 168.5056
1190.949, 169.3732
1191.431, 170.0796
1191.913, 169.9841
1192.396, 169.3651
1192.878, 168.8823
1193.360, 168.4462
1193.842, 169.0628
1194.324, 171.3360
1194.806, 172.2319
1195.288, 170.9103
1195.770, 169.7433
1196.252, 169.8937
1196.735, 170.7617
1197.217, 171.8112
1197.699, 172.7365
1198.181, 172.2508
1198.663, 170.5833
1199.145, 169.8167
1199.627, 169.9728
1200.109, 170.4809
1200.592, 171.1470
1201.074, 171.5068
1201.556, 171.2667
1202.038, 171.1295
1202.520, 172.2869
1203.002, 173.7590
1203.484, 173.7718
1203.966, 173.0222
1204.448, 172.6518
1204.931, 172.6755
1205.413, 172.7935
1205.895, 172.9147
1206.377, 173.0716
1206.859, 173.3481
1207.341, 173.4546
1207.823, 172.9608
1208.305, 172.5183
1208.787, 172.7528
1209.270, 173.1368
1209.752, 172.9492
1210.234, 172.4764
1210.716, 172.5723
1211.198, 173.4052
1211.680, 173.9844
1212.162, 173.9387
1212.644, 173.9860
1213.127, 174.1973
1213.609, 174.5667
1214.091, 175.3318
1214.573, 175.9647
1215.055, 175.8919
1215.537, 175.3209
1216.019, 174.8787
1216.501, 174.5710
1216.984, 174.3155
1217.466, 174.0775
1217.948, 174.2070
1218.430, 174.8208
1218.912, 175.2352
1219.394, 175.1120
1219.876, 174.7119
1220.358, 174.2175
1220.840, 173.9041
1221.323, 174.6957
1221.805, 176.1559
1222.287, 176.7767
1222.769, 176.6968
1223.251, 176.6953
1223.733, 176.8750
1224.215, 176.7513
1224.697, 176.0912
1225.179, 175.6466
1225.662, 176.3619
1226.144, 177.2259
1226.626, 177.3367
1227.108, 177.0914
1227.590, 176.5927
1228.072, 176.2215
1228.554, 176.6822
1229.036, 177.8643
1229.519, 178.7698
1230.001, 179.0906
1230.483, 179.2971
1230.965, 179.6814
1231.447, 179.7090
1231.929, 178.6758
1232.411, 177.8359
1232.893, 178.0614
1233.375, 178.8482
1233.858, 179.5555
1234.340, 180.1725
1234.822, 180.6123
1235.304, 180.8981
1235.786, 180.8099
1236.268, 180.2175
1236.750, 180.1018
1237.232, 180.7755
1237.714, 181.3731
1238.197, 181.3450
1238.679, 180.9293
1239.161, 180.2475
1239.643, 179.6591
1240.125, 180.5439
1240.607, 182.2258
1241.089, 182.5131
1241.571, 181.7120
1242.054, 181.5155
1242.536, 182.1958
1243.018, 182.6504
1243.500, 182.2753
1243.982, 181.7672
1244.464, 181.4154
1244.946, 181.4095
1245.428, 182.2883
1245.910, 183.2236
1246.393, 183.2261
1246.875, 182.7768
1247.357, 182.9199
1247.839, 183.6544
1248.321, 183.7780
1248.803, 182.4728
1249.285, 181.9522
1249.767, 182.9912
1250.250, 183.7445
1250.732, 183.6266
1251.214, 183.4374
1251.696, 183.6659
1252.178, 184.1153
1252.660, 184.5352
1253.142, 184.8908
1253.624, 184.8688
1254.106, 184.4864
1254.589, 184.8171
1255.071, 185.8316
1255.553, 186.0804
1256.035, 185.3043
1256.517, 184.8971
1256.999, 185.6702
1257.481, 186.4390
1257.963, 185.6531
1258.445, 184.4280
1258.928, 184.1203
1259.410, 184.4553
1259.892, 185.5018
1260.374, 186.6727
1260.856, 186.6939
1261.338, 185.7743
1261.820, 185.7406
1262.302, 187.4154
1262.785, 188.5485
1263.267, 188.0203
1263.749, 187.4409
1264.231, 187.0508
1264.713, 187.0724
1265.195, 188.0019
1265.677, 189.0434
1266.159, 189.2566
1266.641, 188.8389
1267.124, 188.5717
1267.606, 188.4919
1268.088, 188.1658
1268.570, 187.5101
1269.052, 187.7204
1269.534, 189.0185
1270.016, 189.9855
1270.498, 189.9854
1270.980, 189.8130
1271.463, 190.3212
1271.945, 190.7965
1272.427, 189.5690
1272.909, 190.1541
1273.391, 188.3333
1273.873, 189.8171
1274.355, 190.0975
1274.837, 189.4140
1275.320, 189.4938
1275.802, 190.7564
1276.284, 191.8537
1276.766, 192.1405
1277.248, 192.3389
1277.730, 192.7448
1278.212, 193.0456
1278.694, 193.1406
1279.177, 193.0132
1279.659, 192.4392
1280.141, 191.7943
1280.623, 191.7623
1281.105, 192.3291
1281.587, 193.3752
1282.069, 195.0762
1282.551, 195.7735
1283.033, 195.3098
1283.516, 194.8831
1283.998, 194.8191
1284.480, 194.6105
1284.962, 193.9116
1285.444, 193.3899
1285.926, 193.7312
##END=



