##NAMES=Andalusite
##RRUFFID=R060197
##IDEAL CHEMISTRY=Al_2_SiO_5_
##LOCALITY=Brazil
##OWNER=RRUFF
##SOURCE=Marcus Origlieri
##DESCRIPTION=Green colored water worn pebble
##STATUS=The identification of this mineral has been confirmed by X-ray diffraction and chemical analysis
##URL=rruff.info/R060197
##MEASURED CHEMISTRY=(Al_1.97_Mn^3+^_0.03_)_Î£=2_Si_1.00_O_5_
91.62726, 0.0000000E+00
92.10938, 4.136061
92.59149, 4.122256
93.07361, 4.160703
93.55573, 4.242762
94.03784, 4.255324
94.51996, 3.997892
95.00208, 3.564140
95.48419, 3.286965
95.96631, 3.346618
96.44843, 3.619674
96.93054, 3.736904
97.41266, 3.675626
97.89478, 3.574338
98.37689, 3.601831
98.85901, 3.758815
99.34113, 3.941356
99.82324, 4.145590
100.3054, 4.369804
100.7875, 4.457121
101.2696, 4.369940
101.7517, 4.194192
102.2338, 4.105898
102.7159, 4.153148
103.1981, 4.151099
103.6802, 3.955498
104.1623, 3.415919
104.6444, 3.185637
105.1265, 3.405273
105.6086, 3.940011
106.0908, 4.276764
106.5729, 4.279227
107.0550, 4.239836
107.5371, 4.329978
108.0192, 4.677576
108.5013, 4.962428
108.9835, 5.100372
109.4656, 5.099581
109.9477, 5.258696
110.4298, 5.755085
110.9119, 6.314151
111.3940, 6.759174
111.8762, 6.895007
112.3583, 7.104242
112.8404, 7.492131
113.3225, 8.082087
113.8046, 8.609096
114.2867, 8.866448
114.7689, 9.103027
115.2510, 9.585935
115.7331, 10.60179
116.2152, 11.68763
116.6973, 12.69445
117.1794, 13.62083
117.6616, 14.40846
118.1437, 14.94911
118.6258, 15.34949
119.1079, 15.76789
119.5900, 16.31392
120.0721, 16.87696
120.5543, 17.37014
121.0364, 17.74325
121.5185, 18.13462
122.0006, 18.57065
122.4827, 19.08300
122.9648, 19.76810
123.4470, 20.86962
123.9291, 22.09949
124.4112, 23.10959
124.8933, 23.72997
125.3754, 24.24474
125.8575, 24.88249
126.3397, 25.64535
126.8218, 26.55039
127.3039, 27.66153
127.7860, 28.91603
128.2681, 30.18607
128.7502, 31.47528
129.2324, 32.73692
129.7145, 33.92235
130.1966, 35.03814
130.6787, 35.95816
131.1608, 36.48085
131.6429, 36.66507
132.1251, 36.82365
132.6072, 37.05772
133.0893, 37.34378
133.5714, 37.58549
134.0535, 37.76479
134.5356, 37.98274
135.0178, 38.35591
135.4999, 38.88418
135.9820, 39.53312
136.4641, 40.32887
136.9462, 41.27077
137.4283, 42.19827
137.9105, 43.12673
138.3926, 44.02880
138.8747, 44.86242
139.3568, 45.64790
139.8389, 46.31294
140.3210, 46.78150
140.8032, 46.99919
141.2853, 47.32738
141.7674, 47.79030
142.2495, 48.35049
142.7316, 48.89919
143.2137, 49.33572
143.6959, 49.39088
144.1780, 49.13728
144.6601, 48.17898
145.1422, 47.92921
145.6243, 48.73037
146.1064, 50.24641
146.5886, 51.21265
147.0707, 51.21315
147.5528, 51.14643
148.0349, 51.53338
148.5170, 53.08211
148.9991, 53.96930
149.4813, 53.79438
149.9634, 52.70037
150.4455, 51.99961
150.9276, 51.91139
151.4097, 52.04993
151.8918, 52.17827
152.3740, 52.25522
152.8561, 52.36830
153.3382, 52.47438
153.8203, 52.57516
154.3024, 52.86766
154.7845, 53.69902
155.2667, 54.54616
155.7488, 55.02783
156.2309, 54.89494
156.7130, 54.58656
157.1951, 54.05511
157.6772, 53.28271
158.1594, 52.82973
158.6415, 52.99086
159.1236, 53.45525
159.6057, 53.92117
160.0878, 54.31045
160.5699, 54.68562
161.0521, 55.07013
161.5342, 55.46437
162.0163, 55.86091
162.4984, 56.44835
162.9805, 56.99068
163.4626, 57.18887
163.9448, 56.47838
164.4269, 55.74776
164.9090, 55.47866
165.3911, 55.76544
165.8732, 56.22205
166.3553, 56.78729
166.8375, 57.38222
167.3196, 57.87585
167.8017, 58.24186
168.2838, 58.46651
168.7659, 58.46945
169.2480, 58.15812
169.7302, 57.95798
170.2123, 58.27164
170.6944, 58.91931
171.1765, 59.49171
171.6586, 59.72823
172.1407, 59.81483
172.6229, 59.98347
173.1050, 60.34418
173.5871, 60.56406
174.0692, 60.21876
174.5513, 59.46300
175.0334, 58.75775
175.5156, 58.34900
175.9977, 58.15990
176.4798, 58.10511
176.9619, 58.19215
177.4440, 58.35269
177.9261, 58.59692
178.4083, 58.88486
178.8904, 59.03320
179.3725, 58.86292
179.8546, 58.47511
180.3367, 58.04313
180.8188, 57.56118
181.3010, 57.11397
181.7831, 56.72300
182.2652, 56.41766
182.7473, 56.41296
183.2294, 57.06502
183.7115, 58.16207
184.1937, 59.08564
184.6758, 59.67831
185.1579, 60.09472
185.6400, 60.64460
186.1221, 61.31666
186.6042, 61.95412
187.0864, 62.28707
187.5685, 62.42915
188.0506, 62.88921
188.5327, 63.87180
189.0148, 65.15224
189.4969, 66.31141
189.9791, 67.34264
190.4612, 68.29292
190.9433, 69.02487
191.4254, 69.60430
191.9075, 70.69605
192.3896, 72.58848
192.8718, 75.00935
193.3539, 77.30325
193.8360, 79.50528
194.3181, 81.47820
194.8002, 83.44722
195.2823, 85.39912
195.7645, 85.92390
196.2466, 84.39462
196.7287, 81.25729
197.2108, 78.16561
197.6929, 75.07847
198.1750, 72.21480
198.6572, 69.72255
199.1393, 67.60145
199.6214, 66.00011
200.1035, 65.11430
200.5856, 64.80219
201.0677, 64.20434
201.5499, 63.22725
202.0320, 62.25898
202.5141, 61.69539
202.9962, 61.57176
203.4783, 61.59076
203.9604, 61.76975
204.4426, 62.06304
204.9247, 62.01076
205.4068, 61.50318
205.8889, 60.93002
206.3710, 60.67957
206.8531, 60.79197
207.3353, 61.02423
207.8174, 61.32947
208.2995, 61.70837
208.7816, 62.17514
209.2637, 62.73417
209.7458, 63.36161
210.2280, 64.02903
210.7101, 64.72953
211.1922, 65.49309
211.6743, 66.33345
212.1564, 67.24183
212.6385, 68.21685
213.1207, 69.30083
213.6028, 70.36496
214.0849, 71.29919
214.5670, 72.12509
215.0491, 72.74790
215.5313, 73.25066
216.0134, 73.62793
216.4955, 73.17993
216.9776, 71.63944
217.4597, 69.63895
217.9418, 67.77959
218.4240, 66.12267
218.9061, 64.47742
219.3882, 62.68421
219.8703, 60.75206
220.3524, 59.46518
220.8345, 59.03737
221.3167, 59.00575
221.7988, 58.92566
222.2809, 58.77705
222.7630, 58.62835
223.2451, 58.49717
223.7272, 58.38295
224.2094, 58.26259
224.6915, 58.15823
225.1736, 58.02081
225.6557, 57.77591
226.1378, 57.29186
226.6199, 56.96863
227.1021, 56.85830
227.5842, 56.96018
228.0663, 57.39666
228.5484, 58.50132
229.0305, 59.58432
229.5126, 59.93762
229.9948, 59.11783
230.4769, 58.46486
230.9590, 58.17989
231.4411, 58.26484
231.9232, 58.66405
232.4053, 59.61216
232.8875, 60.62922
233.3696, 61.25363
233.8517, 61.18023
234.3338, 61.31991
234.8159, 61.87622
235.2980, 62.84463
235.7802, 63.71107
236.2623, 64.43428
236.7444, 65.10189
237.2265, 65.77663
237.7086, 66.42821
238.1907, 67.16187
238.6729, 68.10296
239.1550, 69.21791
239.6371, 69.90200
240.1192, 70.01241
240.6013, 69.85359
241.0834, 69.60361
241.5656, 69.03353
242.0477, 68.83784
242.5298, 69.18839
243.0119, 70.03512
243.4940, 70.88345
243.9761, 71.77785
244.4583, 72.61970
244.9404, 73.35719
245.4225, 74.06657
245.9046, 74.50056
246.3867, 74.51340
246.8688, 74.19015
247.3510, 74.12410
247.8331, 74.39541
248.3152, 74.82121
248.7973, 75.27402
249.2794, 75.67506
249.7615, 76.29136
250.2437, 77.22914
250.7258, 78.40827
251.2079, 79.40673
251.6900, 80.06103
252.1721, 80.76778
252.6542, 81.76248
253.1364, 83.10147
253.6185, 84.56771
254.1006, 86.08442
254.5827, 87.71678
255.0648, 89.67963
255.5469, 91.94437
256.0291, 94.54811
256.5112, 97.34875
256.9933, 99.80565
257.4754, 103.9637
257.9575, 110.2925
258.4396, 118.2560
258.9218, 126.1476
259.4039, 133.9476
259.8860, 141.8405
260.3681, 150.1677
260.8502, 159.5368
261.3323, 168.0486
261.8145, 177.1826
262.2966, 184.5452
262.7787, 184.4268
263.2608, 174.5273
263.7429, 161.9243
264.2250, 148.5679
264.7072, 133.5512
265.1893, 122.0057
265.6714, 114.5096
266.1535, 110.1106
266.6356, 107.3406
267.1177, 106.4832
267.5999, 106.4420
268.0820, 106.8203
268.5641, 107.5909
269.0462, 109.0439
269.5283, 111.3019
270.0104, 114.1200
270.4926, 117.1021
270.9747, 120.1314
271.4568, 123.8590
271.9389, 128.5860
272.4210, 134.3797
272.9031, 140.3697
273.3853, 146.6437
273.8674, 152.9705
274.3495, 159.0972
274.8316, 165.2332
275.3137, 170.2303
275.7958, 173.6382
276.2780, 175.5344
276.7601, 177.0798
277.2422, 178.0863
277.7243, 179.2138
278.2064, 180.9391
278.6885, 183.1850
279.1707, 186.7202
279.6528, 191.9181
280.1349, 198.5479
280.6170, 205.4452
281.0991, 212.5904
281.5812, 220.1210
282.0634, 227.9049
282.5455, 236.0283
283.0276, 245.0157
283.5097, 255.0453
283.9918, 265.9715
284.4739, 277.3102
284.9561, 289.0357
285.4382, 301.3799
285.9203, 315.1947
286.4024, 330.2072
286.8845, 343.8275
287.3666, 355.3784
287.8488, 365.5134
288.3309, 376.2469
288.8130, 387.6510
289.2951, 396.4959
289.7772, 400.9807
290.2593, 401.1469
290.7415, 397.2456
291.2236, 389.0853
291.7057, 377.5023
292.1878, 363.1609
292.6699, 346.1967
293.1520, 328.1441
293.6342, 309.4719
294.1163, 290.3564
294.5984, 271.8820
295.0805, 253.8352
295.5626, 236.8969
296.0447, 221.5446
296.5269, 207.7661
297.0090, 195.4610
297.4911, 184.7884
297.9732, 175.5686
298.4553, 167.8496
298.9374, 161.7064
299.4196, 156.4222
299.9017, 151.1521
300.3838, 146.1916
300.8659, 142.4296
301.3480, 140.7914
301.8301, 140.3011
302.3123, 139.5678
302.7944, 138.5982
303.2765, 137.7651
303.7586, 137.5595
304.2407, 137.6745
304.7228, 137.5107
305.2050, 136.5598
305.6871, 135.5788
306.1692, 135.2850
306.6513, 135.6638
307.1334, 136.6762
307.6155, 138.6628
308.0977, 141.1544
308.5798, 143.5057
309.0619, 145.3884
309.5440, 147.4656
310.0261, 150.1926
310.5082, 153.5412
310.9904, 157.4110
311.4725, 161.6259
311.9546, 166.4442
312.4367, 172.1616
312.9188, 178.9021
313.4009, 186.2265
313.8831, 193.5924
314.3652, 201.2857
314.8473, 209.9544
315.3294, 220.7091
315.8115, 232.0121
316.2936, 243.1987
316.7758, 254.3151
317.2579, 264.4926
317.7400, 274.2426
318.2221, 282.6409
318.7042, 288.7360
319.1863, 292.9789
319.6685, 294.1822
320.1506, 291.5621
320.6327, 285.0746
321.1148, 276.3703
321.5969, 264.6734
322.0790, 251.6644
322.5612, 238.4769
323.0433, 224.2047
323.5254, 211.1102
324.0075, 199.8938
324.4896, 190.3788
324.9717, 181.5884
325.4539, 173.0787
325.9360, 165.3244
326.4181, 158.6870
326.9002, 153.8540
327.3823, 149.2195
327.8644, 144.3393
328.3466, 139.5388
328.8287, 135.8192
329.3108, 133.7669
329.7929, 132.2840
330.2750, 131.0529
330.7571, 130.1171
331.2393, 129.2997
331.7214, 128.6770
332.2035, 128.1410
332.6856, 127.4998
333.1677, 126.4639
333.6498, 125.7308
334.1320, 125.5038
334.6141, 125.8205
335.0962, 126.3977
335.5783, 127.4610
336.0604, 128.5505
336.5425, 129.1388
337.0247, 128.9628
337.5068, 128.9518
337.9889, 129.2860
338.4710, 129.9429
338.9531, 130.6758
339.4352, 131.3820
339.9174, 132.4096
340.3995, 134.1161
340.8816, 136.6363
341.3637, 139.1068
341.8458, 141.5363
342.3279, 143.7844
342.8101, 145.4787
343.2922, 146.5126
343.7743, 147.6142
344.2564, 149.1902
344.7385, 151.2378
345.2206, 153.4046
345.7028, 155.6708
346.1849, 158.1128
346.6670, 160.8938
347.1491, 164.0015
347.6312, 167.2377
348.1133, 170.2765
348.5955, 173.3805
349.0776, 177.4841
349.5597, 182.6494
350.0418, 188.5557
350.5239, 195.1597
351.0060, 202.2924
351.4882, 209.1463
351.9703, 215.4364
352.4524, 221.3513
352.9345, 226.8743
353.4166, 232.0616
353.8987, 237.4382
354.3809, 243.7933
354.8630, 250.4507
355.3451, 256.3473
355.8272, 261.4404
356.3093, 265.3477
356.7914, 267.9717
357.2736, 269.1901
357.7557, 268.5782
358.2378, 265.4499
358.7199, 260.6849
359.2020, 254.9704
359.6841, 248.3861
360.1663, 240.8521
360.6484, 231.8683
361.1305, 222.0107
361.6126, 212.0886
362.0947, 201.9661
362.5768, 192.2323
363.0590, 182.9268
363.5411, 174.0669
364.0232, 166.0939
364.5053, 159.4233
364.9874, 153.5526
365.4695, 148.0908
365.9517, 142.8232
366.4338, 138.1057
366.9159, 134.0397
367.3980, 130.5648
367.8801, 127.4299
368.3622, 124.6505
368.8444, 122.2007
369.3265, 120.1206
369.8086, 118.7757
370.2907, 117.1174
370.7728, 114.8717
371.2549, 112.4001
371.7371, 110.3056
372.2192, 108.7262
372.7013, 107.3299
373.1834, 106.0616
373.6655, 104.9202
374.1476, 103.8802
374.6298, 103.0812
375.1119, 102.2451
375.5940, 101.0175
376.0761, 99.16967
376.5582, 97.70783
377.0403, 96.83070
377.5225, 96.46680
378.0046, 96.37615
378.4867, 96.67657
378.9688, 96.82522
379.4509, 96.33765
379.9330, 95.20187
380.4152, 94.32256
380.8973, 93.77649
381.3794, 93.50839
381.8615, 93.61103
382.3436, 94.06841
382.8257, 94.25038
383.3079, 93.57722
383.7900, 92.38695
384.2721, 91.92908
384.7542, 92.26296
385.2363, 92.70858
385.7184, 92.50923
386.2006, 91.87959
386.6827, 91.40559
387.1648, 91.32110
387.6469, 91.42863
388.1290, 91.49728
388.6111, 91.53777
389.0933, 91.60835
389.5754, 91.89426
390.0575, 92.17200
390.5396, 92.20008
391.0217, 91.95010
391.5038, 91.40755
391.9860, 90.37343
392.4681, 89.05968
392.9502, 87.83599
393.4323, 86.83140
393.9144, 85.99611
394.3965, 85.35155
394.8787, 84.90000
395.3608, 84.47230
395.8429, 83.96861
396.3250, 83.47508
396.8071, 83.06658
397.2892, 82.87545
397.7714, 82.64421
398.2535, 82.31345
398.7356, 81.89556
399.2177, 81.45715
399.6998, 80.68945
400.1819, 80.16314
400.6641, 80.16314
401.1462, 81.04829
401.6283, 81.72032
402.1104, 82.09203
402.5925, 82.28956
403.0746, 82.50005
403.5568, 82.69756
404.0389, 82.95946
404.5210, 83.35283
405.0031, 83.87774
405.4852, 84.17961
405.9673, 84.16450
406.4495, 84.10354
406.9316, 84.23599
407.4137, 84.58477
407.8958, 84.95975
408.3779, 85.35386
408.8600, 85.74129
409.3422, 86.04762
409.8243, 86.26790
410.3064, 86.47012
410.7885, 86.68080
411.2706, 86.90479
411.7527, 87.11990
412.2349, 87.30339
412.7170, 87.61114
413.1991, 88.40804
413.6812, 89.51885
414.1633, 90.32630
414.6454, 90.39118
415.1276, 90.19627
415.6097, 90.32362
416.0918, 90.75848
416.5739, 91.40361
417.0560, 92.53856
417.5381, 93.70705
418.0203, 94.33730
418.5024, 94.18697
418.9845, 93.82464
419.4666, 93.67494
419.9487, 93.56126
420.4308, 93.15512
420.9130, 91.77779
421.3951, 90.53642
421.8772, 90.15580
422.3593, 90.76760
422.8414, 91.03361
423.3235, 90.28215
423.8057, 89.20662
424.2878, 88.36929
424.7699, 88.13729
425.2520, 87.81420
425.7341, 87.14436
426.2162, 86.29432
426.6984, 85.86321
427.1805, 86.28158
427.6626, 86.62546
428.1447, 86.45406
428.6268, 85.47907
429.1089, 85.09241
429.5911, 85.56384
430.0732, 86.33602
430.5553, 86.67236
431.0374, 86.42525
431.5195, 86.31115
432.0016, 86.45329
432.4838, 86.86093
432.9659, 87.76466
433.4480, 89.28740
433.9301, 90.53349
434.4122, 90.57683
434.8943, 89.62704
435.3765, 89.24516
435.8586, 89.66915
436.3407, 90.42574
436.8228, 90.83481
437.3049, 90.99362
437.7870, 91.30522
438.2692, 92.12107
438.7513, 93.12333
439.2334, 93.86216
439.7155, 94.34724
440.1976, 94.74322
440.6797, 95.00690
441.1619, 95.31171
441.6440, 95.89352
442.1261, 96.92044
442.6082, 98.01487
443.0903, 98.94329
443.5724, 99.77740
444.0546, 100.6719
444.5367, 101.4284
445.0188, 102.4729
445.5009, 104.1720
445.9830, 106.6436
446.4651, 108.8558
446.9473, 110.2682
447.4294, 111.5277
447.9115, 113.1590
448.3936, 115.5252
448.8757, 117.8783
449.3578, 120.3086
449.8400, 122.6795
450.3221, 124.8003
450.8042, 127.3338
451.2863, 128.5571
451.7684, 127.6653
452.2505, 124.4218
452.7327, 120.4112
453.2148, 115.3616
453.6969, 110.0882
454.1790, 105.6178
454.6611, 101.9111
455.1432, 98.86194
455.6254, 96.51624
456.1075, 94.78220
456.5896, 93.60769
457.0717, 92.97335
457.5538, 92.50740
458.0359, 91.84010
458.5181, 91.17014
459.0002, 90.94837
459.4823, 91.22176
459.9644, 91.89336
460.4465, 93.30868
460.9286, 95.01685
461.4108, 96.12287
461.8929, 95.70378
462.3750, 95.05892
462.8571, 95.17314
463.3392, 95.92216
463.8214, 96.72025
464.3035, 97.33945
464.7856, 97.88887
465.2677, 98.44192
465.7498, 99.01484
466.2319, 99.57985
466.7141, 100.0775
467.1962, 100.5781
467.6783, 101.1786
468.1604, 102.1289
468.6425, 102.9056
469.1246, 103.3343
469.6068, 103.4532
470.0889, 103.7334
470.5710, 104.2489
471.0531, 104.8228
471.5352, 105.3730
472.0173, 105.9212
472.4995, 106.3987
472.9816, 106.8391
473.4637, 107.1607
473.9458, 107.1596
474.4279, 106.8109
474.9100, 106.5558
475.3922, 106.5738
475.8743, 106.7700
476.3564, 106.8683
476.8385, 106.8697
477.3206, 106.8164
477.8027, 106.8106
478.2849, 106.7639
478.7670, 106.4027
479.2491, 105.6024
479.7312, 104.8750
480.2133, 104.8384
480.6954, 105.2099
481.1776, 105.4643
481.6597, 105.6234
482.1418, 105.3849
482.6239, 104.3530
483.1060, 102.6337
483.5881, 101.0110
484.0703, 99.81600
484.5524, 98.78359
485.0345, 97.74828
485.5166, 96.66781
485.9987, 95.65156
486.4808, 94.87759
486.9630, 94.13208
487.4451, 93.11849
487.9272, 91.53934
488.4093, 90.11695
488.8914, 89.01367
489.3735, 88.18371
489.8557, 87.28432
490.3378, 86.24406
490.8199, 85.26844
491.3020, 84.48457
491.7841, 83.89366
492.2662, 83.45477
492.7484, 83.21148
493.2305, 83.00841
493.7126, 82.58411
494.1947, 81.97559
494.6768, 81.51446
495.1589, 81.41244
495.6411, 81.42505
496.1232, 80.99879
496.6053, 80.21357
497.0874, 79.64009
497.5695, 79.81848
498.0516, 80.31184
498.5338, 80.61732
499.0159, 80.65047
499.4980, 80.63613
499.9801, 80.65516
500.4622, 80.72393
500.9443, 80.86330
501.4265, 80.92944
501.9086, 81.22338
502.3907, 82.05428
502.8728, 83.24849
503.3549, 84.09681
503.8370, 84.21940
504.3192, 84.25240
504.8013, 84.41159
505.2834, 84.71214
505.7655, 85.11506
506.2476, 85.84103
506.7297, 86.42158
507.2119, 86.22128
507.6940, 84.88551
508.1761, 84.31339
508.6582, 85.03096
509.1403, 86.41855
509.6224, 86.93037
510.1046, 86.54548
510.5867, 86.09035
511.0688, 85.96059
511.5509, 86.08176
512.0330, 86.26405
512.5151, 86.50925
512.9973, 86.74931
513.4794, 87.05016
513.9615, 87.27858
514.4436, 87.19975
514.9257, 86.68871
515.4078, 86.03294
515.8900, 85.31746
516.3721, 84.62116
516.8542, 84.09035
517.3363, 83.93591
517.8184, 83.80710
518.3005, 83.50806
518.7827, 83.04051
519.2648, 82.71573
519.7469, 82.85078
520.2290, 82.94033
520.7111, 82.68023
521.1932, 81.78040
521.6754, 81.14144
522.1575, 80.84344
522.6396, 80.73352
523.1217, 80.58627
523.6038, 80.36502
524.0859, 80.24141
524.5681, 80.26771
525.0502, 80.41645
525.5323, 80.63042
526.0144, 80.91658
526.4965, 81.14966
526.9786, 81.19625
527.4608, 81.13015
527.9429, 81.15186
528.4250, 81.27123
528.9071, 81.50507
529.3892, 81.97547
529.8713, 82.55003
530.3535, 82.98583
530.8356, 83.08067
531.3177, 83.21965
531.7998, 83.72601
532.2819, 84.47442
532.7640, 85.14022
533.2462, 85.60214
533.7283, 85.97859
534.2104, 86.29630
534.6925, 86.54579
535.1746, 86.83806
535.6567, 86.98972
536.1389, 87.34077
536.6210, 88.11153
537.1031, 89.53813
537.5852, 90.85213
538.0673, 91.93766
538.5494, 93.01678
539.0316, 94.56359
539.5137, 96.69853
539.9958, 98.52703
540.4779, 99.56207
540.9600, 100.2284
541.4421, 101.9821
541.9243, 104.7695
542.4064, 107.5704
542.8885, 109.6326
543.3706, 111.2252
543.8527, 112.6662
544.3348, 113.9354
544.8170, 115.6490
545.2991, 118.9501
545.7812, 122.7355
546.2633, 125.6459
546.7454, 126.7093
547.2275, 127.5430
547.7097, 129.0894
548.1918, 130.9003
548.6739, 131.9101
549.1560, 131.5139
549.6381, 130.6884
550.1202, 129.7533
550.6024, 128.7304
551.0845, 127.2033
551.5666, 125.0760
552.0487, 122.5634
552.5308, 119.7778
553.0129, 116.6561
553.4951, 113.4726
553.9772, 110.1396
554.4593, 106.9582
554.9414, 104.4232
555.4235, 102.4918
555.9056, 100.6356
556.3878, 98.62733
556.8699, 96.71803
557.3520, 95.48009
557.8341, 94.78698
558.3162, 94.11723
558.7983, 93.02170
559.2805, 91.89510
559.7626, 91.09339
560.2447, 90.64951
560.7268, 90.44213
561.2089, 90.60627
561.6910, 90.86674
562.1732, 90.98806
562.6553, 90.65807
563.1374, 90.60928
563.6195, 91.19138
564.1016, 92.02687
564.5837, 92.54903
565.0659, 92.58279
565.5480, 92.63451
566.0301, 92.81930
566.5122, 93.10551
566.9943, 93.29416
567.4764, 93.33941
567.9586, 93.50008
568.4407, 94.02560
568.9228, 94.82674
569.4049, 95.37455
569.8870, 95.63505
570.3691, 95.86472
570.8513, 96.40280
571.3334, 97.07344
571.8155, 97.48078
572.2976, 97.43833
572.7797, 97.36767
573.2618, 97.71976
573.7440, 98.24722
574.2261, 98.51261
574.7082, 97.86954
575.1903, 97.40604
575.6724, 97.64207
576.1545, 98.50728
576.6367, 99.32939
577.1188, 100.2243
577.6009, 100.8765
578.0830, 101.0867
578.5651, 100.7140
579.0472, 100.6266
579.5294, 100.8393
580.0115, 101.3146
580.4936, 102.1447
580.9757, 103.3497
581.4578, 104.2294
581.9399, 104.6092
582.4221, 104.8035
582.9042, 105.2484
583.3863, 105.9216
583.8684, 106.7519
584.3505, 107.7289
584.8326, 108.8309
585.3148, 110.1712
585.7969, 111.6734
586.2790, 112.9332
586.7611, 113.4367
587.2432, 113.8580
587.7253, 114.6968
588.2075, 116.0997
588.6896, 117.3038
589.1717, 117.8863
589.6538, 118.3926
590.1359, 119.2758
590.6180, 121.0739
591.1002, 122.1450
591.5823, 122.0424
592.0644, 121.5325
592.5465, 122.0178
593.0286, 123.6578
593.5107, 125.0851
593.9929, 125.8652
594.4750, 126.2207
594.9571, 126.7470
595.4392, 127.4148
595.9213, 127.9316
596.4034, 127.9768
596.8856, 127.8424
597.3677, 127.9524
597.8498, 128.3234
598.3319, 128.6804
598.8140, 128.7001
599.2961, 128.7115
599.7783, 129.0331
600.2604, 129.9183
600.7425, 130.6758
601.2246, 130.9746
601.7067, 131.1336
602.1888, 131.5890
602.6710, 132.7370
603.1531, 133.5153
603.6352, 133.6977
604.1173, 133.4497
604.5994, 133.2771
605.0815, 133.2262
605.5637, 132.9861
606.0458, 132.2400
606.5279, 131.2156
607.0100, 130.9240
607.4921, 131.3543
607.9742, 131.7508
608.4564, 131.5429
608.9385, 130.9411
609.4206, 130.2109
609.9027, 129.3629
610.3848, 128.5291
610.8669, 127.7401
611.3491, 127.0356
611.8312, 126.4529
612.3133, 126.1522
612.7954, 125.7793
613.2775, 125.2908
613.7596, 124.6819
614.2418, 123.9211
614.7239, 122.8154
615.2060, 121.9012
615.6881, 121.3416
616.1702, 121.0504
616.6523, 120.5841
617.1345, 119.9104
617.6166, 119.2356
618.0987, 118.8190
618.5808, 118.5098
619.0629, 117.5411
619.5450, 115.9038
620.0272, 114.4355
620.5093, 114.0207
620.9914, 114.1187
621.4735, 114.0196
621.9556, 113.5728
622.4377, 113.0030
622.9199, 112.3324
623.4020, 111.6400
623.8841, 111.0195
624.3662, 110.6314
624.8483, 110.1356
625.3304, 109.4763
625.8126, 108.6780
626.2947, 107.7521
626.7768, 106.5854
627.2589, 105.5773
627.7410, 104.8760
628.2231, 104.4266
628.7053, 104.0274
629.1874, 103.6989
629.6695, 103.1360
630.1516, 101.8670
630.6337, 100.2709
631.1158, 99.33803
631.5980, 99.11327
632.0801, 98.85495
632.5622, 97.72635
633.0443, 96.39856
633.5264, 95.67547
634.0085, 95.98301
634.4907, 96.15176
634.9728, 95.62949
635.4549, 94.78745
635.9370, 94.06033
636.4191, 93.52819
636.9012, 93.05360
637.3834, 92.60806
637.8655, 92.22157
638.3476, 91.98537
638.8297, 91.91795
639.3118, 91.92032
639.7939, 91.99526
640.2761, 92.10099
640.7582, 92.12475
641.2403, 92.06345
641.7224, 91.87492
642.2045, 91.38634
642.6866, 90.82155
643.1688, 90.52330
643.6509, 90.50236
644.1330, 90.50637
644.6151, 90.47401
645.0972, 90.35180
645.5793, 90.08467
646.0615, 89.61199
646.5436, 89.13117
647.0257, 88.58952
647.5078, 88.09653
647.9899, 87.78609
648.4720, 87.80803
648.9542, 87.59758
649.4363, 86.99314
649.9184, 86.25454
650.4005, 85.90711
650.8826, 85.94319
651.3647, 85.85000
651.8469, 85.34888
652.3290, 84.72822
652.8111, 84.40295
653.2932, 84.36986
653.7753, 84.63054
654.2574, 85.45473
654.7396, 86.36028
655.2217, 86.99089
655.7038, 87.33910
656.1859, 87.59074
656.6680, 87.75010
657.1501, 87.87376
657.6323, 87.98847
658.1144, 88.09475
658.5965, 88.17275
659.0786, 88.09987
659.5607, 88.18398
660.0428, 88.81455
660.5250, 90.04013
661.0071, 90.89626
661.4892, 91.23376
661.9713, 91.38126
662.4534, 91.85112
662.9355, 92.47647
663.4177, 92.76279
663.8998, 92.44506
664.3819, 91.95538
664.8640, 91.57433
665.3461, 91.29567
665.8282, 91.09954
666.3104, 90.98879
666.7925, 90.94881
667.2746, 90.95632
667.7567, 91.02690
668.2388, 91.22763
668.7209, 91.59219
669.2031, 92.02973
669.6852, 92.47417
670.1673, 92.94629
670.6494, 93.77812
671.1315, 95.02596
671.6136, 96.23371
672.0958, 97.10526
672.5779, 97.68308
673.0600, 97.94474
673.5421, 97.87488
674.0242, 97.98817
674.5063, 98.92341
674.9885, 100.1484
675.4706, 101.0661
675.9527, 101.4961
676.4348, 101.8161
676.9169, 102.0567
677.3990, 102.2852
677.8812, 102.5779
678.3633, 102.9694
678.8454, 103.3568
679.3275, 103.7027
679.8096, 104.0655
680.2917, 104.5527
680.7739, 105.1599
681.2560, 105.8752
681.7381, 106.7524
682.2202, 107.6563
682.7023, 108.3358
683.1844, 108.8094
683.6666, 109.1223
684.1487, 109.0667
684.6308, 109.0480
685.1129, 109.5554
685.5950, 110.4646
686.0771, 111.0643
686.5593, 110.4781
687.0414, 110.0812
687.5235, 110.6714
688.0056, 112.3339
688.4877, 113.6724
688.9698, 114.7131
689.4520, 115.3792
689.9341, 115.4177
690.4162, 114.8147
690.8983, 114.8924
691.3804, 115.7429
691.8625, 116.8363
692.3447, 117.6549
692.8268, 118.3191
693.3089, 119.1524
693.7910, 120.3122
694.2731, 121.1859
694.7552, 120.9464
695.2374, 120.3456
695.7195, 120.2548
696.2016, 121.0809
696.6837, 122.1937
697.1658, 123.8221
697.6479, 125.5618
698.1301, 126.7652
698.6122, 127.2080
699.0943, 127.7537
699.5764, 128.5883
700.0585, 129.6039
700.5406, 130.4922
701.0228, 131.2877
701.5049, 132.3747
701.9870, 134.1296
702.4691, 136.1028
702.9512, 137.7122
703.4333, 139.0256
703.9155, 140.2670
704.3976, 141.6099
704.8797, 142.8750
705.3618, 144.0166
705.8439, 145.0291
706.3260, 145.7581
706.8082, 146.3338
707.2903, 146.4726
707.7724, 145.9853
708.2545, 144.8444
708.7366, 143.6133
709.2188, 142.2582
709.7009, 140.9518
710.1830, 140.0468
710.6651, 139.3141
711.1472, 137.9535
711.6293, 135.8709
712.1115, 133.6556
712.5936, 131.6382
713.0757, 129.7919
713.5578, 128.1557
714.0399, 126.8584
714.5220, 125.4068
715.0042, 123.6497
715.4863, 121.6889
715.9684, 119.5890
716.4505, 117.1919
716.9326, 115.0955
717.4147, 113.5221
717.8969, 112.0470
718.3790, 109.9452
718.8611, 107.2321
719.3432, 104.6253
719.8253, 102.2704
720.3074, 100.1642
720.7896, 98.38549
721.2717, 96.83801
721.7538, 95.25401
722.2359, 93.29695
722.7180, 91.50487
723.2001, 90.38320
723.6823, 89.67542
724.1644, 88.66009
724.6465, 86.81835
725.1286, 85.19555
725.6107, 84.12059
726.0928, 83.46913
726.5750, 82.54008
727.0571, 81.27026
727.5392, 80.21523
728.0213, 79.68179
728.5034, 79.53809
728.9855, 79.53436
729.4677, 79.63602
729.9498, 79.57938
730.4319, 78.86816
730.9140, 78.15398
731.3961, 78.07471
731.8782, 78.66242
732.3604, 79.15931
732.8425, 79.33511
733.3246, 79.36148
733.8067, 79.24817
734.2888, 78.90173
734.7709, 79.08672
735.2531, 79.97327
735.7352, 80.95220
736.2173, 81.52608
736.6994, 81.75637
737.1815, 82.04129
737.6636, 82.41074
738.1458, 82.77097
738.6279, 82.99168
739.1100, 83.16730
739.5921, 83.42702
740.0742, 83.82052
740.5563, 84.20134
741.0385, 84.49393
741.5206, 84.75635
742.0027, 85.04346
742.4848, 85.32240
742.9669, 85.71657
743.4490, 86.36257
743.9312, 86.94730
744.4133, 86.90504
744.8954, 86.26206
745.3775, 86.11780
745.8596, 86.79520
746.3417, 87.66777
746.8239, 87.91769
747.3060, 87.77798
747.7881, 87.69189
748.2702, 87.80776
748.7523, 88.01297
749.2344, 88.40031
749.7166, 88.81653
750.1987, 88.96281
750.6808, 88.51708
751.1629, 88.25118
751.6450, 88.33292
752.1271, 88.61703
752.6093, 88.73403
753.0914, 88.66921
753.5735, 88.69944
754.0556, 88.98685
754.5377, 89.32325
755.0198, 89.30015
755.5020, 89.00893
755.9841, 88.73977
756.4662, 88.69801
756.9483, 88.65398
757.4304, 88.44202
757.9125, 88.10771
758.3947, 87.82444
758.8768, 87.66422
759.3589, 87.50577
759.8410, 87.29664
760.3231, 87.06569
760.8052, 86.95475
761.2874, 86.96620
761.7695, 87.10720
762.2516, 87.51614
762.7337, 88.00098
763.2158, 88.07722
763.6979, 87.80239
764.1801, 87.49280
764.6622, 87.22944
765.1443, 87.08578
765.6264, 87.16072
766.1085, 87.44431
766.5906, 87.69587
767.0728, 87.92947
767.5549, 88.05888
768.0370, 88.03396
768.5191, 87.85678
769.0012, 87.58540
769.4833, 87.16915
769.9655, 86.97824
770.4476, 87.42148
770.9297, 88.24759
771.4118, 88.80901
771.8939, 89.10374
772.3760, 89.36342
772.8582, 89.62309
773.3403, 89.99519
773.8224, 90.64957
774.3045, 91.65307
774.7866, 92.41782
775.2687, 92.54835
775.7509, 92.74632
776.2330, 93.40755
776.7151, 94.59324
777.1972, 95.61782
777.6793, 96.44773
778.1614, 97.32181
778.6436, 98.53917
779.1257, 99.92309
779.6078, 100.9806
780.0899, 101.6687
780.5720, 102.4436
781.0541, 103.6915
781.5363, 105.1231
782.0184, 106.4714
782.5005, 107.6514
782.9826, 108.9755
783.4647, 110.4315
783.9468, 112.0814
784.4290, 114.0653
784.9111, 116.4788
785.3932, 118.4315
785.8753, 119.8294
786.3574, 121.1008
786.8395, 122.7121
787.3217, 124.4800
787.8038, 126.1287
788.2859, 127.6101
788.7680, 128.7649
789.2501, 129.3829
789.7322, 129.6862
790.2144, 129.8835
790.6965, 130.0784
791.1786, 129.9544
791.6607, 129.4418
792.1428, 128.6958
792.6249, 127.9388
793.1071, 127.1849
793.5892, 125.7181
794.0713, 123.3988
794.5534, 120.8856
795.0355, 118.6714
795.5176, 116.7566
795.9998, 115.2312
796.4819, 114.2291
796.9640, 113.0234
797.4461, 111.1095
797.9282, 108.8985
798.4103, 106.7464
798.8925, 104.5604
799.3746, 102.6520
799.8567, 101.1044
800.3388, 99.73302
800.8209, 98.38985
801.3030, 97.07934
801.7852, 95.84984
802.2673, 94.69249
802.7494, 93.63743
803.2315, 92.68468
803.7136, 91.87207
804.1957, 91.35802
804.6779, 91.37842
805.1600, 90.97855
805.6421, 89.19408
806.1242, 87.25497
806.6063, 86.27102
807.0884, 86.71924
807.5706, 86.82456
808.0527, 86.49905
808.5348, 86.00925
809.0169, 85.66737
809.4990, 85.41059
809.9811, 84.88074
810.4633, 83.97546
810.9454, 83.20446
811.4275, 83.07476
811.9096, 83.25821
812.3917, 83.44107
812.8738, 83.65894
813.3560, 83.61886
813.8381, 83.15633
814.3202, 82.52570
814.8023, 81.86434
815.2844, 81.13213
815.7665, 80.69508
816.2487, 80.62199
816.7308, 80.59748
817.2129, 80.27298
817.6950, 79.75558
818.1771, 79.25276
818.6592, 78.79063
819.1414, 78.40677
819.6235, 78.22434
820.1056, 78.06306
820.5877, 77.73079
821.0698, 76.99207
821.5519, 76.66087
822.0341, 76.90833
822.5162, 77.31763
822.9983, 77.57882
823.4804, 77.69660
823.9625, 77.78761
824.4446, 77.86288
824.9268, 77.85060
825.4089, 77.48014
825.8910, 77.07740
826.3731, 77.20216
826.8552, 78.02897
827.3373, 78.52421
827.8195, 77.78826
828.3016, 77.03125
828.7837, 77.11179
829.2658, 78.26260
829.7479, 78.96861
830.2300, 79.15218
830.7122, 79.11559
831.1943, 79.03764
831.6764, 78.93533
832.1585, 78.86115
832.6406, 78.81916
833.1227, 78.80083
833.6049, 78.87318
834.0870, 78.91562
834.5691, 78.84617
835.0512, 78.65711
835.5333, 78.32979
836.0154, 77.79456
836.4976, 77.21687
836.9797, 76.65012
837.4618, 76.09018
837.9439, 75.70193
838.4260, 75.48879
838.9081, 75.28183
839.3903, 74.91921
839.8724, 74.51125
840.3545, 74.22684
840.8366, 74.06246
841.3187, 73.90295
841.8008, 73.83920
842.2830, 73.63632
842.7651, 73.08138
843.2472, 72.21159
843.7293, 71.60224
844.2114, 71.25496
844.6935, 71.17979
845.1757, 71.55108
845.6578, 72.13457
846.1399, 72.16500
846.6220, 71.72861
847.1041, 71.32301
847.5862, 71.24763
848.0684, 71.29299
848.5505, 71.36166
849.0326, 71.43570
849.5147, 71.44656
849.9968, 71.24452
850.4789, 71.20286
850.9611, 71.48852
851.4432, 71.97408
851.9253, 72.21449
852.4074, 72.21549
852.8895, 72.15279
853.3716, 72.01431
853.8538, 71.95252
854.3359, 72.25267
854.8180, 72.77377
855.3001, 73.17648
855.7822, 73.11015
856.2643, 73.18183
856.7465, 73.78231
857.2286, 74.55167
857.7107, 74.71532
858.1928, 74.06441
858.6749, 73.85426
859.1570, 74.42965
859.6392, 75.38219
860.1213, 76.25877
860.6034, 76.96288
861.0855, 77.19243
861.5676, 76.51623
862.0497, 75.98843
862.5319, 76.33658
863.0140, 77.11314
863.4961, 77.69368
863.9782, 77.93366
864.4603, 78.22664
864.9424, 78.66348
865.4246, 79.04152
865.9067, 78.97557
866.3888, 78.58401
866.8709, 78.53348
867.3530, 78.96059
867.8351, 79.53194
868.3173, 80.12803
868.7994, 80.63929
869.2815, 80.93771
869.7636, 80.94328
870.2457, 80.91367
870.7278, 80.94054
871.2100, 80.87031
871.6921, 80.50567
872.1742, 79.83231
872.6563, 79.46420
873.1384, 79.41412
873.6205, 79.65675
874.1027, 80.52486
874.5848, 81.48560
875.0669, 81.77631
875.5490, 81.34037
876.0311, 80.81158
876.5132, 80.36915
876.9954, 79.93086
877.4775, 79.34554
877.9596, 78.63805
878.4417, 78.66621
878.9238, 79.59840
879.4059, 80.26740
879.8881, 79.74764
880.3702, 78.65919
880.8523, 78.24837
881.3344, 78.39320
881.8165, 78.57326
882.2986, 78.41879
882.7808, 78.34586
883.2629, 78.62557
883.7450, 79.16084
884.2271, 79.58455
884.7092, 79.91240
885.1913, 80.05729
885.6735, 79.91615
886.1556, 79.68368
886.6377, 79.79810
887.1198, 80.18567
887.6019, 80.59055
888.0840, 80.88960
888.5662, 81.22656
889.0483, 81.81161
889.5304, 82.46029
890.0125, 82.86645
890.4946, 82.92171
890.9767, 82.84303
891.4589, 82.48557
891.9410, 82.24678
892.4231, 82.78714
892.9052, 83.96874
893.3873, 84.88897
893.8694, 85.37392
894.3516, 85.87788
894.8337, 86.75211
895.3158, 87.86401
895.7979, 89.16357
896.2800, 90.82108
896.7621, 91.95137
897.2443, 92.02329
897.7264, 92.21147
898.2085, 93.39455
898.6906, 95.52945
899.1727, 97.32826
899.6548, 98.77291
900.1370, 100.4917
900.6191, 102.9268
901.1012, 105.8783
901.5833, 109.3348
902.0654, 113.1779
902.5475, 116.7588
903.0297, 118.9849
903.5118, 121.9478
903.9939, 126.3159
904.4760, 131.8802
904.9581, 137.9879
905.4402, 144.6473
905.9224, 151.2675
906.4045, 157.6138
906.8866, 163.9703
907.3687, 170.5918
907.8508, 177.5573
908.3329, 184.9035
908.8151, 192.2892
909.2972, 200.5327
909.7793, 209.7165
910.2614, 219.8598
910.7435, 230.9744
911.2256, 243.0388
911.7078, 256.4136
912.1899, 271.3868
912.6720, 287.3709
913.1541, 303.6493
913.6362, 320.3524
914.1183, 337.8149
914.6005, 356.5667
915.0826, 374.3909
915.5647, 391.0593
916.0468, 406.0968
916.5289, 419.6190
917.0110, 432.0658
917.4932, 439.9918
917.9753, 443.5318
918.4574, 441.8929
918.9395, 433.3517
919.4216, 419.7855
919.9037, 403.2749
920.3859, 384.0805
920.8680, 364.0244
921.3501, 342.2223
921.8322, 321.2295
922.3143, 301.7104
922.7964, 283.8633
923.2786, 267.8848
923.7607, 253.7731
924.2428, 241.5687
924.7249, 231.6742
925.2070, 223.3424
925.6891, 215.8506
926.1713, 209.0949
926.6534, 202.9197
927.1355, 197.7665
927.6176, 192.5722
928.0997, 186.8345
928.5818, 180.9422
929.0640, 175.3235
929.5461, 169.9289
930.0282, 164.9703
930.5103, 160.5655
930.9924, 156.3566
931.4745, 151.8280
931.9567, 147.3466
932.4388, 143.4829
932.9209, 140.4062
933.4030, 137.5795
933.8851, 134.7650
934.3672, 132.2238
934.8494, 130.1728
935.3315, 128.6118
935.8136, 126.9983
936.2957, 125.3111
936.7778, 123.7649
937.2599, 122.3721
937.7421, 121.2550
938.2242, 120.5828
938.7063, 120.3387
939.1884, 120.4361
939.6705, 121.2359
940.1526, 121.9073
940.6348, 122.1129
941.1169, 122.0607
941.5990, 122.0688
942.0811, 122.0826
942.5632, 122.9163
943.0453, 124.9950
943.5275, 127.3125
944.0096, 128.5300
944.4917, 129.1967
944.9738, 130.2402
945.4559, 132.1311
945.9380, 133.8156
946.4202, 134.9501
946.9023, 135.8802
947.3844, 136.9323
947.8665, 138.1756
948.3486, 138.5610
948.8307, 138.0301
949.3129, 137.3914
949.7950, 137.7028
950.2771, 137.9946
950.7592, 137.0606
951.2413, 134.9365
951.7234, 132.4730
952.2056, 129.6307
952.6877, 126.8109
953.1698, 124.1490
953.6519, 121.3649
954.1340, 118.8789
954.6161, 116.0249
955.0983, 113.3278
955.5804, 110.8460
956.0625, 108.6624
956.5446, 107.1743
957.0267, 105.9495
957.5089, 104.3270
957.9910, 101.5075
958.4731, 99.25173
958.9552, 97.73174
959.4373, 96.61545
959.9194, 95.57238
960.4016, 94.61537
960.8837, 93.92718
961.3658, 93.52953
961.8479, 93.10694
962.3300, 92.29673
962.8121, 91.45240
963.2943, 90.89153
963.7764, 90.63811
964.2585, 90.37659
964.7406, 90.05815
965.2227, 89.81868
965.7048, 89.78680
966.1870, 89.81298
966.6691, 89.36380
967.1512, 88.56365
967.6333, 87.94677
968.1154, 87.78780
968.5975, 87.79805
969.0797, 88.00488
969.5618, 88.19996
970.0439, 88.03658
970.5260, 87.31514
971.0081, 86.80526
971.4902, 86.62040
971.9724, 86.45307
972.4545, 85.87720
972.9366, 85.07993
973.4187, 84.56008
973.9008, 84.36631
974.3829, 84.12126
974.8651, 83.57768
975.3472, 82.98286
975.8293, 82.49941
976.3114, 82.10772
976.7935, 81.50093
977.2756, 80.63909
977.7578, 79.89099
978.2399, 79.47969
978.7220, 79.19544
979.2041, 78.68632
979.6862, 78.06491
980.1683, 77.57559
980.6505, 77.45647
981.1326, 77.26754
981.6147, 76.85964
982.0968, 76.40768
982.5789, 76.14195
983.0610, 76.06292
983.5432, 75.83439
984.0253, 75.41251
984.5074, 74.97623
984.9895, 74.62254
985.4716, 74.36869
985.9537, 74.26919
986.4359, 74.33198
986.9180, 74.34617
987.4001, 74.30566
987.8822, 74.18237
988.3643, 73.92640
988.8464, 73.60704
989.3286, 73.48786
989.8107, 73.52339
990.2928, 73.47358
990.7749, 73.08951
991.2570, 72.81127
991.7391, 73.19200
992.2213, 73.74268
992.7034, 73.72601
993.1855, 72.91593
993.6676, 72.00761
994.1497, 70.88210
994.6318, 70.10954
995.1140, 70.58861
995.5961, 71.75124
996.0782, 72.42800
996.5603, 72.54417
997.0424, 72.58631
997.5245, 72.79251
998.0067, 72.96381
998.4888, 72.92773
998.9709, 72.78000
999.4530, 73.03004
999.9351, 73.70583
1000.417, 74.25460
1000.899, 74.42262
1001.381, 74.52290
1001.864, 74.91319
1002.346, 75.50556
1002.828, 76.16296
1003.310, 76.92140
1003.792, 77.60801
1004.274, 78.17969
1004.756, 78.73355
1005.238, 79.28499
1005.721, 79.86835
1006.203, 80.83867
1006.685, 82.17649
1007.167, 83.62926
1007.649, 85.07730
1008.131, 86.51539
1008.613, 87.92908
1009.095, 89.30894
1009.577, 90.61330
1010.060, 91.67616
1010.542, 93.19846
1011.024, 95.47305
1011.506, 98.00248
1011.988, 99.98624
1012.470, 101.6250
1012.952, 103.2809
1013.434, 105.0173
1013.917, 106.8575
1014.399, 109.0023
1014.881, 111.0400
1015.363, 112.7009
1015.845, 113.9782
1016.327, 115.0845
1016.809, 116.0161
1017.291, 116.7807
1017.773, 117.5760
1018.256, 118.0512
1018.738, 117.7521
1019.220, 116.8559
1019.702, 115.8821
1020.184, 114.9633
1020.666, 113.8860
1021.148, 112.6007
1021.630, 111.1785
1022.112, 109.6316
1022.595, 108.0440
1023.077, 106.8425
1023.559, 106.1451
1024.041, 105.1685
1024.523, 103.2345
1025.005, 101.0071
1025.487, 98.90662
1025.969, 96.93075
1026.452, 95.14549
1026.934, 93.53423
1027.416, 92.28308
1027.898, 91.68639
1028.380, 91.22083
1028.862, 89.99334
1029.344, 88.38457
1029.826, 87.10024
1030.308, 86.63351
1030.791, 86.11732
1031.273, 85.49049
1031.755, 84.78620
1032.237, 84.00172
1032.719, 83.15105
1033.201, 82.39529
1033.683, 81.73353
1034.165, 81.12357
1034.647, 80.48184
1035.130, 79.94185
1035.612, 79.59349
1036.094, 79.43492
1036.576, 79.43095
1037.058, 79.64922
1037.540, 79.73399
1038.022, 79.61414
1038.504, 79.28580
1038.987, 78.41786
1039.469, 77.44692
1039.951, 77.17829
1040.433, 78.04057
1040.915, 78.70936
1041.397, 78.74424
1041.879, 78.68913
1042.361, 78.83391
1042.844, 79.15197
1043.326, 79.51089
1043.808, 79.89034
1044.290, 80.10709
1044.772, 79.83698
1045.254, 79.61218
1045.736, 79.71345
1046.218, 80.11947
1046.700, 80.80607
1047.183, 81.93252
1047.665, 82.70045
1048.147, 82.92970
1048.629, 83.20730
1049.111, 84.46157
1049.593, 86.03468
1050.075, 86.76420
1050.557, 86.58069
1051.040, 86.54515
1051.522, 87.05934
1052.004, 87.69759
1052.486, 88.24644
1052.968, 88.88956
1053.450, 90.21896
1053.932, 92.15743
1054.414, 94.27812
1054.896, 96.53350
1055.379, 98.72831
1055.861, 100.5924
1056.343, 102.4449
1056.825, 104.6465
1057.307, 107.2749
1057.789, 109.8441
1058.271, 112.3936
1058.753, 114.6660
1059.235, 116.5432
1059.718, 117.9841
1060.200, 118.8944
1060.682, 119.3047
1061.164, 119.3029
1061.646, 119.0273
1062.128, 118.1108
1062.610, 116.4262
1063.092, 114.2520
1063.574, 111.8330
1064.057, 109.2046
1064.539, 106.4903
1065.021, 103.6924
1065.503, 100.9415
1065.985, 97.89537
1066.467, 95.28951
1066.949, 93.84832
1067.431, 93.23377
1067.914, 91.95299
1068.396, 89.91222
1068.878, 88.17707
1069.360, 87.03226
1069.842, 86.32818
1070.324, 86.29051
1070.806, 86.38623
1071.288, 85.83434
1071.771, 84.08330
1072.253, 83.02721
1072.735, 83.02849
1073.217, 83.07097
1073.699, 82.40173
1074.181, 81.36543
1074.663, 81.17100
1075.145, 81.52537
1075.627, 81.40237
1076.110, 79.59313
1076.592, 78.16624
1077.074, 78.04660
1077.556, 78.40273
1078.038, 78.32616
1078.520, 77.82160
1079.002, 77.32650
1079.484, 76.87016
1079.967, 76.56976
1080.449, 76.77427
1080.931, 76.95759
1081.413, 76.63252
1081.895, 75.86589
1082.377, 75.26308
1082.859, 74.79739
1083.341, 74.65089
1083.823, 74.94737
1084.306, 75.36148
1084.788, 75.40627
1085.270, 75.28113
1085.752, 75.28115
1086.234, 75.46963
1086.716, 75.74969
1087.198, 76.33914
1087.680, 76.61693
1088.162, 76.07858
1088.645, 75.12596
1089.127, 75.23229
1089.609, 76.14178
1090.091, 76.85055
1090.573, 76.88203
1091.055, 76.74309
1091.537, 76.49784
1092.019, 76.29891
1092.501, 76.31158
1092.984, 76.55584
1093.466, 76.74936
1093.948, 76.88817
1094.430, 77.10329
1094.912, 77.58724
1095.394, 78.10180
1095.876, 78.44733
1096.358, 78.65635
1096.841, 78.80814
1097.323, 78.76846
1097.805, 79.16734
1098.287, 80.19273
1098.769, 81.26453
1099.251, 81.61242
1099.733, 81.60957
1100.215, 81.75052
1100.698, 82.09235
1101.180, 82.77175
1101.662, 84.22470
1102.144, 85.41198
1102.626, 85.96624
1103.108, 86.17138
1103.590, 86.64211
1104.072, 87.31993
1104.554, 88.02419
1105.037, 88.70399
1105.519, 89.39603
1106.001, 90.34639
1106.483, 91.08545
1106.965, 91.30989
1107.447, 91.04289
1107.929, 90.49204
1108.411, 89.68064
1108.894, 88.90918
1109.376, 88.47212
1109.858, 87.95101
1110.340, 86.85107
1110.822, 85.56119
1111.304, 84.66763
1111.786, 84.46436
1112.268, 83.62183
1112.750, 82.04136
1113.233, 80.38316
1113.715, 78.95877
1114.197, 77.87919
1114.679, 77.47917
1115.161, 77.53925
1115.643, 77.23296
1116.125, 76.10281
1116.607, 75.20739
1117.089, 74.73496
1117.572, 74.40316
1118.054, 73.80553
1118.536, 73.09746
1119.018, 72.64366
1119.500, 72.47163
1119.982, 72.26945
1120.464, 71.76461
1120.946, 71.41735
1121.428, 71.45872
1121.911, 71.66751
1122.393, 71.50585
1122.875, 71.03632
1123.357, 70.50507
1123.839, 69.93562
1124.321, 69.47567
1124.803, 69.17381
1125.285, 69.06192
1125.768, 69.19932
1126.250, 69.54606
1126.732, 69.71539
1127.214, 69.71218
1127.696, 69.66206
1128.178, 69.66497
1128.660, 69.55440
1129.142, 68.93651
1129.625, 68.26501
1130.107, 68.18364
1130.589, 68.91135
1131.071, 69.19592
1131.553, 68.98562
1132.035, 68.75474
1132.517, 68.98399
1132.999, 69.23451
1133.481, 68.71123
1133.964, 67.83774
1134.446, 67.63451
1134.928, 68.86125
1135.410, 69.53189
1135.892, 69.45103
1136.374, 69.10737
1136.856, 68.87285
1137.338, 68.76057
1137.821, 68.92944
1138.303, 69.30000
1138.785, 69.39536
1139.267, 68.82224
1139.749, 68.25193
1140.231, 67.73429
1140.713, 67.37119
1141.195, 67.37299
1141.677, 67.64143
1142.160, 67.96807
1142.642, 68.32938
1143.124, 68.48026
1143.606, 68.00900
1144.088, 67.65767
1144.570, 67.76600
1145.052, 68.13748
1145.534, 68.20708
1146.016, 68.03580
1146.499, 67.99974
1146.981, 68.25434
1147.463, 68.34142
1147.945, 67.70785
1148.427, 67.06559
1148.909, 66.92815
1149.391, 67.22833
1149.873, 67.37643
1150.355, 67.38178
1150.838, 67.38176
1151.320, 67.40903
1151.802, 67.49219
1152.284, 67.63040
1152.766, 67.85499
1153.248, 68.28010
1153.730, 68.98584
1154.212, 69.03544
1154.695, 68.36880
1155.177, 67.85732
1155.659, 68.17080
1156.141, 68.69320
1156.623, 68.92006
1157.105, 68.90800
1157.587, 68.71983
1158.069, 68.23469
1158.552, 68.03416
1159.034, 68.18612
1159.516, 68.28258
1159.998, 67.78413
1160.480, 67.20149
1160.962, 67.28745
1161.444, 67.84371
1161.926, 68.16540
1162.408, 68.09727
1162.891, 67.88654
1163.373, 67.49643
1163.855, 67.15767
1164.337, 67.21736
1164.819, 67.44211
1165.301, 67.40018
1165.783, 67.11870
1166.265, 67.01110
1166.748, 67.33704
1167.230, 67.56922
1167.712, 67.62127
1168.194, 67.53403
1168.676, 67.26142
1169.158, 66.92782
1169.640, 66.78633
1170.122, 66.86687
1170.604, 67.06333
1171.087, 67.61746
1171.569, 67.88799
1172.051, 67.60698
1172.533, 67.06285
1173.015, 66.82351
1173.497, 66.81178
1173.979, 66.83808
1174.461, 66.88062
1174.943, 66.83887
1175.426, 66.26222
1175.908, 66.11947
1176.390, 67.05943
1176.872, 68.56387
1177.354, 68.85250
1177.836, 68.22231
1178.318, 67.70252
1178.800, 67.59075
1179.282, 67.67349
1179.765, 68.13887
1180.247, 68.48573
1180.729, 68.34483
1181.211, 67.83829
1181.693, 67.69560
1182.175, 67.84996
1182.657, 67.94012
1183.139, 67.79218
1183.622, 67.60081
1184.104, 67.35170
1184.586, 67.19777
1185.068, 67.32848
1185.550, 67.71793
1186.032, 67.82027
1186.514, 67.65363
1186.996, 67.35627
1187.479, 66.60172
1187.961, 66.21535
1188.443, 67.07889
1188.925, 68.18873
1189.407, 68.36221
1189.889, 67.55486
1190.371, 67.55846
1190.853, 68.35770
1191.335, 68.99321
1191.818, 68.73927
1192.300, 68.28642
1192.782, 67.82645
1193.264, 67.52090
1193.746, 67.71835
1194.228, 68.45943
1194.710, 68.55344
1195.192, 67.93502
1195.675, 67.36075
1196.157, 67.44212
1196.639, 67.67386
1197.121, 67.74343
1197.603, 67.72938
1198.085, 67.85189
1198.567, 68.12943
1199.049, 68.09673
1199.531, 67.69123
1200.014, 67.37270
1200.496, 67.77954
1200.978, 68.14799
1201.460, 67.76800
1201.942, 66.93699
1202.424, 66.55247
1202.906, 66.63130
1203.388, 66.73415
1203.870, 66.79180
1204.353, 66.87886
1204.835, 67.05806
1205.317, 67.29173
1205.799, 67.59572
1206.281, 67.92661
1206.763, 68.12975
1207.245, 68.20332
1207.727, 68.11076
1208.209, 67.80678
1208.692, 67.57048
1209.174, 67.75903
1209.656, 68.02717
1210.138, 68.06789
1210.620, 67.92000
1211.102, 67.83280
1211.584, 67.80741
1212.066, 67.83829
1212.549, 67.95504
1213.031, 68.00214
1213.513, 67.72399
1213.995, 67.41307
1214.477, 67.32222
1214.959, 67.43778
1215.441, 67.75191
1215.923, 68.27236
1216.406, 68.38457
1216.888, 67.73167
1217.370, 67.10210
1217.852, 67.14323
1218.334, 67.54545
1218.816, 68.16330
1219.298, 68.95496
1219.780, 69.05539
1220.262, 68.47336
1220.745, 67.98835
1221.227, 67.93224
1221.709, 67.95566
1222.191, 67.62931
1222.673, 67.37392
1223.155, 67.69579
1223.637, 68.58102
1224.119, 68.90555
1224.602, 68.69643
1225.084, 68.40936
1225.566, 68.17088
1226.048, 68.05856
1226.530, 68.21832
1227.012, 68.47209
1227.494, 68.69789
1227.976, 68.89442
1228.458, 68.56713
1228.941, 67.76572
1229.423, 67.21519
1229.905, 67.38834
1230.387, 67.71004
1230.869, 67.86696
1231.351, 67.98772
1231.833, 68.24384
1232.315, 68.63185
1232.797, 68.68593
1233.280, 68.43604
1233.762, 68.15461
1234.244, 67.76766
1234.726, 67.66230
1235.208, 68.42184
1235.690, 69.25089
1236.172, 69.37385
1236.654, 68.82262
1237.136, 68.49364
1237.619, 68.35168
1238.101, 68.11150
1238.583, 67.41035
1239.065, 66.84793
1239.547, 66.62388
1240.029, 66.67162
1240.511, 67.14019
1240.993, 67.91554
1241.476, 67.77377
1241.958, 66.89185
1242.440, 66.38840
1242.922, 67.30511
1243.404, 68.02308
1243.886, 67.94209
1244.368, 67.65067
1244.850, 67.78265
1245.333, 68.19361
1245.815, 68.12990
1246.297, 67.69172
1246.779, 67.47204
1247.261, 68.16359
1247.743, 68.47153
1248.225, 67.94809
1248.707, 67.33353
1249.189, 67.49378
1249.672, 68.13673
1250.154, 68.44292
1250.636, 68.44079
1251.118, 68.38022
1251.600, 68.30965
1252.082, 68.27688
1252.564, 68.34883
1253.046, 68.32948
1253.529, 67.82060
1254.011, 67.16808
1254.493, 67.15607
1254.975, 67.65849
1255.457, 67.99221
1255.939, 67.76528
1256.421, 67.74729
1256.903, 68.05980
1257.385, 68.40562
1257.868, 68.55563
1258.350, 68.51525
1258.832, 68.21616
1259.314, 67.72390
1259.796, 67.27543
1260.278, 66.75369
1260.760, 66.77168
1261.242, 67.49664
1261.724, 68.20925
1262.207, 68.13578
1262.689, 67.76196
1263.171, 67.61526
1263.653, 67.63435
1264.135, 67.45557
1264.617, 66.91507
1265.099, 67.00262
1265.581, 67.87746
1266.063, 68.69461
1266.546, 68.63052
1267.028, 68.28691
1267.510, 68.06634
1267.992, 67.98886
1268.474, 68.07164
1268.956, 68.33666
1269.438, 68.42360
1269.920, 68.29723
1270.403, 68.28059
1270.885, 68.96673
1271.367, 69.47184
1271.849, 68.96615
1272.331, 68.06779
1272.813, 67.73294
1273.295, 67.92865
1273.777, 68.23904
1274.260, 68.62234
1274.742, 68.92992
1275.224, 69.04746
1275.706, 69.09433
1276.188, 69.08218
1276.670, 69.06593
1277.152, 69.17294
1277.634, 69.34544
1278.116, 69.31496
1278.599, 69.08268
1279.081, 68.83395
1279.563, 68.59485
1280.045, 68.43699
1280.527, 68.39973
1281.009, 68.39723
1281.491, 68.30685
1281.973, 68.17613
1282.456, 68.10814
1282.938, 68.10185
1283.420, 68.10806
1283.902, 68.09907
1284.384, 68.11584
1284.866, 68.14053
1285.348, 68.26254
1285.830, 68.79534
1286.313, 69.33482
1286.795, 69.21738
1287.277, 68.58268
1287.759, 68.18221
1288.241, 68.13334
1288.723, 68.08767
1289.205, 68.00450
1289.687, 67.95751
1290.169, 68.01742
1290.651, 68.13646
1291.134, 68.30608
1291.616, 68.49394
1292.098, 68.61897
1292.580, 68.67599
1293.062, 68.74798
1293.544, 68.84238
1294.026, 68.88148
1294.508, 68.70786
1294.990, 68.57386
1295.473, 68.69810
1295.955, 68.90897
1296.437, 68.99242
1296.919, 68.95654
1297.401, 68.77150
1297.883, 68.47105
1298.365, 68.39977
1298.847, 69.07455
1299.330, 69.53983
1299.812, 69.47165
1300.294, 69.22458
1300.776, 69.16511
1301.258, 69.26712
1301.740, 69.57781
1302.222, 70.01036
1302.704, 70.18051
1303.187, 69.58544
1303.669, 69.24869
1304.151, 69.22378
##END=



