##NAMES=Andersonite
##RRUFFID=R080133
##IDEAL CHEMISTRY=Na_2_Ca(U^6+^O_2_)(CO_3_)_3_&#183;5-6H_2_O
##LOCALITY=Monte Cristo mine, Cane Springs Canyon, near Moab, Grand County, Utah, USA
##OWNER=RRUFF
##SOURCE=James Shigley
##DESCRIPTION=Bright yellowish green platy to granular crystals
##STATUS=The identification of this mineral has been confirmed only by single crystal X-ray diffraction.
##URL=rruff.info/R080133
93.78320, 2395.563
94.26532, 2395.845
94.74744, 2405.120
95.22955, 2417.415
95.71167, 2433.405
96.19379, 2440.982
96.67590, 2444.973
97.15802, 2444.532
97.64014, 2437.211
98.12225, 2425.779
98.60437, 2415.416
99.08649, 2408.965
99.56860, 2404.479
100.0507, 2398.199
100.5328, 2385.748
101.0150, 2372.632
101.4971, 2363.071
101.9792, 2357.160
102.4613, 2353.253
102.9434, 2350.897
103.4255, 2349.678
103.9077, 2349.488
104.3898, 2350.248
104.8719, 2351.957
105.3540, 2354.632
105.8361, 2358.105
106.3182, 2362.675
106.8004, 2368.641
107.2825, 2375.358
107.7646, 2381.722
108.2467, 2386.857
108.7288, 2390.919
109.2109, 2396.850
109.6931, 2405.120
110.1752, 2414.641
110.6573, 2425.335
111.1394, 2437.043
111.6215, 2449.667
112.1036, 2463.207
112.5858, 2477.948
113.0679, 2491.317
113.5500, 2502.327
114.0321, 2512.695
114.5142, 2523.645
114.9964, 2535.363
115.4785, 2547.228
115.9606, 2558.410
116.4427, 2568.927
116.9248, 2579.383
117.4069, 2590.038
117.8891, 2600.678
118.3712, 2611.109
118.8533, 2621.547
119.3354, 2631.153
119.8175, 2638.306
120.2996, 2643.321
120.7818, 2649.711
121.2639, 2661.500
121.7460, 2678.978
122.2281, 2693.534
122.7102, 2699.336
123.1923, 2704.548
123.6745, 2713.599
124.1566, 2727.196
124.6387, 2742.679
125.1208, 2756.565
125.6029, 2768.848
126.0850, 2779.167
126.5672, 2788.016
127.0493, 2795.131
127.5314, 2799.849
128.0135, 2801.994
128.4956, 2802.406
128.9777, 2803.481
129.4599, 2805.902
129.9420, 2808.310
130.4241, 2810.661
130.9062, 2812.960
131.3883, 2814.981
131.8705, 2816.434
132.3526, 2817.781
132.8347, 2821.603
133.3168, 2831.837
133.7989, 2840.176
134.2810, 2843.340
134.7632, 2841.613
135.2453, 2836.784
135.7274, 2829.728
136.2095, 2820.065
136.6916, 2807.948
137.1737, 2792.748
137.6559, 2775.417
138.1380, 2755.931
138.6201, 2733.593
139.1022, 2712.248
139.5843, 2694.543
140.0664, 2679.220
140.5486, 2665.192
141.0307, 2652.538
141.5128, 2640.747
141.9949, 2628.439
142.4770, 2615.023
142.9591, 2601.911
143.4413, 2590.324
143.9234, 2579.493
144.4055, 2567.909
144.8876, 2554.423
145.3697, 2539.054
145.8518, 2523.672
146.3340, 2508.677
146.8161, 2493.339
147.2982, 2476.593
147.7803, 2459.082
148.2624, 2442.541
148.7445, 2428.671
149.2267, 2418.215
149.7088, 2407.954
150.1909, 2397.434
150.6730, 2387.384
151.1551, 2377.621
151.6372, 2368.371
152.1194, 2360.863
152.6015, 2356.862
153.0836, 2358.530
153.5657, 2358.044
154.0478, 2352.684
154.5299, 2346.451
155.0121, 2343.534
155.4942, 2345.081
155.9763, 2348.919
156.4584, 2352.213
156.9405, 2354.992
157.4227, 2357.416
157.9048, 2358.946
158.3869, 2360.162
158.8690, 2362.448
159.3511, 2366.575
159.8332, 2371.266
160.3154, 2375.166
160.7975, 2378.321
161.2796, 2380.667
161.7617, 2382.297
162.2438, 2383.185
162.7259, 2382.796
163.2081, 2379.909
163.6902, 2376.524
164.1723, 2374.492
164.6544, 2373.954
165.1365, 2373.200
165.6186, 2370.337
166.1008, 2365.080
166.5829, 2359.043
167.0650, 2352.604
167.5471, 2345.461
168.0292, 2336.823
168.5113, 2326.640
168.9935, 2316.444
169.4756, 2309.093
169.9577, 2306.891
170.4398, 2303.123
170.9219, 2296.441
171.4040, 2288.732
171.8862, 2281.488
172.3683, 2275.271
172.8504, 2269.708
173.3325, 2263.844
173.8146, 2256.797
174.2967, 2250.603
174.7789, 2245.250
175.2610, 2240.772
175.7431, 2237.395
176.2252, 2235.219
176.7073, 2233.903
177.1894, 2232.343
177.6716, 2229.552
178.1537, 2227.704
178.6358, 2227.974
179.1179, 2229.437
179.6000, 2230.187
180.0821, 2229.094
180.5643, 2226.944
181.0464, 2226.163
181.5285, 2226.968
182.0106, 2228.493
182.4927, 2230.940
182.9749, 2234.006
183.4570, 2236.298
183.9391, 2237.054
184.4212, 2236.554
184.9033, 2235.798
185.3854, 2234.961
185.8676, 2233.608
186.3497, 2230.729
186.8318, 2226.246
187.3139, 2223.016
187.7960, 2223.406
188.2781, 2225.315
188.7603, 2226.515
189.2424, 2226.483
189.7245, 2225.858
190.2066, 2225.407
190.6887, 2225.155
191.1708, 2224.972
191.6530, 2224.635
192.1351, 2224.413
192.6172, 2224.518
193.0993, 2225.001
193.5814, 2225.925
194.0635, 2227.409
194.5457, 2229.466
195.0278, 2232.137
195.5099, 2236.091
195.9920, 2240.247
196.4741, 2243.316
196.9562, 2244.658
197.4384, 2245.127
197.9205, 2247.330
198.4026, 2253.434
198.8847, 2258.335
199.3668, 2259.960
199.8489, 2260.594
200.3311, 2263.011
200.8132, 2268.656
201.2953, 2276.617
201.7774, 2283.208
202.2595, 2287.826
202.7416, 2291.620
203.2238, 2293.917
203.7059, 2295.631
204.1880, 2298.099
204.6701, 2302.060
205.1522, 2307.143
205.6344, 2311.683
206.1165, 2315.776
206.5986, 2319.355
207.0807, 2322.041
207.5628, 2324.218
208.0449, 2326.637
208.5271, 2329.733
209.0092, 2333.287
209.4913, 2336.337
209.9734, 2338.509
210.4555, 2340.744
210.9376, 2343.484
211.4198, 2346.559
211.9019, 2349.499
212.3840, 2351.976
212.8661, 2354.214
213.3482, 2356.838
213.8303, 2359.991
214.3125, 2363.250
214.7946, 2365.879
215.2767, 2368.172
215.7588, 2371.881
216.2409, 2378.857
216.7230, 2386.946
217.2052, 2392.365
217.6873, 2394.327
218.1694, 2395.125
218.6515, 2396.479
219.1336, 2398.356
219.6157, 2399.619
220.0979, 2399.433
220.5800, 2398.647
221.0621, 2398.131
221.5442, 2397.961
222.0263, 2398.140
222.5084, 2399.144
222.9906, 2401.167
223.4727, 2401.921
223.9548, 2401.000
224.4369, 2398.171
224.9190, 2392.577
225.4011, 2383.910
225.8833, 2374.334
226.3654, 2366.642
226.8475, 2361.509
227.3296, 2355.090
227.8117, 2344.526
228.2938, 2333.734
228.7760, 2325.611
229.2581, 2320.620
229.7402, 2316.594
230.2223, 2310.433
230.7044, 2301.145
231.1866, 2292.831
231.6687, 2286.365
232.1508, 2280.627
232.6329, 2275.432
233.1150, 2270.536
233.5971, 2265.211
234.0793, 2257.964
234.5614, 2246.917
235.0435, 2238.772
235.5256, 2234.298
236.0077, 2231.784
236.4898, 2230.745
236.9720, 2230.851
237.4541, 2231.476
237.9362, 2231.717
238.4183, 2231.074
238.9004, 2231.324
239.3825, 2233.218
239.8647, 2235.263
240.3468, 2236.464
240.8289, 2236.709
241.3110, 2236.547
241.7931, 2236.594
242.2752, 2236.704
242.7574, 2237.558
243.2395, 2240.183
243.7216, 2242.656
244.2037, 2243.621
244.6858, 2242.988
245.1679, 2241.691
245.6501, 2240.757
246.1322, 2240.343
246.6143, 2239.638
247.0964, 2237.596
247.5785, 2236.064
248.0606, 2236.765
248.5428, 2239.591
249.0249, 2242.677
249.5070, 2244.275
249.9891, 2244.158
250.4712, 2243.518
250.9533, 2242.795
251.4355, 2241.284
251.9176, 2237.557
252.3997, 2231.954
252.8818, 2227.401
253.3639, 2226.754
253.8460, 2230.140
254.3282, 2231.826
254.8103, 2231.799
255.2924, 2230.168
255.7745, 2226.325
256.2566, 2220.502
256.7387, 2214.500
257.2209, 2209.222
257.7030, 2204.958
258.1851, 2202.203
258.6672, 2202.664
259.1493, 2203.244
259.6314, 2201.391
260.1136, 2197.358
260.5957, 2193.722
261.0778, 2192.244
261.5599, 2192.219
262.0420, 2191.187
262.5241, 2188.374
263.0063, 2185.426
263.4884, 2183.730
263.9705, 2183.112
264.4526, 2182.062
264.9347, 2179.779
265.4168, 2176.654
265.8990, 2173.687
266.3811, 2171.099
266.8632, 2168.182
267.3453, 2163.662
267.8275, 2157.914
268.3096, 2154.008
268.7917, 2154.202
269.2738, 2155.846
269.7559, 2155.123
270.2380, 2151.540
270.7202, 2148.032
271.2023, 2147.041
271.6844, 2148.162
272.1665, 2148.545
272.6486, 2147.282
273.1307, 2145.197
273.6129, 2142.695
274.0950, 2139.788
274.5771, 2138.068
275.0592, 2139.702
275.5413, 2143.896
276.0234, 2145.827
276.5056, 2143.592
276.9877, 2140.416
277.4698, 2138.625
277.9519, 2138.095
278.4340, 2138.184
278.9161, 2138.983
279.3983, 2140.203
279.8804, 2140.260
280.3625, 2137.670
280.8446, 2136.173
281.3267, 2139.183
281.8088, 2144.912
282.2910, 2149.135
282.7731, 2148.711
283.2552, 2145.058
283.7373, 2143.208
284.2194, 2144.761
284.7015, 2145.023
285.1837, 2141.308
285.6658, 2135.161
286.1479, 2128.694
286.6300, 2122.674
287.1121, 2117.135
287.5942, 2112.400
288.0764, 2109.038
288.5585, 2105.112
289.0406, 2099.241
289.5227, 2092.782
290.0048, 2087.418
290.4869, 2083.921
290.9691, 2080.936
291.4512, 2075.696
291.9333, 2067.091
292.4154, 2059.868
292.8975, 2056.735
293.3796, 2054.616
293.8618, 2051.134
294.3439, 2045.685
294.8260, 2039.644
295.3081, 2034.808
295.7902, 2031.426
296.2723, 2028.094
296.7545, 2024.017
297.2366, 2020.341
297.7187, 2017.900
298.2008, 2016.690
298.6829, 2015.946
299.1650, 2015.196
299.6472, 2014.536
300.1293, 2012.802
300.6114, 2009.226
301.0935, 2005.069
301.5756, 2000.679
302.0577, 1996.158
302.5399, 1991.541
303.0220, 1986.603
303.5041, 1981.422
303.9862, 1977.619
304.4683, 1976.786
304.9504, 1975.549
305.4326, 1972.381
305.9147, 1968.002
306.3968, 1963.793
306.8789, 1960.623
307.3610, 1958.262
307.8431, 1955.767
308.3253, 1953.080
308.8074, 1950.369
309.2895, 1947.597
309.7716, 1944.855
310.2537, 1942.313
310.7358, 1940.052
311.2180, 1937.910
311.7001, 1935.572
312.1822, 1932.990
312.6643, 1930.209
313.1464, 1926.076
313.6285, 1922.394
314.1107, 1921.107
314.5928, 1922.648
315.0749, 1924.966
315.5570, 1924.903
316.0392, 1921.584
316.5213, 1919.045
317.0034, 1918.324
317.4855, 1917.991
317.9676, 1917.380
318.4497, 1916.403
318.9319, 1915.280
319.4140, 1914.486
319.8961, 1914.192
320.3782, 1912.574
320.8603, 1906.988
321.3424, 1902.620
321.8246, 1902.239
322.3067, 1904.775
322.7888, 1907.327
323.2709, 1907.576
323.7530, 1905.977
324.2351, 1906.002
324.7173, 1909.126
325.1994, 1911.856
325.6815, 1913.655
326.1636, 1914.308
326.6457, 1913.264
327.1278, 1909.934
327.6100, 1905.575
328.0921, 1903.385
328.5742, 1904.418
329.0563, 1905.384
329.5384, 1904.841
330.0205, 1904.257
330.5027, 1905.309
330.9848, 1908.464
331.4669, 1911.921
331.9490, 1912.910
332.4311, 1910.756
332.9132, 1909.130
333.3954, 1908.426
333.8775, 1908.533
334.3596, 1909.883
334.8417, 1912.285
335.3238, 1914.652
335.8059, 1915.813
336.2881, 1915.753
336.7702, 1916.117
337.2523, 1917.575
337.7344, 1918.737
338.2165, 1918.608
338.6986, 1917.693
339.1808, 1917.210
339.6629, 1918.081
340.1450, 1919.901
340.6271, 1921.092
341.1092, 1921.165
341.5913, 1921.535
342.0735, 1923.316
342.5556, 1925.464
343.0377, 1926.609
343.5198, 1926.093
344.0019, 1924.834
344.4840, 1924.050
344.9662, 1923.572
345.4483, 1924.281
345.9304, 1928.423
346.4125, 1932.722
346.8946, 1934.617
347.3767, 1933.728
347.8589, 1931.974
348.3410, 1930.883
348.8231, 1930.452
349.3052, 1930.856
349.7873, 1933.486
350.2694, 1935.331
350.7516, 1933.621
351.2337, 1929.151
351.7158, 1925.378
352.1979, 1924.895
352.6800, 1926.725
353.1621, 1927.761
353.6443, 1927.982
354.1264, 1927.318
354.6085, 1925.266
355.0906, 1922.436
355.5727, 1919.835
356.0548, 1918.205
356.5370, 1916.463
357.0191, 1912.579
357.5012, 1906.291
357.9833, 1901.130
358.4654, 1899.356
358.9475, 1899.083
359.4297, 1898.096
359.9118, 1896.126
360.3939, 1893.837
360.8760, 1891.650
361.3581, 1889.546
361.8402, 1887.265
362.3224, 1884.387
362.8045, 1881.910
363.2866, 1881.040
363.7687, 1881.606
364.2508, 1882.271
364.7329, 1882.750
365.2151, 1882.914
365.6972, 1882.657
366.1793, 1882.027
366.6614, 1880.546
367.1436, 1876.822
367.6257, 1871.920
368.1078, 1869.178
368.5899, 1870.509
369.0720, 1872.913
369.5541, 1874.099
370.0363, 1874.209
370.5184, 1874.189
371.0005, 1874.659
371.4826, 1875.084
371.9647, 1874.149
372.4468, 1871.189
372.9290, 1868.716
373.4111, 1867.779
373.8932, 1867.968
374.3753, 1868.793
374.8574, 1870.227
375.3395, 1871.594
375.8217, 1871.978
376.3038, 1871.278
376.7859, 1870.362
377.2680, 1868.492
377.7501, 1866.974
378.2322, 1867.479
378.7144, 1869.812
379.1965, 1871.736
379.6786, 1871.468
380.1607, 1869.219
380.6428, 1867.699
381.1249, 1867.432
381.6071, 1867.211
382.0892, 1866.458
382.5713, 1865.473
383.0534, 1864.896
383.5355, 1865.026
384.0176, 1865.531
384.4998, 1865.670
384.9819, 1864.903
385.4640, 1864.686
385.9461, 1865.949
386.4282, 1867.223
386.9103, 1867.348
387.3925, 1866.120
387.8746, 1863.736
388.3567, 1860.088
388.8388, 1854.617
389.3209, 1852.103
389.8030, 1854.972
390.2852, 1857.801
390.7673, 1858.043
391.2494, 1856.693
391.7315, 1856.046
392.2136, 1857.475
392.6957, 1860.465
393.1779, 1863.085
393.6600, 1865.923
394.1421, 1867.393
394.6242, 1866.798
395.1063, 1865.199
395.5884, 1863.347
396.0706, 1861.500
396.5527, 1859.763
397.0348, 1858.172
397.5169, 1856.580
397.9990, 1855.730
398.4811, 1856.367
398.9633, 1857.085
399.4454, 1857.044
399.9275, 1856.597
400.4096, 1856.823
400.8917, 1858.790
401.3738, 1861.840
401.8560, 1862.867
402.3381, 1860.376
402.8202, 1858.736
403.3023, 1860.379
403.7844, 1862.923
404.2665, 1863.670
404.7487, 1861.731
405.2308, 1859.179
405.7129, 1859.048
406.1950, 1861.560
406.6771, 1862.294
407.1592, 1858.803
407.6414, 1855.032
408.1235, 1854.167
408.6056, 1855.769
409.0877, 1857.127
409.5698, 1856.307
410.0519, 1854.196
410.5341, 1852.799
411.0162, 1852.183
411.4983, 1852.204
411.9804, 1853.229
412.4625, 1854.736
412.9446, 1855.865
413.4268, 1856.422
413.9089, 1856.664
414.3910, 1856.813
414.8731, 1856.826
415.3553, 1856.440
415.8374, 1855.438
416.3195, 1854.226
416.8016, 1853.298
417.2837, 1852.595
417.7658, 1852.417
418.2480, 1853.488
418.7301, 1854.789
419.2122, 1855.073
419.6943, 1854.234
420.1764, 1852.977
420.6585, 1851.626
421.1407, 1850.302
421.6228, 1850.050
422.1049, 1851.591
422.5870, 1853.280
423.0691, 1854.713
423.5512, 1855.801
424.0334, 1856.374
424.5155, 1856.350
424.9976, 1855.943
425.4797, 1855.582
425.9618, 1855.648
426.4439, 1854.929
426.9261, 1852.713
427.4082, 1850.312
427.8903, 1848.553
428.3724, 1847.520
428.8545, 1846.965
429.3366, 1846.721
429.8188, 1846.783
430.3009, 1846.889
430.7830, 1847.560
431.2651, 1847.691
431.7472, 1846.278
432.2293, 1844.547
432.7115, 1844.230
433.1936, 1845.917
433.6757, 1848.265
434.1578, 1848.810
434.6399, 1846.681
435.1220, 1845.761
435.6042, 1847.904
436.0863, 1849.949
436.5684, 1850.243
437.0505, 1849.034
437.5326, 1847.485
438.0147, 1845.899
438.4969, 1844.714
438.9790, 1846.018
439.4611, 1851.219
439.9432, 1855.329
440.4253, 1854.925
440.9074, 1853.010
441.3896, 1852.908
441.8717, 1855.607
442.3538, 1858.459
442.8359, 1858.666
443.3180, 1856.759
443.8001, 1855.901
444.2823, 1856.877
444.7644, 1858.730
445.2465, 1860.742
445.7286, 1862.892
446.2107, 1865.004
446.6928, 1867.045
447.1750, 1869.018
447.6571, 1871.100
448.1392, 1873.214
448.6213, 1874.650
449.1034, 1874.789
449.5855, 1874.195
450.0677, 1874.489
450.5498, 1875.921
451.0319, 1877.481
451.5140, 1879.159
451.9961, 1880.711
452.4782, 1881.773
452.9604, 1882.298
453.4425, 1882.604
453.9246, 1882.996
454.4067, 1883.484
454.8888, 1883.997
455.3709, 1883.768
455.8531, 1884.374
456.3352, 1886.895
456.8173, 1890.535
457.2994, 1894.059
457.7815, 1896.885
458.2636, 1899.176
458.7458, 1901.082
459.2279, 1901.561
459.7100, 1903.969
460.1921, 1911.164
460.6742, 1917.752
461.1563, 1919.899
461.6385, 1918.276
462.1206, 1916.381
462.6027, 1916.881
463.0848, 1919.332
463.5669, 1921.684
464.0491, 1924.662
464.5312, 1925.927
465.0133, 1924.575
465.4954, 1921.291
465.9775, 1916.412
466.4597, 1909.910
466.9418, 1902.700
467.4239, 1894.467
467.9060, 1885.764
468.3881, 1880.689
468.8702, 1881.267
469.3524, 1882.750
469.8345, 1881.622
470.3166, 1878.298
470.7987, 1873.478
471.2808, 1865.965
471.7629, 1858.129
472.2451, 1851.579
472.7272, 1846.436
473.2093, 1843.613
473.6914, 1844.065
474.1735, 1846.019
474.6556, 1845.972
475.1378, 1843.473
475.6199, 1840.904
476.1020, 1838.649
476.5841, 1836.434
477.0662, 1833.394
477.5483, 1829.858
478.0305, 1827.691
478.5126, 1828.485
478.9947, 1831.868
479.4768, 1834.606
479.9589, 1838.253
480.4410, 1839.281
480.9232, 1835.062
481.4053, 1829.110
481.8874, 1824.860
482.3695, 1823.192
482.8516, 1823.023
483.3337, 1823.223
483.8159, 1823.858
484.2980, 1824.324
484.7801, 1824.868
485.2622, 1824.923
485.7443, 1824.378
486.2264, 1823.217
486.7086, 1821.164
487.1907, 1817.833
487.6728, 1814.571
488.1549, 1813.740
488.6370, 1815.541
489.1191, 1816.473
489.6013, 1815.206
490.0834, 1813.454
490.5655, 1813.152
491.0476, 1813.992
491.5297, 1813.816
492.0118, 1810.864
492.4940, 1806.939
492.9761, 1804.058
493.4582, 1802.282
493.9403, 1801.851
494.4224, 1803.391
494.9045, 1805.911
495.3867, 1806.746
495.8688, 1805.238
496.3509, 1804.039
496.8330, 1804.186
497.3151, 1804.685
497.7972, 1804.522
498.2794, 1803.566
498.7615, 1802.039
499.2436, 1799.902
499.7257, 1797.286
500.2078, 1796.615
500.6899, 1800.801
501.1721, 1803.392
501.6542, 1802.311
502.1363, 1799.639
502.6184, 1797.368
503.1005, 1796.135
503.5826, 1795.796
504.0648, 1796.383
504.5469, 1798.030
505.0290, 1799.410
505.5111, 1801.203
505.9932, 1801.821
506.4753, 1799.839
506.9575, 1796.589
507.4396, 1794.129
507.9217, 1793.221
508.4038, 1793.289
508.8859, 1794.066
509.3680, 1795.469
509.8502, 1796.038
510.3323, 1795.306
510.8144, 1793.872
511.2965, 1792.124
511.7786, 1790.129
512.2607, 1788.211
512.7429, 1786.571
513.2250, 1784.942
513.7071, 1782.944
514.1892, 1780.705
514.6713, 1778.590
515.1534, 1776.613
515.6356, 1775.288
516.1177, 1775.798
516.5998, 1779.648
517.0819, 1781.986
517.5640, 1782.224
518.0461, 1781.314
518.5283, 1779.097
519.0104, 1776.226
519.4925, 1774.418
519.9746, 1774.920
520.4567, 1776.981
520.9388, 1777.757
521.4210, 1776.521
521.9031, 1775.298
522.3852, 1774.272
522.8673, 1773.355
523.3494, 1772.312
523.8315, 1771.238
524.3137, 1770.662
524.7958, 1771.292
525.2779, 1772.696
525.7600, 1773.262
526.2421, 1772.736
526.7242, 1772.311
527.2064, 1772.782
527.6885, 1773.496
528.1706, 1773.592
528.6527, 1772.921
529.1348, 1772.160
529.6169, 1771.346
530.0991, 1770.777
530.5812, 1771.296
531.0633, 1772.977
531.5454, 1774.228
532.0275, 1773.742
532.5096, 1771.818
532.9918, 1770.546
533.4739, 1770.516
533.9560, 1770.278
534.4381, 1768.813
534.9202, 1767.379
535.4023, 1767.964
535.8845, 1770.577
536.3666, 1772.767
536.8487, 1771.840
537.3308, 1767.806
537.8129, 1764.918
538.2951, 1762.999
538.7772, 1762.609
539.2593, 1765.355
539.7415, 1768.829
540.2236, 1770.197
540.7057, 1768.779
541.1878, 1766.846
541.6699, 1766.709
542.1520, 1768.131
542.6342, 1769.618
543.1163, 1771.363
543.5984, 1772.431
544.0805, 1771.291
544.5626, 1769.230
545.0447, 1768.851
545.5269, 1771.552
546.0090, 1773.950
546.4911, 1773.345
546.9732, 1771.236
547.4553, 1770.739
547.9374, 1772.531
548.4196, 1774.717
548.9017, 1775.429
549.3838, 1774.633
549.8659, 1774.344
550.3480, 1774.707
550.8301, 1775.309
551.3123, 1776.387
551.7944, 1777.487
552.2765, 1777.847
552.7586, 1777.366
553.2407, 1776.956
553.7228, 1777.808
554.2050, 1780.004
554.6871, 1782.008
555.1692, 1784.349
555.6513, 1785.669
556.1334, 1784.551
556.6155, 1782.624
557.0977, 1782.159
557.5798, 1783.901
558.0619, 1785.977
558.5440, 1786.494
559.0261, 1785.913
559.5082, 1786.187
559.9904, 1787.839
560.4725, 1789.145
560.9546, 1788.514
561.4367, 1786.347
561.9188, 1784.906
562.4009, 1784.356
562.8831, 1784.361
563.3652, 1785.556
563.8473, 1786.930
564.3294, 1786.767
564.8115, 1784.849
565.2936, 1782.822
565.7758, 1782.472
566.2579, 1783.812
566.7400, 1783.801
567.2221, 1780.319
567.7042, 1778.043
568.1863, 1778.604
568.6685, 1780.265
569.1506, 1781.349
569.6327, 1781.462
570.1148, 1781.170
570.5969, 1780.969
571.0790, 1780.828
571.5612, 1780.651
572.0433, 1780.602
572.5254, 1779.986
573.0075, 1777.792
573.4896, 1775.098
573.9717, 1773.680
574.4539, 1774.154
574.9360, 1774.200
575.4181, 1771.979
575.9002, 1769.028
576.3823, 1767.585
576.8644, 1767.834
577.3466, 1768.701
577.8287, 1769.653
578.3108, 1770.435
578.7929, 1769.772
579.2750, 1765.860
579.7571, 1762.841
580.2393, 1761.245
580.7214, 1760.375
581.2035, 1759.901
581.6856, 1759.644
582.1677, 1759.354
582.6498, 1758.928
583.1320, 1758.236
583.6141, 1756.561
584.0962, 1753.267
584.5783, 1751.162
585.0604, 1752.060
585.5425, 1753.651
586.0247, 1753.874
586.5068, 1752.786
586.9889, 1751.910
587.4710, 1752.322
587.9531, 1753.034
588.4352, 1752.814
588.9174, 1751.787
589.3995, 1750.896
589.8816, 1750.679
590.3637, 1750.390
590.8458, 1748.467
591.3279, 1743.440
591.8101, 1741.149
592.2922, 1744.692
592.7743, 1747.858
593.2564, 1746.292
593.7385, 1742.057
594.2206, 1739.704
594.7028, 1741.335
595.1849, 1744.488
595.6670, 1744.801
596.1491, 1741.759
596.6312, 1739.779
597.1133, 1740.069
597.5955, 1740.238
598.0776, 1738.626
598.5597, 1736.078
599.0418, 1734.219
599.5239, 1733.607
600.0060, 1733.484
600.4882, 1733.374
600.9703, 1733.287
601.4524, 1733.249
601.9345, 1733.264
602.4166, 1733.290
602.8987, 1733.224
603.3809, 1733.096
603.8630, 1733.455
604.3451, 1735.316
604.8272, 1736.268
605.3093, 1735.268
605.7914, 1733.508
606.2736, 1731.811
606.7557, 1730.504
607.2378, 1729.975
607.7199, 1730.684
608.2020, 1732.389
608.6841, 1734.078
609.1663, 1736.152
609.6484, 1737.052
610.1305, 1735.243
610.6126, 1732.836
611.0947, 1731.560
611.5768, 1731.480
612.0590, 1731.870
612.5411, 1733.267
613.0232, 1734.415
613.5053, 1733.320
613.9874, 1730.502
614.4695, 1728.608
614.9517, 1728.823
615.4338, 1730.020
615.9159, 1730.326
616.3980, 1729.319
616.8801, 1728.844
617.3622, 1729.858
617.8444, 1730.309
618.3265, 1728.405
618.8086, 1725.635
619.2907, 1724.582
619.7728, 1726.145
620.2549, 1728.474
620.7371, 1729.189
621.2192, 1728.345
621.7013, 1727.373
622.1834, 1725.937
622.6655, 1725.279
623.1476, 1726.793
623.6298, 1729.349
624.1119, 1731.146
624.5940, 1731.966
625.0761, 1732.250
625.5582, 1732.157
626.0403, 1731.662
626.5225, 1730.263
627.0046, 1728.208
627.4867, 1727.132
627.9688, 1728.237
628.4509, 1730.719
628.9330, 1731.901
629.4152, 1730.702
629.8973, 1730.182
630.3794, 1731.151
630.8615, 1732.084
631.3436, 1732.336
631.8257, 1731.835
632.3079, 1730.440
632.7900, 1727.746
633.2721, 1725.043
633.7542, 1724.379
634.2363, 1725.536
634.7184, 1726.725
635.2006, 1727.842
635.6827, 1728.171
636.1648, 1726.400
636.6469, 1723.020
637.1291, 1721.758
637.6112, 1724.672
638.0933, 1727.238
638.5754, 1727.785
639.0576, 1727.320
639.5397, 1726.836
640.0218, 1726.557
640.5039, 1726.438
640.9860, 1726.515
641.4681, 1726.631
641.9503, 1725.883
642.4324, 1723.612
642.9145, 1722.108
643.3966, 1722.746
643.8787, 1723.596
644.3608, 1722.714
644.8430, 1720.638
645.3251, 1720.257
645.8072, 1724.911
646.2893, 1729.855
646.7714, 1729.606
647.2535, 1725.563
647.7357, 1722.033
648.2178, 1720.248
648.6999, 1719.747
649.1820, 1720.310
649.6641, 1722.061
650.1462, 1722.506
650.6284, 1720.813
651.1105, 1718.948
651.5926, 1717.250
652.0747, 1715.605
652.5568, 1713.715
653.0389, 1711.638
653.5211, 1709.952
654.0032, 1709.104
654.4853, 1708.989
654.9674, 1709.483
655.4495, 1710.636
655.9316, 1711.805
656.4138, 1713.190
656.8959, 1713.957
657.3780, 1712.267
657.8601, 1708.195
658.3422, 1705.753
658.8243, 1706.402
659.3065, 1707.864
659.7886, 1709.612
660.2707, 1711.091
660.7528, 1711.151
661.2349, 1709.617
661.7170, 1708.101
662.1992, 1708.732
662.6813, 1711.349
663.1634, 1711.835
663.6455, 1708.817
664.1276, 1706.366
664.6097, 1706.363
665.0919, 1707.109
665.5740, 1707.037
666.0561, 1706.074
666.5382, 1705.484
667.0203, 1706.252
667.5024, 1707.347
667.9846, 1707.761
668.4667, 1707.550
668.9488, 1706.847
669.4309, 1705.655
669.9130, 1704.676
670.3951, 1705.003
670.8773, 1706.941
671.3594, 1707.754
671.8415, 1706.256
672.3236, 1705.037
672.8057, 1704.607
673.2878, 1704.761
673.7700, 1705.737
674.2521, 1707.356
674.7342, 1708.104
675.2163, 1706.029
675.6984, 1702.580
676.1805, 1700.440
676.6627, 1699.616
677.1448, 1700.682
677.6269, 1704.602
678.1090, 1708.718
678.5911, 1709.089
679.0732, 1704.816
679.5554, 1701.647
680.0375, 1698.374
680.5196, 1697.520
681.0017, 1702.174
681.4838, 1708.753
681.9659, 1712.937
682.4481, 1713.701
682.9302, 1712.663
683.4123, 1710.719
683.8944, 1708.316
684.3765, 1707.336
684.8586, 1707.974
685.3408, 1708.917
685.8229, 1709.795
686.3050, 1710.690
686.7871, 1711.469
687.2692, 1712.120
687.7513, 1713.793
688.2335, 1718.404
688.7156, 1722.223
689.1977, 1722.774
689.6798, 1721.384
690.1619, 1719.833
690.6440, 1718.724
691.1262, 1718.269
691.6083, 1718.658
692.0904, 1719.897
692.5725, 1722.418
693.0546, 1727.340
693.5367, 1730.167
694.0189, 1727.334
694.5010, 1723.934
694.9831, 1725.243
695.4652, 1730.633
695.9473, 1734.634
696.4294, 1734.713
696.9116, 1733.860
697.3937, 1733.962
697.8758, 1734.633
698.3579, 1735.308
698.8400, 1735.783
699.3221, 1735.693
699.8043, 1734.618
700.2864, 1732.681
700.7685, 1730.834
701.2506, 1729.001
701.7327, 1727.378
702.2148, 1725.295
702.6970, 1724.021
703.1791, 1725.480
703.6612, 1728.700
704.1433, 1729.836
704.6254, 1725.846
705.1075, 1721.453
705.5897, 1721.018
706.0718, 1722.917
706.5539, 1723.902
707.0360, 1723.346
707.5181, 1721.978
708.0002, 1720.196
708.4824, 1718.300
708.9645, 1717.849
709.4466, 1719.871
709.9287, 1721.405
710.4108, 1722.461
710.8929, 1722.759
711.3751, 1721.553
711.8572, 1719.487
712.3393, 1718.189
712.8214, 1718.470
713.3035, 1719.051
713.7856, 1718.815
714.2678, 1718.070
714.7499, 1717.180
715.2320, 1716.273
715.7141, 1716.320
716.1962, 1718.100
716.6783, 1721.019
717.1605, 1723.353
717.6426, 1725.147
718.1247, 1726.220
718.6068, 1725.377
719.0889, 1725.091
719.5710, 1726.645
720.0532, 1729.472
720.5353, 1732.816
721.0174, 1736.592
721.4995, 1739.596
721.9816, 1740.444
722.4637, 1739.990
722.9459, 1739.493
723.4280, 1739.168
723.9101, 1740.208
724.3922, 1743.406
724.8743, 1747.648
725.3564, 1750.858
725.8386, 1752.818
726.3207, 1754.516
726.8028, 1755.485
727.2849, 1756.752
727.7670, 1759.056
728.2491, 1761.619
728.7313, 1763.366
729.2134, 1764.156
729.6955, 1765.000
730.1776, 1766.744
730.6597, 1768.908
731.1418, 1770.684
731.6240, 1772.151
732.1061, 1774.000
732.5882, 1776.559
733.0703, 1778.878
733.5524, 1779.652
734.0345, 1778.786
734.5167, 1778.791
734.9988, 1779.820
735.4809, 1781.596
735.9631, 1785.277
736.4452, 1788.776
736.9273, 1789.934
737.4094, 1789.089
737.8915, 1788.774
738.3737, 1791.137
738.8558, 1793.465
739.3379, 1792.462
739.8200, 1788.933
740.3021, 1784.905
740.7842, 1780.803
741.2664, 1777.766
741.7485, 1776.917
742.2306, 1777.692
742.7127, 1777.356
743.1948, 1775.380
743.6769, 1773.210
744.1591, 1770.140
744.6412, 1767.665
745.1233, 1767.250
745.6054, 1767.892
746.0875, 1767.634
746.5696, 1765.938
747.0518, 1762.934
747.5339, 1757.943
748.0160, 1752.053
748.4981, 1746.984
748.9802, 1742.873
749.4623, 1739.782
749.9445, 1737.862
750.4266, 1736.079
750.9087, 1732.422
751.3908, 1726.477
751.8729, 1720.630
752.3550, 1714.472
752.8372, 1708.904
753.3193, 1703.956
753.8014, 1699.835
754.2835, 1697.127
754.7656, 1695.817
755.2477, 1694.188
755.7299, 1691.437
756.2120, 1687.980
756.6941, 1683.122
757.1762, 1678.012
757.6583, 1675.783
758.1404, 1677.148
758.6226, 1679.425
759.1047, 1679.981
759.5868, 1679.093
760.0689, 1678.840
760.5510, 1680.039
761.0331, 1679.654
761.5153, 1675.525
761.9974, 1671.268
762.4795, 1669.621
762.9616, 1669.978
763.4437, 1670.347
763.9258, 1670.352
764.4080, 1670.267
764.8901, 1669.710
765.3722, 1669.457
765.8543, 1670.975
766.3364, 1673.761
766.8185, 1675.601
767.3007, 1675.243
767.7828, 1673.831
768.2649, 1673.222
768.7470, 1673.412
769.2291, 1674.620
769.7112, 1677.944
770.1934, 1679.219
770.6755, 1674.645
771.1576, 1667.994
771.6397, 1665.982
772.1218, 1669.261
772.6039, 1671.880
773.0861, 1671.953
773.5682, 1672.167
774.0503, 1674.746
774.5324, 1678.005
775.0145, 1679.491
775.4966, 1678.757
775.9788, 1676.980
776.4609, 1674.691
776.9430, 1672.487
777.4251, 1671.936
777.9072, 1673.019
778.3893, 1674.579
778.8715, 1676.652
779.3536, 1678.046
779.8357, 1677.407
780.3178, 1675.135
780.7999, 1673.969
781.2820, 1674.317
781.7642, 1675.145
782.2463, 1676.670
782.7284, 1678.392
783.2105, 1680.597
783.6926, 1682.607
784.1747, 1682.788
784.6569, 1680.330
785.1390, 1678.116
785.6211, 1678.842
786.1032, 1681.533
786.5853, 1684.894
787.0674, 1688.590
787.5496, 1691.144
788.0317, 1691.867
788.5138, 1691.401
788.9959, 1690.490
789.4780, 1689.046
789.9601, 1688.474
790.4423, 1689.133
790.9244, 1690.124
791.4065, 1691.271
791.8886, 1692.644
792.3707, 1694.708
792.8528, 1697.200
793.3350, 1698.737
793.8171, 1698.330
794.2992, 1697.602
794.7813, 1696.615
795.2634, 1696.416
795.7455, 1699.333
796.2277, 1704.833
796.7098, 1709.514
797.1919, 1711.300
797.6740, 1711.296
798.1561, 1711.352
798.6382, 1711.429
799.1204, 1712.479
799.6025, 1714.918
800.0846, 1717.212
800.5667, 1718.336
801.0488, 1719.040
801.5309, 1720.768
802.0131, 1723.671
802.4952, 1726.394
802.9773, 1729.605
803.4594, 1731.708
803.9415, 1730.495
804.4236, 1728.677
804.9058, 1729.691
805.3879, 1733.789
805.8700, 1738.563
806.3521, 1742.444
806.8342, 1746.083
807.3163, 1750.028
807.7985, 1754.526
808.2806, 1761.038
808.7627, 1769.879
809.2448, 1778.568
809.7269, 1785.396
810.2090, 1790.795
810.6912, 1795.679
811.1733, 1797.943
811.6554, 1804.762
812.1375, 1819.110
812.6196, 1834.740
813.1017, 1848.840
813.5839, 1863.016
814.0660, 1879.048
814.5481, 1897.192
815.0302, 1917.766
815.5123, 1940.311
815.9944, 1965.810
816.4766, 1995.802
816.9587, 2029.129
817.4408, 2063.459
817.9229, 2098.195
818.4050, 2133.761
818.8871, 2170.843
819.3693, 2208.388
819.8514, 2244.556
820.3335, 2279.304
820.8156, 2311.636
821.2977, 2340.796
821.7798, 2369.244
822.2620, 2397.842
822.7441, 2427.638
823.2262, 2461.515
823.7083, 2499.712
824.1904, 2541.833
824.6725, 2590.235
825.1547, 2640.172
825.6368, 2688.557
826.1189, 2737.404
826.6010, 2790.268
827.0831, 2847.611
827.5652, 2905.562
828.0474, 2960.450
828.5295, 3015.621
829.0116, 3077.121
829.4937, 3141.813
829.9758, 3203.695
830.4579, 3260.865
830.9401, 3310.700
831.4222, 3352.429
831.9043, 3382.898
832.3864, 3394.290
832.8685, 3388.268
833.3506, 3353.591
833.8328, 3286.266
834.3149, 3196.073
834.7971, 3080.880
835.2792, 2949.547
835.7613, 2817.561
836.2434, 2683.754
836.7255, 2558.195
837.2076, 2439.871
837.6898, 2334.288
838.1719, 2245.211
838.6540, 2169.886
839.1361, 2105.952
839.6182, 2052.206
840.1003, 2005.786
840.5825, 1965.329
841.0646, 1930.488
841.5467, 1901.342
842.0288, 1877.308
842.5109, 1858.036
842.9930, 1843.180
843.4752, 1829.187
843.9573, 1813.863
844.4394, 1798.536
844.9215, 1786.374
845.4036, 1777.716
845.8857, 1770.399
846.3679, 1765.199
846.8500, 1759.889
847.3321, 1752.716
847.8142, 1745.755
848.2963, 1741.561
848.7784, 1740.019
849.2606, 1737.958
849.7427, 1732.985
850.2248, 1729.649
850.7069, 1731.061
851.1890, 1734.024
851.6711, 1736.052
852.1533, 1736.568
852.6354, 1735.152
853.1175, 1731.436
853.5996, 1726.945
854.0817, 1723.021
854.5638, 1719.733
855.0460, 1717.607
855.5281, 1716.527
856.0102, 1715.226
856.4923, 1713.166
856.9744, 1710.903
857.4565, 1709.254
857.9387, 1708.154
858.4208, 1706.043
858.9029, 1702.331
859.3850, 1698.982
859.8671, 1696.067
860.3492, 1693.965
860.8314, 1692.896
861.3135, 1692.828
861.7956, 1693.956
862.2777, 1697.541
862.7598, 1699.421
863.2419, 1697.970
863.7241, 1695.040
864.2062, 1690.314
864.6883, 1685.595
865.1704, 1684.192
865.6525, 1686.615
866.1346, 1688.860
866.6168, 1687.011
867.0989, 1683.734
867.5810, 1683.635
868.0631, 1685.740
868.5452, 1686.590
869.0273, 1685.542
869.5095, 1684.373
869.9916, 1684.472
870.4737, 1682.515
870.9558, 1683.575
871.4379, 1679.542
871.9200, 1676.883
872.4022, 1675.910
872.8843, 1675.967
873.3664, 1677.625
873.8485, 1679.510
874.3306, 1678.915
874.8127, 1675.658
875.2949, 1674.898
875.7770, 1680.428
876.2591, 1684.001
876.7412, 1681.966
877.2233, 1678.029
877.7054, 1674.663
878.1876, 1672.381
878.6697, 1671.425
879.1518, 1672.055
879.6339, 1673.378
880.1160, 1675.731
880.5981, 1677.695
881.0803, 1676.635
881.5624, 1673.333
882.0445, 1670.490
882.5266, 1669.097
883.0087, 1669.126
883.4908, 1670.902
883.9730, 1673.795
884.4551, 1675.317
884.9372, 1675.420
885.4193, 1674.520
885.9014, 1672.180
886.3835, 1670.778
886.8657, 1672.501
887.3478, 1675.932
887.8299, 1677.117
888.3120, 1674.990
888.7941, 1673.459
889.2762, 1673.078
889.7584, 1672.618
890.2405, 1671.552
890.7226, 1670.352
891.2047, 1669.335
891.6868, 1668.609
892.1689, 1668.574
892.6511, 1670.003
893.1332, 1671.316
893.6153, 1671.496
894.0974, 1671.330
894.5795, 1671.825
895.0616, 1672.742
895.5438, 1673.202
896.0259, 1672.847
896.5080, 1671.929
896.9901, 1670.109
897.4722, 1668.141
897.9543, 1668.130
898.4365, 1669.751
898.9186, 1671.235
899.4007, 1672.083
899.8828, 1671.775
900.3649, 1669.532
900.8470, 1666.302
901.3292, 1665.978
901.8113, 1669.551
902.2934, 1670.922
902.7755, 1668.733
903.2576, 1666.347
903.7397, 1665.418
904.2219, 1665.296
904.7040, 1664.855
905.1861, 1663.967
905.6682, 1663.890
906.1503, 1665.548
906.6324, 1666.856
907.1146, 1667.247
907.5967, 1667.176
908.0788, 1666.291
908.5609, 1665.322
909.0430, 1666.429
909.5251, 1671.014
910.0073, 1674.729
910.4894, 1674.653
910.9715, 1672.806
911.4536, 1670.307
911.9357, 1667.880
912.4178, 1666.713
912.9000, 1667.033
913.3821, 1668.161
913.8642, 1669.835
914.3463, 1671.482
914.8284, 1671.815
915.3105, 1671.135
915.7927, 1670.748
916.2748, 1670.841
916.7569, 1671.353
917.2390, 1672.312
917.7211, 1673.395
918.2032, 1674.087
918.6854, 1674.385
919.1675, 1674.364
919.6496, 1673.793
920.1317, 1673.708
920.6138, 1674.874
921.0959, 1675.833
921.5781, 1674.803
922.0602, 1672.432
922.5423, 1672.016
923.0244, 1675.316
923.5065, 1677.182
923.9886, 1676.734
924.4708, 1675.586
924.9529, 1673.643
925.4350, 1671.871
925.9171, 1671.662
926.3992, 1673.034
926.8813, 1674.266
927.3635, 1674.288
927.8456, 1674.477
928.3277, 1676.282
928.8098, 1678.205
929.2919, 1678.685
929.7740, 1677.739
930.2562, 1675.494
930.7383, 1672.020
931.2204, 1669.467
931.7025, 1671.132
932.1846, 1674.528
932.6667, 1674.520
933.1489, 1672.049
933.6310, 1671.319
934.1132, 1673.081
934.5953, 1673.703
935.0774, 1670.203
935.5595, 1664.847
936.0416, 1663.398
936.5237, 1665.890
937.0059, 1666.560
937.4880, 1664.789
937.9701, 1663.388
938.4522, 1663.678
938.9343, 1664.236
939.4164, 1663.019
939.8986, 1660.268
940.3807, 1660.354
940.8628, 1666.167
941.3449, 1669.083
941.8270, 1665.726
942.3091, 1662.365
942.7913, 1662.850
943.2734, 1665.197
943.7555, 1666.166
944.2376, 1665.389
944.7197, 1665.027
945.2018, 1666.676
945.6840, 1667.225
946.1661, 1663.968
946.6482, 1660.323
947.1303, 1659.483
947.6124, 1661.057
948.0945, 1663.242
948.5767, 1665.795
949.0588, 1667.001
949.5409, 1664.364
950.0230, 1661.117
950.5051, 1660.691
950.9872, 1662.024
951.4694, 1662.699
951.9515, 1662.377
952.4336, 1662.728
952.9157, 1665.295
953.3978, 1667.986
953.8799, 1667.004
954.3621, 1663.914
954.8442, 1663.191
955.3263, 1664.838
955.8084, 1666.112
956.2905, 1665.928
956.7726, 1665.453
957.2548, 1666.180
957.7369, 1667.592
958.2190, 1666.980
958.7011, 1664.170
959.1832, 1663.198
959.6653, 1665.091
960.1475, 1666.446
960.6296, 1664.936
961.1117, 1662.394
961.5938, 1662.394
962.0759, 1665.355
962.5580, 1666.640
963.0402, 1665.265
963.5223, 1664.269
964.0044, 1664.661
964.4865, 1665.158
964.9686, 1664.402
965.4507, 1663.015
965.9329, 1663.131
966.4150, 1665.889
966.8971, 1667.061
967.3792, 1663.828
967.8613, 1662.071
968.3434, 1666.273
968.8256, 1671.239
969.3077, 1670.870
969.7898, 1666.102
970.2719, 1663.312
970.7540, 1665.268
971.2361, 1667.128
971.7183, 1666.463
972.2004, 1665.345
972.6825, 1665.066
973.1646, 1665.621
973.6467, 1667.290
974.1288, 1669.802
974.6110, 1671.235
975.0931, 1669.472
975.5752, 1667.853
976.0573, 1670.934
976.5394, 1675.297
977.0215, 1675.399
977.5037, 1671.960
977.9858, 1668.677
978.4679, 1666.938
978.9500, 1666.152
979.4321, 1666.035
979.9142, 1666.200
980.3964, 1665.828
980.8785, 1665.065
981.3606, 1664.200
981.8427, 1663.380
982.3248, 1663.680
982.8069, 1665.756
983.2891, 1667.945
983.7712, 1667.508
984.2533, 1664.925
984.7354, 1663.727
985.2175, 1663.947
985.6996, 1664.631
986.1818, 1665.675
986.6639, 1666.550
987.1460, 1666.966
987.6281, 1666.761
988.1102, 1665.204
988.5923, 1661.759
989.0745, 1661.109
989.5566, 1664.017
990.0387, 1667.712
990.5208, 1672.647
991.0029, 1675.900
991.4850, 1674.087
991.9672, 1668.681
992.4493, 1665.390
992.9314, 1664.973
993.4135, 1664.864
993.8956, 1664.582
994.3777, 1665.258
994.8599, 1667.738
995.3420, 1670.953
995.8241, 1675.089
996.3062, 1679.416
996.7883, 1679.880
997.2704, 1672.323
997.7526, 1667.771
998.2347, 1669.873
998.7168, 1672.844
999.1989, 1674.279
999.6810, 1674.654
1000.163, 1674.564
1000.645, 1674.136
1001.127, 1673.601
1001.609, 1672.720
1002.092, 1672.245
1002.574, 1672.872
1003.056, 1673.637
1003.538, 1673.514
1004.020, 1673.105
1004.502, 1673.725
1004.984, 1675.465
1005.466, 1676.661
1005.949, 1675.573
1006.431, 1674.874
1006.913, 1677.775
1007.395, 1681.225
1007.877, 1681.282
1008.359, 1678.811
1008.841, 1676.388
1009.323, 1674.914
1009.805, 1674.538
1010.288, 1676.019
1010.770, 1677.908
1011.252, 1678.401
1011.734, 1678.060
1012.216, 1678.008
1012.698, 1678.166
1013.180, 1677.592
1013.662, 1675.938
1014.145, 1674.062
1014.627, 1672.260
1015.109, 1671.336
1015.591, 1674.206
1016.073, 1679.256
1016.555, 1680.719
1017.037, 1678.281
1017.519, 1675.740
1018.001, 1674.987
1018.484, 1675.583
1018.966, 1677.348
1019.448, 1679.805
1019.930, 1681.140
1020.412, 1681.460
1020.894, 1681.809
1021.376, 1682.367
1021.858, 1683.422
1022.341, 1685.236
1022.823, 1686.964
1023.305, 1687.142
1023.787, 1685.957
1024.269, 1685.336
1024.751, 1685.340
1025.233, 1684.724
1025.715, 1683.129
1026.198, 1681.862
1026.680, 1681.839
1027.162, 1682.408
1027.644, 1682.208
1028.126, 1681.202
1028.608, 1681.758
1029.090, 1684.559
1029.572, 1685.353
1030.054, 1682.417
1030.536, 1679.770
1031.019, 1680.295
1031.501, 1682.736
1031.983, 1684.531
1032.465, 1685.686
1032.947, 1685.837
1033.429, 1684.209
1033.911, 1683.642
1034.393, 1685.239
1034.876, 1687.157
1035.358, 1688.151
1035.840, 1688.469
1036.322, 1688.563
1036.804, 1688.099
1037.286, 1689.136
1037.768, 1693.570
1038.250, 1696.038
1038.733, 1694.423
1039.215, 1691.667
1039.697, 1689.323
1040.179, 1687.561
1040.661, 1686.875
1041.143, 1687.482
1041.625, 1688.361
1042.107, 1690.291
1042.589, 1691.430
1043.072, 1690.411
1043.554, 1689.462
1044.036, 1690.979
1044.518, 1693.578
1045.000, 1693.522
1045.482, 1689.550
1045.964, 1687.590
1046.446, 1689.348
1046.928, 1691.401
1047.411, 1693.784
1047.893, 1695.334
1048.375, 1694.526
1048.857, 1692.393
1049.339, 1691.291
1049.821, 1691.445
1050.303, 1692.578
1050.785, 1696.172
1051.268, 1698.714
1051.750, 1698.221
1052.232, 1697.027
1052.714, 1697.195
1053.196, 1698.047
1053.678, 1697.809
1054.160, 1696.100
1054.642, 1694.111
1055.125, 1689.698
1055.607, 1688.193
1056.089, 1694.864
1056.571, 1702.258
1057.053, 1703.802
1057.535, 1701.417
1058.017, 1700.215
1058.499, 1701.295
1058.981, 1701.345
1059.464, 1697.472
1059.946, 1694.854
1060.428, 1696.695
1060.910, 1699.678
1061.392, 1700.592
1061.874, 1700.562
1062.356, 1703.044
1062.838, 1708.882
1063.320, 1712.182
1063.803, 1707.816
1064.285, 1704.402
1064.767, 1706.209
1065.249, 1710.172
1065.731, 1714.291
1066.213, 1718.278
1066.695, 1722.045
1067.177, 1725.582
1067.660, 1729.328
1068.142, 1733.813
1068.624, 1738.079
1069.106, 1742.193
1069.588, 1745.406
1070.070, 1746.034
1070.552, 1745.729
1071.034, 1747.521
1071.516, 1751.892
1071.999, 1756.805
1072.481, 1761.427
1072.963, 1766.369
1073.445, 1771.795
1073.927, 1777.791
1074.409, 1784.194
1074.891, 1791.316
1075.373, 1799.716
1075.855, 1809.414
1076.338, 1819.761
1076.820, 1830.024
1077.302, 1841.778
1077.784, 1857.283
1078.266, 1873.030
1078.748, 1886.643
1079.230, 1898.486
1079.712, 1909.720
1080.195, 1920.162
1080.677, 1927.681
1081.159, 1931.604
1081.641, 1932.132
1082.123, 1928.928
1082.605, 1922.744
1083.087, 1911.685
1083.569, 1899.507
1084.052, 1890.913
1084.534, 1886.070
1085.016, 1882.072
1085.498, 1876.887
1085.980, 1875.540
1086.462, 1882.338
1086.944, 1891.358
1087.426, 1898.786
1087.908, 1906.234
1088.391, 1915.763
1088.873, 1927.355
1089.355, 1939.865
1089.837, 1953.061
1090.319, 1966.925
1090.801, 1984.791
1091.283, 1999.466
1091.765, 2007.040
1092.248, 2009.362
1092.730, 2010.257
1093.212, 2007.444
1093.694, 1993.678
1094.176, 1966.332
1094.658, 1936.308
1095.140, 1905.665
1095.622, 1875.579
1096.104, 1844.107
1096.587, 1815.435
1097.069, 1793.071
1097.551, 1776.259
1098.033, 1763.434
1098.515, 1754.395
1098.997, 1746.780
1099.479, 1740.072
1099.961, 1734.456
1100.443, 1730.016
1100.926, 1726.638
1101.408, 1724.734
1101.890, 1723.651
1102.372, 1722.446
1102.854, 1721.031
1103.336, 1719.780
1103.818, 1719.497
1104.300, 1718.345
1104.783, 1715.023
1105.265, 1711.758
1105.747, 1709.289
1106.229, 1707.845
1106.711, 1708.227
1107.193, 1710.058
1107.675, 1710.612
1108.157, 1708.899
1108.640, 1707.125
1109.122, 1704.232
1109.604, 1702.960
1110.086, 1706.639
1110.568, 1710.575
1111.050, 1709.735
1111.532, 1705.263
1112.014, 1701.907
1112.496, 1700.019
1112.979, 1698.890
1113.461, 1699.058
1113.943, 1699.247
1114.425, 1699.878
1114.907, 1699.703
1115.389, 1696.178
1115.871, 1691.778
1116.353, 1692.873
1116.835, 1701.155
1117.318, 1704.790
1117.800, 1700.585
1118.282, 1697.665
1118.764, 1698.236
1119.246, 1698.993
1119.728, 1697.699
1120.210, 1695.963
1120.692, 1696.510
1121.175, 1699.274
1121.657, 1700.421
1122.139, 1699.074
1122.621, 1698.632
1123.103, 1699.796
1123.585, 1700.825
1124.067, 1700.967
1124.549, 1700.675
1125.031, 1700.385
1125.514, 1700.109
1125.996, 1699.843
1126.478, 1699.387
1126.960, 1700.143
1127.442, 1702.578
1127.924, 1704.008
1128.406, 1703.363
1128.888, 1702.642
1129.370, 1703.672
1129.853, 1705.197
1130.335, 1703.798
1130.817, 1699.487
1131.299, 1698.262
1131.781, 1700.295
1132.263, 1701.915
1132.745, 1702.442
1133.227, 1701.685
1133.710, 1699.357
1134.192, 1697.145
1134.674, 1697.677
1135.156, 1700.280
1135.638, 1702.580
1136.120, 1704.442
1136.602, 1704.458
1137.084, 1702.654
1137.567, 1701.054
1138.049, 1700.452
1138.531, 1700.041
1139.013, 1698.752
1139.495, 1697.895
1139.977, 1700.923
1140.459, 1706.222
1140.941, 1709.359
1141.423, 1710.408
1141.906, 1710.852
1142.388, 1711.061
1142.870, 1710.553
1143.352, 1708.921
1143.834, 1707.127
1144.316, 1706.145
1144.798, 1705.846
1145.280, 1706.194
1145.762, 1707.012
1146.245, 1708.639
1146.727, 1710.426
1147.209, 1709.667
1147.691, 1705.369
1148.173, 1702.394
1148.655, 1706.749
1149.137, 1711.412
1149.619, 1708.961
1150.102, 1704.463
1150.584, 1703.905
1151.066, 1705.993
1151.548, 1707.171
1152.030, 1706.722
1152.512, 1705.767
1152.994, 1703.960
1153.476, 1703.445
1153.958, 1706.474
1154.441, 1709.804
1154.923, 1711.759
1155.405, 1712.397
1155.887, 1711.023
1156.369, 1708.545
1156.851, 1708.238
1157.333, 1711.550
1157.815, 1713.739
1158.297, 1712.913
1158.780, 1712.017
1159.262, 1711.949
1159.744, 1712.186
1160.226, 1712.707
1160.708, 1713.127
1161.190, 1712.610
1161.672, 1711.072
1162.154, 1709.877
1162.637, 1708.159
1163.119, 1708.559
1163.601, 1713.064
1164.083, 1716.455
1164.565, 1715.787
1165.047, 1714.339
1165.529, 1715.803
1166.011, 1719.239
1166.494, 1720.708
1166.976, 1719.667
1167.458, 1719.472
1167.940, 1720.331
1168.422, 1721.230
1168.904, 1722.195
1169.386, 1721.392
1169.868, 1717.163
1170.350, 1712.287
1170.833, 1711.693
1171.315, 1714.513
1171.797, 1715.815
1172.279, 1715.665
1172.761, 1713.950
1173.243, 1711.019
1173.725, 1711.887
1174.207, 1718.344
1174.689, 1724.233
1175.172, 1723.715
1175.654, 1720.068
1176.136, 1717.503
1176.618, 1716.750
1177.100, 1721.603
1177.582, 1729.345
1178.064, 1731.977
1178.546, 1728.772
1179.029, 1724.763
1179.511, 1722.325
1179.993, 1720.986
1180.475, 1720.674
1180.957, 1720.897
1181.439, 1721.189
1181.921, 1721.712
1182.403, 1723.313
1182.885, 1725.114
1183.368, 1724.660
1183.850, 1721.794
1184.332, 1720.564
1184.814, 1724.049
1185.296, 1726.845
1185.778, 1727.253
1186.260, 1725.719
1186.742, 1719.980
1187.225, 1714.416
1187.707, 1714.744
1188.189, 1719.348
1188.671, 1721.617
1189.153, 1720.437
1189.635, 1718.895
1190.117, 1715.877
1190.599, 1714.541
1191.082, 1716.615
1191.564, 1718.741
1192.046, 1719.308
1192.528, 1718.711
1193.010, 1717.055
1193.492, 1714.688
1193.974, 1714.778
1194.456, 1718.117
1194.938, 1719.652
1195.421, 1718.888
1195.903, 1717.704
1196.385, 1716.555
1196.867, 1715.784
1197.349, 1715.630
1197.831, 1716.047
1198.313, 1717.123
1198.795, 1718.659
1199.277, 1719.460
1199.760, 1719.806
1200.242, 1721.854
1200.724, 1725.295
1201.206, 1726.170
1201.688, 1723.206
1202.170, 1720.174
1202.652, 1720.226
1203.134, 1721.620
1203.617, 1722.742
1204.099, 1723.370
1204.581, 1722.556
1205.063, 1721.304
1205.545, 1721.739
1206.027, 1723.640
1206.509, 1725.015
1206.991, 1725.124
1207.474, 1724.993
1207.956, 1725.674
1208.438, 1725.589
1208.920, 1722.959
1209.402, 1720.199
1209.884, 1719.138
1210.366, 1719.269
1210.848, 1720.443
1211.330, 1722.242
1211.813, 1721.298
1212.295, 1714.019
1212.777, 1710.599
1213.259, 1712.946
1213.741, 1716.522
1214.223, 1721.450
1214.705, 1725.329
1215.187, 1726.515
1215.669, 1725.543
1216.152, 1723.057
1216.634, 1719.220
1217.116, 1716.960
1217.598, 1716.406
1218.080, 1716.109
1218.562, 1715.959
1219.044, 1715.678
1219.526, 1715.170
1220.009, 1714.302
1220.491, 1712.808
1220.973, 1711.671
1221.455, 1713.322
1221.937, 1712.536
1222.419, 1716.298
1222.901, 1714.686
1223.383, 1716.096
1223.865, 1720.105
1224.348, 1722.813
1224.830, 1722.878
1225.312, 1721.729
1225.794, 1719.683
1226.276, 1717.966
1226.758, 1717.055
1227.240, 1717.327
1227.722, 1720.326
1228.204, 1723.871
1228.687, 1724.955
1229.169, 1723.968
1229.651, 1723.301
1230.133, 1723.590
1230.615, 1723.021
1231.097, 1719.566
1231.579, 1717.795
1232.061, 1720.099
1232.544, 1722.375
1233.026, 1722.574
1233.508, 1722.153
1233.990, 1722.950
1234.472, 1724.423
1234.954, 1724.214
1235.436, 1722.115
1235.918, 1719.345
1236.401, 1715.633
1236.883, 1714.448
1237.365, 1716.592
1237.847, 1719.655
1238.329, 1722.476
1238.811, 1723.213
1239.293, 1718.471
1239.775, 1721.863
1240.257, 1715.551
1240.740, 1723.576
1241.222, 1727.826
1241.704, 1728.311
1242.186, 1725.867
1242.668, 1721.720
1243.150, 1719.445
1243.632, 1720.666
1244.114, 1722.841
1244.596, 1725.556
1245.079, 1727.064
1245.561, 1724.309
1246.043, 1721.798
1246.525, 1724.424
1247.007, 1729.193
1247.489, 1731.403
1247.971, 1730.988
1248.453, 1730.698
1248.936, 1731.540
1249.418, 1730.438
1249.900, 1724.990
1250.382, 1722.471
1250.864, 1726.161
1251.346, 1728.952
1251.828, 1726.357
1252.310, 1721.956
1252.792, 1720.278
1253.275, 1721.070
1253.757, 1724.153
1254.239, 1729.126
1254.721, 1730.183
1255.203, 1727.606
1255.685, 1725.830
1256.167, 1725.828
1256.649, 1726.571
1257.131, 1727.529
1257.614, 1728.189
1258.096, 1727.393
1258.578, 1726.850
1259.060, 1729.453
1259.542, 1732.724
1260.024, 1733.510
1260.506, 1732.689
1260.988, 1731.566
1261.471, 1730.759
1261.953, 1731.820
1262.435, 1736.022
1262.917, 1737.979
1263.399, 1734.011
1263.881, 1731.016
1264.363, 1731.408
1264.845, 1732.549
1265.328, 1733.369
1265.810, 1733.963
1266.292, 1734.370
1266.774, 1734.684
1267.256, 1735.411
1267.738, 1735.474
1268.220, 1735.478
1268.702, 1735.781
1269.184, 1735.169
1269.667, 1735.259
1270.149, 1735.298
1270.631, 1734.941
1271.113, 1734.609
1271.595, 1734.719
1272.077, 1735.036
1272.559, 1734.996
1273.041, 1735.106
1273.523, 1736.592
1274.006, 1738.550
1274.488, 1738.885
1274.970, 1738.190
1275.452, 1739.496
1275.934, 1743.622
1276.416, 1745.702
1276.898, 1741.509
1277.380, 1738.713
1277.863, 1740.518
1278.345, 1742.754
1278.827, 1744.034
1279.309, 1744.273
1279.791, 1742.437
1280.273, 1740.302
1280.755, 1742.426
1281.237, 1748.708
1281.719, 1750.009
1282.202, 1745.787
1282.684, 1744.061
1283.166, 1745.621
1283.648, 1747.838
1284.130, 1749.786
1284.612, 1750.547
1285.094, 1749.367
1285.576, 1747.824
1286.059, 1747.902
1286.541, 1748.651
1287.023, 1749.490
1287.505, 1750.715
##END=



