##NAMES=Andradite
##RRUFFID=R040001
##IDEAL CHEMISTRY=Ca_3_Fe^3+^_2_(SiO_4_)_3_
##LOCALITY=Stanley Butte, Graham County, Arizona, USA
##OWNER=RRUFF
##SOURCE=University of Arizona Mineral Museum
##DESCRIPTION=Brownish-orange dodecahedra
##STATUS=The identification of this mineral has been confirmed by X-ray diffraction and chemical analysis
##URL=rruff.info/R040001
##MEASURED CHEMISTRY=Ca_3.00_(Fe_1.96_Al_0.04_)_Î£=2_(SiO_4_)_3_ ; trace amounts of Mn
122.4867, 588.0137
122.9688, 625.4272
123.4509, 647.3790
123.9330, 661.6961
124.4151, 676.4457
124.8972, 691.9037
125.3794, 709.9902
125.8615, 736.0328
126.3436, 767.9772
126.8257, 796.8147
127.3078, 814.7916
127.7899, 825.0388
128.2721, 834.4868
128.7542, 844.1426
129.2363, 854.3486
129.7184, 868.3367
130.2005, 886.4828
130.6826, 900.5282
131.1648, 900.0143
131.6469, 886.7747
132.1290, 873.8414
132.6111, 864.9871
133.0932, 860.0124
133.5753, 858.2629
134.0575, 859.7046
134.5396, 864.4937
135.0217, 873.3170
135.5038, 886.3707
135.9859, 901.4408
136.4680, 916.9275
136.9501, 932.7390
137.4323, 953.1818
137.9144, 981.1358
138.3965, 1011.617
138.8786, 1029.674
139.3607, 1032.243
139.8428, 1031.064
140.3250, 1032.602
140.8071, 1036.439
141.2892, 1044.994
141.7713, 1060.743
142.2534, 1082.600
142.7355, 1097.526
143.2177, 1102.345
143.6998, 1104.007
144.1819, 1108.547
144.6640, 1116.468
145.1461, 1126.539
145.6283, 1140.758
146.1104, 1161.197
146.5925, 1171.458
147.0746, 1165.236
147.5567, 1151.480
148.0388, 1142.759
148.5210, 1140.842
149.0031, 1142.018
149.4852, 1144.905
149.9673, 1147.162
150.4494, 1155.840
150.9315, 1177.593
151.4137, 1206.114
151.8958, 1225.936
152.3779, 1223.250
152.8600, 1222.097
153.3421, 1232.261
153.8242, 1271.238
154.3064, 1302.164
154.7885, 1316.803
155.2706, 1318.211
155.7527, 1325.443
156.2348, 1337.131
156.7169, 1358.141
157.1990, 1391.641
157.6812, 1440.158
158.1633, 1499.443
158.6454, 1567.777
159.1275, 1644.192
159.6096, 1733.993
160.0917, 1836.029
160.5739, 1952.485
161.0560, 2085.656
161.5381, 2238.465
162.0202, 2406.204
162.5023, 2588.082
162.9844, 2782.621
163.4666, 2988.502
163.9487, 3207.741
164.4308, 3437.268
164.9129, 3672.093
165.3950, 3895.946
165.8771, 4132.850
166.3593, 4399.609
166.8414, 4702.411
167.3235, 5028.415
167.8056, 5369.529
168.2877, 5729.633
168.7698, 6119.126
169.2520, 6577.072
169.7341, 7053.876
170.2162, 7515.556
170.6983, 8014.990
171.1804, 8405.752
171.6625, 8599.705
172.1447, 8595.459
172.6268, 8383.485
173.1089, 7856.369
173.5910, 7136.672
174.0731, 6394.589
174.5552, 5632.596
175.0374, 4903.793
175.5195, 4285.356
176.0016, 3770.040
176.4837, 3337.577
176.9658, 2988.421
177.4479, 2712.844
177.9300, 2493.492
178.4122, 2343.165
178.8943, 2239.278
179.3764, 2146.608
179.8585, 2065.099
180.3406, 1994.229
180.8227, 1935.944
181.3049, 1889.283
181.7870, 1848.124
182.2691, 1810.325
182.7512, 1776.095
183.2333, 1746.190
183.7154, 1720.768
184.1976, 1699.978
184.6797, 1686.511
185.1618, 1679.419
185.6439, 1671.484
186.1260, 1657.134
186.6081, 1637.950
187.0903, 1619.959
187.5724, 1603.443
188.0545, 1588.816
188.5366, 1576.060
189.0187, 1565.290
189.5008, 1556.539
189.9830, 1551.081
190.4651, 1548.435
190.9472, 1544.551
191.4293, 1538.362
191.9114, 1530.818
192.3935, 1523.750
192.8757, 1517.135
193.3578, 1511.598
193.8399, 1509.915
194.3220, 1511.902
194.8041, 1507.830
195.2862, 1493.074
195.7684, 1470.535
196.2505, 1454.120
196.7326, 1444.876
197.2147, 1437.862
197.6968, 1426.646
198.1789, 1410.740
198.6610, 1398.511
199.1432, 1393.141
199.6253, 1394.273
200.1074, 1397.564
200.5895, 1404.292
201.0716, 1410.303
201.5537, 1408.456
202.0359, 1397.112
202.5180, 1387.455
203.0001, 1383.854
203.4822, 1386.600
203.9643, 1389.784
204.4464, 1393.494
204.9286, 1397.357
205.4107, 1400.182
205.8928, 1401.168
206.3749, 1403.925
206.8570, 1410.094
207.3391, 1419.965
207.8213, 1432.097
208.3034, 1447.527
208.7855, 1464.285
209.2676, 1476.938
209.7497, 1483.542
210.2318, 1491.423
210.7140, 1504.416
211.1961, 1523.094
211.6782, 1544.378
212.1603, 1568.216
212.6424, 1594.423
213.1245, 1621.876
213.6067, 1649.524
214.0888, 1680.004
214.5709, 1714.153
215.0530, 1750.899
215.5351, 1795.234
216.0172, 1849.292
216.4994, 1911.246
216.9815, 1974.760
217.4636, 2037.697
217.9457, 2104.318
218.4278, 2175.910
218.9099, 2247.161
219.3920, 2335.632
219.8742, 2447.807
220.3563, 2579.778
220.8384, 2712.405
221.3205, 2836.479
221.8026, 2972.200
222.2847, 3133.324
222.7669, 3321.150
223.2490, 3534.691
223.7311, 3773.394
224.2132, 4040.552
224.6953, 4324.228
225.1774, 4635.247
225.6596, 4956.032
226.1417, 5274.632
226.6238, 5585.653
227.1059, 5900.065
227.5880, 6224.973
228.0701, 6559.947
228.5523, 6887.604
229.0344, 7200.780
229.5165, 7511.547
229.9986, 7834.862
230.4807, 8157.119
230.9628, 8512.355
231.4450, 8914.678
231.9271, 9374.400
232.4092, 9824.172
232.8913, 10312.12
233.3734, 10761.41
233.8555, 11083.25
234.3377, 11313.58
234.8198, 11360.03
235.3019, 11185.93
235.7840, 10770.76
236.2661, 10232.38
236.7482, 9530.197
237.2304, 8739.233
237.7125, 7968.520
238.1946, 7192.315
238.6767, 6480.886
239.1588, 5851.016
239.6409, 5314.586
240.1230, 4829.994
240.6052, 4401.796
241.0873, 4026.824
241.5694, 3705.965
242.0515, 3453.606
242.5336, 3232.619
243.0157, 3030.202
243.4979, 2843.102
243.9800, 2685.018
244.4621, 2561.862
244.9442, 2465.559
245.4263, 2378.050
245.9084, 2301.178
246.3906, 2230.109
246.8727, 2161.825
247.3548, 2091.559
247.8369, 2037.262
248.3190, 2003.874
248.8011, 1984.839
249.2833, 1964.182
249.7654, 1938.820
250.2475, 1917.305
250.7296, 1902.145
251.2117, 1889.931
251.6938, 1892.888
252.1760, 1914.814
252.6581, 1950.735
253.1402, 1989.259
253.6223, 2029.138
254.1044, 2074.041
254.5865, 2126.140
255.0687, 2189.519
255.5508, 2249.633
256.0329, 2301.596
256.5150, 2351.559
256.9971, 2418.430
257.4792, 2510.751
257.9614, 2606.101
258.4435, 2691.941
258.9256, 2758.680
259.4077, 2843.334
259.8898, 2952.285
260.3719, 3079.030
260.8541, 3206.572
261.3362, 3339.665
261.8183, 3466.392
262.3004, 3588.445
262.7825, 3718.505
263.2646, 3800.462
263.7468, 3832.652
264.2289, 3814.001
264.7110, 3736.223
265.1931, 3587.890
265.6752, 3405.982
266.1573, 3198.331
266.6395, 2951.373
267.1216, 2738.339
267.6037, 2569.722
268.0858, 2437.484
268.5679, 2313.909
269.0500, 2198.348
269.5321, 2098.635
270.0143, 2020.167
270.4964, 1966.024
270.9785, 1921.170
271.4606, 1885.546
271.9427, 1857.600
272.4248, 1832.693
272.9070, 1811.110
273.3891, 1791.680
273.8712, 1772.655
274.3533, 1753.230
274.8354, 1740.534
275.3175, 1735.726
275.7997, 1737.706
276.2818, 1745.093
276.7639, 1759.312
277.2460, 1773.015
277.7281, 1780.574
278.2102, 1781.326
278.6924, 1784.636
279.1745, 1790.725
279.6566, 1800.317
280.1387, 1816.051
280.6208, 1838.566
281.1029, 1863.227
281.5851, 1887.105
282.0672, 1910.190
282.5493, 1934.663
283.0314, 1960.406
283.5135, 1988.050
283.9956, 2017.645
284.4778, 2048.791
284.9599, 2086.664
285.4420, 2138.242
285.9241, 2202.116
286.4062, 2257.703
286.8883, 2299.252
287.3705, 2337.358
287.8526, 2392.756
288.3347, 2465.525
288.8168, 2542.813
289.2989, 2618.766
289.7810, 2692.982
290.2632, 2760.133
290.7453, 2816.652
291.2274, 2870.972
291.7095, 2937.919
292.1916, 3016.681
292.6737, 3096.662
293.1559, 3173.616
293.6380, 3246.334
294.1201, 3312.010
294.6022, 3370.444
295.0843, 3422.274
295.5664, 3467.822
296.0486, 3507.918
296.5307, 3545.863
297.0128, 3574.948
297.4949, 3604.448
297.9770, 3653.581
298.4591, 3723.330
298.9413, 3816.922
299.4234, 3935.480
299.9055, 4080.540
300.3876, 4253.534
300.8697, 4454.906
301.3518, 4683.974
301.8340, 4944.807
302.3161, 5240.882
302.7982, 5557.071
303.2803, 5889.835
303.7624, 6233.142
304.2445, 6581.729
304.7267, 6908.538
305.2088, 7244.018
305.6909, 7632.388
306.1730, 8074.391
306.6551, 8559.869
307.1372, 9079.380
307.6194, 9634.328
308.1015, 10216.95
308.5836, 10855.05
309.0657, 11501.48
309.5478, 12150.86
310.0299, 12809.08
310.5120, 13351.93
310.9941, 13769.24
311.4763, 13999.16
311.9584, 13954.34
312.4405, 13507.88
312.9226, 12836.87
313.4047, 11997.95
313.8868, 10979.92
314.3690, 9994.839
314.8511, 9109.533
315.3332, 8328.106
315.8153, 7658.040
316.2974, 7098.848
316.7795, 6643.141
317.2617, 6304.500
317.7438, 6079.294
318.2259, 5918.399
318.7080, 5812.276
319.1901, 5758.583
319.6722, 5755.238
320.1544, 5814.241
320.6365, 5911.473
321.1186, 6047.886
321.6007, 6221.600
322.0828, 6405.111
322.5649, 6618.292
323.0471, 6823.876
323.5292, 6995.858
324.0113, 7182.084
324.4934, 7277.905
324.9755, 7244.064
325.4576, 7092.881
325.9398, 6909.099
326.4219, 6673.808
326.9040, 6425.599
327.3861, 6185.089
327.8682, 5913.292
328.3503, 5697.237
328.8325, 5549.397
329.3146, 5462.959
329.7967, 5401.197
330.2788, 5362.294
330.7609, 5349.958
331.2430, 5366.229
331.7252, 5413.488
332.2073, 5485.231
332.6894, 5586.166
333.1715, 5711.916
333.6536, 5845.218
334.1357, 5980.687
334.6179, 6135.005
335.1000, 6313.300
335.5821, 6508.796
336.0642, 6743.381
336.5463, 7015.094
337.0284, 7328.666
337.5106, 7697.864
337.9927, 8128.148
338.4748, 8590.859
338.9569, 9068.905
339.4390, 9553.561
339.9211, 10117.60
340.4033, 10769.05
340.8854, 11479.72
341.3675, 12186.26
341.8496, 12894.67
342.3317, 13627.42
342.8138, 14392.41
343.2960, 15187.37
343.7781, 16047.35
344.2602, 16964.60
344.7423, 17952.46
345.2244, 19017.83
345.7065, 20159.69
346.1887, 21360.76
346.6708, 22621.82
347.1529, 23939.63
347.6350, 25295.01
348.1171, 26683.91
348.5992, 28046.23
349.0814, 29417.95
349.5635, 30708.27
350.0456, 31705.99
350.5277, 32346.93
351.0098, 32658.27
351.4919, 32655.74
351.9740, 32345.52
352.4561, 31793.53
352.9383, 30880.94
353.4204, 29796.27
353.9025, 28820.54
354.3846, 27982.00
354.8667, 27325.98
355.3488, 26874.55
355.8310, 26637.58
356.3131, 26639.97
356.7952, 26925.04
357.2773, 27444.85
357.7594, 28161.88
358.2415, 29074.39
358.7237, 30170.52
359.2058, 31479.03
359.6879, 32963.35
360.1700, 34557.67
360.6521, 36256.45
361.1342, 38039.45
361.6164, 39904.88
362.0985, 41847.73
362.5806, 43897.40
363.0627, 46140.24
363.5448, 48469.24
364.0269, 50759.82
364.5091, 52996.89
364.9912, 55184.94
365.4733, 57361.64
365.9554, 59547.52
366.4375, 61475.85
366.9196, 63298.30
367.4018, 64743.29
367.8839, 65622.80
368.3660, 66012.38
368.8481, 65725.70
369.3302, 64708.74
369.8123, 62974.62
370.2945, 60730.34
370.7766, 57792.13
371.2587, 54504.10
371.7408, 51005.20
372.2229, 47150.46
372.7050, 43426.15
373.1872, 39780.33
373.6693, 36317.62
374.1514, 33132.69
374.6335, 30215.87
375.1156, 27587.19
375.5977, 25245.25
376.0799, 23199.78
376.5620, 21373.87
377.0441, 19764.15
377.5262, 18352.10
378.0083, 17111.59
378.4904, 16038.16
378.9726, 15095.95
379.4547, 14274.18
379.9368, 13573.88
380.4189, 12955.26
380.9010, 12434.69
381.3831, 11944.19
381.8653, 11431.27
382.3474, 10891.06
382.8295, 10335.78
383.3116, 9742.984
383.7937, 9148.109
384.2758, 8612.780
384.7580, 8136.646
385.2401, 7698.697
385.7222, 7262.260
386.2043, 6845.227
386.6864, 6485.101
387.1685, 6198.586
387.6507, 5951.419
388.1328, 5710.450
388.6149, 5474.911
389.0970, 5256.207
389.5791, 5058.566
390.0612, 4878.701
390.5434, 4718.141
391.0255, 4580.342
391.5076, 4451.705
391.9897, 4318.809
392.4718, 4189.335
392.9539, 4075.352
393.4360, 3993.229
393.9182, 3920.234
394.4003, 3846.170
394.8824, 3770.694
395.3645, 3693.318
395.8466, 3604.500
396.3287, 3517.604
396.8109, 3445.608
397.2930, 3407.229
397.7751, 3367.583
398.2572, 3317.003
398.7393, 3255.911
399.2214, 3202.167
399.7036, 3162.934
400.1857, 3126.040
400.6678, 3084.061
401.1499, 3027.065
401.6320, 2981.613
402.1141, 2954.378
402.5963, 2938.538
403.0784, 2911.957
403.5605, 2867.572
404.0426, 2825.562
404.5247, 2796.902
405.0068, 2785.820
405.4890, 2766.529
405.9711, 2737.065
406.4532, 2702.061
406.9353, 2665.959
407.4174, 2627.987
407.8995, 2595.768
408.3817, 2574.470
408.8638, 2561.625
409.3459, 2542.794
409.8280, 2517.353
410.3101, 2490.043
410.7922, 2468.285
411.2744, 2449.703
411.7565, 2423.135
412.2386, 2381.304
412.7207, 2334.977
413.2028, 2300.646
413.6849, 2277.212
414.1671, 2259.602
414.6492, 2246.612
415.1313, 2236.372
415.6134, 2227.131
416.0955, 2220.035
416.5776, 2209.193
417.0598, 2185.032
417.5419, 2153.858
418.0240, 2127.931
418.5061, 2116.088
418.9882, 2109.142
419.4703, 2102.785
419.9525, 2096.831
420.4346, 2088.906
420.9167, 2077.593
421.3988, 2064.143
421.8809, 2049.485
422.3630, 2029.354
422.8452, 2012.973
423.3273, 2004.331
423.8094, 2002.658
424.2915, 1999.859
424.7736, 1994.361
425.2557, 1988.286
425.7379, 1982.477
426.2200, 1974.441
426.7021, 1970.737
427.1842, 1972.113
427.6663, 1977.517
428.1484, 1984.775
428.6306, 1994.246
429.1127, 2005.061
429.5948, 2018.149
430.0769, 2033.906
430.5590, 2043.020
431.0411, 2042.461
431.5233, 2041.547
432.0054, 2051.778
432.4875, 2073.507
432.9696, 2096.877
433.4517, 2118.782
433.9338, 2141.002
434.4159, 2169.445
434.8980, 2204.143
435.3802, 2240.251
435.8623, 2271.342
436.3444, 2301.185
436.8265, 2339.912
437.3086, 2390.814
437.7907, 2446.407
438.2729, 2496.586
438.7550, 2544.438
439.2371, 2598.466
439.7192, 2661.627
440.2013, 2733.730
440.6834, 2817.788
441.1656, 2913.814
441.6477, 3009.838
442.1298, 3092.943
442.6119, 3174.674
443.0940, 3267.481
443.5761, 3381.252
444.0583, 3500.993
444.5404, 3621.195
445.0225, 3741.967
445.5046, 3867.419
445.9867, 4005.314
446.4688, 4143.399
446.9510, 4274.357
447.4331, 4398.663
447.9152, 4516.941
448.3973, 4641.067
448.8794, 4754.190
449.3615, 4834.398
449.8437, 4885.490
450.3258, 4896.987
450.8079, 4867.555
451.2900, 4797.352
451.7721, 4671.137
452.2542, 4474.916
452.7364, 4255.044
453.2185, 4058.340
453.7006, 3887.090
454.1827, 3704.473
454.6648, 3498.264
455.1469, 3285.714
455.6291, 3109.148
456.1112, 2967.302
456.5933, 2850.591
457.0754, 2762.715
457.5575, 2695.974
458.0396, 2636.432
458.5218, 2582.510
459.0039, 2535.683
459.4860, 2497.042
459.9681, 2466.210
460.4502, 2443.256
460.9323, 2432.763
461.4145, 2426.629
461.8966, 2418.014
462.3787, 2407.603
462.8608, 2400.881
463.3429, 2402.171
463.8250, 2407.153
464.3072, 2412.487
464.7893, 2416.782
465.2714, 2422.664
465.7535, 2431.907
466.2356, 2443.085
466.7177, 2453.160
467.1999, 2453.880
467.6820, 2461.293
468.1641, 2482.063
468.6462, 2519.040
469.1283, 2549.905
469.6104, 2572.388
470.0926, 2591.263
470.5747, 2609.347
471.0568, 2623.354
471.5389, 2646.976
472.0210, 2684.290
472.5031, 2731.512
472.9853, 2776.353
473.4674, 2818.779
473.9495, 2860.771
474.4316, 2897.498
474.9137, 2932.586
475.3958, 2989.514
475.8779, 3071.700
476.3600, 3166.550
476.8422, 3260.123
477.3243, 3353.992
477.8064, 3451.443
478.2885, 3545.610
478.7706, 3649.518
479.2527, 3779.687
479.7349, 3933.958
480.2170, 4099.746
480.6991, 4268.446
481.1812, 4443.823
481.6633, 4626.189
482.1454, 4809.527
482.6276, 5015.942
483.1097, 5263.231
483.5918, 5535.865
484.0739, 5809.139
484.5560, 6052.968
485.0381, 6317.502
485.5203, 6621.016
486.0024, 6968.200
486.4845, 7307.655
486.9666, 7623.590
487.4487, 7945.522
487.9308, 8300.183
488.4130, 8716.344
488.8951, 9103.229
489.3772, 9464.095
489.8593, 9794.987
490.3414, 10091.50
490.8235, 10364.14
491.3057, 10558.37
491.7878, 10652.45
492.2699, 10648.24
492.7520, 10541.10
493.2341, 10327.12
493.7162, 10049.55
494.1984, 9734.014
494.6805, 9387.975
495.1626, 9042.000
495.6447, 8690.502
496.1268, 8356.194
496.6089, 8045.275
497.0911, 7764.291
497.5732, 7523.501
498.0553, 7320.082
498.5374, 7167.849
499.0195, 7084.256
499.5016, 7073.723
499.9838, 7106.475
500.4659, 7162.412
500.9480, 7258.778
501.4301, 7413.424
501.9122, 7641.738
502.3943, 7914.614
502.8765, 8224.438
503.3586, 8574.351
503.8407, 8973.003
504.3228, 9415.064
504.8049, 9912.008
505.2870, 10465.56
505.7692, 11069.05
506.2513, 11750.37
506.7334, 12509.67
507.2155, 13339.83
507.6976, 14223.66
508.1797, 15157.70
508.6619, 16193.27
509.1440, 17345.30
509.6261, 18604.48
510.1082, 19959.08
510.5903, 21407.60
511.0724, 22919.56
511.5546, 24552.46
512.0367, 26211.35
512.5188, 27819.15
513.0009, 29414.34
513.4830, 30711.84
513.9651, 31557.21
514.4473, 31936.19
514.9294, 31827.60
515.4115, 31149.53
515.8936, 30047.07
516.3757, 28435.01
516.8578, 26407.17
517.3400, 24344.71
517.8221, 22214.89
518.3042, 20186.91
518.7863, 18338.83
519.2684, 16690.77
519.7505, 15195.68
520.2327, 13879.98
520.7148, 12709.86
521.1969, 11673.59
521.6790, 10783.63
522.1611, 9982.018
522.6432, 9261.779
523.1254, 8618.977
523.6075, 8055.183
524.0896, 7575.724
524.5717, 7152.714
525.0538, 6778.003
525.5359, 6450.479
526.0181, 6146.105
526.5002, 5861.839
526.9823, 5606.398
527.4644, 5390.473
527.9465, 5207.819
528.4286, 5042.224
528.9108, 4890.611
529.3929, 4748.722
529.8750, 4612.787
530.3571, 4483.357
530.8392, 4367.937
531.3214, 4269.946
531.8035, 4186.071
532.2856, 4113.010
532.7677, 4050.844
533.2498, 3997.461
533.7319, 3953.175
534.2141, 3916.904
534.6962, 3886.964
535.1783, 3866.697
535.6604, 3847.981
536.1425, 3828.821
536.6246, 3810.563
537.1067, 3796.509
537.5888, 3785.089
538.0709, 3782.547
538.5530, 3793.810
539.0352, 3818.545
539.5173, 3843.847
539.9994, 3869.092
540.4815, 3895.913
540.9636, 3925.065
541.4457, 3957.073
541.9279, 3992.360
542.4100, 4028.985
542.8921, 4072.429
543.3742, 4132.661
543.8563, 4205.049
544.3384, 4275.382
544.8206, 4328.961
545.3027, 4383.198
545.7848, 4450.615
546.2669, 4532.622
546.7490, 4618.123
547.2311, 4703.457
547.7133, 4790.175
548.1954, 4881.334
548.6775, 4980.938
549.1596, 5080.060
549.6417, 5187.696
550.1238, 5292.182
550.6060, 5371.507
551.0881, 5430.241
551.5702, 5453.830
552.0523, 5436.391
552.5344, 5379.257
553.0165, 5297.861
553.4987, 5193.234
553.9808, 5058.938
554.4629, 4876.186
554.9450, 4655.450
555.4271, 4442.927
555.9092, 4244.991
556.3914, 4061.764
556.8735, 3899.224
557.3556, 3753.704
557.8377, 3618.690
558.3198, 3490.773
558.8019, 3372.385
559.2841, 3268.120
559.7662, 3177.073
560.2483, 3091.535
560.7304, 3003.091
561.2125, 2923.484
561.6946, 2860.122
562.1768, 2819.212
562.6589, 2781.903
563.1410, 2745.319
563.6231, 2712.989
564.1052, 2687.993
564.5873, 2669.695
565.0695, 2660.693
565.5516, 2663.642
566.0337, 2675.034
566.5158, 2681.747
566.9979, 2682.491
567.4800, 2689.797
567.9622, 2711.850
568.4443, 2746.079
568.9264, 2782.517
569.4085, 2821.406
569.8906, 2861.645
570.3727, 2898.993
570.8549, 2938.106
571.3370, 2988.689
571.8191, 3055.624
572.3012, 3127.854
572.7833, 3206.530
573.2654, 3284.186
573.7476, 3345.308
574.2297, 3382.463
574.7118, 3405.656
575.1939, 3422.925
575.6760, 3434.278
576.1581, 3414.128
576.6403, 3350.262
577.1224, 3267.770
577.6045, 3178.086
578.0866, 3078.472
578.5687, 2976.398
579.0508, 2870.155
579.5330, 2766.776
580.0151, 2675.249
580.4972, 2595.839
580.9793, 2520.414
581.4614, 2445.742
581.9435, 2374.975
582.4257, 2318.470
582.9078, 2274.024
583.3899, 2232.460
583.8720, 2185.495
584.3541, 2140.672
584.8362, 2106.287
585.3184, 2083.244
585.8005, 2062.175
586.2826, 2035.468
586.7647, 2010.381
587.2468, 1992.866
587.7289, 1989.607
588.2111, 1985.683
588.6932, 1981.951
589.1753, 1975.842
589.6574, 1962.164
590.1395, 1934.650
590.6216, 1912.174
591.1038, 1901.083
591.5859, 1898.597
592.0680, 1887.856
592.5501, 1867.489
593.0322, 1847.754
593.5143, 1838.839
593.9965, 1836.637
594.4786, 1821.500
594.9607, 1790.854
595.4428, 1762.165
595.9249, 1753.677
596.4070, 1757.658
596.8892, 1762.440
597.3713, 1769.216
597.8534, 1768.648
598.3355, 1747.312
598.8176, 1715.115
599.2997, 1693.025
599.7819, 1697.528
600.2640, 1702.940
600.7461, 1700.908
601.2282, 1691.215
601.7103, 1681.303
602.1924, 1671.725
602.6746, 1661.168
603.1567, 1647.299
603.6388, 1628.035
604.1209, 1620.012
604.6030, 1626.889
605.0851, 1635.664
605.5673, 1627.582
606.0494, 1605.305
606.5315, 1585.918
607.0136, 1573.816
607.4957, 1566.075
607.9778, 1562.075
608.4600, 1559.695
608.9421, 1552.518
609.4242, 1535.163
609.9063, 1513.616
610.3884, 1488.724
610.8705, 1460.730
611.3527, 1440.454
611.8348, 1435.206
612.3169, 1435.238
612.7990, 1435.173
613.2811, 1436.447
613.7632, 1433.600
614.2454, 1424.078
614.7275, 1413.162
615.2096, 1409.353
615.6917, 1414.631
616.1738, 1412.867
616.6559, 1398.488
617.1381, 1378.103
617.6202, 1365.094
618.1023, 1359.104
618.5844, 1355.875
619.0665, 1352.565
619.5486, 1351.053
620.0307, 1358.662
620.5128, 1374.036
620.9949, 1378.815
621.4771, 1346.443
621.9592, 1309.248
622.4413, 1293.526
622.9234, 1311.985
623.4055, 1328.195
623.8876, 1336.293
624.3698, 1338.376
624.8519, 1336.330
625.3340, 1327.464
625.8161, 1319.744
626.2982, 1313.805
626.7803, 1309.717
627.2625, 1308.563
627.7446, 1310.721
628.2267, 1311.408
628.7088, 1307.174
629.1909, 1300.458
629.6730, 1297.660
630.1552, 1298.647
630.6373, 1302.081
631.1194, 1312.264
631.6015, 1321.635
632.0836, 1319.232
632.5657, 1300.954
633.0479, 1287.214
633.5300, 1296.655
634.0121, 1310.953
634.4942, 1312.343
634.9763, 1278.031
635.4584, 1256.660
635.9406, 1258.309
636.4227, 1271.721
636.9048, 1274.697
637.3869, 1264.390
637.8690, 1252.096
638.3511, 1239.583
638.8333, 1228.049
639.3154, 1224.177
639.7975, 1227.941
640.2796, 1230.261
640.7617, 1222.812
641.2438, 1210.841
641.7260, 1202.499
642.2081, 1198.374
642.6902, 1197.776
643.1723, 1206.186
643.6544, 1214.855
644.1365, 1214.973
644.6187, 1200.464
645.1008, 1185.373
645.5829, 1167.066
646.0650, 1152.137
646.5471, 1150.861
647.0292, 1176.694
647.5114, 1190.919
647.9935, 1183.413
648.4756, 1161.759
648.9577, 1150.820
649.4398, 1151.256
649.9219, 1153.646
650.4041, 1154.831
650.8862, 1154.379
651.3683, 1150.886
651.8504, 1144.469
652.3325, 1136.188
652.8146, 1123.040
653.2968, 1110.739
653.7789, 1105.725
654.2610, 1109.979
654.7431, 1116.155
655.2252, 1125.073
655.7073, 1132.626
656.1895, 1134.697
656.6716, 1123.849
657.1537, 1117.673
657.6358, 1120.404
658.1179, 1125.776
658.6000, 1120.061
659.0822, 1099.559
659.5643, 1086.946
660.0464, 1091.829
660.5285, 1106.206
661.0106, 1107.676
661.4927, 1097.633
661.9749, 1087.164
662.4570, 1081.996
662.9391, 1080.455
663.4212, 1081.419
663.9033, 1084.749
664.3854, 1088.278
664.8676, 1094.757
665.3497, 1098.337
665.8318, 1093.698
666.3139, 1074.815
666.7960, 1061.516
667.2781, 1055.724
667.7603, 1055.094
668.2424, 1058.517
668.7245, 1068.112
669.2066, 1073.235
669.6887, 1071.514
670.1708, 1066.439
670.6530, 1064.661
671.1351, 1065.632
671.6172, 1064.962
672.0993, 1060.598
672.5814, 1054.242
673.0635, 1045.513
673.5457, 1036.065
674.0278, 1031.706
674.5099, 1042.822
674.9920, 1053.766
675.4741, 1053.528
675.9562, 1040.993
676.4384, 1033.647
676.9205, 1037.502
677.4026, 1043.687
677.8847, 1048.760
678.3668, 1053.608
678.8489, 1052.129
679.3311, 1041.760
679.8132, 1030.962
680.2953, 1029.677
680.7774, 1036.496
681.2595, 1042.906
681.7416, 1047.758
682.2238, 1050.769
682.7059, 1050.880
683.1880, 1049.029
683.6701, 1047.122
684.1522, 1045.495
684.6343, 1044.365
685.1165, 1044.801
685.5986, 1045.910
686.0807, 1045.119
686.5628, 1039.352
687.0449, 1034.614
687.5270, 1032.356
688.0092, 1032.435
688.4913, 1033.228
688.9734, 1034.525
689.4555, 1037.352
689.9376, 1043.995
690.4197, 1053.110
690.9019, 1056.262
691.3840, 1053.134
691.8661, 1050.418
692.3482, 1054.928
692.8303, 1062.554
693.3124, 1067.928
693.7946, 1069.630
694.2767, 1070.913
694.7588, 1071.525
695.2409, 1073.262
695.7230, 1078.139
696.2051, 1092.260
696.6873, 1100.797
697.1694, 1099.531
697.6515, 1094.907
698.1336, 1099.623
698.6157, 1115.465
699.0978, 1128.089
699.5800, 1132.645
700.0621, 1132.933
700.5442, 1137.022
701.0262, 1144.234
701.5084, 1151.171
701.9905, 1154.633
702.4726, 1157.926
702.9547, 1165.941
703.4368, 1177.565
703.9189, 1184.396
704.4011, 1178.363
704.8832, 1170.934
705.3653, 1166.467
705.8474, 1164.228
706.3295, 1171.980
706.8116, 1195.012
707.2938, 1218.859
707.7759, 1233.203
708.2580, 1237.987
708.7401, 1239.209
709.2222, 1236.762
709.7043, 1233.103
710.1865, 1229.418
710.6686, 1226.723
711.1507, 1227.656
711.6328, 1234.411
712.1149, 1240.859
712.5970, 1243.872
713.0792, 1243.740
713.5613, 1240.817
714.0434, 1231.412
714.5255, 1223.791
715.0076, 1219.586
715.4897, 1217.754
715.9719, 1214.188
716.4540, 1205.619
716.9361, 1207.934
717.4182, 1231.532
717.9003, 1266.237
718.3824, 1279.788
718.8646, 1273.817
719.3467, 1266.164
719.8288, 1267.472
720.3109, 1272.531
720.7930, 1275.199
721.2751, 1275.674
721.7573, 1277.885
722.2394, 1284.993
722.7215, 1293.219
723.2036, 1300.234
723.6857, 1305.401
724.1678, 1311.905
724.6500, 1321.721
725.1321, 1329.990
725.6142, 1333.377
726.0963, 1331.756
726.5784, 1326.330
727.0605, 1316.747
727.5427, 1305.146
728.0248, 1292.556
728.5069, 1279.945
728.9890, 1269.507
729.4711, 1262.655
729.9532, 1255.771
730.4354, 1247.393
730.9175, 1237.193
731.3996, 1224.602
731.8817, 1206.216
732.3638, 1189.590
732.8459, 1175.287
733.3281, 1163.261
733.8102, 1153.797
734.2923, 1147.148
734.7744, 1141.968
735.2565, 1139.041
735.7386, 1136.205
736.2208, 1126.253
736.7029, 1110.696
737.1850, 1098.427
737.6671, 1094.927
738.1492, 1096.476
738.6313, 1101.344
739.1135, 1108.821
739.5956, 1115.476
740.0777, 1119.993
740.5598, 1123.517
741.0419, 1126.630
741.5240, 1129.364
742.0062, 1130.992
742.4883, 1131.790
742.9704, 1130.799
743.4525, 1126.840
743.9346, 1120.128
744.4167, 1113.193
744.8989, 1105.840
745.3810, 1100.813
745.8631, 1101.916
746.3452, 1106.142
746.8273, 1109.732
747.3094, 1112.259
747.7916, 1113.371
748.2737, 1110.783
748.7558, 1107.977
749.2379, 1108.776
749.7200, 1123.865
750.2021, 1123.040
750.6843, 1099.090
751.1664, 1067.883
751.6485, 1046.394
752.1306, 1034.739
752.6127, 1036.532
753.0948, 1055.628
753.5770, 1078.979
754.0591, 1088.285
754.5412, 1088.153
755.0233, 1088.620
755.5054, 1094.237
755.9875, 1099.932
756.4697, 1102.974
756.9518, 1104.135
757.4339, 1105.177
757.9160, 1106.458
758.3981, 1107.286
758.8802, 1106.021
759.3624, 1104.780
759.8445, 1111.307
760.3266, 1126.647
760.8087, 1140.335
761.2908, 1147.682
761.7729, 1151.363
762.2551, 1156.072
762.7372, 1161.791
763.2193, 1168.412
763.7014, 1176.045
764.1835, 1184.451
764.6656, 1193.712
765.1478, 1203.696
765.6299, 1212.929
766.1120, 1221.583
766.5941, 1228.860
767.0762, 1233.000
767.5583, 1234.122
768.0405, 1243.481
768.5226, 1262.456
769.0047, 1280.758
769.4868, 1288.866
769.9689, 1290.983
770.4510, 1299.032
770.9332, 1313.337
771.4153, 1326.693
771.8974, 1327.602
772.3795, 1329.563
772.8616, 1346.480
773.3438, 1385.111
773.8259, 1414.869
774.3080, 1426.637
774.7901, 1432.820
775.2722, 1440.238
775.7543, 1448.467
776.2365, 1460.380
776.7186, 1476.051
777.2007, 1495.509
777.6828, 1522.471
778.1649, 1552.975
778.6470, 1575.253
779.1292, 1585.298
779.6113, 1597.441
780.0934, 1625.614
780.5755, 1660.250
781.0576, 1690.128
781.5397, 1706.451
782.0219, 1729.119
782.5040, 1763.664
782.9860, 1801.968
783.4681, 1833.508
783.9503, 1855.489
784.4324, 1888.199
784.9145, 1936.268
785.3966, 1990.269
785.8787, 2035.083
786.3608, 2074.341
786.8430, 2119.157
787.3251, 2172.924
787.8072, 2232.533
788.2893, 2300.637
788.7714, 2372.332
789.2535, 2441.018
789.7357, 2494.468
790.2178, 2557.858
790.6999, 2636.659
791.1820, 2725.029
791.6641, 2813.409
792.1462, 2900.391
792.6284, 2996.938
793.1105, 3106.478
793.5926, 3227.807
794.0747, 3366.882
794.5568, 3518.344
795.0389, 3668.013
795.5211, 3795.965
796.0032, 3933.260
796.4853, 4097.527
796.9674, 4284.089
797.4495, 4483.749
797.9316, 4690.137
798.4138, 4916.196
798.8959, 5162.877
799.3780, 5430.851
799.8601, 5710.746
800.3422, 6001.325
800.8243, 6309.127
801.3065, 6626.167
801.7886, 6967.290
802.2707, 7362.638
802.7528, 7800.087
803.2349, 8258.442
803.7170, 8711.264
804.1992, 9191.958
804.6813, 9710.615
805.1634, 10271.07
805.6455, 10884.09
806.1276, 11565.24
806.6097, 12266.16
807.0919, 12973.15
807.5740, 13694.89
808.0561, 14489.16
808.5382, 15354.47
809.0203, 16260.63
809.5024, 17222.77
809.9846, 18193.11
810.4667, 19133.07
810.9488, 20043.60
811.4309, 20937.67
811.9130, 21886.90
812.3951, 22754.55
812.8773, 23505.23
813.3594, 24139.30
813.8415, 24629.54
814.3236, 24993.24
814.8057, 25144.12
815.2878, 25021.72
815.7700, 24649.32
816.2521, 24100.44
816.7342, 23379.42
817.2163, 22536.97
817.6984, 21569.87
818.1805, 20530.65
818.6627, 19431.21
819.1448, 18275.42
819.6269, 17226.01
820.1090, 16357.23
820.5911, 15576.87
821.0732, 14849.66
821.5554, 14179.60
822.0375, 13614.14
822.5196, 13152.60
823.0017, 12764.89
823.4838, 12427.14
823.9659, 12144.53
824.4481, 11931.86
824.9302, 11786.63
825.4123, 11705.74
825.8944, 11706.34
826.3765, 11750.64
826.8586, 11805.59
827.3408, 11865.48
827.8229, 12016.06
828.3050, 12289.03
828.7871, 12594.43
829.2692, 12880.06
829.7513, 13152.45
830.2335, 13463.66
830.7156, 13816.43
831.1977, 14217.41
831.6798, 14688.31
832.1619, 15201.34
832.6440, 15711.28
833.1262, 16218.20
833.6083, 16775.99
834.0904, 17428.76
834.5725, 18114.86
835.0546, 18800.14
835.5367, 19483.80
836.0189, 20188.75
836.5010, 20930.09
836.9831, 21666.28
837.4652, 22416.54
837.9473, 23140.37
838.4294, 23737.09
838.9116, 24205.95
839.3937, 24589.45
839.8758, 24947.35
840.3579, 25204.32
840.8400, 25313.66
841.3221, 25271.93
841.8043, 25064.90
842.2864, 24667.04
842.7685, 24156.25
843.2506, 23553.06
843.7327, 22861.93
844.2148, 22121.36
844.6970, 21337.07
845.1791, 20525.86
845.6612, 19667.57
846.1433, 18809.92
846.6254, 18010.07
847.1075, 17267.53
847.5897, 16557.09
848.0718, 15838.75
848.5539, 15182.71
849.0360, 14613.75
849.5181, 14132.44
850.0002, 13696.93
850.4824, 13307.45
850.9645, 12963.93
851.4466, 12667.41
851.9287, 12414.90
852.4108, 12210.37
852.8929, 12050.08
853.3751, 11924.61
853.8572, 11821.30
854.3393, 11757.25
854.8214, 11749.87
855.3035, 11796.52
855.7856, 11864.45
856.2678, 11932.44
856.7499, 12049.92
857.2320, 12236.71
857.7141, 12484.12
858.1962, 12758.20
858.6783, 13061.96
859.1605, 13422.92
859.6426, 13862.94
860.1247, 14362.80
860.6068, 14897.81
861.0889, 15473.12
861.5710, 16088.22
862.0532, 16733.33
862.5353, 17439.29
863.0174, 18231.82
863.4995, 19083.84
863.9816, 19944.83
864.4637, 20797.11
864.9459, 21744.22
865.4279, 22823.56
865.9100, 24004.94
866.3922, 25225.77
866.8743, 26488.55
867.3564, 27800.13
867.8385, 29143.33
868.3206, 30558.08
868.8027, 32102.07
869.2849, 33712.23
869.7670, 35254.04
870.2491, 36682.26
870.7312, 38157.62
871.2133, 39748.30
871.6954, 41321.91
872.1776, 42634.03
872.6597, 43674.73
873.1418, 44419.51
873.6239, 44958.52
874.1060, 45035.34
874.5881, 44406.98
875.0703, 43202.70
875.5524, 41629.32
876.0345, 39581.48
876.5166, 37294.60
876.9987, 34680.95
877.4808, 31942.80
877.9630, 29340.97
878.4451, 26867.22
878.9272, 24549.28
879.4093, 22373.86
879.8914, 20365.65
880.3735, 18555.64
880.8557, 16927.46
881.3378, 15461.42
881.8199, 14161.69
882.3020, 13003.68
882.7841, 11998.11
883.2662, 11105.27
883.7484, 10301.07
884.2305, 9588.879
884.7126, 8942.114
885.1947, 8360.870
885.6768, 7834.857
886.1589, 7364.876
886.6411, 6945.799
887.1232, 6569.254
887.6053, 6236.896
888.0874, 5925.877
888.5695, 5622.764
889.0516, 5341.402
889.5338, 5086.888
890.0159, 4862.423
890.4980, 4655.159
890.9801, 4466.835
891.4622, 4295.788
891.9443, 4146.330
892.4265, 4013.144
892.9086, 3876.713
893.3907, 3737.763
893.8728, 3609.971
894.3549, 3504.767
894.8370, 3408.582
895.3192, 3315.233
895.8013, 3223.553
896.2834, 3134.162
896.7655, 3043.651
897.2476, 2962.464
897.7297, 2901.470
898.2119, 2852.433
898.6940, 2787.241
899.1761, 2708.572
899.6582, 2635.488
900.1403, 2579.569
900.6224, 2530.855
901.1046, 2483.983
901.5867, 2438.675
902.0688, 2397.423
902.5509, 2363.745
903.0330, 2326.560
903.5151, 2281.225
903.9973, 2232.854
904.4794, 2196.787
904.9615, 2170.998
905.4436, 2143.702
905.9257, 2109.918
906.4078, 2074.212
906.8900, 2035.333
907.3721, 1998.347
907.8542, 1971.255
908.3363, 1969.716
908.8184, 1959.163
909.3005, 1935.374
909.7827, 1903.847
910.2648, 1867.760
910.7469, 1828.146
911.2290, 1803.013
911.7111, 1797.534
912.1932, 1795.109
912.6754, 1778.681
913.1575, 1756.058
913.6396, 1736.864
914.1217, 1724.800
914.6038, 1710.037
915.0859, 1685.651
915.5681, 1664.064
916.0502, 1655.573
916.5323, 1660.899
917.0144, 1661.428
917.4965, 1656.861
917.9786, 1651.180
918.4608, 1648.133
918.9429, 1645.459
919.4250, 1640.399
919.9071, 1632.854
920.3892, 1624.609
920.8713, 1613.350
921.3535, 1604.481
921.8356, 1599.538
922.3177, 1598.571
922.7998, 1604.859
923.2819, 1618.845
923.7640, 1626.003
924.2462, 1613.121
924.7283, 1594.061
925.2104, 1587.522
925.6925, 1589.497
926.1746, 1588.660
926.6567, 1580.983
927.1389, 1569.518
927.6210, 1551.588
928.1031, 1532.508
928.5852, 1525.186
929.0673, 1530.751
929.5494, 1529.274
930.0316, 1514.404
930.5137, 1496.180
930.9958, 1489.641
931.4779, 1487.879
931.9600, 1478.779
932.4421, 1451.182
932.9243, 1432.508
933.4064, 1437.903
933.8885, 1447.518
934.3706, 1444.430
934.8527, 1426.983
935.3348, 1412.717
935.8170, 1402.635
936.2991, 1393.865
936.7812, 1382.407
937.2633, 1371.452
937.7454, 1366.197
938.2275, 1367.272
938.7097, 1368.441
939.1918, 1368.855
939.6739, 1367.559
940.1560, 1362.650
940.6381, 1354.949
941.1202, 1356.215
941.6024, 1367.008
942.0845, 1374.379
942.5666, 1366.033
943.0487, 1353.810
943.5308, 1355.232
944.0129, 1365.607
944.4951, 1370.847
944.9772, 1359.928
945.4593, 1350.958
945.9414, 1346.955
946.4235, 1347.858
946.9056, 1356.285
947.3877, 1372.297
947.8698, 1380.744
948.3519, 1377.098
948.8340, 1368.061
949.3162, 1357.313
949.7983, 1347.518
950.2804, 1342.956
950.7625, 1347.455
951.2446, 1350.903
951.7267, 1350.517
952.2089, 1350.212
952.6910, 1354.317
953.1731, 1362.795
953.6552, 1366.089
954.1373, 1363.758
954.6194, 1359.000
955.1016, 1351.180
955.5837, 1344.511
956.0658, 1344.088
956.5479, 1350.097
957.0300, 1355.523
957.5121, 1358.411
957.9943, 1361.702
958.4764, 1366.556
958.9585, 1372.492
959.4406, 1376.837
959.9227, 1379.966
960.4048, 1385.490
960.8870, 1398.851
961.3691, 1410.873
961.8512, 1411.746
962.3333, 1406.384
962.8154, 1404.595
963.2975, 1406.652
963.7797, 1415.830
964.2618, 1436.890
964.7439, 1458.294
965.2260, 1459.771
965.7081, 1446.623
966.1902, 1441.561
966.6724, 1448.977
967.1545, 1459.290
967.6366, 1466.887
968.1187, 1473.302
968.6008, 1479.229
969.0829, 1484.153
969.5651, 1492.843
970.0472, 1507.521
970.5293, 1520.184
971.0114, 1523.108
971.4935, 1520.851
971.9756, 1528.518
972.4578, 1544.649
972.9399, 1561.521
973.4220, 1577.030
973.9041, 1590.417
974.3862, 1599.004
974.8683, 1605.427
975.3505, 1616.783
975.8326, 1633.204
976.3147, 1654.864
976.7968, 1682.246
977.2789, 1713.937
977.7610, 1752.622
978.2432, 1793.388
978.7253, 1825.055
979.2074, 1838.057
979.6895, 1859.179
980.1716, 1900.235
980.6537, 1951.253
981.1359, 2005.400
981.6180, 2062.806
982.1001, 2121.001
982.5822, 2179.946
983.0643, 2245.822
983.5464, 2318.517
984.0286, 2403.485
984.5107, 2510.267
984.9928, 2637.284
985.4749, 2768.949
985.9570, 2893.614
986.4391, 3031.805
986.9213, 3188.328
987.4034, 3362.832
987.8855, 3551.543
988.3676, 3754.907
988.8497, 3971.197
989.3318, 4200.951
989.8140, 4441.131
990.2961, 4699.391
990.7782, 4964.480
991.2603, 5213.758
991.7424, 5445.140
992.2245, 5668.542
992.7067, 5895.068
993.1888, 6091.203
993.6709, 6245.995
994.1530, 6343.868
994.6351, 6333.027
995.1172, 6211.353
995.5994, 5993.686
996.0815, 5642.038
996.5636, 5242.397
997.0457, 4831.710
997.5278, 4413.858
998.0099, 4013.124
998.4921, 3620.702
998.9742, 3270.110
999.4563, 2974.303
999.9384, 2725.230
1000.421, 2521.973
1000.903, 2356.422
1001.385, 2206.045
1001.867, 2061.511
1002.349, 1936.800
1002.831, 1840.114
1003.313, 1760.433
1003.795, 1690.509
1004.277, 1629.894
1004.760, 1580.174
1005.242, 1541.866
1005.724, 1501.648
1006.206, 1436.931
1006.688, 1372.578
1007.170, 1336.026
1007.652, 1328.833
1008.134, 1316.794
1008.617, 1293.396
1009.099, 1268.952
1009.581, 1245.264
1010.063, 1223.716
1010.545, 1207.749
1011.027, 1196.585
1011.509, 1187.917
1011.991, 1183.141
1012.473, 1176.720
1012.956, 1163.233
1013.438, 1147.231
1013.920, 1134.844
1014.402, 1127.128
1014.884, 1120.394
1015.366, 1115.302
1015.848, 1107.659
1016.330, 1090.498
1016.813, 1069.407
1017.295, 1052.494
1017.777, 1040.472
1018.259, 1035.339
1018.741, 1047.453
1019.223, 1055.456
1019.705, 1050.386
1020.187, 1036.329
1020.669, 1027.261
1021.152, 1023.074
1021.634, 1021.054
1022.116, 1021.245
1022.598, 1021.223
1023.080, 1019.267
1023.562, 1015.467
1024.044, 1009.817
1024.526, 1000.922
1025.008, 992.7774
1025.491, 985.2986
1025.973, 978.4865
1026.455, 972.5162
1026.937, 967.1880
1027.419, 962.1102
1027.901, 957.1790
1028.383, 952.0020
1028.865, 944.2825
1029.348, 938.4041
1029.830, 937.3826
1030.312, 939.5859
1030.794, 941.2916
1031.276, 942.7148
1031.758, 940.7809
1032.240, 933.6802
1032.722, 925.8777
1033.204, 923.9468
1033.687, 923.9070
1034.169, 919.6683
1034.651, 906.6902
1035.133, 898.9011
1035.615, 898.0958
1036.097, 900.8876
1036.579, 907.8661
1037.061, 916.9071
1037.543, 915.3920
1038.026, 904.4766
1038.508, 892.3900
1038.990, 879.8484
1039.472, 871.3965
1039.954, 871.5305
1040.436, 877.0043
1040.918, 880.3755
1041.400, 881.4327
1041.883, 881.6263
1042.365, 881.3058
1042.847, 879.8642
1043.329, 875.4615
1043.811, 870.0288
1044.293, 866.7365
1044.775, 866.6804
1045.257, 864.2692
1045.740, 853.5921
1046.222, 847.6705
1046.704, 855.1959
1047.186, 871.9178
1047.668, 880.4279
1048.150, 881.1923
1048.632, 876.4030
1049.114, 860.5406
1049.596, 847.0464
1050.078, 845.0586
1050.561, 849.6918
1051.043, 852.8983
1051.525, 854.5518
1052.007, 854.2115
1052.489, 851.2027
1052.971, 849.4552
1053.453, 854.0215
1053.935, 861.6318
1054.418, 868.6520
1054.900, 874.6194
1055.382, 877.5102
1055.864, 873.6111
1056.346, 870.8912
1056.828, 872.9968
1057.310, 876.6709
1057.792, 868.6135
1058.275, 853.2200
1058.757, 851.6413
1059.239, 876.8505
1059.721, 900.9689
1060.203, 906.1605
1060.685, 902.5699
1061.167, 899.6204
1061.649, 897.0739
1062.131, 899.1417
1062.614, 906.4598
1063.096, 912.8688
1063.578, 910.9910
1064.060, 907.8182
1064.542, 914.2920
1065.024, 927.5922
1065.506, 937.1175
1065.988, 936.2772
1066.470, 937.0415
1066.953, 940.6799
1067.435, 946.9009
1067.917, 957.1708
1068.399, 969.6476
1068.881, 977.6423
1069.363, 979.7271
1069.845, 980.0035
1070.327, 979.7115
1070.810, 979.1588
1071.292, 977.4064
1071.774, 975.0574
1072.256, 978.6251
1072.738, 988.2505
1073.220, 1000.113
1073.702, 1015.195
1074.184, 1027.684
1074.666, 1030.586
1075.149, 1026.876
1075.631, 1020.653
1076.113, 1003.962
1076.595, 1003.048
1077.077, 1022.860
1077.559, 1045.404
1078.041, 1055.815
1078.523, 1056.985
1079.005, 1050.526
1079.488, 1039.071
1079.970, 1038.357
1080.452, 1072.632
1080.934, 1097.323
1081.416, 1093.862
1081.898, 1077.120
1082.380, 1079.000
1082.862, 1097.531
1083.344, 1109.052
1083.827, 1108.101
1084.309, 1105.269
1084.791, 1106.146
1085.273, 1110.875
1085.755, 1122.581
1086.237, 1141.634
1086.719, 1147.627
1087.201, 1137.681
1087.684, 1130.840
1088.166, 1138.574
1088.648, 1150.833
1089.130, 1152.903
1089.612, 1148.502
1090.094, 1144.554
1090.576, 1138.536
1091.058, 1141.636
1091.541, 1158.888
1092.023, 1176.996
1092.505, 1182.548
1092.987, 1179.136
1093.469, 1180.224
1093.951, 1185.679
1094.433, 1190.911
1094.915, 1193.741
1095.397, 1195.439
1095.880, 1195.448
1096.362, 1195.235
1096.844, 1198.889
1097.326, 1206.288
1097.808, 1209.434
1098.290, 1206.585
1098.772, 1201.710
1099.254, 1195.406
1099.736, 1190.791
1100.219, 1190.921
1100.701, 1196.258
1101.183, 1204.141
1101.665, 1216.526
1102.147, 1223.090
1102.629, 1218.738
1103.111, 1207.663
1103.593, 1188.553
1104.076, 1169.393
1104.558, 1165.292
1105.040, 1195.255
1105.522, 1210.424
1106.004, 1202.227
1106.486, 1187.681
1106.968, 1179.016
1107.450, 1174.528
1107.932, 1165.928
1108.415, 1154.587
1108.897, 1147.711
1109.379, 1158.514
1109.861, 1163.038
1110.343, 1148.226
1110.825, 1125.569
1111.307, 1111.213
1111.789, 1104.968
1112.271, 1098.712
1112.754, 1091.483
1113.236, 1084.975
1113.718, 1081.109
1114.200, 1077.974
1114.682, 1074.852
1115.164, 1071.302
1115.646, 1064.538
1116.128, 1053.821
1116.611, 1044.451
1117.093, 1038.152
1117.575, 1033.052
1118.057, 1027.543
1118.539, 1021.297
1119.021, 1013.931
1119.503, 1005.440
1119.985, 995.2353
1120.468, 982.3772
1120.950, 970.2701
1121.432, 960.2550
1121.914, 952.5147
1122.396, 949.2959
1122.878, 948.6923
1123.360, 945.5123
1123.842, 934.8840
1124.324, 925.2283
1124.807, 916.0044
1125.289, 910.5186
1125.771, 915.9335
1126.253, 928.8347
1126.735, 927.4328
1127.217, 912.2062
1127.699, 897.8813
1128.181, 892.4267
1128.663, 890.8963
1129.146, 893.1810
1129.628, 896.8989
1130.110, 898.3080
1130.592, 897.4026
1131.074, 891.8409
1131.556, 880.5166
1132.038, 870.9605
1132.520, 869.9553
1133.003, 872.9302
1133.485, 877.1518
1133.967, 882.2282
1134.449, 886.4071
1134.931, 890.2572
1135.413, 889.4316
1135.895, 881.1540
1136.377, 870.9633
1136.859, 864.6444
1137.342, 860.9472
1137.824, 857.8856
1138.306, 853.9474
1138.788, 856.5648
1139.270, 869.1895
1139.752, 877.7793
1140.234, 870.4178
1140.716, 856.7948
1141.198, 857.3126
1141.681, 867.0422
1142.163, 874.1431
1142.645, 875.7225
1143.127, 871.8080
1143.609, 858.8228
1144.091, 847.1312
1144.573, 847.6299
1145.055, 856.8842
1145.538, 864.4211
1146.020, 869.9316
1146.502, 873.1978
1146.984, 871.5601
1147.466, 871.0944
1147.948, 874.3189
1148.430, 878.8652
1148.912, 882.1028
1149.395, 883.6647
1149.877, 879.5555
1150.359, 869.1924
1150.841, 861.5612
1151.323, 863.1327
1151.805, 868.6853
1152.287, 876.1650
1152.769, 884.8723
1153.251, 894.0623
1153.734, 903.6329
1154.216, 909.7775
1154.698, 911.6283
1155.180, 909.8464
1155.662, 900.7089
1156.144, 891.3199
1156.626, 889.3461
1157.108, 894.5135
1157.590, 896.8912
1158.073, 896.1274
1158.555, 897.1366
1159.037, 902.4821
1159.519, 909.6371
1160.001, 916.3716
1160.483, 922.9626
1160.965, 930.4855
1161.447, 940.8646
1161.929, 944.7578
1162.412, 941.3959
1162.894, 935.4598
1163.376, 926.5179
1163.858, 919.3448
1164.340, 919.2986
1164.822, 926.4138
1165.304, 941.4991
1165.786, 978.6539
1166.269, 994.9562
1166.751, 983.3365
1167.233, 966.4295
1167.715, 964.9858
1168.197, 972.6691
1168.679, 978.4767
1169.161, 982.7939
1169.643, 990.2542
1170.125, 1010.176
1170.608, 1020.276
1171.090, 1014.277
1171.572, 1003.782
1172.054, 1006.832
1172.536, 1017.023
1173.018, 1019.456
1173.500, 1012.846
1173.982, 1006.292
1174.464, 999.6029
1174.947, 998.7448
1175.429, 1007.193
1175.911, 1020.194
1176.393, 1030.488
1176.875, 1037.136
1177.357, 1035.295
1177.839, 1022.512
1178.321, 1012.499
1178.804, 1014.668
1179.286, 1017.004
1179.768, 1013.418
1180.250, 1006.654
1180.732, 1007.519
1181.214, 1013.672
1181.696, 1014.916
1182.178, 1005.526
1182.661, 997.4626
1183.143, 998.2067
1183.625, 1000.571
1184.107, 1000.398
1184.589, 997.8590
1185.071, 992.6088
1185.553, 985.5803
1186.035, 983.2344
1186.517, 993.7203
1187.000, 1001.593
1187.482, 995.6866
1187.964, 986.5086
1188.446, 983.6594
1188.928, 987.2561
1189.410, 992.7245
1189.892, 999.5869
1190.374, 1001.066
1190.856, 989.1233
1191.339, 975.2933
1191.821, 964.2751
1192.303, 955.9770
1192.785, 950.1639
1193.267, 946.8348
1193.749, 945.7903
1194.231, 947.0179
1194.713, 950.3394
1195.196, 960.6539
1195.678, 967.9744
1196.160, 961.7382
1196.642, 949.0536
1197.124, 946.6388
1197.606, 955.4325
1198.088, 956.2200
1198.570, 946.6181
1199.052, 933.8772
1199.535, 916.7946
1200.017, 905.2347
1200.499, 912.5639
1200.981, 931.3358
1201.463, 934.4369
1201.945, 920.8600
1202.427, 909.1448
1202.909, 902.7499
1203.391, 898.2501
1203.874, 890.0638
1204.356, 884.5309
1204.838, 890.1235
1205.320, 904.3531
1205.802, 912.0472
1206.284, 913.1059
1206.766, 906.7248
1207.248, 889.8961
1207.731, 875.5571
1208.213, 880.5380
1208.695, 890.4335
1209.177, 890.7677
1209.659, 881.5867
1210.141, 872.0635
1210.623, 862.1161
1211.105, 854.6564
1211.588, 851.1530
1212.070, 849.8098
1212.552, 853.0934
1213.034, 855.0603
1213.516, 847.0753
1213.998, 828.3281
1214.480, 816.2795
1214.962, 811.0632
1215.444, 808.2728
1215.927, 806.4462
1216.409, 805.2318
1216.891, 804.9223
1217.373, 804.7766
1217.855, 804.6145
1218.337, 805.5461
1218.819, 796.5127
1219.301, 776.7636
1219.783, 763.0358
1220.266, 774.1978
1220.748, 785.2475
1221.230, 767.4241
1221.712, 739.7841
1222.194, 732.5409
1222.676, 751.6725
1223.158, 762.5532
1223.640, 764.6577
1224.123, 762.5374
1224.605, 756.1349
1225.087, 749.8978
1225.569, 750.3572
1226.051, 752.0807
1226.533, 743.5447
1227.015, 721.9116
1227.497, 712.7427
1227.979, 717.5668
1228.462, 723.8563
1228.944, 723.1363
1229.426, 719.5883
1229.908, 716.2393
1230.390, 712.1570
1230.872, 704.3361
1231.354, 692.0510
1231.836, 686.6370
1232.318, 689.2526
1232.801, 692.2957
1233.283, 689.9055
1233.765, 685.9889
1234.247, 682.1086
1234.729, 679.0431
1235.211, 679.1658
1235.693, 682.5142
1236.175, 682.5053
1236.657, 678.2050
1237.140, 674.2218
1237.622, 675.3362
1238.104, 676.6044
1238.586, 675.2285
1239.068, 671.6324
1239.550, 665.0815
1240.032, 656.0162
1240.514, 654.6435
1240.997, 663.3290
1241.479, 667.4969
1241.961, 649.4482
1242.443, 632.0626
1242.925, 629.3488
1243.407, 636.1576
1243.889, 639.9441
1244.371, 640.8306
1244.854, 638.2218
1245.336, 631.2930
1245.818, 628.2104
1246.300, 639.0627
1246.782, 649.3938
1247.264, 652.4370
1247.746, 649.6104
1248.228, 643.2382
1248.710, 634.2928
1249.193, 627.1177
1249.675, 622.5236
1250.157, 619.9429
1250.639, 621.0176
1251.121, 621.9005
1251.603, 620.7535
1252.085, 618.5019
1252.567, 616.8972
1253.049, 616.4129
1253.532, 619.1389
1254.014, 626.5133
1254.496, 632.1107
1254.978, 632.4637
1255.460, 632.4398
1255.942, 634.2300
1256.424, 636.5471
1256.906, 635.3888
1257.389, 632.3632
1257.871, 632.0879
1258.353, 637.6335
1258.835, 636.9583
1259.317, 623.7569
1259.799, 613.5896
1260.281, 614.5396
1260.763, 620.9866
1261.245, 621.9924
1261.728, 620.0694
1262.210, 619.7435
1262.692, 622.1752
1263.174, 626.7476
1263.656, 634.8713
1264.138, 640.4777
1264.620, 640.0603
1265.102, 636.3873
1265.584, 631.5879
1266.067, 627.3878
1266.549, 627.2720
1267.031, 633.7714
1267.513, 636.3478
1267.995, 634.5648
1268.477, 630.5336
1268.959, 622.8811
1269.441, 617.0142
1269.924, 621.5726
1270.406, 630.8840
1270.888, 637.1833
1271.370, 639.8337
1271.852, 639.7025
1272.334, 636.4782
1272.816, 636.1611
1273.298, 644.7202
1273.781, 652.9052
1274.263, 652.5914
1274.745, 647.2988
1275.227, 639.8397
1275.709, 629.8672
1276.191, 630.8887
1276.673, 642.1179
1277.155, 650.7799
1277.637, 648.2838
##END=



