##NAMES=Andradite
##RRUFFID=R060350
##IDEAL CHEMISTRY=Ca_3_Fe^3+^_2_(SiO_4_)_3_
##LOCALITY=south of the Gem mine, southern San Benito County, California, USA
##OWNER=RRUFF
##SOURCE=Michael Scott
##DESCRIPTION=Cluster of black vitreous crystals showing well-developed faces
##STATUS=The identification of this mineral has been confirmed by X-ray diffraction and chemical analysis
##URL=rruff.info/R060350
##MEASURED CHEMISTRY=(Ca_2.93_Mg_0.07_)_Σ=3_(Fe^3+^_1.18_Ti_0.77_Al_0.05_)_Σ=2_((Si_0.74_Fe^3+^_0.26_)_Σ=1_O_4_)_3_ ; trace amounts of Mn
92.10938, 7.340460
92.59149, 6.941313
93.07361, 7.093155
93.55573, 7.752437
94.03784, 8.376595
94.51996, 8.391502
95.00208, 7.959806
95.48419, 7.669265
95.96631, 7.839632
96.44843, 8.253347
96.93054, 8.211951
97.41266, 7.651616
97.89478, 6.980819
98.37689, 6.718572
98.85901, 6.874002
99.34113, 7.049018
99.82324, 7.080750
100.3054, 6.969034
100.7875, 6.906628
101.2696, 6.915620
101.7517, 6.945292
102.2338, 6.901477
102.7159, 6.774296
103.1981, 6.601552
103.6802, 6.357582
104.1623, 5.946683
104.6444, 5.788702
105.1265, 6.009212
105.6086, 6.484182
106.0908, 6.724626
106.5729, 6.502833
107.0550, 6.311472
107.5371, 6.445475
108.0192, 7.190773
108.5013, 7.835764
108.9835, 8.304533
109.4656, 8.599958
109.9477, 8.902531
110.4298, 9.095654
110.9119, 9.361422
111.3940, 9.830507
111.8762, 10.77103
112.3583, 11.64147
112.8404, 12.29433
113.3225, 12.68786
113.8046, 13.23682
114.2867, 13.90526
114.7689, 14.79971
115.2510, 16.02516
115.7331, 18.10703
116.2152, 20.11490
116.6973, 21.57841
117.1794, 22.29239
117.6616, 23.17919
118.1437, 24.81129
118.6258, 26.82585
119.1079, 28.56609
119.5900, 29.59158
120.0721, 30.38384
120.5543, 31.24631
121.0364, 32.23068
121.5185, 33.27827
122.0006, 34.33248
122.4827, 35.42082
122.9648, 36.63857
123.4470, 38.18440
123.9291, 39.82570
124.4112, 41.27163
124.8933, 42.36019
125.3754, 43.37881
125.8575, 44.52001
126.3397, 45.80270
126.8218, 47.35015
127.3039, 49.28292
127.7860, 51.53364
128.2681, 53.99702
128.7502, 56.89485
129.2324, 59.81587
129.7145, 61.84900
130.1966, 63.00232
130.6787, 64.06829
131.1608, 65.98240
131.6429, 68.53352
132.1251, 70.77087
132.6072, 72.34068
133.0893, 73.34782
133.5714, 74.05796
134.0535, 74.38746
134.5356, 74.80441
135.0178, 76.02792
135.4999, 78.07262
135.9820, 80.05913
136.4641, 81.60775
136.9462, 82.73999
137.4283, 83.98998
137.9105, 85.34106
138.3926, 86.85904
138.8747, 88.81297
139.3568, 91.43273
139.8389, 93.61492
140.3210, 94.65508
140.8032, 94.21970
141.2853, 94.49387
141.7674, 95.72256
142.2495, 97.52853
142.7316, 98.83179
143.2137, 98.93768
143.6959, 98.74082
144.1780, 99.37923
144.6601, 101.4438
145.1422, 102.8144
145.6243, 103.0729
146.1064, 102.6181
146.5886, 103.0354
147.0707, 105.0276
147.5528, 107.0783
148.0349, 108.3065
148.5170, 107.9212
148.9991, 108.0037
149.4813, 108.9852
149.9634, 110.7210
150.4455, 111.7884
150.9276, 111.2984
151.4097, 110.7550
151.8918, 111.0780
152.3740, 113.3940
152.8561, 115.2781
153.3382, 116.2537
153.8203, 116.3463
154.3024, 116.8526
154.7845, 118.3453
155.2667, 120.0165
155.7488, 121.2833
156.2309, 121.6345
156.7130, 121.9858
157.1951, 122.5214
157.6772, 123.2485
158.1594, 124.0643
158.6415, 124.9114
159.1236, 125.8444
159.6057, 126.9215
160.0878, 128.1189
160.5699, 129.4726
161.0521, 131.0582
161.5342, 132.8974
162.0163, 134.7249
162.4984, 136.4988
162.9805, 138.1970
163.4626, 139.7908
163.9448, 141.4210
164.4269, 142.8339
164.9090, 143.8780
165.3911, 144.5050
165.8732, 144.9778
166.3553, 145.2459
166.8375, 145.4655
167.3196, 145.8950
167.8017, 147.2625
168.2838, 148.5012
168.7659, 148.6265
169.2480, 147.2217
169.7302, 145.9093
170.2123, 146.2772
170.6944, 147.5894
171.1765, 148.1912
171.6586, 146.4429
172.1407, 143.9539
172.6229, 142.3938
173.1050, 142.2445
173.5871, 142.3316
174.0692, 141.5602
174.5513, 140.1699
175.0334, 138.8792
175.5156, 138.1351
175.9977, 137.7353
176.4798, 137.4772
176.9619, 137.4344
177.4440, 137.2733
177.9261, 136.4228
178.4083, 135.0441
178.8904, 133.8455
179.3725, 133.4335
179.8546, 133.5161
180.3367, 133.5550
180.8188, 133.4440
181.3010, 133.2667
181.7831, 133.1600
182.2652, 133.1098
182.7473, 132.9965
183.2294, 132.6538
183.7115, 132.1711
184.1937, 131.8257
184.6758, 131.7239
185.1579, 131.7154
185.6400, 131.5439
186.1221, 131.2142
186.6042, 130.7983
187.0864, 130.3127
187.5685, 129.7762
188.0506, 129.2671
188.5327, 128.7171
189.0148, 128.2738
189.4969, 128.4093
189.9791, 129.1540
190.4612, 129.8195
190.9433, 129.7468
191.4254, 129.0174
191.9075, 128.2814
192.3896, 127.6154
192.8718, 127.0845
193.3539, 126.9513
193.8360, 127.2601
194.3181, 127.6053
194.8002, 127.5547
195.2823, 127.1190
195.7645, 126.8296
196.2466, 126.8994
196.7287, 127.1860
197.2108, 127.0150
197.6929, 126.2815
198.1750, 125.5581
198.6572, 125.4721
199.1393, 126.0562
199.6214, 126.5416
200.1035, 126.7446
200.5856, 126.6965
201.0677, 126.5313
201.5499, 126.1933
202.0320, 125.9145
202.5141, 125.9908
202.9962, 126.4800
203.4783, 126.8759
203.9604, 127.0631
204.4426, 127.0591
204.9247, 127.0203
205.4068, 126.9937
205.8889, 126.8296
206.3710, 126.1506
206.8531, 124.7079
207.3353, 124.0665
207.8174, 124.8101
208.2995, 126.8142
208.7816, 128.3887
209.2637, 129.4328
209.7458, 130.2161
210.2280, 131.0238
210.7101, 131.9149
211.1922, 132.5883
211.6743, 132.8546
212.1564, 132.7370
212.6385, 133.0903
213.1207, 134.0619
213.6028, 135.2558
214.0849, 136.3112
214.5670, 137.2533
215.0491, 137.9256
215.5313, 138.1459
216.0134, 137.9226
216.4955, 138.2651
216.9776, 139.3978
217.4597, 140.7905
217.9418, 141.9651
218.4239, 142.9543
218.9061, 143.5895
219.3882, 143.6787
219.8703, 143.2141
220.3524, 143.2227
220.8345, 143.8249
221.3166, 144.7483
221.7988, 145.8301
222.2809, 147.3288
222.7630, 148.3339
223.2451, 148.4418
223.7272, 147.6339
224.2093, 147.4926
224.6915, 148.2800
225.1736, 149.4411
225.6557, 150.4593
226.1378, 151.4675
226.6199, 152.0714
227.1020, 152.0676
227.5842, 151.4524
228.0663, 151.0936
228.5484, 150.9927
229.0305, 151.1418
229.5126, 151.6134
229.9947, 152.7604
230.4769, 153.5033
230.9590, 153.5986
231.4411, 153.0446
231.9232, 152.3389
232.4053, 151.1678
232.8874, 150.1696
233.3696, 150.0350
233.8517, 151.5415
234.3338, 152.3564
234.8159, 151.8392
235.2980, 150.0240
235.7801, 148.9174
236.2623, 148.8603
236.7444, 149.1434
237.2265, 149.2020
237.7086, 148.9904
238.1907, 148.6284
238.6728, 147.9956
239.1550, 147.1324
239.6371, 146.7785
240.1192, 147.2220
240.6013, 147.8493
241.0834, 148.1765
241.5655, 148.0750
242.0477, 147.9078
242.5298, 147.6450
243.0119, 147.3150
243.4940, 147.2481
243.9761, 147.6069
244.4582, 148.0333
244.9404, 148.2590
245.4225, 148.1474
245.9046, 148.1159
246.3867, 148.2617
246.8688, 148.5425
247.3509, 148.6377
247.8331, 148.3790
248.3152, 148.1514
248.7973, 148.2207
249.2794, 148.7465
249.7615, 149.2446
250.2436, 149.7118
250.7258, 150.1280
251.2079, 150.3405
251.6900, 150.1424
252.1721, 150.0365
252.6542, 150.4085
253.1363, 151.7022
253.6185, 152.3815
254.1006, 152.0835
254.5827, 151.1328
255.0648, 150.7129
255.5469, 151.0458
256.0291, 151.5592
256.5112, 151.9576
256.9933, 152.1653
257.4754, 152.4770
257.9575, 153.0076
258.4396, 153.6184
258.9218, 153.8735
259.4039, 153.6328
259.8860, 153.2997
260.3681, 153.0287
260.8502, 152.7736
261.3323, 152.7534
261.8145, 153.1224
262.2966, 153.6341
262.7787, 153.7077
263.2608, 153.1335
263.7429, 152.5537
264.2250, 152.1668
264.7072, 151.9093
265.1893, 152.1919
265.6714, 153.3419
266.1535, 154.7417
266.6356, 155.1771
267.1177, 154.2741
267.5999, 153.4045
268.0820, 153.1656
268.5641, 153.6939
269.0462, 153.8197
269.5283, 153.5054
270.0104, 152.8408
270.4926, 151.7940
270.9747, 150.1172
271.4568, 148.9289
271.9389, 148.7633
272.4210, 149.6615
272.9031, 150.0863
273.3853, 149.9086
273.8674, 149.4959
274.3495, 149.2991
274.8316, 149.3443
275.3137, 149.4521
275.7958, 149.5473
276.2780, 149.6427
276.7601, 149.9966
277.2422, 150.7054
277.7243, 151.4180
278.2064, 151.7307
278.6885, 151.5982
279.1707, 151.4254
279.6528, 151.2142
280.1349, 151.0382
280.6170, 151.4316
281.0991, 152.5525
281.5812, 153.6162
282.0634, 153.7048
282.5455, 152.7863
283.0276, 152.3721
283.5097, 152.8427
283.9918, 153.9526
284.4739, 154.9634
284.9561, 155.8657
285.4382, 156.7432
285.9203, 157.6611
286.4024, 158.6086
286.8845, 159.5513
287.3666, 160.4683
287.8488, 161.3774
288.3309, 162.3465
288.8130, 163.3772
289.2951, 164.3214
289.7772, 164.9754
290.2593, 165.4087
290.7415, 166.0957
291.2236, 167.1147
291.7057, 168.3044
292.1878, 169.4334
292.6699, 170.5050
293.1520, 171.5476
293.6342, 172.5037
294.1163, 173.4368
294.5984, 174.4938
295.0805, 175.6793
295.5626, 177.0525
296.0447, 178.8065
296.5269, 180.8736
297.0090, 182.9317
297.4911, 184.8846
297.9732, 186.7055
298.4553, 188.2321
298.9374, 189.4365
299.4196, 190.5706
299.9017, 191.8618
300.3838, 193.2703
300.8659, 194.6780
301.3480, 195.8696
301.8301, 197.1044
302.3123, 198.8063
302.7944, 200.9782
303.2765, 203.3092
303.7586, 205.5872
304.2407, 207.8554
304.7228, 210.2854
305.2050, 213.2105
305.6871, 216.0217
306.1692, 217.6612
306.6513, 218.3648
307.1334, 219.3439
307.6155, 221.7774
308.0977, 224.8516
308.5798, 227.5295
309.0619, 229.5152
309.5440, 231.2038
310.0261, 232.7616
310.5082, 234.2576
310.9904, 235.8944
311.4725, 237.8164
311.9546, 239.9265
312.4367, 242.2679
312.9188, 245.0293
313.4009, 247.4134
313.8831, 248.6684
314.3652, 249.1895
314.8473, 249.7489
315.3294, 250.3692
315.8115, 251.3572
316.2936, 253.1374
316.7758, 255.9167
317.2579, 258.3162
317.7400, 259.3703
318.2221, 259.8197
318.7042, 260.6296
319.1863, 262.6088
319.6685, 264.5593
320.1506, 265.7990
320.6327, 266.2887
321.1148, 267.2245
321.5969, 269.4229
322.0790, 271.9736
322.5612, 274.1644
323.0433, 275.3615
323.5254, 276.6590
324.0075, 278.2109
324.4896, 280.0414
324.9717, 282.2353
325.4539, 285.0683
325.9360, 288.1146
326.4181, 291.1068
326.9002, 293.9995
327.3823, 296.8964
327.8644, 299.7269
328.3466, 302.5556
328.8287, 305.5790
329.3108, 309.2128
329.7929, 312.7077
330.2750, 315.6293
330.7571, 317.3776
331.2393, 320.0220
331.7214, 324.2466
332.2035, 329.1278
332.6856, 333.0948
333.1677, 335.6353
333.6498, 338.0374
334.1320, 340.6353
334.6141, 343.3993
335.0962, 346.2066
335.5783, 349.0592
336.0604, 351.9535
336.5425, 354.9720
337.0247, 358.2785
337.5068, 361.3523
337.9889, 364.2795
338.4710, 366.9638
338.9531, 368.4240
339.4352, 368.1142
339.9173, 367.8530
340.3994, 369.3122
340.8816, 372.8882
341.3637, 375.7098
341.8458, 377.3203
342.3279, 378.0880
342.8100, 378.9368
343.2921, 379.8243
343.7743, 381.0308
344.2564, 382.9937
344.7385, 385.6573
345.2206, 387.4703
345.7027, 388.1961
346.1848, 388.4922
346.6670, 389.3222
347.1491, 390.6646
347.6312, 392.2044
348.1133, 393.7992
348.5954, 395.4868
349.0775, 397.3709
349.5597, 399.4545
350.0418, 401.8549
350.5239, 405.0788
351.0060, 408.7907
351.4881, 411.7659
351.9702, 413.2941
352.4524, 414.1584
352.9345, 415.5397
353.4166, 417.3771
353.8987, 419.1164
354.3808, 420.0240
354.8629, 420.6494
355.3451, 422.0323
355.8272, 425.0327
356.3093, 427.4850
356.7914, 426.7184
357.2735, 423.7235
357.7556, 421.2098
358.2378, 421.3592
358.7199, 422.2063
359.2020, 422.1447
359.6841, 420.9291
360.1662, 419.1465
360.6483, 416.8223
361.1305, 414.2044
361.6126, 411.6421
362.0947, 409.5062
362.5768, 407.2476
363.0589, 404.7380
363.5410, 401.9633
364.0232, 398.5434
364.5053, 393.9402
364.9874, 388.8714
365.4695, 383.8944
365.9516, 379.0082
366.4337, 374.3528
366.9159, 369.9551
367.3980, 365.7900
367.8801, 361.7404
368.3622, 358.5498
368.8443, 354.9095
369.3264, 350.1750
369.8086, 343.3869
370.2907, 337.1327
370.7728, 331.4323
371.2549, 326.2604
371.7370, 321.6502
372.2191, 317.9337
372.7013, 314.3173
373.1834, 310.7714
373.6655, 307.3586
374.1476, 303.1295
374.6297, 297.6872
375.1118, 292.0486
375.5940, 287.2456
376.0761, 283.5697
376.5582, 279.9662
377.0403, 276.2926
377.5224, 272.5763
378.0045, 268.6391
378.4867, 264.4171
378.9688, 260.4854
379.4509, 257.4548
379.9330, 255.3754
380.4151, 252.7250
380.8972, 249.3194
381.3794, 245.4857
381.8615, 241.7939
382.3436, 238.1946
382.8257, 234.7008
383.3078, 231.2966
383.7899, 227.9655
384.2721, 224.3602
384.7542, 220.4407
385.2363, 216.8879
385.7184, 214.7852
386.2005, 213.6244
386.6826, 211.8304
387.1648, 208.5956
387.6469, 204.8810
388.1290, 201.8396
388.6111, 199.4034
389.0932, 197.1072
389.5753, 194.7885
390.0575, 192.3661
390.5396, 189.6389
391.0217, 186.4222
391.5038, 183.2872
391.9859, 180.6877
392.4680, 178.4497
392.9502, 176.2164
393.4323, 173.6319
393.9144, 171.1795
394.3965, 169.2199
394.8786, 167.7790
395.3607, 166.4264
395.8429, 164.9835
396.3250, 163.5561
396.8071, 162.2331
397.2892, 161.3173
397.7713, 160.1962
398.2534, 158.5454
398.7356, 156.5100
399.2177, 154.8276
399.6998, 153.8016
400.1819, 152.9608
400.6640, 152.1308
401.1461, 151.4333
401.6283, 150.4834
402.1104, 149.0428
402.5925, 147.4617
403.0746, 146.2756
403.5567, 145.7163
404.0388, 145.1310
404.5210, 144.3462
405.0031, 143.3610
405.4852, 142.3362
405.9673, 141.1419
406.4494, 140.1471
406.9315, 139.8398
407.4137, 140.3678
407.8958, 140.3572
408.3779, 139.4332
408.8600, 138.0392
409.3421, 137.2858
409.8242, 137.2049
410.3064, 137.3476
410.7885, 137.5085
411.2706, 137.6924
411.7527, 137.9668
412.2348, 138.3657
412.7169, 138.6760
413.1991, 138.5641
413.6812, 138.1360
414.1633, 137.7474
414.6454, 137.5451
415.1275, 137.4360
415.6096, 137.3702
416.0918, 137.3250
416.5739, 137.1360
417.0560, 136.3347
417.5381, 135.4717
418.0202, 135.2965
418.5023, 136.2346
418.9845, 137.1490
419.4666, 137.2141
419.9487, 136.7543
420.4308, 136.3772
420.9129, 136.2668
421.3951, 136.3421
421.8772, 136.6256
422.3593, 137.1299
422.8414, 137.5831
423.3235, 138.0900
423.8056, 138.4189
424.2878, 138.3773
424.7699, 137.2245
425.2520, 136.5288
425.7341, 136.7448
426.2162, 137.6113
426.6983, 138.1965
427.1805, 138.3466
427.6626, 138.3846
428.1447, 138.4207
428.6268, 138.4501
429.1089, 138.4755
429.5910, 138.4192
430.0732, 138.4401
430.5553, 138.7601
431.0374, 139.4376
431.5195, 140.2002
432.0016, 141.0956
432.4837, 142.0172
432.9659, 142.3735
433.4480, 142.0759
433.9301, 141.7640
434.4122, 141.9315
434.8943, 142.5165
435.3764, 143.0990
435.8586, 143.6566
436.3407, 144.1448
436.8228, 144.5331
437.3049, 144.8100
437.7870, 144.9190
438.2691, 144.6531
438.7513, 144.2914
439.2334, 144.3189
439.7155, 144.7107
440.1976, 145.0234
440.6797, 144.8845
441.1618, 144.5042
441.6440, 144.1492
442.1261, 143.9723
442.6082, 143.6771
443.0903, 142.9813
443.5724, 142.0410
444.0545, 141.1940
444.5367, 140.6535
445.0188, 140.1596
445.5009, 139.6435
445.9830, 139.1286
446.4651, 138.3535
446.9472, 136.9868
447.4294, 135.4803
447.9115, 134.2298
448.3936, 133.5132
448.8757, 132.7206
449.3578, 131.7250
449.8399, 130.6291
450.3221, 129.7514
450.8042, 129.3080
451.2863, 128.7367
451.7684, 127.7432
452.2505, 126.2243
452.7326, 124.9382
453.2148, 123.8968
453.6969, 123.0887
454.1790, 122.6378
454.6611, 122.5721
455.1432, 122.2629
455.6253, 121.4108
456.1075, 120.3452
456.5896, 120.0898
457.0717, 120.6227
457.5538, 121.1474
458.0359, 121.0055
458.5180, 120.4797
459.0002, 120.2492
459.4823, 120.4012
459.9644, 120.6496
460.4465, 120.7881
460.9286, 120.8135
461.4107, 120.7133
461.8929, 120.3149
462.3750, 119.9372
462.8571, 119.7728
463.3392, 119.8210
463.8213, 120.0828
464.3034, 120.8136
464.7856, 121.5908
465.2677, 122.0783
465.7498, 122.0512
466.2319, 122.2325
466.7140, 122.8580
467.1961, 123.7668
467.6783, 124.7626
468.1604, 126.0913
468.6425, 127.1950
469.1246, 127.8854
469.6067, 128.2039
470.0888, 128.6557
470.5710, 129.2583
471.0531, 129.9672
471.5352, 130.7709
472.0173, 131.7083
472.4994, 132.6124
472.9815, 133.4418
473.4637, 134.2975
473.9458, 135.4249
474.4279, 136.8645
474.9100, 138.0008
475.3921, 138.4587
475.8742, 138.5526
476.3564, 139.2477
476.8385, 140.5410
477.3206, 142.0995
477.8027, 144.0619
478.2848, 146.0405
478.7669, 147.0231
479.2491, 146.6786
479.7312, 146.1998
480.2133, 146.7863
480.6954, 148.0432
481.1775, 149.2406
481.6596, 149.7774
482.1418, 150.3816
482.6239, 151.7199
483.1060, 153.6605
483.5881, 155.2242
484.0702, 155.6123
484.5523, 155.8100
485.0345, 156.4546
485.5166, 157.8836
485.9987, 159.1913
486.4808, 160.3476
486.9629, 161.2764
487.4450, 161.8648
487.9272, 161.8165
488.4093, 161.8473
488.8914, 162.0654
489.3735, 162.4721
489.8556, 163.1024
490.3377, 164.1697
490.8199, 165.0107
491.3020, 165.0607
491.7841, 164.2243
492.2662, 163.9377
492.7483, 164.3746
493.2304, 165.0298
493.7126, 165.1768
494.1947, 164.8770
494.6768, 164.5391
495.1589, 164.0858
495.6410, 163.8598
496.1231, 164.6801
496.6053, 166.4212
497.0874, 168.1718
497.5695, 169.2211
498.0516, 170.0439
498.5337, 171.2484
499.0158, 172.9505
499.4980, 174.6868
499.9801, 176.1118
500.4622, 177.4417
500.9443, 178.9658
501.4264, 180.3765
501.9085, 182.3705
502.3907, 185.7140
502.8728, 189.9706
503.3549, 193.3739
503.8370, 194.8981
504.3191, 196.3010
504.8012, 198.2734
505.2834, 201.0226
505.7655, 203.4412
506.2476, 205.5221
506.7297, 207.2766
507.2118, 208.7750
507.6939, 210.0771
508.1761, 210.7501
508.6582, 210.4997
509.1403, 209.8094
509.6224, 209.9697
510.1045, 211.0038
510.5866, 211.9246
511.0688, 212.4370
511.5509, 212.4471
512.0330, 211.4812
512.5151, 209.5153
512.9973, 207.3511
513.4794, 205.5411
513.9615, 203.9996
514.4436, 202.6716
514.9257, 201.7506
515.4078, 200.5663
515.8900, 198.4026
516.3721, 195.6550
516.8542, 193.0770
517.3363, 190.8927
517.8184, 188.9643
518.3005, 187.3167
518.7827, 185.9390
519.2648, 184.5264
519.7469, 183.0646
520.2290, 181.5260
520.7111, 179.8654
521.1932, 177.9160
521.6754, 176.2208
522.1575, 174.8113
522.6396, 173.6133
523.1217, 172.5283
523.6038, 171.5556
524.0859, 170.6918
524.5681, 169.9563
525.0502, 169.3277
525.5323, 168.7835
526.0144, 168.3329
526.4965, 167.7425
526.9786, 166.7300
527.4608, 165.4542
527.9429, 164.3963
528.4250, 163.5796
528.9071, 162.9272
529.3892, 162.7136
529.8713, 162.5387
530.3535, 161.6855
530.8356, 159.3962
531.3177, 157.1673
531.7998, 156.0610
532.2819, 155.7682
532.7640, 155.5925
533.2462, 155.3083
533.7283, 155.0593
534.2104, 155.0253
534.6925, 155.2686
535.1746, 155.0443
535.6567, 153.6339
536.1389, 152.2545
536.6210, 151.7243
537.1031, 152.6877
537.5852, 152.9866
538.0673, 152.3364
538.5494, 151.2357
539.0316, 150.4912
539.5137, 150.1370
539.9958, 149.8968
540.4779, 149.8105
540.9600, 149.7164
541.4421, 148.9858
541.9243, 147.6508
542.4064, 146.3505
542.8885, 145.4710
543.3706, 144.9458
543.8527, 144.7682
544.3348, 144.9714
544.8170, 145.0851
545.2991, 144.7595
545.7812, 144.1213
546.2633, 143.3089
546.7454, 142.2338
547.2275, 141.1749
547.7097, 140.4507
548.1918, 139.8225
548.6739, 138.7510
549.1560, 136.4020
549.6381, 134.3116
550.1202, 133.1663
550.6024, 133.0114
551.0845, 132.2793
551.5666, 130.7285
552.0487, 128.9185
552.5308, 127.1832
553.0129, 125.5018
553.4951, 123.9820
553.9772, 122.6748
554.4593, 121.4263
554.9414, 120.0682
555.4235, 118.5947
555.9056, 116.8955
556.3878, 114.8190
556.8699, 112.6601
557.3520, 111.0446
557.8341, 109.8520
558.3162, 108.5910
558.7983, 106.8924
559.2805, 105.0408
559.7626, 103.1847
560.2447, 101.3421
560.7268, 99.87586
561.2089, 99.31552
561.6910, 98.97861
562.1732, 98.31346
562.6553, 97.02151
563.1374, 95.72328
563.6195, 94.30699
564.1016, 92.98599
564.5837, 92.09371
565.0659, 91.81864
565.5480, 91.61086
566.0301, 91.34876
566.5122, 91.06405
566.9943, 90.99975
567.4764, 91.24032
567.9586, 91.29713
568.4407, 90.57549
568.9228, 89.32284
569.4049, 89.09987
569.8870, 90.00937
570.3691, 91.11776
570.8513, 91.47890
571.3334, 91.39030
571.8155, 91.41050
572.2976, 91.67638
572.7797, 92.05741
573.2618, 92.42380
573.7440, 92.84091
574.2261, 93.43578
574.7082, 94.61059
575.1903, 95.62081
575.6724, 96.06279
576.1545, 96.00117
576.6367, 96.04090
577.1188, 96.34045
577.6009, 96.64458
578.0830, 96.81747
578.5651, 96.78407
579.0472, 97.05785
579.5294, 97.79363
580.0115, 98.56907
580.4936, 98.93775
580.9757, 98.89341
581.4578, 98.96494
581.9399, 99.29883
582.4221, 99.61001
582.9042, 99.29121
583.3863, 98.51511
583.8684, 97.96791
584.3505, 98.01492
584.8326, 98.37901
585.3148, 98.89189
585.7969, 99.50644
586.2789, 99.98630
586.7610, 100.2449
587.2432, 100.2996
587.7253, 100.2051
588.2074, 100.0056
588.6895, 99.40340
589.1716, 97.60375
589.6537, 95.85829
590.1359, 95.15193
590.6180, 96.29282
591.1001, 96.90901
591.5822, 96.77364
592.0643, 96.20435
592.5464, 95.66717
593.0286, 95.14785
593.5107, 94.78957
593.9928, 94.69210
594.4749, 94.73740
594.9570, 94.69273
595.4391, 94.54595
595.9213, 94.17028
596.4034, 93.36639
596.8855, 92.34657
597.3676, 91.27145
597.8497, 90.15865
598.3318, 89.37939
598.8140, 89.52291
599.2961, 89.90715
599.7782, 89.93123
600.2603, 89.32677
600.7424, 88.70395
601.2245, 88.04721
601.7067, 87.49532
602.1888, 87.25945
602.6709, 87.76012
603.1530, 87.83854
603.6351, 87.17329
604.1172, 86.04993
604.5994, 85.37394
605.0815, 85.24813
605.5636, 85.02380
606.0457, 84.30995
606.5278, 83.29073
607.0099, 82.78696
607.4921, 82.79327
607.9742, 82.66044
608.4563, 81.59279
608.9384, 80.19276
609.4205, 79.43481
609.9026, 79.49839
610.3848, 79.65697
610.8669, 79.50636
611.3490, 79.18118
611.8311, 78.80978
612.3132, 78.21955
612.7953, 77.86176
613.2775, 78.17319
613.7596, 78.70335
614.2417, 78.57593
614.7238, 77.25674
615.2059, 76.20000
615.6880, 75.76793
616.1702, 75.83031
616.6523, 75.76871
617.1344, 75.57816
617.6165, 75.28841
618.0986, 74.85398
618.5807, 74.32861
619.0629, 73.89065
619.5450, 73.54141
620.0271, 73.33507
620.5092, 73.43674
620.9913, 73.66193
621.4734, 73.76830
621.9556, 73.71033
622.4377, 73.53669
622.9198, 73.20193
623.4019, 72.79358
623.8840, 72.41440
624.3661, 71.89505
624.8483, 71.63347
625.3304, 71.88767
625.8125, 72.39891
626.2946, 72.57755
626.7767, 72.27065
627.2589, 71.97207
627.7410, 71.79053
628.2231, 71.73295
628.7052, 71.87797
629.1873, 72.23921
629.6694, 72.60998
630.1516, 72.91618
630.6337, 73.12501
631.1158, 73.10293
631.5979, 72.84643
632.0800, 72.61463
632.5621, 72.70068
633.0443, 72.87046
633.5264, 72.84691
634.0085, 72.49006
634.4906, 72.17262
634.9727, 71.89657
635.4548, 71.78576
635.9370, 71.99831
636.4191, 72.91293
636.9012, 73.66270
637.3833, 74.26694
637.8654, 74.62224
638.3475, 74.33443
638.8297, 73.21101
639.3118, 72.36023
639.7939, 72.22485
640.2760, 72.59718
640.7581, 72.82912
641.2402, 72.92910
641.7224, 72.98930
642.2045, 73.11584
642.6866, 73.21838
643.1687, 73.09876
643.6508, 72.75460
644.1329, 72.53549
644.6151, 72.80643
645.0972, 73.18187
645.5793, 73.32698
646.0614, 73.04546
646.5435, 72.90253
647.0256, 73.09154
647.5078, 73.39049
647.9899, 73.59489
648.4720, 73.65540
648.9541, 73.77318
649.4362, 74.04034
649.9183, 74.28936
650.4005, 74.10782
650.8826, 73.50720
651.3647, 73.10393
651.8468, 73.14121
652.3289, 73.45084
652.8110, 73.89977
653.2932, 74.41438
653.7753, 74.66892
654.2574, 74.21597
654.7395, 73.64616
655.2216, 73.44642
655.7037, 73.61070
656.1859, 73.68755
656.6680, 73.40361
657.1501, 73.10439
657.6322, 72.99671
658.1143, 73.13564
658.5964, 73.20671
659.0786, 73.12471
659.5607, 73.10429
660.0428, 73.37439
660.5249, 73.95597
661.0070, 74.51672
661.4891, 75.08104
661.9713, 75.41434
662.4534, 74.99023
662.9355, 74.07552
663.4176, 73.43625
663.8997, 73.40380
664.3818, 73.52914
664.8640, 73.41579
665.3461, 73.18594
665.8282, 73.07807
666.3103, 73.50240
666.7924, 73.71887
667.2745, 73.28181
667.7567, 72.34614
668.2388, 71.84042
668.7209, 71.95853
669.2030, 72.21196
669.6851, 72.52042
670.1672, 72.85741
670.6494, 72.74452
671.1315, 72.11998
671.6136, 71.51670
672.0957, 71.43513
672.5778, 71.66298
673.0599, 71.48933
673.5421, 70.85700
674.0242, 70.42465
674.5063, 71.07345
674.9884, 72.02737
675.4705, 72.36134
675.9526, 71.62731
676.4348, 71.03275
676.9169, 71.09049
677.3990, 71.44262
677.8811, 71.71139
678.3632, 71.97268
678.8453, 71.96552
679.3275, 71.54576
679.8096, 70.96074
680.2917, 70.61646
680.7738, 70.51453
681.2559, 70.75811
681.7380, 71.52502
682.2202, 72.46855
682.7023, 72.91543
683.1844, 72.94496
683.6665, 72.85491
684.1486, 72.73192
684.6307, 72.60703
685.1129, 72.44363
685.5950, 72.27431
686.0771, 72.27099
686.5592, 72.69442
687.0413, 73.11777
687.5234, 73.28399
688.0056, 73.15914
688.4877, 73.25301
688.9698, 73.61982
689.4519, 74.10564
689.9340, 74.66431
690.4161, 75.29561
690.8983, 75.81978
691.3804, 76.24458
691.8625, 76.51830
692.3446, 76.46504
692.8267, 76.24862
693.3088, 76.21909
693.7910, 76.48500
694.2731, 76.74746
694.7552, 76.75558
695.2373, 76.66084
695.7194, 76.63598
696.2015, 76.45236
696.6837, 76.69615
697.1658, 77.87488
697.6479, 79.35296
698.1300, 80.16248
698.6121, 80.08652
699.0942, 79.94297
699.5764, 79.84779
700.0585, 79.82065
700.5406, 79.86287
701.0227, 79.98740
701.5048, 80.34701
701.9869, 81.21899
702.4691, 82.19486
702.9512, 82.73293
703.4333, 82.89973
703.9154, 82.94067
704.3975, 82.87354
704.8796, 82.81038
705.3618, 82.75956
705.8439, 82.72706
706.3260, 82.91871
706.8081, 83.47655
707.2902, 84.11005
707.7723, 84.73649
708.2545, 85.37351
708.7366, 85.70729
709.2187, 85.69284
709.7008, 85.57286
710.1829, 85.46806
710.6650, 85.41637
711.1472, 85.56887
711.6293, 85.94546
712.1114, 86.39482
712.5935, 86.89040
713.0756, 87.35101
713.5577, 87.64097
714.0399, 87.60732
714.5220, 87.75552
715.0041, 88.43200
715.4862, 89.25938
715.9683, 89.84981
716.4504, 90.13757
716.9326, 90.29576
717.4147, 90.25153
717.8968, 90.19445
718.3789, 90.51318
718.8610, 91.18458
719.3431, 91.61124
719.8253, 91.53725
720.3074, 91.37390
720.7895, 91.62243
721.2716, 92.21272
721.7537, 92.99223
722.2358, 94.03010
722.7180, 95.10107
723.2001, 96.19472
723.6822, 97.23528
724.1643, 97.94343
724.6464, 97.85594
725.1285, 97.97510
725.6107, 98.55930
726.0928, 99.52839
726.5749, 100.5943
727.0570, 101.7922
727.5391, 102.7752
728.0212, 103.2489
728.5034, 103.4344
728.9855, 103.9734
729.4676, 104.8204
729.9497, 105.6581
730.4318, 106.1619
730.9139, 106.6390
731.3961, 107.3670
731.8782, 108.3581
732.3603, 109.4011
732.8424, 110.4370
733.3245, 111.4988
733.8066, 112.6338
734.2888, 113.8855
734.7709, 114.9117
735.2530, 115.6289
735.7351, 116.3514
736.2172, 117.3793
736.6993, 118.6541
737.1815, 119.8478
737.6636, 120.9524
738.1457, 121.8255
738.6278, 121.8233
739.1099, 121.7263
739.5920, 122.6809
740.0742, 125.2207
740.5563, 127.5905
741.0384, 129.0724
741.5205, 130.0759
742.0026, 130.9674
742.4847, 131.4875
742.9669, 132.4597
743.4490, 134.0877
743.9311, 135.9236
744.4132, 137.4048
744.8953, 138.5396
745.3774, 139.6198
745.8596, 140.6543
746.3417, 141.8003
746.8238, 143.3872
747.3059, 145.2180
747.7880, 146.8975
748.2701, 148.1687
748.7523, 149.4181
749.2344, 151.0304
749.7165, 152.7158
750.1986, 153.8782
750.6807, 153.7977
751.1628, 154.2466
751.6450, 155.6907
752.1271, 157.6637
752.6092, 159.0369
753.0913, 159.7961
753.5734, 160.2722
754.0555, 160.4109
754.5377, 160.5193
755.0198, 161.2949
755.5019, 162.5129
755.9840, 163.4472
756.4661, 163.6543
756.9482, 163.5669
757.4304, 163.2435
757.9125, 162.8000
758.3946, 162.6503
758.8767, 163.2069
759.3588, 163.6566
759.8409, 163.8427
760.3231, 163.7649
760.8052, 163.2635
761.2873, 162.2414
761.7694, 161.5362
762.2515, 161.5938
762.7336, 162.2180
763.2158, 163.1957
763.6979, 164.4297
764.1800, 165.3181
764.6621, 165.0503
765.1442, 164.6803
765.6263, 165.0351
766.1085, 166.1081
766.5906, 166.9736
767.0727, 167.1221
767.5548, 167.4212
768.0369, 168.2517
768.5190, 169.5990
769.0012, 170.7183
769.4833, 171.5597
769.9654, 172.4129
770.4475, 173.4870
770.9296, 174.7212
771.4117, 175.9330
771.8939, 177.1314
772.3760, 178.4977
772.8581, 180.2792
773.3402, 182.1712
773.8223, 183.9148
774.3044, 185.4595
774.7866, 187.1120
775.2687, 189.1994
775.7508, 191.0995
776.2329, 192.2866
776.7150, 192.5859
777.1971, 194.1606
777.6793, 197.2110
778.1614, 200.4712
778.6435, 202.8495
779.1256, 204.6234
779.6077, 206.2802
780.0898, 207.8596
780.5720, 209.7159
781.0541, 212.5855
781.5362, 215.5398
782.0183, 217.6164
782.5004, 218.2836
782.9825, 219.7405
783.4647, 222.4505
783.9468, 225.6756
784.4289, 228.9406
784.9110, 232.2433
785.3931, 235.7553
785.8752, 239.4617
786.3574, 243.2969
786.8395, 247.4248
787.3216, 251.5565
787.8037, 255.0511
788.2858, 257.6681
788.7679, 260.4798
789.2501, 264.3064
789.7322, 268.4961
790.2143, 272.5528
790.6964, 276.2965
791.1785, 280.0660
791.6606, 283.8573
792.1428, 287.6559
792.6249, 291.3444
793.1070, 294.9376
793.5891, 299.0143
794.0712, 303.6863
794.5533, 308.6078
795.0355, 313.6587
795.5176, 318.7090
795.9997, 323.5750
796.4818, 328.2183
796.9639, 332.6781
797.4460, 336.7241
797.9282, 340.7883
798.4103, 345.2818
798.8924, 350.4408
799.3745, 355.7158
799.8566, 361.1499
800.3387, 366.5277
800.8209, 371.4771
801.3030, 376.0394
801.7851, 380.7042
802.2672, 385.5802
802.7493, 390.4952
803.2314, 395.2363
803.7136, 399.8911
804.1957, 404.5382
804.6778, 409.2572
805.1599, 413.9040
805.6420, 418.6363
806.1241, 423.1254
806.6063, 427.0194
807.0884, 429.8016
807.5705, 433.6202
808.0526, 439.0138
808.5347, 444.1801
809.0168, 446.7497
809.4990, 447.3609
809.9811, 448.9506
810.4632, 452.0269
810.9453, 455.2597
811.4274, 457.8381
811.9095, 459.8671
812.3917, 461.3269
812.8738, 461.8761
813.3559, 462.8402
813.8380, 464.9584
814.3201, 467.1138
814.8022, 468.3012
815.2844, 468.2395
815.7665, 469.0312
816.2486, 470.9699
816.7307, 472.8162
817.2128, 473.1468
817.6949, 472.4736
818.1771, 471.9398
818.6592, 471.7669
819.1413, 471.3185
819.6234, 469.7385
820.1055, 468.0103
820.5876, 467.0973
821.0698, 467.9416
821.5519, 467.4129
822.0340, 464.6317
822.5161, 461.7608
822.9982, 460.9102
823.4803, 461.9484
823.9625, 461.4527
824.4446, 459.1836
824.9267, 456.1881
825.4088, 452.8638
825.8909, 449.6574
826.3730, 447.3393
826.8552, 446.0575
827.3373, 444.8922
827.8194, 443.3990
828.3015, 441.9937
828.7836, 441.1084
829.2657, 441.0795
829.7479, 439.5245
830.2300, 436.0342
830.7121, 432.4962
831.1942, 430.6226
831.6763, 429.9585
832.1584, 429.3790
832.6406, 428.8118
833.1227, 427.4969
833.6048, 424.2457
834.0869, 420.5280
834.5690, 417.2234
835.0511, 414.3871
835.5333, 412.6404
836.0154, 412.6385
836.4975, 412.7880
836.9796, 412.3913
837.4617, 411.4329
837.9438, 409.6432
838.4260, 406.9673
838.9081, 404.5777
839.3902, 403.9269
839.8723, 403.7329
840.3544, 401.9393
840.8365, 398.6550
841.3187, 395.8220
841.8008, 394.8453
842.2829, 394.0598
842.7650, 392.6811
843.2471, 390.7363
843.7292, 388.7779
844.2114, 386.7494
844.6935, 384.9130
845.1756, 383.4354
845.6577, 382.2333
846.1398, 380.9453
846.6219, 379.6273
847.1041, 378.6090
847.5862, 378.4708
848.0683, 378.3495
848.5504, 377.6263
849.0325, 376.3753
849.5146, 375.0383
849.9968, 373.4258
850.4789, 372.1515
850.9610, 371.5573
851.4431, 371.3415
851.9252, 370.3056
852.4073, 368.4826
852.8895, 366.9478
853.3716, 366.2967
853.8537, 366.0406
854.3358, 365.8397
854.8179, 365.5731
855.3000, 364.9621
855.7822, 363.5649
856.2643, 362.1942
856.7464, 361.1112
857.2285, 360.1979
857.7106, 359.1911
858.1927, 358.0158
858.6749, 357.1481
859.1570, 356.7985
859.6391, 356.5449
860.1212, 355.8911
860.6033, 354.7791
861.0854, 352.9611
861.5676, 349.7510
862.0497, 346.9459
862.5318, 345.8074
863.0139, 345.5573
863.4960, 345.1893
863.9781, 344.8404
864.4603, 343.9102
864.9424, 342.2101
865.4245, 340.1796
865.9066, 338.2792
866.3887, 336.5119
866.8708, 334.7133
867.3530, 332.7892
867.8351, 331.2969
868.3172, 331.2181
868.7993, 331.4945
869.2814, 330.9483
869.7635, 329.0256
870.2457, 327.2929
870.7278, 326.0338
871.2099, 324.8479
871.6920, 323.5222
872.1741, 322.0824
872.6563, 320.2123
873.1384, 317.8925
873.6205, 315.4585
874.1026, 313.2288
874.5847, 311.0301
875.0668, 308.5559
875.5490, 305.8135
876.0311, 303.3646
876.5132, 302.2587
876.9953, 300.6530
877.4774, 297.3389
877.9595, 292.4222
878.4417, 289.0692
878.9238, 287.5383
879.4059, 286.0355
879.8880, 283.4847
880.3701, 280.3481
880.8522, 277.7425
881.3344, 275.4534
881.8165, 272.5670
882.2986, 267.9469
882.7807, 263.2833
883.2628, 259.3989
883.7449, 256.1646
884.2271, 253.0941
884.7092, 250.2599
885.1913, 247.3917
885.6734, 244.4565
886.1555, 241.3985
886.6376, 237.9950
887.1198, 234.3797
887.6019, 230.8179
888.0840, 227.5071
888.5661, 224.1394
889.0482, 220.3536
889.5303, 216.4236
890.0125, 212.8620
890.4946, 210.1235
890.9767, 206.9305
891.4588, 203.0204
891.9409, 198.8897
892.4230, 194.9297
892.9052, 191.2010
893.3873, 188.3749
893.8694, 186.6723
894.3515, 184.8826
894.8336, 181.4752
895.3157, 177.7309
895.7979, 175.0597
896.2800, 174.2063
896.7621, 172.7566
897.2442, 170.2323
897.7263, 167.5311
898.2084, 165.2610
898.6906, 163.4168
899.1727, 161.5593
899.6548, 159.7036
900.1369, 157.9012
900.6190, 156.3051
901.1011, 154.7308
901.5833, 152.8704
902.0654, 150.7930
902.5475, 149.0858
903.0296, 148.4126
903.5117, 147.5745
903.9938, 146.1056
904.4760, 144.2049
904.9581, 142.9404
905.4402, 142.3258
905.9223, 141.1221
906.4044, 138.1916
906.8865, 135.0909
907.3687, 134.0286
907.8508, 134.2738
908.3329, 134.2295
908.8150, 133.3049
909.2971, 132.0429
909.7792, 130.1725
910.2614, 128.2875
910.7435, 127.4288
911.2256, 127.7019
911.7077, 127.6379
912.1898, 126.9153
912.6719, 126.1327
913.1541, 126.2426
913.6362, 126.6910
914.1183, 126.6315
914.6004, 125.8135
915.0825, 124.7473
915.5646, 123.0497
916.0468, 121.6130
916.5289, 121.1661
917.0110, 121.9105
917.4931, 121.9993
917.9752, 121.3635
918.4573, 120.6420
918.9395, 120.3586
919.4216, 120.2908
919.9037, 120.0581
920.3858, 119.6768
920.8679, 119.4450
921.3500, 119.7093
921.8322, 119.9160
922.3143, 119.8557
922.7964, 119.5558
923.2785, 119.0423
923.7606, 118.2563
924.2427, 117.7287
924.7249, 117.7045
925.2070, 117.9902
925.6891, 118.5610
926.1712, 119.1771
926.6533, 119.2962
927.1354, 118.1862
927.6176, 117.1741
928.0997, 116.6456
928.5818, 116.4039
929.0639, 116.2264
929.5460, 116.1069
930.0281, 116.1361
930.5103, 116.3815
930.9924, 116.5159
931.4745, 115.9852
931.9566, 115.1616
932.4387, 114.6595
932.9208, 114.6133
933.4030, 114.6044
933.8851, 114.8192
934.3672, 114.6908
934.8493, 113.7891
935.3314, 112.0718
935.8135, 110.8319
936.2957, 110.1139
936.7778, 109.4850
937.2599, 108.5779
937.7420, 107.6444
938.2241, 107.0716
938.7062, 106.8136
939.1884, 106.6696
939.6705, 106.7955
940.1526, 106.7341
940.6347, 106.1800
941.1168, 105.4170
941.5989, 105.1879
942.0811, 105.5612
942.5632, 105.6228
943.0453, 105.1162
943.5274, 104.3313
944.0095, 103.3087
944.4916, 102.3478
944.9738, 101.9999
945.4559, 102.7813
945.9380, 103.2489
946.4201, 102.9325
946.9022, 102.2713
947.3843, 101.4293
947.8665, 100.3390
948.3486, 99.99726
948.8307, 100.4562
949.3128, 100.9623
949.7949, 100.9333
950.2770, 100.6098
950.7592, 100.1563
951.2413, 99.62303
951.7234, 99.31593
952.2055, 99.71840
952.6876, 99.87334
953.1697, 99.34809
953.6519, 98.44516
954.1340, 98.32838
954.6161, 98.95793
955.0982, 99.33480
955.5803, 98.98147
956.0624, 98.48170
956.5446, 98.52426
957.0267, 98.77836
957.5088, 98.73457
957.9909, 97.55051
958.4730, 97.22530
958.9551, 98.26689
959.4373, 99.56994
959.9194, 99.97865
960.4015, 99.60216
960.8836, 99.37842
961.3657, 99.37239
961.8478, 99.44583
962.3300, 99.57566
962.8121, 99.67477
963.2942, 99.63689
963.7763, 99.45609
964.2584, 99.36687
964.7405, 99.39450
965.2227, 99.50111
965.7048, 99.74876
966.1869, 100.0123
966.6690, 99.87642
967.1511, 99.43194
967.6332, 99.05269
968.1154, 98.75655
968.5975, 98.75503
969.0796, 99.62707
969.5617, 100.6936
970.0438, 100.8310
970.5259, 99.40250
971.0081, 98.80759
971.4902, 99.37582
971.9723, 100.2305
972.4544, 100.3548
972.9365, 100.0410
973.4186, 100.0335
973.9008, 100.4075
974.3829, 100.5693
974.8650, 100.1314
975.3471, 99.46053
975.8292, 98.65862
976.3113, 97.76896
976.7935, 97.12007
977.2756, 96.69608
977.7577, 96.68215
978.2398, 97.40845
978.7219, 98.29255
979.2040, 98.35914
979.6862, 97.88963
980.1683, 97.49255
980.6504, 97.52714
981.1325, 97.45367
981.6146, 97.09775
982.0967, 96.66179
982.5789, 96.38237
983.0610, 96.25923
983.5431, 96.13438
984.0252, 96.00173
984.5073, 95.74866
984.9894, 95.15928
985.4716, 94.47355
985.9537, 93.88596
986.4358, 93.41491
986.9179, 93.19102
987.4000, 93.45203
987.8821, 93.54956
988.3643, 93.20060
988.8464, 92.54581
989.3285, 91.97495
989.8106, 91.49158
990.2927, 91.12237
990.7748, 91.02383
991.2570, 90.83172
991.7391, 90.29697
992.2212, 89.53022
992.7033, 88.66467
993.1854, 87.64122
993.6675, 86.69494
994.1497, 85.81301
994.6318, 85.06873
995.1139, 84.81522
995.5960, 84.67593
996.0781, 83.60474
996.5602, 81.58302
997.0424, 80.06438
997.5245, 80.35108
998.0066, 80.63975
998.4887, 80.03403
998.9708, 78.74980
999.4529, 77.65970
999.9351, 76.76182
1000.417, 76.24360
1000.899, 76.28391
1001.381, 76.49735
1001.864, 76.27762
1002.346, 75.95889
1002.828, 76.09170
1003.310, 77.18274
1003.792, 78.05213
1004.274, 78.49720
1004.756, 78.87965
1005.238, 79.50694
1005.720, 80.35155
1006.203, 81.32178
1006.685, 82.38454
1007.167, 83.31013
1007.649, 83.63350
1008.131, 84.02852
1008.613, 85.09080
1009.095, 86.67710
1009.577, 87.90974
1010.060, 88.71867
1010.542, 89.34055
1011.024, 89.83858
1011.506, 90.15245
1011.988, 90.20745
1012.470, 90.00095
1012.952, 89.50488
1013.434, 88.66652
1013.916, 87.69816
1014.399, 86.61642
1014.881, 85.50555
1015.363, 84.46909
1015.845, 83.51844
1016.327, 82.24494
1016.809, 80.65075
1017.291, 78.92065
1017.773, 76.97288
1018.255, 75.11262
1018.738, 73.63957
1019.220, 72.48292
1019.702, 71.44431
1020.184, 70.71732
1020.666, 69.64251
1021.148, 67.94547
1021.630, 66.18595
1022.112, 65.38014
1022.595, 65.22047
1023.077, 64.67030
1023.559, 63.54697
1024.041, 62.32775
1024.523, 61.00189
1025.005, 59.93563
1025.487, 59.53704
1025.969, 59.73117
1026.452, 59.56419
1026.934, 58.99255
1027.416, 58.41541
1027.898, 57.99929
1028.380, 57.68232
1028.862, 57.46317
1029.344, 57.26526
1029.826, 56.93996
1030.308, 56.04844
1030.791, 55.63477
1031.273, 55.98025
1031.755, 56.52401
1032.237, 56.81408
1032.719, 56.83611
1033.201, 56.32947
1033.683, 55.31596
1034.165, 54.50141
1034.647, 54.60531
1035.130, 54.85473
1035.612, 54.64711
1036.094, 54.11969
1036.576, 54.09983
1037.058, 54.73540
1037.540, 55.22476
1038.022, 55.35581
1038.504, 55.29708
1038.987, 55.27107
1039.469, 55.22490
1039.951, 55.04156
1040.433, 54.63424
1040.915, 54.32546
1041.397, 54.19320
1041.879, 54.17486
1042.361, 54.30613
1042.844, 54.54008
1043.326, 54.43601
1043.808, 54.03858
1044.290, 53.75835
1044.772, 53.92550
1045.254, 54.16724
1045.736, 54.41291
1046.218, 54.51862
1046.700, 54.13642
1047.182, 52.91302
1047.665, 52.49165
1048.147, 53.17625
1048.629, 54.02415
1049.111, 53.92445
1049.593, 53.38991
1050.075, 53.30133
1050.557, 53.71594
1051.039, 53.95040
1051.522, 53.61784
1052.004, 53.24704
1052.486, 52.93900
1052.968, 52.73028
1053.450, 52.81642
1053.932, 53.13342
1054.414, 53.28276
1054.896, 53.09299
1055.379, 52.85561
1055.861, 52.68394
1056.343, 52.62214
1056.825, 52.78881
1057.307, 53.29126
1057.789, 53.27790
1058.271, 52.65639
1058.753, 52.06319
1059.235, 51.92746
1059.718, 52.06867
1060.200, 52.30118
1060.682, 52.59297
1061.164, 52.85834
1061.646, 53.11652
1062.128, 53.27534
1062.610, 53.32426
1063.092, 53.27117
1063.574, 53.07785
1064.057, 52.78434
1064.539, 52.50550
1065.021, 52.25246
1065.503, 52.27039
1065.985, 53.10719
1066.467, 53.89124
1066.949, 54.06108
1067.431, 53.73499
1067.914, 53.29066
1068.396, 52.69517
1068.878, 52.37185
1069.360, 52.52659
1069.842, 52.77283
1070.324, 52.56295
1070.806, 52.21098
1071.288, 52.15229
1071.771, 52.61000
1072.253, 52.88810
1072.735, 52.84107
1073.217, 52.87743
1073.699, 53.36803
1074.181, 54.07893
1074.663, 54.33419
1075.145, 54.21220
1075.627, 53.98274
1076.109, 53.56768
1076.592, 53.31477
1077.074, 53.52436
1077.556, 53.80031
1078.038, 53.59291
1078.520, 52.91035
1079.002, 52.69970
1079.484, 53.03185
1079.966, 53.44171
1080.448, 53.63102
1080.931, 53.69488
1081.413, 53.64677
1081.895, 53.52143
1082.377, 53.56111
1082.859, 53.90010
1083.341, 53.80793
1083.823, 52.95156
1084.305, 52.05001
1084.788, 52.25410
1085.270, 53.01619
1085.752, 53.48191
1086.234, 53.42418
1086.716, 53.51748
1087.198, 54.14215
1087.680, 54.50434
1088.162, 54.14573
1088.645, 53.30162
1089.127, 52.56952
1089.609, 52.00991
1090.091, 51.87612
1090.573, 52.68930
1091.055, 53.28002
1091.537, 52.82998
1092.019, 52.11724
1092.501, 51.94456
1092.984, 52.37622
1093.466, 52.55380
1093.948, 52.46587
1094.430, 52.31175
1094.912, 52.05275
1095.394, 51.94572
1095.876, 52.41571
1096.358, 53.21121
1096.840, 53.52199
1097.323, 53.12358
1097.805, 52.81575
1098.287, 52.68346
1098.769, 52.72548
1099.251, 53.12506
1099.733, 53.61248
1100.215, 53.70290
1100.697, 53.35828
1101.180, 53.14539
1101.662, 53.35294
1102.144, 53.48930
1102.626, 53.42197
1103.108, 53.19144
1103.590, 52.74924
1104.072, 52.22626
1104.554, 52.12376
1105.036, 52.73660
1105.519, 53.17779
1106.001, 52.76703
1106.483, 52.26218
1106.965, 52.20197
1107.447, 52.54052
1107.929, 52.59117
1108.411, 52.37311
1108.893, 52.19984
1109.375, 52.25031
1109.858, 52.37380
1110.340, 52.46507
1110.822, 52.55445
1111.304, 52.72335
1111.786, 53.10544
1112.268, 53.04790
1112.750, 52.48920
1113.232, 51.83651
1113.715, 51.19540
1114.197, 50.78572
1114.679, 51.09303
1115.161, 51.88379
1115.643, 52.28261
1116.125, 51.98006
1116.607, 51.52439
1117.089, 50.86919
1117.572, 50.33552
1118.054, 50.54198
1118.536, 51.10846
1119.018, 51.17213
1119.500, 50.66363
1119.982, 50.20221
1120.464, 49.90497
1120.946, 49.87326
1121.428, 50.25891
1121.911, 50.82016
1122.393, 50.99798
1122.875, 50.84291
1123.357, 50.56424
1123.839, 50.19650
1124.321, 49.77785
1124.803, 49.04371
1125.285, 48.55107
1125.767, 48.73911
1126.250, 49.51244
1126.732, 49.98021
1127.214, 50.14579
1127.696, 50.06038
1128.178, 49.58030
1128.660, 49.15600
1129.142, 49.22108
1129.624, 49.53215
1130.107, 49.81623
1130.589, 50.08688
1131.071, 50.17308
1131.553, 50.05633
1132.035, 49.90643
1132.517, 49.89207
1132.999, 49.63001
1133.481, 49.57180
1133.964, 49.13573
1134.446, 48.81297
1134.928, 48.51576
1135.410, 48.67019
1135.892, 49.44840
1136.374, 50.22825
1136.856, 50.37531
1137.338, 50.10567
1137.820, 49.62056
1138.302, 49.01517
1138.785, 48.71123
1139.267, 49.24677
1139.749, 49.53385
1140.231, 49.29871
1140.713, 48.88741
1141.195, 48.83583
1141.677, 49.01933
1142.159, 49.07830
1142.642, 48.96467
1143.124, 48.85242
1143.606, 48.79832
1144.088, 48.78779
1144.570, 48.78767
1145.052, 48.83938
1145.534, 49.19141
1146.016, 49.74055
1146.499, 49.82562
1146.981, 49.16228
1147.463, 48.62032
1147.945, 48.91600
1148.427, 49.35110
1148.909, 49.48352
1149.391, 49.33191
1149.873, 48.95695
1150.355, 48.37867
1150.838, 48.08686
1151.320, 48.35130
1151.802, 48.78146
1152.284, 49.27079
1152.766, 49.63791
1153.248, 49.64950
1153.730, 49.26309
1154.212, 48.92352
1154.694, 48.62564
1155.177, 48.46031
1155.659, 48.50641
1156.141, 48.67729
1156.623, 48.92213
1157.105, 49.22252
1157.587, 49.56195
1158.069, 50.01487
1158.551, 50.28975
1159.034, 50.38376
1159.516, 50.29670
1159.998, 49.87399
1160.480, 49.38160
1160.962, 49.13292
1161.444, 49.09833
1161.926, 49.17030
1162.408, 49.40829
1162.891, 49.58357
1163.373, 49.69657
1163.855, 49.67594
1164.337, 49.31692
1164.819, 48.83985
1165.301, 48.57907
1165.783, 48.55066
1166.265, 48.65943
1166.747, 49.00816
1167.229, 49.30073
1167.712, 49.53989
1168.194, 49.59462
1168.676, 48.96157
1169.158, 48.10173
1169.640, 48.15569
1170.122, 49.25837
1170.604, 49.96587
1171.086, 49.35011
1171.569, 48.89610
1172.051, 49.04411
1172.533, 49.51439
1173.015, 49.74711
1173.497, 49.82488
1173.979, 50.00319
1174.461, 50.36531
1174.943, 50.62589
1175.426, 50.69411
1175.908, 50.59568
1176.390, 50.27349
1176.872, 49.82832
1177.354, 49.64657
1177.836, 49.63386
1178.318, 49.39915
1178.800, 48.67312
1179.282, 48.18905
1179.765, 48.47174
1180.247, 48.91821
1180.729, 49.23558
1181.211, 49.41582
1181.693, 49.29370
1182.175, 48.95404
1182.657, 48.86318
1183.139, 49.41813
1183.621, 49.88514
1184.104, 49.91376
1184.586, 49.69279
1185.068, 49.25026
1185.550, 48.61961
1186.032, 48.59081
1186.514, 49.09560
1186.996, 49.56904
1187.478, 49.72133
1187.961, 49.73806
1188.443, 49.62072
1188.925, 49.46963
1189.407, 49.40382
1189.889, 49.42768
1190.371, 49.36761
1190.853, 49.22132
1191.335, 49.02785
1191.818, 48.81009
1192.300, 48.55121
1192.782, 48.04238
1193.264, 47.59769
1193.746, 47.74130
1194.228, 48.50420
1194.710, 49.14174
1195.192, 49.60399
1195.674, 49.73378
1196.156, 49.06977
1196.639, 48.38558
1197.121, 48.14661
1197.603, 48.26573
1198.085, 48.62421
1198.567, 49.25045
1199.049, 49.51699
1199.531, 49.35101
1200.013, 49.11232
1200.496, 49.13011
1200.978, 49.13685
1201.460, 48.85703
1201.942, 48.42505
1202.424, 48.32507
1202.906, 48.58607
1203.388, 48.28965
1203.870, 47.20281
1204.353, 46.45964
1204.835, 47.57931
1205.317, 48.95612
1205.799, 49.18055
1206.281, 48.55466
1206.763, 48.28864
1207.245, 48.39743
1207.727, 48.53058
1208.209, 48.62718
1208.692, 48.65055
1209.174, 48.59129
1209.656, 48.42559
1210.138, 48.06506
1210.620, 47.56437
1211.102, 47.18120
1211.584, 46.91845
1212.066, 46.79067
1212.548, 46.84301
1213.031, 46.87175
1213.513, 46.54032
1213.995, 46.23356
1214.477, 46.40874
1214.959, 46.97770
1215.441, 47.14775
1215.923, 46.91685
1216.405, 46.58820
1216.888, 46.18660
1217.370, 45.95757
1217.852, 46.29515
1218.334, 46.76993
1218.816, 46.99899
1219.298, 46.98618
1219.780, 46.83537
1220.262, 46.54804
1220.745, 46.31359
1221.227, 46.24026
1221.709, 46.14454
1222.191, 45.76838
1222.673, 45.38500
1223.155, 45.24426
1223.637, 45.34476
1224.119, 45.64831
1224.601, 46.14032
1225.083, 46.57447
1225.566, 46.88881
1226.048, 47.01458
1226.530, 46.76516
1227.012, 46.39705
1227.494, 46.12548
1227.976, 45.95335
1228.458, 46.22969
1228.940, 46.90184
1229.423, 47.19588
1229.905, 46.42549
1230.387, 45.65956
1230.869, 45.54021
1231.351, 45.74783
1231.833, 46.05097
1232.315, 46.44535
1232.797, 46.23871
1233.280, 45.51109
1233.762, 44.97576
1234.244, 45.13491
1234.726, 45.41341
1235.208, 45.62444
1235.690, 45.74074
1236.172, 45.75726
1236.654, 45.67116
1237.136, 45.21487
1237.619, 44.48135
1238.101, 44.11166
1238.583, 45.01550
1239.065, 45.65178
1239.547, 45.16420
1240.029, 44.37676
1240.511, 43.94614
1240.993, 43.85563
1241.475, 44.10036
1241.958, 44.61704
1242.440, 45.04981
1242.922, 45.17936
1243.404, 45.25465
1243.886, 45.34368
1244.368, 45.41085
1244.850, 45.42397
1245.332, 45.38309
1245.815, 45.33986
1246.297, 45.26086
1246.779, 44.97494
1247.261, 44.01349
1247.743, 43.42028
1248.225, 43.52816
1248.707, 43.80523
1249.189, 43.60146
1249.672, 43.16188
1250.154, 43.26851
1250.636, 43.82488
1251.118, 44.27774
1251.600, 44.26797
1252.082, 44.38211
1252.564, 44.77985
1253.046, 45.13084
1253.528, 44.93833
1254.010, 44.52479
1254.493, 44.61070
1254.975, 45.08603
1255.457, 45.35390
1255.939, 45.24819
1256.421, 44.84366
1256.903, 44.01419
1257.385, 43.31767
1257.867, 43.42668
1258.350, 43.93738
1258.832, 44.34548
1259.314, 44.62177
1259.796, 44.72938
1260.278, 44.53008
1260.760, 44.63160
1261.242, 45.17945
1261.724, 45.58119
1262.207, 44.92215
1262.689, 44.09704
1263.171, 44.26578
1263.653, 45.13643
1264.135, 45.47906
1264.617, 45.07426
1265.099, 45.06887
1265.581, 45.62134
1266.063, 46.04787
1266.546, 45.66707
1267.028, 44.99295
1267.510, 44.21314
1267.992, 43.54514
1268.474, 43.51604
1268.956, 44.18884
1269.438, 44.71950
1269.920, 45.03710
1270.402, 45.18039
1270.885, 45.08162
1271.367, 44.91560
1271.849, 44.77925
1272.331, 44.64921
1272.813, 44.41619
1273.295, 44.10643
1273.777, 44.28605
1274.259, 44.95853
1274.742, 45.19004
1275.224, 43.66992
1275.706, 42.54108
1276.188, 42.77136
1276.670, 43.61981
1277.152, 44.13957
1277.634, 44.37749
1278.116, 44.44416
1278.599, 44.37215
1279.081, 44.33651
1279.563, 44.54433
1280.045, 44.59369
1280.527, 44.32741
1281.009, 44.02324
1281.491, 44.12519
1281.973, 44.42098
1282.455, 44.45075
1282.938, 44.21790
1283.420, 43.91799
1283.902, 43.42028
1284.384, 43.24004
1284.866, 43.50969
1285.348, 43.87164
1285.830, 43.83203
1286.312, 43.71071
1286.794, 44.09848
1287.277, 44.82582
1287.759, 45.00558
1288.241, 44.42578
1288.723, 43.86475
1289.205, 43.37690
1289.687, 43.09084
1290.169, 43.19065
1290.651, 43.46962
1291.134, 43.81240
1291.616, 44.17263
1292.098, 44.50634
1292.580, 44.84428
1293.062, 44.66853
1293.544, 43.93666
1294.026, 43.37988
1294.508, 43.77100
1294.990, 44.22597
1295.473, 44.17662
1295.955, 43.91352
1296.437, 43.82646
1296.919, 43.88649
1297.401, 43.83387
1297.883, 43.66591
1298.365, 43.53035
1298.847, 43.54891
1299.329, 43.54612
1299.812, 43.42828
1300.294, 43.33532
1300.776, 43.49780
1301.258, 43.79732
1301.740, 43.90535
1302.222, 43.83970
1302.704, 43.75725
1303.186, 43.63684
1303.669, 43.61382
1304.151, 43.69297
1304.633, 43.87745
##END=



