##NAMES=Andradite
##RRUFFID=R060423
##IDEAL CHEMISTRY=Ca_3_Fe^3+^_2_(SiO_4_)_3_
##LOCALITY=Mali
##OWNER=RRUFF
##SOURCE=Greg Schmidt
##DESCRIPTION=Black dodecahedron
##STATUS=The identification of this mineral has been confirmed by X-ray diffraction and chemical analysis
##URL=rruff.info/R060423
##MEASURED CHEMISTRY=(Ca_2.93_Mg_0.04_Mn_0.03_)_Σ=3_(Fe^3+^_0.99_Al_0.95_Ti_0.06_)_Σ=2_((Si_0.98_Fe^3+^_0.02_)_Σ=1_O_4_)_3_
92.10938, 3.058458
92.59149, 2.953478
93.07361, 2.993269
93.55573, 3.166420
94.03784, 3.330796
94.51996, 3.353382
95.00208, 3.263857
95.48419, 3.169139
95.96631, 3.113450
96.44843, 3.073644
96.93054, 2.967818
97.41266, 2.786040
97.89478, 2.596828
98.37689, 2.469805
98.85901, 2.407002
99.34113, 2.408075
99.82324, 2.513193
100.3054, 2.721402
100.7875, 2.831793
101.2696, 2.825625
101.7517, 2.745599
102.2338, 2.667197
102.7159, 2.593984
103.1981, 2.513362
103.6802, 2.407647
104.1623, 2.247701
104.6444, 2.153794
105.1265, 2.131447
105.6086, 2.177099
106.0908, 2.293763
106.5729, 2.576762
107.0550, 2.817498
107.5371, 2.877018
108.0192, 2.487785
108.5013, 2.322590
108.9835, 2.565698
109.4656, 3.197667
109.9477, 3.574446
110.4298, 3.413116
110.9119, 3.152846
111.3940, 3.091713
111.8762, 3.441955
112.3583, 3.784457
112.8404, 4.025461
113.3225, 4.143992
113.8046, 4.345001
114.2867, 4.692581
114.7689, 5.129510
115.2510, 5.589272
115.7331, 6.129079
116.2152, 6.633528
116.6973, 7.052269
117.1794, 7.371869
117.6616, 7.644579
118.1437, 7.787451
118.6258, 7.906281
119.1079, 8.170691
119.5900, 8.839908
120.0721, 9.561159
120.5543, 10.09476
121.0364, 10.36401
121.5185, 10.53706
122.0006, 10.62044
122.4827, 10.67128
122.9648, 10.85363
123.4470, 11.35310
123.9291, 11.99957
124.4112, 12.59925
124.8933, 13.09036
125.3754, 13.54891
125.8575, 14.05672
126.3397, 14.60540
126.8218, 15.14565
127.3039, 15.54645
127.7860, 15.91140
128.2681, 16.46412
128.7502, 17.37164
129.2324, 18.42812
129.7145, 19.23486
130.1966, 19.79503
130.6787, 20.34279
131.1608, 21.22320
131.6429, 22.33220
132.1251, 23.18781
132.6072, 23.49749
133.0893, 23.43317
133.5714, 23.59946
134.0535, 24.01919
134.5356, 24.56474
135.0178, 25.16306
135.4999, 25.81592
135.9820, 26.28369
136.4641, 26.29895
136.9462, 25.88857
137.4283, 26.07877
137.9105, 27.01582
138.3926, 28.29731
138.8747, 29.25966
139.3568, 29.86638
139.8389, 30.34068
140.3210, 30.75704
140.8032, 31.10675
141.2853, 31.45432
141.7674, 31.78736
142.2495, 32.12468
142.7316, 32.45371
143.2137, 32.58896
143.6959, 32.69570
144.1780, 33.08321
144.6601, 33.93647
145.1422, 34.60818
145.6243, 35.04933
146.1064, 35.30614
146.5886, 35.55907
147.0707, 35.82960
147.5528, 36.07323
148.0349, 36.25898
148.5170, 36.34288
148.9991, 36.44085
149.4813, 36.54099
149.9634, 36.64964
150.4455, 36.82704
150.9276, 37.17038
151.4097, 37.51541
151.8918, 37.75396
152.3740, 37.57078
152.8561, 37.63795
153.3382, 38.17436
153.8203, 39.16018
154.3024, 39.87580
154.7845, 40.07761
155.2667, 40.09105
155.7488, 40.16241
156.2309, 40.29157
156.7130, 40.50904
157.1951, 40.84853
157.6772, 41.31314
158.1594, 41.77431
158.6415, 42.23874
159.1236, 42.67167
159.6057, 43.04066
160.0878, 43.22837
160.5699, 43.44291
161.0521, 43.78353
161.5342, 44.27147
162.0163, 44.73092
162.4984, 45.03623
162.9805, 45.29451
163.4626, 45.64129
163.9448, 46.21129
164.4269, 46.81530
164.9090, 47.32576
165.3911, 47.69784
165.8732, 48.16508
166.3553, 49.03967
166.8375, 50.06757
167.3196, 50.82824
167.8017, 50.83433
168.2838, 50.69252
168.7659, 50.80611
169.2480, 51.21089
169.7302, 51.91476
170.2123, 53.02238
170.6944, 54.44396
171.1765, 55.95606
171.6586, 57.50204
172.1407, 59.06396
172.6229, 60.63522
173.1050, 62.20075
173.5871, 63.81803
174.0692, 65.49229
174.5513, 67.24016
175.0334, 69.09359
175.5156, 71.57261
175.9977, 74.04504
176.4798, 75.54534
176.9619, 75.87209
177.4440, 75.39148
177.9261, 74.43028
178.4083, 72.99281
178.8904, 71.08205
179.3725, 68.38283
179.8546, 65.25178
180.3367, 62.42165
180.8188, 60.06351
181.3010, 57.99884
181.7831, 55.92433
182.2652, 53.89326
182.7473, 52.18280
183.2294, 51.13363
183.7115, 50.58363
184.1937, 50.14533
184.6758, 49.79845
185.1579, 49.44698
185.6400, 48.82373
186.1221, 47.94744
186.6042, 47.14501
187.0864, 46.69093
187.5685, 46.53881
188.0506, 46.52600
188.5327, 46.67557
189.0148, 46.89233
189.4969, 46.97346
189.9791, 46.91616
190.4612, 46.78313
190.9433, 46.56062
191.4254, 46.27275
191.9075, 46.11747
192.3896, 46.17888
192.8718, 46.38383
193.3539, 46.53917
193.8360, 46.64738
194.3181, 46.69895
194.8002, 46.63159
195.2823, 46.44958
195.7645, 46.38857
196.2466, 46.54177
196.7287, 46.84750
197.2108, 47.07579
197.6929, 47.22915
198.1750, 47.28976
198.6572, 47.16308
199.1393, 46.83147
199.6214, 46.68933
200.1035, 46.93867
200.5856, 47.46693
201.0677, 47.55182
201.5499, 47.10345
202.0320, 46.51202
202.5141, 46.12704
202.9962, 45.95459
203.4783, 45.95391
203.9604, 46.18152
204.4426, 46.59643
204.9247, 46.83364
205.4068, 46.85603
205.8889, 46.79264
206.3710, 46.74074
206.8531, 46.68294
207.3353, 46.72979
207.8174, 46.91789
208.2995, 47.24049
208.7816, 47.63984
209.2637, 48.17280
209.7458, 48.66453
210.2280, 48.88291
210.7101, 48.72454
211.1922, 48.67029
211.6743, 48.83130
212.1564, 49.20098
212.6385, 49.70089
213.1207, 50.44508
213.6028, 51.12657
214.0849, 51.33393
214.5670, 50.83106
215.0491, 50.57991
215.5313, 50.86166
216.0134, 51.67363
216.4955, 52.31646
216.9776, 52.69898
217.4597, 53.04526
217.9418, 53.59532
218.4239, 54.38562
218.9061, 55.26935
219.3882, 56.22497
219.8703, 57.24401
220.3524, 58.33788
220.8345, 59.52583
221.3166, 60.74892
221.7988, 61.97146
222.2809, 63.19807
222.7630, 64.37778
223.2451, 65.41450
223.7272, 66.31127
224.2093, 67.56868
224.6915, 69.35646
225.1736, 71.33804
225.6557, 73.11007
226.1378, 74.53777
226.6199, 76.12302
227.1020, 78.05990
227.5842, 80.36830
228.0663, 82.22092
228.5484, 83.27335
229.0305, 84.26823
229.5126, 85.96201
229.9947, 88.76766
230.4769, 91.42902
230.9590, 93.79851
231.4411, 95.86419
231.9232, 97.53210
232.4053, 98.57285
232.8874, 99.48162
233.3696, 100.7357
233.8517, 102.6179
234.3338, 104.2906
234.8159, 105.5956
235.2980, 106.5493
235.7801, 107.3508
236.2623, 107.6572
236.7444, 108.1847
237.2265, 109.5702
237.7086, 112.1985
238.1907, 114.9585
238.6728, 117.8316
239.1550, 120.7864
239.6371, 123.3052
240.1192, 125.5736
240.6013, 127.2012
241.0834, 127.8819
241.5655, 127.6482
242.0477, 126.3960
242.5298, 124.1017
243.0119, 120.7702
243.4940, 116.3567
243.9761, 110.2834
244.4582, 103.8091
244.9404, 97.76608
245.4225, 92.05089
245.9046, 86.96038
246.3867, 82.52975
246.8688, 78.73299
247.3509, 75.38988
247.8331, 72.48512
248.3152, 70.05357
248.7973, 68.15823
249.2794, 66.99376
249.7615, 65.95115
250.2436, 65.01334
250.7258, 64.16214
251.2079, 63.29501
251.6900, 62.23656
252.1721, 61.41094
252.6542, 61.11294
253.1363, 61.60740
253.6185, 62.01329
254.1006, 62.26155
254.5827, 62.38621
255.0648, 62.46814
255.5469, 62.37386
256.0291, 62.44954
256.5112, 62.97388
256.9933, 64.35056
257.4754, 65.11669
257.9575, 64.98410
258.4396, 64.28741
258.9218, 63.99915
259.4039, 64.30240
259.8860, 64.67459
260.3681, 64.83869
260.8502, 64.63476
261.3323, 64.69405
261.8145, 65.04178
262.2966, 65.64163
262.7787, 66.47334
263.2608, 67.67536
263.7429, 68.81364
264.2250, 69.61153
264.7072, 69.83084
265.1893, 70.70462
265.6714, 72.49241
266.1535, 74.70383
266.6356, 76.39705
267.1177, 77.35144
267.5999, 78.41677
268.0820, 79.98894
268.5641, 82.19509
269.0462, 84.03728
269.5283, 85.46223
270.0104, 86.61842
270.4926, 87.82558
270.9747, 89.23422
271.4568, 90.21920
271.9389, 90.60188
272.4210, 90.38498
272.9031, 89.57682
273.3853, 88.04187
273.8674, 86.16220
274.3495, 84.39471
274.8316, 82.70860
275.3137, 81.23813
275.7958, 79.98092
276.2780, 78.95028
276.7601, 78.32111
277.2422, 78.19823
277.7243, 78.20387
278.2064, 77.96612
278.6885, 77.47208
279.1707, 76.82619
279.6528, 75.98550
280.1349, 75.01254
280.6170, 74.24203
281.0991, 73.69709
281.5812, 73.26264
282.0634, 72.87160
282.5455, 72.52125
283.0276, 72.14866
283.5097, 71.73042
283.9918, 71.28977
284.4739, 70.93044
284.9561, 70.67121
285.4382, 70.35567
285.9203, 69.85133
286.4024, 69.16972
286.8845, 68.36697
287.3666, 67.32641
287.8488, 66.34270
288.3309, 66.28018
288.8130, 67.16355
289.2951, 67.91592
289.7772, 67.64710
290.2593, 66.55264
290.7415, 65.74736
291.2236, 65.34367
291.7057, 65.26743
292.1878, 65.54546
292.6699, 66.14573
293.1520, 66.67162
293.6342, 66.81461
294.1163, 66.69726
294.5984, 66.73141
295.0805, 66.95776
295.5626, 67.25690
296.0447, 67.47305
296.5269, 67.62749
297.0090, 67.82410
297.4911, 68.12975
297.9732, 68.50856
298.4553, 68.84716
298.9374, 69.13189
299.4196, 69.49155
299.9017, 70.16432
300.3838, 71.02778
300.8659, 71.74023
301.3480, 72.04852
301.8301, 72.18090
302.3123, 72.40426
302.7944, 72.72387
303.2765, 73.24039
303.7586, 74.22778
304.2407, 75.44785
304.7228, 76.48137
305.2050, 77.07776
305.6871, 77.54499
306.1692, 78.21452
306.6513, 79.06082
307.1334, 79.88103
307.6155, 80.50655
308.0977, 81.04804
308.5798, 81.63052
309.0619, 82.24278
309.5440, 82.98792
310.0261, 83.97396
310.5082, 85.16740
310.9904, 86.46159
311.4725, 87.98099
311.9546, 89.49082
312.4367, 90.70204
312.9188, 91.41010
313.4009, 92.31382
313.8831, 93.94093
314.3652, 96.04465
314.8473, 98.18060
315.3294, 100.1707
315.8115, 102.1501
316.2936, 104.1686
316.7758, 106.2117
317.2579, 108.4273
317.7400, 111.4104
318.2221, 114.4645
318.7042, 116.7677
319.1863, 117.3567
319.6685, 117.7704
320.1506, 118.8629
320.6327, 120.6837
321.1148, 121.7916
321.5969, 121.5147
322.0790, 120.4676
322.5612, 119.1571
323.0433, 117.5294
323.5254, 115.8198
324.0075, 114.0790
324.4896, 112.2945
324.9717, 110.4424
325.4539, 108.3999
325.9360, 106.3462
326.4181, 104.3972
326.9002, 102.2732
327.3823, 100.5994
327.8644, 99.46774
328.3466, 98.82092
328.8287, 98.48628
329.3108, 98.69347
329.7929, 99.00758
330.2750, 99.27775
330.7571, 99.48532
331.2393, 99.69238
331.7214, 99.80367
332.2035, 99.95044
332.6856, 100.3686
333.1677, 101.3677
333.6498, 102.1867
334.1320, 102.5330
334.6141, 102.2984
335.0962, 102.4213
335.5783, 103.1059
336.0604, 103.9359
336.5425, 104.4794
337.0247, 104.6478
337.5068, 104.7507
337.9889, 104.8206
338.4710, 104.8682
338.9531, 104.9923
339.4352, 105.2177
339.9173, 105.4673
340.3994, 105.5753
340.8816, 105.4440
341.3637, 105.8450
341.8458, 107.0052
342.3279, 108.6471
342.8100, 110.0353
343.2921, 111.0857
343.7743, 112.3690
344.2564, 114.2958
344.7385, 116.8480
345.2206, 119.3146
345.7027, 121.6560
346.1848, 123.9754
346.6670, 126.3632
347.1491, 128.8324
347.6312, 131.5789
348.1133, 134.7827
348.5954, 138.3497
349.0775, 141.8526
349.5597, 145.2708
350.0418, 149.1804
350.5239, 154.3081
351.0060, 160.4435
351.4881, 166.7298
351.9702, 172.8962
352.4524, 179.0777
352.9345, 185.0423
353.4166, 190.8954
353.8987, 197.6143
354.3808, 206.3071
354.8629, 216.1841
355.3451, 225.9169
355.8272, 235.2677
356.3093, 244.3345
356.7914, 252.9577
357.2735, 261.3723
357.7556, 270.0208
358.2378, 279.4157
358.7199, 288.9012
359.2020, 297.9236
359.6841, 306.4095
360.1662, 314.4791
360.6483, 321.8614
361.1305, 328.9444
361.6126, 336.2736
362.0947, 344.2156
362.5768, 352.3018
363.0589, 360.3265
363.5410, 368.2897
364.0232, 376.5314
364.5053, 384.1887
364.9874, 392.6997
365.4695, 403.1822
365.9516, 416.8049
366.4337, 431.3965
366.9159, 447.1196
367.3980, 463.6944
367.8801, 480.0804
368.3622, 496.5211
368.8443, 512.2590
369.3264, 527.0772
369.8086, 542.0049
370.2907, 554.1822
370.7728, 564.3348
371.2549, 571.5131
371.7370, 574.0586
372.2191, 571.3383
372.7013, 564.8185
373.1834, 555.0370
373.6655, 542.0641
374.1476, 524.4270
374.6297, 500.9006
375.1118, 474.7843
375.5940, 448.9775
376.0761, 423.5739
376.5582, 398.9601
377.0403, 375.0121
377.5224, 352.0313
378.0045, 330.1229
378.4867, 309.5782
378.9688, 290.5209
379.4509, 273.1181
379.9330, 257.5155
380.4151, 243.2760
380.8972, 230.5259
381.3794, 219.0663
381.8615, 209.0484
382.3436, 200.3314
382.8257, 192.3345
383.3078, 184.5650
383.7899, 177.2051
384.2721, 170.6943
384.7542, 165.0987
385.2363, 160.0038
385.7184, 154.8838
386.2005, 149.9375
386.6826, 145.4435
387.1648, 141.7091
387.6469, 138.3235
388.1290, 134.6905
388.6111, 130.8825
389.0932, 127.2312
389.5753, 123.8025
390.0575, 120.6872
390.5396, 117.9932
391.0217, 115.8154
391.5038, 113.7420
391.9859, 111.3836
392.4680, 108.9370
392.9502, 106.7259
393.4323, 104.9168
393.9144, 103.3821
394.3965, 102.1879
394.8786, 101.3481
395.3607, 100.3498
395.8429, 98.80130
396.3250, 97.09995
396.8071, 95.59536
397.2892, 94.49501
397.7713, 93.45229
398.2534, 92.49198
398.7356, 91.56590
399.2177, 90.46088
399.6998, 88.83461
400.1819, 87.28963
400.6640, 86.13634
401.1461, 85.80826
401.6283, 84.96285
402.1104, 83.20550
402.5925, 81.11489
403.0746, 79.59262
403.5567, 79.05466
404.0388, 78.32841
404.5210, 77.07022
405.0031, 75.27900
405.4852, 73.51950
405.9673, 71.73775
406.4494, 70.07743
406.9315, 68.69458
407.4137, 67.61613
407.8958, 66.55415
408.3779, 65.47395
408.8600, 64.38255
409.3421, 63.23900
409.8242, 62.03598
410.3064, 60.99683
410.7885, 60.34993
411.2706, 59.99445
411.7527, 59.43782
412.2348, 58.63514
412.7169, 57.76271
413.1991, 56.96297
413.6812, 56.25271
414.1633, 55.72460
414.6454, 55.54517
415.1275, 55.46284
415.6096, 55.10328
416.0918, 54.50475
416.5739, 53.92576
417.0560, 53.44997
417.5381, 53.13055
418.0202, 53.09106
418.5023, 53.50188
418.9845, 53.81147
419.4666, 53.51054
419.9487, 52.87248
420.4308, 52.41815
420.9129, 52.45481
421.3951, 52.63472
421.8772, 52.84693
422.3593, 53.08910
422.8414, 53.19450
423.3235, 52.99257
423.8056, 52.70166
424.2878, 52.49862
424.7699, 52.41889
425.2520, 52.41595
425.7341, 52.57454
426.2162, 52.82389
426.6983, 52.89862
427.1805, 52.53648
427.6626, 52.30269
428.1447, 52.47813
428.6268, 53.26508
429.1089, 53.68991
429.5910, 53.58837
430.0732, 53.30114
430.5553, 53.23283
431.0374, 53.39656
431.5195, 53.75368
432.0016, 54.42503
432.4837, 55.26935
432.9659, 55.52514
433.4480, 55.09851
433.9301, 54.66999
434.4122, 54.80562
434.8943, 55.41829
435.3764, 55.85551
435.8586, 56.01361
436.3407, 56.10939
436.8228, 56.48960
437.3049, 57.08971
437.7870, 57.62211
438.2691, 57.92632
438.7513, 58.10741
439.2334, 58.30493
439.7155, 58.51833
440.1976, 58.72385
440.6797, 58.92845
441.1618, 59.10693
441.6440, 59.20570
442.1261, 59.11460
442.6082, 59.12317
443.0903, 59.60553
443.5724, 60.30932
444.0545, 60.68995
444.5367, 60.09771
445.0188, 59.50771
445.5009, 59.44660
445.9830, 60.03151
446.4651, 60.50496
446.9472, 60.73869
447.4294, 60.79424
447.9115, 60.72033
448.3936, 60.32900
448.8757, 60.04458
449.3578, 59.91014
449.8399, 59.90408
450.3221, 59.96411
450.8042, 60.18666
451.2863, 60.32116
451.7684, 60.23000
452.2505, 59.85635
452.7326, 59.61415
453.2148, 59.49619
453.6969, 59.52986
454.1790, 59.89192
454.6611, 60.62830
455.1432, 60.92767
455.6253, 60.45340
456.1075, 59.53607
456.5896, 59.03904
457.0717, 58.95202
457.5538, 59.03504
458.0359, 59.22515
458.5180, 59.45497
459.0002, 59.56788
459.4823, 59.54375
459.9644, 59.43945
460.4465, 59.25378
460.9286, 59.03276
461.4107, 58.86810
461.8929, 58.81747
462.3750, 58.81760
462.8571, 58.87426
463.3392, 58.96174
463.8213, 58.95517
464.3034, 58.76624
464.7856, 58.48409
465.2677, 58.14719
465.7498, 57.71529
466.2319, 57.36123
466.7140, 57.15081
467.1961, 57.03434
467.6783, 56.94576
468.1604, 56.97056
468.6425, 56.91938
469.1246, 56.74273
469.6067, 56.44936
470.0888, 56.13786
470.5710, 55.74270
471.0531, 55.41766
471.5352, 55.25128
472.0173, 55.26935
472.4994, 55.35308
472.9815, 55.51194
473.4637, 55.72108
473.9458, 55.97399
474.4279, 56.28148
474.9100, 56.46894
475.3921, 56.37051
475.8742, 56.16034
476.3564, 56.39192
476.8385, 57.06267
477.3206, 57.92241
477.8027, 58.87873
478.2848, 59.86663
478.7669, 60.73589
479.2491, 61.45638
479.7312, 62.09911
480.2133, 62.61841
480.6954, 63.11788
481.1775, 63.79417
481.6596, 64.93044
482.1418, 66.09252
482.6239, 66.99919
483.1060, 67.67733
483.5881, 68.31116
484.0702, 68.97841
484.5523, 69.62807
485.0345, 70.20879
485.5166, 70.60694
485.9987, 71.16566
486.4808, 72.17770
486.9629, 73.29021
487.4450, 74.00727
487.9272, 73.91167
488.4093, 74.02760
488.8914, 74.71107
489.3735, 75.84847
489.8556, 76.30688
490.3377, 75.82836
490.8199, 75.27230
491.3020, 75.21809
491.7841, 75.72407
492.2662, 75.92776
492.7483, 75.73220
493.2304, 75.41415
493.7126, 75.47270
494.1947, 75.82970
494.6768, 75.83546
495.1589, 75.05608
495.6410, 74.00999
496.1231, 73.69111
496.6053, 74.00623
497.0874, 74.36726
497.5695, 74.61538
498.0516, 74.59744
498.5337, 74.00844
499.0158, 72.71806
499.4980, 71.50279
499.9801, 71.02068
500.4622, 70.80796
500.9443, 70.30363
501.4264, 68.83715
501.9085, 67.59670
502.3907, 67.10482
502.8728, 67.17400
503.3549, 67.00448
503.8370, 66.27784
504.3191, 65.48698
504.8012, 64.79842
505.2834, 64.22362
505.7655, 63.70855
506.2476, 63.28310
506.7297, 62.88563
507.2118, 62.42127
507.6939, 61.83594
508.1761, 61.41949
508.6582, 61.22789
509.1403, 61.21372
509.6224, 61.25506
510.1045, 61.34951
510.5866, 61.57719
511.0688, 62.02805
511.5509, 62.64164
512.0330, 63.28717
512.5151, 63.96956
512.9973, 64.54253
513.4794, 64.62727
513.9615, 64.59386
514.4436, 65.03794
514.9257, 66.14960
515.4078, 67.63059
515.8900, 69.54002
516.3721, 71.63350
516.8542, 73.45030
517.3363, 74.43919
517.8184, 75.48679
518.3005, 76.95621
518.7827, 78.85814
519.2648, 80.96228
519.7469, 83.36713
520.2290, 85.86206
520.7111, 88.32108
521.1932, 90.54112
521.6754, 93.11317
522.1575, 96.16164
522.6396, 99.47688
523.1217, 102.7148
523.6038, 105.7644
524.0859, 109.1749
524.5681, 113.1260
525.0502, 117.4720
525.5323, 121.7090
526.0144, 125.8322
526.4965, 130.2421
526.9786, 135.3908
527.4608, 141.0813
527.9429, 146.6220
528.4250, 152.0132
528.9071, 157.3864
529.3892, 163.1103
529.8713, 168.8857
530.3535, 174.1191
530.8356, 178.7364
531.3177, 182.7202
531.7998, 186.1540
532.2819, 188.9494
532.7640, 190.7500
533.2462, 191.8735
533.7283, 191.6448
534.2104, 189.8025
534.6925, 186.3302
535.1746, 181.3376
535.6567, 174.3394
536.1389, 166.2023
536.6210, 157.5325
537.1031, 147.8973
537.5852, 138.3571
538.0673, 128.5931
538.5494, 119.1536
539.0316, 110.9152
539.5137, 103.8728
539.9958, 97.59262
540.4779, 91.98470
540.9600, 87.01530
541.4421, 82.55694
541.9243, 78.62897
542.4064, 75.32356
542.8885, 73.04819
543.3706, 71.38857
543.8527, 69.51425
544.3348, 67.31991
544.8170, 65.36851
545.2991, 64.27785
545.7812, 63.63243
546.2633, 62.88653
546.7454, 61.60402
547.2275, 60.57385
547.7097, 60.33660
548.1918, 60.58944
548.6739, 60.63054
549.1560, 59.99084
549.6381, 59.44435
550.1202, 59.22977
550.6024, 59.35160
551.0845, 59.64117
551.5666, 60.32148
552.0487, 60.87119
552.5308, 60.84212
553.0129, 60.05284
553.4951, 59.72358
553.9772, 60.00627
554.4593, 60.53152
554.9414, 60.84001
555.4235, 60.93578
555.9056, 60.85603
556.3878, 60.57328
556.8699, 60.16669
557.3520, 59.67660
557.8341, 59.14936
558.3162, 58.79790
558.7983, 58.96748
559.2805, 59.23470
559.7626, 59.18603
560.2447, 58.78816
560.7268, 58.29699
561.2089, 57.69619
561.6910, 57.13031
562.1732, 56.72898
562.6553, 56.75446
563.1374, 56.57719
563.6195, 55.95979
564.1016, 55.14324
564.5837, 54.50544
565.0659, 54.26568
565.5480, 53.77774
566.0301, 52.82474
566.5122, 51.51881
566.9943, 50.42015
567.4764, 49.54842
567.9586, 48.83149
568.4407, 48.30401
568.9228, 47.92591
569.4049, 47.44020
569.8870, 46.83837
570.3691, 46.21748
570.8513, 45.73268
571.3334, 45.28927
571.8155, 44.69463
572.2976, 43.81347
572.7797, 42.96941
573.2618, 42.51048
573.7440, 42.23914
574.2261, 41.78905
574.7082, 40.68836
575.1903, 39.71655
575.6724, 39.27541
576.1545, 39.30644
576.6367, 39.24700
577.1188, 38.86760
577.6009, 38.57423
578.0830, 38.58918
578.5651, 39.03599
579.0472, 39.11053
579.5294, 38.67678
580.0115, 38.11415
580.4936, 37.79604
580.9757, 37.72540
581.4578, 37.61481
581.9399, 37.40160
582.4221, 37.18436
582.9042, 37.15245
583.3863, 37.26082
583.8684, 37.32156
584.3505, 37.14948
584.8326, 36.97069
585.3148, 37.06670
585.7969, 37.38720
586.2789, 37.69855
586.7610, 37.74913
587.2432, 37.84734
587.7253, 38.23573
588.2074, 38.99293
588.6895, 39.68724
589.1716, 40.23747
589.6537, 40.69062
590.1359, 41.07280
590.6180, 41.27612
591.1001, 41.63280
591.5822, 42.23706
592.0643, 42.91975
592.5464, 43.35744
593.0286, 43.50806
593.5107, 43.73254
593.9928, 44.12953
594.4749, 44.67069
594.9570, 45.34697
595.4391, 46.13870
595.9213, 46.86379
596.4034, 47.44543
596.8855, 47.88808
597.3676, 48.13024
597.8497, 48.17524
598.3318, 48.28419
598.8140, 48.77516
599.2961, 49.31219
599.7782, 49.57369
600.2603, 49.30521
600.7424, 49.19525
601.2245, 49.54453
601.7067, 50.07727
602.1888, 50.42410
602.6709, 50.45587
603.1530, 50.51404
603.6351, 50.65704
604.1172, 50.84917
604.5994, 50.97038
605.0815, 50.99995
605.5636, 51.06764
606.0457, 51.26645
606.5278, 51.54464
607.0099, 51.68119
607.4921, 51.67810
607.9742, 51.67771
608.4563, 51.81756
608.9384, 52.01845
609.4205, 52.16473
609.9026, 52.24297
610.3848, 52.28023
610.8669, 52.27992
611.3490, 52.25511
611.8311, 52.21519
612.3132, 52.05851
612.7953, 52.02580
613.2775, 52.32406
613.7596, 52.74286
614.2417, 52.88778
614.7238, 52.62144
615.2059, 52.30113
615.6880, 51.95014
616.1702, 51.60337
616.6523, 51.51615
617.1344, 51.76307
617.6165, 51.80138
618.0986, 51.12170
618.5807, 49.96632
619.0629, 49.33413
619.5450, 49.23500
620.0271, 49.19059
620.5092, 48.77433
620.9913, 48.18450
621.4734, 47.72764
621.9556, 47.51774
622.4377, 47.20362
622.9198, 46.54490
623.4019, 45.69495
623.8840, 44.83477
624.3661, 43.92546
624.8483, 43.08797
625.3304, 42.29356
625.8125, 41.58689
626.2946, 41.11528
626.7767, 41.06466
627.2589, 40.82337
627.7410, 40.15139
628.2231, 39.15118
628.7052, 38.33879
629.1873, 37.71985
629.6694, 37.20898
630.1516, 36.76804
630.6337, 36.39420
631.1158, 36.08220
631.5979, 35.83448
632.0800, 35.60216
632.5621, 35.37255
633.0443, 35.12781
633.5264, 34.80442
634.0085, 34.27460
634.4906, 33.98809
634.9727, 34.45714
635.4548, 35.11565
635.9370, 35.28583
636.4191, 34.28336
636.9012, 33.65784
637.3833, 33.68996
637.8654, 34.11537
638.3475, 34.31114
638.8297, 34.23231
639.3118, 34.09907
639.7939, 33.81272
640.2760, 33.60028
640.7581, 34.53456
641.2402, 36.53707
641.7224, 38.15044
642.2045, 38.22843
642.6866, 37.51525
643.1687, 36.94880
643.6508, 36.57753
644.1329, 36.30724
644.6151, 35.95816
645.0972, 35.76083
645.5793, 35.96284
646.0614, 36.84967
646.5435, 37.50114
647.0256, 37.63437
647.5078, 37.56514
647.9899, 37.58620
648.4720, 37.78582
648.9541, 37.84645
649.4362, 37.71031
649.9183, 37.45344
650.4005, 37.15189
650.8826, 36.81078
651.3647, 36.63997
651.8468, 36.78646
652.3289, 37.06013
652.8110, 37.13241
653.2932, 37.04049
653.7753, 36.93664
654.2574, 36.95536
654.7395, 36.95419
655.2216, 36.80363
655.7037, 36.50766
656.1859, 36.22499
656.6680, 36.01718
657.1501, 35.82116
657.6322, 35.59151
658.1143, 35.29938
658.5964, 35.10482
659.0786, 35.05843
659.5607, 35.03394
660.0428, 34.91800
660.5249, 34.70600
661.0070, 34.50116
661.4891, 34.31789
661.9713, 34.13531
662.4534, 33.90718
662.9355, 33.65774
663.4176, 33.45774
663.8997, 33.34368
664.3818, 33.25729
664.8640, 33.12070
665.3461, 32.97910
665.8282, 32.91868
666.3103, 33.07644
666.7924, 33.20803
667.2745, 33.21358
667.7567, 33.11366
668.2388, 33.04113
668.7209, 32.97372
669.2030, 32.97014
669.6851, 33.05701
670.1672, 33.23108
670.6494, 33.46045
671.1315, 33.76076
671.6136, 34.00702
672.0957, 34.05904
672.5778, 33.99068
673.0599, 34.05177
673.5421, 34.26231
674.0242, 34.38217
674.5063, 34.15391
674.9884, 33.76402
675.4705, 33.41350
675.9526, 33.14357
676.4348, 32.90019
676.9169, 32.63674
677.3990, 32.40940
677.8811, 32.29530
678.3632, 32.45361
678.8453, 32.43782
679.3275, 32.17469
679.8096, 31.76126
680.2917, 31.37188
680.7738, 31.01770
681.2559, 30.60832
681.7380, 30.07508
682.2202, 29.53374
682.7023, 29.32133
683.1844, 29.33473
683.6665, 29.17081
684.1486, 28.29491
684.6307, 27.41324
685.1129, 27.18464
685.5950, 27.50356
686.0771, 27.68988
686.5592, 27.44574
687.0413, 27.07339
687.5234, 26.67319
688.0056, 26.24100
688.4877, 25.90023
688.9698, 25.69996
689.4519, 25.50440
689.9340, 25.17968
690.4161, 24.72377
690.8983, 24.49445
691.3804, 24.52088
691.8625, 24.61079
692.3446, 24.58616
692.8267, 24.48224
693.3088, 24.36900
693.7910, 24.26464
694.2731, 24.13004
694.7552, 23.89214
695.2373, 23.62751
695.7194, 23.42508
696.2015, 23.35376
696.6837, 23.28577
697.1658, 23.15868
697.6479, 23.04284
698.1300, 23.07447
698.6121, 23.35799
699.0942, 23.47016
699.5764, 23.26163
700.0585, 22.90146
700.5406, 22.81215
701.0227, 22.96830
701.5048, 23.09830
701.9869, 23.05400
702.4691, 22.94116
702.9512, 22.91642
703.4333, 22.95111
703.9154, 22.93607
704.3975, 22.75495
704.8796, 22.56594
705.3618, 22.43552
705.8439, 22.36846
706.3260, 22.39169
706.8081, 22.66405
707.2902, 22.83320
707.7723, 22.68579
708.2545, 22.19597
708.7366, 21.95318
709.2187, 21.97529
709.7008, 22.16356
710.1829, 22.59771
710.6650, 23.13334
711.1472, 23.22051
711.6293, 22.78349
712.1114, 22.34958
712.5935, 22.41505
713.0756, 22.67941
713.5577, 22.77648
714.0399, 22.50956
714.5220, 22.40904
715.0041, 22.85859
715.4862, 23.43054
715.9683, 23.65593
716.4504, 23.27800
716.9326, 23.13123
717.4147, 23.36114
717.8968, 23.72579
718.3789, 23.82653
718.8610, 23.67558
719.3431, 23.51095
719.8253, 23.36469
720.3074, 23.28588
720.7895, 23.33867
721.2716, 23.50940
721.7537, 23.76884
722.2358, 24.27478
722.7180, 24.69551
723.2001, 24.77624
723.6822, 24.62849
724.1643, 24.58064
724.6464, 24.78510
725.1285, 24.95641
725.6107, 24.98650
726.0928, 24.93029
726.5749, 25.07925
727.0570, 25.46037
727.5391, 25.86563
728.0212, 26.17614
728.5034, 26.44817
728.9855, 26.90405
729.4676, 27.50626
729.9497, 27.98871
730.4318, 28.05184
730.9139, 28.00176
731.3961, 28.07980
731.8782, 28.30216
732.3603, 28.59372
732.8424, 29.05783
733.3245, 29.47159
733.8066, 29.68030
734.2888, 29.61602
734.7709, 29.79216
735.2530, 30.24122
735.7351, 30.84673
736.2172, 31.62468
736.6993, 32.51709
737.1815, 33.12138
737.6636, 33.39952
738.1457, 33.55838
738.6278, 33.67664
739.1099, 33.83588
739.5920, 34.15491
740.0742, 34.68801
740.5563, 35.25831
741.0384, 35.92024
741.5205, 36.51971
742.0026, 36.88509
742.4847, 36.77747
742.9669, 36.89344
743.4490, 37.28992
743.9311, 37.85442
744.4132, 38.49133
744.8953, 39.19714
745.3774, 39.83788
745.8596, 40.39412
746.3417, 40.86869
746.8238, 41.22052
747.3059, 41.50326
747.7880, 41.80614
748.2701, 42.03535
748.7523, 42.47107
749.2344, 43.51940
749.7165, 44.81842
750.1986, 45.67174
750.6807, 45.70084
751.1628, 45.74645
751.6450, 45.82922
752.1271, 46.04567
752.6092, 46.72912
753.0913, 47.92199
753.5734, 48.93182
754.0555, 49.45833
754.5377, 49.74259
755.0198, 50.11793
755.5019, 50.58036
755.9840, 51.10559
756.4661, 51.75022
756.9482, 52.39395
757.4304, 52.92668
757.9125, 53.38819
758.3946, 53.97880
758.8767, 54.84297
759.3588, 55.69918
759.8409, 56.47035
760.3231, 57.17035
760.8052, 57.85966
761.2873, 58.51890
761.7694, 59.32359
762.2515, 60.57660
762.7336, 61.95392
763.2158, 62.65237
763.6979, 62.76712
764.1800, 62.79526
764.6621, 63.02026
765.1442, 63.27626
765.6263, 63.45964
766.1085, 63.56490
766.5906, 63.62191
767.0727, 63.67845
767.5548, 63.63931
768.0369, 63.48221
768.5190, 63.20576
769.0012, 62.68568
769.4833, 61.87593
769.9654, 61.13207
770.4475, 60.75588
770.9296, 60.60811
771.4117, 60.36407
771.8939, 60.01328
772.3760, 59.53331
772.8581, 58.75034
773.3402, 57.95506
773.8223, 57.41256
774.3044, 57.18402
774.7866, 56.85950
775.2687, 56.33722
775.7508, 55.74507
776.2329, 55.08483
776.7150, 54.31385
777.1971, 53.96316
777.6793, 54.10529
778.1614, 54.25720
778.6435, 53.90387
779.1256, 53.27732
779.6077, 52.96266
780.0898, 53.01177
780.5720, 53.04855
781.0541, 52.72014
781.5362, 52.33470
782.0183, 52.14760
782.5004, 52.21797
782.9825, 52.39229
783.4647, 52.69637
783.9468, 53.05188
784.4289, 53.42036
784.9110, 53.81166
785.3931, 54.11144
785.8752, 54.28492
786.3574, 54.52941
786.8395, 55.07350
787.3216, 55.81937
787.8037, 56.61476
788.2858, 57.43622
788.7679, 58.18798
789.2501, 58.68960
789.7322, 59.16372
790.2143, 59.82077
790.6964, 60.78404
791.1785, 61.68372
791.6606, 62.35229
792.1428, 63.14360
792.6249, 64.49723
793.1070, 66.45856
793.5891, 67.81525
794.0712, 68.40591
794.5533, 68.99437
795.0355, 70.51922
795.5176, 72.55269
795.9997, 74.37743
796.4818, 75.84023
796.9639, 77.20540
797.4460, 78.41341
797.9282, 79.70988
798.4103, 81.32503
798.8924, 83.33413
799.3745, 85.59155
799.8566, 88.17322
800.3387, 90.83397
800.8209, 93.23965
801.3030, 95.42155
801.7851, 97.71976
802.2672, 100.1723
802.7493, 102.8925
803.2314, 106.1934
803.7136, 109.7271
804.1957, 112.9810
804.6778, 115.7984
805.1599, 118.6269
805.6420, 121.4947
806.1241, 124.5302
806.6063, 127.8293
807.0884, 131.4165
807.5705, 135.3100
808.0526, 139.7094
808.5347, 143.9543
809.0168, 147.1227
809.4990, 149.5049
809.9811, 152.4638
810.4632, 156.2417
810.9453, 160.2282
811.4274, 164.0532
811.9095, 167.8031
812.3917, 171.5137
812.8738, 175.1863
813.3559, 178.9126
813.8380, 182.8150
814.3201, 186.6907
814.8022, 190.4546
815.2844, 194.1322
815.7665, 197.2993
816.2486, 199.8906
816.7307, 202.2173
817.2128, 204.8280
817.6949, 207.4035
818.1771, 209.1412
818.6592, 209.8239
819.1413, 210.3862
819.6234, 211.9260
820.1055, 213.2669
820.5876, 213.3367
821.0698, 211.3969
821.5519, 209.6742
822.0340, 208.4605
822.5161, 207.0352
822.9982, 204.6226
823.4803, 201.2607
823.9625, 198.2993
824.4446, 195.8245
824.9267, 193.3215
825.4088, 190.3934
825.8909, 187.1189
826.3730, 183.6134
826.8552, 179.7970
827.3373, 176.1283
827.8194, 172.8746
828.3015, 169.7031
828.7836, 166.2925
829.2657, 162.5553
829.7479, 159.2257
830.2300, 156.4181
830.7121, 153.8325
831.1942, 151.3020
831.6763, 148.8262
832.1584, 146.4434
832.6406, 144.1685
833.1227, 142.0902
833.6048, 140.4927
834.0869, 138.9980
834.5690, 137.2007
835.0511, 135.0008
835.5333, 133.1300
836.0154, 131.6479
836.4975, 130.4500
836.9796, 129.6028
837.4617, 129.0756
837.9438, 127.9928
838.4260, 126.3205
838.9081, 124.8298
839.3902, 124.3369
839.8723, 124.2124
840.3544, 123.4745
840.8365, 122.1671
841.3187, 121.1505
841.8008, 120.9788
842.2829, 121.0450
842.7650, 121.1326
843.2471, 121.2290
843.7292, 121.2043
844.2114, 121.0470
844.6935, 120.8003
845.1756, 120.3634
845.6577, 119.8991
846.1398, 120.0975
846.6219, 120.8065
847.1041, 121.1529
847.5862, 120.1105
848.0683, 118.9853
848.5504, 118.7967
849.0325, 119.3768
849.5146, 119.6990
849.9968, 119.5046
850.4789, 119.2319
850.9610, 118.9692
851.4431, 118.7158
851.9252, 118.5010
852.4073, 118.3211
852.8895, 118.0222
853.3716, 117.4529
853.8537, 116.8455
854.3358, 116.3921
854.8179, 116.1256
855.3000, 116.1277
855.7822, 116.4954
856.2643, 117.0573
856.7464, 117.7554
857.2285, 118.6133
857.7106, 119.8018
858.1927, 121.4722
858.6749, 122.7017
859.1570, 123.1869
859.6391, 123.4071
860.1212, 123.8814
860.6033, 124.7251
861.0854, 126.2984
861.5676, 129.1701
862.0497, 131.9636
862.5318, 133.5647
863.0139, 134.7779
863.4960, 136.7083
863.9781, 139.6958
864.4603, 142.8964
864.9424, 146.4657
865.4245, 149.9729
865.9066, 152.8940
866.3887, 155.2834
866.8708, 157.4838
867.3530, 159.4767
867.8351, 161.6833
868.3172, 164.6629
868.7993, 167.9854
869.2814, 171.2175
869.7635, 174.3233
870.2457, 177.3124
870.7278, 180.3130
871.2099, 183.0694
871.6920, 185.3706
872.1741, 187.1870
872.6563, 188.6551
873.1384, 189.7465
873.6205, 190.7979
874.1026, 192.5130
874.5847, 194.1344
875.0668, 194.4546
875.5490, 193.3964
876.0311, 192.3824
876.5132, 192.7120
876.9953, 192.4193
877.4774, 190.5099
877.9595, 187.0352
878.4417, 183.4195
878.9238, 179.6404
879.4059, 175.8433
879.8880, 172.3381
880.3701, 168.7973
880.8522, 164.3739
881.3344, 159.2814
881.8165, 154.4322
882.2986, 150.5856
882.7807, 146.7707
883.2628, 142.5451
883.7449, 137.9827
884.2271, 133.4453
884.7092, 128.8215
885.1913, 124.5613
885.6734, 120.8528
886.1555, 117.4800
886.6376, 114.0127
887.1198, 110.5175
887.6019, 106.9820
888.0840, 103.2070
888.5661, 99.72072
889.0482, 96.98876
889.5303, 94.71213
890.0125, 92.46451
890.4946, 90.14143
890.9767, 87.88697
891.4588, 85.66044
891.9409, 83.55289
892.4230, 81.64307
892.9052, 79.92091
893.3873, 78.42592
893.8694, 77.18226
894.3515, 75.93825
894.8336, 74.46093
895.3157, 72.87996
895.7979, 71.27454
896.2800, 69.56022
896.7621, 68.22993
897.2442, 67.47733
897.7263, 66.88187
898.2084, 66.25673
898.6906, 65.59734
899.1727, 64.51405
899.6548, 63.01261
900.1369, 61.60717
900.6190, 60.82048
901.1011, 60.25172
901.5833, 59.46024
902.0654, 58.46484
902.5475, 57.61808
903.0296, 57.16804
903.5117, 56.71904
903.9938, 56.14177
904.4760, 55.47758
904.9581, 54.95015
905.4402, 54.56247
905.9223, 54.00282
906.4044, 52.87132
906.8865, 51.80017
907.3687, 51.78785
907.8508, 52.42889
908.3329, 52.82418
908.8150, 52.49556
909.2971, 52.08485
909.7792, 51.62877
910.2614, 51.22813
910.7435, 51.09319
911.2256, 51.25808
911.7077, 51.22578
912.1898, 50.86131
912.6719, 50.49620
913.1541, 50.57865
913.6362, 50.90932
914.1183, 51.20852
914.6004, 51.43835
915.0825, 51.55757
915.5646, 51.36736
916.0468, 51.21505
916.5289, 51.39692
917.0110, 52.00446
917.4931, 52.15342
917.9752, 51.78559
918.4573, 51.44379
918.9395, 51.72127
919.4216, 52.20805
919.9037, 52.09991
920.3858, 51.46997
920.8679, 51.24403
921.3500, 52.43681
921.8322, 53.44890
922.3143, 53.53469
922.7964, 52.89304
923.2785, 52.38153
923.7606, 51.97744
924.2427, 51.91701
924.7249, 52.44343
925.2070, 53.15277
925.6891, 53.34912
926.1712, 53.21886
926.6533, 53.17403
927.1354, 53.43606
927.6176, 53.73246
928.0997, 53.93788
928.5818, 54.16668
929.0639, 54.61807
929.5460, 55.37706
930.0281, 55.80212
930.5103, 55.76005
930.9924, 55.65480
931.4745, 55.96123
931.9566, 56.50508
932.4387, 57.03600
932.9208, 57.51647
933.4030, 57.92969
933.8851, 58.32412
934.3672, 58.58249
934.8493, 58.54493
935.3314, 58.18911
935.8135, 58.44426
936.2957, 59.39983
936.7778, 60.17311
937.2599, 60.02314
937.7420, 59.46931
938.2241, 59.37344
938.7062, 59.60915
939.1884, 59.66173
939.6705, 59.11158
940.1526, 58.58650
940.6347, 58.23440
941.1168, 58.04820
941.5989, 58.16402
942.0811, 58.64950
942.5632, 58.54437
943.0453, 57.47376
943.5274, 56.14071
944.0095, 55.38614
944.4916, 54.96175
944.9738, 54.48342
945.4559, 53.90370
945.9380, 53.14722
946.4201, 51.94475
946.9022, 50.75741
947.3843, 49.96278
947.8665, 49.59664
948.3486, 49.09949
948.8307, 48.46056
949.3128, 47.77843
949.7949, 47.19308
950.2770, 46.56469
950.7592, 45.57144
951.2413, 44.28722
951.7234, 43.45426
952.2055, 43.89268
952.6876, 44.09283
953.1697, 43.52459
953.6519, 42.45511
954.1340, 41.80584
954.6161, 41.55964
955.0982, 41.33592
955.5803, 40.96297
956.0624, 40.63211
956.5446, 40.51329
957.0267, 40.57335
957.5088, 40.76421
957.9909, 41.22723
958.4730, 41.56525
958.9551, 41.60162
959.4373, 41.73010
959.9194, 42.47276
960.4015, 43.73312
960.8836, 44.66595
961.3657, 45.20226
961.8478, 45.62860
962.3300, 46.10069
962.8121, 46.59992
963.2942, 47.08085
963.7763, 47.54476
964.2584, 48.14381
964.7405, 48.93810
965.2227, 49.74501
965.7048, 50.54296
966.1869, 51.27217
966.6690, 51.75212
967.1511, 52.03785
967.6332, 52.34384
968.1154, 52.69579
968.5975, 53.18746
969.0796, 53.99810
969.5617, 54.93787
970.0438, 55.74871
970.5259, 56.43467
971.0081, 56.92242
971.4902, 57.16529
971.9723, 57.32093
972.4544, 57.51049
972.9365, 57.75246
973.4186, 58.05666
973.9008, 58.42289
974.3829, 58.95821
974.8650, 60.13790
975.3471, 61.09271
975.8292, 61.17184
976.3113, 60.50009
976.7935, 60.42896
977.2756, 61.03533
977.7577, 61.64535
978.2398, 61.97095
978.7219, 62.13856
979.2040, 62.36823
979.6862, 62.58258
980.1683, 62.61360
980.6504, 62.26492
981.1325, 61.89721
981.6146, 61.46455
982.0967, 61.13622
982.5789, 61.14042
983.0610, 61.47778
983.5431, 61.89326
984.0252, 62.38997
984.5073, 62.72705
984.9894, 62.54768
985.4716, 62.20500
985.9537, 62.14618
986.4358, 62.42519
986.9179, 62.25714
987.4000, 61.18898
987.8821, 60.33379
988.3643, 60.17348
988.8464, 60.48539
989.3285, 60.63459
989.8106, 60.63284
990.2927, 60.53300
990.7748, 60.34766
991.2570, 60.08624
991.7391, 59.61919
992.2212, 59.13699
992.7033, 58.91784
993.1854, 59.06073
993.6675, 59.22555
994.1497, 59.42263
994.6318, 59.56679
995.1139, 59.58672
995.5960, 59.48352
996.0781, 59.22169
996.5602, 58.80476
997.0424, 58.39459
997.5245, 58.07824
998.0066, 57.77150
998.4887, 57.46085
998.9708, 57.13014
999.4529, 56.67588
999.9351, 56.09486
1000.417, 55.49292
1000.899, 54.92029
1001.381, 54.30573
1001.864, 53.62230
1002.346, 52.80865
1002.828, 51.76336
1003.310, 50.28787
1003.792, 48.88485
1004.274, 47.50692
1004.756, 46.31274
1005.238, 45.57563
1005.720, 45.19527
1006.203, 44.29129
1006.685, 42.87390
1007.167, 41.35516
1007.649, 40.00489
1008.131, 38.67573
1008.613, 37.15468
1009.095, 35.55507
1009.577, 34.45414
1010.060, 34.06920
1010.542, 33.54055
1011.024, 32.64473
1011.506, 31.56384
1011.988, 30.44629
1012.470, 29.39045
1012.952, 28.67451
1013.434, 28.48816
1013.916, 28.23132
1014.399, 27.53574
1014.881, 26.82515
1015.363, 26.37071
1015.845, 26.17616
1016.327, 26.05572
1016.809, 26.01031
1017.291, 26.05258
1017.773, 26.20763
1018.255, 26.44104
1018.738, 26.77511
1019.220, 27.16245
1019.702, 27.46485
1020.184, 27.63315
1020.666, 27.74878
1021.148, 27.77659
1021.630, 27.82866
1022.112, 28.15782
1022.595, 28.65070
1023.077, 28.90778
1023.559, 28.85573
1024.041, 28.71693
1024.523, 28.59512
1025.005, 28.45743
1025.487, 28.29729
1025.969, 28.11149
1026.452, 27.84206
1026.934, 27.48990
1027.416, 27.04487
1027.898, 26.49179
1028.380, 25.85487
1028.862, 25.09084
1029.344, 24.29328
1029.826, 23.63089
1030.308, 23.32941
1030.791, 22.91020
1031.273, 22.29250
1031.755, 21.61749
1032.237, 21.00410
1032.719, 20.44929
1033.201, 19.98727
1033.683, 19.61113
1034.165, 19.24303
1034.647, 18.77213
1035.130, 18.35068
1035.612, 18.14852
1036.094, 18.10217
1036.576, 17.81546
1037.058, 17.17893
1037.540, 16.84104
1038.022, 17.04405
1038.504, 17.39968
1038.987, 17.37590
1039.469, 17.11457
1039.951, 16.83770
1040.433, 16.58539
1040.915, 16.36946
1041.397, 16.17410
1041.879, 16.04379
1042.361, 16.05043
1042.844, 16.15700
1043.326, 16.02624
1043.808, 15.68647
1044.290, 15.40208
1044.772, 15.33080
1045.254, 15.34135
1045.736, 15.38132
1046.218, 15.43751
1046.700, 15.49145
1047.182, 15.56295
1047.665, 15.55456
1048.147, 15.44331
1048.629, 15.31186
1049.111, 15.23053
1049.593, 15.19331
1050.075, 15.21903
1050.557, 15.30356
1051.039, 15.31859
1051.522, 15.12718
1052.004, 14.97341
1052.486, 14.93626
1052.968, 14.98096
1053.450, 15.02488
1053.932, 15.06432
1054.414, 15.07843
1054.896, 15.06361
1055.379, 15.01448
1055.861, 14.81740
1056.343, 14.65600
1056.825, 14.77594
1057.307, 15.27975
1057.789, 15.39572
1058.271, 15.05958
1058.753, 14.71370
1059.235, 14.69567
1059.718, 14.81499
1060.200, 14.82314
1060.682, 14.73653
1061.164, 14.60422
1061.646, 14.33531
1062.128, 14.17949
1062.610, 14.21303
1063.092, 14.30351
1063.574, 14.28054
1064.057, 14.16764
1064.539, 14.05425
1065.021, 13.94907
1065.503, 13.89228
1065.985, 13.91385
1066.467, 13.98667
1066.949, 14.14410
1067.431, 14.34346
1067.914, 14.39791
1068.396, 14.29477
1068.878, 14.18616
1069.360, 14.11852
1069.842, 14.05399
1070.324, 13.92017
1070.806, 13.77475
1071.288, 13.70031
1071.771, 13.74179
1072.253, 13.75874
1072.735, 13.73231
1073.217, 13.71009
1073.699, 13.72154
1074.181, 13.75863
1074.663, 13.80634
1075.145, 13.86073
1075.627, 13.90640
1076.109, 13.93597
1076.592, 13.95707
1077.074, 13.97244
1077.556, 13.98045
1078.038, 13.97542
1078.520, 13.95760
1079.002, 13.94958
1079.484, 13.95309
1079.966, 13.95855
1080.448, 13.97406
1080.931, 13.97523
1081.413, 13.94672
1081.895, 13.88514
1082.377, 13.78373
1082.859, 13.62312
1083.341, 13.49407
1083.823, 13.41078
1084.305, 13.38855
1084.788, 13.50827
1085.270, 13.67833
1085.752, 13.73176
1086.234, 13.60088
1086.716, 13.58806
1087.198, 13.88354
1087.680, 14.07389
1088.162, 13.91561
1088.645, 13.53851
1089.127, 13.34320
1089.609, 13.30737
1090.091, 13.34619
1090.573, 13.50906
1091.055, 13.60574
1091.537, 13.41229
1092.019, 13.21254
1092.501, 13.33042
1092.984, 13.81325
1093.466, 13.98874
1093.948, 13.84423
1094.430, 13.78520
1094.912, 14.27533
1095.394, 14.81388
1095.876, 14.96373
1096.358, 14.81398
1096.840, 14.66143
1097.323, 14.48913
1097.805, 14.43161
1098.287, 14.52538
1098.769, 14.66772
1099.251, 14.76910
1099.733, 14.82713
1100.215, 14.82744
1100.697, 14.77010
1101.180, 14.71089
1101.662, 14.58043
1102.144, 14.59317
1102.626, 14.89994
1103.108, 15.29137
1103.590, 15.18200
1104.072, 14.73371
1104.554, 14.45154
1105.036, 14.48881
1105.519, 14.63423
1106.001, 14.94322
1106.483, 15.17746
1106.965, 15.13992
1107.447, 14.86106
1107.929, 14.78543
1108.411, 14.90185
1108.893, 15.01400
1109.375, 15.00797
1109.858, 14.98380
1110.340, 15.03638
1110.822, 15.10891
1111.304, 15.11038
1111.786, 14.99117
1112.268, 14.99329
1112.750, 15.14286
1113.232, 15.26222
1113.715, 15.13718
1114.197, 14.95833
1114.679, 14.97322
1115.161, 15.14085
1115.643, 15.29092
1116.125, 15.44138
1116.607, 15.46211
1117.089, 15.29185
1117.572, 15.09006
1118.054, 15.05646
1118.536, 15.14244
1119.018, 15.28305
1119.500, 15.46619
1119.982, 15.55959
1120.464, 15.44929
1120.946, 15.30482
1121.428, 15.13184
1121.911, 14.99803
1122.393, 15.11891
1122.875, 15.43141
1123.357, 15.67497
1123.839, 15.80244
1124.321, 15.78673
1124.803, 15.38067
1125.285, 15.04482
1125.767, 15.12552
1126.250, 15.56433
1126.732, 15.80217
1127.214, 15.84263
1127.696, 15.76321
1128.178, 15.51628
1128.660, 15.30550
1129.142, 15.38568
1129.624, 15.55626
1130.107, 15.54260
1130.589, 15.25823
1131.071, 15.18313
1131.553, 15.34292
1132.035, 15.50568
1132.517, 15.48190
1132.999, 15.40385
1133.481, 15.49613
1133.964, 15.64740
1134.446, 15.58127
1134.928, 14.98741
1135.410, 14.74539
1135.892, 14.98063
1136.374, 15.32112
1136.856, 15.42358
1137.338, 15.36602
1137.820, 15.22537
1138.302, 15.03272
1138.785, 14.92294
1139.267, 15.05942
1139.749, 15.11081
1140.231, 14.98210
1140.713, 14.80910
1141.195, 14.83158
1141.677, 14.96731
1142.159, 14.96897
1142.642, 14.80273
1143.124, 14.64313
1143.606, 14.57862
1144.088, 14.52622
1144.570, 14.43305
1145.052, 14.34237
1145.534, 14.43375
1146.016, 14.65616
1146.499, 14.68287
1146.981, 14.36957
1147.463, 14.16860
1147.945, 14.55112
1148.427, 14.96033
1148.909, 15.00464
1149.391, 14.72998
1149.873, 14.51078
1150.355, 14.34626
1150.838, 14.27276
1151.320, 14.35499
1151.802, 14.42373
1152.284, 14.31089
1152.766, 14.13756
1153.248, 14.03619
1153.730, 14.01658
1154.212, 14.01637
1154.694, 14.03784
1155.177, 14.04511
1155.659, 13.98524
1156.141, 13.93451
1156.623, 14.03838
1157.105, 13.90191
1157.587, 14.13223
1158.069, 13.75994
1158.551, 13.55562
1159.034, 13.54364
1159.516, 13.60114
1159.998, 13.65131
1160.480, 13.70051
1160.962, 13.78057
1161.444, 13.86795
1161.926, 13.87810
1162.408, 13.75418
1162.891, 13.66690
1163.373, 13.64788
1163.855, 13.61688
1164.337, 13.44436
1164.819, 13.22518
1165.301, 13.10226
1165.783, 13.08313
1166.265, 13.13270
1166.747, 13.34580
1167.229, 13.44348
1167.712, 13.35258
1168.194, 13.17496
1168.676, 12.98925
1169.158, 12.84867
1169.640, 12.90121
1170.122, 13.16398
1170.604, 13.37683
1171.086, 13.41441
1171.569, 13.44954
1172.051, 13.54914
1172.533, 13.64564
1173.015, 13.52913
1173.497, 13.30249
1173.979, 13.30937
1174.461, 13.68522
1174.943, 13.85328
1175.426, 13.29730
1175.908, 12.82608
1176.390, 12.79273
1176.872, 13.05940
1177.354, 13.22504
1177.836, 13.29707
1178.318, 13.28738
1178.800, 13.15701
1179.282, 13.07607
1179.765, 13.16382
1180.247, 13.28542
1180.729, 13.38780
1181.211, 13.45677
1181.693, 13.33423
1182.175, 13.07736
1182.657, 13.00377
1183.139, 13.41498
1183.621, 13.72279
1184.104, 13.53191
1184.586, 13.21142
1185.068, 13.01985
1185.550, 12.95662
1186.032, 13.06198
1186.514, 13.31301
1186.996, 13.51233
1187.478, 13.54999
1187.961, 13.50970
1188.443, 13.36011
1188.925, 13.20135
1189.407, 13.13979
1189.889, 13.17809
1190.371, 13.24813
1190.853, 13.34561
1191.335, 13.41039
1191.818, 13.27186
1192.300, 13.23512
1192.782, 13.70270
1193.264, 14.25840
1193.746, 14.20867
1194.228, 13.51471
1194.710, 13.25645
1195.192, 13.49576
1195.674, 13.72681
1196.156, 13.49712
1196.639, 13.23309
1197.121, 13.20757
1197.603, 13.34854
1198.085, 13.52376
1198.567, 13.74156
1199.049, 13.83153
1199.531, 13.77447
1200.013, 13.66043
1200.496, 13.47209
1200.978, 13.33580
1201.460, 13.41188
1201.942, 13.60121
1202.424, 13.59129
1202.906, 13.37091
1203.388, 13.24999
1203.870, 13.28137
1204.353, 13.36883
1204.835, 13.46685
1205.317, 13.55667
1205.799, 13.59796
1206.281, 13.61626
1206.763, 13.73812
1207.245, 13.97079
1207.727, 14.07315
1208.209, 13.97947
1208.692, 13.83268
1209.174, 13.73317
1209.656, 13.65295
1210.138, 13.55744
1210.620, 13.45555
1211.102, 13.40053
1211.584, 13.39259
1212.066, 13.45029
1212.548, 13.60243
1213.031, 13.72637
1213.513, 13.64429
1213.995, 13.54630
1214.477, 13.62103
1214.959, 13.84663
1215.441, 14.08859
1215.923, 14.35115
1216.405, 14.32103
1216.888, 13.76555
1217.370, 13.29707
1217.852, 13.63521
1218.334, 14.15231
1218.816, 14.24608
1219.298, 13.93213
1219.780, 13.66589
1220.262, 13.44773
1220.745, 13.36760
1221.227, 13.52569
1221.709, 13.67144
1222.191, 13.55335
1222.673, 13.36689
1223.155, 13.29655
1223.637, 13.34328
1224.119, 13.46243
1224.601, 13.64579
1225.083, 13.72674
1225.566, 13.55951
1226.048, 13.39817
1226.530, 13.46958
1227.012, 13.60033
1227.494, 13.61246
1227.976, 13.50535
1228.458, 13.38750
1228.940, 13.26606
1229.423, 13.25202
1229.905, 13.51883
1230.387, 13.72307
1230.869, 13.60749
1231.351, 13.36217
1231.833, 13.14177
1232.315, 12.94729
1232.797, 12.96446
1233.280, 13.16903
1233.762, 13.34243
1234.244, 13.32820
1234.726, 13.30882
1235.208, 13.42461
1235.690, 13.53682
1236.172, 13.50463
1236.654, 13.33485
1237.136, 13.21089
1237.619, 13.12996
1238.101, 13.06254
1238.583, 13.02875
1239.065, 12.96166
1239.547, 12.80466
1240.029, 12.62838
1240.511, 12.46842
1240.993, 12.33643
1241.475, 12.36573
1241.958, 12.53729
1242.440, 12.73046
1242.922, 12.96312
1243.404, 13.09880
1243.886, 13.02586
1244.368, 12.93179
1244.850, 13.10304
1245.332, 13.41374
1245.815, 13.17120
1246.297, 12.48744
1246.779, 11.99489
1247.261, 12.18938
1247.743, 12.33020
1248.225, 12.27101
1248.707, 12.12175
1249.189, 11.93705
1249.672, 11.76459
1250.154, 11.77277
1250.636, 11.92624
1251.118, 12.04439
1251.600, 12.03577
1252.082, 12.02124
1252.564, 12.02929
1253.046, 12.00742
1253.528, 11.83509
1254.010, 11.62544
1254.493, 11.62486
1254.975, 11.80031
1255.457, 11.96809
1255.939, 12.16558
1256.421, 12.17556
1256.903, 11.94332
1257.385, 11.63629
1257.867, 11.30868
1258.350, 11.07711
1258.832, 11.22016
1259.314, 11.63185
1259.796, 11.83345
1260.278, 11.67299
1260.760, 11.57213
1261.242, 11.57951
1261.724, 11.60111
1262.207, 11.54935
1262.689, 11.46358
1263.171, 11.37989
1263.653, 11.29986
1264.135, 11.20939
1264.617, 11.08365
1265.099, 11.07503
1265.581, 11.20734
1266.063, 11.35848
1266.546, 11.49311
1267.028, 11.53781
1267.510, 11.32164
1267.992, 10.99354
1268.474, 10.95263
1268.956, 11.22997
1269.438, 11.39472
1269.920, 11.40956
1270.402, 11.34848
1270.885, 11.19828
1271.367, 11.06143
1271.849, 11.04226
1272.331, 11.05556
1272.813, 10.91902
1273.295, 10.65486
1273.777, 10.65477
1274.259, 10.93323
1274.742, 11.10126
1275.224, 10.72580
1275.706, 10.44630
1276.188, 10.58397
1276.670, 10.85408
1277.152, 10.81469
1277.634, 10.55476
1278.116, 10.45944
1278.599, 10.53659
1279.081, 10.60033
1279.563, 10.49680
1280.045, 10.47845
1280.527, 10.61457
1281.009, 10.81601
1281.491, 10.99197
1281.973, 11.13840
1282.455, 11.29901
1282.938, 11.44083
1283.420, 11.35290
1283.902, 10.70162
1284.384, 10.35841
1284.866, 10.47776
1285.348, 10.75032
1285.830, 10.89588
1286.312, 10.94769
1286.794, 10.91160
1287.277, 10.81505
1287.759, 10.77339
1288.241, 10.81890
1288.723, 10.81851
1289.205, 10.74978
1289.687, 10.69855
1290.169, 10.76594
1290.651, 10.86144
1291.134, 10.93124
1291.616, 10.95496
1292.098, 10.88983
1292.580, 10.72429
1293.062, 10.60171
1293.544, 10.53310
1294.026, 10.47960
1294.508, 10.38037
1294.990, 10.32382
1295.473, 10.40031
1295.955, 10.52879
1296.437, 10.60779
1296.919, 10.64207
1297.401, 10.65471
1297.883, 10.65176
1298.365, 10.67466
1298.847, 10.83252
1299.329, 10.89135
1299.812, 10.74671
1300.294, 10.55782
1300.776, 10.50589
1301.258, 10.55464
1301.740, 10.61932
1302.222, 10.69191
1302.704, 10.75817
1303.186, 10.82583
1303.669, 10.86127
1304.151, 10.86173
1304.633, 10.82819
##END=



