##NAMES=Andradite
##RRUFFID=R060449
##IDEAL CHEMISTRY=Ca_3_Fe^3+^_2_(SiO_4_)_3_
##LOCALITY=Namibia
##OWNER=RRUFF
##SOURCE=Gemological Institute of America
##DESCRIPTION=Blue fragment, variety demantoid
##STATUS=The identification of this mineral has been confirmed by X-ray diffraction and chemical analysis
##URL=rruff.info/R060449
##MEASURED CHEMISTRY=Ca_3.00_(Fe^3+^_1.93_Al_0.07_)_Î£=2_(Si_1.00_O_4_)_3__
92.20605, 58.65210
92.68817, 61.02365
93.17029, 62.48439
93.65240, 61.61430
94.13452, 59.68541
94.61664, 57.15652
95.09875, 54.18244
95.58087, 51.07575
96.06299, 48.56633
96.54510, 46.94957
97.02722, 45.49744
97.50933, 44.03630
97.99145, 42.65551
98.47356, 41.51208
98.95568, 40.71012
99.43780, 40.19122
99.91991, 39.49528
100.4020, 38.55633
100.8841, 37.56279
101.3663, 36.45294
101.8484, 35.29119
102.3305, 34.32714
102.8126, 33.85536
103.2947, 34.03905
103.7768, 33.99262
104.2590, 33.51705
104.7411, 32.90164
105.2232, 32.46448
105.7053, 32.28957
106.1874, 32.20757
106.6695, 31.97517
107.1517, 31.60129
107.6338, 31.26684
108.1159, 31.06473
108.5980, 30.97410
109.0801, 30.88857
109.5622, 30.77113
110.0444, 30.66111
110.5265, 30.62822
111.0086, 30.68066
111.4907, 30.68193
111.9728, 30.41407
112.4549, 29.74436
112.9371, 29.27311
113.4192, 29.25155
113.9013, 29.36948
114.3834, 29.40981
114.8655, 29.28906
115.3476, 29.07352
115.8298, 28.94051
116.3119, 28.94999
116.7940, 28.97845
117.2761, 29.12360
117.7582, 29.25641
118.2403, 29.17792
118.7225, 28.74897
119.2046, 28.01800
119.6867, 27.57176
120.1688, 27.46875
120.6509, 27.51772
121.1330, 27.77932
121.6152, 28.17804
122.0973, 28.47615
122.5794, 28.48426
123.0615, 28.17728
123.5436, 27.81004
124.0257, 27.21639
124.5079, 26.65476
124.9900, 26.42093
125.4721, 26.57545
125.9542, 26.81032
126.4363, 26.83899
126.9184, 26.73052
127.4006, 26.63025
127.8827, 26.61311
128.3648, 26.64842
128.8469, 26.63346
129.3290, 26.50843
129.8111, 26.40674
130.2932, 26.47536
130.7754, 26.65628
131.2575, 26.74868
131.7396, 26.51622
132.2217, 25.90359
132.7038, 25.46999
133.1859, 25.38984
133.6681, 25.37857
134.1502, 25.34263
134.6323, 25.26104
135.1144, 25.14999
135.5965, 25.02777
136.0786, 24.88486
136.5608, 24.74854
137.0429, 24.58743
137.5250, 24.44903
138.0071, 24.37597
138.4892, 24.37899
138.9713, 24.43154
139.4535, 24.48115
139.9356, 24.57212
140.4177, 24.59488
140.8998, 24.44589
141.3819, 24.24689
141.8640, 24.19492
142.3462, 24.40164
142.8283, 24.74094
143.3104, 24.84477
143.7925, 24.64277
144.2746, 24.39522
144.7567, 24.13397
145.2388, 23.88870
145.7210, 23.78822
146.2031, 23.92709
146.6852, 24.24827
147.1673, 24.60126
147.6494, 24.99048
148.1315, 25.39593
148.6137, 25.77160
149.0958, 26.10143
149.5779, 26.52087
150.0600, 26.97491
150.5421, 27.60360
151.0242, 28.63121
151.5064, 30.22502
151.9885, 32.12449
152.4706, 33.83974
152.9527, 35.51676
153.4348, 36.69644
153.9169, 37.11732
154.3991, 37.10564
154.8812, 37.04561
155.3633, 37.14413
155.8454, 37.37433
156.3275, 37.57033
156.8096, 37.59499
157.2918, 37.73529
157.7739, 38.06616
158.2560, 38.55309
158.7381, 39.11930
159.2202, 39.70006
159.7023, 40.29028
160.1845, 41.09956
160.6666, 42.28593
161.1487, 43.50559
161.6308, 44.57183
162.1129, 45.53478
162.5950, 46.58129
163.0772, 47.84557
163.5593, 49.35451
164.0414, 51.19342
164.5235, 53.27245
165.0056, 55.69653
165.4877, 58.31325
165.9698, 61.15924
166.4520, 64.75607
166.9341, 69.60928
167.4162, 75.77735
167.8983, 83.22570
168.3804, 90.25285
168.8625, 99.28203
169.3447, 112.9643
169.8268, 131.5083
170.3089, 155.2395
170.7910, 187.3010
171.2731, 225.5115
171.7552, 262.9914
172.2374, 306.5718
172.7195, 348.0029
173.2016, 362.2507
173.6837, 338.6396
174.1658, 296.9940
174.6479, 247.1509
175.1301, 192.0541
175.6122, 142.6845
176.0943, 107.6499
176.5764, 86.45407
177.0585, 69.46866
177.5406, 57.93821
178.0228, 49.45628
178.5049, 43.57814
178.9870, 39.88732
179.4691, 37.41187
179.9512, 35.35211
180.4333, 33.77059
180.9155, 32.31778
181.3976, 30.95086
181.8797, 29.74035
182.3618, 28.74753
182.8439, 27.96481
183.3260, 27.34662
183.8082, 26.85665
184.2903, 26.57856
184.7724, 26.21007
185.2545, 25.64771
185.7366, 25.08838
186.2187, 24.65117
186.7009, 24.36099
187.1830, 24.17758
187.6651, 24.05604
188.1472, 24.08140
188.6293, 23.97742
189.1114, 23.70183
189.5936, 23.32885
190.0757, 22.85762
190.5578, 22.29745
191.0399, 21.78695
191.5220, 21.57308
192.0041, 21.77387
192.4863, 21.94995
192.9684, 22.09410
193.4505, 22.17697
193.9326, 22.11782
194.4147, 21.86547
194.8968, 21.58140
195.3790, 21.59039
195.8611, 21.92171
196.3432, 22.17015
196.8253, 22.14428
197.3074, 21.95097
197.7895, 21.82701
198.2717, 21.85172
198.7538, 21.93670
199.2359, 21.95723
199.7180, 21.91076
200.2001, 21.89066
200.6822, 21.98045
201.1644, 22.15170
201.6465, 22.25327
202.1286, 22.18361
202.6107, 22.11308
203.0928, 22.22311
203.5749, 22.51136
204.0571, 22.78501
204.5392, 22.87972
205.0213, 22.79845
205.5034, 22.72066
205.9855, 22.62513
206.4676, 22.59007
206.9497, 22.68519
207.4319, 22.90508
207.9140, 23.16129
208.3961, 23.32128
208.8782, 23.33886
209.3603, 23.55487
209.8424, 24.27385
210.3246, 25.00366
210.8067, 25.46502
211.2888, 25.65061
211.7709, 25.77746
212.2530, 26.05269
212.7351, 26.40780
213.2173, 27.14905
213.6994, 28.38556
214.1815, 29.88064
214.6636, 31.63540
215.1457, 33.58226
215.6278, 35.54920
216.1100, 37.36371
216.5921, 39.22433
217.0742, 40.35207
217.5563, 40.41314
218.0384, 40.15883
218.5205, 39.94999
219.0027, 39.89867
219.4848, 40.01408
219.9669, 40.30468
220.4490, 40.76354
220.9311, 41.47644
221.4132, 42.45909
221.8954, 43.65249
222.3775, 45.03161
222.8596, 46.58555
223.3417, 48.28831
223.8238, 50.09165
224.3059, 51.94204
224.7881, 54.14556
225.2702, 56.62151
225.7523, 59.48930
226.2344, 62.78794
226.7165, 66.53983
227.1986, 70.84361
227.6807, 75.93867
228.1629, 81.99903
228.6450, 87.99010
229.1271, 93.46111
229.6092, 99.02517
230.0913, 104.5592
230.5734, 109.9523
231.0556, 117.1492
231.5377, 127.8606
232.0198, 141.9975
232.5019, 161.4288
232.9840, 187.7444
233.4661, 218.9702
233.9483, 256.5161
234.4304, 302.5226
234.9125, 342.7757
235.3946, 365.2121
235.8767, 371.2592
236.3588, 358.1050
236.8410, 312.7297
237.3231, 251.7996
237.8052, 198.0652
238.2873, 152.5244
238.7694, 115.7635
239.2515, 90.83230
239.7337, 74.80945
240.2158, 62.85624
240.6979, 54.63078
241.1800, 49.14532
241.6621, 44.82966
242.1442, 41.85760
242.6264, 39.51697
243.1085, 37.34699
243.5906, 35.45073
244.0727, 34.09901
244.5548, 33.60116
245.0369, 33.63694
245.5191, 33.54523
246.0012, 33.30138
246.4833, 32.98240
246.9654, 32.56458
247.4475, 32.11657
247.9296, 31.72976
248.4117, 31.44211
248.8939, 31.23995
249.3760, 31.09473
249.8581, 31.02373
250.3402, 30.97766
250.8223, 30.90538
251.3044, 30.85549
251.7866, 30.88553
252.2687, 31.02279
252.7508, 31.24591
253.2329, 31.51351
253.7150, 31.83525
254.1971, 32.18294
254.6793, 32.51159
255.1614, 32.87342
255.6435, 33.31340
256.1256, 33.84636
256.6077, 34.48038
257.0898, 35.21642
257.5720, 35.95531
258.0541, 37.02415
258.5362, 38.09797
259.0183, 39.63765
259.5004, 41.96497
259.9825, 45.19771
260.4647, 49.39233
260.9468, 54.67196
261.4289, 61.16981
261.9110, 68.65174
262.3931, 78.42410
262.8752, 88.22529
263.3574, 97.39143
263.8395, 105.3896
264.3216, 110.3334
264.8037, 108.8526
265.2858, 97.64221
265.7679, 86.15640
266.2501, 72.82832
266.7322, 60.49860
267.2143, 51.28384
267.6964, 45.49022
268.1785, 41.88343
268.6606, 38.93123
269.1428, 36.70168
269.6249, 35.08461
270.1070, 34.26783
270.5891, 33.78188
271.0712, 33.41601
271.5533, 33.11411
272.0355, 32.88427
272.5176, 32.74468
272.9997, 32.72709
273.4818, 32.66705
273.9639, 32.36533
274.4460, 32.19767
274.9282, 32.43301
275.4103, 33.01783
275.8924, 33.68448
276.3745, 34.19473
276.8566, 34.53191
277.3387, 34.87085
277.8208, 35.22377
278.3029, 35.56789
278.7851, 35.82446
279.2672, 36.05281
279.7493, 36.43516
280.2314, 37.14006
280.7135, 38.14763
281.1956, 38.85853
281.6778, 38.95031
282.1599, 39.14914
282.6420, 39.78910
283.1241, 40.72924
283.6062, 41.61675
284.0883, 42.22087
284.5705, 42.62976
285.0526, 43.34439
285.5347, 44.45995
286.0168, 45.71654
286.4989, 47.04240
286.9810, 48.47143
287.4632, 50.04657
287.9453, 51.78350
288.4274, 53.70497
288.9095, 55.92223
289.3916, 58.34933
289.8737, 61.14714
290.3559, 64.17493
290.8380, 67.62917
291.3201, 71.87504
291.8022, 77.06686
292.2843, 82.75357
292.7664, 88.22636
293.2486, 93.38754
293.7307, 98.50631
294.2128, 104.5054
294.6949, 110.0585
295.1770, 113.8552
295.6591, 115.5965
296.1413, 115.4525
296.6234, 113.4272
297.1055, 109.0219
297.5876, 104.3789
298.0697, 99.11321
298.5518, 93.92061
299.0340, 89.19593
299.5161, 85.05767
299.9982, 81.76833
300.4803, 79.62327
300.9624, 78.77475
301.4445, 78.50034
301.9267, 78.67171
302.4088, 79.49766
302.8909, 81.04449
303.3730, 83.34708
303.8551, 86.51463
304.3372, 90.61002
304.8194, 95.72536
305.3015, 101.9939
305.7836, 108.7699
306.2657, 117.1934
306.7478, 127.3826
307.2299, 139.5876
307.7121, 154.6627
308.1942, 173.2618
308.6763, 194.8445
309.1584, 217.5217
309.6405, 243.3662
310.1227, 267.0827
310.6048, 290.9654
311.0869, 311.1415
311.5690, 319.5528
312.0511, 312.8014
312.5332, 294.3418
313.0154, 268.5846
313.4975, 232.3773
313.9796, 199.5186
314.4617, 172.2196
314.9438, 149.9596
315.4259, 132.2120
315.9081, 118.9739
316.3902, 109.3555
316.8723, 102.6854
317.3544, 99.29712
317.8365, 97.12997
318.3186, 95.90434
318.8007, 95.91692
319.2828, 97.45771
319.7650, 100.5538
320.2471, 104.9962
320.7292, 110.6521
321.2113, 117.6410
321.6934, 125.7788
322.1755, 136.4942
322.6577, 147.1243
323.1398, 157.1836
323.6219, 166.0629
324.1040, 171.8432
324.5861, 173.2882
325.0682, 170.5255
325.5504, 164.8143
326.0325, 153.2064
326.5146, 142.3889
326.9967, 134.1261
327.4788, 128.3498
327.9609, 124.8680
328.4431, 123.6405
328.9252, 124.5909
329.4073, 127.8366
329.8894, 133.6956
330.3715, 140.6606
330.8536, 148.5375
331.3358, 157.3334
331.8179, 167.4068
332.3000, 178.8680
332.7821, 190.6251
333.2642, 201.4161
333.7463, 211.1716
334.2285, 219.7278
334.7106, 225.9986
335.1927, 231.7424
335.6748, 238.2796
336.1569, 245.7260
336.6390, 253.6488
337.1212, 261.4293
337.6033, 269.1032
338.0854, 278.8876
338.5675, 290.9966
339.0496, 304.8018
339.5317, 319.8224
340.0139, 336.2958
340.4960, 354.7542
340.9781, 375.5152
341.4602, 398.4784
341.9423, 423.2149
342.4244, 446.8899
342.9066, 475.2753
343.3887, 508.3301
343.8708, 547.1824
344.3529, 592.3585
344.8350, 643.7733
345.3171, 703.5571
345.7993, 775.3107
346.2814, 857.6888
346.7635, 958.1416
347.2456, 1078.222
347.7277, 1214.831
348.2098, 1370.386
348.6920, 1542.104
349.1741, 1722.001
349.6562, 1903.362
350.1383, 2096.189
350.6204, 2235.222
351.1025, 2339.183
351.5847, 2383.029
352.0668, 2341.825
352.5489, 2227.095
353.0310, 2064.851
353.5131, 1868.785
353.9952, 1644.583
354.4774, 1447.762
354.9595, 1279.019
355.4416, 1136.959
355.9237, 1025.605
356.4058, 940.0498
356.8879, 875.0039
357.3701, 828.3943
357.8522, 797.9456
358.3343, 778.3134
358.8164, 774.2512
359.2985, 775.0120
359.7806, 778.2871
360.2627, 787.1184
360.7448, 802.9241
361.2270, 826.4768
361.7091, 858.5898
362.1912, 899.8035
362.6733, 948.9055
363.1554, 1013.603
363.6375, 1093.505
364.1197, 1187.823
364.6018, 1294.952
365.0839, 1416.821
365.5660, 1556.401
366.0481, 1717.313
366.5302, 1897.560
367.0124, 2082.864
367.4945, 2290.091
367.9766, 2479.149
368.4587, 2661.441
368.9408, 2814.551
369.4229, 2916.345
369.9051, 2957.464
370.3872, 2938.563
370.8693, 2854.511
371.3514, 2688.045
371.8335, 2497.968
372.3156, 2269.089
372.7978, 2036.730
373.2799, 1814.255
373.7620, 1607.621
374.2441, 1420.319
374.7262, 1257.606
375.2083, 1119.982
375.6905, 1000.804
376.1726, 904.1924
376.6547, 823.5954
377.1368, 757.1053
377.6189, 703.0911
378.1010, 659.6500
378.5832, 626.3877
379.0653, 602.0952
379.5474, 584.0198
380.0295, 573.4510
380.5116, 565.8513
380.9937, 564.8983
381.4759, 563.4587
381.9580, 555.0506
382.4401, 538.2435
382.9222, 513.3084
383.4043, 477.9483
383.8864, 432.2060
384.3686, 387.7747
384.8507, 345.5271
385.3328, 307.4562
385.8149, 274.0556
386.2970, 245.4986
386.7791, 221.2947
387.2613, 202.4302
387.7434, 187.8567
388.2255, 175.2280
388.7076, 164.6402
389.1897, 155.3285
389.6718, 146.9129
390.1540, 139.3721
390.6361, 132.8541
391.1182, 127.8453
391.6003, 123.3953
392.0824, 118.4974
392.5645, 113.2484
393.0467, 108.7291
393.5288, 105.5703
394.0109, 103.2280
394.4930, 100.6700
394.9751, 97.84611
395.4572, 95.03008
395.9394, 92.31444
396.4215, 89.68330
396.9036, 87.12519
397.3857, 84.60883
397.8678, 82.21648
398.3499, 80.00459
398.8321, 77.98943
399.3142, 76.17508
399.7963, 74.69852
400.2784, 73.29174
400.7605, 71.66106
401.2426, 69.89159
401.7247, 68.40222
402.2068, 67.50189
402.6890, 67.01684
403.1711, 66.18381
403.6532, 64.54604
404.1353, 63.18346
404.6174, 62.49195
405.0995, 62.09528
405.5817, 61.49269
406.0638, 60.54960
406.5459, 59.56887
407.0280, 59.02274
407.5101, 59.20713
407.9922, 58.87521
408.4744, 57.79381
408.9565, 56.48006
409.4386, 54.98853
409.9207, 53.48606
410.4028, 52.33805
410.8849, 51.84373
411.3671, 51.89138
411.8492, 51.59709
412.3313, 50.60759
412.8134, 49.69804
413.2955, 48.96423
413.7776, 48.36338
414.2598, 47.89688
414.7419, 47.55152
415.2240, 47.19047
415.7061, 46.56518
416.1882, 45.55083
416.6703, 44.69876
417.1525, 44.14016
417.6346, 43.66411
418.1167, 43.21494
418.5988, 42.77098
419.0809, 42.30564
419.5630, 41.76026
420.0452, 41.18491
420.5273, 40.80131
421.0094, 40.69616
421.4915, 40.60749
421.9736, 40.47586
422.4557, 40.29049
422.9379, 40.01506
423.4200, 39.62547
423.9021, 39.23062
424.3842, 38.94242
424.8663, 38.75920
425.3484, 38.63825
425.8306, 38.64365
426.3127, 38.61317
426.7948, 38.32948
427.2769, 37.84374
427.7590, 37.49719
428.2411, 37.50718
428.7233, 37.71130
429.2054, 37.89285
429.6875, 38.04625
430.1696, 38.11930
430.6517, 38.00519
431.1339, 37.81009
431.6160, 37.84255
432.0981, 38.23896
432.5802, 38.64863
433.0623, 38.87959
433.5444, 38.99895
434.0266, 39.14510
434.5087, 39.35802
434.9908, 39.60823
435.4729, 39.86226
435.9550, 40.12436
436.4371, 40.36596
436.9193, 40.58612
437.4014, 40.78577
437.8835, 40.85430
438.3656, 40.87422
438.8477, 41.15213
439.3298, 41.92085
439.8120, 43.07232
440.2941, 44.00747
440.7762, 44.62673
441.2583, 45.14874
441.7404, 45.38423
442.2225, 45.63825
442.7046, 46.22737
443.1867, 47.22105
443.6689, 48.45556
444.1510, 49.70089
444.6331, 50.90597
445.1152, 52.39775
445.5973, 54.17070
446.0794, 56.24023
446.5616, 58.57710
447.0437, 61.21101
447.5258, 64.25311
448.0079, 67.76809
448.4900, 71.64907
448.9721, 75.77215
449.4543, 80.44621
449.9364, 84.45677
450.4185, 87.74506
450.9006, 90.12243
451.3827, 91.60038
451.8648, 92.11382
452.3470, 91.10969
452.8291, 87.67732
453.3112, 82.25243
453.7933, 76.67355
454.2754, 70.84136
454.7575, 65.40565
455.2397, 60.87167
455.7218, 57.02079
456.2039, 53.58884
456.6860, 50.57104
457.1681, 47.90820
457.6502, 45.50425
458.1324, 43.39685
458.6145, 41.73189
459.0966, 40.59282
459.5787, 39.84705
460.0608, 39.39122
460.5429, 39.24012
461.0251, 39.07445
461.5072, 38.84790
461.9893, 38.57804
462.4714, 38.25609
462.9535, 37.89555
463.4356, 37.54767
463.9178, 37.22972
464.3999, 36.96173
464.8820, 36.85133
465.3641, 36.99164
465.8462, 37.15776
466.3283, 37.24335
466.8105, 37.37899
467.2926, 37.74549
467.7747, 38.36576
468.2568, 39.05362
468.7389, 39.55226
469.2210, 39.78490
469.7032, 40.37117
470.1853, 41.70541
470.6674, 42.98924
471.1495, 43.90198
471.6316, 44.62226
472.1137, 45.42359
472.5959, 46.42701
473.0780, 47.63013
473.5601, 49.06516
474.0422, 50.78259
474.5243, 52.50619
475.0064, 54.17036
475.4886, 55.83611
475.9707, 57.56927
476.4528, 59.34246
476.9349, 61.06709
477.4170, 62.64473
477.8991, 64.13311
478.3813, 65.60179
478.8634, 66.98871
479.3455, 68.69936
479.8276, 71.02029
480.3097, 73.78783
480.7918, 76.61131
481.2740, 79.35963
481.7561, 82.47849
482.2382, 86.34487
482.7203, 90.70087
483.2024, 94.92356
483.6845, 98.85995
484.1666, 103.2407
484.6487, 108.6416
485.1309, 115.1390
485.6130, 123.1806
486.0951, 132.9074
486.5772, 143.8837
487.0593, 155.6009
487.5414, 168.5618
488.0236, 183.9388
488.5057, 202.2373
488.9878, 222.1845
489.4699, 241.4675
489.9520, 260.3015
490.4341, 278.2186
490.9163, 298.9038
491.3984, 315.4241
491.8805, 324.3773
492.3626, 326.1567
492.8447, 322.2043
493.3268, 313.0703
493.8090, 299.5813
494.2911, 283.5361
494.7732, 263.5876
495.2553, 244.8667
495.7374, 228.1411
496.2195, 213.5247
496.7017, 201.2957
497.1838, 191.4603
497.6659, 183.6178
498.1480, 177.9356
498.6301, 174.0712
499.1122, 171.2316
499.5944, 169.4608
500.0765, 168.3705
500.5586, 167.7105
501.0407, 167.6374
501.5228, 168.3744
502.0049, 169.9805
502.4871, 172.2912
502.9692, 175.0218
503.4513, 178.4598
503.9334, 183.0907
504.4155, 189.0065
504.8976, 196.2666
505.3798, 204.8791
505.8619, 214.9644
506.3440, 226.6017
506.8261, 238.3866
507.3082, 253.0362
507.7903, 270.8513
508.2725, 292.3901
508.7546, 318.1763
509.2367, 348.4295
509.7188, 383.2470
510.2009, 422.3268
510.6830, 467.8932
511.1652, 514.3703
511.6473, 574.0583
512.1294, 636.6882
512.6115, 703.9266
513.0936, 771.6848
513.5757, 834.2184
514.0579, 890.1077
514.5400, 935.1758
515.0221, 963.7420
515.5042, 976.7062
515.9863, 966.4496
516.4684, 923.8243
516.9506, 862.9400
517.4327, 793.1307
517.9148, 715.8685
518.3969, 640.3672
518.8790, 567.5632
519.3611, 499.9355
519.8433, 440.5715
520.3254, 389.4072
520.8075, 344.8675
521.2896, 306.6021
521.7717, 273.9926
522.2538, 247.0707
522.7360, 226.3338
523.2181, 208.0094
523.7002, 192.1118
524.1823, 178.0149
524.6644, 165.3100
525.1465, 154.0045
525.6287, 144.2623
526.1108, 136.3360
526.5929, 130.0345
527.0750, 124.1941
527.5571, 119.0063
528.0392, 114.1215
528.5214, 109.2810
529.0035, 104.8393
529.4856, 101.2033
529.9677, 98.34898
530.4498, 95.82940
530.9319, 93.20585
531.4141, 90.57059
531.8962, 88.53350
532.3783, 87.35854
532.8604, 86.18369
533.3425, 84.45385
533.8246, 82.62743
534.3068, 81.15662
534.7889, 80.12457
535.2710, 79.34705
535.7531, 78.83617
536.2352, 78.46487
536.7173, 77.94597
537.1995, 77.23687
537.6816, 76.46380
538.1637, 75.70309
538.6458, 74.95916
539.1279, 74.26488
539.6100, 73.48137
540.0922, 72.90852
540.5743, 72.72750
541.0564, 72.75624
541.5385, 72.76240
542.0206, 72.70243
542.5027, 72.69486
542.9849, 72.87105
543.4670, 73.23519
543.9491, 73.59179
544.4312, 73.72377
544.9133, 74.12020
545.3954, 74.97024
545.8775, 76.08453
546.3596, 77.21712
546.8417, 78.31221
547.3239, 79.56847
547.8060, 81.11838
548.2881, 82.98109
548.7702, 85.40565
549.2523, 88.67854
549.7344, 91.91128
550.2166, 94.61739
550.6987, 96.91162
551.1808, 99.05740
551.6629, 101.4431
552.1450, 102.8610
552.6271, 102.4126
553.1093, 100.4855
553.5914, 97.70602
554.0735, 94.18539
554.5556, 90.33959
555.0377, 86.51894
555.5198, 82.70979
556.0020, 78.87273
556.4841, 74.55067
556.9662, 70.75072
557.4483, 67.87212
557.9304, 65.57299
558.4125, 63.55357
558.8947, 61.69080
559.3768, 59.90776
559.8589, 58.01904
560.3410, 56.01669
560.8231, 54.71525
561.3052, 54.60378
561.7874, 54.52013
562.2695, 54.02840
562.7516, 53.38871
563.2337, 52.89057
563.7158, 52.60712
564.1979, 52.43981
564.6801, 52.19322
565.1622, 51.98893
565.6443, 52.35041
566.1264, 53.45038
566.6085, 54.48063
567.0906, 54.72236
567.5728, 54.47489
568.0549, 54.87650
568.5370, 56.15420
569.0191, 57.71219
569.5012, 59.33189
569.9833, 61.12815
570.4655, 63.32140
570.9476, 65.89689
571.4297, 68.61485
571.9118, 71.23009
572.3939, 73.76782
572.8760, 76.44274
573.3582, 79.91324
573.8403, 82.59315
574.3224, 84.36003
574.8045, 85.23997
575.2866, 85.34469
575.7687, 84.64747
576.2509, 82.88944
576.7330, 79.47729
577.2151, 74.82813
577.6972, 70.51749
578.1793, 66.58678
578.6614, 62.82880
579.1436, 59.12902
579.6257, 55.62640
580.1078, 52.47336
580.5899, 49.66575
581.0720, 47.24877
581.5541, 45.32519
582.0363, 43.74984
582.5184, 42.32050
583.0005, 41.05443
583.4826, 40.15925
583.9647, 39.81060
584.4468, 39.79735
584.9290, 39.49170
585.4111, 38.52338
585.8932, 37.84069
586.3753, 37.62137
586.8574, 37.51061
587.3395, 37.28746
587.8217, 36.97460
588.3038, 36.71822
588.7859, 36.62477
589.2680, 36.58684
589.7501, 36.33747
590.2322, 35.83186
590.7144, 35.43778
591.1965, 35.29955
591.6786, 35.21539
592.1607, 35.01208
592.6428, 34.71208
593.1249, 34.41818
593.6071, 34.16319
594.0892, 33.92558
594.5713, 33.70890
595.0534, 33.49873
595.5355, 33.22965
596.0176, 32.87423
596.4998, 32.54440
596.9819, 32.41171
597.4640, 32.54816
597.9461, 32.42662
598.4282, 31.78056
598.9103, 31.22113
599.3925, 30.98097
599.8746, 30.92731
600.3567, 30.89849
600.8388, 30.83719
601.3209, 30.73213
601.8030, 30.53281
602.2852, 30.24640
602.7673, 30.08351
603.2494, 30.09332
603.7315, 30.12519
604.2136, 30.09876
604.6957, 30.05019
605.1779, 30.05690
605.6600, 30.17120
606.1421, 30.15309
606.6242, 29.75330
607.1063, 29.20980
607.5884, 28.90210
608.0706, 28.83942
608.5527, 28.71780
609.0348, 28.31456
609.5169, 27.74483
609.9990, 27.40156
610.4811, 27.28883
610.9633, 27.42673
611.4454, 28.29128
611.9275, 28.99054
612.4096, 28.74142
612.8917, 27.79993
613.3738, 27.02670
613.8560, 26.96170
614.3381, 27.24181
614.8202, 27.10394
615.3023, 26.49672
615.7844, 26.15798
616.2665, 26.41182
616.7487, 26.72083
617.2308, 26.50397
617.7129, 25.91260
618.1950, 25.54350
618.6771, 25.74009
619.1592, 25.96373
619.6414, 25.82486
620.1235, 25.49867
620.6056, 25.32070
621.0877, 25.37535
621.5698, 25.52789
622.0519, 25.64300
622.5341, 25.72092
623.0162, 25.80219
623.4983, 25.92266
623.9804, 25.99907
624.4625, 25.97088
624.9446, 25.92313
625.4268, 25.98292
625.9089, 26.14044
626.3910, 26.19931
626.8731, 25.88982
627.3552, 25.39824
627.8373, 25.22080
628.3194, 25.37480
628.8015, 25.64621
629.2836, 26.07461
629.7657, 26.44163
630.2479, 26.28888
630.7300, 25.55766
631.2121, 25.06846
631.6942, 25.16096
632.1763, 25.32299
632.6584, 25.13107
633.1406, 24.76495
633.6227, 24.68935
634.1048, 25.08121
634.5869, 25.61002
635.0690, 25.76600
635.5511, 25.48282
636.0333, 25.29945
636.5154, 25.27764
636.9975, 25.27472
637.4796, 25.19533
637.9617, 25.12110
638.4438, 25.21735
638.9260, 25.54589
639.4081, 25.73085
639.8902, 25.29852
640.3723, 24.62276
640.8544, 24.43371
641.3365, 24.77139
641.8187, 25.16327
642.3008, 25.35819
642.7829, 25.41212
643.2650, 25.46672
643.7471, 25.57506
644.2292, 25.57412
644.7114, 25.28115
645.1935, 25.05269
645.6756, 25.19826
646.1577, 25.55162
646.6398, 25.72903
647.1219, 25.54577
647.6041, 25.22482
648.0862, 25.10972
648.5683, 25.19566
649.0504, 25.19660
649.5325, 25.06204
650.0146, 24.89088
650.4968, 24.69746
650.9789, 24.52409
651.4610, 24.47827
651.9431, 24.62828
652.4252, 24.76896
652.9073, 24.82410
653.3895, 24.82641
653.8716, 24.82010
654.3537, 24.80116
654.8358, 24.71432
655.3179, 24.51469
655.8000, 24.26253
656.2822, 24.13772
656.7643, 24.21424
657.2464, 24.23085
657.7285, 24.14919
658.2106, 24.02021
658.6927, 23.76776
659.1749, 23.49564
659.6570, 23.43904
660.1391, 23.73261
660.6212, 24.11126
661.1033, 24.37735
661.5854, 24.53653
662.0676, 24.57767
662.5497, 24.49613
663.0318, 24.41962
663.5139, 24.45743
663.9960, 24.57136
664.4781, 24.57309
664.9603, 24.29808
665.4424, 24.13863
665.9245, 24.24668
666.4066, 24.35751
666.8887, 24.19423
667.3708, 23.86816
667.8530, 23.73650
668.3351, 24.01923
668.8172, 24.49252
669.2993, 24.82709
669.7814, 25.02469
670.2635, 25.11748
670.7457, 25.08820
671.2278, 25.01199
671.7099, 24.95482
672.1920, 24.89656
672.6741, 24.76049
673.1563, 24.47471
673.6384, 24.22211
674.1205, 24.03279
674.6026, 23.91924
675.0847, 23.89896
675.5668, 23.96807
676.0490, 24.12656
676.5311, 24.39139
677.0132, 24.68072
677.4953, 24.78649
677.9774, 24.68910
678.4595, 24.48657
678.9417, 24.03519
679.4238, 23.67561
679.9059, 23.71393
680.3880, 23.98533
680.8701, 24.11289
681.3522, 23.95581
681.8344, 23.77552
682.3165, 23.72295
682.7986, 23.74032
683.2807, 23.75157
683.7628, 23.74447
684.2449, 23.72054
684.7271, 23.67467
685.2092, 23.62899
685.6913, 23.66216
686.1734, 23.83156
686.6555, 23.94664
687.1376, 23.97568
687.6198, 23.96748
688.1019, 23.89842
688.5840, 23.81622
689.0661, 23.83499
689.5482, 24.03689
690.0303, 24.19075
690.5125, 24.05193
690.9946, 23.73166
691.4767, 23.40367
691.9588, 23.09914
692.4409, 23.04454
692.9230, 23.44464
693.4052, 24.10166
693.8873, 24.42853
694.3694, 24.16014
694.8515, 24.04011
695.3336, 24.25780
695.8157, 24.42298
696.2979, 24.25383
696.7800, 23.91018
697.2621, 23.69264
697.7442, 23.71166
698.2263, 23.87711
698.7084, 24.23899
699.1906, 24.67172
699.6727, 24.67964
700.1548, 24.19194
700.6369, 23.76602
701.1190, 23.73376
701.6011, 23.93957
702.0833, 24.02105
702.5654, 23.91957
703.0475, 23.82523
703.5296, 23.63762
704.0117, 23.56162
704.4938, 23.80770
704.9760, 24.20655
705.4581, 24.46768
705.9402, 24.49340
706.4223, 24.45039
706.9044, 24.53881
707.3865, 24.71727
707.8687, 24.78206
708.3508, 24.71077
708.8329, 24.64560
709.3149, 24.63374
709.7971, 24.68287
710.2792, 24.86454
710.7613, 25.25899
711.2434, 25.34815
711.7255, 24.75561
712.2076, 24.21345
712.6898, 24.10584
713.1719, 24.27228
713.6540, 24.50339
714.1361, 24.72244
714.6182, 24.87220
715.1003, 24.87368
715.5825, 24.76181
716.0646, 24.68473
716.5467, 24.64574
717.0288, 24.62254
717.5109, 24.61731
717.9930, 24.61272
718.4752, 24.57958
718.9573, 24.51900
719.4394, 24.48402
719.9215, 24.51876
720.4036, 24.53425
720.8857, 24.48350
721.3679, 24.39868
721.8500, 24.28467
722.3321, 24.16646
722.8142, 24.15161
723.2963, 24.38210
723.7784, 24.70411
724.2606, 24.57229
724.7427, 23.90849
725.2248, 23.58506
725.7069, 23.93188
726.1890, 24.41830
726.6711, 24.57568
727.1533, 24.46929
727.6354, 24.41399
728.1175, 24.47993
728.5996, 24.52563
729.0817, 24.52401
729.5638, 24.47305
730.0460, 24.33857
730.5281, 24.14859
731.0102, 23.97400
731.4923, 23.84706
731.9744, 23.81243
732.4565, 24.02512
732.9387, 24.49279
733.4208, 24.72735
733.9029, 24.59953
734.3850, 24.44258
734.8671, 24.46980
735.3492, 24.60981
735.8314, 24.69865
736.3135, 24.77721
736.7956, 24.68967
737.2777, 24.11792
737.7598, 23.62823
738.2419, 23.76056
738.7241, 24.26578
739.2062, 24.57747
739.6883, 24.48507
740.1704, 24.23526
740.6525, 24.09574
741.1346, 24.06454
741.6168, 24.16236
742.0989, 24.43272
742.5810, 24.60383
743.0631, 24.50134
743.5452, 24.31430
744.0273, 24.35739
744.5095, 24.65516
744.9916, 24.78592
745.4737, 24.60418
745.9558, 24.37652
746.4379, 24.11601
746.9200, 23.92721
747.4022, 23.98816
747.8843, 24.28581
748.3664, 24.58618
748.8485, 24.72072
749.3306, 24.71188
749.8127, 24.53329
750.2949, 24.18351
750.7770, 24.08572
751.2591, 24.40933
751.7412, 24.78506
752.2233, 24.87911
752.7054, 24.73769
753.1876, 24.71450
753.6697, 25.02508
754.1518, 25.14097
754.6339, 24.81723
755.1160, 24.42687
755.5981, 24.21068
756.0803, 24.16962
756.5624, 24.22812
757.0445, 24.35578
757.5266, 24.54778
758.0087, 24.89292
758.4908, 25.30501
758.9730, 25.38773
759.4551, 25.09430
759.9372, 24.78134
760.4193, 24.59843
760.9014, 24.56551
761.3835, 24.74510
761.8657, 25.24590
762.3478, 25.59530
762.8299, 25.71240
763.3120, 25.78356
763.7941, 25.85814
764.2762, 25.92881
764.7584, 25.95655
765.2405, 25.94829
765.7226, 26.00628
766.2047, 26.22464
766.6868, 26.53256
767.1689, 26.89114
767.6511, 27.26186
768.1332, 27.41546
768.6153, 27.28196
769.0974, 27.16911
769.5795, 27.38696
770.0616, 27.88687
770.5438, 28.24759
771.0259, 28.29881
771.5080, 28.51909
771.9901, 29.21611
772.4722, 29.83936
772.9543, 29.97221
773.4365, 29.79292
773.9186, 29.74895
774.4007, 29.99435
774.8828, 30.31176
775.3649, 30.62836
775.8470, 30.88984
776.3292, 30.91961
776.8113, 30.79504
777.2934, 30.92297
777.7755, 31.51141
778.2576, 32.21441
778.7397, 32.42523
779.2219, 32.08836
779.7040, 31.96500
780.1861, 32.08620
780.6682, 32.35907
781.1503, 32.78185
781.6324, 33.32333
782.1146, 34.06972
782.5967, 35.00311
783.0788, 35.55409
783.5609, 35.12241
784.0430, 34.79498
784.5251, 35.28027
785.0073, 36.14848
785.4894, 36.79797
785.9715, 37.17309
786.4536, 37.61827
786.9357, 38.39489
787.4178, 39.33773
787.9000, 40.02600
788.3821, 40.46059
788.8642, 41.17022
789.3463, 42.29994
789.8284, 43.43884
790.3105, 44.25455
790.7927, 44.91105
791.2748, 45.85616
791.7568, 47.15798
792.2390, 48.56889
792.7211, 50.09290
793.2032, 51.70543
793.6853, 53.47663
794.1674, 55.29729
794.6495, 56.94713
795.1317, 58.40449
795.6138, 60.06672
796.0959, 62.35054
796.5780, 64.98339
797.0601, 67.46238
797.5422, 69.85122
798.0244, 72.32888
798.5065, 74.93816
798.9886, 77.96205
799.4707, 81.76944
799.9528, 86.21206
800.4349, 90.00143
800.9171, 92.58603
801.3992, 95.64549
801.8813, 99.61281
802.3634, 103.8433
802.8455, 107.8496
803.3276, 111.8960
803.8098, 116.5162
804.2919, 121.8564
804.7740, 127.5888
805.2561, 133.4422
805.7382, 139.6355
806.2203, 146.0691
806.7025, 153.0397
807.1846, 161.4239
807.6667, 171.4758
808.1488, 182.5565
808.6309, 193.7392
809.1130, 205.2394
809.5952, 218.4287
810.0773, 233.5508
810.5594, 249.1762
811.0415, 264.5677
811.5236, 280.8629
812.0057, 299.8047
812.4879, 320.9915
812.9700, 340.1957
813.4521, 358.5936
813.9342, 373.3137
814.4163, 384.2560
814.8984, 391.0045
815.3806, 393.5280
815.8627, 391.4427
816.3448, 383.5583
816.8269, 369.2925
817.3090, 351.5494
817.7911, 332.1835
818.2733, 311.7180
818.7554, 290.5631
819.2375, 269.0738
819.7196, 248.9989
820.2017, 230.9715
820.6838, 215.0307
821.1660, 201.2495
821.6481, 189.6021
822.1302, 179.9123
822.6123, 172.4400
823.0944, 166.2232
823.5765, 161.3125
824.0587, 157.4381
824.5408, 154.5645
825.0229, 152.5658
825.5050, 151.0884
825.9871, 150.0944
826.4692, 149.5850
826.9514, 149.5212
827.4335, 149.9718
827.9156, 151.0829
828.3977, 152.7511
828.8798, 154.7383
829.3619, 156.9605
829.8441, 159.4850
830.3262, 162.4173
830.8083, 165.7170
831.2904, 169.1620
831.7725, 172.7372
832.2546, 176.8178
832.7368, 181.4230
833.2189, 186.9469
833.7010, 193.8996
834.1831, 202.1685
834.6652, 210.9797
835.1473, 219.7835
835.6295, 229.9680
836.1116, 242.0740
836.5937, 254.9597
837.0758, 268.4728
837.5579, 282.2666
838.0400, 295.8824
838.5222, 309.2419
839.0043, 322.2482
839.4864, 336.0340
839.9685, 348.5541
840.4506, 358.6112
840.9327, 365.6123
841.4149, 368.3354
841.8970, 366.5529
842.3791, 361.5253
842.8612, 354.3423
843.3433, 345.0599
843.8254, 333.3988
844.3076, 319.3398
844.7897, 305.3270
845.2718, 291.7826
845.7539, 278.8463
846.2360, 266.5846
846.7181, 255.1105
847.2003, 244.8664
847.6824, 235.7825
848.1645, 228.2243
848.6466, 222.3554
849.1287, 217.7374
849.6108, 214.3119
850.0930, 211.9382
850.5751, 210.4494
851.0572, 209.8184
851.5393, 210.1053
852.0214, 211.4177
852.5035, 213.5906
852.9857, 216.3370
853.4678, 219.9001
853.9499, 224.6448
854.4320, 230.6413
854.9141, 237.9863
855.3962, 246.6810
855.8784, 256.7412
856.3605, 268.0356
856.8426, 280.5916
857.3247, 294.8668
857.8068, 310.9130
858.2889, 328.3824
858.7711, 347.2827
859.2532, 367.1174
859.7353, 387.3576
860.2174, 408.0511
860.6995, 428.4929
861.1816, 447.2617
861.6638, 467.6664
862.1459, 490.6453
862.6280, 515.3234
863.1101, 540.1853
863.5922, 566.1536
864.0743, 595.7217
864.5565, 629.4548
865.0386, 668.2805
865.5207, 712.5750
866.0028, 762.3342
866.4849, 816.2077
866.9670, 875.5490
867.4492, 942.0194
867.9313, 1016.367
868.4134, 1100.705
868.8955, 1197.236
869.3776, 1305.008
869.8597, 1422.823
870.3419, 1550.524
870.8240, 1685.344
871.3061, 1830.785
871.7882, 1968.637
872.2703, 2089.151
872.7524, 2185.566
873.2346, 2230.398
873.7167, 2220.394
874.1987, 2165.110
874.6808, 2046.857
875.1630, 1902.437
875.6451, 1729.462
876.1272, 1546.186
876.6093, 1368.447
877.0914, 1199.411
877.5735, 1046.381
878.0557, 912.4406
878.5378, 795.6710
879.0199, 697.6447
879.5020, 614.6869
879.9841, 543.8010
880.4662, 483.4190
880.9484, 431.0679
881.4305, 385.6010
881.9126, 346.4082
882.3947, 313.5116
882.8768, 285.9854
883.3589, 261.4888
883.8411, 239.8233
884.3232, 220.7701
884.8053, 204.3711
885.2874, 190.1046
885.7695, 177.5345
886.2516, 166.5767
886.7338, 156.5894
887.2159, 147.6686
887.6980, 139.4112
888.1801, 131.6255
888.6622, 124.6324
889.1443, 118.7927
889.6265, 113.8293
890.1086, 109.0465
890.5907, 104.3757
891.0728, 100.0678
891.5549, 96.19360
892.0370, 92.62327
892.5192, 89.35403
893.0013, 86.32755
893.4834, 83.51389
893.9655, 80.88504
894.4476, 78.43960
894.9297, 76.18523
895.4119, 74.09049
895.8940, 72.11543
896.3761, 70.29414
896.8582, 68.78752
897.3403, 67.53533
897.8224, 66.21261
898.3046, 64.67493
898.7867, 63.08852
899.2688, 61.66887
899.7509, 60.40402
900.2330, 59.20653
900.7151, 58.08464
901.1973, 56.88545
901.6794, 55.50472
902.1615, 54.27883
902.6436, 53.56565
903.1257, 53.21090
903.6078, 52.52736
904.0900, 51.21173
904.5721, 50.20065
905.0542, 49.56751
905.5363, 49.16978
906.0184, 49.25142
906.5005, 49.36011
906.9827, 48.87586
907.4648, 47.77465
907.9469, 46.76878
908.4290, 46.04557
908.9111, 45.43250
909.3932, 44.91485
909.8754, 44.43755
910.3575, 43.98072
910.8396, 43.51302
911.3217, 42.95490
911.8038, 42.26888
912.2859, 41.57867
912.7681, 41.04472
913.2502, 40.54130
913.7323, 39.84187
914.2144, 39.00038
914.6965, 38.15775
915.1786, 37.36867
915.6608, 36.75722
916.1429, 36.45652
916.6250, 36.32566
917.1071, 36.01946
917.5892, 35.53704
918.0714, 34.78436
918.5535, 33.65518
919.0356, 32.79129
919.5177, 32.54347
919.9998, 32.64639
920.4819, 32.72713
920.9641, 32.79207
921.4462, 32.74827
921.9283, 32.63227
922.4104, 32.34459
922.8925, 31.76815
923.3746, 31.10768
923.8568, 30.41379
924.3389, 29.74602
924.8210, 29.24340
925.3031, 28.94470
925.7852, 28.72736
926.2673, 28.62883
926.7495, 28.53142
927.2316, 28.36767
927.7137, 28.16885
928.1958, 27.97714
928.6779, 27.79670
929.1600, 27.60945
929.6422, 27.41471
930.1243, 27.19348
930.6064, 26.89898
931.0885, 26.58174
931.5706, 26.31086
932.0527, 26.08814
932.5349, 25.89772
933.0170, 25.73339
933.4991, 25.59187
933.9812, 25.44071
934.4633, 25.33326
934.9454, 25.51669
935.4276, 25.94324
935.9097, 26.13020
936.3918, 25.98847
936.8739, 25.56464
937.3560, 24.81125
937.8381, 24.02815
938.3203, 23.90627
938.8024, 24.57334
939.2845, 24.78161
939.7666, 24.26805
940.2487, 23.99955
940.7308, 24.41217
941.2130, 24.94799
941.6951, 25.07110
942.1772, 24.86605
942.6593, 24.81079
943.1414, 25.04781
943.6235, 25.17499
944.1057, 25.15833
944.5878, 25.05027
945.0699, 24.70459
945.5520, 24.38132
946.0341, 24.46222
946.5162, 24.94096
946.9984, 25.33462
947.4805, 25.40970
947.9626, 25.45989
948.4447, 25.72417
948.9268, 25.94884
949.4089, 25.79854
949.8911, 25.42042
950.3732, 25.18367
950.8553, 25.20733
951.3374, 25.31974
951.8195, 25.44734
952.3016, 25.53529
952.7838, 25.49932
953.2659, 25.37072
953.7480, 25.18160
954.2301, 24.96388
954.7122, 24.82113
955.1943, 24.81157
955.6765, 24.92381
956.1586, 25.26552
956.6406, 25.73038
957.1227, 25.68125
957.6049, 25.12722
958.0870, 24.68728
958.5691, 24.53582
959.0512, 24.56426
959.5333, 24.71131
960.0154, 24.90878
960.4976, 24.87806
960.9797, 24.52760
961.4618, 24.45082
961.9439, 24.76093
962.4260, 25.10641
962.9081, 25.40478
963.3903, 25.58747
963.8724, 25.52317
964.3545, 25.22860
964.8366, 25.08982
965.3187, 25.31507
965.8008, 25.36478
966.2830, 24.93822
966.7651, 24.63384
967.2472, 24.86099
967.7293, 25.32145
968.2114, 25.53183
968.6935, 25.44420
969.1757, 25.52753
969.6578, 26.09635
970.1399, 26.57072
970.6220, 26.71022
971.1041, 26.69655
971.5862, 26.66273
972.0684, 26.60973
972.5505, 26.46023
973.0326, 26.18093
973.5147, 26.03341
973.9968, 26.29486
974.4789, 26.62158
974.9611, 26.77558
975.4432, 26.77725
975.9253, 26.59034
976.4074, 26.28709
976.8895, 26.06634
977.3716, 26.01843
977.8538, 26.18030
978.3359, 26.73022
978.8180, 27.43980
979.3001, 27.92530
979.7822, 28.21131
980.2643, 28.36647
980.7465, 28.43508
981.2286, 28.58716
981.7107, 28.95700
982.1928, 29.43029
982.6749, 29.71976
983.1570, 29.89647
983.6392, 30.50967
984.1213, 31.55864
984.6034, 32.18443
985.0855, 32.04359
985.5676, 31.94524
986.0497, 32.73017
986.5319, 33.24964
987.0140, 34.04425
987.4961, 35.38367
987.9782, 36.25226
988.4603, 37.86287
988.9424, 39.49849
989.4246, 40.75503
989.9067, 42.09578
990.3888, 44.14031
990.8709, 46.83704
991.3530, 49.49445
991.8351, 52.11842
992.3173, 54.70719
992.7994, 57.42093
993.2815, 59.89165
993.7636, 62.14820
994.2457, 63.92731
994.7278, 64.89186
995.2100, 65.05898
995.6921, 64.14914
996.1742, 61.66047
996.6563, 58.80021
997.1384, 55.53114
997.6205, 52.17592
998.1027, 48.89547
998.5848, 45.67132
999.0669, 42.37056
999.5490, 38.95238
1000.031, 36.08977
1000.513, 34.19738
1000.995, 32.58786
1001.477, 30.95829
1001.960, 29.55156
1002.442, 28.73326
1002.924, 28.28465
1003.406, 27.69046
1003.888, 26.80664
1004.370, 25.99135
1004.852, 25.45686
1005.334, 25.01893
1005.817, 24.57567
1006.299, 24.13238
1006.781, 23.69099
1007.263, 23.25645
1007.745, 22.82144
1008.227, 22.37591
1008.709, 22.02231
1009.191, 21.92701
1009.673, 21.89461
1010.156, 21.63400
1010.638, 21.30122
1011.120, 21.23334
1011.602, 21.42054
1012.084, 21.58861
1012.566, 21.59779
1013.048, 21.50364
1013.530, 21.34291
1014.013, 21.13535
1014.495, 20.84646
1014.977, 20.54938
1015.459, 20.49659
1015.941, 20.71062
1016.423, 20.99519
1016.905, 21.24021
1017.387, 21.36664
1017.869, 21.13364
1018.352, 20.69196
1018.834, 20.67745
1019.316, 21.02773
1019.798, 21.19267
1020.280, 21.04044
1020.762, 20.80964
1021.244, 20.67037
1021.726, 20.57863
1022.208, 20.43206
1022.691, 20.34154
1023.173, 20.25601
1023.655, 20.13495
1024.137, 20.08664
1024.619, 19.95091
1025.101, 19.82106
1025.583, 19.77778
1026.065, 19.77846
1026.547, 19.69398
1027.030, 19.50977
1027.512, 19.46709
1027.994, 19.61733
1028.476, 19.60874
1028.958, 19.28611
1029.440, 18.94048
1029.922, 18.81586
1030.404, 18.87369
1030.887, 19.02027
1031.369, 19.31544
1031.851, 19.41499
1032.333, 19.23794
1032.815, 19.10483
1033.297, 19.15314
1033.779, 19.20081
1034.261, 19.07701
1034.744, 18.82552
1035.226, 18.59714
1035.708, 18.35862
1036.190, 18.25748
1036.672, 18.43943
1037.154, 18.47319
1037.636, 18.07096
1038.118, 17.66800
1038.600, 17.69883
1039.083, 18.05009
1039.565, 18.26507
1040.047, 18.30726
1040.529, 18.29719
1041.011, 18.17969
1041.493, 18.08803
1041.975, 18.12070
1042.457, 18.14129
1042.939, 17.99134
1043.422, 17.72840
1043.904, 17.57051
1044.386, 17.55507
1044.868, 17.55974
1045.350, 17.56421
1045.832, 17.60802
1046.314, 17.73458
1046.796, 17.87900
1047.279, 18.03500
1047.761, 18.16066
1048.243, 18.10876
1048.725, 17.77662
1049.207, 17.52992
1049.689, 17.47758
1050.171, 17.44013
1050.653, 17.31690
1051.135, 17.21194
1051.618, 17.17681
1052.100, 17.24150
1052.582, 17.52567
1053.064, 18.18567
1053.546, 18.54657
1054.028, 18.23915
1054.510, 17.89153
1054.992, 17.69942
1055.474, 17.63014
1055.957, 17.64164
1056.439, 17.74296
1056.921, 18.00457
1057.403, 18.49674
1057.885, 18.85206
1058.367, 18.87900
1058.849, 18.85758
1059.331, 18.89066
1059.814, 18.94812
1060.296, 18.96962
1060.778, 18.99464
1061.260, 19.15248
1061.742, 19.49918
1062.224, 19.74389
1062.706, 19.70202
1063.188, 19.64353
1063.671, 19.76324
1064.153, 19.86551
1064.635, 19.65700
1065.117, 19.31268
1065.599, 19.25725
1066.081, 19.59356
1066.563, 19.98881
1067.045, 20.37869
1067.527, 20.71428
1068.010, 20.96417
1068.492, 21.15615
1068.974, 21.34372
1069.456, 21.48185
1069.938, 21.44719
1070.420, 21.21840
1070.902, 21.03033
1071.384, 20.94793
1071.866, 20.97172
1072.349, 21.10180
1072.831, 21.33727
1073.313, 21.81776
1073.795, 22.34756
1074.277, 22.50416
1074.759, 22.25227
1075.241, 22.20114
1075.723, 22.87730
1076.206, 23.42822
1076.688, 23.32139
1077.170, 23.04022
1077.652, 22.84404
1078.134, 22.81697
1078.616, 23.13354
1079.098, 23.74960
1079.580, 24.19613
1080.062, 24.21985
1080.545, 24.17368
1081.027, 24.11722
1081.509, 24.16780
1081.991, 24.54284
1082.473, 25.00715
1082.955, 25.23834
1083.437, 25.21278
1083.919, 25.07102
1084.401, 24.74514
1084.884, 24.61828
1085.366, 25.12548
1085.848, 25.61128
1086.330, 25.51259
1086.812, 25.21332
1087.294, 25.22071
1087.776, 25.50937
1088.258, 25.73588
1088.740, 25.78448
1089.223, 25.81832
1089.705, 25.93885
1090.187, 26.02644
1090.669, 25.90296
1091.151, 25.79409
1091.633, 26.02127
1092.115, 26.46118
1092.597, 26.73155
1093.080, 26.73745
1093.562, 26.60498
1094.044, 26.16278
1094.526, 25.86917
1095.008, 26.08488
1095.490, 26.42272
1095.972, 26.49277
1096.454, 26.42796
1096.937, 26.62646
1097.419, 27.17234
1097.901, 27.44488
1098.383, 26.89605
1098.865, 26.52704
1099.347, 26.89017
1099.829, 27.35852
1100.311, 27.48320
1100.793, 27.40284
1101.276, 27.35066
1101.758, 27.36020
1102.240, 27.43926
1102.722, 27.75376
1103.204, 27.89117
1103.686, 27.59994
1104.168, 27.28092
1104.650, 27.20804
1105.132, 27.19960
1105.615, 26.98291
1106.097, 26.59263
1106.579, 26.33537
1107.061, 26.29583
1107.543, 26.31026
1108.025, 26.40126
1108.507, 26.48099
1108.989, 26.64228
1109.472, 26.67201
1109.954, 26.22449
1110.436, 25.48683
1110.918, 25.11180
1111.400, 25.30831
1111.882, 25.30763
1112.364, 24.84063
1112.846, 24.46939
1113.328, 24.39183
1113.811, 24.38532
1114.293, 24.34409
1114.775, 24.25010
1115.257, 24.03425
1115.739, 23.65900
1116.221, 23.45765
1116.703, 23.63710
1117.185, 23.63437
1117.667, 23.20139
1118.150, 22.83381
1118.632, 22.85599
1119.114, 23.01321
1119.596, 22.96754
1120.078, 22.72892
1120.560, 22.43639
1121.042, 22.00528
1121.524, 21.73221
1122.007, 21.66047
1122.489, 21.69379
1122.971, 21.85278
1123.453, 22.01207
1123.935, 22.06266
1124.417, 22.00367
1124.899, 21.83928
1125.381, 21.58666
1125.864, 21.08363
1126.346, 20.17449
1126.828, 19.62493
1127.310, 19.68802
1127.792, 19.98157
1128.274, 20.29620
1128.756, 20.52077
1129.238, 20.38225
1129.720, 19.89676
1130.203, 19.71433
1130.685, 19.86708
1131.167, 19.97618
1131.649, 19.98142
1132.131, 19.93136
1132.613, 19.84171
1133.095, 19.76941
1133.577, 19.81199
1134.059, 19.90272
1134.542, 19.74904
1135.024, 19.37527
1135.506, 19.05869
1135.988, 18.83016
1136.470, 18.81602
1136.952, 19.05633
1137.434, 19.39348
1137.916, 19.72549
1138.399, 19.94710
1138.881, 19.73526
1139.363, 19.27029
1139.845, 19.20279
1140.327, 19.46427
1140.809, 19.69950
1141.291, 19.82319
1141.773, 19.83367
1142.255, 19.72811
1142.738, 19.57013
1143.220, 19.38812
1143.702, 19.23561
1144.184, 19.23129
1144.666, 19.31640
1145.148, 19.35821
1145.630, 19.36916
1146.112, 19.44640
1146.594, 19.61998
1147.077, 19.84572
1147.559, 20.16590
1148.041, 20.38472
1148.523, 20.16820
1149.005, 19.86180
1149.487, 19.95943
1149.969, 20.24581
1150.451, 20.22513
1150.934, 19.90213
1151.416, 19.72902
1151.898, 19.91591
1152.380, 20.18718
1152.862, 20.55512
1153.344, 20.75721
1153.826, 20.46390
1154.308, 20.03294
1154.791, 19.78337
1155.273, 19.74061
1155.755, 19.89765
1156.237, 20.26367
1156.719, 20.58987
1157.201, 20.82442
1157.683, 20.98078
1158.165, 20.98302
1158.647, 20.99660
1159.130, 21.13234
1159.612, 21.33514
1160.094, 21.54981
1160.576, 21.76590
1161.058, 21.91245
1161.540, 21.97926
1162.022, 21.98533
1162.504, 21.80964
1162.986, 21.76321
1163.469, 22.04857
1163.951, 22.33625
1164.433, 22.30902
1164.915, 22.14862
1165.397, 22.32196
1165.879, 22.89167
1166.361, 23.09632
1166.843, 22.83713
1167.325, 22.54914
1167.808, 22.24466
1168.290, 22.10638
1168.772, 22.24415
1169.254, 22.52685
1169.736, 22.82125
1170.218, 23.10286
1170.700, 23.22836
1171.182, 23.20540
1171.665, 23.47239
1172.147, 24.03519
1172.629, 24.20664
1173.111, 23.80429
1173.593, 23.42874
1174.075, 23.50074
1174.557, 23.34566
1175.039, 23.75032
1175.521, 23.63099
1176.004, 23.96143
1176.486, 24.53605
1176.968, 24.65194
1177.450, 24.34061
1177.932, 24.15618
1178.414, 24.29969
1178.896, 24.57447
1179.378, 24.91364
1179.860, 25.13154
1180.343, 24.88660
1180.825, 24.50972
1181.307, 24.46775
1181.789, 24.59409
1182.271, 24.47583
1182.753, 24.15426
1183.235, 24.11874
1183.717, 24.62508
1184.200, 24.95874
1184.682, 24.53736
1185.164, 24.09763
1185.646, 24.03934
1186.128, 24.15935
1186.610, 24.32158
1187.092, 24.50006
1187.574, 24.77263
1188.057, 25.12566
1188.539, 25.06186
1189.021, 23.99701
1189.503, 23.31291
1189.985, 23.34257
1190.467, 23.53921
1190.949, 23.79580
1191.431, 24.04404
1191.913, 24.22388
1192.396, 24.34849
1192.878, 24.46012
1193.360, 24.56875
1193.842, 24.56970
1194.324, 24.42523
1194.806, 24.31661
1195.288, 24.28056
1195.770, 24.24728
1196.252, 24.18497
1196.735, 24.10443
1197.217, 24.02335
1197.699, 23.92660
1198.181, 23.71112
1198.663, 23.41258
1199.145, 23.43115
1199.627, 23.72344
1200.109, 23.74213
1200.592, 23.38564
1201.074, 23.00608
1201.556, 22.80615
1202.038, 22.75046
1202.520, 22.82437
1203.002, 22.99174
1203.484, 23.26112
1203.966, 23.54194
1204.448, 23.65773
1204.931, 23.64144
1205.413, 23.62688
1205.895, 23.63745
1206.377, 23.57830
1206.859, 23.38840
1207.341, 23.15822
1207.823, 22.81050
1208.305, 22.59622
1208.787, 22.79769
1209.270, 23.13494
1209.752, 23.37314
1210.234, 23.47883
1210.716, 23.41958
1211.198, 23.17862
1211.680, 22.98944
1212.162, 22.96198
1212.644, 22.86915
1213.127, 22.63004
1213.609, 22.38559
1214.091, 22.17573
1214.573, 21.99321
1215.055, 21.80078
1215.537, 21.65124
1216.019, 21.74587
1216.501, 22.14045
1216.984, 22.25214
1217.466, 22.03893
1217.948, 21.79945
1218.430, 21.57214
1218.912, 21.46119
1219.394, 21.52808
1219.876, 21.62667
1220.358, 21.61023
1220.840, 21.47482
1221.323, 21.12802
1221.805, 20.67071
1222.287, 20.44255
1222.769, 20.42167
1223.251, 20.54218
1223.733, 20.72896
1224.215, 20.71016
1224.697, 20.35610
1225.179, 19.99722
1225.662, 19.88774
1226.144, 19.92722
1226.626, 20.13361
1227.108, 20.34512
1227.590, 20.36281
1228.072, 20.27345
1228.554, 20.24041
1229.036, 20.27208
1229.519, 20.26932
1230.001, 20.19623
1230.483, 20.12366
1230.965, 20.07950
1231.447, 20.02171
1231.929, 19.85448
1232.411, 19.76606
1232.893, 19.97904
1233.375, 20.24769
1233.858, 20.21384
1234.340, 19.90686
1234.822, 19.54735
1235.304, 19.04144
1235.786, 18.96122
1236.268, 19.38835
1236.750, 19.93075
1237.232, 20.53852
1237.714, 20.68968
1238.197, 20.00033
1238.679, 19.08252
1239.161, 18.79533
1239.643, 18.93252
1240.125, 18.98393
1240.607, 18.97330
1241.089, 18.94149
1241.571, 18.91882
1242.054, 19.05895
1242.536, 19.32709
1243.018, 19.30514
1243.500, 18.71826
1243.982, 18.21847
1244.464, 18.40392
1244.946, 18.73588
1245.428, 18.84813
1245.910, 18.86534
1246.393, 18.91406
1246.875, 18.96807
1247.357, 18.90732
1247.839, 19.08072
1248.321, 18.81816
1248.803, 19.33776
1249.285, 19.66228
1249.767, 19.72309
1250.250, 19.62301
1250.732, 19.23351
1251.214, 18.96620
1251.696, 19.13890
1252.178, 19.46173
1252.660, 19.49227
1253.142, 19.29695
1253.624, 19.23668
1254.106, 19.30976
1254.589, 19.49979
1255.071, 19.78245
1255.553, 19.75878
1256.035, 19.37099
1256.517, 19.11323
1256.999, 19.27098
1257.481, 19.56366
1257.963, 19.75894
1258.445, 19.82710
1258.928, 19.61094
1259.410, 19.32841
1259.892, 19.27030
1260.374, 19.38807
1260.856, 19.60217
1261.338, 19.85092
1261.820, 19.98702
1262.302, 19.95368
1262.785, 19.87274
1263.267, 19.62788
1263.749, 19.56152
1264.231, 19.97973
1264.713, 20.37825
1265.195, 20.47004
1265.677, 20.38525
1266.159, 20.19697
1266.641, 19.98041
1267.124, 20.09822
1267.606, 19.90054
1268.088, 19.84990
1268.570, 19.98123
1269.052, 19.82558
1269.534, 20.37918
1270.016, 20.69904
1270.498, 20.35962
1270.980, 19.93938
1271.463, 19.99217
1271.945, 20.27807
1272.427, 20.44292
1272.909, 20.55905
1273.391, 20.84392
1273.873, 21.12757
1274.355, 20.96953
1274.837, 20.52181
1275.320, 20.39152
1275.802, 20.72222
1276.284, 20.99120
1276.766, 20.92569
1277.248, 20.86540
1277.730, 20.91350
1278.212, 21.00274
1278.694, 21.20277
1279.177, 21.32510
1279.659, 21.07780
1280.141, 20.75008
1280.623, 20.94705
1281.105, 21.62959
1281.587, 21.89069
1282.069, 21.66959
1282.551, 21.47292
1283.033, 21.32861
1283.516, 21.35859
1283.998, 21.59325
1284.480, 21.76287
1284.962, 21.69257
1285.444, 21.58650
1285.926, 21.65068
1286.408, 21.88712
##END=



