##NAMES=Andradite
##RRUFFID=R050311
##IDEAL CHEMISTRY=Ca_3_Fe^3+^_2_(SiO_4_)_3_
##LOCALITY=Calaveras County, California, USA
##OWNER=RRUFF
##SOURCE=Eugene Schlepp
##DESCRIPTION=Deep red crystals
##STATUS=The identification of this mineral has been confirmed by X-ray diffraction and chemical analysis
##URL=rruff.info/R050311
##MEASURED CHEMISTRY=(Ca_2.88_Mn_0.07_Fe^2+^_0.05_)_Σ=3_(Fe^3+^_1.39_Al_0.59_Ti_0.02_)_Σ=2_((Si_0.99_Al_0.01_)_Σ=1_O_4_)_3_
96.69257, 4.627465
97.17468, 5.065020
97.65680, 5.167484
98.13892, 4.945804
98.62103, 4.971407
99.10315, 5.488975
99.58527, 6.403752
100.0674, 7.029784
100.5495, 7.305636
101.0316, 7.415287
101.5137, 7.576923
101.9958, 7.818671
102.4780, 8.010955
102.9601, 8.044692
103.4422, 7.845008
103.9243, 7.997403
104.4064, 8.605441
104.8885, 9.499318
105.3707, 10.41784
105.8528, 11.47216
106.3349, 12.38311
106.8170, 13.02220
107.2991, 13.22701
107.7813, 13.46857
108.2634, 13.79607
108.7455, 14.16876
109.2276, 14.43886
109.7097, 14.18361
110.1918, 14.13763
110.6740, 14.60599
111.1561, 16.28353
111.6382, 17.70395
112.1203, 18.59943
112.6024, 19.07380
113.0845, 19.70858
113.5667, 20.76955
114.0488, 21.92199
114.5309, 22.95232
115.0130, 23.76701
115.4951, 24.48728
115.9772, 25.08727
116.4594, 25.57936
116.9415, 26.16790
117.4236, 27.07328
117.9057, 28.06824
118.3878, 28.90606
118.8699, 29.25057
119.3521, 29.60599
119.8342, 30.27685
120.3163, 31.29777
120.7984, 32.45886
121.2805, 33.71669
121.7626, 35.02291
122.2448, 36.29489
122.7269, 37.80653
123.2090, 39.11410
123.6911, 39.60273
124.1732, 39.02277
124.6553, 38.39862
125.1375, 38.85788
125.6196, 40.10885
126.1017, 41.22827
126.5838, 41.36554
127.0659, 41.05192
127.5480, 41.30958
128.0302, 42.43520
128.5123, 43.85967
128.9944, 44.82609
129.4765, 45.36501
129.9586, 45.76235
130.4407, 46.18558
130.9229, 46.62851
131.4050, 47.08150
131.8871, 47.56577
132.3692, 48.02663
132.8513, 48.19956
133.3334, 47.96914
133.8156, 47.70304
134.2977, 48.03209
134.7798, 49.08847
135.2619, 50.05238
135.7440, 50.75093
136.2261, 51.21620
136.7083, 51.60212
137.1904, 51.87548
137.6725, 52.18237
138.1546, 52.81147
138.6367, 53.90470
139.1188, 54.55387
139.6010, 54.43034
140.0831, 53.53651
140.5652, 52.78376
141.0473, 52.12231
141.5294, 51.64491
142.0115, 51.51986
142.4937, 51.88302
142.9758, 52.26533
143.4579, 52.53921
143.9400, 52.68835
144.4221, 52.80495
144.9042, 52.92531
145.3864, 52.99215
145.8685, 52.86400
146.3506, 52.18189
146.8327, 51.78640
147.3148, 52.04128
147.7969, 53.49688
148.2791, 54.34352
148.7612, 54.15715
149.2433, 53.40789
149.7254, 53.17682
150.2075, 53.78872
150.6896, 54.63224
151.1718, 55.47593
151.6539, 56.13206
152.1360, 57.06004
152.6181, 58.55638
153.1002, 60.37518
153.5823, 61.77295
154.0645, 62.39246
154.5466, 62.82177
155.0287, 63.33339
155.5108, 64.09366
155.9929, 64.78166
156.4750, 65.11639
156.9572, 65.25992
157.4393, 65.87761
157.9214, 67.67269
158.4035, 69.64938
158.8856, 71.19197
159.3677, 71.52108
159.8499, 72.05466
160.3320, 73.41129
160.8141, 75.42828
161.2962, 77.13282
161.7783, 77.86935
162.2604, 78.28124
162.7426, 78.89931
163.2247, 80.05869
163.7068, 81.30068
164.1889, 82.35728
164.6710, 83.24306
165.1531, 84.32150
165.6353, 85.78902
166.1174, 87.53222
166.5995, 89.42901
167.0816, 91.60325
167.5637, 93.79140
168.0458, 95.77904
168.5280, 97.54720
169.0101, 99.39396
169.4922, 101.4658
169.9743, 103.7206
170.4564, 106.0894
170.9385, 108.6473
171.4207, 111.2447
171.9028, 113.7696
172.3849, 116.2060
172.8670, 118.5674
173.3491, 121.2397
173.8312, 123.8568
174.3134, 125.7221
174.7955, 126.2670
175.2776, 125.9907
175.7597, 125.5553
176.2418, 125.0373
176.7239, 123.9321
177.2061, 121.6546
177.6882, 118.3760
178.1703, 114.6183
178.6524, 110.3672
179.1345, 105.8196
179.6166, 101.2812
180.0988, 96.68044
180.5809, 92.31762
181.0630, 88.50259
181.5451, 85.17298
182.0272, 82.24529
182.5093, 79.60408
182.9915, 77.29699
183.4736, 75.57778
183.9557, 74.53419
184.4378, 73.75089
184.9199, 72.53127
185.4020, 70.98195
185.8842, 69.70446
186.3663, 69.31944
186.8484, 69.53650
187.3305, 69.27955
187.8126, 68.39376
188.2947, 67.20659
188.7769, 66.11704
189.2590, 65.13103
189.7411, 64.38400
190.2232, 63.98021
190.7053, 63.89485
191.1874, 63.99376
191.6696, 64.32534
192.1517, 64.72680
192.6338, 64.88484
193.1159, 64.79324
193.5980, 64.63787
194.0801, 64.48637
194.5623, 64.34499
195.0444, 64.31825
195.5265, 64.44255
196.0086, 64.64716
196.4907, 64.77190
196.9728, 64.80479
197.4550, 64.85465
197.9371, 64.94108
198.4192, 65.06096
198.9013, 65.42403
199.3834, 66.13639
199.8655, 67.00835
200.3477, 67.56819
200.8298, 67.76575
201.3119, 67.86879
201.7940, 67.99775
202.2761, 68.14278
202.7582, 68.45876
203.2404, 69.04456
203.7225, 69.74788
204.2046, 70.09824
204.6867, 70.00597
205.1688, 69.87169
205.6509, 69.89619
206.1331, 70.06267
206.6152, 70.51575
207.0973, 71.35020
207.5794, 72.43658
208.0615, 73.39794
208.5436, 74.24065
209.0258, 74.94540
209.5079, 75.44006
209.9900, 75.64856
210.4721, 75.98659
210.9542, 76.47298
211.4363, 77.11471
211.9185, 77.97099
212.4006, 79.12186
212.8827, 80.32137
213.3648, 81.35680
213.8469, 82.13979
214.3290, 83.13952
214.8112, 84.48281
215.2933, 86.04289
215.7754, 87.35392
216.2575, 88.20619
216.7396, 89.20906
217.2217, 90.76613
217.7038, 93.06721
218.1860, 95.34221
218.6681, 97.59533
219.1502, 99.76563
219.6323, 101.5384
220.1144, 102.6724
220.5965, 103.7981
221.0787, 105.2499
221.5608, 107.0646
222.0429, 109.1008
222.5250, 111.3762
223.0071, 113.8650
223.4892, 116.4235
223.9714, 119.2392
224.4535, 121.8694
224.9356, 124.0788
225.4177, 125.6881
225.8998, 127.2338
226.3819, 128.5066
226.8641, 129.7662
227.3462, 131.9629
227.8283, 135.6351
228.3104, 139.4138
228.7925, 142.5137
229.2746, 144.5826
229.7568, 146.8503
230.2389, 149.3899
230.7210, 152.1693
231.2031, 155.0277
231.6852, 158.0273
232.1673, 161.0060
232.6495, 163.7981
233.1316, 166.0753
233.6137, 168.9441
234.0958, 172.7251
234.5779, 177.0197
235.0600, 180.6897
235.5422, 183.8260
236.0243, 186.2651
236.5064, 188.0117
236.9885, 189.3876
237.4706, 189.3942
237.9527, 188.1871
238.4349, 185.5672
238.9170, 180.8457
239.3991, 172.9568
239.8812, 164.5587
240.3633, 156.7572
240.8454, 149.9037
241.3276, 142.7255
241.8097, 134.8470
242.2918, 126.8783
242.7739, 120.2757
243.2560, 115.5062
243.7381, 111.3794
244.2203, 107.4282
244.7024, 103.4706
245.1845, 100.2191
245.6666, 97.81261
246.1487, 96.05214
246.6308, 94.52715
247.1130, 93.26344
247.5951, 92.19071
248.0772, 91.32981
248.5593, 90.75163
249.0414, 90.09073
249.5235, 89.23734
250.0057, 88.37074
250.4878, 87.78632
250.9699, 87.59740
251.4520, 87.48400
251.9341, 87.30679
252.4162, 86.98648
252.8984, 87.01743
253.3805, 87.58784
253.8626, 88.36823
254.3447, 88.85913
254.8268, 88.97936
255.3089, 88.98457
255.7911, 88.86914
256.2732, 88.57626
256.7553, 88.65921
257.2374, 89.26524
257.7195, 90.10506
258.2017, 90.77200
258.6838, 91.04797
259.1659, 91.68049
259.6480, 93.01842
260.1301, 95.09488
260.6122, 96.66744
261.0944, 97.62666
261.5765, 98.22164
262.0586, 98.67324
262.5407, 98.89980
263.0228, 99.20847
263.5049, 99.67213
263.9871, 100.2900
264.4692, 100.9221
264.9513, 101.5641
265.4334, 102.2363
265.9155, 103.0519
266.3976, 104.1532
266.8798, 104.8594
267.3619, 104.9843
267.8440, 104.5858
268.3261, 104.1260
268.8082, 103.6328
269.2903, 103.0225
269.7725, 102.1451
270.2546, 100.8935
270.7367, 99.92993
271.2188, 99.42059
271.7009, 99.26315
272.1830, 99.03356
272.6652, 98.72955
273.1473, 98.36250
273.6294, 97.94534
274.1115, 97.48629
274.5936, 96.88911
275.0757, 96.05860
275.5579, 95.13675
276.0400, 94.58299
276.5221, 94.45557
277.0042, 94.45753
277.4863, 94.41827
277.9684, 94.32988
278.4506, 94.33576
278.9327, 94.51331
279.4148, 94.70503
279.8969, 94.56364
280.3790, 94.06409
280.8611, 93.41444
281.3433, 92.53642
281.8254, 91.43456
282.3075, 91.00691
282.7896, 91.39783
283.2717, 92.19626
283.7538, 92.78310
284.2360, 93.15229
284.7181, 93.48347
285.2002, 93.88199
285.6823, 94.32887
286.1644, 94.59090
286.6465, 94.60692
287.1287, 94.64838
287.6108, 95.13116
288.0929, 96.03036
288.5750, 96.89400
289.0571, 97.44534
289.5392, 97.82648
290.0214, 98.65234
290.5035, 99.95781
290.9856, 101.3807
291.4677, 102.4564
291.9498, 103.2693
292.4319, 104.3089
292.9141, 105.7895
293.3962, 107.5658
293.8783, 109.3182
294.3604, 111.0393
294.8425, 112.7887
295.3246, 114.6655
295.8068, 116.6410
296.2889, 118.5795
296.7710, 120.4752
297.2531, 122.3225
297.7352, 124.1053
298.2173, 125.8131
298.6995, 127.4266
299.1816, 128.8292
299.6637, 130.1246
300.1458, 131.5132
300.6279, 133.0815
301.1100, 134.6681
301.5922, 136.0521
302.0743, 137.2610
302.5564, 138.4070
303.0385, 139.3824
303.5206, 140.3938
304.0027, 141.8183
304.4849, 143.7557
304.9670, 145.8296
305.4491, 147.5832
305.9312, 149.1699
306.4133, 150.9583
306.8954, 153.0254
307.3776, 155.4467
307.8597, 158.3228
308.3418, 161.7076
308.8239, 165.3056
309.3060, 168.9145
309.7881, 172.6293
310.2703, 176.4793
310.7524, 180.5501
311.2345, 184.7614
311.7166, 189.2871
312.1987, 194.0888
312.6808, 198.2351
313.1630, 200.9544
313.6451, 202.8713
314.1272, 204.6856
314.6093, 207.2133
315.0914, 209.1087
315.5735, 209.6445
316.0557, 208.9238
316.5378, 207.5019
317.0199, 205.5025
317.5020, 202.9693
317.9841, 199.8576
318.4662, 195.9172
318.9484, 191.8513
319.4305, 187.5575
319.9126, 183.2814
320.3947, 179.6682
320.8768, 177.1432
321.3589, 175.1481
321.8411, 173.3604
322.3232, 171.5829
322.8053, 170.4477
323.2874, 170.2924
323.7695, 170.8133
324.2516, 171.5296
324.7338, 172.2187
325.2159, 173.2280
325.6980, 174.7358
326.1801, 176.8672
326.6622, 178.9829
327.1443, 181.1555
327.6265, 183.2563
328.1086, 185.1636
328.5907, 187.0381
329.0728, 188.5124
329.5549, 189.2871
330.0370, 189.3548
330.5192, 189.9994
331.0013, 191.7225
331.4834, 193.6023
331.9655, 194.9637
332.4476, 195.1047
332.9297, 195.9576
333.4119, 197.9084
333.8940, 200.7129
334.3761, 203.2024
334.8582, 204.8119
335.3403, 206.9048
335.8224, 210.2570
336.3046, 215.3157
336.7867, 220.2984
337.2688, 225.0491
337.7509, 229.8246
338.2330, 235.3041
338.7151, 241.5724
339.1973, 248.1642
339.6794, 255.0300
340.1615, 262.1242
340.6436, 269.1858
341.1257, 276.0500
341.6078, 283.0895
342.0899, 290.7419
342.5721, 298.8743
343.0542, 307.7012
343.5363, 317.3315
344.0184, 327.6054
344.5005, 337.9718
344.9826, 348.2780
345.4648, 359.1884
345.9469, 371.0700
346.4290, 384.0650
346.9111, 397.9351
347.3932, 412.7504
347.8753, 428.4051
348.3575, 444.2145
348.8396, 460.1664
349.3217, 477.1519
349.8038, 495.7515
350.2859, 515.6752
350.7680, 536.4670
351.2502, 558.2736
351.7323, 580.1182
352.2144, 600.7027
352.6965, 620.4641
353.1786, 640.1218
353.6607, 661.5291
354.1429, 682.3945
354.6250, 699.6234
355.1071, 713.0418
355.5892, 724.6994
356.0713, 736.3806
356.5534, 747.2976
357.0356, 756.2642
357.5177, 761.8149
357.9998, 766.1842
358.4819, 770.2505
358.9640, 774.1882
359.4461, 778.8932
359.9283, 784.7432
360.4104, 791.6024
360.8925, 799.1913
361.3746, 806.5403
361.8567, 816.1644
362.3388, 829.2744
362.8210, 845.3556
363.3031, 863.5305
363.7852, 882.9919
364.2673, 904.8809
364.7494, 930.1264
365.2315, 959.5661
365.7137, 989.7123
366.1958, 1020.716
366.6779, 1051.468
367.1600, 1080.946
367.6421, 1112.978
368.1242, 1139.637
368.6064, 1159.558
369.0885, 1172.652
369.5706, 1179.447
370.0527, 1182.003
370.5348, 1176.782
371.0169, 1161.236
371.4991, 1133.198
371.9812, 1098.763
372.4633, 1057.117
372.9454, 1009.203
373.4275, 959.0215
373.9096, 905.1397
374.3918, 850.4642
374.8739, 797.0146
375.3560, 743.8948
375.8381, 693.1266
376.3202, 644.9511
376.8023, 599.5336
377.2845, 557.2572
377.7666, 518.4717
378.2487, 482.7016
378.7308, 450.8506
379.2129, 422.2549
379.6950, 395.3411
380.1772, 369.7359
380.6593, 346.5565
381.1414, 326.9718
381.6235, 310.8858
382.1056, 295.7493
382.5877, 281.1325
383.0699, 267.3045
383.5520, 254.8583
384.0341, 243.6578
384.5162, 233.4707
384.9983, 223.9576
385.4804, 215.2726
385.9626, 207.7995
386.4447, 201.6870
386.9268, 196.1825
387.4089, 190.6747
387.8910, 185.1674
388.3731, 179.7976
388.8553, 174.4812
389.3374, 169.4001
389.8195, 164.9406
390.3016, 161.1180
390.7837, 157.2209
391.2658, 152.7785
391.7480, 148.1013
392.2301, 143.4888
392.7122, 138.8655
393.1943, 134.5477
393.6764, 130.8749
394.1585, 127.6674
394.6407, 124.4838
395.1228, 121.1200
395.6049, 117.7627
396.0870, 114.4232
396.5691, 111.0429
397.0512, 107.9547
397.5334, 105.1351
398.0155, 102.6579
398.4976, 100.6500
398.9797, 99.78569
399.4618, 98.65697
399.9439, 96.77744
400.4261, 94.15262
400.9082, 92.13249
401.3903, 91.09679
401.8724, 90.30237
402.3545, 89.27490
402.8366, 87.90386
403.3188, 86.55045
403.8009, 85.18141
404.2830, 83.86521
404.7651, 82.81302
405.2472, 82.13364
405.7293, 81.43593
406.2115, 80.50426
406.6936, 79.33390
407.1757, 78.42660
407.6578, 77.83931
408.1399, 77.35689
408.6220, 76.64318
409.1042, 75.70869
409.5863, 75.06060
410.0684, 74.95471
410.5505, 75.12563
411.0326, 74.87833
411.5147, 74.22483
411.9969, 73.58162
412.4790, 73.22753
412.9611, 73.10057
413.4432, 73.07985
413.9253, 73.16918
414.4074, 73.28420
414.8896, 73.35733
415.3717, 73.38754
415.8538, 73.37045
416.3359, 73.28201
416.8180, 73.15907
417.3001, 73.03288
417.7823, 72.90226
418.2644, 72.76418
418.7465, 72.54453
419.2286, 72.34536
419.7107, 72.27220
420.1928, 72.42936
420.6750, 72.60862
421.1571, 72.72524
421.6392, 72.80319
422.1213, 72.90237
422.6034, 73.03561
423.0855, 73.19534
423.5677, 73.38685
424.0498, 73.62195
424.5319, 73.84518
425.0140, 73.95068
425.4961, 74.09480
425.9782, 74.45200
426.4604, 75.34351
426.9425, 75.97557
427.4246, 76.15842
427.9067, 75.96227
428.3888, 75.84942
428.8709, 75.80232
429.3531, 75.86876
429.8352, 76.10097
430.3173, 76.53049
430.7994, 76.94559
431.2815, 77.33186
431.7636, 77.71278
432.2458, 78.14947
432.7279, 78.64993
433.2100, 79.05408
433.6921, 79.28877
434.1742, 79.38529
434.6563, 79.42461
435.1385, 79.40373
435.6206, 79.41375
436.1027, 79.53287
436.5848, 79.74412
437.0669, 80.01048
437.5490, 80.34147
438.0312, 80.68810
438.5133, 80.93639
438.9954, 81.15038
439.4775, 81.50671
439.9596, 82.45069
440.4417, 83.35522
440.9239, 83.47719
441.4060, 82.77452
441.8881, 82.24411
442.3702, 82.64738
442.8523, 83.41492
443.3344, 84.00322
443.8166, 84.19070
444.2987, 84.26765
444.7808, 84.27519
445.2629, 84.23238
445.7450, 84.19599
446.2271, 84.14700
446.7093, 84.13200
447.1914, 84.16675
447.6735, 84.25175
448.1556, 84.38998
448.6377, 84.63778
449.1198, 84.89906
449.6020, 85.03947
450.0841, 84.84371
450.5662, 85.01562
451.0483, 85.91245
451.5304, 87.25011
452.0125, 87.61280
452.4947, 86.70084
452.9768, 85.74837
453.4589, 85.50548
453.9410, 85.99218
454.4231, 86.28620
454.9052, 86.34595
455.3874, 86.28745
455.8695, 86.32022
456.3516, 86.40446
456.8337, 86.24978
457.3158, 85.70451
457.7979, 84.91185
458.2801, 84.09505
458.7622, 83.25755
459.2443, 82.38882
459.7264, 81.51439
460.2085, 80.60083
460.6906, 79.61610
461.1728, 78.55789
461.6549, 77.43343
462.1370, 76.16356
462.6191, 74.86565
463.1012, 73.74121
463.5833, 72.83688
464.0655, 72.14408
464.5476, 71.74611
465.0297, 71.61002
465.5118, 71.45967
465.9939, 70.95656
466.4760, 70.61573
466.9582, 70.73926
467.4403, 71.62571
467.9224, 72.48703
468.4045, 73.24540
468.8866, 73.98853
469.3687, 74.85723
469.8509, 75.86413
470.3330, 76.95161
470.8151, 78.12941
471.2972, 79.38731
471.7793, 80.59527
472.2614, 81.73569
472.7436, 82.90925
473.2257, 84.21579
473.7078, 85.66409
474.1899, 87.00716
474.6720, 88.17300
475.1541, 89.39823
475.6363, 91.08974
476.1184, 93.18999
476.6005, 95.33445
477.0826, 97.39575
477.5647, 99.39870
478.0468, 101.4999
478.5290, 103.6696
479.0111, 105.6372
479.4932, 106.8675
479.9753, 107.9367
480.4574, 109.6272
480.9395, 112.2861
481.4217, 114.8943
481.9038, 116.6314
482.3859, 117.9258
482.8680, 119.3829
483.3501, 121.2567
483.8322, 123.2722
484.3144, 125.5228
484.7965, 127.9389
485.2786, 129.9099
485.7607, 130.9438
486.2428, 131.7958
486.7249, 132.8172
487.2071, 133.9313
487.6892, 135.3768
488.1713, 137.3746
488.6534, 139.5484
489.1355, 141.3898
489.6176, 142.8605
490.0998, 144.1222
490.5819, 145.1453
491.0640, 146.0212
491.5461, 147.2390
492.0282, 148.8569
492.5103, 150.4523
492.9925, 151.8338
493.4746, 152.9761
493.9567, 153.5880
494.4388, 153.6087
494.9209, 153.3701
495.4030, 153.2982
495.8852, 153.2659
496.3673, 152.9485
496.8494, 152.1431
497.3315, 151.0738
497.8136, 149.9289
498.2957, 148.6908
498.7779, 147.3422
499.2600, 145.7323
499.7421, 144.0873
500.2242, 142.5245
500.7063, 141.0078
501.1884, 139.7411
501.6706, 138.8506
502.1527, 138.2203
502.6348, 137.7513
503.1169, 136.9910
503.5990, 136.9344
504.0811, 137.8400
504.5633, 139.5308
505.0454, 141.3586
505.5275, 143.0430
506.0096, 145.3066
506.4917, 148.6028
506.9738, 153.0825
507.4560, 156.9408
507.9381, 159.8874
508.4202, 162.9925
508.9023, 167.4186
509.3844, 173.1123
509.8665, 179.1560
510.3487, 185.3759
510.8308, 191.8785
511.3129, 198.8810
511.7950, 206.3425
512.2772, 214.0672
512.7593, 222.2212
513.2414, 230.4256
513.7235, 237.9541
514.2056, 244.8730
514.6877, 252.6966
515.1699, 262.5320
515.6520, 273.6416
516.1341, 285.4473
516.6162, 298.2783
517.0983, 310.9390
517.5804, 322.9771
518.0626, 334.6904
518.5447, 346.5700
519.0268, 358.8746
519.5089, 371.2090
519.9910, 383.8791
520.4731, 396.7968
520.9553, 407.8544
521.4374, 416.9720
521.9195, 424.1895
522.4016, 429.7896
522.8837, 434.1019
523.3658, 434.7918
523.8480, 431.6283
524.3301, 425.2915
524.8122, 416.6708
525.2943, 405.8106
525.7764, 392.3600
526.2585, 375.8310
526.7407, 357.1178
527.2228, 336.7243
527.7049, 314.8789
528.1870, 293.5851
528.6691, 273.4999
529.1512, 254.6233
529.6334, 236.8554
530.1155, 220.0228
530.5976, 204.5908
531.0797, 190.7696
531.5618, 178.2755
532.0439, 166.9826
532.5261, 156.6050
533.0082, 147.5885
533.4903, 140.1379
533.9724, 134.0187
534.4545, 128.5518
534.9366, 124.0259
535.4188, 119.8046
535.9009, 115.7274
536.3830, 111.8045
536.8651, 108.4473
537.3472, 105.7178
537.8293, 103.4434
538.3115, 101.6480
538.7936, 100.3794
539.2757, 98.94067
539.7578, 97.20378
540.2399, 95.59697
540.7220, 94.73252
541.2042, 94.53596
541.6863, 94.54509
542.1684, 94.77329
542.6505, 94.94798
543.1326, 94.48024
543.6147, 93.55886
544.0969, 92.89793
544.5790, 93.26120
545.0611, 93.84163
545.5432, 93.91716
546.0253, 93.40331
546.5074, 92.94134
546.9896, 92.67171
547.4717, 92.64328
547.9538, 92.89772
548.4359, 93.53677
548.9180, 94.34325
549.4001, 95.81889
549.8823, 97.30318
550.3644, 97.54980
550.8465, 95.67506
551.3286, 94.25098
551.8107, 94.07544
552.2928, 94.93698
552.7750, 95.22974
553.2571, 94.85540
553.7392, 94.41005
554.2213, 94.35130
554.7034, 94.58658
555.1855, 94.59400
555.6677, 94.34972
556.1498, 93.86562
556.6319, 93.10528
557.1140, 92.12379
557.5961, 91.01918
558.0782, 89.73914
558.5604, 88.47530
559.0425, 87.60730
559.5246, 86.88145
560.0067, 85.73264
560.4888, 83.31257
560.9709, 80.98891
561.4531, 79.57409
561.9352, 79.08153
562.4173, 78.26061
562.8994, 76.63985
563.3815, 74.89595
563.8636, 73.33227
564.3458, 71.97058
564.8279, 70.76222
565.3100, 69.69984
565.7921, 68.78422
566.2742, 68.04184
566.7563, 67.47720
567.2385, 67.02190
567.7206, 66.71626
568.2027, 66.44785
568.6848, 65.85942
569.1669, 65.01254
569.6490, 64.43278
570.1312, 64.57089
570.6133, 65.06165
571.0954, 65.40988
571.5775, 65.61242
572.0596, 65.74362
572.5417, 65.76962
573.0239, 65.79678
573.5060, 65.92097
573.9881, 66.18233
574.4702, 66.47957
574.9523, 66.71799
575.4344, 67.00382
575.9166, 67.46888
576.3987, 68.29943
576.8808, 69.07832
577.3629, 69.72285
577.8450, 70.29273
578.3271, 71.05767
578.8093, 72.16779
579.2914, 73.01812
579.7735, 73.30577
580.2556, 73.08788
580.7377, 72.78146
581.2198, 72.37782
581.7020, 71.98415
582.1841, 71.81252
582.6662, 71.70789
583.1483, 71.19460
583.6304, 70.13374
584.1125, 69.12928
584.5947, 68.72889
585.0768, 68.72694
585.5589, 68.82696
586.0410, 69.08483
586.5231, 69.25097
587.0052, 69.07174
587.4873, 68.71248
587.9694, 68.61710
588.4515, 69.04164
588.9337, 69.56966
589.4158, 70.11959
589.8979, 70.69252
590.3800, 71.18889
590.8621, 71.67336
591.3442, 71.96608
591.8264, 71.90639
592.3085, 71.47165
592.7906, 70.95007
593.2727, 70.26791
593.7548, 69.79208
594.2369, 70.13737
594.7191, 71.09230
595.2012, 71.82990
595.6833, 72.10600
596.1654, 72.17588
596.6475, 72.37254
597.1296, 72.58109
597.6118, 72.54050
598.0939, 71.69079
598.5760, 70.95480
599.0581, 71.00037
599.5402, 71.73896
600.0223, 72.24683
600.5045, 72.07555
600.9866, 71.84086
601.4687, 71.85854
601.9508, 72.24099
602.4329, 72.37121
602.9150, 72.12426
603.3972, 71.79696
603.8793, 71.69962
604.3614, 71.87061
604.8435, 71.83088
605.3256, 71.48840
605.8077, 71.00038
606.2899, 70.66804
606.7720, 70.42945
607.2541, 69.99342
607.7362, 69.07780
608.2183, 68.09238
608.7004, 67.52663
609.1826, 67.30994
609.6647, 67.21764
610.1468, 67.49761
610.6289, 67.56890
611.1110, 66.99905
611.5931, 65.74397
612.0753, 64.46648
612.5574, 63.13354
613.0395, 61.93471
613.5216, 61.00016
614.0037, 60.48128
614.4858, 59.81137
614.9680, 58.95491
615.4501, 57.99477
615.9322, 56.96177
616.4143, 55.84288
616.8964, 54.99217
617.3785, 54.57334
617.8607, 54.28350
618.3428, 53.58864
618.8249, 52.55574
619.3070, 51.46467
619.7891, 50.42760
620.2712, 49.40876
620.7534, 48.25444
621.2355, 47.03695
621.7176, 46.14115
622.1997, 46.02357
622.6818, 46.06044
623.1639, 45.94764
623.6461, 45.66864
624.1282, 45.15585
624.6103, 44.07861
625.0924, 43.04578
625.5745, 42.47060
626.0566, 42.55459
626.5388, 42.49525
627.0209, 42.23433
627.5030, 41.89832
627.9851, 41.64021
628.4672, 41.46099
628.9493, 41.36715
629.4315, 41.40577
629.9136, 41.44618
630.3957, 41.28597
630.8778, 40.95978
631.3599, 40.57164
631.8420, 40.09880
632.3242, 39.64341
632.8063, 39.25657
633.2884, 38.94907
633.7705, 38.74969
634.2526, 38.80467
634.7347, 38.85449
635.2169, 38.75072
635.6990, 38.45010
636.1811, 38.24441
636.6632, 38.22228
637.1453, 38.18211
637.6274, 37.95775
638.1096, 37.50983
638.5917, 37.10244
639.0738, 36.70574
639.5559, 36.46452
640.0380, 36.71297
640.5201, 37.31626
641.0023, 37.64130
641.4844, 37.41098
641.9665, 37.08811
642.4486, 37.29253
642.9307, 37.77602
643.4128, 37.99592
643.8950, 37.47853
644.3771, 36.88610
644.8592, 36.51173
645.3413, 36.33012
645.8234, 36.14799
646.3055, 35.82948
646.7877, 35.62912
647.2698, 35.70316
647.7519, 36.07055
648.2340, 36.12323
648.7161, 35.77753
649.1982, 35.34750
649.6804, 35.05015
650.1625, 34.87477
650.6446, 34.71721
651.1267, 34.56868
651.6088, 34.46603
652.0909, 34.48211
652.5731, 34.56474
653.0552, 34.62143
653.5373, 34.62288
654.0194, 34.61124
654.5015, 34.60775
654.9836, 34.60991
655.4658, 34.61383
655.9479, 34.56675
656.4300, 34.58274
656.9121, 34.77416
657.3942, 35.04220
657.8763, 35.10646
658.3585, 34.89678
658.8406, 34.64035
659.3227, 34.37038
659.8048, 34.11131
660.2869, 34.02718
660.7690, 34.12238
661.2512, 34.25744
661.7333, 34.35637
662.2154, 34.42712
662.6975, 34.46525
663.1796, 34.47273
663.6617, 34.51704
664.1439, 34.74453
664.6260, 34.97031
665.1081, 35.02002
665.5902, 34.82763
666.0723, 34.59167
666.5544, 34.27315
667.0366, 33.98511
667.5187, 33.83714
668.0008, 33.93573
668.4829, 33.94535
668.9650, 33.79823
669.4471, 33.61457
669.9293, 33.60302
670.4114, 33.76575
670.8935, 33.92929
671.3756, 34.08154
671.8577, 34.15789
672.3398, 34.01549
672.8220, 33.69804
673.3041, 33.35912
673.7862, 33.05502
674.2683, 32.77382
674.7504, 32.52932
675.2325, 32.30720
675.7147, 32.04725
676.1968, 31.56489
676.6789, 31.19063
677.1610, 31.09572
677.6431, 31.28534
678.1252, 31.54247
678.6074, 31.99375
679.0895, 32.27171
679.5716, 31.97370
680.0537, 31.09784
680.5358, 30.91529
681.0179, 31.53518
681.5001, 32.19402
681.9822, 32.00668
682.4643, 31.32673
682.9464, 30.87904
683.4285, 30.81714
683.9106, 30.87918
684.3928, 30.90228
684.8749, 30.93243
685.3570, 31.02523
685.8391, 31.31425
686.3212, 31.52082
686.8033, 31.60161
687.2855, 31.57588
687.7676, 31.44779
688.2497, 31.13984
688.7318, 30.92684
689.2139, 30.88345
689.6960, 30.95207
690.1782, 30.97447
690.6603, 30.95482
691.1424, 30.97373
691.6245, 31.14182
692.1066, 31.32373
692.5887, 31.28386
693.0709, 31.06109
693.5530, 30.82045
694.0351, 30.57472
694.5172, 30.40505
694.9993, 30.36572
695.4814, 30.46116
695.9636, 30.63491
696.4457, 30.94534
696.9278, 31.26811
697.4099, 31.56337
697.8920, 31.84364
698.3741, 32.00559
698.8563, 32.03891
699.3384, 31.98525
699.8205, 31.80752
700.3026, 31.55799
700.7847, 31.51648
701.2668, 31.73834
701.7490, 31.96899
702.2311, 31.94851
702.7132, 31.79156
703.1953, 31.63443
703.6774, 31.42987
704.1595, 31.40467
704.6417, 31.87680
705.1238, 32.49912
705.6059, 32.76588
706.0880, 32.32857
706.5701, 32.08238
707.0522, 32.15439
707.5344, 32.42975
708.0165, 32.71247
708.4986, 33.00984
708.9807, 33.17937
709.4628, 33.13141
709.9449, 32.98923
710.4271, 32.97202
710.9092, 33.06078
711.3913, 33.18479
711.8734, 33.37414
712.3555, 33.52755
712.8376, 33.50788
713.3198, 33.36629
713.8019, 33.35625
714.2840, 33.71635
714.7661, 34.05068
715.2482, 34.18275
715.7303, 34.12236
716.2125, 34.19657
716.6946, 34.48207
717.1767, 34.69383
717.6588, 34.58308
718.1409, 34.21416
718.6230, 34.10775
719.1052, 34.26760
719.5873, 34.51040
720.0694, 34.74411
720.5515, 34.94989
721.0336, 35.10232
721.5157, 35.19399
721.9979, 35.26317
722.4800, 35.25689
722.9621, 35.28118
723.4442, 35.44030
723.9263, 35.88747
724.4084, 36.13924
724.8906, 36.09487
725.3727, 35.97621
725.8548, 35.98709
726.3369, 36.12851
726.8190, 36.42853
727.3011, 36.93122
727.7833, 37.43207
728.2654, 37.68280
728.7475, 37.71672
729.2296, 37.56179
729.7117, 37.04864
730.1938, 36.72570
730.6760, 37.21236
731.1581, 38.06910
731.6402, 38.62591
732.1223, 38.35819
732.6044, 38.23716
733.0865, 38.49687
733.5687, 38.95019
734.0508, 39.17938
734.5329, 39.11143
735.0150, 39.13776
735.4971, 39.39913
735.9792, 39.77486
736.4614, 40.00889
736.9435, 40.11372
737.4256, 40.15339
737.9077, 40.05401
738.3898, 39.98566
738.8719, 40.12889
739.3541, 40.44046
739.8362, 40.76791
740.3183, 41.11026
740.8004, 41.40490
741.2825, 41.61135
741.7646, 41.74087
742.2468, 41.86755
742.7289, 41.98417
743.2110, 42.11668
743.6931, 42.31048
744.1752, 42.53457
744.6573, 42.54100
745.1395, 42.33882
745.6216, 42.24105
746.1037, 42.61394
746.5858, 43.13551
747.0679, 43.36023
747.5500, 43.28185
748.0322, 43.27684
748.5143, 43.60585
748.9964, 43.99111
749.4785, 44.29316
749.9606, 44.51899
750.4427, 44.54355
750.9249, 44.22346
751.4070, 43.94445
751.8891, 44.00693
752.3712, 44.40569
752.8533, 44.78160
753.3354, 45.12833
753.8176, 45.45256
754.2997, 45.78840
754.7818, 46.09645
755.2639, 46.30681
755.7460, 46.39482
756.2281, 46.46556
756.7103, 46.52638
757.1924, 46.62215
757.6745, 46.79483
758.1566, 47.09180
758.6387, 47.38892
759.1208, 47.71771
759.6030, 48.01188
760.0851, 48.16631
760.5672, 48.17405
761.0493, 48.33395
761.5314, 48.72393
762.0135, 49.07640
762.4957, 48.99299
762.9778, 48.65757
763.4599, 48.42326
763.9420, 48.42429
764.4241, 48.43150
764.9063, 48.20540
765.3884, 47.96021
765.8705, 47.96281
766.3526, 48.53800
766.8347, 48.94552
767.3168, 49.12835
767.7990, 49.15907
768.2811, 49.08297
768.7632, 48.88561
769.2453, 48.92801
769.7274, 49.36369
770.2095, 49.85954
770.6917, 49.86183
771.1738, 49.56775
771.6559, 49.42132
772.1380, 49.72274
772.6201, 50.01054
773.1022, 49.90261
773.5844, 49.64270
774.0665, 49.67195
774.5486, 50.32088
775.0307, 50.85145
775.5128, 51.11676
775.9949, 51.25279
776.4771, 51.58474
776.9592, 52.12517
777.4413, 52.56899
777.9234, 52.77695
778.4055, 52.93095
778.8876, 53.32018
779.3698, 53.88264
779.8519, 54.46077
780.3340, 55.09804
780.8161, 55.60815
781.2982, 55.71035
781.7803, 55.62043
782.2625, 55.93913
782.7446, 56.83433
783.2267, 57.91492
783.7088, 59.20362
784.1909, 60.57538
784.6730, 61.64859
785.1552, 62.43040
785.6373, 63.19326
786.1194, 63.95113
786.6015, 64.84353
787.0836, 66.14085
787.5657, 67.73674
788.0479, 69.33590
788.5300, 70.66181
789.0121, 72.06567
789.4942, 73.69820
789.9763, 75.52800
790.4584, 77.37082
790.9406, 79.03752
791.4227, 81.06263
791.9048, 83.68576
792.3869, 86.70010
792.8690, 89.37065
793.3511, 91.74944
793.8333, 94.29984
794.3154, 97.29134
794.7975, 100.5339
795.2796, 103.7386
795.7617, 106.9898
796.2438, 110.3916
796.7260, 113.9674
797.2081, 117.7677
797.6902, 121.8380
798.1723, 126.1221
798.6544, 130.5112
799.1365, 135.0113
799.6187, 139.5283
800.1008, 143.9742
800.5829, 148.4525
801.0650, 153.3610
801.5471, 158.6169
802.0292, 163.8554
802.5114, 168.5164
802.9935, 173.3171
803.4756, 179.0450
803.9577, 185.4585
804.4398, 191.6509
804.9219, 197.1228
805.4041, 202.6712
805.8862, 208.6317
806.3683, 214.8600
806.8504, 220.6411
807.3325, 225.8089
807.8146, 231.4949
808.2968, 238.5267
808.7789, 246.0769
809.2610, 251.9510
809.7431, 256.5851
810.2252, 261.7571
810.7073, 269.0155
811.1895, 276.5395
811.6716, 283.1806
812.1537, 289.1686
812.6358, 295.4158
813.1179, 302.4712
813.6000, 309.2511
814.0822, 315.5009
814.5643, 321.3310
815.0464, 327.2473
815.5285, 333.2525
816.0106, 338.1787
816.4927, 341.2450
816.9749, 343.2646
817.4570, 345.6354
817.9391, 347.9913
818.4212, 349.3483
818.9033, 348.8244
819.3854, 347.6354
819.8676, 346.5857
820.3497, 345.2423
820.8318, 342.2552
821.3139, 337.1908
821.7960, 331.5450
822.2781, 325.5753
822.7603, 319.3525
823.2424, 312.6314
823.7245, 305.4638
824.2066, 298.4133
824.6887, 291.6510
825.1708, 285.0695
825.6530, 278.5252
826.1351, 271.9704
826.6172, 265.5164
827.0993, 258.7079
827.5814, 252.4653
828.0635, 246.8918
828.5457, 241.9531
829.0278, 237.5079
829.5099, 233.6261
829.9920, 229.8469
830.4741, 225.8685
830.9562, 222.3208
831.4384, 220.5150
831.9205, 219.9264
832.4026, 219.1621
832.8847, 217.2086
833.3668, 215.6705
833.8489, 215.4814
834.3311, 216.2095
834.8132, 217.1413
835.2953, 218.1045
835.7774, 219.4612
836.2595, 221.3395
836.7416, 223.4902
837.2238, 225.4210
837.7059, 227.2140
838.1880, 229.4033
838.6701, 232.1686
839.1522, 235.2236
839.6343, 238.3665
840.1165, 241.5903
840.5986, 244.8470
841.0807, 248.2444
841.5628, 251.4921
842.0449, 254.6531
842.5270, 257.5279
843.0092, 259.8279
843.4913, 261.4497
843.9734, 263.1684
844.4555, 265.1585
844.9376, 266.8579
845.4197, 267.5544
845.9019, 267.4676
846.3840, 267.0840
846.8661, 266.5223
847.3482, 265.5356
847.8303, 264.0366
848.3124, 262.0194
848.7946, 259.3844
849.2767, 255.8408
849.7588, 252.5899
850.2409, 249.8286
850.7230, 246.9836
851.2051, 243.3636
851.6873, 239.1525
852.1694, 235.2504
852.6515, 231.6858
853.1336, 228.7788
853.6157, 226.9554
854.0978, 225.7668
854.5800, 224.7866
855.0621, 223.9610
855.5442, 223.3535
856.0263, 222.6582
856.5084, 222.5432
856.9905, 223.4400
857.4727, 225.3445
857.9548, 227.2941
858.4369, 229.2777
858.9190, 231.5498
859.4011, 234.2270
859.8832, 237.3771
860.3654, 241.0912
860.8475, 245.3625
861.3296, 250.0805
861.8117, 255.4331
862.2938, 261.0381
862.7759, 266.5074
863.2581, 271.9406
863.7402, 278.8105
864.2223, 287.3890
864.7044, 296.3620
865.1865, 305.0684
865.6686, 313.8781
866.1508, 323.5020
866.6329, 333.9340
867.1150, 344.7831
867.5971, 356.3604
868.0792, 367.8119
868.5613, 378.0359
869.0435, 387.7265
869.5256, 398.8401
870.0077, 412.2292
870.4898, 425.6201
870.9719, 438.6212
871.4540, 451.5433
871.9362, 465.4568
872.4183, 480.1864
872.9004, 494.3380
873.3825, 507.4498
873.8646, 519.9052
874.3467, 531.6468
874.8289, 543.1414
875.3110, 554.9521
875.7931, 569.8389
876.2752, 581.2390
876.7573, 588.5041
877.2394, 592.4199
877.7216, 593.9374
878.2037, 593.0605
878.6858, 589.3824
879.1679, 582.8248
879.6500, 573.4852
880.1321, 561.1068
880.6143, 546.0737
881.0964, 528.7247
881.5785, 508.8664
882.0606, 487.9362
882.5427, 465.9089
883.0248, 443.2702
883.5070, 420.4339
883.9891, 397.0558
884.4712, 374.8043
884.9533, 353.8764
885.4354, 334.0206
885.9175, 314.9781
886.3997, 296.8839
886.8818, 280.3876
887.3639, 265.3951
887.8460, 251.3585
888.3281, 238.4213
888.8102, 226.1540
889.2924, 214.3216
889.7745, 202.9260
890.2566, 192.3435
890.7387, 182.6139
891.2208, 173.8222
891.7029, 166.0556
892.1851, 159.1490
892.6672, 152.5038
893.1493, 146.1315
893.6314, 140.2320
894.1135, 134.9162
894.5956, 129.9912
895.0778, 125.3964
895.5599, 121.0837
896.0420, 117.0438
896.5241, 113.1648
897.0062, 109.7251
897.4883, 106.9415
897.9705, 104.4150
898.4526, 101.3035
898.9347, 97.80459
899.4168, 94.91972
899.8989, 93.05104
900.3810, 91.31056
900.8632, 88.72525
901.3453, 85.97366
901.8274, 83.81221
902.3095, 82.94624
902.7916, 81.71297
903.2737, 79.89905
903.7559, 77.98991
904.2380, 76.41340
904.7201, 75.13386
905.2022, 73.93827
905.6843, 72.82707
906.1664, 71.80798
906.6486, 71.02811
907.1307, 70.27044
907.6128, 69.26771
908.0949, 67.98067
908.5770, 66.86988
909.0591, 65.96574
909.5413, 65.29705
910.0234, 64.97827
910.5055, 64.91689
910.9876, 64.47249
911.4697, 63.66713
911.9518, 62.91228
912.4340, 62.54273
912.9161, 62.24872
913.3982, 61.63649
913.8803, 60.84872
914.3624, 60.29091
914.8445, 60.33847
915.3267, 60.29251
915.8088, 60.02657
916.2909, 59.60602
916.7730, 59.08579
917.2551, 58.47150
917.7372, 58.10273
918.2194, 58.09292
918.7015, 58.22221
919.1836, 58.24602
919.6657, 58.26139
920.1478, 58.43017
920.6299, 58.97552
921.1121, 59.24955
921.5942, 58.95255
922.0763, 58.60035
922.5584, 58.60939
923.0405, 58.99097
923.5226, 59.40314
924.0048, 59.83538
924.4869, 60.30420
924.9690, 60.89472
925.4511, 61.49029
925.9332, 61.86778
926.4153, 62.03887
926.8975, 62.43904
927.3796, 63.45749
927.8617, 64.43445
928.3438, 65.19391
928.8259, 65.73640
929.3080, 66.01604
929.7902, 66.03952
930.2723, 66.11281
930.7544, 66.35244
931.2365, 66.73034
931.7186, 67.21918
932.2007, 67.81900
932.6829, 68.52670
933.1650, 69.81289
933.6471, 70.55417
934.1292, 70.40315
934.6113, 69.85677
935.0934, 69.61877
935.5756, 69.68347
936.0577, 69.64719
936.5398, 69.45323
937.0219, 69.16959
937.5040, 68.79275
937.9861, 68.40337
938.4683, 68.14061
938.9504, 68.08604
939.4325, 67.83660
939.9146, 67.31374
940.3967, 66.61446
940.8788, 65.74300
941.3610, 64.71637
941.8431, 63.68092
942.3252, 62.63275
942.8073, 61.69753
943.2894, 61.08674
943.7715, 60.53002
944.2537, 59.77098
944.7358, 58.84930
945.2179, 57.91762
945.7000, 56.83119
946.1821, 56.01637
946.6642, 55.67167
947.1464, 55.51362
947.6285, 54.82877
948.1106, 53.71489
948.5927, 52.97029
949.0748, 52.87497
949.5569, 52.93522
950.0391, 52.64248
950.5212, 52.29578
951.0033, 52.26280
951.4854, 52.81278
951.9675, 53.20118
952.4496, 53.40640
952.9318, 53.46739
953.4139, 53.25601
953.8960, 52.88517
954.3781, 53.19237
954.8602, 54.13706
955.3423, 54.89106
955.8245, 54.48225
956.3066, 54.04921
956.7887, 54.47938
957.2708, 55.69895
957.7529, 56.76758
958.2350, 57.70216
958.7172, 58.36367
959.1993, 58.66367
959.6814, 58.74876
960.1635, 58.82081
960.6456, 58.93512
961.1277, 59.29102
961.6099, 60.06890
962.0920, 60.87096
962.5741, 61.46512
963.0562, 61.96897
963.5383, 62.51844
964.0204, 63.18811
964.5026, 63.67890
964.9847, 63.92728
965.4668, 64.19936
965.9489, 64.84939
966.4310, 65.66242
966.9131, 66.08500
967.3953, 66.13138
967.8774, 66.48043
968.3595, 67.86363
968.8416, 69.23420
969.3237, 70.04282
969.8058, 70.40598
970.2880, 70.83088
970.7701, 71.32663
971.2522, 71.82792
971.7343, 72.29289
972.2164, 72.79429
972.6985, 73.54919
973.1807, 74.40573
973.6628, 75.06138
974.1449, 75.32478
974.6270, 75.55573
975.1091, 75.70607
975.5912, 75.96175
976.0734, 76.57944
976.5555, 77.56931
977.0376, 78.29288
977.5197, 78.70583
978.0018, 78.95909
978.4839, 79.16218
978.9661, 79.27884
979.4482, 79.17854
979.9303, 78.88350
980.4124, 78.85560
980.8945, 79.30014
981.3766, 79.80733
981.8588, 80.31359
982.3409, 80.76644
982.8230, 80.95600
983.3051, 80.93481
983.7872, 80.96934
984.2693, 81.11034
984.7515, 81.41927
985.2336, 82.09451
985.7157, 82.89391
986.1978, 83.49320
986.6799, 83.80447
987.1620, 84.03514
987.6442, 84.10300
988.1263, 84.32191
988.6084, 85.17158
989.0905, 86.34299
989.5726, 86.98808
990.0547, 87.11764
990.5369, 87.28903
991.0190, 87.74960
991.5011, 88.36622
991.9832, 89.12756
992.4653, 89.98787
992.9474, 90.86793
993.4296, 91.77905
993.9117, 92.53954
994.3938, 93.08301
994.8759, 93.47908
995.3580, 93.67076
995.8401, 93.82590
996.3223, 94.27241
996.8044, 95.44023
997.2865, 96.11623
997.7686, 96.02417
998.2507, 95.55171
998.7328, 95.08216
999.2150, 94.58575
999.6971, 93.14332
1000.179, 90.79322
1000.661, 88.17240
1001.143, 85.75515
1001.626, 83.22098
1002.108, 80.16972
1002.590, 76.73621
1003.072, 73.49521
1003.554, 70.72432
1004.036, 67.64553
1004.518, 63.97134
1005.000, 60.22055
1005.482, 57.41058
1005.965, 55.27345
1006.447, 53.16832
1006.929, 50.91247
1007.411, 48.81260
1007.893, 46.93903
1008.375, 45.33274
1008.857, 43.98779
1009.339, 42.89161
1009.822, 42.15462
1010.304, 41.81469
1010.786, 41.43934
1011.268, 40.67117
1011.750, 39.78790
1012.232, 39.12680
1012.714, 38.64362
1013.196, 38.19707
1013.678, 37.66561
1014.161, 37.29198
1014.643, 37.17450
1015.125, 37.15608
1015.607, 36.98832
1016.089, 36.70539
1016.571, 36.53151
1017.053, 36.50969
1017.535, 36.48991
1018.018, 36.35506
1018.500, 36.17890
1018.982, 36.02568
1019.464, 35.90045
1019.946, 35.72127
1020.428, 35.48838
1020.910, 35.20306
1021.392, 34.87160
1021.874, 34.48006
1022.357, 33.98539
1022.839, 33.41472
1023.321, 32.83636
1023.803, 32.30688
1024.285, 31.72327
1024.767, 30.96275
1025.249, 30.21648
1025.731, 29.72485
1026.214, 29.49009
1026.696, 29.05173
1027.178, 28.38326
1027.660, 27.64069
1028.142, 26.75056
1028.624, 25.98748
1029.106, 25.65745
1029.588, 25.72416
1030.070, 25.75249
1030.553, 25.65158
1031.035, 25.67020
1031.517, 25.93899
1031.999, 26.23828
1032.481, 26.09983
1032.963, 25.68286
1033.445, 25.39804
1033.927, 25.36894
1034.410, 25.38208
1034.892, 25.41623
1035.374, 25.39351
1035.856, 25.25219
1036.338, 24.98891
1036.820, 24.73075
1037.302, 24.48072
1037.784, 24.28669
1038.266, 24.22752
1038.749, 24.20086
1039.231, 24.12585
1039.713, 24.00157
1040.195, 23.82234
1040.677, 23.49167
1041.159, 23.29051
1041.641, 23.28399
1042.123, 23.32681
1042.605, 23.20991
1043.088, 23.00126
1043.570, 22.92765
1044.052, 23.01243
1044.534, 23.04507
1045.016, 22.76462
1045.498, 22.55869
1045.980, 22.73419
1046.462, 23.15349
1046.945, 23.11741
1047.427, 22.60712
1047.909, 22.17638
1048.391, 22.00914
1048.873, 21.99532
1049.355, 22.06846
1049.837, 22.20123
1050.319, 22.37007
1050.802, 22.64872
1051.284, 22.75528
1051.766, 22.63842
1052.248, 22.45891
1052.730, 22.31766
1053.212, 22.20626
1053.694, 22.09039
1054.176, 21.97749
1054.658, 21.90279
1055.141, 21.92323
1055.623, 21.93843
1056.105, 21.90277
1056.587, 21.84558
1057.069, 21.81054
1057.551, 21.79837
1058.033, 21.76734
1058.515, 21.70486
1058.997, 21.69060
1059.480, 21.85333
1059.962, 22.05705
1060.444, 22.18307
1060.926, 22.21622
1061.408, 22.20197
1061.890, 22.13731
1062.372, 22.03824
1062.854, 21.89666
1063.337, 21.74559
1063.819, 21.60511
1064.301, 21.51299
1064.783, 21.58020
1065.265, 21.95399
1065.747, 22.20446
1066.229, 22.14967
1066.711, 21.97493
1067.193, 21.70627
1067.676, 21.36767
1068.158, 21.54690
1068.640, 22.19929
1069.122, 22.65394
1069.604, 22.27450
1070.086, 21.79035
1070.568, 21.65428
1071.050, 21.77995
1071.532, 21.95850
1072.015, 22.21374
1072.497, 22.41801
1072.979, 22.56429
1073.461, 22.64324
1073.943, 22.59196
1074.425, 22.49709
1074.907, 22.47695
1075.389, 22.54089
1075.872, 22.64237
1076.354, 22.90279
1076.836, 22.98541
1077.318, 22.70062
1077.800, 22.28239
1078.282, 22.27579
1078.764, 22.59521
1079.246, 22.95034
1079.729, 23.31235
1080.211, 23.53851
1080.693, 23.43099
1081.175, 23.25364
1081.657, 23.20565
1082.139, 23.28693
1082.621, 23.38603
1083.103, 23.50429
1083.585, 23.60743
1084.068, 23.62371
1084.550, 23.67437
1085.032, 23.95093
1085.514, 24.32460
1085.996, 24.55065
1086.478, 24.54075
1086.960, 24.50687
1087.442, 24.43209
1087.924, 24.40778
1088.406, 24.56166
1088.889, 24.80700
1089.371, 25.00024
1089.853, 25.13595
1090.335, 25.23118
1090.817, 25.30652
1091.299, 25.30780
1091.781, 25.15755
1092.263, 24.99859
1092.746, 25.16525
1093.228, 25.57331
1093.710, 25.79228
1094.192, 25.73039
1094.674, 25.65601
1095.156, 25.77300
1095.638, 25.90912
1096.120, 25.94206
1096.603, 25.88563
1097.085, 25.81551
1097.567, 25.72617
1098.049, 25.77694
1098.531, 26.08749
1099.013, 26.43143
1099.495, 26.54292
1099.977, 26.56097
1100.459, 26.67576
1100.942, 26.96850
1101.424, 27.21296
1101.906, 27.45119
1102.388, 27.50263
1102.870, 27.05920
1103.352, 26.45454
1103.834, 26.33991
1104.316, 26.60731
1104.798, 26.95590
1105.281, 27.47008
1105.763, 27.78592
1106.245, 27.83935
1106.727, 27.72030
1107.209, 27.45491
1107.691, 27.09686
1108.173, 26.88145
1108.655, 26.81861
1109.138, 26.85647
1109.620, 27.12370
1110.102, 27.30947
1110.584, 27.21393
1111.066, 26.96440
1111.548, 26.83944
1112.030, 26.83426
1112.512, 26.72938
1112.995, 26.46502
1113.477, 26.22792
1113.959, 26.12546
1114.441, 26.16233
1114.923, 26.45204
1115.405, 26.97013
1115.887, 27.09488
1116.369, 26.75382
1116.851, 26.42291
1117.333, 26.25369
1117.816, 26.20567
1118.298, 26.29902
1118.780, 26.44774
1119.262, 26.54265
1119.744, 26.59881
1120.226, 26.41023
1120.708, 25.78199
1121.190, 25.39155
1121.673, 25.85044
1122.155, 26.70373
1122.637, 26.87062
1123.119, 26.51956
1123.601, 26.11550
1124.083, 25.77569
1124.565, 25.48221
1125.047, 25.19278
1125.530, 24.99001
1126.012, 25.01820
1126.494, 25.21280
1126.976, 25.18684
1127.458, 24.95350
1127.940, 24.73016
1128.422, 24.66692
1128.904, 24.60902
1129.386, 24.42087
1129.869, 24.23476
1130.351, 24.32959
1130.833, 24.69671
1131.315, 24.80586
1131.797, 24.58445
1132.279, 24.30160
1132.761, 24.06132
1133.243, 23.93633
1133.725, 24.12097
1134.208, 24.49460
1134.690, 24.42121
1135.172, 23.81443
1135.654, 23.43174
1136.136, 23.49727
1136.618, 23.65615
1137.100, 23.46661
1137.582, 23.18640
1138.065, 23.16200
1138.547, 23.49940
1139.029, 23.43814
1139.511, 22.82307
1139.993, 22.31709
1140.475, 22.21994
1140.957, 22.31066
1141.439, 22.21946
1141.922, 22.07039
1142.404, 22.10966
1142.886, 22.57366
1143.368, 22.71318
1143.850, 22.36334
1144.332, 21.93984
1144.814, 21.64610
1145.296, 21.49479
1145.778, 21.61561
1146.260, 21.90839
1146.743, 22.08374
1147.225, 21.86190
1147.707, 21.74955
1148.189, 21.90915
1148.671, 22.07783
1149.153, 21.93186
1149.635, 21.58275
1150.117, 21.72796
1150.600, 22.27621
1151.082, 22.49895
1151.564, 21.60992
1152.046, 20.82813
1152.528, 20.61359
1153.010, 20.72077
1153.492, 20.88412
1153.974, 21.09534
1154.457, 21.29391
1154.939, 21.47047
1155.421, 21.52747
1155.903, 21.26542
1156.385, 20.99625
1156.867, 20.94176
1157.349, 21.00702
1157.831, 20.98694
1158.313, 20.88007
1158.796, 20.70137
1159.278, 20.42495
1159.760, 20.30903
1160.242, 20.80647
1160.724, 21.36343
1161.206, 21.45187
1161.688, 21.14008
1162.170, 21.06120
1162.652, 21.23208
1163.135, 21.47996
1163.617, 21.80814
1164.099, 22.02435
1164.581, 21.79030
1165.063, 21.42860
1165.545, 21.31509
1166.027, 21.51791
1166.509, 21.54340
1166.992, 21.33265
1167.474, 21.29722
1167.956, 21.71735
1168.438, 22.18856
1168.920, 22.11388
1169.402, 21.78425
1169.884, 21.61400
1170.366, 21.72258
1170.849, 21.90439
1171.331, 22.23019
1171.813, 22.36896
1172.295, 21.96145
1172.777, 21.42126
1173.259, 21.53281
1173.741, 21.99930
1174.223, 22.22606
1174.705, 21.74057
1175.188, 21.59432
1175.670, 21.89046
1176.152, 22.28402
1176.634, 22.58306
1177.116, 22.76718
1177.598, 22.82538
1178.080, 22.74346
1178.562, 22.48463
1179.044, 21.64409
1179.527, 21.24894
1180.009, 21.48414
1180.491, 21.94256
1180.973, 22.27166
1181.455, 22.51691
1181.937, 22.85754
1182.419, 23.23180
1182.901, 23.32400
1183.384, 22.59458
1183.866, 22.17623
1184.348, 22.32718
1184.830, 22.70688
1185.312, 22.97963
1185.794, 23.12269
1186.276, 22.98471
1186.758, 22.59258
1187.240, 22.34644
1187.723, 22.56640
1188.205, 22.75989
1188.687, 22.78692
1189.169, 22.75702
1189.651, 22.85966
1190.133, 23.05459
1190.615, 23.24082
1191.097, 23.40508
1191.579, 23.46723
1192.062, 23.28489
1192.544, 23.13077
1193.026, 23.12973
1193.508, 23.17479
1193.990, 22.91546
1194.472, 22.49729
1194.954, 22.52208
1195.436, 23.16145
1195.919, 23.63632
1196.401, 23.40411
1196.883, 23.15519
1197.365, 23.22593
1197.847, 23.44671
1198.329, 23.19468
1198.811, 22.64235
1199.293, 22.53962
1199.776, 23.21545
1200.258, 23.66773
1200.740, 23.07941
1201.222, 22.52838
1201.704, 22.60251
1202.186, 23.11777
1202.668, 23.39976
1203.150, 23.47147
1203.632, 23.40603
1204.115, 23.16380
1204.597, 22.96997
1205.079, 23.07615
1205.561, 23.09958
1206.043, 22.71336
1206.525, 22.07095
1207.007, 22.12045
1207.489, 22.68954
1207.971, 22.97874
1208.454, 22.46464
1208.936, 22.04807
1209.418, 22.19439
1209.900, 22.50542
1210.382, 22.79102
1210.864, 23.02721
1211.346, 22.98634
1211.828, 22.71403
1212.311, 22.43249
1212.793, 22.19601
1213.275, 22.03265
1213.757, 21.98331
1214.239, 21.98022
1214.721, 21.96473
1215.203, 21.94918
1215.685, 22.10213
1216.167, 22.37128
1216.650, 22.48212
1217.132, 22.05451
1217.614, 21.77439
1218.096, 22.06419
1218.578, 22.36520
1219.060, 22.05039
1219.542, 21.26498
1220.024, 21.08016
1220.506, 21.40942
1220.989, 21.65934
1221.471, 21.44100
1221.953, 21.22437
1222.435, 21.11662
1222.917, 21.09656
1223.399, 21.20151
1223.881, 21.38409
1224.363, 21.39755
1224.846, 21.25138
1225.328, 21.05394
1225.810, 20.83434
1226.292, 20.58890
1226.774, 20.23340
1227.256, 19.96091
1227.738, 20.10152
1228.220, 20.51165
1228.703, 20.71533
1229.185, 20.68534
1229.667, 20.43884
1230.149, 19.61697
1230.631, 19.10115
1231.113, 19.18458
1231.595, 19.47201
1232.077, 19.45917
1232.559, 19.24193
1233.042, 19.08136
1233.524, 18.98840
1234.006, 18.88707
1234.488, 18.66288
1234.970, 18.56959
1235.452, 18.72485
1235.934, 18.89930
1236.416, 18.74496
1236.898, 18.38886
1237.381, 18.01794
1237.863, 17.68485
1238.345, 17.67286
1238.827, 18.57235
1239.309, 19.00230
1239.791, 18.60758
1240.273, 17.94569
1240.755, 17.75485
1241.238, 17.83105
1241.720, 17.80206
1242.202, 17.64499
1242.684, 17.53811
1243.166, 17.56272
1243.648, 17.52924
1244.130, 17.37550
1244.612, 17.22262
1245.094, 17.28987
1245.577, 17.42750
1246.059, 17.37005
1246.541, 17.11453
1247.023, 16.99374
1247.505, 17.06835
1247.987, 17.20455
1248.469, 17.42090
1248.951, 17.52435
1249.433, 17.13211
1249.916, 16.58171
1250.398, 16.23228
1250.880, 16.13099
1251.362, 16.24350
1251.844, 16.63999
1252.326, 16.91763
1252.808, 16.99770
1253.290, 16.88860
1253.773, 16.40925
1254.255, 15.89178
1254.737, 15.68804
1255.219, 15.79610
1255.701, 15.89020
1256.183, 15.97980
1256.665, 15.94791
1257.147, 15.74234
1257.630, 15.55585
1258.112, 15.60933
1258.594, 15.72451
1259.076, 15.74061
1259.558, 15.68250
1260.040, 15.70392
1260.522, 15.80249
1261.004, 15.73848
1261.486, 15.41820
1261.969, 15.21460
1262.451, 15.59545
1262.933, 16.01055
1263.415, 16.10717
1263.897, 15.94664
1264.379, 15.64862
1264.861, 15.25136
1265.343, 15.06231
1265.825, 15.16321
1266.308, 15.35657
1266.790, 15.65684
1267.272, 15.87043
1267.754, 15.88710
1268.236, 15.77717
1268.718, 15.71678
1269.200, 15.68931
1269.682, 15.63869
1270.165, 15.55430
1270.647, 15.44253
1271.129, 15.24783
1271.611, 15.09092
1272.093, 14.96944
1272.575, 14.96075
1273.057, 15.38649
1273.539, 16.00251
1274.021, 16.19367
1274.504, 15.81388
1274.986, 15.60603
1275.468, 15.81550
1275.950, 15.97017
1276.432, 15.91994
1276.914, 15.77232
1277.396, 15.62874
1277.878, 15.53164
1278.360, 15.58339
1278.843, 15.80540
1279.325, 15.89306
1279.807, 15.80096
1280.289, 15.69000
1280.771, 15.59509
1281.253, 15.52579
1281.735, 15.52921
1282.217, 15.53843
##END=



