##NAMES=Andradite
##RRUFFID=R100138
##IDEAL CHEMISTRY=Ca_3_Fe^3+^_2_(SiO_4_)_3_
##LOCALITY=Madagascar
##OWNER=RRUFF
##SOURCE=William W. Pinch
##DESCRIPTION=Colorless cut gemstone
##STATUS=The identification of this mineral has been confirmed only by single crystal X-ray diffraction.
##URL=rruff.info/R100138
90.60547, 84.53813
91.08759, 88.90007
91.56970, 91.92556
92.05182, 91.24456
92.53394, 88.41272
93.01605, 84.84826
93.49817, 81.06326
93.98029, 77.24897
94.46240, 73.82469
94.94452, 70.85440
95.42664, 68.27922
95.90874, 66.15172
96.39086, 64.43368
96.87298, 62.91240
97.35509, 61.44865
97.83721, 60.21753
98.31933, 58.25480
98.80145, 54.80156
99.28356, 51.18537
99.76568, 48.28893
100.2478, 46.38951
100.7299, 45.19222
101.2120, 44.00842
101.6941, 42.40497
102.1763, 41.31149
102.6584, 41.21637
103.1405, 41.56243
103.6226, 41.53399
104.1047, 40.62436
104.5868, 38.99779
105.0690, 37.82988
105.5511, 37.46725
106.0332, 37.11837
106.5153, 36.37047
106.9974, 35.25612
107.4795, 34.10048
107.9617, 33.05652
108.4438, 32.16781
108.9259, 31.54689
109.4080, 31.47923
109.8901, 31.58945
110.3722, 31.28214
110.8544, 30.36872
111.3365, 29.48372
111.8186, 29.10462
112.3007, 29.05677
112.7828, 29.01237
113.2649, 28.69515
113.7471, 28.14201
114.2292, 27.87322
114.7113, 28.16241
115.1934, 28.50419
115.6755, 28.76262
116.1576, 28.90839
116.6397, 28.92828
117.1219, 28.78530
117.6040, 28.40808
118.0861, 28.07962
118.5682, 27.73164
119.0503, 27.46668
119.5324, 27.41960
120.0146, 27.58851
120.4967, 27.79601
120.9788, 27.74200
121.4609, 27.15298
121.9430, 26.68788
122.4251, 26.40008
122.9073, 26.21705
123.3894, 26.05154
123.8715, 25.86372
124.3536, 25.69449
124.8357, 25.68535
125.3178, 25.94510
125.8000, 26.10557
126.2821, 25.92766
126.7642, 25.50366
127.2463, 25.19037
127.7284, 25.19847
128.2105, 25.38720
128.6927, 25.48994
129.1748, 25.50376
129.6569, 25.42084
130.1390, 25.20111
130.6211, 24.82093
131.1032, 24.44668
131.5854, 24.07302
132.0675, 23.77011
132.5496, 23.66862
133.0317, 23.89902
133.5138, 24.24549
133.9959, 24.13477
134.4781, 23.12342
134.9602, 22.36402
135.4423, 22.27569
135.9244, 22.57284
136.4065, 22.88674
136.8886, 22.99237
137.3708, 22.90571
137.8529, 22.84272
138.3350, 22.81661
138.8171, 22.80230
139.2992, 22.82466
139.7813, 22.85760
140.2635, 22.85644
140.7456, 22.79040
141.2277, 22.66278
141.7098, 22.38928
142.1919, 21.78780
142.6740, 21.22166
143.1561, 20.89209
143.6383, 20.81030
144.1204, 20.84879
144.6025, 20.87683
145.0846, 20.88604
145.5667, 21.01433
146.0488, 21.51114
146.5310, 22.01934
147.0131, 22.10915
147.4952, 21.66303
147.9773, 21.01970
148.4594, 20.42973
148.9415, 19.89407
149.4237, 19.65246
149.9058, 19.97335
150.3879, 20.67083
150.8700, 21.23281
151.3521, 21.58059
151.8342, 21.75562
152.3164, 21.76814
152.7985, 21.64061
153.2806, 21.54591
153.7627, 21.66866
154.2448, 22.01593
154.7269, 22.22716
155.2091, 22.03081
155.6912, 21.85324
156.1733, 21.92900
156.6554, 22.26902
157.1375, 22.71454
157.6196, 23.05927
158.1018, 23.22327
158.5839, 23.52696
159.0660, 24.09062
159.5481, 24.70958
160.0302, 25.19726
160.5123, 25.53042
160.9945, 25.88784
161.4766, 26.58629
161.9587, 27.88234
162.4408, 29.18701
162.9229, 30.30374
163.4050, 31.50997
163.8871, 32.97615
164.3693, 34.77540
164.8514, 36.98319
165.3335, 39.81488
165.8156, 43.02576
166.2977, 47.18635
166.7798, 52.34478
167.2620, 58.51640
167.7441, 65.58525
168.2262, 73.39521
168.7083, 82.32873
169.1904, 93.34141
169.6725, 105.6531
170.1547, 120.4992
170.6368, 139.2113
171.1189, 161.0528
171.6010, 184.5688
172.0831, 212.6526
172.5652, 238.4798
173.0474, 251.9287
173.5295, 252.5529
174.0116, 241.9466
174.4937, 216.6746
174.9758, 176.7357
175.4579, 138.9276
175.9401, 109.8263
176.4222, 87.29082
176.9043, 69.67022
177.3864, 57.13155
177.8685, 48.20406
178.3506, 41.31726
178.8328, 36.75958
179.3149, 33.26424
179.7970, 30.76116
180.2791, 28.88267
180.7612, 27.46255
181.2433, 26.47356
181.7255, 25.74950
182.2076, 24.92873
182.6897, 23.93112
183.1718, 22.98346
183.6539, 22.02200
184.1360, 21.16343
184.6181, 20.56574
185.1003, 20.31482
185.5824, 20.31021
186.0645, 20.19762
186.5466, 19.86245
187.0287, 19.54984
187.5108, 19.30212
187.9930, 19.09388
188.4751, 18.88618
188.9572, 18.65666
189.4393, 18.41722
189.9214, 18.23921
190.4035, 18.20370
190.8857, 18.14013
191.3678, 17.99151
191.8499, 17.79583
192.3320, 17.62657
192.8141, 17.53381
193.2962, 17.50040
193.7784, 17.38725
194.2605, 17.13191
194.7426, 16.88409
195.2247, 16.66196
195.7068, 16.48207
196.1889, 16.39361
196.6711, 16.44870
197.1532, 16.61396
197.6353, 16.70557
198.1174, 16.67741
198.5995, 16.62681
199.0816, 16.62694
199.5638, 16.66450
200.0459, 16.64448
200.5280, 16.47800
201.0101, 16.22001
201.4922, 16.03692
201.9743, 15.90671
202.4565, 15.87968
202.9386, 16.08319
203.4207, 16.52737
203.9028, 16.85752
204.3849, 16.78692
204.8670, 16.50893
205.3492, 16.28441
205.8313, 16.13335
206.3134, 16.08634
206.7955, 16.23706
207.2776, 16.64230
207.7597, 16.98022
208.2419, 17.00654
208.7240, 16.92632
209.2061, 16.93953
209.6882, 17.12987
210.1703, 17.39935
210.6524, 17.57979
211.1346, 17.64410
211.6167, 17.68270
212.0988, 17.72184
212.5809, 17.75328
213.0630, 17.74167
213.5451, 17.65722
214.0273, 17.58643
214.5094, 17.75130
214.9915, 18.32919
215.4736, 18.82822
215.9557, 19.06739
216.4378, 19.22997
216.9200, 19.50388
217.4021, 19.97241
217.8842, 20.57591
218.3663, 21.14039
218.8484, 21.60076
219.3305, 22.11779
219.8127, 22.69544
220.2948, 23.34030
220.7769, 24.04547
221.2590, 24.80771
221.7411, 25.65336
222.2232, 26.66004
222.7054, 27.86250
223.1875, 29.21611
223.6696, 30.56591
224.1517, 32.11615
224.6338, 34.05134
225.1159, 36.45750
225.5980, 39.35171
226.0802, 42.81054
226.5623, 46.60086
227.0444, 51.27530
227.5265, 56.97782
228.0086, 63.56662
228.4907, 70.87752
228.9729, 78.85390
229.4550, 87.36154
229.9371, 95.92479
230.4192, 103.3856
230.9013, 112.6412
231.3834, 123.3682
231.8656, 136.3140
232.3477, 152.3568
232.8298, 171.7209
233.3119, 194.7316
233.7940, 223.8369
234.2761, 262.1951
234.7583, 297.4433
235.2404, 335.1478
235.7225, 366.4277
236.2046, 374.3936
236.6867, 351.2384
237.1688, 308.0750
237.6510, 259.1500
238.1331, 202.2666
238.6152, 152.6615
239.0973, 116.3150
239.5794, 90.75838
240.0615, 71.65979
240.5437, 58.75794
241.0258, 50.15040
241.5079, 43.78715
241.9900, 39.52296
242.4721, 36.06371
242.9542, 32.91199
243.4364, 30.17435
243.9185, 28.22004
244.4006, 27.34855
244.8827, 26.88293
245.3648, 26.13265
245.8469, 25.14048
246.3290, 24.22559
246.8112, 23.61486
247.2933, 23.21078
247.7754, 22.67922
248.2575, 21.89654
248.7396, 21.12644
249.2217, 20.51510
249.7039, 20.06173
250.1860, 19.79794
250.6681, 19.85691
251.1502, 20.13984
251.6323, 20.25815
252.1144, 20.08065
252.5966, 19.92585
253.0787, 19.97236
253.5608, 20.17695
254.0429, 20.44251
254.5250, 20.64235
255.0071, 20.85499
255.4893, 21.41778
255.9714, 22.48516
256.4535, 23.67825
256.9356, 24.72611
257.4177, 25.76916
257.8998, 27.01351
258.3820, 28.47134
258.8641, 30.25185
259.3462, 32.73440
259.8283, 35.94957
260.3104, 39.92920
260.7925, 44.45296
261.2747, 49.67332
261.7568, 55.82285
262.2389, 63.12197
262.7210, 71.29166
263.2031, 80.15238
263.6852, 92.59707
264.1674, 100.3426
264.6495, 101.8817
265.1316, 98.47353
265.6137, 90.47938
266.0958, 77.84425
266.5779, 62.80696
267.0601, 50.60682
267.5422, 41.94114
268.0243, 35.31734
268.5064, 30.72536
268.9885, 27.53166
269.4706, 25.41909
269.9528, 24.23983
270.4349, 23.66194
270.9170, 23.06939
271.3991, 22.40342
271.8812, 21.85533
272.3633, 21.45028
272.8455, 21.13708
273.3276, 20.89847
273.8097, 20.72130
274.2918, 20.57626
274.7739, 20.40907
275.2560, 20.15675
275.7382, 20.02557
276.2202, 20.06452
276.7024, 20.15976
277.1845, 20.24246
277.6666, 20.30237
278.1487, 20.37064
278.6308, 20.49006
279.1129, 20.68509
279.5951, 20.84502
280.0772, 20.98775
280.5593, 21.08865
281.0414, 21.07282
281.5235, 20.98098
282.0056, 20.95714
282.4878, 21.14883
282.9699, 21.59108
283.4520, 22.01183
283.9341, 22.37236
284.4162, 22.75360
284.8983, 23.21143
285.3805, 23.72163
285.8626, 24.21053
286.3447, 24.61415
286.8268, 24.93380
287.3089, 25.34870
287.7910, 25.85411
288.2732, 26.44786
288.7553, 27.16922
289.2374, 27.97605
289.7195, 28.74947
290.2016, 29.39724
290.6837, 29.99438
291.1659, 31.00622
291.6480, 32.85786
292.1301, 34.61639
292.6122, 35.97274
293.0943, 37.18547
293.5764, 38.69067
294.0586, 40.70823
294.5407, 42.97114
295.0228, 44.76375
295.5049, 46.04810
295.9870, 46.85575
296.4691, 47.03804
296.9513, 46.80701
297.4334, 46.29662
297.9155, 45.56660
298.3976, 44.76353
298.8797, 44.11995
299.3618, 43.57354
299.8440, 43.37494
300.3261, 43.39564
300.8082, 43.83134
301.2903, 44.78629
301.7724, 46.30210
302.2545, 48.44749
302.7367, 51.30627
303.2188, 54.91088
303.7009, 59.37489
304.1830, 64.35103
304.6651, 70.37150
305.1472, 77.56664
305.6294, 86.05669
306.1115, 96.12789
306.5936, 107.9881
307.0757, 121.7323
307.5578, 137.4059
308.0399, 154.6515
308.5221, 173.7607
309.0042, 195.7124
309.4863, 219.7289
309.9684, 244.6163
310.4505, 270.4034
310.9326, 295.7586
311.4148, 309.8680
311.8969, 314.3358
312.3790, 307.9735
312.8611, 285.4239
313.3432, 252.7041
313.8253, 217.5933
314.3075, 183.3049
314.7896, 151.5013
315.2717, 126.5301
315.7538, 110.9963
316.2359, 98.57633
316.7180, 89.41895
317.2001, 82.88130
317.6823, 78.48608
318.1644, 76.04357
318.6465, 75.24383
319.1286, 75.63927
319.6107, 77.40934
320.0928, 80.29963
320.5750, 84.11945
321.0571, 89.14975
321.5392, 95.93891
322.0213, 104.3609
322.5034, 113.7250
322.9855, 123.6677
323.4677, 134.7509
323.9498, 141.8430
324.4319, 145.9518
324.9140, 145.9141
325.3961, 139.8036
325.8782, 128.8179
326.3604, 115.9214
326.8425, 102.8017
327.3246, 89.69949
327.8067, 79.20256
328.2888, 71.85986
328.7709, 66.05026
329.2531, 61.74864
329.7352, 58.68074
330.2173, 56.54603
330.6994, 55.22242
331.1815, 54.57905
331.6636, 54.26778
332.1458, 54.42409
332.6279, 54.77910
333.1100, 55.35363
333.5921, 56.10698
334.0742, 56.98857
334.5563, 57.98325
335.0385, 59.15383
335.5206, 60.58686
336.0027, 62.36043
336.4848, 64.24958
336.9669, 66.07215
337.4490, 68.14960
337.9312, 70.63920
338.4133, 73.58627
338.8954, 76.95968
339.3775, 80.68928
339.8596, 84.73935
340.3417, 89.75111
340.8239, 95.74104
341.3060, 102.4963
341.7881, 109.7460
342.2702, 117.7298
342.7523, 126.6986
343.2344, 136.6832
343.7166, 147.9633
344.1987, 161.8401
344.6808, 178.7502
345.1629, 198.2084
345.6450, 219.4507
346.1271, 243.4247
346.6093, 271.0648
347.0914, 302.5424
347.5735, 338.0726
348.0556, 377.6592
348.5377, 423.6683
349.0198, 470.1299
349.5020, 520.6241
349.9841, 568.9471
350.4662, 614.4758
350.9483, 654.6920
351.4304, 682.7362
351.9125, 690.9000
352.3947, 678.2726
352.8768, 651.4108
353.3589, 598.4869
353.8410, 543.3434
354.3231, 490.0999
354.8052, 441.2675
355.2874, 399.2181
355.7695, 365.6914
356.2516, 340.5614
356.7337, 322.4941
357.2158, 313.5181
357.6979, 309.8258
358.1800, 311.5515
358.6621, 317.3706
359.1443, 325.8090
359.6264, 336.3398
360.1085, 349.5805
360.5906, 366.3871
361.0727, 385.8828
361.5548, 411.6962
362.0370, 442.9095
362.5191, 480.8550
363.0012, 525.7350
363.4833, 578.2951
363.9654, 639.5404
364.4475, 711.0067
364.9297, 792.8773
365.4118, 881.8876
365.8939, 977.8322
366.3760, 1082.232
366.8581, 1199.466
367.3402, 1324.687
367.8224, 1450.940
368.3045, 1579.489
368.7866, 1700.988
369.2687, 1789.519
369.7508, 1847.036
370.2329, 1863.546
370.7151, 1828.307
371.1972, 1758.109
371.6793, 1662.980
372.1614, 1544.857
372.6435, 1413.437
373.1256, 1275.746
373.6078, 1130.688
374.0899, 998.4949
374.5720, 884.3416
375.0541, 785.0554
375.5362, 698.2570
376.0183, 623.2460
376.5005, 558.6586
376.9826, 504.8890
377.4647, 460.7993
377.9468, 421.9962
378.4289, 388.5940
378.9110, 359.8741
379.3932, 336.0705
379.8753, 316.2841
380.3574, 299.5228
380.8395, 286.5458
381.3216, 275.4539
381.8037, 264.8595
382.2859, 254.7962
382.7680, 242.7142
383.2501, 226.6263
383.7322, 208.3186
384.2143, 190.4280
384.6964, 172.8512
385.1786, 156.5694
385.6607, 142.1728
386.1428, 129.6469
386.6249, 119.0308
387.1070, 110.5974
387.5891, 103.4665
388.0713, 96.66176
388.5534, 90.17008
389.0355, 84.63835
389.5176, 80.56312
389.9997, 77.28056
390.4818, 74.15168
390.9640, 71.13490
391.4461, 68.54919
391.9282, 66.74740
392.4103, 65.55294
392.8924, 63.94874
393.3745, 61.48775
393.8567, 59.13993
394.3388, 57.40322
394.8209, 56.03566
395.3030, 54.54678
395.7851, 52.71544
396.2672, 50.83294
396.7494, 49.42268
397.2315, 48.76205
397.7136, 47.93458
398.1957, 46.76068
398.6778, 45.49184
399.1599, 44.25991
399.6420, 43.11546
400.1241, 42.16036
400.6063, 41.51238
401.0884, 41.18105
401.5705, 40.75322
402.0526, 40.22033
402.5347, 39.61715
403.0168, 38.86926
403.4990, 38.07447
403.9811, 37.38830
404.4632, 36.88810
404.9453, 36.52574
405.4274, 36.20306
405.9095, 36.05982
406.3917, 35.71014
406.8738, 34.95601
407.3559, 34.15199
407.8380, 33.58217
408.3201, 33.25533
408.8022, 32.94859
409.2844, 32.41172
409.7665, 31.62424
410.2486, 30.96749
410.7307, 30.53387
411.2128, 30.14184
411.6949, 29.73366
412.1771, 29.33219
412.6592, 28.98448
413.1413, 28.72030
413.6234, 28.49972
414.1055, 28.24142
414.5876, 27.94188
415.0698, 27.61047
415.5519, 27.16055
416.0340, 26.74084
416.5161, 26.48801
416.9982, 26.40658
417.4803, 26.34087
417.9625, 26.13846
418.4446, 25.82492
418.9267, 25.57909
419.4088, 25.45307
419.8909, 25.32496
420.3730, 25.12013
420.8552, 24.85795
421.3373, 24.56738
421.8194, 24.20187
422.3015, 23.87032
422.7836, 23.74636
423.2657, 23.82718
423.7479, 23.86560
424.2300, 23.73499
424.7121, 23.53540
425.1942, 23.40003
425.6763, 23.31349
426.1584, 23.35817
426.6406, 23.71008
427.1227, 24.17691
427.6048, 24.41433
428.0869, 24.35822
428.5690, 24.19008
429.0511, 24.05398
429.5333, 23.95241
430.0154, 23.86956
430.4975, 23.80393
430.9796, 23.75823
431.4617, 23.72262
431.9438, 23.70764
432.4260, 23.75440
432.9081, 23.89120
433.3902, 24.06433
433.8723, 24.14455
434.3544, 24.06254
434.8365, 23.99769
435.3187, 23.88540
435.8008, 23.83873
436.2829, 23.97974
436.7650, 24.30293
437.2471, 24.68857
437.7292, 25.02238
438.2114, 25.30270
438.6935, 25.64959
439.1756, 26.02860
439.6577, 26.51711
440.1398, 27.15693
440.6219, 27.90959
441.1040, 28.72043
441.5862, 29.56330
442.0683, 30.45810
442.5504, 31.40008
443.0325, 32.31536
443.5146, 33.51921
443.9967, 35.19175
444.4789, 37.03128
444.9610, 38.78352
445.4431, 40.52674
445.9252, 42.61285
446.4073, 45.28463
446.8894, 48.48291
447.3716, 52.04208
447.8537, 56.10075
448.3358, 60.16765
448.8179, 63.91056
449.3000, 67.61810
449.7821, 71.84763
450.2643, 76.94062
450.7464, 81.47523
451.2285, 84.49828
451.7106, 85.99075
452.1927, 85.64136
452.6748, 83.17648
453.1570, 79.29772
453.6391, 74.12879
454.1212, 67.95571
454.6033, 61.99356
455.0854, 56.38548
455.5675, 51.23724
456.0497, 46.59274
456.5318, 42.47719
457.0139, 38.92021
457.4960, 35.95917
457.9781, 33.54450
458.4602, 31.58309
458.9424, 30.09505
459.4245, 28.90685
459.9066, 28.21094
460.3887, 27.68309
460.8708, 26.94448
461.3529, 25.96529
461.8351, 25.03644
462.3172, 24.43731
462.7993, 24.18283
463.2814, 23.90611
463.7635, 23.51907
464.2456, 23.21176
464.7278, 23.05889
465.2099, 23.00346
465.6920, 22.97110
466.1741, 22.93173
466.6562, 22.89520
467.1383, 22.87153
467.6205, 22.84637
468.1026, 22.87947
468.5847, 22.97717
469.0668, 23.13134
469.5489, 23.38675
470.0310, 23.70108
470.5132, 23.96593
470.9953, 24.10122
471.4774, 24.15637
471.9595, 24.26035
472.4416, 24.42711
472.9237, 24.59084
473.4059, 24.73465
473.8880, 24.85994
474.3701, 24.91830
474.8522, 24.89648
475.3343, 25.01114
475.8164, 25.38840
476.2986, 26.00677
476.7807, 26.90080
477.2628, 28.13330
477.7449, 29.29581
478.2270, 29.98625
478.7091, 30.34047
479.1913, 30.93792
479.6734, 31.83549
480.1555, 32.94811
480.6376, 34.29049
481.1197, 35.81074
481.6018, 37.39756
482.0839, 39.01246
482.5660, 40.70234
483.0482, 42.51291
483.5303, 44.37410
484.0124, 46.69450
484.4945, 49.49252
484.9766, 52.69081
485.4587, 56.08149
485.9409, 59.85729
486.4230, 64.45843
486.9051, 70.16291
487.3872, 76.78095
487.8693, 83.70776
488.3514, 91.00111
488.8336, 98.63901
489.3157, 106.6357
489.7978, 114.8887
490.2799, 123.7587
490.7620, 132.9405
491.2441, 141.3634
491.7263, 148.5432
492.2084, 154.2072
492.6905, 156.9858
493.1726, 156.6599
493.6547, 153.9509
494.1368, 148.1808
494.6190, 140.6525
495.1011, 132.2378
495.5832, 122.9655
496.0653, 113.8676
496.5474, 105.6296
497.0295, 98.23742
497.5117, 91.67940
497.9938, 85.91927
498.4759, 81.12516
498.9580, 77.54011
499.4401, 75.08919
499.9222, 73.15650
500.4044, 71.64915
500.8865, 70.70262
501.3686, 70.39026
501.8507, 70.68076
502.3328, 71.47584
502.8149, 72.73743
503.2971, 74.56908
503.7792, 77.05595
504.2613, 80.10495
504.7434, 84.44950
505.2255, 90.30495
505.7076, 97.07887
506.1898, 104.0572
506.6719, 111.7940
507.1540, 121.1628
507.6361, 132.5917
508.1182, 146.3094
508.6003, 162.6355
509.0825, 181.3358
509.5646, 203.3755
510.0467, 228.7317
510.5288, 257.4827
511.0109, 290.5761
511.4930, 327.4568
511.9752, 366.4226
512.4573, 407.3614
512.9394, 449.1278
513.4215, 490.8637
513.9036, 533.9472
514.3857, 569.5970
514.8679, 597.3322
515.3500, 613.0053
515.8321, 612.8846
516.3142, 596.3763
516.7963, 568.8104
517.2784, 527.1442
517.7606, 478.1230
518.2427, 429.3686
518.7248, 381.8855
519.2069, 337.6801
519.6890, 298.0102
520.1711, 262.6131
520.6533, 231.7971
521.1354, 205.4774
521.6175, 182.7496
522.0996, 164.3249
522.5817, 149.0142
523.0638, 136.1969
523.5460, 125.5722
524.0281, 116.4349
524.5102, 108.2304
524.9923, 100.9789
525.4744, 94.48377
525.9565, 89.01237
526.4387, 84.09645
526.9208, 79.69905
527.4029, 75.72086
527.8850, 72.07478
528.3671, 68.73804
528.8492, 65.77083
529.3314, 63.28269
529.8135, 61.25238
530.2956, 59.43649
530.7777, 57.84499
531.2598, 56.43480
531.7419, 55.30834
532.2241, 54.32158
532.7062, 53.19429
533.1883, 51.73790
533.6704, 50.42365
534.1525, 49.67533
534.6346, 49.29600
535.1168, 48.77635
535.5989, 47.98498
536.0810, 47.23526
536.5631, 46.88716
537.0452, 46.96361
537.5273, 46.82058
538.0095, 46.28767
538.4916, 45.74613
538.9737, 45.25645
539.4558, 44.87156
539.9379, 44.67113
540.4200, 44.67591
540.9022, 44.81144
541.3843, 44.97118
541.8664, 45.13802
542.3485, 45.42561
542.8306, 45.76963
543.3127, 46.31997
543.7948, 47.19641
544.2769, 48.28758
544.7590, 49.42657
545.2411, 50.55426
545.7233, 51.71577
546.2054, 52.77332
546.6875, 53.78170
547.1696, 55.58292
547.6517, 58.58421
548.1339, 61.85627
548.6160, 64.60964
549.0981, 67.00156
549.5802, 69.50117
550.0623, 72.29778
550.5444, 75.09706
551.0266, 78.02396
551.5087, 80.79356
551.9908, 82.88337
552.4729, 84.15328
552.9550, 84.36101
553.4371, 83.15466
553.9193, 80.37772
554.4014, 76.96384
554.8835, 72.67255
555.3656, 68.11549
555.8477, 63.17630
556.3298, 58.19389
556.8120, 53.63249
557.2941, 49.64458
557.7762, 46.22369
558.2583, 43.34638
558.7404, 41.03855
559.2225, 39.20411
559.7047, 38.18635
560.1868, 37.22525
560.6689, 35.90699
561.1510, 34.41220
561.6331, 33.00490
562.1152, 31.72197
562.5974, 30.67984
563.0795, 30.13821
563.5616, 29.94864
564.0437, 29.50144
564.5258, 28.60182
565.0079, 27.77471
565.4901, 27.54620
565.9722, 27.89789
566.4543, 28.10693
566.9364, 28.02951
567.4185, 27.97536
567.9006, 28.06463
568.3828, 28.24801
568.8649, 28.47481
569.3470, 28.72214
569.8291, 28.94078
570.3112, 29.02291
570.7933, 28.93845
571.2755, 29.28367
571.7576, 30.52516
572.2397, 31.62137
572.7218, 32.12009
573.2039, 32.45189
573.6860, 33.17159
574.1682, 34.40924
574.6503, 35.67736
575.1324, 36.74537
575.6145, 37.49852
576.0966, 37.29132
576.5787, 35.89413
577.0609, 34.28001
577.5430, 32.96909
578.0251, 31.88149
578.5072, 30.81949
578.9893, 29.80904
579.4714, 28.75733
579.9536, 27.57396
580.4357, 26.35983
580.9178, 25.15701
581.3999, 24.01273
581.8820, 23.09723
582.3641, 22.55096
582.8463, 22.33769
583.3284, 22.24721
583.8105, 22.48579
584.2926, 22.54368
584.7747, 22.23667
585.2568, 21.85578
585.7390, 21.62939
586.2211, 21.55615
586.7032, 21.48822
587.1853, 21.31811
587.6674, 21.07951
588.1495, 20.85198
588.6317, 20.62772
589.1138, 20.46368
589.5959, 20.39536
590.0780, 20.38072
590.5601, 20.36412
591.0422, 20.34566
591.5244, 20.36106
592.0065, 20.47953
592.4886, 20.59076
592.9707, 20.62165
593.4528, 20.56076
593.9349, 20.35156
594.4171, 19.95461
594.8992, 19.51370
595.3813, 19.29971
595.8634, 19.46289
596.3455, 19.40257
596.8276, 18.94818
597.3098, 18.48262
597.7919, 18.09051
598.2740, 17.81605
598.7561, 17.73877
599.2382, 17.89828
599.7203, 18.12975
600.2025, 18.21423
600.6846, 18.15550
601.1667, 18.08101
601.6488, 18.00413
602.1309, 17.91112
602.6130, 17.74294
603.0952, 17.55870
603.5773, 17.50460
604.0594, 17.70142
604.5415, 17.83551
605.0236, 17.67360
605.5057, 17.37553
605.9879, 17.22349
606.4700, 17.24658
606.9521, 17.20627
607.4342, 16.87671
607.9163, 16.32014
608.3984, 16.00826
608.8806, 16.10358
609.3627, 16.23663
609.8448, 16.45112
610.3269, 16.63476
610.8090, 16.71017
611.2911, 16.66980
611.7733, 16.53434
612.2554, 16.28937
612.7375, 15.98481
613.2196, 15.70321
613.7017, 15.43173
614.1838, 15.33892
614.6660, 15.62880
615.1481, 15.93193
615.6302, 15.67533
616.1123, 14.90855
616.5944, 14.49483
617.0765, 14.93679
617.5587, 15.47609
618.0408, 15.62296
618.5229, 15.47227
619.0050, 15.24044
619.4871, 15.00671
619.9692, 14.79765
620.4514, 14.64278
620.9335, 14.53528
621.4156, 14.53270
621.8977, 14.79496
622.3798, 14.97248
622.8619, 14.94308
623.3441, 14.79952
623.8262, 14.61059
624.3083, 14.39893
624.7904, 14.26869
625.2725, 14.38157
625.7546, 14.63670
626.2367, 14.73951
626.7188, 14.66417
627.2009, 14.56432
627.6830, 14.48724
628.1652, 14.46119
628.6473, 14.59718
629.1294, 15.00576
629.6115, 15.20025
630.0936, 14.94598
630.5757, 14.59511
631.0579, 14.38870
631.5400, 14.30542
632.0221, 14.19575
632.5042, 13.97978
632.9863, 13.79566
633.4684, 13.99062
633.9506, 14.72159
634.4327, 15.03190
634.9148, 14.50829
635.3969, 14.01795
635.8790, 14.06488
636.3611, 14.41053
636.8433, 14.66506
637.3254, 14.75568
637.8075, 14.66150
638.2896, 14.13674
638.7717, 13.48050
639.2538, 13.36672
639.7360, 13.87001
640.2181, 14.37915
640.7002, 14.44371
641.1823, 14.19267
641.6644, 14.15311
642.1465, 14.57224
642.6287, 14.86750
643.1108, 15.06561
643.5929, 15.11070
644.0750, 14.85080
644.5571, 14.40325
645.0392, 14.06568
645.5214, 14.00635
646.0035, 14.13202
646.4856, 14.36122
646.9677, 14.69277
647.4498, 14.80155
647.9319, 14.54712
648.4141, 14.23191
648.8962, 14.11216
649.3783, 14.13833
649.8604, 14.12531
650.3425, 13.97241
650.8246, 13.89602
651.3068, 14.07801
651.7889, 14.33272
652.2710, 14.43118
652.7531, 14.34747
653.2352, 14.18673
653.7173, 14.02837
654.1995, 13.86343
654.6816, 13.63839
655.1637, 13.29262
655.6458, 13.03377
656.1279, 12.82423
656.6100, 12.77749
657.0922, 13.10526
657.5743, 13.67692
658.0564, 14.05726
658.5385, 14.03479
659.0206, 13.82138
659.5027, 13.51031
659.9849, 13.17225
660.4670, 13.02208
660.9491, 13.11256
661.4312, 13.31519
661.9133, 13.53914
662.3954, 13.77566
662.8776, 13.89546
663.3597, 13.79002
663.8418, 13.70826
664.3239, 13.71563
664.8060, 13.72394
665.2881, 13.62167
665.7703, 13.44067
666.2524, 13.33778
666.7345, 13.43757
667.2166, 13.63315
667.6987, 13.72236
668.1808, 13.70843
668.6630, 13.71753
669.1451, 13.79434
669.6272, 13.86357
670.1093, 13.83092
670.5914, 13.70945
671.0735, 13.66519
671.5557, 13.71580
672.0378, 13.82501
672.5199, 14.12072
673.0020, 14.38710
673.4841, 14.31743
673.9662, 13.93113
674.4484, 13.55155
674.9305, 13.43001
675.4126, 13.49766
675.8947, 13.51497
676.3768, 13.45202
676.8589, 13.48194
677.3411, 13.75441
677.8232, 13.99947
678.3053, 13.96015
678.7874, 13.71036
679.2695, 13.52026
679.7516, 13.52364
680.2338, 13.50986
680.7159, 13.25391
681.1980, 12.93944
681.6801, 12.92555
682.1622, 13.23392
682.6443, 13.49402
683.1265, 13.37987
683.6086, 12.99476
684.0907, 12.85321
684.5728, 13.08187
685.0549, 13.27714
685.5370, 13.39748
686.0192, 13.45822
686.5013, 13.43749
686.9834, 13.36201
687.4655, 13.30502
687.9476, 13.30795
688.4297, 13.31206
688.9119, 13.23944
689.3940, 13.13267
689.8761, 13.11941
690.3582, 13.21811
690.8403, 13.26914
691.3224, 13.13021
691.8046, 12.85825
692.2867, 12.72436
692.7688, 12.84252
693.2509, 12.91885
693.7330, 12.85123
694.2151, 12.82383
694.6973, 13.03439
695.1794, 13.36874
695.6615, 13.52699
696.1436, 13.34515
696.6257, 13.07005
697.1078, 12.96847
697.5900, 12.99981
698.0721, 13.01641
698.5542, 12.99519
699.0363, 13.00778
699.5184, 13.12850
700.0005, 13.30115
700.4827, 13.32069
700.9648, 12.94381
701.4469, 12.81597
701.9290, 13.25117
702.4111, 13.64958
702.8932, 13.53167
703.3754, 13.12214
703.8575, 12.94422
704.3396, 13.22516
704.8217, 13.63824
705.3038, 13.83531
705.7859, 13.83047
706.2681, 13.61894
706.7502, 13.15134
707.2323, 12.83994
707.7144, 12.95905
708.1965, 13.34256
708.6786, 13.63060
709.1607, 13.85208
709.6428, 13.90228
710.1249, 13.62117
710.6071, 13.31963
711.0892, 13.13730
711.5713, 13.06896
712.0534, 13.12116
712.5355, 13.28689
713.0176, 13.43123
713.4998, 13.36695
713.9819, 13.14060
714.4640, 13.01519
714.9461, 13.01182
715.4282, 12.98705
715.9103, 12.83972
716.3925, 12.68630
716.8746, 12.74512
717.3567, 13.05056
717.8388, 13.23883
718.3209, 13.15300
718.8030, 13.08170
719.2852, 13.18069
719.7673, 13.36805
720.2494, 13.58418
720.7315, 13.78205
721.2136, 13.81195
721.6957, 13.44865
722.1779, 12.84881
722.6600, 12.60809
723.1421, 12.76538
723.6242, 12.93399
724.1063, 13.01853
724.5884, 13.05406
725.0706, 13.06810
725.5527, 13.06195
726.0348, 13.05223
726.5169, 13.08987
726.9990, 13.06251
727.4811, 12.81032
727.9633, 12.55107
728.4454, 12.54883
728.9275, 12.79505
729.4096, 13.09650
729.8917, 13.34376
730.3738, 13.50678
730.8560, 13.47185
731.3381, 13.23048
731.8202, 13.10574
732.3023, 13.17609
732.7844, 13.30722
733.2665, 13.43440
733.7487, 13.54102
734.2308, 13.57041
734.7129, 13.47251
735.1950, 13.39278
735.6771, 13.33102
736.1592, 13.32276
736.6414, 13.46667
737.1235, 13.68079
737.6056, 13.74595
738.0877, 13.55939
738.5698, 13.32082
739.0519, 13.33397
739.5341, 13.56582
740.0162, 13.72689
740.4983, 13.80577
740.9804, 13.79121
741.4625, 13.63411
741.9446, 13.41694
742.4268, 13.27503
742.9089, 13.19237
743.3910, 13.24635
743.8731, 13.64953
744.3552, 13.96763
744.8373, 13.88050
745.3195, 13.62739
745.8016, 13.56008
746.2837, 13.75158
746.7658, 14.01196
747.2479, 14.22196
747.7300, 14.35001
748.2122, 14.25845
748.6943, 13.94293
749.1764, 13.68579
749.6585, 13.56180
750.1406, 13.53530
750.6227, 13.59395
751.1049, 13.73406
751.5870, 13.82621
752.0691, 13.86161
752.5512, 13.86532
753.0333, 13.87414
753.5154, 13.82759
753.9976, 13.59470
754.4797, 13.25636
754.9618, 13.06238
755.4439, 13.15571
755.9260, 13.38918
756.4081, 13.63022
756.8903, 13.85256
757.3724, 13.91315
757.8545, 13.78605
758.3366, 13.64865
758.8187, 13.59363
759.3008, 13.62540
759.7830, 13.77219
760.2651, 14.18424
760.7472, 14.35064
761.2293, 14.06847
761.7114, 13.78478
762.1935, 13.63710
762.6757, 13.61672
763.1578, 13.72741
763.6399, 13.96323
764.1220, 14.20304
764.6041, 14.30101
765.0862, 14.38457
765.5684, 14.73167
766.0505, 15.26761
766.5326, 15.58407
767.0147, 15.54375
767.4968, 15.38346
767.9789, 15.35110
768.4611, 15.44469
768.9432, 15.62625
769.4253, 16.00174
769.9074, 16.28384
770.3895, 16.36957
770.8716, 16.40460
771.3538, 16.46259
771.8359, 16.54966
772.3180, 16.65489
772.8001, 16.73588
773.2822, 16.91399
773.7643, 17.40154
774.2465, 17.97169
774.7286, 18.25849
775.2107, 18.27112
775.6928, 18.27249
776.1749, 18.41117
776.6570, 18.60340
777.1392, 18.64986
777.6213, 18.50086
778.1034, 18.59443
778.5855, 19.09441
779.0676, 19.52607
779.5497, 19.67232
780.0319, 19.63920
780.5140, 19.49435
780.9961, 19.21968
781.4782, 19.15797
781.9603, 19.53987
782.4424, 19.99835
782.9246, 20.39620
783.4067, 20.70290
783.8888, 20.81981
784.3709, 20.77548
784.8530, 20.79835
785.3351, 21.06539
785.8173, 21.53257
786.2994, 22.14112
786.7815, 22.88924
787.2636, 23.52371
787.7457, 23.95494
788.2278, 24.40948
788.7100, 25.06318
789.1921, 25.87173
789.6742, 26.64766
790.1563, 27.35189
790.6384, 28.10238
791.1205, 28.84810
791.6026, 29.69972
792.0847, 30.80560
792.5668, 32.03280
793.0490, 33.18554
793.5311, 34.20223
794.0132, 35.12688
794.4953, 35.89057
794.9774, 36.63756
795.4595, 37.56602
795.9417, 38.70144
796.4238, 40.16058
796.9059, 41.99968
797.3880, 43.95874
797.8701, 45.74117
798.3522, 47.37416
798.8344, 49.13288
799.3165, 50.97699
799.7986, 53.03436
800.2807, 55.35696
800.7628, 57.87040
801.2449, 60.60462
801.7271, 63.48319
802.2092, 66.19247
802.6913, 68.30637
803.1734, 71.11662
803.6555, 75.48919
804.1376, 80.71872
804.6198, 86.04673
805.1019, 91.51407
805.5840, 97.42046
806.0661, 103.8745
806.5482, 111.2801
807.0303, 120.1634
807.5125, 130.4805
807.9946, 141.6543
808.4767, 153.6949
808.9588, 166.8428
809.4409, 181.2302
809.9230, 196.5684
810.4052, 212.4870
810.8873, 229.0085
811.3694, 246.5469
811.8515, 265.6018
812.3336, 284.8760
812.8157, 305.9994
813.2979, 325.6240
813.7800, 342.0143
814.2621, 354.3334
814.7442, 361.3327
815.2263, 362.3414
815.7084, 358.6816
816.1906, 351.1821
816.6727, 340.0605
817.1548, 325.1398
817.6369, 306.7551
818.1190, 286.6454
818.6011, 265.4410
819.0833, 244.2024
819.5654, 224.2853
820.0475, 205.6321
820.5296, 189.2328
821.0117, 175.3459
821.4938, 162.9280
821.9760, 151.8052
822.4581, 142.0718
822.9402, 134.0135
823.4223, 127.4661
823.9044, 121.7475
824.3865, 116.7440
824.8687, 112.5763
825.3508, 109.3529
825.8329, 106.9155
826.3150, 105.2196
826.7971, 104.1755
827.2792, 103.5809
827.7614, 103.3418
828.2435, 103.6775
828.7256, 105.0528
829.2077, 107.2283
829.6898, 109.1807
830.1719, 110.8745
830.6541, 113.0362
831.1362, 115.8133
831.6183, 119.6347
832.1004, 125.2461
832.5825, 132.5847
833.0646, 139.3504
833.5468, 144.1665
834.0289, 150.5193
834.5110, 159.2696
834.9931, 169.0929
835.4752, 179.2706
835.9573, 189.9023
836.4395, 201.4606
836.9216, 214.1557
837.4037, 227.4600
837.8858, 242.1609
838.3679, 256.5905
838.8500, 269.3345
839.3322, 280.2952
839.8143, 289.8341
840.2964, 297.9904
840.7785, 303.9878
841.2606, 307.1865
841.7427, 307.3675
842.2249, 303.2532
842.7070, 294.7802
843.1891, 283.9316
843.6712, 270.7805
844.1533, 256.8514
844.6354, 243.4496
845.1176, 230.4266
845.5997, 217.1254
846.0818, 202.3776
846.5639, 189.3410
847.0460, 178.7300
847.5281, 168.9568
848.0103, 158.9351
848.4924, 149.3700
848.9745, 141.4141
849.4566, 135.2930
849.9387, 129.9763
850.4208, 124.9722
850.9030, 120.4689
851.3851, 116.6217
851.8672, 113.3687
852.3493, 110.6729
852.8314, 108.4834
853.3135, 106.4717
853.7957, 104.3431
854.2778, 102.4702
854.7599, 101.8225
855.2420, 102.3769
855.7241, 103.0847
856.2062, 103.7928
856.6884, 104.8758
857.1705, 106.5741
857.6526, 108.6998
858.1347, 110.8540
858.6168, 112.8287
859.0989, 115.7703
859.5811, 119.9943
860.0632, 124.7417
860.5453, 129.9090
861.0274, 135.4997
861.5095, 141.2388
861.9916, 147.3716
862.4738, 154.7490
862.9559, 163.6024
863.4380, 174.0332
863.9201, 186.3659
864.4022, 200.1178
864.8843, 213.8880
865.3665, 228.4996
865.8486, 246.1027
866.3307, 267.5953
866.8128, 292.5162
867.2949, 320.3706
867.7770, 351.0013
868.2592, 383.7945
868.7413, 418.6826
869.2234, 457.5277
869.7055, 501.3759
870.1876, 547.9880
870.6697, 595.9227
871.1519, 644.2726
871.6340, 687.8617
872.1161, 730.8793
872.5981, 761.0274
873.0803, 779.2412
873.5624, 782.1936
874.0445, 766.7084
874.5266, 735.7011
875.0087, 690.3573
875.4908, 630.3561
875.9730, 569.3502
876.4551, 510.0517
876.9372, 453.6586
877.4193, 399.5186
877.9014, 349.5606
878.3835, 306.3767
878.8657, 270.0045
879.3478, 238.5193
879.8299, 210.9405
880.3120, 187.1349
880.7941, 167.4229
881.2762, 151.1920
881.7584, 136.8176
882.2405, 124.1183
882.7226, 112.9221
883.2047, 103.2327
883.6868, 94.75352
884.1689, 87.14722
884.6511, 80.40029
885.1332, 74.64760
885.6153, 70.10044
886.0974, 65.94827
886.5795, 61.96656
887.0616, 58.40381
887.5438, 55.56765
888.0259, 53.27331
888.5080, 50.91632
888.9901, 48.32798
889.4722, 46.05309
889.9543, 44.29138
890.4365, 42.71502
890.9186, 41.18821
891.4007, 39.72735
891.8828, 38.36040
892.3649, 37.09472
892.8470, 35.99923
893.3292, 35.29013
893.8113, 34.53988
894.2934, 33.18633
894.7755, 31.57549
895.2576, 30.29957
895.7397, 29.41373
896.2219, 28.71038
896.7040, 28.08660
897.1861, 27.56705
897.6682, 27.26013
898.1503, 27.12105
898.6324, 26.71553
899.1146, 26.01500
899.5967, 25.51655
900.0788, 25.42588
900.5609, 25.37668
901.0430, 24.99191
901.5251, 24.33768
902.0073, 23.83077
902.4894, 23.54832
902.9715, 23.25135
903.4536, 22.95651
903.9357, 22.61078
904.4178, 22.03832
904.9000, 21.47916
905.3821, 21.35257
905.8642, 21.71981
906.3463, 21.89071
906.8284, 21.50080
907.3105, 21.11961
907.7927, 21.05911
908.2748, 21.10315
908.7569, 21.05150
909.2390, 20.88311
909.7211, 20.60975
910.2032, 20.20786
910.6854, 19.88367
911.1675, 20.01406
911.6496, 20.23856
912.1317, 19.83158
912.6138, 18.97314
913.0959, 18.39183
913.5781, 18.29937
914.0602, 18.36729
914.5423, 18.31110
915.0244, 18.14508
915.5065, 17.91500
915.9886, 17.62056
916.4708, 17.17917
916.9529, 16.52351
917.4350, 16.03710
917.9171, 15.98561
918.3992, 16.11548
918.8813, 15.95794
919.3635, 15.44599
919.8456, 15.16123
920.3277, 15.27450
920.8098, 15.33421
921.2919, 15.15078
921.7740, 14.96848
922.2562, 14.97604
922.7383, 15.12205
923.2204, 15.26138
923.7025, 15.43145
924.1846, 15.45351
924.6667, 15.18571
925.1489, 14.85951
925.6310, 14.54675
926.1131, 14.29944
926.5952, 14.19091
927.0773, 14.21812
927.5594, 14.29639
928.0416, 14.45254
928.5237, 14.51975
929.0058, 14.24471
929.4879, 13.83378
929.9700, 13.62416
930.4521, 13.60094
930.9343, 13.57347
931.4164, 13.46088
931.8985, 13.32551
932.3806, 13.26649
932.8627, 13.23302
933.3448, 13.01225
933.8270, 12.62930
934.3091, 12.36628
934.7912, 12.28784
935.2733, 12.28760
935.7554, 12.29782
936.2375, 12.31733
936.7197, 12.34106
937.2018, 12.36532
937.6839, 12.41062
938.1660, 12.45830
938.6481, 12.58653
939.1302, 12.92026
939.6124, 13.22257
940.0945, 13.21269
940.5766, 12.92936
941.0587, 12.73730
941.5408, 12.65623
942.0229, 12.63100
942.5051, 12.67364
942.9872, 12.75541
943.4693, 12.94202
943.9514, 13.11763
944.4335, 13.05583
944.9156, 12.74795
945.3978, 12.62747
945.8799, 13.09956
946.3620, 13.48039
946.8441, 13.31771
947.3262, 12.96873
947.8083, 12.71947
948.2905, 12.62442
948.7726, 12.73801
949.2547, 13.08363
949.7368, 13.38924
950.2189, 13.36717
950.7010, 13.22031
951.1832, 13.25188
951.6653, 13.37616
952.1474, 13.34669
952.6295, 13.14298
953.1116, 12.95342
953.5938, 12.89514
954.0759, 12.93835
954.5580, 13.08357
955.0400, 13.29430
955.5222, 13.36354
956.0043, 13.28672
956.4864, 13.15715
956.9685, 12.99286
957.4506, 12.91299
957.9327, 13.06493
958.4149, 12.94740
958.8970, 12.92054
959.3791, 13.01355
959.8612, 12.87226
960.3433, 13.07160
960.8254, 13.27501
961.3076, 13.31940
961.7897, 13.30080
962.2718, 13.35949
962.7539, 13.37338
963.2360, 13.36142
963.7181, 13.43143
964.2003, 13.36316
964.6824, 13.39885
965.1645, 13.45764
965.6466, 13.46880
966.1287, 13.48583
966.6108, 13.64729
967.0930, 13.99623
967.5751, 14.15664
968.0572, 13.77100
968.5393, 13.53402
969.0214, 13.85375
969.5035, 14.33393
969.9857, 14.65134
970.4678, 14.80292
970.9499, 14.85906
971.4320, 14.82008
971.9141, 14.85636
972.3962, 15.22664
972.8784, 15.56123
973.3605, 15.40822
973.8426, 15.05849
974.3247, 14.99771
974.8068, 15.25181
975.2889, 15.53552
975.7711, 15.69752
976.2532, 15.80411
976.7353, 15.90571
977.2174, 16.01475
977.6995, 16.21566
978.1816, 16.44763
978.6638, 16.41986
979.1459, 16.09331
979.6280, 15.89310
980.1101, 16.19370
980.5922, 16.16059
981.0743, 16.88890
981.5565, 16.76198
982.0386, 17.01797
982.5207, 17.68700
983.0028, 18.07923
983.4849, 17.89151
983.9670, 17.69596
984.4492, 18.13518
984.9313, 19.08365
985.4134, 19.96165
985.8955, 20.75151
986.3776, 21.58735
986.8597, 22.46122
987.3419, 23.46578
987.8240, 24.63974
988.3061, 25.97197
988.7882, 27.41535
989.2703, 28.96623
989.7524, 30.98367
990.2346, 33.70133
990.7167, 36.36632
991.1988, 38.78574
991.6809, 41.30499
992.1630, 44.27635
992.6451, 47.39132
993.1273, 50.17459
993.6094, 52.66835
994.0915, 54.50127
994.5736, 56.22501
995.0557, 56.52462
995.5378, 54.53839
996.0200, 51.64996
996.5021, 48.53242
996.9842, 45.25608
997.4663, 41.80195
997.9484, 38.11411
998.4305, 34.74188
998.9127, 31.78005
999.3948, 29.23241
999.8769, 27.29289
1000.359, 25.64310
1000.841, 24.01922
1001.323, 22.43737
1001.805, 21.00560
1002.287, 19.74563
1002.770, 18.74070
1003.252, 18.08975
1003.734, 17.65100
1004.216, 17.48960
1004.698, 17.36788
1005.180, 16.96258
1005.662, 16.29115
1006.144, 15.53109
1006.627, 14.72005
1007.109, 14.10739
1007.591, 14.06493
1008.073, 14.19624
1008.555, 14.04002
1009.037, 13.69725
1009.519, 13.36944
1010.001, 13.10880
1010.483, 12.90647
1010.966, 12.75641
1011.448, 12.67914
1011.930, 12.76624
1012.412, 12.91066
1012.894, 12.90414
1013.376, 12.76499
1013.858, 12.56873
1014.340, 12.33901
1014.823, 12.07783
1015.305, 11.77149
1015.787, 11.51720
1016.269, 11.53862
1016.751, 11.74568
1017.233, 11.78385
1017.715, 11.66069
1018.197, 11.54731
1018.679, 11.49233
1019.162, 11.45243
1019.644, 11.39619
1020.126, 11.31717
1020.608, 11.17910
1021.090, 10.99144
1021.572, 10.88385
1022.054, 10.86298
1022.536, 10.87467
1023.018, 10.90766
1023.501, 10.91946
1023.983, 10.87539
1024.465, 10.77413
1024.947, 10.54991
1025.429, 10.16388
1025.911, 10.20226
1026.393, 10.79724
1026.875, 11.20210
1027.358, 11.12604
1027.840, 10.88893
1028.322, 10.79734
1028.804, 10.80385
1029.286, 10.69792
1029.768, 10.41608
1030.250, 10.29162
1030.732, 10.37047
1031.214, 10.52367
1031.697, 10.81282
1032.179, 10.95985
1032.661, 10.59927
1033.143, 9.871440
1033.625, 9.495863
1034.107, 9.609029
1034.589, 9.740067
1035.071, 9.937803
1035.553, 10.05825
1036.036, 10.03700
1036.518, 9.930956
1037.000, 9.771334
1037.482, 9.573141
1037.964, 9.421213
1038.446, 9.307400
1038.928, 9.258002
1039.410, 9.280355
1039.893, 9.358002
1040.375, 9.592366
1040.857, 9.795127
1041.339, 9.748383
1041.821, 9.498096
1042.303, 9.288912
1042.785, 9.069401
1043.267, 8.998400
1043.750, 9.237933
1044.232, 9.433043
1044.714, 9.418004
1045.196, 9.333623
1045.678, 9.301342
1046.160, 9.321192
1046.642, 9.375579
1047.124, 9.532619
1047.606, 9.565668
1048.089, 9.392308
1048.571, 9.154272
1049.053, 8.758589
1049.535, 8.441517
1050.017, 8.524945
1050.499, 8.898510
1050.981, 9.067775
1051.463, 8.835815
1051.945, 8.720541
1052.428, 8.900277
1052.910, 9.135154
1053.392, 9.425253
1053.874, 9.634257
1054.356, 9.584449
1054.838, 9.338113
1055.320, 9.124547
1055.802, 8.981714
1056.285, 8.901670
1056.767, 8.814831
1057.249, 8.871171
1057.731, 9.325165
1058.213, 9.815091
1058.695, 9.966305
1059.177, 9.836716
1059.659, 9.675876
1060.141, 9.517156
1060.624, 9.444888
1061.106, 9.519697
1061.588, 9.649405
1062.070, 9.869701
1062.552, 10.05608
1063.034, 10.02805
1063.516, 9.870715
1063.998, 9.828716
1064.480, 9.968948
1064.963, 10.15794
1065.445, 10.43143
1065.927, 10.63216
1066.409, 10.62613
1066.891, 10.55108
1067.373, 10.49801
1067.855, 10.49919
1068.337, 10.60857
1068.820, 10.84517
1069.302, 11.06193
1069.784, 11.21585
1070.266, 11.30993
1070.748, 11.30259
1071.230, 11.27449
1071.712, 11.27219
1072.194, 11.31744
1072.677, 11.45812
1073.159, 11.70101
1073.641, 11.91137
1074.123, 12.04859
1074.605, 12.11589
1075.087, 12.09118
1075.569, 12.01936
1076.051, 11.88967
1076.533, 11.76227
1077.016, 11.72951
1077.498, 11.80837
1077.980, 11.96707
1078.462, 12.27962
1078.944, 12.54318
1079.426, 12.64586
1079.908, 12.67548
1080.390, 12.69453
1080.872, 12.69524
1081.354, 12.62466
1081.837, 12.49704
1082.319, 12.45769
1082.801, 12.62156
1083.283, 12.76489
1083.765, 12.74951
1084.247, 12.71069
1084.729, 12.78050
1085.211, 12.86837
1085.694, 12.79688
1086.176, 12.60043
1086.658, 12.54119
1087.140, 12.75830
1087.622, 12.96952
1088.104, 12.96852
1088.586, 13.02357
1089.068, 13.39377
1089.551, 13.85096
1090.033, 14.13523
1090.515, 14.25152
1090.997, 14.31516
1091.479, 14.34894
1091.961, 14.37090
1092.443, 14.34701
1092.925, 14.36275
1093.407, 14.54740
1093.890, 14.72285
1094.372, 14.69148
1094.854, 14.51119
1095.336, 14.31870
1095.818, 14.12242
1096.300, 14.11795
1096.782, 14.62989
1097.264, 14.99808
1097.746, 14.78561
1098.229, 14.49875
1098.711, 14.52380
1099.193, 14.77911
1099.675, 15.12502
1100.157, 15.53955
1100.639, 15.76030
1101.121, 15.61855
1101.603, 15.42176
1102.086, 15.24414
1102.568, 15.04449
1103.050, 14.73695
1103.532, 14.42662
1104.014, 14.24085
1104.496, 14.19125
1104.978, 14.27401
1105.460, 14.60363
1105.943, 14.87243
1106.425, 15.05603
1106.907, 15.14224
1107.389, 15.16479
1107.871, 15.05798
1108.353, 14.63951
1108.835, 14.01182
1109.317, 13.66270
1109.799, 13.79011
1110.281, 13.79319
1110.764, 13.41174
1111.246, 13.19120
1111.728, 13.41082
1112.210, 13.73439
1112.692, 13.96880
1113.174, 14.09064
1113.656, 14.02109
1114.138, 13.69803
1114.621, 13.46585
1115.103, 13.34009
1115.585, 13.28761
1116.067, 13.44213
1116.549, 13.47925
1117.031, 13.10719
1117.513, 12.58408
1117.995, 12.33993
1118.478, 12.37950
1118.960, 12.35519
1119.442, 12.26095
1119.924, 12.10494
1120.406, 11.81038
1120.888, 11.62678
1121.370, 11.74569
1121.852, 11.88407
1122.334, 11.67738
1122.817, 11.21506
1123.299, 11.00268
1123.781, 11.11561
1124.263, 11.15485
1124.745, 11.07793
1125.227, 11.06336
1125.709, 11.20267
1126.191, 11.29036
1126.673, 11.12939
1127.156, 11.15048
1127.638, 11.06831
1128.120, 10.91054
1128.602, 10.88616
1129.084, 10.67202
1129.566, 10.55581
1130.048, 10.60892
1130.530, 10.63344
1131.013, 10.51031
1131.495, 10.32211
1131.977, 10.18419
1132.459, 10.09208
1132.941, 10.02773
1133.423, 9.989719
1133.905, 9.956909
1134.387, 9.928747
1134.870, 9.950240
1135.352, 10.03913
1135.834, 10.14992
1136.316, 10.25016
1136.798, 10.31245
1137.280, 10.27456
1137.762, 10.14946
1138.244, 9.932568
1138.726, 9.665639
1139.208, 9.550214
1139.691, 9.618595
1140.173, 9.710363
1140.655, 9.724115
1141.137, 9.729936
1141.619, 9.838501
1142.101, 9.871623
1142.583, 10.03844
1143.065, 10.04369
1143.548, 10.12825
1144.030, 10.27561
1144.512, 10.35483
1144.994, 10.31769
1145.476, 10.25131
1145.958, 10.19719
1146.440, 10.18270
1146.922, 10.30248
1147.405, 10.42682
1147.887, 10.35022
1148.369, 10.15956
1148.851, 10.04524
1149.333, 10.04490
1149.815, 10.10601
1150.297, 10.24846
1150.779, 10.32557
1151.261, 10.14158
1151.744, 9.980968
1152.226, 10.06300
1152.708, 10.28024
1153.190, 10.54614
1153.672, 10.81287
1154.154, 11.00859
1154.636, 11.12433
1155.118, 11.12482
1155.600, 10.85333
1156.083, 10.66561
1156.565, 10.76458
1157.047, 10.90697
1157.529, 10.90156
1158.011, 10.83536
1158.493, 10.87610
1158.975, 10.89459
1159.457, 10.89943
1159.940, 11.01349
1160.422, 10.99896
1160.904, 11.09985
1161.386, 11.25026
1161.868, 11.49451
1162.350, 11.70051
1162.832, 11.74623
1163.314, 11.65880
1163.796, 11.48745
1164.279, 11.62948
1164.761, 11.21010
1165.243, 11.80312
1165.725, 12.21838
1166.207, 12.29439
1166.689, 12.26087
1167.171, 12.24803
1167.653, 12.19495
1168.135, 11.99151
1168.618, 11.68353
1169.100, 11.49596
1169.582, 11.43096
1170.064, 11.69326
1170.546, 12.29049
1171.028, 12.78146
1171.510, 13.01931
1171.992, 13.00831
1172.474, 12.72135
1172.957, 12.34793
1173.439, 12.21077
1173.921, 12.25494
1174.403, 12.36658
1174.885, 12.50747
1175.367, 12.54531
1175.849, 12.48421
1176.331, 12.46229
1176.814, 12.53752
1177.296, 12.60575
1177.778, 12.55534
1178.260, 12.47688
1178.742, 12.41842
1179.224, 12.43962
1179.706, 12.74722
1180.188, 13.15024
1180.671, 13.19412
1181.153, 12.87770
1181.635, 12.68538
1182.117, 12.86453
1182.599, 13.05624
1183.081, 13.09564
1183.563, 13.05462
1184.045, 12.92015
1184.527, 12.77701
1185.010, 12.69263
1185.492, 12.66815
1185.974, 12.69347
1186.456, 12.76845
1186.938, 12.86465
1187.420, 13.21790
1187.902, 13.22551
1188.384, 12.30937
1188.866, 11.62831
1189.349, 11.85783
1189.831, 12.38903
1190.313, 12.65141
1190.795, 12.67802
1191.277, 12.57382
1191.759, 12.26066
1192.241, 12.18852
1192.723, 12.45036
1193.206, 12.62876
1193.688, 12.63982
1194.170, 12.52834
1194.652, 12.28602
1195.134, 12.06394
1195.616, 12.09462
1196.098, 12.08172
1196.580, 12.39642
1197.063, 12.37668
1197.545, 12.52939
1198.027, 12.82415
1198.509, 12.67401
1198.991, 11.96331
1199.473, 11.48284
1199.955, 11.81136
1200.437, 12.34748
1200.919, 12.27474
1201.401, 11.90167
1201.884, 11.70181
1202.366, 11.64625
1202.848, 11.68614
1203.330, 11.79390
1203.812, 11.95955
1204.294, 12.16334
1204.776, 12.26181
1205.258, 12.12338
1205.741, 11.95175
1206.223, 11.87425
1206.705, 11.81665
1207.187, 11.67346
1207.669, 11.55115
1208.151, 11.65687
1208.633, 11.89617
1209.115, 11.91168
1209.598, 11.58558
1210.080, 11.38054
1210.562, 11.45995
1211.044, 11.52532
1211.526, 11.58429
1212.008, 11.53207
1212.490, 11.27064
1212.972, 10.91895
1213.454, 10.56496
1213.937, 10.25386
1214.419, 10.24090
1214.901, 10.62029
1215.383, 10.81900
1215.865, 10.81734
1216.347, 10.72058
1216.829, 10.53629
1217.311, 10.41130
1217.793, 10.44031
1218.276, 10.50033
1218.758, 10.42101
1219.240, 10.25484
1219.722, 10.12204
1220.204, 10.03476
1220.686, 10.04304
1221.168, 10.14005
1221.650, 10.38167
1222.133, 10.70753
1222.615, 10.66326
1223.097, 9.942983
1223.579, 9.265433
1224.061, 9.380697
1224.543, 9.744784
1225.025, 9.947076
1225.507, 9.997660
1225.990, 9.762934
1226.472, 9.463273
1226.954, 9.601879
1227.436, 10.18880
1227.918, 10.51293
1228.400, 10.26269
1228.882, 9.960678
1229.364, 9.651191
1229.846, 9.410051
1230.328, 9.246911
1230.811, 9.184461
1231.293, 9.221000
1231.775, 9.382147
1232.257, 9.797767
1232.739, 10.46261
1233.221, 10.55958
1233.703, 9.916465
1234.185, 9.468035
1234.668, 9.300971
1235.150, 9.241513
1235.632, 9.238584
1236.114, 9.280851
1236.596, 9.364817
1237.078, 9.462529
1237.560, 9.572924
1238.042, 9.639858
1238.525, 9.407343
1239.007, 8.983723
1239.489, 8.687315
1239.971, 8.547522
1240.453, 8.494216
1240.935, 8.509336
1241.417, 8.666648
1241.899, 9.096280
1242.381, 9.384180
1242.864, 8.985406
1243.346, 8.546968
1243.828, 8.688938
1244.310, 9.024473
1244.792, 9.090580
1245.274, 8.977666
1245.756, 9.014863
1246.238, 9.246952
1246.720, 9.290752
1247.203, 8.765512
1247.685, 8.581992
1248.167, 9.166551
1248.649, 9.528212
1249.131, 9.230667
1249.613, 8.847502
1250.095, 8.846447
1250.577, 8.989521
1251.059, 8.755375
1251.542, 8.817204
1252.024, 8.891739
1252.506, 8.733946
1252.988, 9.020347
1253.470, 8.999273
1253.952, 8.911866
1254.434, 8.843485
1254.916, 8.877977
1255.399, 9.091845
1255.881, 9.278853
1256.363, 9.094929
1256.845, 8.798918
1257.327, 8.765681
1257.809, 8.876892
1258.291, 9.006494
1258.773, 9.097256
1259.255, 9.023736
1259.738, 8.807809
1260.220, 8.761323
1260.702, 9.115623
1261.184, 9.309911
1261.666, 8.913356
1262.148, 8.660825
1262.630, 8.992262
1263.112, 9.414081
1263.594, 9.648626
1264.077, 9.688816
1264.559, 9.446566
1265.041, 8.984389
1265.523, 8.875243
1266.005, 9.207152
1266.487, 9.351704
1266.969, 9.264008
1267.451, 9.292828
1267.934, 9.527472
1268.416, 9.599110
1268.898, 9.288116
1269.380, 8.965387
1269.862, 9.123954
1270.344, 9.460370
1270.826, 9.306248
1271.308, 8.996099
1271.791, 9.317082
1272.273, 9.934912
1272.755, 9.978022
1273.237, 9.485491
1273.719, 9.220216
1274.201, 9.454103
1274.683, 9.680693
1275.165, 9.622325
1275.647, 9.587504
1276.130, 9.784661
1276.612, 9.930418
1277.094, 9.802077
1277.576, 9.584854
1278.058, 9.440701
1278.540, 9.384657
1279.022, 9.479989
1279.504, 9.745484
1279.986, 9.882150
1280.469, 9.863875
1280.951, 9.920347
1281.433, 10.08986
1281.915, 10.11543
1282.397, 9.902939
1282.879, 9.706599
1283.361, 9.731557
1283.843, 9.846015
1284.326, 9.894230
1284.808, 9.875250
##END=



