##NAMES=Andradite
##RRUFFID=R050256
##IDEAL CHEMISTRY=Ca_3_Fe^3+^_2_(SiO_4_)_3_
##LOCALITY=Franklin, Sussex County, New Jersey, USA
##OWNER=RRUFF
##SOURCE=Marcus Origlieri
##DESCRIPTION=Reddish brown fragments
##STATUS=The identification of this mineral has been confirmed by X-ray diffraction and chemical analysis
##URL=rruff.info/R050256
##MEASURED CHEMISTRY=(Ca_2.27_Mn_0.73_)_Σ=3_(Fe^3+^_1.35_Al_0.65_)_Σ=2_(Si_1.00_O_4_)_3_
92.67285, 71.06892
93.15497, 71.24826
93.63708, 71.42018
94.11920, 72.55818
94.60132, 73.85874
95.08344, 75.09866
95.56555, 75.36517
96.04767, 75.15826
96.52979, 75.11559
97.01190, 74.99435
97.49402, 74.40816
97.97614, 73.29994
98.45825, 72.24449
98.94037, 71.36430
99.42249, 70.49876
99.90460, 69.46821
100.3867, 68.36872
100.8688, 67.39143
101.3510, 66.71675
101.8331, 66.38684
102.3152, 66.13494
102.7973, 65.72832
103.2794, 65.14594
103.7615, 64.68251
104.2437, 64.53371
104.7258, 64.52777
105.2079, 64.56416
105.6900, 64.63177
106.1721, 64.68531
106.6542, 64.61951
107.1364, 64.37486
107.6185, 64.05212
108.1006, 63.63424
108.5827, 63.17472
109.0648, 62.74021
109.5469, 62.37114
110.0291, 62.06465
110.5112, 61.79982
110.9933, 61.64382
111.4754, 61.45933
111.9575, 61.10007
112.4396, 60.64604
112.9218, 60.34085
113.4039, 60.45913
113.8860, 61.15081
114.3681, 61.49645
114.8502, 61.26403
115.3323, 60.87142
115.8144, 60.63083
116.2966, 60.60320
116.7787, 60.66091
117.2608, 60.62893
117.7429, 60.49928
118.2250, 60.42738
118.7071, 60.53473
119.1893, 60.72253
119.6714, 60.75432
120.1535, 60.49043
120.6356, 60.16914
121.1177, 60.04267
121.5998, 60.10908
122.0820, 60.26151
122.5641, 60.46248
123.0462, 60.71805
123.5283, 60.89899
124.0104, 60.81927
124.4925, 60.74598
124.9747, 60.89266
125.4568, 61.30342
125.9389, 61.76519
126.4210, 61.89095
126.9031, 61.38426
127.3852, 61.14981
127.8674, 61.46913
128.3495, 61.97398
128.8316, 62.34649
129.3137, 62.43992
129.7958, 62.32515
130.2780, 62.25365
130.7601, 62.29160
131.2422, 62.30385
131.7243, 62.24959
132.2064, 62.16293
132.6885, 62.09257
133.1707, 62.06536
133.6528, 62.08455
134.1349, 62.17159
134.6170, 62.35904
135.0991, 62.56720
135.5812, 62.81169
136.0633, 63.07016
136.5455, 63.22441
137.0276, 63.12477
137.5097, 62.82780
137.9918, 62.68211
138.4739, 62.82010
138.9560, 63.06106
139.4382, 63.20436
139.9203, 63.21989
140.4024, 63.23668
140.8845, 63.36987
141.3666, 63.57335
141.8487, 63.77192
142.3309, 63.96847
142.8130, 64.13945
143.2951, 64.18324
143.7772, 63.96617
144.2593, 63.80977
144.7414, 63.85685
145.2236, 64.07882
145.7057, 64.40363
146.1878, 64.84644
146.6699, 65.42869
147.1520, 65.76671
147.6341, 65.53472
148.1163, 65.31737
148.5984, 65.34814
149.0805, 65.60934
149.5626, 65.92836
150.0447, 66.09753
150.5268, 66.00300
151.0090, 66.11895
151.4911, 66.64141
151.9732, 67.18307
152.4553, 67.45454
152.9374, 67.42393
153.4195, 67.32259
153.9017, 67.49728
154.3838, 68.19072
154.8659, 68.69597
155.3480, 68.93288
155.8301, 69.01849
156.3122, 69.01951
156.7944, 68.94192
157.2765, 68.90215
157.7586, 69.16648
158.2407, 69.79941
158.7228, 70.39492
159.2049, 70.76758
159.6871, 71.02035
160.1692, 71.39932
160.6513, 72.02330
161.1334, 72.75786
161.6155, 73.39440
162.0976, 73.92421
162.5798, 74.42020
163.0619, 74.94640
163.5440, 75.49589
164.0261, 75.96172
164.5082, 76.21943
164.9903, 76.43652
165.4725, 76.79381
165.9546, 77.32982
166.4367, 77.86301
166.9188, 78.15666
167.4009, 78.15380
167.8830, 78.14754
168.3652, 78.25168
168.8473, 78.35497
169.3294, 78.37978
169.8115, 78.30103
170.2936, 78.14319
170.7757, 77.92404
171.2579, 77.49841
171.7400, 77.29799
172.2221, 77.49228
172.7042, 77.84216
173.1863, 78.15118
173.6684, 78.33205
174.1506, 78.39404
174.6327, 78.36337
175.1148, 78.03989
175.5969, 77.85056
176.0790, 77.89894
176.5611, 78.07976
177.0433, 78.27844
177.5254, 78.44077
178.0075, 78.55276
178.4896, 78.53462
178.9717, 78.35699
179.4538, 78.10328
179.9360, 77.72945
180.4181, 77.29121
180.9002, 76.91736
181.3823, 76.70659
181.8644, 76.60078
182.3465, 76.32523
182.8287, 75.66698
183.3108, 75.07252
183.7929, 74.78967
184.2750, 74.77507
184.7571, 74.81136
185.2392, 74.82835
185.7214, 74.77615
186.2035, 74.55900
186.6856, 74.05013
187.1677, 73.49557
187.6498, 73.08111
188.1319, 72.80634
188.6141, 72.64636
189.0962, 72.61855
189.5783, 72.69653
190.0604, 72.87775
190.5425, 73.27217
191.0246, 73.64824
191.5068, 73.58119
191.9889, 72.87656
192.4710, 72.38821
192.9531, 72.78602
193.4352, 73.49915
193.9173, 73.89219
194.3995, 73.62904
194.8816, 73.03297
195.3637, 72.87933
195.8458, 73.44827
196.3279, 73.96061
196.8100, 74.19601
197.2922, 74.25825
197.7743, 74.23544
198.2564, 74.15222
198.7385, 74.05491
199.2206, 74.12668
199.7027, 74.49487
200.1849, 74.88448
200.6670, 75.24535
201.1491, 75.59081
201.6312, 75.95796
202.1133, 76.37388
202.5954, 76.81052
203.0776, 77.09764
203.5597, 76.88665
204.0418, 76.89143
204.5239, 77.34904
205.0060, 78.08413
205.4881, 78.81102
205.9703, 79.35319
206.4524, 79.73763
206.9345, 80.17385
207.4166, 80.68364
207.8987, 81.21547
208.3808, 81.80946
208.8630, 82.41520
209.3451, 82.91439
209.8272, 83.21317
210.3093, 83.35134
210.7914, 83.64339
211.2735, 84.07874
211.7557, 84.63640
212.2378, 85.37716
212.7199, 86.24801
213.2020, 87.09423
213.6841, 87.81948
214.1662, 88.45033
214.6484, 89.12558
215.1305, 89.87318
215.6126, 90.63511
216.0947, 91.41026
216.5768, 92.18917
217.0589, 92.89420
217.5410, 93.45475
218.0232, 93.91938
218.5053, 94.41824
218.9874, 94.93551
219.4695, 95.51733
219.9516, 96.29133
220.4337, 97.25102
220.9159, 98.03381
221.3980, 98.28783
221.8801, 98.34184
222.3622, 98.67754
222.8443, 99.44344
223.3264, 100.3430
223.8086, 101.0281
224.2907, 101.4647
224.7728, 102.0189
225.2549, 103.0405
225.7370, 104.1573
226.2191, 105.0130
226.7013, 105.4888
227.1834, 105.8165
227.6655, 106.2691
228.1476, 106.8590
228.6297, 107.5222
229.1118, 108.3856
229.5940, 109.2295
230.0761, 109.8863
230.5582, 110.3002
231.0403, 110.5682
231.5224, 110.8675
232.0045, 111.3016
232.4867, 111.4431
232.9688, 111.0572
233.4509, 110.4744
233.9330, 109.9233
234.4151, 109.4683
234.8972, 109.0162
235.3794, 108.4297
235.8615, 107.7130
236.3436, 106.8252
236.8257, 105.6532
237.3078, 104.4117
237.7899, 103.2795
238.2721, 102.2867
238.7542, 101.3004
239.2363, 100.0942
239.7184, 98.52648
240.2005, 96.99895
240.6826, 95.37714
241.1648, 93.88431
241.6469, 92.74346
242.1290, 91.98341
242.6111, 91.41914
243.0932, 90.78686
243.5753, 90.06456
244.0575, 89.30291
244.5396, 88.39000
245.0217, 87.51924
245.5038, 86.84505
245.9859, 86.38651
246.4680, 86.04725
246.9502, 85.69810
247.4323, 85.33626
247.9144, 84.97179
248.3965, 84.62354
248.8786, 84.26010
249.3607, 83.83101
249.8429, 83.33993
250.3250, 82.86826
250.8071, 82.51991
251.2892, 82.35056
251.7713, 82.11497
252.2534, 81.71277
252.7356, 81.31881
253.2177, 81.08814
253.6998, 81.02797
254.1819, 80.99951
254.6640, 80.86147
255.1461, 80.59055
255.6283, 80.35448
256.1104, 80.17357
256.5925, 80.01403
257.0746, 79.84401
257.5567, 79.66360
258.0388, 79.50411
258.5210, 79.38583
259.0031, 79.31726
259.4852, 79.30702
259.9673, 79.44028
260.4494, 79.56895
260.9315, 79.55837
261.4137, 79.41331
261.8958, 79.27966
262.3779, 79.30362
262.8600, 79.42858
263.3421, 79.35001
263.8242, 78.77958
264.3064, 78.22456
264.7885, 78.10021
265.2706, 78.37585
265.7527, 78.72169
266.2348, 79.03392
266.7169, 79.23002
267.1991, 79.14490
267.6812, 78.56467
268.1633, 77.95582
268.6454, 77.67612
269.1275, 77.69914
269.6096, 77.74836
270.0918, 77.69352
270.5739, 77.59623
271.0560, 77.55931
271.5381, 77.57993
272.0202, 77.67338
272.5023, 77.93137
272.9845, 78.31931
273.4666, 78.55614
273.9487, 78.51139
274.4308, 78.28570
274.9129, 77.99211
275.3951, 77.60572
275.8772, 77.32130
276.3593, 77.31370
276.8414, 77.54603
277.3235, 77.80482
277.8056, 78.13707
278.2878, 78.35093
278.7699, 78.18288
279.2520, 77.64919
279.7341, 77.25018
280.2162, 77.40241
280.6983, 77.99343
281.1805, 78.46301
281.6626, 78.70655
282.1447, 78.84550
282.6268, 78.97231
283.1089, 79.08583
283.5910, 79.18088
284.0732, 79.22620
284.5553, 79.24548
285.0374, 79.32368
285.5195, 79.45634
286.0016, 79.66985
286.4837, 79.96059
286.9659, 80.33066
287.4480, 80.79725
287.9301, 81.42896
288.4122, 82.15030
288.8943, 82.75690
289.3764, 83.24678
289.8586, 83.62083
290.3407, 83.71719
290.8228, 83.75137
291.3049, 84.04326
291.7870, 84.78051
292.2691, 85.76197
292.7513, 86.62643
293.2334, 87.33646
293.7155, 88.01859
294.1976, 88.75023
294.6797, 89.46198
295.1618, 90.05882
295.6440, 90.48252
296.1261, 90.90090
296.6082, 91.58074
297.0903, 92.58437
297.5724, 93.59258
298.0545, 94.58421
298.5367, 95.52385
299.0188, 96.41335
299.5009, 97.25087
299.9830, 97.95409
300.4651, 98.33493
300.9472, 98.32047
301.4294, 98.57011
301.9115, 99.41124
302.3936, 100.3747
302.8757, 101.2586
303.3578, 102.0412
303.8399, 102.7518
304.3221, 103.4028
304.8042, 103.9918
305.2863, 104.5848
305.7684, 105.1510
306.2505, 105.7651
306.7326, 106.5294
307.2148, 107.3745
307.6969, 108.1129
308.1790, 108.5229
308.6611, 108.6956
309.1432, 109.2580
309.6253, 110.5492
310.1075, 111.7517
310.5896, 112.5731
311.0717, 113.1173
311.5538, 113.5097
312.0359, 113.7582
312.5180, 113.9684
313.0002, 114.5136
313.4823, 115.7612
313.9644, 116.5625
314.4465, 116.3599
314.9286, 115.7335
315.4107, 115.2204
315.8929, 115.0007
316.3750, 114.9621
316.8571, 114.9643
317.3392, 115.0597
317.8213, 115.0164
318.3034, 114.5751
318.7856, 114.1264
319.2677, 113.9581
319.7498, 114.1056
320.2319, 114.3544
320.7140, 114.4587
321.1961, 114.3931
321.6783, 114.3859
322.1604, 114.3436
322.6425, 114.4769
323.1246, 114.9688
323.6067, 115.7573
324.0888, 116.5929
324.5710, 117.2198
325.0531, 117.6634
325.5352, 118.4054
326.0173, 119.6995
326.4994, 120.9842
326.9815, 121.9373
327.4637, 122.7291
327.9458, 123.6752
328.4279, 124.9864
328.9100, 126.5473
329.3921, 127.9907
329.8742, 129.1983
330.3564, 130.5307
330.8385, 132.2226
331.3206, 134.0362
331.8027, 135.7039
332.2848, 137.1155
332.7669, 138.4415
333.2491, 140.0076
333.7312, 141.9433
334.2133, 143.6358
334.6954, 144.4221
335.1775, 145.2413
335.6596, 146.7693
336.1418, 149.1030
336.6239, 151.7384
337.1060, 154.1882
337.5881, 156.4316
338.0702, 158.8694
338.5523, 161.6835
339.0345, 164.5745
339.5165, 167.2510
339.9987, 169.8166
340.4808, 172.6178
340.9629, 176.0013
341.4450, 179.8638
341.9271, 183.4863
342.4092, 186.5935
342.8914, 189.9572
343.3735, 194.0058
343.8556, 198.5177
344.3377, 203.1340
344.8198, 207.6948
345.3019, 212.2997
345.7841, 217.1323
346.2662, 222.2069
346.7483, 227.4197
347.2304, 232.5084
347.7125, 237.8120
348.1946, 243.8159
348.6768, 250.7015
349.1589, 257.7602
349.6410, 264.1970
350.1231, 269.9951
350.6052, 276.1014
351.0873, 282.9606
351.5695, 289.9248
352.0516, 296.4114
352.5337, 302.4165
353.0158, 308.3964
353.4979, 314.7195
353.9800, 321.2329
354.4622, 327.3781
354.9443, 333.0490
355.4264, 338.5140
355.9085, 343.9125
356.3906, 349.2823
356.8727, 354.7512
357.3549, 360.4555
357.8370, 366.2296
358.3191, 371.7965
358.8012, 377.1250
359.2833, 382.5272
359.7654, 388.2238
360.2476, 394.0496
360.7297, 399.7079
361.2118, 405.1654
361.6939, 410.4101
362.1760, 415.3589
362.6581, 420.0476
363.1403, 424.6464
363.6224, 429.3212
364.1045, 433.7570
364.5866, 437.7722
365.0687, 441.4225
365.5508, 444.1671
366.0330, 445.8832
366.5151, 446.5114
366.9972, 446.1103
367.4793, 444.7900
367.9614, 441.8574
368.4435, 436.2508
368.9257, 428.2424
369.4078, 419.3553
369.8899, 409.9994
370.3720, 399.7266
370.8541, 388.1715
371.3362, 375.2849
371.8184, 361.2943
372.3005, 345.9268
372.7826, 329.6235
373.2647, 314.0298
373.7468, 298.9231
374.2289, 284.5592
374.7111, 271.0079
375.1932, 258.2346
375.6753, 245.9963
376.1574, 234.2592
376.6395, 223.1399
377.1216, 212.9223
377.6038, 203.7262
378.0859, 195.0191
378.5680, 186.7727
379.0501, 178.9736
379.5322, 171.6024
380.0143, 164.6769
380.4965, 158.3636
380.9786, 152.8784
381.4607, 148.2357
381.9428, 143.6958
382.4249, 139.0946
382.9070, 134.7396
383.3892, 130.7672
383.8713, 127.1413
384.3534, 123.8523
384.8355, 120.9196
385.3176, 118.2673
385.7997, 115.6866
386.2819, 113.2007
386.7640, 110.7776
387.2461, 108.4759
387.7282, 106.2246
388.2103, 103.9213
388.6924, 101.5598
389.1746, 99.23100
389.6567, 97.02327
390.1388, 94.90392
390.6209, 93.04440
391.1030, 91.47675
391.5851, 90.08879
392.0673, 88.97520
392.5494, 88.00283
393.0315, 86.87362
393.5136, 85.36349
393.9957, 83.54785
394.4778, 81.89555
394.9600, 80.41991
395.4421, 79.09490
395.9242, 77.94753
396.4063, 76.92455
396.8884, 75.96102
397.3705, 75.03789
397.8527, 74.18977
398.3348, 73.51712
398.8169, 73.11214
399.2990, 72.54672
399.7811, 71.50583
400.2632, 70.53873
400.7454, 70.00172
401.2275, 69.81144
401.7096, 69.59963
402.1917, 69.06332
402.6738, 68.26633
403.1559, 67.57169
403.6381, 66.98153
404.1202, 66.50517
404.6023, 66.16091
405.0844, 65.91006
405.5665, 65.72334
406.0486, 65.60859
406.5308, 65.49409
407.0129, 65.25501
407.4950, 64.87687
407.9771, 64.58329
408.4592, 64.56284
408.9413, 64.51842
409.4235, 64.11686
409.9056, 63.37724
410.3877, 62.75403
410.8698, 62.58242
411.3519, 62.71201
411.8340, 62.75250
412.3162, 62.65399
412.7983, 62.54200
413.2804, 62.55592
413.7625, 62.62038
414.2446, 62.55543
414.7267, 62.27008
415.2089, 61.91069
415.6910, 61.49873
416.1731, 61.07896
416.6552, 60.92577
417.1373, 61.22586
417.6194, 61.73875
418.1016, 62.02647
418.5837, 62.07884
419.0658, 62.04754
419.5479, 61.88491
420.0300, 61.70115
420.5121, 61.64488
420.9943, 61.73542
421.4764, 61.87531
421.9585, 61.98170
422.4406, 62.05291
422.9227, 62.13167
423.4048, 62.20840
423.8870, 62.30095
424.3691, 62.45109
424.8512, 62.61967
425.3333, 62.72131
425.8154, 62.71365
426.2975, 62.63894
426.7797, 62.59254
427.2618, 62.58543
427.7439, 62.59516
428.2260, 62.62693
428.7081, 62.67151
429.1902, 62.69422
429.6724, 62.71030
430.1545, 62.80645
430.6366, 63.09605
431.1187, 63.58735
431.6008, 63.85957
432.0829, 63.76055
432.5651, 63.58745
433.0472, 63.35443
433.5293, 63.09855
434.0114, 62.82884
434.4935, 62.54695
434.9756, 62.33502
435.4578, 62.40317
435.9399, 62.89609
436.4220, 63.19520
436.9041, 62.99957
437.3862, 62.76266
437.8683, 62.76617
438.3505, 62.98384
438.8326, 63.17556
439.3147, 63.09296
439.7968, 62.83139
440.2789, 62.83260
440.7610, 63.20821
441.2432, 63.59071
441.7253, 63.81441
442.2074, 63.93160
442.6895, 63.98621
443.1716, 63.97289
443.6537, 63.94146
444.1359, 63.96053
444.6180, 64.01347
445.1001, 63.98642
445.5822, 63.83202
446.0643, 63.61996
446.5464, 63.40132
447.0286, 63.17966
447.5107, 63.02676
447.9928, 63.00241
448.4749, 63.03154
448.9570, 63.04267
449.4391, 63.03213
449.9213, 63.01416
450.4034, 63.00567
450.8855, 62.99112
451.3676, 62.90883
451.8497, 62.71514
452.3318, 62.53329
452.8140, 62.38248
453.2961, 62.26525
453.7782, 62.19387
454.2603, 62.16912
454.7424, 62.16681
455.2245, 62.16271
455.7067, 62.16124
456.1888, 62.12807
456.6709, 61.98652
457.1530, 61.89690
457.6351, 62.01618
458.1172, 62.22203
458.5994, 62.27922
459.0815, 62.06131
459.5636, 61.66148
460.0457, 61.30914
460.5278, 61.01062
461.0099, 60.75180
461.4921, 60.53167
461.9742, 60.34210
462.4563, 60.17949
462.9384, 60.04251
463.4205, 59.93160
463.9026, 59.86382
464.3848, 59.82619
464.8669, 59.73120
465.3490, 59.56507
465.8311, 59.36562
466.3132, 59.01775
466.7953, 58.70029
467.2775, 58.64413
467.7596, 58.93014
468.2417, 59.36763
468.7238, 59.86025
469.2059, 60.38143
469.6880, 60.65493
470.1702, 60.48252
470.6523, 60.31993
471.1344, 60.70435
471.6165, 61.50158
472.0986, 62.16804
472.5807, 62.45166
473.0629, 62.63408
473.5450, 62.95604
474.0271, 63.41023
474.5092, 63.94205
474.9913, 64.54482
475.4734, 65.17950
475.9556, 65.74321
476.4377, 66.20292
476.9198, 66.69115
477.4019, 67.22258
477.8840, 67.79460
478.3661, 68.41939
478.8483, 69.09035
479.3304, 69.76238
479.8125, 70.41346
480.2946, 71.03653
480.7767, 71.57446
481.2589, 71.98513
481.7410, 72.35520
482.2231, 72.60934
482.7052, 72.87048
483.1873, 73.33443
483.6694, 74.03475
484.1516, 74.73158
484.6337, 75.05314
485.1158, 74.90002
485.5979, 74.97279
486.0800, 75.44868
486.5621, 75.97288
487.0443, 76.49575
487.5264, 76.95615
488.0085, 77.21986
488.4906, 77.16365
488.9727, 77.03450
489.4548, 77.26855
489.9370, 77.89315
490.4191, 78.42930
490.9012, 78.73933
491.3833, 78.91927
491.8654, 79.03312
492.3475, 79.09044
492.8297, 79.23092
493.3118, 79.69051
493.7939, 80.17065
494.2760, 80.20608
494.7581, 79.79853
495.2402, 79.39501
495.7224, 79.24756
496.2045, 79.27345
496.6866, 79.20955
497.1687, 78.95976
497.6508, 78.82542
498.1329, 78.94669
498.6151, 79.17927
499.0972, 79.39395
499.5793, 79.55871
500.0614, 79.65290
500.5435, 79.64291
501.0256, 79.53088
501.5078, 79.50778
501.9899, 79.60766
502.4720, 79.75669
502.9541, 79.89134
503.4362, 80.09124
503.9183, 80.45588
504.4004, 81.01223
504.8825, 81.68921
505.3647, 82.34792
505.8468, 82.94425
506.3289, 83.88448
506.8110, 85.38335
507.2931, 86.98703
507.7752, 88.52854
508.2574, 90.03260
508.7395, 91.50447
509.2216, 92.91537
509.7037, 94.38461
510.1858, 96.07070
510.6679, 97.96547
511.1501, 100.0003
511.6322, 102.1915
512.1143, 104.4630
512.5964, 106.6920
513.0786, 108.8921
513.5607, 111.2405
514.0428, 113.8592
514.5249, 116.5683
515.0070, 119.2441
515.4891, 121.8727
515.9713, 124.3428
516.4534, 126.5783
516.9355, 128.7238
517.4176, 131.0816
517.8997, 133.7438
518.3818, 136.4404
518.8640, 139.0786
519.3461, 141.8432
519.8282, 145.0073
520.3103, 148.4530
520.7924, 151.7854
521.2745, 154.7302
521.7567, 157.3529
522.2388, 159.8495
522.7209, 162.2713
523.2030, 164.4693
523.6851, 166.5096
524.1672, 168.2939
524.6494, 169.9079
525.1315, 171.2663
525.6136, 171.9566
526.0957, 171.7057
526.5778, 170.5388
527.0599, 168.4493
527.5421, 165.3350
528.0242, 161.6895
528.5063, 157.7345
528.9884, 153.3280
529.4705, 148.1852
529.9526, 142.1934
530.4348, 135.9823
530.9169, 129.7704
531.3990, 123.6147
531.8811, 117.5224
532.3632, 111.4752
532.8453, 105.8224
533.3275, 100.8585
533.8096, 96.53718
534.2917, 92.57439
534.7738, 88.97980
535.2559, 85.63179
535.7380, 82.42827
536.2202, 79.50792
536.7023, 77.05721
537.1844, 75.10927
537.6665, 73.50086
538.1486, 72.10242
538.6307, 70.91648
539.1129, 69.87700
539.5950, 69.08029
540.0771, 68.32020
540.5592, 67.56821
541.0413, 66.82201
541.5234, 66.05872
542.0056, 65.27672
542.4877, 64.55562
542.9698, 64.01272
543.4519, 63.62288
543.9340, 63.17572
544.4161, 62.58907
544.8983, 62.10828
545.3804, 61.95959
545.8625, 62.01941
546.3446, 62.07224
546.8267, 62.11042
547.3088, 62.09801
547.7910, 61.96058
548.2731, 61.76870
548.7552, 61.70357
549.2373, 61.80679
549.7194, 61.84761
550.2015, 61.55092
550.6837, 60.90185
551.1658, 60.57798
551.6479, 60.91598
552.1300, 61.12511
552.6121, 60.87526
553.0942, 60.42443
553.5764, 60.09013
554.0585, 59.96360
554.5406, 59.94806
555.0227, 59.95502
555.5048, 59.99224
555.9869, 59.91870
556.4691, 59.68965
556.9512, 59.40424
557.4333, 59.10919
557.9154, 58.78052
558.3975, 58.35718
558.8796, 57.80711
559.3618, 57.30148
559.8439, 57.07668
560.3260, 57.03833
560.8081, 56.81767
561.2902, 56.33788
561.7723, 55.79059
562.2545, 55.29271
562.7366, 54.84583
563.2187, 54.43064
563.7008, 54.11207
564.1829, 53.74370
564.6650, 53.22979
565.1472, 52.65166
565.6293, 52.06733
566.1114, 51.51001
566.5935, 51.10637
567.0756, 51.01854
567.5577, 51.24423
568.0399, 51.25349
568.5220, 50.92865
569.0041, 50.51133
569.4862, 49.83669
569.9683, 49.20055
570.4504, 48.96321
570.9326, 49.16349
571.4147, 49.45359
571.8968, 49.48058
572.3789, 49.29207
572.8610, 49.22802
573.3431, 49.36354
573.8253, 49.40275
574.3074, 49.05423
574.7895, 48.58796
575.2716, 48.40819
575.7537, 48.60445
576.2358, 48.82894
576.7180, 48.89979
577.2001, 48.90673
577.6822, 48.98741
578.1643, 49.14966
578.6464, 49.29962
579.1285, 49.37059
579.6107, 49.38065
580.0928, 49.40788
580.5749, 49.40484
581.0570, 49.48613
581.5391, 49.85097
582.0212, 50.15676
582.5034, 50.04403
582.9855, 49.58458
583.4676, 49.15881
583.9497, 49.03080
584.4318, 49.14920
584.9139, 49.41906
585.3961, 49.97832
585.8782, 50.20606
586.3602, 49.63948
586.8423, 48.92934
587.3245, 48.55830
587.8066, 48.52764
588.2887, 48.65581
588.7708, 48.99361
589.2529, 49.36305
589.7350, 49.54807
590.2172, 49.56710
590.6993, 49.52038
591.1814, 49.42309
591.6635, 49.36104
592.1456, 49.50307
592.6277, 49.97482
593.1099, 50.21428
593.5920, 49.99061
594.0741, 49.77220
594.5562, 49.80671
595.0383, 50.01682
595.5204, 50.25092
596.0026, 50.44301
596.4847, 50.58821
596.9668, 50.68334
597.4489, 50.73021
597.9310, 50.70578
598.4131, 50.56388
598.8953, 50.41044
599.3774, 50.25438
599.8595, 50.13287
600.3416, 50.13109
600.8237, 50.31787
601.3058, 50.48497
601.7880, 50.45413
602.2701, 50.28267
602.7522, 50.06620
603.2343, 49.81389
603.7164, 49.69303
604.1985, 49.89497
604.6807, 50.35685
605.1628, 50.55148
605.6449, 50.33511
606.1270, 50.08218
606.6091, 49.77308
607.0912, 49.50711
607.5734, 49.43934
608.0555, 49.53729
608.5376, 49.58286
609.0197, 49.38622
609.5018, 49.01273
609.9839, 48.71846
610.4661, 48.50256
610.9482, 48.37511
611.4303, 48.45480
611.9124, 48.53345
612.3945, 48.43113
612.8766, 48.16156
613.3588, 47.89205
613.8409, 47.71407
614.3230, 47.55776
614.8051, 47.36737
615.2872, 47.13536
615.7693, 46.80269
616.2515, 46.32410
616.7336, 45.86677
617.2157, 45.71434
617.6978, 46.00328
618.1799, 45.93076
618.6620, 45.10066
619.1442, 44.38420
619.6263, 44.27364
620.1084, 44.42412
620.5905, 44.29660
621.0726, 43.73237
621.5547, 43.06515
622.0369, 42.71334
622.5190, 42.66123
623.0011, 42.52788
623.4832, 42.28774
623.9653, 42.01667
624.4474, 41.70716
624.9296, 41.41052
625.4117, 41.22261
625.8938, 41.18768
626.3759, 41.08228
626.8580, 40.68695
627.3401, 40.23705
627.8223, 40.05008
628.3044, 40.11136
628.7865, 40.18252
629.2686, 40.12724
629.7507, 39.99664
630.2328, 39.92552
630.7150, 39.98107
631.1971, 39.96137
631.6792, 39.81208
632.1613, 39.65135
632.6434, 39.56270
633.1255, 39.50337
633.6077, 39.35133
634.0898, 39.02916
634.5719, 38.72718
635.0540, 38.77543
635.5361, 39.11957
636.0182, 39.25966
636.5004, 39.10252
636.9825, 38.80193
637.4646, 38.37510
637.9467, 37.89449
638.4288, 37.64058
638.9109, 37.70398
639.3931, 37.85397
639.8752, 38.09867
640.3573, 38.34537
640.8394, 38.50739
641.3215, 38.56959
641.8036, 38.52879
642.2858, 38.37197
642.7679, 38.13862
643.2500, 37.96291
643.7321, 37.84301
644.2142, 37.78725
644.6964, 37.89074
645.1785, 37.97673
645.6606, 37.91273
646.1427, 37.74603
646.6248, 37.29150
647.1069, 37.73983
647.5891, 37.97130
648.0712, 37.99760
648.5533, 37.20414
649.0354, 37.46922
649.5175, 37.31008
649.9996, 37.13356
650.4818, 37.54762
650.9639, 36.87338
651.4460, 37.27809
651.9281, 37.25210
652.4102, 37.42323
652.8923, 37.16753
653.3745, 37.04364
653.8566, 37.34674
654.3387, 37.41343
654.8208, 37.10859
655.3029, 37.29224
655.7850, 36.60310
656.2672, 36.67984
656.7493, 37.08704
657.2314, 36.73004
657.7135, 36.98457
658.1956, 37.20638
658.6777, 37.09603
659.1599, 36.72694
659.6420, 36.51240
660.1241, 36.61506
660.6062, 36.76900
661.0883, 36.89644
661.5704, 36.97267
662.0526, 36.93850
662.5347, 36.79543
663.0168, 36.64028
663.4989, 36.56401
663.9810, 36.55580
664.4631, 36.52915
664.9453, 36.45903
665.4274, 36.42338
665.9095, 36.42073
666.3916, 36.47320
666.8737, 36.66004
667.3558, 36.94143
667.8380, 37.10997
668.3201, 37.00680
668.8022, 36.81458
669.2843, 36.70106
669.7664, 36.65051
670.2485, 36.60570
670.7307, 36.54972
671.2128, 36.53714
671.6949, 36.64147
672.1770, 36.86129
672.6591, 36.99070
673.1412, 37.01660
673.6234, 36.96281
674.1055, 36.71868
674.5876, 36.47503
675.0697, 36.40615
675.5518, 36.51119
676.0339, 36.66578
676.5161, 36.80721
676.9982, 36.92754
677.4803, 37.04189
677.9624, 37.14356
678.4445, 37.07778
678.9266, 36.73957
679.4088, 36.39021
679.8909, 36.33492
680.3730, 36.57238
680.8551, 36.64394
681.3372, 36.40763
681.8193, 36.18542
682.3015, 36.06346
682.7836, 36.00798
683.2657, 36.00440
683.7478, 36.03366
684.2299, 36.04123
684.7120, 35.97184
685.1942, 35.86715
685.6763, 35.85072
686.1584, 35.92929
686.6405, 36.05826
687.1226, 36.27911
687.6047, 36.47907
688.0869, 36.55070
688.5690, 36.51406
689.0511, 36.43560
689.5332, 36.22858
690.0153, 36.09383
690.4974, 36.17461
690.9796, 36.35551
691.4617, 36.51343
691.9438, 36.61442
692.4259, 36.62820
692.9080, 36.51155
693.3901, 36.32676
693.8723, 36.33966
694.3544, 36.65724
694.8365, 36.83339
695.3186, 36.68300
695.8007, 36.49363
696.2828, 36.50023
696.7650, 36.61707
697.2471, 36.57792
697.7292, 36.18450
698.2113, 35.84415
698.6934, 35.93102
699.1755, 36.20395
699.6577, 36.23394
700.1398, 35.98711
700.6219, 35.75447
701.1040, 35.74805
701.5861, 35.89996
702.0682, 35.98669
702.5504, 36.00733
703.0325, 35.96355
703.5146, 35.78160
703.9967, 35.60597
704.4788, 35.48859
704.9609, 35.42934
705.4431, 35.44148
705.9252, 35.56328
706.4073, 35.63282
706.8894, 35.43529
707.3715, 35.12916
707.8536, 35.01591
708.3358, 35.12160
708.8179, 35.34918
709.3000, 35.67344
709.7821, 35.99261
710.2642, 36.02749
710.7463, 35.55759
711.2285, 35.31370
711.7106, 35.51308
712.1927, 35.69380
712.6748, 35.66491
713.1569, 35.49867
713.6390, 35.27287
714.1212, 35.00067
714.6033, 34.85094
715.0854, 35.07654
715.5675, 35.47862
716.0496, 35.65614
716.5317, 35.60022
717.0139, 35.47068
717.4960, 35.32580
717.9781, 35.19584
718.4602, 35.13420
718.9423, 35.15833
719.4244, 35.18118
719.9066, 35.20091
720.3887, 35.22135
720.8708, 35.24556
721.3529, 35.26985
721.8350, 35.30880
722.3171, 35.35679
722.7993, 35.34848
723.2814, 35.13904
723.7635, 34.88552
724.2456, 34.92725
724.7277, 35.22606
725.2098, 35.45406
725.6920, 35.49907
726.1741, 35.45979
726.6562, 35.44788
727.1383, 35.46565
727.6204, 35.45536
728.1025, 35.42536
728.5847, 35.35750
729.0668, 35.17754
729.5489, 35.01025
730.0310, 34.95015
730.5131, 35.00887
730.9952, 35.17842
731.4774, 35.51628
731.9595, 35.86585
732.4416, 36.01532
732.9237, 35.98236
733.4058, 35.79911
733.8879, 35.45000
734.3701, 35.17545
734.8522, 35.18554
735.3343, 35.42805
735.8164, 35.63225
736.2985, 35.83259
736.7806, 35.93896
737.2628, 35.90833
737.7449, 35.82474
738.2270, 35.70720
738.7091, 35.58256
739.1912, 35.49678
739.6733, 35.46959
740.1555, 35.46732
740.6376, 35.44303
741.1197, 35.41899
741.6018, 35.49259
742.0839, 35.66645
742.5660, 35.73044
743.0482, 35.53605
743.5303, 35.25248
744.0124, 35.23843
744.4945, 35.63745
744.9766, 35.84539
745.4587, 35.74043
745.9409, 35.59881
746.4230, 35.49010
746.9051, 35.40700
747.3872, 35.30893
747.8693, 35.19710
748.3514, 35.17340
748.8336, 35.40019
749.3157, 35.70398
749.7978, 35.80662
750.2799, 35.73974
750.7620, 35.65614
751.2441, 35.60071
751.7263, 35.57148
752.2084, 35.55220
752.6905, 35.54726
753.1726, 35.70970
753.6547, 36.26369
754.1368, 36.64075
754.6190, 36.70692
755.1011, 36.63645
755.5832, 36.47755
756.0653, 36.28493
756.5474, 36.19755
757.0295, 36.32021
757.5117, 36.46295
757.9938, 36.44984
758.4759, 36.34101
758.9580, 36.22467
759.4401, 36.12446
759.9222, 36.10390
760.4044, 36.21032
760.8865, 36.40093
761.3686, 36.58226
761.8507, 36.79195
762.3328, 36.87375
762.8149, 36.68251
763.2971, 36.54328
763.7792, 36.62311
764.2613, 36.81025
764.7434, 36.97164
765.2255, 37.09033
765.7076, 37.14143
766.1898, 37.08431
766.6719, 36.97833
767.1540, 36.79317
767.6361, 36.61477
768.1182, 36.67956
768.6003, 37.04962
769.0825, 37.52367
769.5646, 37.91604
770.0467, 38.20922
770.5288, 38.15672
771.0109, 37.54879
771.4930, 37.26995
771.9752, 37.77745
772.4573, 38.41888
772.9394, 38.60090
773.4215, 38.42817
773.9036, 38.33559
774.3857, 38.44806
774.8679, 38.56604
775.3500, 38.59154
775.8321, 38.59775
776.3142, 38.63140
776.7963, 38.71710
777.2784, 38.91682
777.7606, 39.27209
778.2427, 39.66540
778.7248, 39.89116
779.2069, 39.96144
779.6890, 40.06455
780.1711, 40.22237
780.6533, 40.37224
781.1354, 40.50116
781.6175, 40.58707
782.0996, 40.54890
782.5817, 40.31173
783.0638, 40.31731
783.5460, 40.82772
784.0281, 41.30285
784.5102, 41.40025
784.9923, 41.41782
785.4744, 41.76822
785.9565, 42.47017
786.4387, 43.16668
786.9208, 43.63263
787.4029, 43.92398
787.8850, 44.01869
788.3671, 43.99007
788.8492, 44.26830
789.3314, 44.96063
789.8135, 45.69712
790.2956, 46.18924
790.7777, 46.48883
791.2598, 46.79544
791.7419, 46.96717
792.2241, 47.41640
792.7062, 48.33902
793.1883, 49.33300
793.6704, 50.23706
794.1525, 51.08626
794.6346, 51.93977
795.1168, 52.81272
795.5989, 53.69267
796.0810, 54.50043
796.5631, 55.35856
797.0452, 56.47941
797.5273, 57.77302
798.0095, 58.95235
798.4916, 59.92990
798.9737, 60.88708
799.4558, 62.02752
799.9379, 63.32597
800.4200, 64.53042
800.9022, 65.54890
801.3843, 66.79809
801.8664, 68.52693
802.3485, 70.30978
802.8306, 71.69930
803.3127, 72.84617
803.7949, 74.27029
804.2770, 76.22733
804.7591, 78.08066
805.2412, 79.58023
805.7233, 80.94843
806.2054, 82.26568
806.6876, 83.62431
807.1697, 85.24829
807.6518, 87.21825
808.1339, 89.19348
808.6160, 90.68381
809.0981, 91.87279
809.5803, 93.44084
810.0624, 95.40524
810.5445, 97.28419
811.0266, 98.89672
811.5087, 100.3945
811.9908, 101.9576
812.4730, 103.5948
812.9551, 105.2260
813.4372, 106.8716
813.9193, 108.4882
814.4014, 110.1611
814.8835, 111.7291
815.3657, 112.9560
815.8478, 113.9891
816.3299, 115.2951
816.8120, 117.1807
817.2941, 118.8977
817.7762, 119.9339
818.2584, 120.4864
818.7405, 120.6349
819.2226, 120.5331
819.7047, 120.6768
820.1868, 121.2805
820.6689, 121.9341
821.1511, 122.0801
821.6332, 121.7358
822.1153, 121.2236
822.5974, 120.5260
823.0795, 119.7248
823.5616, 118.8418
824.0438, 117.8667
824.5259, 116.7879
825.0080, 115.6020
825.4901, 114.2939
825.9722, 112.7104
826.4543, 111.2204
826.9365, 109.9720
827.4186, 108.7780
827.9007, 107.5743
828.3828, 106.2932
828.8649, 104.8158
829.3470, 103.0852
829.8292, 101.2350
830.3113, 99.27955
830.7934, 97.34434
831.2755, 95.74118
831.7576, 94.44398
832.2397, 93.21329
832.7219, 91.95384
833.2040, 90.73252
833.6861, 89.62451
834.1682, 88.62955
834.6503, 87.79960
835.1324, 87.19599
835.6146, 86.61449
836.0967, 85.98478
836.5788, 85.40774
837.0609, 84.93802
837.5430, 84.57023
838.0251, 84.26818
838.5073, 83.95528
838.9894, 83.87514
839.4715, 84.36673
839.9536, 84.89259
840.4357, 84.97701
840.9178, 84.76897
841.4000, 84.57837
841.8821, 84.51877
842.3642, 84.62231
842.8463, 85.01121
843.3284, 85.54391
843.8105, 85.81876
844.2927, 85.87593
844.7748, 86.12137
845.2569, 86.67532
845.7390, 87.29839
846.2211, 87.81151
846.7032, 88.20362
847.1854, 88.40283
847.6675, 88.15771
848.1496, 88.27370
848.6317, 89.17039
849.1138, 90.00195
849.5959, 90.43088
850.0781, 90.56116
850.5602, 90.51258
851.0423, 90.28446
851.5244, 90.06355
852.0065, 89.97820
852.4886, 89.85415
852.9708, 89.53651
853.4529, 89.12090
853.9350, 88.72964
854.4171, 88.39768
854.8992, 88.13113
855.3813, 87.93539
855.8635, 87.80446
856.3456, 87.67144
856.8277, 87.57691
857.3098, 87.83064
857.7919, 88.48738
858.2740, 89.03892
858.7562, 89.15357
859.2383, 89.12732
859.7204, 89.51526
860.2025, 90.38795
860.6846, 91.27790
861.1667, 92.08828
861.6489, 93.06301
862.1310, 94.22710
862.6131, 95.60880
863.0952, 97.26737
863.5773, 99.17453
864.0594, 101.2127
864.5416, 103.3602
865.0237, 105.6438
865.5058, 108.1334
865.9879, 110.7075
866.4700, 113.1862
866.9521, 115.6502
867.4343, 118.3104
867.9164, 121.2395
868.3985, 124.4099
868.8806, 127.8066
869.3627, 131.3937
869.8448, 135.1608
870.3270, 139.0884
870.8091, 142.9068
871.2912, 146.5261
871.7733, 150.2365
872.2554, 154.3532
872.7375, 158.7729
873.2197, 163.0093
873.7018, 166.9568
874.1839, 171.0203
874.6660, 175.3128
875.1481, 179.6411
875.6302, 184.0765
876.1124, 188.4388
876.5945, 192.4165
877.0766, 195.9543
877.5587, 199.4922
878.0408, 203.4864
878.5229, 207.0801
879.0051, 209.8603
879.4872, 212.0723
879.9693, 214.1171
880.4514, 215.9338
880.9335, 217.0710
881.4156, 217.3072
881.8978, 216.7515
882.3799, 215.5997
882.8620, 213.7183
883.3441, 210.8458
883.8262, 206.9734
884.3083, 202.0396
884.7905, 196.0194
885.2726, 189.3564
885.7547, 182.6448
886.2368, 175.8633
886.7189, 168.7076
887.2010, 161.1306
887.6832, 153.5475
888.1653, 145.9118
888.6474, 138.6436
889.1295, 132.1631
889.6116, 126.3061
890.0938, 120.4826
890.5759, 114.4469
891.0580, 108.9580
891.5401, 104.2182
892.0222, 99.81226
892.5043, 95.57087
892.9865, 91.55209
893.4686, 87.79209
893.9507, 84.30595
894.4328, 81.26854
894.9149, 79.00276
895.3970, 76.92675
895.8792, 74.60746
896.3613, 72.23125
896.8434, 70.01894
897.3255, 68.00041
897.8076, 66.17732
898.2897, 64.54298
898.7719, 63.01453
899.2540, 61.46575
899.7361, 59.91799
900.2182, 58.40121
900.7003, 56.91798
901.1824, 55.63337
901.6646, 54.60640
902.1467, 53.69075
902.6288, 52.76085
903.1109, 51.81604
903.5930, 50.83410
904.0751, 49.72931
904.5573, 48.83813
905.0394, 48.31907
905.5215, 47.81112
906.0036, 47.05806
906.4857, 46.24966
906.9678, 45.71873
907.4500, 45.50768
907.9321, 45.18298
908.4142, 44.58093
908.8963, 43.99815
909.3784, 43.58622
909.8605, 43.20025
910.3427, 42.64930
910.8248, 42.00108
911.3069, 41.49052
911.7890, 41.22223
912.2711, 41.02888
912.7532, 40.85707
913.2354, 40.63700
913.7175, 40.18895
914.1996, 39.62914
914.6817, 39.31006
915.1638, 39.30093
915.6459, 39.26331
916.1280, 38.85622
916.6101, 38.29685
917.0922, 38.20709
917.5743, 38.51421
918.0565, 38.45226
918.5386, 37.90137
919.0207, 37.30749
919.5028, 36.88802
919.9849, 36.64368
920.4670, 36.60106
920.9492, 36.78054
921.4313, 36.91637
921.9134, 37.05703
922.3955, 37.04007
922.8776, 36.69412
923.3597, 36.32611
923.8419, 36.19414
924.3240, 36.23859
924.8061, 36.30147
925.2882, 36.46071
925.7703, 36.43987
926.2524, 35.99554
926.7346, 35.58887
927.2167, 35.44616
927.6988, 35.47772
928.1809, 35.59855
928.6630, 35.77531
929.1451, 35.93048
929.6273, 36.01044
930.1094, 36.08549
930.5915, 36.27280
931.0736, 36.44396
931.5557, 36.35262
932.0378, 36.09449
932.5200, 36.03172
933.0021, 36.29417
933.4842, 36.56027
933.9663, 36.43864
934.4484, 36.10344
934.9305, 35.97744
935.4127, 36.02535
935.8948, 36.06588
936.3769, 36.06163
936.8590, 36.02417
937.3411, 35.95632
937.8232, 35.88051
938.3054, 35.88028
938.7875, 35.98408
939.2696, 35.82587
939.7517, 35.29776
940.2338, 34.90609
940.7159, 34.84239
941.1981, 34.93681
941.6802, 35.04658
942.1623, 35.16541
942.6444, 35.24306
943.1265, 35.31756
943.6086, 35.28617
944.0908, 35.06547
944.5729, 34.83579
945.0550, 34.72783
945.5371, 34.62251
946.0192, 34.33140
946.5013, 33.84676
946.9835, 33.42094
947.4656, 33.04652
947.9477, 32.83311
948.4298, 32.98872
948.9119, 33.19043
949.3940, 33.14226
949.8762, 32.89626
950.3583, 32.60037
950.8404, 32.29900
951.3225, 32.11649
951.8046, 32.29645
952.2867, 32.50775
952.7689, 32.27300
953.2510, 31.83214
953.7331, 31.68940
954.2152, 31.88743
954.6973, 32.12676
955.1794, 32.23433
955.6616, 32.25510
956.1437, 32.25269
956.6258, 32.21908
957.1079, 32.04385
957.5900, 31.76166
958.0721, 31.81156
958.5543, 32.33862
959.0364, 32.89978
959.5185, 33.08507
960.0006, 32.98890
960.4827, 32.89979
960.9648, 32.80276
961.4470, 32.86190
961.9291, 33.11626
962.4112, 33.43574
962.8933, 33.80737
963.3754, 34.13788
963.8575, 34.30505
964.3397, 34.31098
964.8218, 34.22874
965.3039, 33.88903
965.7860, 33.77562
966.2681, 34.12983
966.7502, 34.50055
967.2324, 34.66847
967.7145, 34.69944
968.1966, 34.66850
968.6787, 34.56454
969.1608, 34.54642
969.6429, 34.68131
970.1251, 34.84517
970.6072, 35.02749
971.0893, 35.19875
971.5714, 35.32680
972.0535, 35.42730
972.5356, 35.56091
973.0178, 35.76008
973.4999, 35.85693
973.9820, 35.60324
974.4641, 35.38838
974.9462, 35.57875
975.4283, 35.95445
975.9105, 36.25208
976.3926, 36.41076
976.8747, 36.39916
977.3568, 36.16773
977.8389, 35.96215
978.3210, 36.07757
978.8032, 36.33568
979.2853, 36.50093
979.7674, 36.56647
980.2495, 36.51453
980.7316, 36.36707
981.2137, 36.28815
981.6959, 36.41542
982.1780, 36.62514
982.6601, 36.68272
983.1422, 36.62763
983.6243, 36.62571
984.1064, 36.68427
984.5886, 36.77394
985.0707, 36.88772
985.5528, 36.91854
986.0349, 36.73948
986.5170, 36.41601
986.9991, 36.15470
987.4813, 35.94352
987.9634, 36.03023
988.4455, 36.49628
988.9276, 36.96220
989.4097, 37.27971
989.8918, 37.45426
990.3740, 37.48213
990.8561, 37.36937
991.3382, 37.22094
991.8203, 36.94851
992.3024, 36.88508
992.7845, 37.15910
993.2667, 37.50048
993.7488, 37.85342
994.2309, 38.12317
994.7130, 38.11783
995.1951, 37.79881
995.6772, 37.55487
996.1594, 37.38475
996.6415, 37.28854
997.1236, 37.34668
997.6057, 37.39715
998.0878, 37.32817
998.5699, 37.18899
999.0521, 37.07497
999.5342, 37.00023
1000.016, 36.90948
1000.498, 36.69733
1000.981, 36.59064
1001.463, 36.84193
1001.945, 37.08311
1002.427, 37.05787
1002.909, 36.75593
1003.391, 36.15045
1003.873, 35.18923
1004.355, 34.37403
1004.837, 33.97602
1005.320, 33.73803
1005.802, 33.60944
1006.284, 33.46462
1006.766, 33.15351
1007.248, 32.69268
1007.730, 32.18616
1008.212, 31.66926
1008.694, 31.13745
1009.177, 30.49389
1009.659, 29.91677
1010.141, 29.65411
1010.623, 29.56087
1011.105, 29.38809
1011.587, 29.10830
1012.069, 28.81783
1012.551, 28.56054
1013.033, 28.35628
1013.516, 28.20416
1013.998, 28.13279
1014.480, 28.30071
1014.962, 28.57620
1015.444, 28.53724
1015.926, 28.14485
1016.408, 27.77194
1016.890, 27.66306
1017.372, 27.65026
1017.855, 27.45241
1018.337, 27.15287
1018.819, 27.05096
1019.301, 27.11481
1019.783, 27.08765
1020.265, 26.91079
1020.747, 26.73982
1021.229, 26.69251
1021.712, 26.72568
1022.194, 26.78232
1022.676, 26.85071
1023.158, 26.81421
1023.640, 26.67055
1024.122, 26.51217
1024.604, 26.36170
1025.086, 26.26596
1025.568, 26.27830
1026.051, 26.33671
1026.533, 26.25670
1027.015, 26.02738
1027.497, 25.91109
1027.979, 25.93651
1028.461, 25.89351
1028.943, 25.68644
1029.425, 25.52546
1029.908, 25.63379
1030.390, 25.88859
1030.872, 25.86133
1031.354, 25.47612
1031.836, 25.17919
1032.318, 24.95808
1032.800, 24.88846
1033.282, 25.04379
1033.765, 25.26453
1034.247, 25.43495
1034.729, 25.53431
1035.211, 25.45372
1035.693, 25.05342
1036.175, 24.90966
1036.657, 25.16239
1037.139, 25.39243
1037.621, 25.49500
1038.104, 25.48637
1038.586, 25.32189
1039.068, 25.06309
1039.550, 24.98547
1040.032, 25.22173
1040.514, 25.31673
1040.996, 25.16910
1041.478, 25.02909
1041.960, 24.97284
1042.443, 24.95118
1042.925, 24.90469
1043.407, 24.85342
1043.889, 24.89407
1044.371, 25.13988
1044.853, 25.22025
1045.335, 24.99695
1045.817, 24.77691
1046.300, 24.57067
1046.782, 24.47334
1047.264, 24.67371
1047.746, 25.05770
1048.228, 25.20479
1048.710, 24.98586
1049.192, 24.79609
1049.674, 24.64839
1050.156, 24.57480
1050.639, 24.65390
1051.121, 24.75476
1051.603, 24.74210
1052.085, 24.65262
1052.567, 24.62355
1053.049, 24.69071
1053.531, 24.75734
1054.013, 24.86865
1054.495, 24.89683
1054.978, 24.69128
1055.460, 24.46393
1055.942, 24.45243
1056.424, 24.57738
1056.906, 24.55870
1057.388, 24.28947
1057.870, 24.14467
1058.352, 24.34760
1058.835, 24.54150
1059.317, 24.55121
1059.799, 24.49896
1060.281, 24.52045
1060.763, 24.57442
1061.245, 24.51429
1061.727, 24.28546
1062.209, 24.12300
1062.692, 24.12203
1063.174, 24.18427
1063.656, 24.34985
1064.138, 24.48546
1064.620, 24.43878
1065.102, 24.27259
1065.584, 24.12521
1066.066, 24.02036
1066.548, 24.02120
1067.031, 24.28908
1067.513, 24.49417
1067.995, 24.46950
1068.477, 24.31999
1068.959, 24.03103
1069.441, 23.73043
1069.923, 23.66742
1070.405, 23.89084
1070.887, 24.12313
1071.370, 24.35467
1071.852, 24.43081
1072.334, 24.09431
1072.816, 23.73644
1073.298, 23.76552
1073.780, 23.99957
1074.262, 24.04232
1074.744, 23.83628
1075.227, 23.70203
1075.709, 23.84195
1076.191, 23.99093
1076.673, 24.02113
1077.155, 24.01034
1077.637, 23.99572
1078.119, 23.99747
1078.601, 24.04977
1079.083, 24.14903
1079.566, 24.23378
1080.048, 24.29992
1080.530, 24.31033
1081.012, 24.20639
1081.494, 24.08209
1081.976, 23.98113
1082.458, 23.92251
1082.940, 23.93159
1083.422, 24.00509
1083.905, 24.11171
1084.387, 24.24566
1084.869, 24.39841
1085.351, 24.68957
1085.833, 24.86332
1086.315, 24.62106
1086.797, 24.24349
1087.279, 24.08676
1087.761, 24.13647
1088.244, 24.15354
1088.726, 24.04954
1089.208, 23.97546
1089.690, 24.05370
1090.172, 24.11204
1090.654, 23.98795
1091.136, 23.83829
1091.618, 23.82103
1092.101, 23.92839
1092.583, 24.12916
1093.065, 24.44597
1093.547, 24.59164
1094.029, 24.23167
1094.511, 23.95629
1094.993, 24.16595
1095.475, 24.48782
1095.958, 24.59471
1096.440, 24.54368
1096.922, 24.51278
1097.404, 24.53635
1097.886, 24.51860
1098.368, 24.45611
1098.850, 24.30926
1099.332, 23.85961
1099.814, 23.52407
1100.297, 23.75430
1100.779, 24.22875
1101.261, 24.41600
1101.743, 24.27056
1102.225, 24.13576
1102.707, 24.09998
1103.189, 24.08162
1103.671, 24.04657
1104.153, 24.03854
1104.636, 24.07012
1105.118, 24.15096
1105.600, 24.35557
1106.082, 24.63617
1106.564, 24.72717
1107.046, 24.49250
1107.528, 24.27287
1108.010, 24.10837
1108.493, 23.99298
1108.975, 23.87683
1109.457, 23.84735
1109.939, 24.06085
1110.421, 24.42365
1110.903, 24.65159
1111.385, 24.71837
1111.867, 24.65808
1112.349, 24.35042
1112.832, 24.08717
1113.314, 23.94875
1113.796, 23.86631
1114.278, 23.78650
1114.760, 23.72979
1115.242, 23.75013
1115.724, 23.86170
1116.206, 23.94740
1116.688, 24.01822
1117.171, 24.04456
1117.653, 23.99021
1118.135, 23.93450
1118.617, 23.92542
1119.099, 23.92842
1119.581, 23.89351
1120.063, 23.82404
1120.545, 23.77496
1121.028, 23.75794
1121.510, 23.73303
1121.992, 23.68697
1122.474, 23.65708
1122.956, 23.66392
1123.438, 23.68496
1123.920, 23.72168
1124.402, 23.74277
1124.885, 23.60706
1125.367, 23.22610
1125.849, 23.09722
1126.331, 23.31483
1126.813, 23.48206
1127.295, 23.52225
1127.777, 23.40132
1128.259, 23.01972
1128.741, 22.61156
1129.224, 22.68427
1129.706, 23.22563
1130.188, 23.46727
1130.670, 23.37065
1131.152, 23.27336
1131.634, 23.22293
1132.116, 23.18640
1132.598, 23.13655
1133.080, 23.16367
1133.563, 23.42165
1134.045, 23.80223
1134.527, 23.83442
1135.009, 23.53766
1135.491, 23.29142
1135.973, 23.12619
1136.455, 23.05642
1136.937, 23.08694
1137.420, 23.17274
1137.902, 23.29286
1138.384, 23.37302
1138.866, 23.20868
1139.348, 22.88520
1139.830, 22.75472
1140.312, 22.79025
1140.794, 22.80033
1141.276, 22.75643
1141.759, 22.78044
1142.241, 22.94085
1142.723, 23.12757
1143.205, 23.23393
1143.687, 23.25771
1144.169, 23.13567
1144.651, 22.94843
1145.133, 22.91294
1145.615, 22.99412
1146.098, 22.97923
1146.580, 22.80498
1147.062, 22.60237
1147.544, 22.43698
1148.026, 22.35254
1148.508, 22.45489
1148.990, 22.61810
1149.472, 22.70328
1149.955, 22.71277
1150.437, 22.66159
1150.919, 22.56351
1151.401, 22.43579
1151.883, 22.26637
1152.365, 22.17671
1152.847, 22.32242
1153.329, 22.48825
1153.812, 22.50233
1154.294, 22.46072
1154.776, 22.49271
1155.258, 22.55979
1155.740, 22.54646
1156.222, 22.42705
1156.704, 22.26893
1157.186, 21.94906
1157.668, 21.80138
1158.151, 22.11276
1158.633, 22.44120
1159.115, 22.50231
1159.597, 22.41501
1160.079, 22.30990
1160.561, 22.21189
1161.043, 22.21518
1161.525, 22.48629
1162.007, 22.52942
1162.490, 21.98849
1162.972, 21.66407
1163.454, 21.91840
1163.936, 22.29845
1164.418, 22.52239
1164.900, 22.60630
1165.382, 22.57651
1165.864, 22.42447
1166.347, 22.23426
1166.829, 21.93850
1167.311, 21.81367
1167.793, 21.92944
1168.275, 22.14048
1168.757, 22.42960
1169.239, 22.64645
1169.721, 22.59991
1170.203, 22.35485
1170.686, 22.15149
1171.168, 21.98538
1171.650, 22.01139
1172.132, 22.23991
1172.614, 22.51318
1173.096, 22.79412
1173.578, 22.89147
1174.060, 22.65251
1174.542, 22.34286
1175.025, 22.42486
1175.507, 22.75346
1175.989, 22.82788
1176.471, 22.71539
1176.953, 22.68075
1177.435, 22.72994
1177.917, 22.68921
1178.399, 22.50373
1178.882, 22.30982
1179.364, 22.19579
1179.846, 22.17766
1180.328, 22.33997
1180.810, 22.56042
1181.292, 22.67936
1181.774, 22.71033
1182.256, 22.67500
1182.739, 22.59966
1183.221, 22.55719
1183.703, 22.58501
1184.185, 22.56561
1184.667, 22.34359
1185.149, 22.15514
1185.631, 22.16239
1186.113, 22.26143
1186.595, 22.38376
1187.078, 22.51051
1187.560, 22.65576
1188.042, 22.80835
1188.524, 22.83302
1189.006, 22.59850
1189.488, 22.41160
1189.970, 22.33813
1190.452, 22.30226
1190.934, 22.21939
1191.417, 22.21380
1191.899, 22.47846
1192.381, 22.86930
1192.863, 23.01432
1193.345, 22.87522
1193.827, 22.77478
1194.309, 22.74164
1194.791, 22.65383
1195.274, 22.45786
1195.756, 22.32831
1196.238, 22.36719
1196.720, 22.44732
1197.202, 22.42558
1197.684, 22.33105
1198.166, 22.22687
1198.648, 22.11992
1199.130, 22.25883
1199.613, 22.62963
1200.095, 22.81997
1200.577, 22.74448
1201.059, 22.58700
1201.541, 22.44977
1202.023, 22.34381
1202.505, 22.29284
1202.987, 22.27028
1203.469, 22.18387
1203.952, 22.10569
1204.434, 22.25193
1204.916, 22.53626
1205.398, 22.66827
1205.880, 22.59332
1206.362, 22.48579
1206.844, 22.43802
1207.326, 22.38677
1207.809, 22.24046
1208.291, 22.12230
1208.773, 22.14931
1209.255, 22.24418
1209.737, 22.33095
1210.219, 22.40697
1210.701, 22.50569
1211.183, 22.63214
1211.666, 22.68865
1212.148, 22.61135
1212.630, 22.52677
1213.112, 22.42005
1213.594, 22.35776
1214.076, 22.41870
1214.558, 22.48862
1215.040, 22.42844
1215.522, 22.31397
1216.005, 22.40109
1216.487, 22.75465
1216.969, 22.74194
1217.451, 22.23436
1217.933, 21.90078
1218.415, 21.87046
1218.897, 21.87767
1219.379, 21.80060
1219.861, 21.70496
1220.344, 21.66031
1220.826, 21.65080
1221.308, 21.62538
1221.790, 21.59763
1222.272, 21.66183
1222.754, 21.79050
1223.236, 21.83107
1223.718, 21.77067
1224.201, 21.72742
1224.683, 21.75692
1225.165, 21.79165
1225.647, 21.75195
1226.129, 21.71209
1226.611, 21.77076
1227.093, 21.86323
1227.575, 21.94617
1228.057, 21.98522
1228.540, 21.88166
1229.022, 21.67877
1229.504, 21.61061
1229.986, 21.78214
1230.468, 21.92806
1230.950, 22.02050
1231.432, 21.98756
1231.914, 21.68427
1232.396, 21.37391
1232.879, 21.22273
1233.361, 21.18207
1233.843, 21.19198
1234.325, 21.24273
1234.807, 21.25533
1235.289, 21.21345
1235.771, 21.19018
1236.253, 21.20150
1236.736, 21.16156
1237.218, 21.03161
1237.700, 20.93754
1238.182, 20.95899
1238.664, 21.05400
1239.146, 21.19051
1239.628, 21.32076
1240.110, 21.23651
1240.593, 21.00929
1241.075, 20.97224
1241.557, 21.09481
1242.039, 21.12868
1242.521, 21.03424
1243.003, 20.99072
1243.485, 21.10123
1243.967, 21.19316
1244.449, 21.07282
1244.932, 20.90950
1245.414, 20.88787
1245.896, 20.88395
1246.378, 20.70093
1246.860, 20.46252
1247.342, 20.41925
1247.824, 20.57229
1248.306, 20.68930
1248.788, 20.68881
1249.271, 20.73299
1249.753, 20.91737
1250.235, 21.05192
1250.717, 21.09144
1251.199, 21.06464
1251.681, 20.98480
1252.163, 20.84271
1252.645, 20.58568
1253.128, 20.26538
1253.610, 20.22703
1254.092, 20.50205
1254.574, 20.69323
1255.056, 20.78841
1255.538, 20.69568
1256.020, 20.40203
1256.502, 20.20894
1256.984, 20.28779
1257.467, 20.45580
1257.949, 20.52778
1258.431, 20.52680
1258.913, 20.45176
1259.395, 20.35696
1259.877, 20.36259
1260.359, 20.41316
1260.841, 20.33034
1261.323, 20.15198
1261.806, 20.16741
1262.288, 20.50830
1262.770, 20.73508
1263.252, 20.52197
1263.734, 20.33218
1264.216, 20.40051
1264.698, 20.49468
1265.180, 20.42786
1265.663, 20.33657
1266.145, 20.46583
1266.627, 20.70329
1267.109, 20.60545
1267.591, 20.06188
1268.073, 19.86767
1268.555, 20.10633
1269.037, 20.30063
1269.520, 20.38282
1270.002, 20.35472
1270.484, 20.20340
1270.966, 20.13062
1271.448, 20.35754
1271.930, 20.65939
1272.412, 20.56452
1272.894, 20.26058
1273.376, 20.21003
1273.859, 20.30602
1274.341, 20.24570
1274.823, 20.06763
1275.305, 20.04928
1275.787, 20.24913
1276.269, 20.38654
1276.751, 20.27126
1277.233, 20.17685
1277.715, 20.29155
1278.198, 20.39642
1278.680, 20.33075
1279.162, 20.23834
1279.644, 20.26467
1280.126, 20.35413
1280.608, 20.40710
1281.090, 20.41898
1281.572, 20.28687
1282.055, 19.94518
1282.537, 19.71849
1283.019, 19.61740
1283.501, 19.68686
1283.983, 19.96185
1284.465, 20.12327
1284.947, 19.96462
1285.429, 19.74206
1285.911, 19.73697
1286.394, 19.95977
##END=



