##NAMES=Andradite
##RRUFFID=R100138
##IDEAL CHEMISTRY=Ca_3_Fe^3+^_2_(SiO_4_)_3_
##LOCALITY=Madagascar
##OWNER=RRUFF
##SOURCE=William W. Pinch
##DESCRIPTION=Colorless cut gemstone
##STATUS=The identification of this mineral has been confirmed only by single crystal X-ray diffraction.
##URL=rruff.info/R100138
91.03516, 7.265402
91.51727, 7.411585
91.99939, 7.321813
92.48151, 7.053213
92.96362, 6.767024
93.44574, 6.516149
93.92786, 6.308917
94.40997, 6.166899
94.89210, 6.098477
95.37421, 6.074506
95.85633, 6.052577
96.33845, 6.033455
96.82056, 6.037667
97.30268, 6.106405
97.78480, 6.228534
98.26691, 6.282180
98.74903, 6.228461
99.23115, 6.114955
99.71326, 6.074359
100.1954, 6.112371
100.6775, 6.202476
101.1596, 6.366623
101.6417, 6.646520
102.1239, 6.780268
102.6060, 6.677470
103.0881, 6.355746
103.5702, 6.149406
104.0523, 6.129638
104.5344, 6.136350
105.0166, 5.976649
105.4987, 5.506256
105.9808, 5.129977
106.4629, 4.964835
106.9450, 5.067513
107.4271, 5.114426
107.9093, 5.035644
108.3914, 4.925940
108.8735, 4.930557
109.3556, 5.316981
109.8377, 5.568329
110.3198, 5.514701
110.8020, 4.930793
111.2841, 4.478531
111.7662, 4.194473
112.2483, 4.055384
112.7304, 4.005124
113.2125, 4.110473
113.6947, 4.250418
114.1768, 4.374522
114.6589, 4.558344
115.1410, 4.619508
115.6231, 4.382104
116.1052, 3.945972
116.5874, 3.686120
117.0695, 4.007620
117.5516, 4.422239
118.0337, 4.553389
118.5158, 3.939799
118.9980, 3.340569
119.4801, 3.132098
119.9622, 3.288088
120.4443, 3.479614
120.9264, 3.484077
121.4085, 3.429057
121.8907, 3.471992
122.3728, 3.858358
122.8549, 4.253165
123.3370, 4.317896
123.8191, 4.030493
124.3012, 3.742176
124.7834, 3.810527
125.2655, 4.091876
125.7476, 4.278918
126.2297, 4.119155
126.7118, 3.809242
127.1939, 3.645302
127.6761, 3.663424
128.1582, 3.737341
128.6403, 3.749004
129.1224, 3.699814
129.6045, 3.596575
130.0867, 3.378993
130.5688, 3.099525
131.0509, 2.939007
131.5330, 2.921000
132.0151, 3.005084
132.4972, 3.188477
132.9794, 3.471526
133.4615, 3.662967
133.9436, 3.557527
134.4257, 3.182384
134.9078, 2.912288
135.3899, 2.779413
135.8721, 2.793804
136.3542, 3.038847
136.8363, 3.563385
137.3184, 4.103456
137.8005, 4.448370
138.2826, 4.586119
138.7648, 4.634155
139.2469, 4.594949
139.7290, 4.478765
140.2111, 4.335011
140.6932, 4.103261
141.1753, 3.953572
141.6575, 4.106042
142.1396, 4.730760
142.6217, 5.190544
143.1038, 5.294505
143.5859, 5.018126
144.0681, 4.898665
144.5502, 4.901450
145.0323, 5.089980
145.5144, 5.605505
145.9965, 6.879227
146.4786, 7.802210
146.9608, 7.995992
147.4429, 7.238511
147.9250, 6.710444
148.4071, 6.363875
148.8892, 6.263342
149.3713, 6.518757
149.8535, 7.634431
150.3356, 8.611967
150.8177, 9.163080
151.2998, 9.080649
151.7819, 9.015504
152.2640, 8.883386
152.7462, 8.776282
153.2283, 8.862420
153.7104, 9.210867
154.1925, 9.705404
154.6746, 10.32813
155.1567, 11.19617
155.6389, 11.96767
156.1210, 12.62195
156.6031, 13.15518
157.0852, 13.56735
157.5673, 13.71747
158.0495, 13.84429
158.5316, 14.06892
159.0137, 14.45841
159.4958, 14.87959
159.9779, 15.29675
160.4600, 15.71953
160.9422, 16.17952
161.4243, 16.70252
161.9064, 17.25756
162.3885, 17.80998
162.8706, 18.18137
163.3527, 18.75772
163.8349, 19.74746
164.3170, 21.10260
164.7991, 22.59357
165.2812, 23.77687
165.7633, 25.19200
166.2454, 27.31766
166.7276, 30.13602
167.2097, 33.85723
167.6918, 38.28194
168.1739, 43.49714
168.6560, 50.53003
169.1381, 59.87121
169.6203, 71.36787
170.1024, 84.26554
170.5845, 98.77817
171.0666, 114.9447
171.5487, 133.8637
172.0309, 155.1763
172.5130, 174.7272
172.9951, 194.8634
173.4772, 210.7572
173.9593, 214.7055
174.4414, 198.5651
174.9236, 172.1163
175.4057, 143.3498
175.8878, 112.0031
176.3699, 84.02487
176.8520, 64.28231
177.3341, 51.20927
177.8163, 41.48913
178.2984, 34.83598
178.7805, 30.30425
179.2626, 26.73423
179.7447, 24.18217
180.2268, 22.26007
180.7090, 20.80489
181.1911, 19.73338
181.6732, 18.81700
182.1553, 17.95252
182.6374, 17.17099
183.1195, 16.57694
183.6017, 16.17495
184.0838, 15.89534
184.5659, 15.67625
185.0480, 15.51097
185.5301, 15.35588
186.0123, 15.15299
186.4944, 14.94005
186.9765, 14.86772
187.4586, 14.96336
187.9407, 15.11047
188.4228, 15.19781
188.9050, 15.21971
189.3871, 15.10013
189.8692, 14.69384
190.3513, 14.07909
190.8334, 13.63792
191.3155, 13.39489
191.7977, 13.31511
192.2798, 13.40472
192.7619, 13.66324
193.2440, 13.89448
193.7261, 14.02268
194.2082, 14.04644
194.6904, 13.92082
195.1725, 13.60238
195.6546, 13.21488
196.1367, 13.02252
196.6188, 13.03874
197.1009, 13.05137
197.5831, 12.87743
198.0652, 12.51672
198.5473, 12.43515
199.0294, 12.74426
199.5115, 13.22081
199.9937, 13.38265
200.4758, 13.18710
200.9579, 12.94484
201.4400, 12.79495
201.9221, 12.73451
202.4042, 12.82174
202.8864, 13.11557
203.3685, 13.50222
203.8506, 13.73432
204.3327, 13.81212
204.8148, 13.73154
205.2969, 13.38616
205.7791, 12.69488
206.2612, 12.35530
206.7433, 12.49950
207.2254, 12.94607
207.7075, 13.23584
208.1896, 13.33472
208.6718, 13.37898
209.1539, 13.45009
209.6360, 13.56496
210.1181, 13.61255
210.6002, 13.56416
211.0823, 13.45799
211.5645, 13.40396
212.0466, 13.41814
212.5287, 13.44672
213.0108, 13.42496
213.4929, 13.28506
213.9750, 13.38805
214.4572, 13.88290
214.9393, 14.58039
215.4214, 14.88892
215.9035, 14.63310
216.3856, 14.34652
216.8678, 14.34237
217.3499, 14.73208
217.8320, 15.02807
218.3141, 15.16339
218.7962, 15.20142
219.2783, 15.31867
219.7605, 15.46801
220.2426, 15.77889
220.7247, 16.36088
221.2068, 17.34997
221.6889, 18.19696
222.1710, 18.77258
222.6532, 19.21412
223.1353, 19.91693
223.6174, 20.89174
224.0995, 22.12254
224.5816, 23.61893
225.0637, 25.47654
225.5459, 27.35816
226.0280, 29.04432
226.5101, 30.79861
226.9922, 33.43265
227.4743, 37.39874
227.9564, 41.56371
228.4386, 45.43815
228.9207, 48.79791
229.4028, 52.19390
229.8849, 55.41011
230.3670, 58.72492
230.8492, 62.90821
231.3313, 67.41396
231.8134, 73.53275
232.2955, 81.93831
232.7776, 92.58529
233.2597, 105.4327
233.7419, 121.2616
234.2240, 139.1080
234.7061, 156.7501
235.1882, 177.4218
235.6703, 193.0014
236.1524, 200.4626
236.6346, 200.0058
237.1167, 190.1137
237.5988, 166.8223
238.0809, 135.5993
238.5630, 108.3282
239.0451, 84.90321
239.5273, 65.89598
240.0094, 51.90428
240.4915, 44.34863
240.9736, 38.10250
241.4557, 33.27683
241.9378, 29.66125
242.4200, 26.90313
242.9021, 25.29778
243.3842, 24.04611
243.8663, 22.86485
244.3484, 21.73313
244.8306, 20.72518
245.3127, 19.82403
245.7948, 19.06318
246.2769, 18.53586
246.7590, 18.37535
247.2411, 18.23161
247.7233, 17.98547
248.2054, 17.61104
248.6875, 17.21781
249.1696, 16.74752
249.6517, 16.30091
250.1338, 16.04915
250.6160, 16.04039
251.0981, 16.14241
251.5802, 16.34226
252.0623, 16.67652
252.5444, 16.92533
253.0265, 17.06982
253.5087, 17.14288
253.9908, 17.18037
254.4729, 17.15865
254.9550, 17.14511
255.4371, 17.11431
255.9192, 17.03062
256.4014, 17.23921
256.8835, 17.86816
257.3656, 18.66286
257.8477, 19.28493
258.3298, 19.53541
258.8120, 20.06140
259.2941, 21.01809
259.7762, 22.41910
260.2583, 24.09267
260.7404, 25.94517
261.2225, 28.20457
261.7047, 31.25399
262.1868, 35.38482
262.6689, 39.62111
263.1510, 44.10833
263.6331, 48.76571
264.1152, 52.04077
264.5974, 54.06888
265.0795, 54.45574
265.5616, 52.53725
266.0437, 47.66636
266.5258, 42.48512
267.0079, 37.21044
267.4901, 31.91612
267.9722, 27.68089
268.4543, 24.51961
268.9364, 22.29789
269.4185, 21.09236
269.9006, 21.16660
270.3828, 21.10074
270.8649, 20.62800
271.3470, 19.85588
271.8291, 19.28392
272.3112, 18.93506
272.7933, 18.70893
273.2755, 18.56404
273.7576, 18.51767
274.2397, 18.42150
274.7218, 18.23669
275.2039, 18.00371
275.6860, 17.82950
276.1682, 17.70090
276.6503, 17.67443
277.1324, 17.83980
277.6145, 18.21870
278.0966, 18.47270
278.5787, 18.54775
279.0609, 18.51860
279.5430, 18.54056
280.0251, 18.61697
280.5072, 18.72732
280.9893, 18.86607
281.4715, 19.03219
281.9536, 19.21174
282.4357, 19.40329
282.9178, 19.60971
283.3999, 19.85420
283.8820, 20.14068
284.3642, 20.38949
284.8463, 20.49565
285.3284, 20.48662
285.8105, 20.70662
286.2926, 21.19756
286.7747, 21.78878
287.2569, 22.21865
287.7390, 22.49547
288.2211, 22.85024
288.7032, 23.40842
289.1853, 24.12567
289.6674, 24.80791
290.1496, 25.45151
290.6317, 26.10526
291.1138, 26.70523
291.5959, 27.30602
292.0780, 28.26612
292.5602, 29.83936
293.0423, 31.80719
293.5244, 33.64464
294.0065, 35.34076
294.4886, 36.96617
294.9707, 38.80257
295.4529, 40.68848
295.9350, 42.00829
296.4171, 42.59590
296.8992, 42.55808
297.3813, 41.91859
297.8634, 40.71861
298.3456, 39.36799
298.8277, 38.13015
299.3098, 36.98375
299.7919, 35.85057
300.2740, 34.63106
300.7561, 33.58517
301.2383, 33.06532
301.7204, 33.03346
302.2025, 33.36160
302.6846, 33.89683
303.1667, 34.75787
303.6488, 36.13729
304.1310, 38.05777
304.6131, 40.48270
305.0952, 43.09492
305.5773, 46.12242
306.0594, 50.16330
306.5415, 55.49805
307.0237, 62.04131
307.5058, 69.76796
307.9879, 78.62487
308.4700, 88.74536
308.9521, 100.9775
309.4343, 114.5082
309.9164, 128.1582
310.3985, 144.3427
310.8806, 158.5921
311.3627, 168.1844
311.8448, 173.0891
312.3270, 172.4175
312.8091, 163.4626
313.2912, 149.3539
313.7733, 133.7881
314.2554, 115.3843
314.7375, 98.17546
315.2197, 84.18265
315.7018, 73.19421
316.1839, 64.37413
316.6660, 57.81834
317.1481, 52.97541
317.6302, 49.47986
318.1124, 47.49735
318.5945, 46.46375
319.0766, 46.24803
319.5587, 46.83973
320.0408, 48.18064
320.5229, 50.38246
321.0051, 53.23587
321.4872, 56.68686
321.9693, 60.92854
322.4514, 65.31306
322.9335, 70.33984
323.4156, 75.37449
323.8978, 79.19398
324.3799, 82.28294
324.8620, 83.52309
325.3441, 82.31701
325.8262, 78.10863
326.3083, 73.11222
326.7905, 66.47649
327.2726, 59.44578
327.7547, 53.63756
328.2368, 49.43144
328.7189, 46.05627
329.2010, 43.44589
329.6832, 41.64561
330.1653, 40.33614
330.6474, 39.69194
331.1295, 39.41412
331.6116, 39.24895
332.0938, 39.07374
332.5759, 39.21844
333.0580, 39.83450
333.5401, 40.85320
334.0222, 41.67573
334.5043, 42.04345
334.9865, 42.57976
335.4686, 43.69989
335.9507, 45.62042
336.4328, 47.53721
336.9149, 49.35235
337.3970, 51.19342
337.8792, 53.31300
338.3613, 55.75344
338.8434, 58.43014
339.3255, 61.27626
339.8076, 64.26431
340.2898, 67.71345
340.7719, 71.62676
341.2540, 76.04337
341.7361, 80.91673
342.2182, 86.06270
342.7003, 92.59047
343.1825, 100.8501
343.6646, 110.8287
344.1467, 121.5756
344.6288, 132.9546
345.1109, 146.2455
345.5930, 162.3970
346.0752, 181.3748
346.5573, 204.5831
347.0394, 232.3610
347.5215, 264.7263
348.0036, 302.9002
348.4857, 346.7094
348.9679, 394.4834
349.4500, 449.9970
349.9321, 509.3248
350.4142, 562.4226
350.8963, 610.0647
351.3784, 645.9791
351.8606, 661.5839
352.3427, 657.9169
352.8248, 638.6558
353.3069, 599.1403
353.7890, 547.9235
354.2711, 493.4383
354.7533, 435.7565
355.2354, 381.9329
355.7175, 337.6610
356.1996, 301.9985
356.6817, 273.3073
357.1638, 252.2710
357.6460, 236.9840
358.1281, 226.5532
358.6102, 220.8180
359.0923, 217.8768
359.5744, 216.7613
360.0565, 217.9457
360.5387, 221.8672
361.0208, 228.4099
361.5029, 238.0433
361.9850, 250.1772
362.4671, 265.3636
362.9492, 285.2473
363.4314, 309.0225
363.9135, 338.6368
364.3956, 375.0583
364.8777, 418.4800
365.3598, 469.0621
365.8419, 527.7753
366.3241, 593.3764
366.8062, 663.7024
367.2883, 744.3127
367.7704, 823.9727
368.2526, 903.4074
368.7347, 985.9219
369.2168, 1049.302
369.6989, 1096.589
370.1810, 1123.225
370.6631, 1125.641
371.1453, 1098.581
371.6274, 1054.505
372.1095, 990.1497
372.5916, 907.8925
373.0737, 825.2537
373.5558, 738.1376
374.0380, 655.6641
374.5201, 581.5958
375.0022, 516.8928
375.4843, 459.8577
375.9664, 410.8806
376.4485, 369.2135
376.9307, 332.5691
377.4128, 301.4634
377.8949, 274.5040
378.3770, 251.7345
378.8591, 233.1489
379.3412, 217.2440
379.8234, 204.3193
380.3055, 193.4886
380.7876, 184.4327
381.2697, 177.0030
381.7518, 170.0591
382.2339, 163.7616
382.7161, 157.4265
383.1982, 149.0254
383.6803, 138.6837
384.1624, 127.8976
384.6445, 117.3938
385.1266, 107.3908
385.6088, 98.47188
386.0909, 90.81852
386.5730, 84.02759
387.0551, 77.72026
387.5372, 72.00571
388.0193, 67.08894
388.5015, 63.37941
388.9836, 60.42334
389.4657, 57.82434
389.9478, 55.56548
390.4299, 53.49545
390.9120, 51.53429
391.3942, 49.68819
391.8763, 47.99590
392.3584, 46.60769
392.8405, 45.24166
393.3226, 43.59867
393.8047, 41.79566
394.2869, 40.36795
394.7690, 39.93867
395.2511, 39.66676
395.7332, 38.98013
396.2154, 37.44933
396.6975, 36.21993
397.1796, 35.82551
397.6617, 35.82749
398.1438, 35.47688
398.6259, 34.18344
399.1081, 33.00236
399.5902, 32.28611
400.0723, 32.12288
400.5544, 31.81589
401.0365, 31.28615
401.5186, 30.66823
402.0008, 30.06448
402.4829, 29.40589
402.9650, 28.88849
403.4471, 28.57407
403.9292, 28.41555
404.4113, 28.22731
404.8935, 28.00704
405.3756, 27.76054
405.8577, 27.47643
406.3398, 27.14651
406.8219, 26.88694
407.3040, 26.74708
407.7862, 26.58581
408.2683, 26.13762
408.7504, 25.39222
409.2325, 24.70903
409.7146, 24.16723
410.1967, 23.79308
410.6789, 23.74070
411.1610, 24.02449
411.6431, 24.26252
412.1252, 24.02460
412.6073, 23.47115
413.0894, 23.06071
413.5716, 22.90630
414.0537, 22.88834
414.5358, 22.96256
415.0179, 23.07632
415.5000, 23.06005
415.9821, 22.72565
416.4643, 22.26569
416.9464, 21.85463
417.4285, 21.50600
417.9106, 21.23393
418.3927, 21.12430
418.8748, 21.06981
419.3570, 20.94531
419.8391, 20.55096
420.3212, 20.22928
420.8033, 20.24013
421.2854, 20.48879
421.7675, 20.53054
422.2497, 19.87219
422.7318, 19.23828
423.2139, 19.07285
423.6960, 19.76163
424.1781, 20.18027
424.6602, 20.01952
425.1424, 19.56983
425.6245, 19.25463
426.1066, 19.16294
426.5887, 19.09976
427.0709, 18.98845
427.5530, 18.82904
428.0351, 18.90540
428.5172, 19.39377
428.9993, 19.87743
429.4814, 20.04268
429.9636, 19.81422
430.4457, 19.53126
430.9278, 19.15678
431.4099, 18.80612
431.8920, 18.79304
432.3741, 19.16518
432.8563, 19.50340
433.3384, 19.58735
433.8205, 19.45914
434.3026, 19.38761
434.7847, 19.36988
435.2668, 19.42514
435.7490, 19.65199
436.2311, 19.98551
436.7132, 20.17198
437.1953, 20.08455
437.6774, 19.90569
438.1595, 19.85258
438.6417, 19.91567
439.1238, 20.05557
439.6059, 20.26134
440.0880, 20.52530
440.5701, 20.82725
441.0522, 21.15897
441.5344, 21.58525
442.0165, 22.20279
442.4986, 22.91976
442.9807, 23.62083
443.4628, 24.21730
443.9449, 24.84036
444.4271, 25.52123
444.9092, 26.26482
445.3913, 27.10122
445.8734, 27.91316
446.3555, 28.89563
446.8376, 30.13381
447.3198, 31.60678
447.8019, 33.40981
448.2840, 35.74375
448.7661, 38.30277
449.2482, 40.65263
449.7303, 42.62873
450.2125, 44.68001
450.6946, 47.21055
451.1767, 50.10600
451.6588, 51.50940
452.1409, 51.20007
452.6230, 49.94584
453.1052, 48.18260
453.5873, 45.87202
454.0694, 43.29704
454.5515, 40.40123
455.0337, 37.42228
455.5158, 34.81469
455.9979, 32.54284
456.4800, 30.41859
456.9621, 28.22754
457.4442, 26.14531
457.9264, 24.61572
458.4085, 23.63170
458.8906, 22.87558
459.3727, 22.07918
459.8548, 21.35326
460.3369, 20.93671
460.8191, 20.99364
461.3012, 21.08695
461.7833, 20.79115
462.2654, 20.27349
462.7475, 19.88287
463.2296, 19.89527
463.7118, 19.96947
464.1939, 19.92204
464.6760, 19.73995
465.1581, 19.52240
465.6402, 19.14892
466.1223, 18.84333
466.6045, 18.76932
467.0866, 19.26754
467.5687, 19.60191
468.0508, 19.63861
468.5329, 19.49576
469.0150, 19.43555
469.4972, 19.50727
469.9793, 19.58600
470.4614, 19.61613
470.9435, 19.59029
471.4256, 19.68738
471.9077, 19.96514
472.3899, 20.25127
472.8720, 20.34836
473.3541, 20.23049
473.8362, 20.25968
474.3183, 20.50308
474.8004, 20.89002
475.2826, 21.29276
475.7647, 21.71289
476.2468, 22.17373
476.7289, 22.74698
477.2110, 23.35959
477.6931, 23.79449
478.1753, 24.05301
478.6574, 24.34966
479.1395, 24.84981
479.6216, 25.50389
480.1037, 26.23601
480.5858, 27.01389
481.0680, 27.89689
481.5501, 28.95083
482.0322, 30.13964
482.5143, 31.38028
482.9964, 32.55158
483.4786, 33.84425
483.9607, 35.30674
484.4428, 36.92159
484.9249, 38.87695
485.4070, 41.20563
485.8892, 43.86926
486.3713, 46.84013
486.8534, 49.59876
487.3355, 53.36286
487.8176, 58.30660
488.2997, 64.21199
488.7819, 70.83212
489.2640, 78.50475
489.7461, 86.21622
490.2282, 93.73759
490.7103, 101.1059
491.1924, 108.0976
491.6746, 114.9806
492.1567, 120.5725
492.6388, 124.0207
493.1209, 125.3248
493.6030, 124.0335
494.0851, 119.8044
494.5673, 113.7768
495.0494, 107.1883
495.5315, 100.1068
496.0136, 93.02868
496.4957, 85.58462
496.9778, 78.57182
497.4600, 72.63042
497.9421, 67.77209
498.4242, 63.77446
498.9063, 60.64288
499.3884, 58.19831
499.8705, 56.25379
500.3527, 54.81665
500.8348, 53.82160
501.3169, 53.28541
501.7990, 53.18739
502.2811, 53.50358
502.7632, 54.30067
503.2454, 55.43627
503.7275, 56.82180
504.2096, 58.47495
504.6917, 60.72578
505.1738, 63.54974
505.6559, 66.95735
506.1381, 70.82143
506.6202, 74.93328
507.1023, 80.28403
507.5844, 86.73362
508.0665, 94.64389
508.5486, 104.1849
509.0308, 115.3946
509.5129, 128.8992
509.9950, 144.7002
510.4771, 163.1021
510.9592, 185.3805
511.4413, 211.3312
511.9235, 239.7265
512.4056, 270.9390
512.8877, 303.5962
513.3698, 337.8632
513.8519, 374.1340
514.3340, 405.5733
514.8162, 430.1357
515.2983, 445.9195
515.7804, 450.5108
516.2625, 440.5125
516.7446, 422.5844
517.2267, 396.9654
517.7089, 365.4107
518.1910, 332.4134
518.6731, 295.2932
519.1552, 260.1747
519.6373, 229.4845
520.1194, 203.0770
520.6016, 179.6850
521.0837, 159.7203
521.5658, 142.5872
522.0479, 128.0922
522.5300, 116.7598
523.0121, 106.6343
523.4943, 97.59981
523.9764, 89.70101
524.4585, 83.14047
524.9406, 78.04051
525.4227, 73.55943
525.9048, 69.52315
526.3870, 65.86855
526.8691, 62.26255
527.3513, 58.71434
527.8334, 55.58287
528.3155, 53.20721
528.7976, 51.33924
529.2797, 49.64115
529.7618, 48.07264
530.2440, 46.58841
530.7261, 45.17147
531.2082, 43.82313
531.6903, 42.57153
532.1724, 41.22739
532.6545, 40.17412
533.1367, 39.67611
533.6188, 39.58700
534.1009, 39.36388
534.5830, 38.88739
535.0651, 38.30193
535.5472, 37.60014
536.0294, 36.72435
536.5115, 36.12149
536.9936, 35.88184
537.4757, 35.78901
537.9578, 35.70348
538.4399, 35.64734
538.9221, 35.42768
539.4042, 34.96818
539.8863, 34.43127
540.3684, 34.07969
540.8505, 33.90875
541.3326, 33.87185
541.8148, 34.04778
542.2969, 34.28683
542.7790, 34.22796
543.2611, 33.92228
543.7432, 33.77230
544.2253, 34.19738
544.7075, 34.83854
545.1896, 35.28544
545.6717, 35.42827
546.1538, 35.68707
546.6359, 36.20387
547.1180, 36.97129
547.6002, 37.97626
548.0823, 39.51733
548.5644, 40.95018
549.0465, 42.03163
549.5286, 42.92281
550.0107, 44.11604
550.4929, 45.96063
550.9750, 47.58861
551.4571, 48.76678
551.9392, 49.49660
552.4213, 49.77061
552.9034, 49.58992
553.3856, 48.96391
553.8677, 47.80660
554.3498, 46.15090
554.8319, 44.37303
555.3140, 42.49528
555.7961, 40.55025
556.2783, 38.54538
556.7604, 36.51805
557.2425, 34.58855
557.7246, 32.70957
558.2067, 31.03781
558.6888, 29.77695
559.1710, 28.87071
559.6531, 28.14840
560.1352, 27.60016
560.6173, 27.16109
561.0994, 26.82824
561.5815, 26.61224
562.0637, 26.37518
562.5458, 26.09362
563.0279, 25.77897
563.5100, 25.42135
563.9921, 24.81682
564.4742, 24.55901
564.9564, 24.85189
565.4385, 25.34645
565.9206, 25.36122
566.4027, 24.74622
566.8848, 24.41352
567.3669, 24.68682
567.8491, 25.39544
568.3312, 25.94174
568.8133, 26.33562
569.2954, 26.92895
569.7775, 28.01269
570.2596, 29.42844
570.7418, 30.90496
571.2239, 32.44157
571.7060, 33.95573
572.1881, 35.32724
572.6702, 36.66627
573.1523, 38.14234
573.6345, 39.96412
574.1166, 41.59589
574.5987, 42.92114
575.0808, 43.89510
575.5629, 44.46033
576.0450, 44.73368
576.5272, 44.41396
577.0093, 43.38623
577.4914, 41.70967
577.9735, 39.63449
578.4556, 36.94628
578.9377, 34.33590
579.4199, 32.08577
579.9020, 30.22651
580.3841, 28.62957
580.8662, 27.30968
581.3483, 26.19391
581.8304, 25.29646
582.3126, 24.56710
582.7947, 23.80577
583.2768, 22.93352
583.7589, 22.14844
584.2410, 21.71347
584.7231, 21.51618
585.2053, 21.33426
585.6874, 21.00953
586.1696, 20.73417
586.6517, 20.65987
587.1338, 20.73865
587.6159, 20.75591
588.0980, 20.59724
588.5801, 20.41711
589.0623, 20.31749
589.5444, 20.34267
590.0265, 20.14350
590.5086, 19.56284
590.9907, 18.95920
591.4728, 18.62821
591.9550, 18.61844
592.4371, 18.59220
592.9192, 18.52842
593.4013, 18.43673
593.8834, 18.30842
594.3655, 18.15486
594.8477, 18.05169
595.3298, 18.05275
595.8119, 18.08044
596.2940, 18.03625
596.7761, 17.93083
597.2582, 17.79858
597.7404, 17.61655
598.2225, 17.44550
598.7046, 17.33684
599.1867, 17.29288
599.6688, 17.24517
600.1509, 17.15930
600.6331, 17.07203
601.1152, 17.01233
601.5973, 17.01353
602.0794, 16.95152
602.5615, 16.73365
603.0436, 16.54202
603.5258, 16.64671
604.0079, 17.14151
604.4900, 17.40854
604.9721, 17.29628
605.4542, 16.98286
605.9363, 16.83151
606.4185, 16.82256
606.9006, 16.76329
607.3827, 16.47534
607.8648, 16.14539
608.3469, 16.14512
608.8290, 16.40292
609.3112, 16.51566
609.7933, 16.05677
610.2754, 15.49339
610.7575, 15.18051
611.2396, 15.18861
611.7217, 15.24277
612.2039, 15.33504
612.6860, 15.40293
613.1681, 15.39407
613.6502, 15.22322
614.1323, 15.12542
614.6144, 15.13113
615.0966, 15.18644
615.5787, 15.22134
616.0608, 15.23727
616.5429, 15.22152
617.0250, 15.16996
617.5071, 15.08695
617.9893, 14.93578
618.4714, 14.73603
618.9535, 14.64206
619.4356, 14.87061
619.9177, 15.17425
620.3998, 15.21571
620.8820, 15.01399
621.3641, 14.77802
621.8462, 14.56009
622.3283, 14.39374
622.8104, 14.32483
623.2925, 14.39369
623.7747, 14.41334
624.2568, 14.26750
624.7389, 14.11120
625.2210, 14.07876
625.7031, 14.26727
626.1852, 14.35735
626.6674, 14.29224
627.1495, 14.16660
627.6316, 14.13147
628.1137, 14.18878
628.5958, 14.30301
629.0779, 14.51511
629.5601, 14.71974
630.0422, 14.61865
630.5243, 14.28784
631.0064, 14.08194
631.4885, 14.39881
631.9706, 14.79597
632.4528, 14.80604
632.9349, 14.44983
633.4170, 14.12835
633.8991, 14.01026
634.3812, 13.98650
634.8633, 13.99734
635.3455, 14.04441
635.8276, 14.10446
636.3097, 14.18374
636.7918, 14.26883
637.2739, 14.35857
637.7560, 14.46960
638.2382, 14.47745
638.7203, 14.29667
639.2024, 14.15409
639.6845, 14.59307
640.1666, 15.50345
640.6487, 15.93870
641.1309, 15.42634
641.6130, 14.57200
642.0951, 14.15743
642.5772, 14.09002
643.0594, 14.12889
643.5415, 14.24406
644.0236, 14.35108
644.5057, 14.43309
644.9879, 14.47878
645.4700, 14.40427
645.9521, 14.00309
646.4342, 13.64952
646.9163, 13.52551
647.3984, 13.67555
647.8806, 13.73895
648.3627, 13.66629
648.8448, 13.60144
649.3269, 13.70763
649.8090, 13.98437
650.2911, 14.06112
650.7733, 13.86950
651.2554, 13.66368
651.7375, 13.84111
652.2196, 14.23706
652.7017, 14.42209
653.1838, 14.15965
653.6660, 13.88409
654.1481, 13.99227
654.6302, 14.31002
655.1123, 14.53158
655.5944, 14.51923
656.0765, 14.43157
656.5587, 14.30233
657.0408, 14.13359
657.5229, 13.91809
658.0050, 13.58046
658.4871, 13.33388
658.9692, 13.28304
659.4514, 13.40548
659.9335, 13.43133
660.4156, 13.34481
660.8977, 13.29025
661.3798, 13.46997
661.8619, 13.75247
662.3441, 13.70582
662.8262, 13.29516
663.3083, 12.95925
663.7904, 13.20200
664.2725, 13.63379
664.7546, 13.79095
665.2368, 13.44296
665.7189, 13.19590
666.2010, 13.40418
666.6831, 13.75054
667.1652, 13.86546
667.6473, 13.59388
668.1295, 13.31026
668.6116, 12.94439
669.0937, 12.64857
669.5758, 12.83021
670.0579, 13.56273
670.5400, 14.04448
671.0222, 13.93258
671.5043, 13.54287
671.9864, 13.60814
672.4685, 14.02760
672.9506, 14.30315
673.4327, 13.93336
673.9149, 13.45607
674.3970, 13.39901
674.8791, 13.71568
675.3612, 13.99233
675.8433, 14.15744
676.3254, 14.16414
676.8076, 13.89841
677.2897, 13.27051
677.7718, 12.97312
678.2539, 13.20378
678.7360, 13.49367
679.2181, 13.49534
679.7003, 13.16652
680.1824, 13.01504
680.6645, 13.08137
681.1466, 13.21765
681.6287, 13.26915
682.1108, 13.26119
682.5930, 13.26154
683.0751, 13.28418
683.5572, 13.31529
684.0393, 13.31124
684.5214, 13.31766
685.0035, 13.39955
685.4857, 13.75125
685.9678, 13.97998
686.4499, 13.90576
686.9320, 13.64877
687.4141, 13.47217
687.8962, 13.37456
688.3784, 13.37688
688.8605, 13.54710
689.3426, 13.79494
689.8247, 13.74602
690.3068, 13.38565
690.7889, 13.11934
691.2711, 13.27685
691.7532, 13.60006
692.2353, 13.46684
692.7174, 12.96044
693.1995, 12.59688
693.6816, 12.84880
694.1638, 13.24679
694.6459, 13.43750
695.1280, 13.38500
695.6101, 13.32092
696.0922, 13.27606
696.5743, 13.25733
697.0565, 13.27159
697.5386, 13.32970
698.0207, 13.37803
698.5028, 13.41799
698.9849, 13.44560
699.4670, 13.43967
699.9492, 13.40766
700.4313, 13.44384
700.9135, 13.57153
701.3956, 13.69504
701.8777, 13.69546
702.3598, 13.62329
702.8419, 13.55871
703.3240, 13.50422
703.8062, 13.50057
704.2883, 13.59066
704.7704, 13.73849
705.2525, 13.88988
705.7346, 14.17325
706.2167, 14.27028
706.6989, 14.03787
707.1810, 13.65167
707.6631, 13.52898
708.1452, 13.71961
708.6273, 13.89020
709.1094, 13.93845
709.5916, 13.90735
710.0737, 13.90242
710.5558, 13.91175
711.0379, 13.87297
711.5200, 13.62349
712.0021, 13.40859
712.4843, 13.54689
712.9664, 13.95499
713.4485, 14.18655
713.9306, 13.88211
714.4127, 13.53653
714.8948, 13.35252
715.3770, 13.33025
715.8591, 13.46509
716.3412, 13.86953
716.8233, 14.20900
717.3054, 14.27014
717.7875, 14.06393
718.2697, 13.82219
718.7518, 13.53398
719.2339, 13.33286
719.7160, 13.45124
720.1981, 13.68872
720.6802, 13.67180
721.1624, 13.32812
721.6445, 13.05675
722.1266, 13.12807
722.6087, 13.35713
723.0908, 13.60479
723.5729, 13.93929
724.0551, 14.08594
724.5372, 13.92224
725.0193, 13.67209
725.5014, 13.57402
725.9835, 13.66162
726.4656, 13.68827
726.9478, 13.61270
727.4299, 13.51304
727.9120, 13.52762
728.3941, 13.61373
728.8762, 13.62372
729.3583, 13.47544
729.8405, 13.32873
730.3226, 13.34366
730.8047, 13.44473
731.2868, 13.50682
731.7689, 13.40474
732.2510, 13.36189
732.7332, 13.46364
733.2153, 13.64935
733.6974, 13.82430
734.1795, 14.03756
734.6616, 14.08387
735.1437, 13.85031
735.6259, 13.47318
736.1080, 13.31017
736.5901, 13.34422
737.0722, 13.42512
737.5543, 13.50036
738.0364, 13.56988
738.5186, 13.64735
739.0007, 13.72153
739.4828, 13.75514
739.9649, 13.71212
740.4470, 13.64397
740.9291, 13.55029
741.4113, 13.43937
741.8934, 13.39268
742.3755, 13.43010
742.8576, 13.49684
743.3397, 13.57333
743.8218, 13.66045
744.3040, 13.79974
744.7861, 13.99384
745.2682, 14.09677
745.7503, 13.86830
746.2324, 13.54278
746.7145, 13.56236
747.1967, 13.91619
747.6788, 14.21592
748.1609, 14.25400
748.6430, 14.15944
749.1251, 13.97708
749.6072, 13.67180
750.0894, 13.50454
750.5715, 13.54461
751.0536, 13.64079
751.5357, 13.72125
752.0178, 13.79317
752.4999, 13.73163
752.9821, 13.51149
753.4642, 13.32089
753.9463, 13.36011
754.4284, 13.55311
754.9105, 13.78816
755.3926, 14.06830
755.8748, 14.22776
756.3569, 13.99332
756.8390, 13.69011
757.3211, 13.63748
757.8032, 14.10629
758.2853, 14.31986
758.7675, 14.07702
759.2496, 13.72957
759.7318, 13.59799
760.2139, 13.71178
760.6960, 13.83715
761.1781, 13.96746
761.6602, 14.06312
762.1423, 14.07824
762.6245, 14.02103
763.1066, 13.87840
763.5887, 13.59446
764.0708, 13.41071
764.5529, 13.61830
765.0350, 13.97315
765.5172, 14.18574
765.9993, 14.00418
766.4814, 13.93443
766.9635, 14.06499
767.4456, 14.27201
767.9277, 14.40014
768.4099, 14.44482
768.8920, 14.42542
769.3741, 14.31151
769.8562, 14.21799
770.3383, 14.35368
770.8204, 14.64707
771.3026, 14.90698
771.7847, 15.07452
772.2668, 15.19242
772.7489, 15.26605
773.2310, 15.31584
773.7131, 15.37277
774.1953, 15.39552
774.6774, 15.49485
775.1595, 15.71804
775.6416, 16.00109
776.1237, 16.25057
776.6058, 16.47874
777.0880, 16.55492
777.5701, 16.38804
778.0522, 16.16335
778.5343, 16.23857
779.0164, 16.51906
779.4985, 16.72957
779.9807, 16.70138
780.4628, 16.63681
780.9449, 16.61514
781.4270, 16.65072
781.9091, 16.77310
782.3912, 17.11933
782.8734, 17.38672
783.3555, 17.52933
783.8376, 17.56962
784.3197, 17.51244
784.8018, 17.33696
785.2839, 17.32134
785.7661, 17.59133
786.2482, 18.00760
786.7303, 18.35311
787.2124, 18.65013
787.6945, 18.97128
788.1766, 19.44717
788.6588, 19.85720
789.1409, 19.95368
789.6230, 19.89709
790.1051, 20.17038
790.5872, 21.16067
791.0693, 21.92873
791.5515, 22.19818
792.0336, 22.16984
792.5157, 22.40704
792.9978, 22.91077
793.4799, 23.49695
793.9620, 24.10135
794.4442, 24.75340
794.9263, 25.60809
795.4084, 26.56200
795.8905, 27.33759
796.3726, 27.60258
796.8547, 27.87828
797.3369, 28.35758
797.8190, 29.02711
798.3011, 29.80707
798.7832, 30.72002
799.2653, 31.71052
799.7474, 32.78839
800.2296, 33.91841
800.7117, 34.94664
801.1938, 35.89591
801.6759, 37.02026
802.1580, 38.46031
802.6401, 40.09060
803.1223, 41.63261
803.6044, 43.23750
804.0865, 45.26555
804.5686, 48.40847
805.0507, 51.39252
805.5328, 53.39027
806.0150, 54.97676
806.4971, 57.72979
806.9792, 61.90158
807.4613, 66.40627
807.9434, 70.85894
808.4255, 75.56394
808.9077, 81.40293
809.3898, 88.24376
809.8719, 95.47865
810.3540, 102.4814
810.8361, 110.1534
811.3182, 119.6777
811.8004, 130.3617
812.2825, 140.7793
812.7646, 151.1140
813.2467, 160.4688
813.7288, 169.0976
814.2109, 176.5417
814.6931, 181.6701
815.1752, 184.5583
815.6573, 184.7035
816.1394, 181.6392
816.6215, 176.3319
817.1037, 170.1535
817.5858, 163.0640
818.0679, 154.7952
818.5500, 144.2194
819.0322, 133.4832
819.5143, 123.3467
819.9964, 113.9612
820.4785, 105.8713
820.9606, 99.51516
821.4427, 93.67554
821.9249, 88.07500
822.4070, 82.98669
822.8891, 79.18191
823.3712, 76.57935
823.8533, 74.29428
824.3354, 72.06105
824.8176, 70.02856
825.2997, 68.28970
825.7818, 66.89981
826.2639, 65.98922
826.7460, 65.79391
827.2281, 65.83289
827.7103, 66.03002
828.1924, 66.38654
828.6745, 66.91088
829.1566, 67.58231
829.6387, 68.48039
830.1208, 69.59879
830.6030, 70.97486
831.0851, 72.54039
831.5672, 74.37116
832.0493, 76.74358
832.5314, 79.81142
833.0135, 83.15823
833.4957, 86.10966
833.9778, 89.30079
834.4599, 93.53883
834.9420, 99.62146
835.4241, 105.7533
835.9063, 111.6892
836.3884, 117.9528
836.8705, 125.2096
837.3526, 133.4339
837.8347, 141.6358
838.3168, 149.8197
838.7990, 157.8445
839.2811, 166.3565
839.7632, 174.4446
840.2453, 180.9207
840.7274, 185.6953
841.2095, 188.5455
841.6917, 189.2925
842.1738, 188.0546
842.6559, 185.0124
843.1380, 180.0210
843.6201, 173.5199
844.1022, 165.2294
844.5844, 156.3952
845.0665, 147.9373
845.5486, 139.8506
846.0307, 132.2776
846.5128, 125.1949
846.9949, 118.5348
847.4771, 112.0552
847.9592, 106.1224
848.4413, 101.1225
848.9234, 97.27524
849.4055, 93.41508
849.8876, 89.23261
850.3698, 85.51677
850.8519, 82.83953
851.3340, 81.12675
851.8161, 79.64524
852.2982, 78.39430
852.7803, 77.36440
853.2625, 76.64320
853.7446, 76.07962
854.2267, 75.39720
854.7088, 74.62775
855.1909, 74.23190
855.6730, 74.43021
856.1552, 74.97886
856.6373, 75.72918
857.1194, 76.71763
857.6015, 78.32791
858.0836, 80.64207
858.5657, 83.04811
859.0479, 85.06129
859.5300, 87.15218
860.0121, 90.20487
860.4942, 94.10641
860.9763, 98.46285
861.4584, 103.0011
861.9406, 107.9260
862.4227, 112.9921
862.9048, 118.5258
863.3869, 125.2533
863.8690, 133.3536
864.3511, 142.2550
864.8333, 151.7083
865.3154, 162.1643
865.7975, 174.6917
866.2796, 189.3715
866.7617, 206.5904
867.2438, 226.4228
867.7260, 249.2075
868.2081, 275.3440
868.6902, 304.7539
869.1723, 337.7111
869.6544, 374.7063
870.1365, 415.7987
870.6187, 462.7708
871.1008, 511.7396
871.5829, 558.6906
872.0650, 603.3148
872.5471, 640.5153
873.0292, 670.4965
873.5114, 687.8410
873.9935, 686.4152
874.4756, 669.2950
874.9577, 639.2440
875.4399, 593.9150
875.9220, 544.0941
876.4041, 487.6960
876.8862, 432.0542
877.3683, 381.6093
877.8505, 336.4166
878.3326, 296.1350
878.8147, 260.9583
879.2968, 230.0766
879.7789, 203.7006
880.2610, 181.3169
880.7432, 161.9632
881.2253, 145.5262
881.7074, 131.1252
882.1895, 118.6739
882.6716, 107.8846
883.1537, 98.79819
883.6359, 91.34305
884.1180, 84.63520
884.6001, 78.66978
885.0822, 73.32741
885.5643, 68.64004
886.0464, 64.48479
886.5286, 60.59296
887.0107, 56.97335
887.4928, 53.63753
887.9749, 50.60020
888.4570, 47.93491
888.9391, 45.78188
889.4213, 44.05792
889.9034, 42.46030
890.3855, 41.02277
890.8676, 39.63448
891.3497, 38.24934
891.8318, 36.93505
892.3140, 35.76208
892.7961, 34.72485
893.2782, 33.81742
893.7603, 33.10514
894.2424, 32.38311
894.7245, 31.46371
895.2067, 30.47479
895.6888, 29.56075
896.1709, 28.73148
896.6530, 28.01047
897.1351, 27.37912
897.6172, 26.89474
898.0994, 26.75071
898.5815, 26.86718
899.0636, 26.59957
899.5457, 25.87277
900.0278, 25.11141
900.5099, 24.70119
900.9921, 24.38940
901.4742, 23.92565
901.9563, 23.26340
902.4384, 22.60813
902.9205, 21.81754
903.4026, 21.29701
903.8848, 21.34747
904.3669, 21.87415
904.8490, 22.09053
905.3311, 22.00012
905.8132, 21.75258
906.2953, 21.21938
906.7775, 20.73974
907.2596, 20.77541
907.7417, 21.16908
908.2238, 21.36049
908.7059, 21.03254
909.1880, 20.67627
909.6702, 20.38225
910.1523, 20.12897
910.6344, 19.85879
911.1165, 19.57290
911.5986, 19.31992
912.0807, 19.10493
912.5629, 18.94882
913.0450, 19.00507
913.5271, 19.09289
914.0092, 18.91578
914.4913, 18.10725
914.9734, 17.56248
915.4556, 17.57277
915.9377, 17.74186
916.4198, 17.73271
916.9019, 17.53800
917.3840, 17.24018
917.8661, 16.81895
918.3483, 16.52056
918.8304, 16.80786
919.3125, 17.20853
919.7946, 17.01401
920.2767, 16.14917
920.7589, 15.55063
921.2410, 15.69576
921.7231, 15.97592
922.2052, 16.19278
922.6873, 16.34240
923.1694, 16.39667
923.6516, 16.35572
924.1337, 16.19415
924.6158, 15.80928
925.0979, 15.37384
925.5800, 15.12265
926.0621, 15.00749
926.5443, 14.90504
927.0264, 14.72125
927.5085, 14.62002
927.9906, 14.70918
928.4727, 14.84207
928.9548, 14.72703
929.4370, 14.35075
929.9191, 14.14342
930.4012, 14.20674
930.8833, 14.34376
931.3654, 14.32768
931.8475, 14.25104
932.3297, 14.27477
932.8118, 14.50756
933.2939, 14.54223
933.7761, 14.06049
934.2582, 13.57629
934.7403, 13.41508
935.2224, 13.58470
935.7045, 13.68930
936.1866, 13.73072
936.6688, 13.67532
937.1509, 13.38581
937.6330, 13.06547
938.1151, 12.98452
938.5972, 13.09991
939.0793, 13.16395
939.5615, 13.00327
940.0436, 12.91158
940.5257, 13.01197
941.0078, 13.20140
941.4899, 13.18196
941.9720, 12.96136
942.4542, 12.73205
942.9363, 12.52327
943.4184, 12.38376
943.9005, 12.40707
944.3826, 12.51609
944.8647, 12.60305
945.3469, 12.61640
945.8290, 12.64858
946.3111, 12.65109
946.7932, 12.74215
947.2753, 13.11453
947.7574, 13.74489
948.2396, 14.03471
948.7217, 13.96445
949.2038, 13.74176
949.6859, 13.36357
950.1680, 13.02959
950.6501, 12.94791
951.1323, 13.11643
951.6144, 13.29486
952.0965, 13.52947
952.5786, 13.62934
953.0607, 13.48108
953.5428, 13.19467
954.0250, 13.14312
954.5071, 13.27803
954.9892, 13.30054
955.4713, 12.99863
955.9534, 12.71264
956.4355, 12.72253
956.9177, 12.90005
957.3998, 13.06740
957.8819, 13.29345
958.3640, 13.29712
958.8461, 12.95480
959.3282, 12.62762
959.8104, 12.82033
960.2925, 13.34894
960.7746, 13.53196
961.2567, 13.31625
961.7388, 13.10986
962.2209, 13.18861
962.7031, 13.35629
963.1852, 13.51519
963.6673, 13.65301
964.1494, 13.67778
964.6315, 13.53860
965.1136, 13.47157
965.5958, 13.62177
966.0779, 13.83608
966.5600, 13.74482
967.0421, 13.45385
967.5242, 13.25344
968.0063, 13.28096
968.4885, 13.38379
968.9706, 13.60102
969.4527, 13.80948
969.9348, 13.82692
970.4169, 13.57054
970.8990, 13.57606
971.3812, 13.91628
971.8633, 14.27822
972.3454, 14.28838
972.8275, 14.14822
973.3096, 14.20272
973.7917, 14.47766
974.2739, 14.60837
974.7560, 14.20867
975.2381, 13.92536
975.7202, 14.04066
976.2023, 14.47095
976.6844, 14.81720
977.1666, 15.08241
977.6487, 15.28477
978.1308, 15.41471
978.6129, 15.50912
979.0950, 15.58229
979.5771, 15.65408
980.0593, 15.75730
980.5414, 15.92192
981.0235, 16.09159
981.5056, 16.28427
981.9877, 16.45440
982.4698, 16.54103
982.9520, 16.56040
983.4341, 16.59144
983.9162, 16.64042
984.3983, 16.78415
984.8804, 17.07039
985.3625, 17.47954
985.8447, 17.99888
986.3268, 18.63461
986.8089, 19.37562
987.2910, 20.25114
987.7731, 21.13404
988.2552, 21.93506
988.7374, 22.78950
989.2195, 23.89405
989.7016, 25.26978
990.1837, 26.98495
990.6658, 29.18780
991.1479, 31.48409
991.6301, 33.71526
992.1122, 35.96357
992.5944, 38.37536
993.0765, 41.00983
993.5586, 43.35759
994.0407, 45.45835
994.5228, 46.90837
995.0049, 47.43505
995.4871, 47.07526
995.9692, 45.70913
996.4513, 43.42385
996.9334, 40.83651
997.4155, 37.81726
997.8976, 34.91887
998.3798, 32.24296
998.8619, 29.79943
999.3440, 27.52906
999.8261, 25.43583
1000.308, 23.65407
1000.790, 22.25019
1001.272, 21.05601
1001.755, 19.89905
1002.237, 18.87702
1002.719, 18.12284
1003.201, 17.70821
1003.683, 17.39866
1004.165, 17.26132
1004.647, 17.05215
1005.129, 16.49236
1005.612, 15.75797
1006.094, 15.45847
1006.576, 15.48427
1007.058, 15.30411
1007.540, 14.35754
1008.022, 13.47469
1008.504, 12.92911
1008.986, 12.68702
1009.468, 12.80554
1009.951, 13.36881
1010.433, 13.56281
1010.915, 13.21708
1011.397, 12.70249
1011.879, 12.29061
1012.361, 12.03876
1012.843, 12.05667
1013.325, 12.39026
1013.807, 12.75093
1014.290, 13.27531
1014.772, 13.53769
1015.254, 13.26994
1015.736, 12.61281
1016.218, 12.05308
1016.700, 11.60847
1017.182, 11.38668
1017.664, 11.53206
1018.147, 11.78583
1018.629, 12.08982
1019.111, 12.35385
1019.593, 12.43460
1020.075, 12.25513
1020.557, 12.13204
1021.039, 12.09079
1021.521, 12.05671
1022.003, 11.88204
1022.486, 11.69747
1022.968, 11.86354
1023.450, 12.34256
1023.932, 12.52434
1024.414, 11.82205
1024.896, 11.18120
1025.378, 10.89356
1025.860, 10.88636
1026.343, 11.01423
1026.825, 11.26128
1027.307, 11.43695
1027.789, 11.48882
1028.271, 11.45569
1028.753, 11.28434
1029.235, 11.09494
1029.717, 11.04259
1030.199, 11.21794
1030.682, 11.27079
1031.164, 11.18421
1031.646, 11.02177
1032.128, 10.74584
1032.610, 10.44917
1033.092, 10.42697
1033.574, 10.60948
1034.056, 10.74128
1034.539, 10.70396
1035.021, 10.59767
1035.503, 10.33639
1035.985, 10.09890
1036.467, 10.20156
1036.949, 10.65829
1037.431, 10.82184
1037.913, 10.59618
1038.396, 10.32325
1038.878, 10.35400
1039.360, 10.44865
1039.842, 10.34207
1040.324, 10.01570
1040.806, 9.829003
1041.288, 9.808749
1041.770, 9.918649
1042.252, 10.21672
1042.734, 10.54470
1043.217, 10.54595
1043.699, 10.31434
1044.181, 10.08469
1044.663, 9.882582
1045.145, 9.794744
1045.627, 9.996120
1046.109, 10.20540
1046.591, 10.18025
1047.074, 9.905252
1047.556, 9.835942
1048.038, 9.972539
1048.520, 10.07832
1049.002, 9.940760
1049.484, 9.752721
1049.966, 9.654551
1050.448, 9.641895
1050.931, 9.707020
1051.413, 9.940811
1051.895, 10.02342
1052.377, 9.876245
1052.859, 9.677097
1053.341, 9.648982
1053.823, 9.730680
1054.305, 9.775256
1054.787, 9.765521
1055.270, 9.806564
1055.752, 10.00377
1056.234, 10.19849
1056.716, 10.30793
1057.198, 10.36438
1057.680, 10.53831
1058.162, 10.81342
1058.644, 10.91828
1059.126, 10.71076
1059.609, 10.44523
1060.091, 10.27793
1060.573, 10.21861
1061.055, 10.32367
1061.537, 10.69304
1062.019, 10.79158
1062.501, 10.53746
1062.983, 10.31404
1063.466, 10.42025
1063.948, 10.70197
1064.430, 10.95102
1064.912, 11.13531
1065.394, 11.15824
1065.876, 10.73416
1066.358, 10.49311
1066.840, 10.63197
1067.323, 10.87891
1067.805, 10.83762
1068.287, 10.57338
1068.769, 10.59214
1069.251, 10.93281
1069.733, 11.29463
1070.215, 11.50381
1070.697, 11.62841
1071.179, 11.66043
1071.661, 11.63705
1072.144, 11.69753
1072.626, 11.84549
1073.108, 12.05996
1073.590, 12.35284
1074.072, 12.65238
1074.554, 12.95375
1075.036, 13.16106
1075.518, 13.08926
1076.001, 12.59764
1076.483, 12.35529
1076.965, 12.48108
1077.447, 12.71588
1077.929, 13.01326
1078.411, 13.27202
1078.893, 13.06865
1079.375, 12.55867
1079.858, 12.25352
1080.340, 12.55690
1080.822, 12.81763
1081.304, 12.71967
1081.786, 12.54820
1082.268, 12.56870
1082.750, 12.78518
1083.232, 12.93997
1083.714, 13.02886
1084.197, 13.12473
1084.679, 13.31924
1085.161, 13.50516
1085.643, 13.61750
1086.125, 13.65036
1086.607, 13.59610
1087.089, 13.40580
1087.571, 13.32235
1088.054, 13.40445
1088.536, 13.51277
1089.018, 13.42068
1089.500, 13.28095
1089.982, 13.36277
1090.464, 13.69864
1090.946, 13.90428
1091.428, 13.81962
1091.911, 13.73328
1092.393, 13.72778
1092.875, 13.78240
1093.357, 13.89586
1093.839, 14.02811
1094.321, 14.04158
1094.803, 13.85732
1095.285, 13.68371
1095.767, 13.55996
1096.250, 13.54399
1096.732, 13.72691
1097.214, 14.08714
1097.696, 14.16840
1098.178, 13.98375
1098.660, 13.79978
1099.142, 13.69864
1099.624, 13.71456
1100.106, 13.97768
1100.589, 14.33564
1101.071, 14.54886
1101.553, 14.59136
1102.035, 14.53098
1102.517, 14.34511
1102.999, 14.19456
1103.481, 14.28046
1103.963, 14.43892
1104.446, 14.40276
1104.928, 14.23176
1105.410, 14.20749
1105.892, 14.55794
1106.374, 14.78592
1106.856, 14.84485
1107.338, 14.72313
1107.820, 14.20556
1108.302, 13.54019
1108.785, 13.42583
1109.267, 13.93995
1109.749, 14.25823
1110.231, 13.71997
1110.713, 13.28418
1111.195, 13.35273
1111.677, 13.73085
1112.159, 13.91475
1112.641, 13.91677
1113.124, 13.78226
1113.606, 13.47914
1114.088, 13.22769
1114.570, 13.34389
1115.052, 13.42969
1115.534, 13.06536
1116.016, 12.29019
1116.498, 12.04487
1116.981, 12.34520
1117.463, 12.63983
1117.945, 12.70281
1118.427, 12.63139
1118.909, 12.42398
1119.391, 12.18565
1119.873, 12.08879
1120.355, 12.25804
1120.838, 12.20340
1121.320, 11.86806
1121.802, 11.55310
1122.284, 11.52914
1122.766, 11.61669
1123.248, 11.51308
1123.730, 11.29193
1124.212, 11.15431
1124.694, 11.23875
1125.177, 11.29778
1125.659, 11.31744
1126.141, 11.30217
1126.623, 11.23276
1127.105, 11.13723
1127.587, 11.09966
1128.069, 11.11541
1128.551, 11.11786
1129.033, 11.12167
1129.516, 11.04053
1129.998, 10.79918
1130.480, 10.52141
1130.962, 10.45865
1131.444, 10.55653
1131.926, 10.49062
1132.408, 10.20597
1132.890, 9.992667
1133.373, 10.11253
1133.855, 10.27968
1134.337, 10.35509
1134.819, 10.34304
1135.301, 10.20509
1135.783, 9.951150
1136.265, 9.855046
1136.747, 10.02124
1137.229, 10.22462
1137.712, 10.24159
1138.194, 10.23116
1138.676, 10.39717
1139.158, 10.74172
1139.640, 10.78615
1140.122, 10.50136
1140.604, 10.19534
1141.086, 9.975448
1141.569, 9.817954
1142.051, 9.658274
1142.533, 9.555102
1143.015, 9.609591
1143.497, 9.914259
1143.979, 10.09699
1144.461, 10.14085
1144.943, 10.12112
1145.426, 10.03560
1145.908, 9.953569
1146.390, 10.04064
1146.872, 10.20931
1147.354, 10.27717
1147.836, 10.01428
1148.318, 9.937804
1148.800, 10.10908
1149.282, 10.35037
1149.765, 10.56469
1150.247, 10.71886
1150.729, 10.70508
1151.211, 10.55573
1151.693, 10.41154
1152.175, 10.28025
1152.657, 10.23825
1153.139, 10.34745
1153.621, 10.46607
1154.104, 10.37914
1154.586, 10.16517
1155.068, 10.08908
1155.550, 10.16100
1156.032, 10.28702
1156.514, 10.42750
1156.996, 10.61484
1157.478, 10.89533
1157.961, 11.18840
1158.443, 11.34346
1158.925, 11.37841
1159.407, 11.40009
1159.889, 11.42411
1160.371, 11.38945
1160.853, 11.18458
1161.335, 10.99025
1161.818, 10.91416
1162.300, 10.91160
1162.782, 10.81997
1163.264, 10.65690
1163.746, 10.65864
1164.228, 10.90549
1164.710, 11.14227
1165.192, 11.14967
1165.674, 11.10575
1166.156, 11.14924
1166.639, 11.26325
1167.121, 11.30854
1167.603, 11.28592
1168.085, 11.33935
1168.567, 11.55384
1169.049, 11.74178
1169.531, 11.69481
1170.013, 11.57323
1170.496, 11.53885
1170.978, 11.59707
1171.460, 11.66946
1171.942, 11.76066
1172.424, 11.77692
1172.906, 11.60823
1173.388, 11.46688
1173.870, 11.63388
1174.353, 11.92359
1174.835, 12.07412
1175.317, 12.03175
1175.799, 12.12236
1176.281, 12.37742
1176.763, 12.51536
1177.245, 12.28771
1177.727, 11.96021
1178.209, 11.74821
1178.692, 11.67665
1179.174, 11.82379
1179.656, 12.37513
1180.138, 12.61398
1180.620, 12.49979
1181.102, 12.28979
1181.584, 12.12672
1182.066, 12.00629
1182.548, 11.92838
1183.031, 11.88820
1183.513, 11.87551
1183.995, 11.88586
1184.477, 11.93408
1184.959, 12.03092
1185.441, 12.12831
1185.923, 12.21729
1186.405, 12.25879
1186.888, 12.15759
1187.370, 11.95643
1187.852, 11.81258
1188.334, 11.79047
1188.816, 11.76396
1189.298, 11.74430
1189.780, 11.64609
1190.262, 11.17707
1190.745, 10.68983
1191.227, 10.85868
1191.709, 11.56854
1192.191, 12.03200
1192.673, 11.99059
1193.155, 11.87767
1193.637, 11.72949
1194.119, 11.58486
1194.601, 11.49420
1195.084, 11.43387
1195.566, 11.35347
1196.048, 11.25608
1196.530, 11.22217
1197.012, 11.33203
1197.494, 11.37309
1197.976, 11.30148
1198.458, 11.15500
1198.941, 10.91760
1199.423, 10.67357
1199.905, 10.58409
1200.387, 10.66221
1200.869, 10.77371
1201.351, 10.97161
1201.833, 11.02405
1202.315, 10.82625
1202.797, 10.55565
1203.280, 10.54791
1203.762, 10.65091
1204.244, 10.56093
1204.726, 10.22082
1205.208, 10.00436
1205.690, 9.954394
1206.172, 10.08867
1206.654, 10.50126
1207.136, 10.94341
1207.619, 10.90610
1208.101, 10.61595
1208.583, 10.48493
1209.065, 10.61343
1209.547, 10.66176
1210.029, 10.54391
1210.511, 10.42253
1210.993, 10.34173
1211.476, 10.30925
1211.958, 10.34512
1212.440, 10.43496
1212.922, 10.59553
1213.404, 10.89024
1213.886, 10.88661
1214.368, 10.38699
1214.850, 9.990838
1215.333, 9.985431
1215.815, 10.16760
1216.297, 10.19559
1216.779, 10.12912
1217.261, 10.09364
1217.743, 10.16028
1218.225, 10.03301
1218.707, 9.572433
1219.189, 9.256131
1219.672, 9.389882
1220.154, 9.689280
1220.636, 9.578466
1221.118, 9.267516
1221.600, 9.150955
1222.082, 9.433050
1222.564, 9.531987
1223.046, 9.356691
1223.528, 9.198348
1224.011, 9.236617
1224.493, 9.346625
1224.975, 9.281989
1225.457, 9.145935
1225.939, 9.135358
1226.421, 9.406484
1226.903, 9.467132
1227.385, 9.261862
1227.868, 9.031520
1228.350, 8.918055
1228.832, 8.847275
1229.314, 8.640688
1229.796, 8.707435
1230.278, 8.413584
1230.760, 8.800227
1231.242, 9.024110
1231.724, 9.077897
1232.207, 9.006061
1232.689, 8.735983
1233.171, 8.460504
1233.653, 8.502638
1234.135, 8.685444
1234.617, 8.693198
1235.099, 8.402241
1235.581, 8.222119
1236.063, 8.155414
1236.546, 8.194208
1237.028, 8.446357
1237.510, 8.684042
1237.992, 8.638627
1238.474, 8.425077
1238.956, 8.218049
1239.438, 8.000912
1239.920, 7.940926
1240.403, 8.051841
1240.885, 8.140941
1241.367, 8.056600
1241.849, 7.926934
1242.331, 7.783870
1242.813, 7.709512
1243.295, 7.861661
1243.777, 8.331681
1244.260, 8.471356
1244.742, 8.282575
1245.224, 8.063656
1245.706, 7.961914
1246.188, 7.933990
1246.670, 8.007023
1247.152, 8.103465
1247.634, 8.113508
1248.116, 8.029291
1248.599, 7.977773
1249.081, 7.957876
1249.563, 7.937639
1250.045, 7.934180
1250.527, 7.883500
1251.009, 7.610942
1251.491, 7.381882
1251.973, 7.531432
1252.455, 8.034839
1252.938, 8.291703
1253.420, 8.317359
1253.902, 8.292806
1254.384, 8.359015
1254.866, 8.334845
1255.348, 8.074244
1255.830, 7.776807
1256.313, 7.603442
1256.795, 7.548363
1257.277, 7.609563
1257.759, 7.765080
1258.241, 7.906066
1258.723, 8.017115
1259.205, 8.052999
1259.687, 7.981957
1260.169, 7.880947
1260.651, 7.816864
1261.134, 7.776668
1261.616, 7.693660
1262.098, 7.594774
1262.580, 7.572068
1263.062, 7.773778
1263.544, 7.876119
1264.026, 7.838867
1264.508, 7.733591
1264.991, 7.559407
1265.473, 7.391931
1265.955, 7.402129
1266.437, 7.538605
1266.919, 7.665057
1267.401, 7.788658
1267.883, 7.794703
1268.365, 7.638528
1268.848, 7.533628
1269.330, 7.735309
1269.812, 8.011213
1270.294, 8.017735
1270.776, 7.877682
1271.258, 7.876143
1271.740, 8.103251
1272.222, 8.248260
1272.704, 8.302076
1273.187, 8.312427
1273.669, 8.297399
1274.151, 8.268126
1274.633, 8.271541
1275.115, 8.246655
1275.597, 8.071439
1276.079, 7.695266
1276.561, 7.550570
1277.043, 7.634231
1277.526, 7.775084
1278.008, 7.924672
1278.490, 8.036112
1278.972, 8.051246
1279.454, 8.033431
1279.936, 8.031455
1280.418, 8.047519
1280.900, 8.215693
1281.383, 8.496311
1281.865, 8.639065
1282.347, 8.406613
1282.829, 8.175431
1283.311, 8.045359
1283.793, 7.989298
1284.275, 8.024217
1284.757, 8.115071
1285.240, 8.093266
1285.722, 7.996823
1286.204, 7.951780
1286.686, 8.062429
1287.168, 8.122262
1287.650, 8.089655
1288.132, 8.049204
1288.614, 8.048257
1289.096, 8.086813
1289.578, 8.262096
1290.061, 8.454412
1290.543, 8.388701
1291.025, 7.719217
1291.507, 7.528006
1291.989, 7.916169
1292.471, 8.306994
1292.953, 8.320472
1293.435, 8.585921
1293.918, 8.412736
1294.400, 8.677271
1294.882, 8.709909
1295.364, 8.469914
1295.846, 8.303988
1296.328, 8.211866
1296.810, 8.225467
1297.292, 8.418702
1297.775, 8.614440
1298.257, 8.662307
1298.739, 8.661350
1299.221, 8.738345
1299.703, 8.867560
1300.185, 8.696560
1300.667, 8.293062
1301.149, 8.090133
1301.631, 8.385595
1302.114, 8.547151
1302.596, 8.378126
##END=



