##NAMES=Andradite
##RRUFFID=R060358
##IDEAL CHEMISTRY=Ca_3_Fe^3+^_2_(SiO_4_)_3_
##LOCALITY=Soghan, near Jiroft, Kerman, Iran
##OWNER=RRUFF
##SOURCE=Herb Obodda
##DESCRIPTION=Green dodecahedron
##STATUS=The identification of this mineral has been confirmed by X-ray diffraction and chemical analysis
##URL=rruff.info/R060358
##MEASURED CHEMISTRY=Ca_3.00_(Fe^3+^_1.89_Cr_0.11_)_Î£=2_(Si_1.00_O_4_)_3_
91.62726, 0.0000000E+00
92.10938, 3.511909
92.59149, 3.498072
93.07361, 3.502254
93.55573, 3.523210
94.03784, 3.545659
94.51996, 3.545053
95.00208, 3.532215
95.48419, 3.549222
95.96631, 3.650244
96.44843, 3.782817
96.93054, 3.764411
97.41266, 3.571833
97.89478, 3.353584
98.37689, 3.311911
98.85901, 3.449852
99.34113, 3.572895
99.82324, 3.586530
100.3054, 3.490714
100.7875, 3.460036
101.2696, 3.522993
101.7517, 3.614221
102.2338, 3.601469
102.7159, 3.452016
103.1981, 3.291887
103.6802, 3.155522
104.1623, 3.000241
104.6444, 3.022022
105.1265, 3.323467
105.6086, 3.800093
106.0908, 4.051204
106.5729, 3.929278
107.0550, 3.751759
107.5371, 3.701806
108.0192, 3.878577
108.5013, 4.034562
108.9835, 4.154812
109.4656, 4.238973
109.9477, 4.297525
110.4298, 4.320172
110.9119, 4.322859
111.3940, 4.316997
111.8762, 4.203945
112.3583, 4.182398
112.8404, 4.292882
113.3225, 4.543103
113.8046, 4.858321
114.2867, 5.361361
114.7689, 5.883847
115.2510, 6.239194
115.7331, 6.229722
116.2152, 6.181372
116.6973, 6.183496
117.1794, 6.224418
117.6616, 6.409589
118.1437, 6.953331
118.6258, 7.654727
119.1079, 8.162835
119.5900, 8.089561
120.0721, 7.935297
120.5543, 8.061133
121.0364, 8.622938
121.5185, 9.221861
122.0006, 9.595162
122.4827, 9.805991
122.9648, 10.04176
123.4470, 10.48590
123.9291, 10.98276
124.4112, 11.33744
124.8933, 11.43122
125.3754, 11.48214
125.8575, 11.72272
126.3397, 12.12988
126.8218, 12.56365
127.3039, 12.81495
127.7860, 13.01837
128.2681, 13.47049
128.7502, 14.41185
129.2324, 15.53514
129.7145, 16.28119
130.1966, 16.65355
130.6787, 16.91035
131.1608, 17.29485
131.6429, 17.77526
132.1251, 18.21012
132.6072, 18.51726
133.0893, 18.74237
133.5714, 19.07732
134.0535, 19.54398
134.5356, 20.02001
135.0178, 20.39061
135.4999, 20.65440
135.9820, 20.75698
136.4641, 20.54654
136.9462, 20.04077
137.4283, 19.94695
137.9105, 20.35563
138.3926, 21.01415
138.8747, 21.50882
139.3568, 21.81692
139.8389, 22.07367
140.3210, 22.31614
140.8032, 22.52967
141.2853, 22.81023
141.7674, 23.14918
142.2495, 23.56038
142.7316, 24.07907
143.2137, 24.71330
143.6959, 25.15731
144.1780, 25.37269
144.6601, 25.20088
145.1422, 25.21848
145.6243, 25.45980
146.1064, 25.89314
146.5886, 26.44644
147.0707, 27.29852
147.5528, 28.06848
148.0349, 28.52715
148.5170, 28.43452
148.9991, 28.41883
149.4813, 28.41030
149.9634, 28.44490
150.4455, 28.88953
150.9276, 29.81872
151.4097, 31.09678
151.8918, 32.60767
152.3740, 34.02518
152.8561, 36.04804
153.3382, 38.87886
153.8203, 42.48283
154.3024, 46.21448
154.7845, 50.46801
155.2667, 54.56384
155.7488, 58.05550
156.2309, 60.59594
156.7130, 62.74723
157.1951, 64.52025
157.6772, 65.89919
158.1594, 67.30238
158.6415, 68.68843
159.1236, 70.17731
159.6057, 71.89373
160.0878, 73.76291
160.5699, 75.91998
161.0521, 78.48580
161.5342, 81.48518
162.0163, 84.60252
162.4984, 87.61582
162.9805, 90.71037
163.4626, 94.12101
163.9448, 98.00969
164.4269, 102.1688
164.9090, 106.4171
165.3911, 110.6466
165.8732, 115.4676
166.3553, 120.9058
166.8375, 127.1553
167.3196, 134.5410
167.8017, 141.8333
168.2838, 151.1349
168.7659, 163.7590
169.2480, 179.6465
169.7302, 199.6110
170.2123, 223.5566
170.6944, 252.0332
171.1765, 285.7719
171.6586, 329.5113
172.1407, 376.8031
172.6229, 425.8624
173.1050, 481.9686
173.5871, 523.6348
174.0692, 532.0966
174.5513, 510.8060
175.0334, 469.1604
175.5156, 396.3456
175.9977, 310.6062
176.4798, 239.3964
176.9619, 186.8435
177.4440, 147.4070
177.9261, 118.2196
178.4083, 98.16501
178.8904, 83.19093
179.3725, 72.34740
179.8546, 64.58453
180.3367, 58.25239
180.8188, 53.21072
181.3010, 49.19113
181.7831, 46.07671
182.2652, 43.83081
182.7473, 41.94923
183.2294, 40.07855
183.7115, 38.29665
184.1937, 36.91322
184.6758, 36.06834
185.1579, 35.52866
185.6400, 34.85878
186.1221, 34.07058
186.6042, 33.31059
187.0864, 32.72430
187.5685, 32.27637
188.0506, 31.84504
188.5327, 31.41546
189.0148, 30.97377
189.4969, 30.41493
189.9791, 29.73302
190.4612, 29.12537
190.9433, 28.82119
191.4254, 28.78236
191.9075, 28.64341
192.3896, 28.26155
192.8718, 27.75929
193.3539, 27.51115
193.8360, 27.53860
194.3181, 27.63074
194.8002, 27.57377
195.2823, 27.37207
195.7645, 27.25716
196.2466, 27.33058
196.7287, 27.52048
197.2108, 27.48844
197.6929, 27.18499
198.1750, 26.88389
198.6572, 26.92324
199.1393, 27.32750
199.6214, 27.53043
200.1035, 27.29579
200.5856, 26.73642
201.0677, 26.56077
201.5499, 26.83566
202.0320, 27.26686
202.5141, 27.58207
202.9962, 27.77171
203.4783, 27.91745
203.9604, 27.99947
204.4426, 28.04104
204.9247, 28.27983
205.4068, 28.78450
205.8889, 29.31160
206.3710, 29.58642
206.8531, 29.55235
207.3353, 29.55499
207.8174, 29.65423
208.2995, 29.85200
208.7816, 30.17670
209.2637, 30.62235
209.7458, 31.19760
210.2280, 31.91806
210.7101, 32.79689
211.1922, 33.77108
211.6743, 34.83361
212.1564, 35.97491
212.6385, 37.19383
213.1207, 38.45402
213.6028, 39.82668
214.0849, 41.33756
214.5670, 42.88087
215.0491, 44.81272
215.5313, 47.08956
216.0134, 49.73065
216.4955, 53.47852
216.9776, 58.74142
217.4597, 64.59043
217.9418, 70.25954
218.4240, 75.81260
218.9061, 80.86857
219.3882, 85.30226
219.8703, 89.07437
220.3524, 92.60915
220.8345, 95.70712
221.3167, 98.76485
221.7988, 102.2116
222.2809, 106.0603
222.7630, 110.1650
223.2451, 114.2374
223.7272, 118.2958
224.2094, 123.8126
224.6915, 131.3927
225.1736, 139.8555
225.6557, 147.6391
226.1378, 153.8694
226.6199, 161.5843
227.1021, 171.5036
227.5842, 183.7227
228.0663, 196.4219
228.5484, 209.8143
229.0305, 223.6297
229.5126, 237.6331
229.9948, 251.6331
230.4769, 266.0505
230.9590, 280.4295
231.4411, 294.7211
231.9232, 312.3341
232.4053, 332.0843
232.8875, 356.6678
233.3696, 388.6826
233.8517, 429.5331
234.3338, 475.6480
234.8159, 530.6960
235.2980, 594.6655
235.7802, 644.6115
236.2623, 689.6895
236.7444, 710.9370
237.2265, 689.6057
237.7086, 605.9114
238.1907, 517.3730
238.6729, 427.0027
239.1550, 335.8444
239.6371, 262.7058
240.1192, 211.6245
240.6013, 173.9425
241.0834, 144.1102
241.5656, 124.6149
242.0477, 108.6746
242.5298, 95.95363
243.0119, 86.30527
243.4940, 78.31152
243.9761, 72.29442
244.4583, 67.54972
244.9404, 63.62876
245.4225, 60.65233
245.9046, 58.25387
246.3867, 56.42017
246.8688, 55.13077
247.3510, 54.31564
247.8331, 54.33325
248.3152, 54.36623
248.7973, 53.83384
249.2794, 52.31590
249.7615, 51.11612
250.2437, 50.36767
250.7258, 50.01825
251.2079, 49.85131
251.6900, 49.87836
252.1721, 50.07141
252.6542, 50.41274
253.1364, 50.88047
253.6185, 51.55443
254.1006, 52.50920
254.5827, 53.66313
255.0648, 54.67730
255.5469, 55.35749
256.0291, 56.19222
256.5112, 57.44200
256.9933, 59.21245
257.4754, 61.13482
257.9575, 63.09240
258.4396, 65.23339
258.9218, 67.80632
259.4039, 70.53374
259.8860, 74.23970
260.3681, 79.35521
260.8502, 86.07366
261.3323, 93.76565
261.8145, 102.4983
262.2966, 112.1178
262.7787, 122.5647
263.2608, 134.2747
263.7429, 145.9701
264.2250, 158.5719
264.7072, 174.2869
265.1893, 181.2621
265.6714, 178.2109
266.1535, 167.3785
266.6356, 151.4899
267.1177, 127.8617
267.5999, 105.8635
268.0820, 88.98119
268.5641, 77.46123
269.0462, 68.34508
269.5283, 61.84321
270.0104, 57.36388
270.4926, 54.08865
270.9747, 52.20298
271.4568, 50.77631
271.9389, 49.56698
272.4210, 48.56741
272.9031, 47.72937
273.3853, 47.08278
273.8674, 46.54405
274.3495, 45.99920
274.8316, 45.41031
275.3137, 44.99456
275.7958, 44.81810
276.2780, 44.87334
276.7601, 45.09230
277.2422, 45.54295
277.7243, 45.98122
278.2064, 46.07026
278.6885, 45.74792
279.1707, 45.61837
279.6528, 45.83951
280.1349, 46.36670
280.6170, 46.98997
281.0991, 47.71982
281.5812, 48.50841
282.0634, 49.27814
282.5455, 50.03577
283.0276, 50.93758
283.5097, 52.08199
283.9918, 53.35200
284.4739, 54.32889
284.9561, 54.97452
285.4382, 55.61057
285.9203, 56.45395
286.4024, 57.49432
286.8845, 58.70094
287.3666, 60.06826
287.8488, 61.57813
288.3309, 63.11626
288.8130, 64.67580
289.2951, 66.51715
289.7772, 68.81083
290.2593, 71.52181
290.7415, 74.57979
291.2236, 77.93948
291.7057, 81.65236
292.1878, 85.72210
292.6699, 90.16187
293.1520, 95.15715
293.6342, 100.8376
294.1163, 107.1605
294.5984, 114.1095
295.0805, 121.9964
295.5626, 129.4101
296.0447, 134.5632
296.5269, 137.7171
297.0090, 140.1453
297.4911, 142.3831
297.9732, 144.3151
298.4553, 145.4315
298.9374, 145.6562
299.4196, 145.8307
299.9017, 146.5860
300.3838, 147.9376
300.8659, 149.9395
301.3480, 152.5036
301.8301, 155.7714
302.3123, 159.8927
302.7944, 164.9024
303.2765, 170.8136
303.7586, 177.3719
304.2407, 184.8931
304.7228, 194.0516
305.2050, 204.5083
305.6871, 217.2049
306.1692, 232.7564
306.6513, 251.2825
307.1334, 272.3156
307.6155, 295.6185
308.0977, 321.4618
308.5798, 350.3499
309.0619, 383.3240
309.5440, 418.3227
310.0261, 455.6115
310.5082, 494.0281
310.9904, 529.8873
311.4725, 568.4637
311.9546, 600.0712
312.4367, 616.7864
312.9188, 617.5236
313.4009, 602.8514
313.8831, 566.3863
314.3652, 515.1660
314.8473, 462.0400
315.3294, 405.5518
315.8115, 353.2898
316.2936, 309.6539
316.7758, 275.2782
317.2579, 248.1586
317.7400, 228.6961
318.2221, 215.4715
318.7042, 206.2050
319.1863, 201.2235
319.6685, 199.1447
320.1506, 199.4672
320.6327, 202.1614
321.1148, 207.3885
321.5969, 216.1756
322.0790, 226.9720
322.5612, 238.6862
323.0433, 252.1666
323.5254, 265.3028
324.0075, 279.6720
324.4896, 294.4435
324.9717, 303.0255
325.4539, 304.4233
325.9360, 299.4170
326.4181, 288.3638
326.9002, 265.6234
327.3823, 244.0260
327.8644, 223.3404
328.3466, 204.2030
328.8287, 188.5806
329.3108, 177.0890
329.7929, 168.5335
330.2750, 162.7763
330.7571, 160.2815
331.2393, 159.3128
331.7214, 159.8321
332.2035, 161.9039
332.6856, 165.6266
333.1677, 171.3899
333.6498, 178.2704
334.1320, 186.2243
334.6141, 195.1939
335.0962, 204.5838
335.5783, 214.7265
336.0604, 224.9426
336.5425, 234.5726
337.0247, 243.3023
337.5068, 252.2677
337.9889, 261.6260
338.4710, 271.4075
338.9531, 282.1010
339.4352, 293.7082
339.9174, 306.4108
340.3995, 320.1107
340.8816, 334.8592
341.3637, 350.9852
341.8458, 368.6593
342.3279, 387.7436
342.8101, 408.6626
343.2922, 431.1039
343.7743, 456.2897
344.2564, 484.2896
344.7385, 515.3904
345.2206, 549.7565
345.7028, 587.1155
346.1849, 629.4047
346.6670, 679.9777
347.1491, 738.6907
347.6312, 803.0780
348.1133, 873.5770
348.5955, 949.3106
349.0776, 1028.943
349.5597, 1113.432
350.0418, 1199.368
350.5239, 1288.137
351.0060, 1376.532
351.4882, 1451.518
351.9703, 1515.073
352.4524, 1558.134
352.9345, 1563.055
353.4166, 1531.481
353.8987, 1477.760
354.3809, 1400.602
354.8630, 1311.451
355.3451, 1227.757
355.8272, 1150.802
356.3093, 1085.185
356.7914, 1035.464
357.2736, 1000.186
357.7557, 976.7533
358.2378, 965.6774
358.7199, 964.8030
359.2020, 972.9407
359.6841, 990.2461
360.1663, 1014.719
360.6484, 1045.376
361.1305, 1082.449
361.6126, 1126.271
362.0947, 1173.510
362.5768, 1230.523
363.0590, 1300.032
363.5411, 1382.158
364.0232, 1476.974
364.5053, 1584.881
364.9874, 1705.284
365.4695, 1837.725
365.9517, 1984.164
366.4338, 2140.502
366.9159, 2312.919
367.3980, 2497.132
367.8801, 2676.836
368.3622, 2865.225
368.8444, 3034.540
369.3265, 3175.266
369.8086, 3304.800
370.2907, 3372.632
370.7728, 3375.219
371.2549, 3317.651
371.7371, 3205.638
372.2192, 3017.357
372.7013, 2803.011
373.1834, 2570.372
373.6655, 2314.862
374.1476, 2073.237
374.6298, 1846.902
375.1119, 1639.452
375.5940, 1455.989
376.0761, 1299.717
376.5582, 1162.973
377.0403, 1045.748
377.5225, 947.4830
378.0046, 861.4182
378.4867, 789.8168
378.9688, 727.7806
379.4509, 673.4327
379.9330, 627.2653
380.4152, 585.7712
380.8973, 549.2901
381.3794, 516.9364
381.8615, 489.0282
382.3436, 465.1349
382.8257, 442.2397
383.3079, 418.8047
383.7900, 395.0483
384.2721, 370.4857
384.7542, 345.1081
385.2363, 320.3825
385.7184, 297.0283
386.2006, 275.4667
386.6827, 255.4658
387.1648, 236.9267
387.6469, 220.3396
388.1290, 206.5362
388.6111, 195.3277
389.0933, 185.2954
389.5754, 175.0343
390.0575, 165.5556
390.5396, 158.1080
391.0217, 153.2815
391.5038, 149.1145
391.9860, 144.2892
392.4681, 139.1532
392.9502, 134.2655
393.4323, 129.9179
393.9144, 125.8866
394.3965, 122.1152
394.8787, 118.5808
395.3608, 115.2394
395.8429, 111.9961
396.3250, 108.9432
396.8071, 106.1495
397.2892, 103.8209
397.7714, 101.5366
398.2535, 99.23421
398.7356, 96.91455
399.2177, 94.63222
399.6998, 92.08146
400.1819, 89.82781
400.6641, 88.15091
401.1462, 87.40710
401.6283, 86.51273
402.1104, 85.45186
402.5925, 84.24979
403.0746, 82.88655
403.5568, 81.14705
404.0389, 79.64286
404.5210, 78.61361
405.0031, 78.05982
405.4852, 77.27888
405.9673, 76.21755
406.4495, 75.01979
406.9316, 73.76792
407.4137, 72.43489
407.8958, 71.20251
408.3779, 70.07218
408.8600, 69.08163
409.3422, 68.43494
409.8243, 68.16525
410.3064, 67.76232
410.7885, 66.72780
411.2706, 65.25252
411.7527, 64.35835
412.2349, 64.14257
412.7170, 64.12931
413.1991, 63.78258
413.6812, 63.17869
414.1633, 62.58219
414.6454, 62.11345
415.1276, 61.68502
415.6097, 61.16961
416.0918, 60.58254
416.5739, 60.00483
417.0560, 59.52113
417.5381, 59.06601
418.0203, 58.53209
418.5024, 57.83297
418.9845, 57.22780
419.4666, 57.00324
419.9487, 56.98363
420.4308, 56.84394
420.9130, 56.39964
421.3951, 55.85096
421.8772, 55.20017
422.3593, 54.43952
422.8414, 53.92505
423.3235, 54.01381
423.8057, 54.25336
424.2878, 54.28095
424.7699, 53.75359
425.2520, 53.35102
425.7341, 53.18842
426.2162, 53.21960
426.6984, 53.27370
427.1805, 53.33825
427.6626, 53.43901
428.1447, 53.58600
428.6268, 53.77874
429.1089, 54.02636
429.5911, 54.37924
430.0732, 54.73671
430.5553, 54.93767
431.0374, 54.90349
431.5195, 55.02844
432.0016, 55.44170
432.4838, 56.08092
432.9659, 56.62465
433.4480, 57.04078
433.9301, 57.55968
434.4122, 58.35538
434.8943, 59.40739
435.3765, 60.57783
435.8586, 61.85966
436.3407, 63.23616
436.8228, 64.78159
437.3049, 66.44127
437.7870, 67.94215
438.2692, 69.01995
438.7513, 69.94796
439.2334, 71.05819
439.7155, 72.35467
440.1976, 73.87888
440.6797, 75.76646
441.1619, 77.86008
441.6440, 79.95542
442.1261, 81.87410
442.6082, 83.98331
443.0903, 86.46238
443.5724, 89.28492
444.0546, 92.39371
444.5367, 95.97217
445.0188, 99.65634
445.5009, 103.0915
445.9830, 106.0775
446.4651, 110.0299
446.9473, 115.7740
447.4294, 122.3155
447.9115, 128.7479
448.3936, 134.8614
448.8757, 141.1174
449.3578, 147.6127
449.8400, 154.2166
450.3221, 161.1180
450.8042, 169.5293
451.2863, 176.3290
451.7684, 180.4509
452.2505, 181.8878
452.7327, 180.6709
453.2148, 176.7081
453.6969, 170.2558
454.1790, 161.2178
454.6611, 149.3784
455.1432, 137.4191
455.6254, 125.7214
456.1075, 114.5813
456.5896, 105.1800
457.0717, 97.42422
457.5538, 90.77119
458.0359, 84.90720
458.5181, 79.87070
459.0002, 75.75017
459.4823, 72.63656
459.9644, 70.11832
460.4465, 67.93283
460.9286, 66.06602
461.4108, 64.53997
461.8929, 63.54528
462.3750, 62.73245
462.8571, 61.78425
463.3392, 60.76142
463.8214, 59.98994
464.3035, 59.75500
464.7856, 59.72649
465.2677, 59.68390
465.7498, 59.57141
466.2319, 59.50908
466.7141, 59.41673
467.1962, 59.42498
467.6783, 59.70213
468.1604, 60.66417
468.6425, 61.45390
469.1246, 61.77526
469.6068, 61.69504
470.0889, 62.03327
470.5710, 62.94569
471.0531, 64.06261
471.5352, 65.17782
472.0173, 66.26053
472.4995, 67.47855
472.9816, 68.80561
473.4637, 70.31689
473.9458, 72.13182
474.4279, 74.26823
474.9100, 76.52087
475.3922, 78.71669
475.8743, 81.02927
476.3564, 84.14842
476.8385, 88.06662
477.3206, 92.05177
477.8027, 95.24849
478.2849, 98.12237
478.7670, 101.7247
479.2491, 106.3227
479.7312, 111.0876
480.2133, 114.9793
480.6954, 118.4950
481.1776, 122.5800
481.6597, 127.9696
482.1418, 133.7187
482.6239, 139.1139
483.1060, 144.2749
483.5881, 149.8782
484.0703, 155.8515
484.5524, 162.6376
485.0345, 170.5991
485.5166, 180.0190
485.9987, 189.9380
486.4808, 199.6098
486.9630, 209.8512
487.4451, 221.6959
487.9272, 235.5790
488.4093, 250.4966
488.8914, 266.5905
489.3735, 283.8905
489.8557, 301.2696
490.3378, 319.2301
490.8199, 336.7117
491.3020, 353.3267
491.7841, 369.3102
492.2662, 382.9085
492.7484, 394.3057
493.2305, 402.3980
493.7126, 405.3661
494.1947, 403.4194
494.6768, 397.4408
495.1589, 387.1506
495.6411, 373.5273
496.1232, 357.3146
496.6053, 338.7514
497.0874, 321.0401
497.5695, 304.9253
498.0516, 291.0438
498.5338, 279.8825
499.0159, 271.6154
499.4980, 265.8911
499.9801, 262.9030
500.4622, 262.1405
500.9443, 262.9550
501.4265, 265.6208
501.9086, 269.3312
502.3907, 273.8592
502.8728, 279.2509
503.3549, 285.7204
503.8370, 292.4583
504.3192, 301.1805
504.8013, 312.6151
505.2834, 327.1474
505.7655, 342.4875
506.2476, 357.3617
506.7297, 374.3899
507.2119, 396.3577
507.6940, 423.5005
508.1761, 454.1444
508.6582, 487.7701
509.1403, 525.0223
509.6224, 567.6473
510.1046, 615.6749
510.5867, 667.6810
511.0688, 722.9421
511.5509, 781.6188
512.0330, 845.0684
512.5151, 913.6365
512.9973, 983.4237
513.4794, 1056.288
513.9615, 1127.620
514.4436, 1191.479
514.9257, 1249.397
515.4078, 1292.604
515.8900, 1318.869
516.3721, 1324.811
516.8542, 1304.536
517.3363, 1246.748
517.8184, 1170.868
518.3005, 1078.770
518.7827, 971.3636
519.2648, 869.1788
519.7469, 772.4174
520.2290, 684.4078
520.7111, 606.3815
521.1932, 539.8975
521.6754, 481.6344
522.1575, 432.0632
522.6396, 389.8179
523.1217, 353.3839
523.6038, 323.3058
524.0859, 296.9888
524.5681, 274.2606
525.0502, 254.9356
525.5323, 238.3601
526.0144, 224.5420
526.4965, 212.3844
526.9786, 201.2600
527.4608, 191.0946
527.9429, 181.8351
528.4250, 173.3856
528.9071, 165.9536
529.3892, 160.0950
529.8713, 155.2518
530.3535, 150.6398
530.8356, 145.9255
531.3177, 141.4377
531.7998, 137.1882
532.2819, 133.3161
532.7640, 130.3394
533.2462, 129.1002
533.7283, 128.1049
534.2104, 126.6351
534.6925, 124.5917
535.1746, 122.9237
535.6567, 121.7960
536.1389, 121.0071
536.6210, 120.4857
537.1031, 120.3461
537.5852, 120.1755
538.0673, 119.8626
538.5494, 119.6141
539.0316, 119.9060
539.5137, 120.8712
539.9958, 121.4463
540.4779, 121.1062
540.9600, 120.2706
541.4421, 120.2101
541.9243, 120.9034
542.4064, 121.9212
542.8885, 123.1011
543.3706, 124.3667
543.8527, 125.4180
544.3348, 126.1767
544.8170, 127.3977
545.2991, 130.0166
545.7812, 133.3141
546.2633, 136.4150
546.7454, 138.6824
547.2275, 141.1740
547.7097, 144.3886
548.1918, 148.1620
548.6739, 152.0510
549.1560, 156.0036
549.6381, 160.0571
550.1202, 164.3390
550.6024, 168.8709
551.0845, 172.9370
551.5666, 176.7281
552.0487, 179.8083
552.5308, 182.0959
553.0129, 183.8654
553.4951, 183.3449
553.9772, 180.2465
554.4593, 175.3190
554.9414, 169.3090
555.4235, 162.2686
555.9056, 154.7404
556.3878, 146.8104
556.8699, 138.6537
557.3520, 130.4103
557.8341, 122.2108
558.3162, 114.7822
558.7983, 108.5723
559.2805, 103.3207
559.7626, 98.83264
560.2447, 95.11953
560.7268, 92.01569
561.2089, 89.65866
561.6910, 87.71897
562.1732, 85.93581
562.6553, 84.32687
563.1374, 82.80400
563.6195, 81.17080
564.1016, 79.67822
564.5837, 78.71608
565.0659, 78.49032
565.5480, 78.39182
566.0301, 78.23903
566.5122, 78.11189
566.9943, 78.49305
567.4764, 79.46660
567.9586, 80.52713
568.4407, 81.24876
568.9228, 81.74934
569.4049, 82.73308
569.8870, 84.21471
570.3691, 86.06084
570.8513, 88.28291
571.3334, 90.75414
571.8155, 93.12820
572.2976, 95.32607
572.7797, 97.51113
573.2618, 99.78807
573.7440, 102.1538
574.2261, 104.6560
574.7082, 108.0784
575.1903, 110.8698
575.6724, 112.4857
576.1545, 112.9331
576.6367, 112.3067
577.1188, 110.4187
577.6009, 107.6697
578.0830, 104.0541
578.5651, 99.41829
579.0472, 94.77135
579.5294, 89.94035
580.0115, 85.30727
580.4936, 81.12728
580.9757, 77.36440
581.4578, 74.15904
581.9399, 71.58601
582.4221, 69.44810
582.9042, 67.42605
583.3863, 65.56565
583.8684, 63.94428
584.3505, 62.74650
584.8326, 61.69107
585.3148, 60.35543
585.7969, 58.83941
586.2790, 57.66085
586.7611, 57.31928
587.2432, 57.22846
587.7253, 57.04496
588.2075, 56.72918
588.6896, 56.33437
589.1717, 55.70235
589.6538, 55.10425
590.1359, 54.75215
590.6180, 54.81720
591.1002, 54.81405
591.5823, 54.77783
592.0644, 54.61965
592.5465, 54.08702
593.0286, 53.09882
593.5107, 52.39001
593.9929, 52.31781
594.4750, 52.54402
594.9571, 52.08608
595.4392, 51.01357
595.9213, 50.03034
596.4034, 49.63223
596.8856, 49.53197
597.3677, 49.40842
597.8498, 49.24260
598.3319, 48.93001
598.8140, 48.13435
599.2961, 47.32339
599.7783, 46.94030
600.2604, 47.32476
600.7425, 47.55964
601.2246, 47.28955
601.7067, 46.81675
602.1888, 46.54981
602.6710, 46.68208
603.1531, 46.69145
603.6352, 46.46027
604.1173, 46.07915
604.5994, 45.87346
605.0815, 45.91090
605.5637, 45.74992
606.0458, 45.06460
606.5279, 44.04382
607.0100, 43.47571
607.4921, 43.35942
607.9742, 43.23026
608.4564, 42.61556
608.9385, 41.81521
609.4206, 41.33568
609.9027, 41.27922
610.3848, 41.18044
610.8669, 40.56181
611.3491, 39.82967
611.8312, 39.40739
612.3133, 39.69404
612.7954, 39.91078
613.2775, 39.93156
613.7596, 39.78090
614.2418, 39.49700
614.7239, 38.96035
615.2060, 38.50470
615.6881, 38.24590
616.1702, 38.11745
616.6523, 37.71691
617.1345, 36.97082
617.6166, 36.38592
618.0987, 36.41661
618.5808, 36.85585
619.0629, 36.86427
619.5450, 36.43442
620.0272, 35.91685
620.5093, 35.50258
620.9914, 35.21346
621.4735, 35.12770
621.9556, 35.31986
622.4377, 35.47419
622.9199, 35.26915
623.4020, 34.99334
623.8841, 34.98064
624.3662, 35.77442
624.8483, 36.26615
625.3304, 36.14974
625.8126, 35.65577
626.2947, 35.25758
626.7768, 34.91827
627.2589, 34.78704
627.7410, 35.01633
628.2231, 35.48530
628.7053, 35.49306
629.1874, 35.00911
629.6695, 34.52985
630.1516, 34.36266
630.6337, 34.43705
631.1158, 34.65083
631.5980, 34.99741
632.0801, 35.26259
632.5622, 35.19585
633.0443, 35.00276
633.5264, 34.91106
634.0085, 35.00091
634.4907, 35.09716
634.9728, 35.25264
635.4549, 35.33258
635.9370, 35.16823
636.4191, 34.34725
636.9012, 33.83763
637.3834, 33.82756
637.8655, 34.13462
638.3476, 34.36707
638.8297, 34.54119
639.3118, 34.54845
639.7939, 34.26701
640.2761, 33.82844
640.7582, 33.70434
641.2403, 33.87709
641.7224, 34.07849
642.2045, 34.21051
642.6866, 34.23942
643.1688, 34.02071
643.6509, 33.55598
644.1330, 33.26018
644.6151, 33.54618
645.0972, 33.98839
645.5793, 34.25067
646.0615, 34.23770
646.5436, 34.15277
647.0257, 33.81548
647.5078, 33.54258
647.9899, 33.69921
648.4720, 34.64970
648.9542, 35.07141
649.4363, 34.69054
649.9184, 33.89821
650.4005, 33.35011
650.8826, 33.04798
651.3647, 32.92677
651.8469, 33.02873
652.3290, 33.22912
652.8111, 33.35989
653.2932, 33.41320
653.7753, 33.35248
654.2574, 32.98400
654.7396, 32.62804
655.2217, 32.58229
655.7038, 32.83598
656.1859, 33.01754
656.6680, 32.92348
657.1501, 32.80114
657.6323, 32.81433
658.1144, 33.03413
658.5965, 33.06492
659.0786, 32.80224
659.5607, 32.50554
660.0428, 32.42150
660.5250, 32.56562
661.0071, 32.62450
661.4892, 32.54607
661.9713, 32.46037
662.4534, 32.58376
662.9355, 32.83846
663.4177, 33.00039
663.8998, 32.97295
664.3819, 32.88625
664.8640, 32.78618
665.3461, 32.71329
665.8282, 32.74511
666.3104, 33.04283
666.7925, 33.30902
667.2746, 33.44464
667.7567, 33.45937
668.2388, 33.44052
668.7209, 33.37783
669.2031, 33.29541
669.6852, 33.18501
670.1673, 33.05275
670.6494, 33.01556
671.1315, 33.08961
671.6136, 33.13457
672.0958, 33.02176
672.5779, 32.80280
673.0600, 32.61338
673.5421, 32.46162
674.0242, 32.35086
674.5063, 32.20309
674.9885, 32.13735
675.4706, 32.32953
675.9527, 32.94672
676.4348, 33.44799
676.9169, 33.68886
677.3990, 33.69930
677.8812, 33.48060
678.3633, 32.76039
678.8454, 32.33414
679.3275, 32.38128
679.8096, 32.64589
680.2917, 32.62543
680.7739, 32.29754
681.2560, 32.04237
681.7381, 31.96814
682.2202, 32.03047
682.7023, 32.26431
683.1844, 32.59687
683.6666, 32.72792
684.1487, 32.22952
684.6308, 31.68452
685.1129, 31.62772
685.5950, 31.97891
686.0771, 32.22241
686.5593, 32.03789
687.0414, 31.83167
687.5235, 31.80931
688.0056, 31.98758
688.4877, 32.11390
688.9698, 32.17915
689.4520, 32.20801
689.9341, 32.21794
690.4162, 32.20900
690.8983, 32.12970
691.3804, 31.95977
691.8625, 31.84674
692.3447, 32.04702
692.8268, 32.38931
693.3089, 32.50583
693.7910, 32.28070
694.2731, 32.03778
694.7552, 31.98585
695.2374, 32.05010
695.7195, 32.14397
696.2016, 32.24733
696.6837, 32.37744
697.1658, 32.54794
697.6479, 32.74168
698.1301, 32.96239
698.6122, 33.29095
699.0943, 33.38970
699.5764, 33.11135
700.0585, 32.64713
700.5406, 32.43818
701.0228, 32.46815
701.5049, 32.56455
701.9870, 32.66661
702.4691, 32.78159
702.9512, 32.92085
703.4333, 33.08292
703.9155, 33.25784
704.3976, 33.52457
704.8797, 33.73122
705.3618, 33.80514
705.8439, 33.74269
706.3260, 33.55571
706.8082, 33.02863
707.2903, 32.64199
707.7724, 32.65472
708.2545, 33.08855
708.7366, 33.41666
709.2188, 33.64187
709.7009, 33.74660
710.1830, 33.59906
710.6651, 33.31658
711.1472, 33.32324
711.6293, 33.67217
712.1115, 34.02873
712.5936, 34.19288
713.0757, 34.18600
713.5578, 33.97626
714.0399, 33.39558
714.5220, 33.05084
715.0042, 33.36745
715.4863, 33.88219
715.9684, 34.10711
716.4505, 33.93756
716.9326, 33.67495
717.4147, 33.26410
717.8969, 32.87165
718.3790, 32.83998
718.8611, 33.14770
719.3432, 33.32003
719.8253, 33.19377
720.3074, 32.97376
720.7896, 32.90436
721.2717, 32.95584
721.7538, 33.05860
722.2359, 33.30286
722.7180, 33.47034
723.2001, 33.36121
723.6823, 33.07838
724.1644, 32.93537
724.6465, 33.20278
725.1286, 33.32088
725.6107, 33.08863
726.0928, 32.60516
726.5750, 32.36367
727.0571, 32.40346
727.5392, 32.45858
728.0213, 32.32519
728.5034, 32.14017
728.9855, 32.39425
729.4677, 33.01680
729.9498, 33.48849
730.4319, 33.26227
730.9140, 32.87950
731.3961, 32.83786
731.8782, 33.16551
732.3604, 33.39618
732.8425, 33.28873
733.3246, 33.13921
733.8067, 33.10977
734.2888, 33.23039
734.7709, 33.26441
735.2531, 33.17319
735.7352, 33.09570
736.2173, 33.16671
736.6994, 33.35897
737.1815, 33.50102
737.6636, 33.58189
738.1458, 33.61816
738.6279, 33.59964
739.1100, 33.55642
739.5921, 33.50694
740.0742, 33.42504
740.5563, 33.45170
741.0385, 33.81400
741.5206, 34.21808
742.0027, 34.35194
742.4848, 33.90214
742.9669, 33.78956
743.4490, 34.14744
743.9312, 34.69246
744.4133, 35.11308
744.8954, 35.40813
745.3775, 35.49774
745.8596, 35.31925
746.3417, 35.07542
746.8239, 35.02309
747.3060, 35.09621
747.7881, 35.16870
748.2702, 35.19358
748.7523, 35.21495
749.2344, 35.29769
749.7166, 35.38306
750.1987, 35.35535
750.6808, 34.99197
751.1629, 34.84128
751.6450, 35.06145
752.1271, 35.48763
752.6093, 35.73579
753.0914, 35.80221
753.5735, 35.75666
754.0556, 35.54978
754.5377, 35.33747
755.0198, 35.44450
755.5020, 35.78572
755.9841, 36.09105
756.4662, 36.28242
756.9483, 36.35165
757.4304, 36.23323
757.9125, 35.97690
758.3947, 35.76673
758.8768, 35.55178
759.3589, 35.49913
759.8410, 35.73472
760.3231, 36.17552
760.8052, 36.36615
761.2874, 36.28394
761.7695, 36.09890
762.2516, 35.71584
762.7337, 35.36322
763.2158, 35.73582
763.6979, 36.70186
764.1801, 37.50086
764.6622, 37.54860
765.1443, 37.37598
765.6264, 37.24205
766.1085, 37.17717
766.5906, 37.39098
767.0728, 38.21640
767.5549, 38.99783
768.0370, 39.43387
768.5191, 39.53551
769.0012, 39.97955
769.4833, 40.84056
769.9655, 41.56876
770.4476, 41.58464
770.9297, 41.23590
771.4118, 41.48397
771.8939, 42.31911
772.3760, 43.19611
772.8582, 43.82457
773.3403, 44.28548
773.8224, 44.56519
774.3045, 44.62729
774.7866, 44.88183
775.2687, 45.49003
775.7509, 46.19825
776.2330, 46.92681
776.7151, 47.70221
777.1972, 48.16411
777.6793, 48.24327
778.1614, 48.39524
778.6436, 49.21146
779.1257, 50.34463
779.6078, 50.86247
780.0899, 50.67897
780.5720, 50.59508
781.0541, 51.12416
781.5363, 52.00641
782.0184, 53.06384
782.5005, 54.33753
782.9826, 55.55466
783.4647, 56.67774
783.9468, 57.76418
784.4290, 58.85558
784.9111, 59.96276
785.3932, 60.94689
785.8753, 61.73174
786.3574, 62.74617
786.8395, 64.66221
787.3217, 67.05111
787.8038, 69.01649
788.2859, 70.35010
788.7680, 71.73420
789.2501, 73.51438
789.7322, 75.56364
790.2144, 77.78905
790.6965, 80.08950
791.1786, 82.78165
791.6607, 86.06064
792.1428, 89.46655
792.6249, 92.52269
793.1071, 95.23215
793.5892, 98.30212
794.0713, 101.8300
794.5534, 105.5632
795.0355, 109.1971
795.5176, 112.9226
795.9998, 117.0694
796.4819, 121.6897
796.9640, 126.7465
797.4461, 132.2232
797.9282, 138.1812
798.4103, 144.6915
798.8925, 151.8776
799.3746, 159.5229
799.8567, 167.6082
800.3388, 176.0296
800.8209, 184.2974
801.3030, 192.5164
801.7852, 202.0528
802.2673, 213.2080
802.7494, 225.2485
803.2315, 237.3703
803.7136, 249.8525
804.1957, 262.8530
804.6779, 276.3428
805.1600, 291.0069
805.6421, 307.2281
806.1242, 324.6966
806.6063, 342.9447
807.0884, 361.4242
807.5706, 382.3596
808.0527, 406.1187
808.5348, 431.6177
809.0169, 457.9260
809.4990, 485.1512
809.9811, 514.1957
810.4633, 545.3171
810.9454, 578.0380
811.4275, 613.4778
811.9096, 650.0655
812.3917, 685.9286
812.8738, 721.5775
813.3560, 754.8840
813.8381, 787.5240
814.3202, 816.0818
814.8023, 838.2379
815.2844, 853.9827
815.7665, 862.6554
816.2487, 864.4979
816.7308, 858.0063
817.2129, 840.2805
817.6950, 813.3422
818.1771, 780.4568
818.6592, 741.7776
819.1414, 701.2552
819.6235, 658.8214
820.1056, 616.7965
820.5877, 576.7916
821.0698, 538.8177
821.5519, 504.6431
822.0341, 474.1750
822.5162, 447.5722
822.9983, 424.5126
823.4804, 404.8936
823.9625, 388.2534
824.4446, 374.5129
824.9268, 363.1610
825.4089, 353.8452
825.8910, 346.6531
826.3731, 342.0197
826.8552, 339.9647
827.3373, 339.9453
827.8195, 342.4203
828.3016, 346.3861
828.7837, 351.1731
829.2658, 356.7211
829.7479, 363.0328
830.2300, 369.7945
830.7122, 378.0019
831.1943, 388.4166
831.6764, 400.8876
832.1585, 414.8121
832.6406, 430.0875
833.1227, 446.2628
833.6049, 462.6795
834.0870, 479.8401
834.5691, 498.2310
835.0512, 517.6920
835.5333, 539.6194
836.0154, 564.8842
836.4976, 591.7233
836.9797, 619.3835
837.4618, 648.1804
837.9439, 677.5875
838.4260, 707.7761
838.9081, 737.0594
839.3903, 765.3987
839.8724, 791.5379
840.3545, 814.0885
840.8366, 832.7670
841.3187, 845.7321
841.8008, 852.3302
842.2830, 852.6268
842.7651, 846.3061
843.2472, 833.6535
843.7293, 815.6714
844.2114, 792.1576
844.6935, 763.8881
845.1757, 729.6536
845.6578, 691.6019
846.1399, 654.3707
846.6220, 618.0558
847.1041, 583.2425
847.5862, 549.6068
848.0684, 518.1639
848.5505, 489.6669
849.0326, 464.1650
849.5147, 440.4914
849.9968, 418.4677
850.4789, 398.5270
850.9611, 380.8275
851.4432, 365.3101
851.9253, 352.0194
852.4074, 340.9270
852.8895, 330.9094
853.3716, 321.3784
853.8538, 313.1394
854.3359, 307.2927
854.8180, 303.5691
855.3001, 301.4010
855.7822, 301.1154
856.2643, 301.6928
856.7465, 302.5509
857.2286, 304.1774
857.7107, 307.6039
858.1928, 312.9344
858.6749, 319.6459
859.1570, 327.6369
859.6392, 337.0651
860.1213, 348.0132
860.6034, 360.5266
861.0855, 374.7157
861.5676, 390.9991
862.0497, 408.4941
862.5319, 426.4604
863.0140, 445.3867
863.4961, 465.6288
863.9782, 487.0762
864.4603, 510.2929
864.9424, 535.4467
865.4246, 562.7286
865.9067, 592.2784
866.3888, 624.2129
866.8709, 660.7207
867.3530, 702.1920
867.8351, 747.5015
868.3173, 796.6642
868.7994, 849.7036
869.2815, 906.6789
869.7636, 968.3729
870.2457, 1033.714
870.7278, 1104.741
871.2100, 1176.529
871.6921, 1246.596
872.1742, 1314.342
872.6563, 1375.846
873.1384, 1431.280
873.6205, 1473.196
874.1027, 1499.730
874.5848, 1506.847
875.0669, 1487.391
875.5490, 1441.089
876.0311, 1377.000
876.5132, 1290.028
876.9954, 1193.725
877.4775, 1091.384
877.9596, 983.7958
878.4417, 882.3533
878.9238, 786.6633
879.4059, 699.0742
879.8881, 621.9502
880.3702, 554.1483
880.8523, 494.7882
881.3344, 443.5276
881.8165, 398.9193
882.2986, 362.3357
882.7808, 329.9779
883.2629, 300.8673
883.7450, 274.8458
884.2271, 251.7908
884.7092, 231.8621
885.1913, 214.5437
885.6735, 200.0252
886.1556, 187.6198
886.6377, 175.9792
887.1198, 165.3066
887.6019, 155.5754
888.0840, 146.8130
888.5662, 138.9970
889.0483, 132.5153
889.5304, 126.8263
890.0125, 121.1514
890.4946, 114.7693
890.9767, 109.4853
891.4589, 105.6658
891.9410, 102.4934
892.4231, 98.67055
892.9052, 94.39702
893.3873, 91.14299
893.8694, 89.22869
894.3516, 87.49522
894.8337, 84.90887
895.3158, 82.01362
895.7979, 79.30351
896.2800, 76.82696
896.7621, 74.77007
897.2443, 73.29316
897.7264, 72.02026
898.2085, 70.73943
898.6906, 69.45737
899.1727, 68.22709
899.6548, 67.05894
900.1370, 65.91175
900.6191, 64.74166
901.1012, 63.60179
901.5833, 62.58767
902.0654, 61.70129
902.5475, 60.77654
903.0297, 59.61086
903.5118, 58.60217
903.9939, 57.90790
904.4760, 57.47290
904.9581, 57.07748
905.4402, 56.72261
905.9224, 56.26353
906.4045, 55.54267
906.8866, 54.78581
907.3687, 54.25800
907.8508, 53.91023
908.3329, 53.64617
908.8151, 53.65294
909.2972, 53.45397
909.7793, 52.84841
910.2614, 52.06197
910.7435, 51.45221
911.2256, 51.04285
911.7078, 50.48441
912.1899, 49.66816
912.6720, 48.87355
913.1541, 48.58069
913.6362, 48.48462
914.1183, 48.09596
914.6005, 47.22230
915.0826, 46.38142
915.5647, 45.72966
916.0468, 45.17558
916.5289, 44.67756
917.0110, 44.24850
917.4932, 43.73808
917.9753, 43.13106
918.4574, 42.54646
918.9395, 42.09898
919.4216, 41.72171
919.9037, 41.27777
920.3859, 40.78015
920.8680, 40.40442
921.3501, 40.28948
921.8322, 40.24475
922.3143, 40.26304
922.7964, 40.29198
923.2786, 40.03979
923.7607, 39.46880
924.2428, 38.90436
924.7249, 38.44891
925.2070, 38.09892
925.6891, 37.90496
926.1713, 37.81409
926.6534, 37.71052
927.1355, 37.57688
927.6176, 37.38999
928.0997, 37.02555
928.5818, 36.66507
929.0640, 36.56164
929.5461, 36.76875
930.0282, 36.93122
930.5103, 37.03426
930.9924, 36.98280
931.4745, 36.56275
931.9567, 35.95604
932.4388, 35.42521
932.9209, 35.01086
933.4030, 34.72155
933.8851, 34.71704
934.3672, 34.70381
934.8494, 34.48420
935.3315, 34.04615
935.8136, 33.78330
936.2957, 33.71661
936.7778, 33.64046
937.2599, 33.37701
937.7421, 33.05320
938.2242, 32.83523
938.7063, 32.72461
939.1884, 32.71607
939.6705, 33.02667
940.1526, 33.17603
940.6348, 32.91647
941.1169, 32.44505
941.5990, 32.23280
942.0811, 32.30812
942.5632, 32.27992
943.0453, 32.01371
943.5275, 31.73019
944.0096, 31.74460
944.4917, 31.91392
944.9738, 31.99815
945.4559, 31.87516
945.9380, 31.81829
946.4202, 31.91215
946.9023, 32.08237
947.3844, 32.27790
947.8665, 32.49679
948.3486, 32.81896
948.8307, 33.25875
949.3129, 33.58228
949.7950, 33.47149
950.2771, 33.22554
950.7592, 33.22145
951.2413, 33.44683
951.7234, 33.62826
952.2056, 33.64406
952.6877, 33.66034
953.1698, 33.76267
953.6519, 33.88625
954.1340, 33.73702
954.6161, 33.33206
955.0983, 33.07353
955.5804, 33.10796
956.0625, 33.33361
956.5446, 33.86835
957.0267, 34.45645
957.5089, 34.70705
957.9910, 34.17259
958.4731, 33.82109
958.9552, 33.74625
959.4373, 33.78730
959.9194, 33.71263
960.4016, 33.57040
960.8837, 33.87939
961.3658, 34.67979
961.8479, 35.44264
962.3300, 35.76417
962.8121, 35.85773
963.2943, 35.82280
963.7764, 35.67195
964.2585, 35.65677
964.7406, 35.81319
965.2227, 36.05111
965.7048, 36.35523
966.1870, 36.70576
966.6691, 37.08200
967.1512, 37.47544
967.6333, 37.84170
968.1154, 38.20103
968.5975, 38.48229
969.0797, 38.49331
969.5618, 38.46104
970.0439, 38.75738
970.5260, 39.52174
971.0081, 40.26866
971.4902, 41.00480
971.9724, 41.59703
972.4545, 41.72652
972.9366, 41.62998
973.4187, 41.93775
973.9008, 42.71268
974.3829, 43.33149
974.8651, 43.19361
975.3472, 43.06118
975.8293, 43.36273
976.3114, 44.06493
976.7935, 44.88921
977.2756, 45.86815
977.7578, 46.69731
978.2399, 47.11100
978.7220, 47.46301
979.2041, 48.30725
979.6862, 49.50344
980.1683, 50.74310
980.6505, 51.92190
981.1326, 53.14378
981.6147, 54.30396
982.0968, 55.63197
982.5789, 57.44331
983.0610, 59.73928
983.5432, 62.08519
984.0253, 64.47865
984.5074, 66.85165
984.9895, 68.94411
985.4716, 71.16286
985.9537, 73.97433
986.4359, 77.43223
986.9180, 80.94837
987.4001, 84.27540
987.8822, 87.94011
988.3643, 92.03095
988.8464, 96.62342
989.3286, 101.9420
989.8107, 107.9530
990.2928, 114.5045
990.7749, 121.7008
991.2570, 129.1771
991.7391, 136.5854
992.2213, 144.1491
992.7034, 152.5599
993.1855, 162.5705
993.6676, 171.5897
994.1497, 179.7581
994.6318, 186.2028
995.1140, 190.4546
995.5961, 192.1302
996.0782, 190.1620
996.5603, 184.5185
997.0424, 176.8404
997.5245, 167.2946
998.0067, 156.3545
998.4888, 143.5280
998.9709, 129.5865
999.4530, 117.3471
999.9351, 106.9029
1000.417, 97.58587
1000.899, 89.07674
1001.381, 81.59959
1001.864, 75.47424
1002.346, 70.40270
1002.828, 65.98879
1003.310, 62.30052
1003.792, 59.00575
1004.274, 56.05977
1004.756, 53.44065
1005.238, 51.14133
1005.721, 49.15145
1006.203, 47.24535
1006.685, 45.44608
1007.167, 43.73995
1007.649, 42.03559
1008.131, 40.52582
1008.613, 39.42114
1009.095, 38.67879
1009.577, 37.95521
1010.060, 37.28959
1010.542, 36.49140
1011.024, 35.44295
1011.506, 34.39569
1011.988, 33.82047
1012.470, 33.53732
1012.952, 33.17956
1013.434, 32.63317
1013.917, 32.08774
1014.399, 31.60799
1014.881, 31.17286
1015.363, 30.75601
1015.845, 30.35718
1016.327, 30.13264
1016.809, 30.08772
1017.291, 29.99530
1017.773, 29.67146
1018.256, 29.26311
1018.738, 28.85425
1019.220, 28.47624
1019.702, 28.22004
1020.184, 28.22051
1020.666, 28.13956
1021.148, 27.93236
1021.630, 27.63587
1022.112, 27.20322
1022.595, 26.72690
1023.077, 26.63064
1023.559, 27.02652
1024.041, 27.21365
1024.523, 26.42851
1025.005, 25.57253
1025.487, 25.35526
1025.969, 25.72028
1026.452, 25.78998
1026.934, 25.53226
1027.416, 25.24307
1027.898, 25.05607
1028.380, 24.90224
1028.862, 24.60324
1029.344, 24.28329
1029.826, 24.17505
1030.308, 24.72364
1030.791, 24.92874
1031.273, 24.58315
1031.755, 24.06775
1032.237, 23.75734
1032.719, 23.61644
1033.201, 23.37839
1033.683, 23.03537
1034.165, 22.74318
1034.647, 22.63796
1035.130, 22.59418
1035.612, 22.57786
1036.094, 22.56020
1036.576, 22.40502
1037.058, 22.06747
1037.540, 21.81489
1038.022, 21.74564
1038.504, 21.70819
1038.987, 21.44773
1039.469, 21.08379
1039.951, 20.80016
1040.433, 20.63412
1040.915, 20.59210
1041.397, 20.82274
1041.879, 20.99565
1042.361, 20.88904
1042.844, 20.55183
1043.326, 20.34470
1043.808, 20.26205
1044.290, 20.24439
1044.772, 20.38203
1045.254, 20.44621
1045.736, 20.06616
1046.218, 19.57865
1046.700, 19.71364
1047.183, 20.84099
1047.665, 21.20638
1048.147, 20.40780
1048.629, 19.84701
1049.111, 21.97428
1049.593, 24.87098
1050.075, 25.08404
1050.557, 22.41787
1051.040, 20.21466
1051.522, 19.94443
1052.004, 19.90005
1052.486, 19.61601
1052.968, 19.21795
1053.450, 19.09432
1053.932, 19.20247
1054.414, 19.28374
1054.896, 19.24412
1055.379, 19.20658
1055.861, 19.23809
1056.343, 19.32630
1056.825, 19.48336
1057.307, 19.74077
1057.789, 19.83847
1058.271, 19.74756
1058.753, 19.66788
1059.235, 19.77760
1059.718, 19.94770
1060.200, 19.90954
1060.682, 19.77166
1061.164, 19.83892
1061.646, 20.54299
1062.128, 20.97153
1062.610, 20.90274
1063.092, 20.67511
1063.574, 20.71073
1064.057, 20.96117
1064.539, 21.25308
1065.021, 21.57021
1065.503, 21.77944
1065.985, 21.66534
1066.467, 21.54564
1066.949, 21.64272
1067.431, 21.89990
1067.914, 22.07612
1068.396, 22.16111
1068.878, 22.28808
1069.360, 22.50237
1069.842, 22.76072
1070.324, 23.02259
1070.806, 23.29373
1071.288, 23.59024
1071.771, 23.96018
1072.253, 24.19140
1072.735, 24.19936
1073.217, 24.23935
1073.699, 24.50121
1074.181, 24.89670
1074.663, 25.21770
1075.145, 25.45528
1075.627, 25.56762
1076.110, 25.21557
1076.592, 25.14407
1077.074, 25.86009
1077.556, 26.75700
1078.038, 27.10946
1078.520, 26.92733
1079.002, 26.87661
1079.484, 27.00416
1079.967, 27.18566
1080.449, 27.35771
1080.931, 27.51495
1081.413, 27.64198
1081.895, 27.74628
1082.377, 27.85665
1082.859, 27.93085
1083.341, 28.21029
1083.823, 28.82627
1084.306, 29.45798
1084.788, 29.59813
1085.270, 29.47982
1085.752, 29.43555
1086.234, 29.52568
1086.716, 29.69797
1087.198, 29.98717
1087.680, 30.28124
1088.162, 30.53617
1088.645, 30.75304
1089.127, 30.90518
1089.609, 31.02496
1090.091, 31.25263
1090.573, 31.79835
1091.055, 32.21841
1091.537, 32.23624
1092.019, 32.08476
1092.501, 31.95397
1092.984, 31.82796
1093.466, 31.97899
1093.948, 32.41701
1094.430, 32.73642
1094.912, 32.50408
1095.394, 32.16830
1095.876, 32.05491
1096.358, 32.15016
1096.841, 32.39534
1097.323, 32.87196
1097.805, 33.22113
1098.287, 33.38722
1098.769, 33.44571
1099.251, 33.41488
1099.733, 33.36478
1100.215, 33.43932
1100.698, 33.64832
1101.180, 33.75161
1101.662, 33.58489
1102.144, 33.46027
1102.626, 33.47418
1103.108, 33.57183
1103.590, 33.64435
1104.072, 33.69054
1104.554, 33.70300
1105.037, 33.67587
1105.519, 33.62822
1106.001, 33.63725
1106.483, 33.55752
1106.965, 33.24201
1107.447, 32.72491
1107.929, 32.51991
1108.411, 32.60871
1108.894, 32.65608
1109.376, 32.46857
1109.858, 32.21671
1110.340, 32.04909
1110.822, 31.89102
1111.304, 31.62234
1111.786, 31.20341
1112.268, 30.80474
1112.750, 30.42294
1113.233, 30.10737
1113.715, 29.99163
1114.197, 29.89310
1114.679, 29.51708
1115.161, 28.94861
1115.643, 28.52161
1116.125, 28.40375
1116.607, 28.21898
1117.089, 27.90241
1117.572, 27.55670
1118.054, 27.33294
1118.536, 27.17052
1119.018, 26.91296
1119.500, 26.55056
1119.982, 26.26994
1120.464, 26.32815
1120.946, 26.24263
1121.428, 25.82016
1121.911, 25.20501
1122.393, 24.65600
1122.875, 24.20016
1123.357, 24.01500
1123.839, 24.21585
1124.321, 24.31840
1124.803, 23.97330
1125.285, 23.48246
1125.768, 22.99613
1126.250, 22.53597
1126.732, 22.37265
1127.214, 22.49222
1127.696, 22.51938
1128.178, 22.25181
1128.660, 21.91959
1129.142, 21.71605
1129.625, 21.56042
1130.107, 21.34790
1130.589, 21.05306
1131.071, 20.78250
1131.553, 20.52488
1132.035, 20.36756
1132.517, 20.46757
1132.999, 20.62339
1133.481, 20.62355
1133.964, 20.48916
1134.446, 20.25931
1134.928, 19.85369
1135.410, 19.52078
1135.892, 19.25729
1136.374, 19.10770
1136.856, 19.18882
1137.338, 19.38130
1137.821, 19.48178
1138.303, 19.49166
1138.785, 19.49216
1139.267, 19.50687
1139.749, 19.51508
1140.231, 19.50320
1140.713, 19.50012
1141.195, 19.59866
1141.677, 19.73447
1142.160, 19.70093
1142.642, 19.46874
1143.124, 19.25106
1143.606, 19.09792
1144.088, 19.04389
1144.570, 19.11284
1145.052, 19.27288
1145.534, 19.48694
1146.016, 19.72628
1146.499, 19.78101
1146.981, 19.53913
1147.463, 19.40594
1147.945, 19.81318
1148.427, 20.24453
1148.909, 20.35200
1149.391, 20.16801
1149.873, 19.90881
1150.355, 19.58377
1150.838, 19.44363
1151.320, 19.64938
1151.802, 19.92961
1152.284, 20.08854
1152.766, 20.20087
1153.248, 20.35973
1153.730, 20.58219
1154.212, 20.69389
1154.695, 20.68335
1155.177, 20.71899
1155.659, 20.98811
1156.141, 21.25631
1156.623, 21.23204
1157.105, 21.06574
1157.587, 21.03077
1158.069, 21.14880
1158.552, 21.42894
1159.034, 21.92337
1159.516, 22.28807
1159.998, 22.05383
1160.480, 21.67605
1160.962, 21.79639
1161.444, 22.26615
1161.926, 22.53906
1162.408, 22.41668
1162.891, 22.38204
1163.373, 22.50774
1163.855, 22.63739
1164.337, 22.50407
1164.819, 22.31440
1165.301, 22.49028
1165.783, 22.98672
1166.265, 23.26799
1166.748, 22.62868
1167.230, 22.82329
1167.712, 24.35395
1168.194, 26.46293
1168.676, 28.79424
1169.158, 30.66525
1169.640, 30.22111
1170.122, 27.24769
1170.604, 24.83183
1171.087, 24.12915
1171.569, 23.98058
1172.051, 24.26856
1172.533, 24.71537
1173.015, 24.64976
1173.497, 24.28240
1173.979, 24.24795
1174.461, 24.74368
1174.943, 25.11542
1175.426, 24.91530
1175.908, 24.77147
1176.390, 24.98661
1176.872, 25.40990
1177.354, 25.51217
1177.836, 25.38837
1178.318, 25.40217
1178.800, 25.74529
1179.282, 25.98246
1179.765, 25.76602
1180.247, 25.54020
1180.729, 25.59814
1181.211, 25.86734
1181.693, 25.93447
1182.175, 25.82439
1182.657, 25.66088
1183.139, 25.40459
1183.622, 25.26534
1184.104, 25.48741
1184.586, 25.74866
1185.068, 25.78915
1185.550, 25.62066
1186.032, 25.45428
1186.514, 25.29449
1186.996, 25.18855
1187.479, 25.15076
1187.961, 25.18772
1188.443, 25.38239
1188.925, 25.59930
1189.407, 25.72470
1189.889, 25.75989
1190.371, 25.51985
1190.853, 25.01926
1191.335, 24.63257
1191.818, 24.72417
1192.300, 24.85114
1192.782, 24.74724
1193.264, 24.52718
1193.746, 24.33458
1194.228, 24.16504
1194.710, 24.19203
1195.192, 24.42338
1195.675, 24.56498
1196.157, 24.31021
1196.639, 23.99375
1197.121, 23.83939
1197.603, 23.77444
1198.085, 23.62049
1198.567, 23.36687
1199.049, 23.28285
1199.531, 23.40549
1200.014, 23.45063
1200.496, 22.98682
1200.978, 22.55863
1201.460, 22.69059
1201.942, 23.14736
1202.424, 23.19904
1202.906, 22.82638
1203.388, 22.53646
1203.870, 22.40238
1204.353, 22.41435
1204.835, 22.80650
1205.317, 23.13229
1205.799, 22.92697
1206.281, 22.34340
1206.763, 21.93858
1207.245, 21.71728
1207.727, 21.66386
1208.209, 21.81038
1208.692, 21.91212
1209.174, 21.66492
1209.656, 21.35605
1210.138, 21.27420
1210.620, 21.04784
1211.102, 20.84199
1211.584, 20.79224
1212.066, 20.49942
1212.549, 20.46533
1213.031, 20.42819
1213.513, 20.10178
1213.995, 19.71655
1214.477, 19.46201
1214.959, 19.33383
1215.441, 19.32681
1215.923, 19.44364
1216.406, 19.37235
1216.888, 18.94428
1217.370, 18.51238
1217.852, 18.45269
1218.334, 18.47203
1218.816, 18.26107
1219.298, 17.83278
1219.780, 17.66688
1220.262, 17.75756
1220.745, 17.66677
1221.227, 17.14542
1221.709, 16.58335
1222.191, 16.24220
1222.673, 16.04525
1223.155, 15.91487
1223.637, 15.84631
1224.119, 15.90357
1224.602, 16.07472
1225.084, 16.13183
1225.566, 15.93894
1226.048, 15.66320
1226.530, 15.31864
1227.012, 15.02998
1227.494, 14.94740
1227.976, 15.07162
1228.458, 15.00671
1228.941, 14.76503
1229.423, 14.52958
1229.905, 14.40347
1230.387, 14.28221
1230.869, 14.05373
1231.351, 13.84054
1231.833, 13.76504
1232.315, 13.82593
1232.797, 13.92632
1233.280, 14.04261
1233.762, 13.96454
1234.244, 13.39273
1234.726, 12.84111
1235.208, 12.52957
1235.690, 12.40040
1236.172, 12.46008
1236.654, 12.69640
1237.136, 12.74614
1237.619, 12.62640
1238.101, 12.46317
1238.583, 12.25875
1239.065, 12.10904
1239.547, 12.10106
1240.029, 12.11900
1240.511, 12.08338
1240.993, 11.98764
1241.476, 11.69185
1241.958, 11.25214
1242.440, 10.99897
1242.922, 11.32308
1243.404, 11.55015
1243.886, 11.42467
1244.368, 11.20635
1244.850, 11.15039
1245.333, 11.21773
1245.815, 11.28186
1246.297, 11.31634
1246.779, 11.21314
1247.261, 10.66953
1247.743, 10.35584
1248.225, 10.46305
1248.707, 10.70706
1249.189, 10.82978
1249.672, 10.85230
1250.154, 10.81367
1250.636, 10.73109
1251.118, 10.67165
1251.600, 10.66464
1252.082, 10.68409
1252.564, 10.73877
1253.046, 10.79228
1253.529, 10.81391
1254.011, 10.80402
1254.493, 10.72085
1254.975, 10.59732
1255.457, 10.57947
1255.939, 10.87296
1256.421, 10.95489
1256.903, 10.72768
1257.385, 10.45097
1257.868, 10.37669
1258.350, 10.41511
1258.832, 10.47545
1259.314, 10.53277
1259.796, 10.49971
1260.278, 10.32252
1260.760, 10.18392
1261.242, 10.09993
1261.724, 10.06117
1262.207, 10.07670
1262.689, 10.11882
1263.171, 10.17855
1263.653, 10.23745
1264.135, 10.23608
1264.617, 10.15549
1265.099, 10.09236
1265.581, 10.05192
1266.063, 10.06828
1266.546, 10.22614
1267.028, 10.40308
1267.510, 10.51747
1267.992, 10.56246
1268.474, 10.51937
1268.956, 10.37493
1269.438, 10.32453
1269.920, 10.38591
1270.403, 10.46711
1270.885, 10.49309
1271.367, 10.52299
1271.849, 10.62104
1272.331, 10.73247
1272.813, 10.76604
1273.295, 10.72660
1273.777, 10.64854
1274.260, 10.54167
1274.742, 10.55317
1275.224, 10.95858
1275.706, 11.26326
1276.188, 11.23789
1276.670, 11.06643
1277.152, 10.99090
1277.634, 10.99313
1278.116, 11.00579
1278.599, 11.02410
1279.081, 11.05370
1279.563, 11.12623
1280.045, 11.16555
1280.527, 11.14036
1281.009, 11.10807
1281.491, 11.15647
1281.973, 11.24673
1282.456, 11.30153
1282.938, 11.31707
1283.420, 11.30470
1283.902, 11.26224
1284.384, 11.18388
1284.866, 11.03994
1285.348, 10.95395
1285.830, 11.14880
1286.313, 11.42615
1286.795, 11.52408
1287.277, 11.45902
1287.759, 11.35360
1288.241, 11.19152
1288.723, 11.11278
1289.205, 11.14230
1289.687, 11.17750
1290.169, 11.10335
1290.651, 11.01576
1291.134, 11.00192
1291.616, 11.04587
1292.098, 11.09702
1292.580, 11.16044
1293.062, 11.13342
1293.544, 11.00725
1294.026, 10.98993
1294.508, 11.44816
1294.990, 11.82458
1295.473, 11.69083
1295.955, 11.33779
1296.437, 11.09481
1296.919, 10.96555
1297.401, 11.07179
1297.883, 11.38749
1298.365, 11.57429
1298.847, 11.28999
1299.330, 11.07993
1299.812, 11.13905
1300.294, 11.24671
1300.776, 11.07386
1301.258, 10.77031
1301.740, 10.79976
1302.222, 11.10413
1302.704, 11.32303
1303.187, 11.26535
1303.669, 11.19731
1304.151, 11.13311
##END=



