##NAMES=Andradite
##RRUFFID=R040001
##IDEAL CHEMISTRY=Ca_3_Fe^3+^_2_(SiO_4_)_3_
##LOCALITY=Stanley Butte, Graham County, Arizona, USA
##OWNER=RRUFF
##SOURCE=University of Arizona Mineral Museum
##DESCRIPTION=Brownish-orange dodecahedra
##STATUS=The identification of this mineral has been confirmed by X-ray diffraction and chemical analysis
##URL=rruff.info/R040001
##MEASURED CHEMISTRY=Ca_3.00_(Fe_1.96_Al_0.04_)_Î£=2_(SiO_4_)_3_ ; trace amounts of Mn
108.0289, 354.1462
108.5110, 357.4103
108.9931, 360.7698
109.4752, 366.2829
109.9573, 373.3091
110.4395, 382.7999
110.9216, 395.1538
111.4037, 410.3094
111.8858, 429.7085
112.3679, 455.9623
112.8500, 488.5701
113.3322, 527.4026
113.8143, 578.2698
114.2964, 634.9142
114.7785, 687.4534
115.2606, 735.1166
115.7427, 772.5403
116.2249, 789.3907
116.7070, 782.4837
117.1891, 770.5375
117.6712, 764.1129
118.1533, 760.4935
118.6354, 747.7928
119.1175, 717.8533
119.5997, 678.7697
120.0818, 644.2157
120.5639, 610.9563
121.0460, 588.9274
121.5281, 586.0223
122.0102, 602.0590
122.4924, 630.6270
122.9745, 668.6674
123.4566, 719.3042
123.9387, 786.2785
124.4208, 872.5449
124.9029, 971.6439
125.3851, 1079.321
125.8672, 1197.895
126.3493, 1314.503
126.8314, 1412.555
127.3135, 1509.336
127.7956, 1623.645
128.2778, 1758.627
128.7599, 1916.496
129.2420, 2105.167
129.7241, 2336.998
130.2062, 2570.089
130.6884, 2823.059
131.1705, 3059.740
131.6526, 3237.051
132.1347, 3344.675
132.6168, 3373.071
133.0989, 3278.871
133.5811, 2987.252
134.0632, 2675.946
134.5453, 2378.298
135.0274, 2108.529
135.5095, 1885.953
135.9916, 1728.427
136.4738, 1629.036
136.9559, 1540.487
137.4380, 1459.795
137.9201, 1396.547
138.4022, 1354.518
138.8843, 1331.258
139.3665, 1321.872
139.8486, 1322.789
140.3307, 1334.004
140.8128, 1358.759
141.2949, 1401.257
141.7770, 1455.255
142.2592, 1518.928
142.7413, 1592.687
143.2234, 1677.793
143.7055, 1772.965
144.1876, 1875.728
144.6697, 2009.518
145.1519, 2202.065
145.6340, 2398.478
146.1161, 2585.136
146.5982, 2757.759
147.0803, 2916.978
147.5624, 3072.271
148.0446, 3244.338
148.5267, 3306.995
149.0088, 3209.276
149.4909, 3068.301
149.9730, 2928.854
150.4551, 2800.253
150.9372, 2676.197
151.4194, 2547.716
151.9015, 2410.117
152.3836, 2287.409
152.8657, 2172.323
153.3478, 2073.987
153.8299, 2000.146
154.3121, 1950.948
154.7942, 1919.786
155.2763, 1899.961
155.7584, 1895.566
156.2405, 1893.174
156.7226, 1886.529
157.2048, 1885.561
157.6869, 1894.764
158.1690, 1915.863
158.6511, 1952.410
159.1332, 2008.963
159.6153, 2091.529
160.0975, 2185.734
160.5796, 2302.220
161.0617, 2424.326
161.5438, 2536.410
162.0259, 2634.643
162.5080, 2728.825
162.9902, 2831.255
163.4723, 2940.110
163.9544, 3065.450
164.4365, 3203.066
164.9186, 3359.209
165.4007, 3536.693
165.8829, 3736.614
166.3650, 3963.698
166.8471, 4226.118
167.3292, 4528.499
167.8113, 4855.078
168.2934, 5211.408
168.7756, 5588.250
169.2577, 5983.217
169.7398, 6398.143
170.2219, 6807.381
170.7040, 7187.945
171.1861, 7587.430
171.6683, 7815.357
172.1504, 7829.817
172.6325, 7659.243
173.1146, 7309.828
173.5967, 6768.646
174.0788, 6127.492
174.5610, 5501.357
175.0431, 4873.677
175.5252, 4311.399
176.0073, 3821.562
176.4894, 3405.734
176.9715, 3069.832
177.4537, 2820.659
177.9358, 2632.072
178.4179, 2474.679
178.9000, 2348.362
179.3821, 2237.316
179.8642, 2136.727
180.3464, 2049.342
180.8285, 1981.032
181.3106, 1934.971
181.7927, 1903.208
182.2748, 1876.338
182.7569, 1854.267
183.2391, 1833.457
183.7212, 1813.278
184.2033, 1793.682
184.6854, 1774.388
185.1675, 1755.081
185.6496, 1736.833
186.1318, 1722.206
186.6139, 1711.492
187.0960, 1700.152
187.5781, 1687.095
188.0602, 1672.540
188.5423, 1655.694
189.0245, 1635.486
189.5066, 1615.770
189.9887, 1603.054
190.4708, 1597.292
190.9529, 1591.853
191.4350, 1584.381
191.9172, 1575.993
192.3993, 1567.925
192.8814, 1559.745
193.3635, 1554.065
193.8456, 1557.874
194.3277, 1571.587
194.8099, 1578.169
195.2920, 1568.915
195.7741, 1549.688
196.2562, 1529.985
196.7383, 1511.037
197.2204, 1493.631
197.7026, 1478.255
198.1847, 1464.564
198.6668, 1454.805
199.1489, 1451.546
199.6310, 1452.216
200.1131, 1452.322
200.5953, 1450.834
201.0774, 1449.444
201.5595, 1452.958
202.0416, 1460.893
202.5237, 1461.176
203.0058, 1444.569
203.4880, 1419.818
203.9701, 1400.140
204.4522, 1387.621
204.9343, 1379.615
205.4164, 1374.337
205.8985, 1371.455
206.3807, 1370.511
206.8628, 1371.244
207.3449, 1373.896
207.8270, 1380.214
208.3091, 1391.302
208.7912, 1401.145
209.2734, 1401.625
209.7555, 1394.347
210.2376, 1390.498
210.7197, 1391.060
211.2018, 1396.862
211.6839, 1410.401
212.1661, 1432.489
212.6482, 1456.874
213.1303, 1476.730
213.6124, 1493.395
214.0945, 1515.156
214.5766, 1548.475
215.0588, 1584.762
215.5409, 1612.474
216.0230, 1630.379
216.5051, 1650.162
216.9872, 1680.139
217.4693, 1720.104
217.9515, 1766.617
218.4336, 1820.350
218.9157, 1879.825
219.3978, 1943.699
219.8799, 2011.949
220.3620, 2085.100
220.8442, 2163.417
221.3263, 2247.965
221.8084, 2340.089
222.2905, 2431.740
222.7726, 2537.017
223.2547, 2666.857
223.7369, 2821.125
224.2190, 2994.395
224.7011, 3184.731
225.1832, 3393.922
225.6653, 3621.911
226.1474, 3873.418
226.6296, 4139.037
227.1117, 4411.305
227.5938, 4691.100
228.0759, 4987.256
228.5580, 5305.662
229.0401, 5642.563
229.5223, 5975.949
230.0044, 6276.868
230.4865, 6609.061
230.9686, 7012.417
231.4507, 7470.161
231.9328, 7949.345
232.4150, 8447.114
232.8971, 8937.688
233.3792, 9359.637
233.8613, 9782.634
234.3434, 10054.33
234.8255, 10117.21
235.3077, 9994.728
235.7898, 9720.962
236.2719, 9299.682
236.7540, 8759.141
237.2361, 8126.860
237.7182, 7343.668
238.2004, 6611.735
238.6825, 5974.903
239.1646, 5412.130
239.6467, 4902.268
240.1288, 4436.384
240.6109, 4018.563
241.0931, 3654.524
241.5752, 3352.922
242.0573, 3090.366
242.5394, 2871.784
243.0215, 2687.294
243.5036, 2530.175
243.9858, 2398.251
244.4679, 2285.299
244.9500, 2184.045
245.4321, 2095.581
245.9142, 2018.861
246.3963, 1957.547
246.8785, 1905.385
247.3606, 1859.133
247.8427, 1818.084
248.3248, 1780.856
248.8069, 1746.272
249.2890, 1714.350
249.7712, 1686.924
250.2533, 1661.524
250.7354, 1641.975
251.2175, 1628.219
251.6996, 1621.790
252.1817, 1627.067
252.6639, 1648.484
253.1460, 1686.404
253.6281, 1727.069
254.1102, 1767.743
254.5923, 1813.253
255.0744, 1865.850
255.5566, 1924.784
256.0387, 1986.979
256.5208, 2049.352
257.0029, 2113.931
257.4850, 2195.133
257.9671, 2306.739
258.4492, 2421.066
258.9314, 2530.499
259.4135, 2640.683
259.8956, 2761.489
260.3777, 2898.255
260.8598, 3045.303
261.3419, 3190.661
261.8241, 3347.291
262.3062, 3479.308
262.7883, 3599.580
263.2704, 3687.459
263.7525, 3726.810
264.2346, 3711.103
264.7168, 3642.508
265.1989, 3519.280
265.6810, 3318.602
266.1631, 3112.316
266.6452, 2890.446
267.1273, 2674.939
267.6095, 2475.699
268.0916, 2296.331
268.5737, 2141.028
269.0558, 2017.865
269.5379, 1930.460
270.0201, 1853.929
270.5022, 1790.347
270.9843, 1735.730
271.4664, 1690.735
271.9485, 1654.211
272.4306, 1622.540
272.9128, 1592.726
273.3949, 1564.802
273.8770, 1542.428
274.3591, 1528.511
274.8412, 1516.751
275.3233, 1501.073
275.8055, 1484.970
276.2876, 1476.368
276.7697, 1481.963
277.2518, 1497.432
277.7339, 1510.962
278.2160, 1522.238
278.6982, 1532.105
279.1803, 1539.020
279.6624, 1545.314
280.1445, 1554.468
280.6266, 1568.438
281.1087, 1584.537
281.5909, 1598.107
282.0730, 1608.502
282.5551, 1622.953
283.0372, 1647.365
283.5193, 1676.340
284.0014, 1702.426
284.4836, 1723.811
284.9657, 1745.613
285.4478, 1769.667
285.9299, 1796.779
286.4120, 1830.253
286.8941, 1870.668
287.3763, 1918.907
287.8584, 1978.422
288.3405, 2051.538
288.8226, 2118.597
289.3047, 2164.347
289.7868, 2199.911
290.2690, 2246.083
290.7511, 2307.590
291.2332, 2376.845
291.7153, 2447.130
292.1974, 2518.745
292.6795, 2586.380
293.1617, 2646.977
293.6438, 2704.810
294.1259, 2766.518
294.6080, 2831.421
295.0901, 2888.855
295.5722, 2929.472
296.0544, 2952.569
296.5365, 2973.237
297.0186, 2985.636
297.5007, 3001.223
297.9828, 3020.117
298.4649, 3046.195
298.9471, 3086.687
299.4292, 3145.222
299.9113, 3223.078
300.3934, 3327.889
300.8755, 3451.989
301.3576, 3611.918
301.8398, 3812.639
302.3219, 4049.593
302.8040, 4319.231
303.2861, 4619.992
303.7682, 4947.515
304.2503, 5295.354
304.7325, 5653.544
305.2146, 6052.250
305.6967, 6496.345
306.1788, 6970.165
306.6609, 7472.638
307.1430, 7999.380
307.6252, 8543.607
308.1073, 9098.586
308.5894, 9670.636
309.0715, 10225.84
309.5536, 10825.78
310.0357, 11354.30
310.5179, 11828.84
311.0000, 12201.49
311.4821, 12380.74
311.9642, 12304.08
312.4463, 11985.00
312.9284, 11475.35
313.4106, 10690.79
313.8927, 9853.932
314.3748, 8967.858
314.8569, 8100.857
315.3390, 7339.861
315.8211, 6714.729
316.3033, 6209.787
316.7854, 5805.674
317.2675, 5506.500
317.7496, 5280.806
318.2317, 5136.229
318.7138, 5057.942
319.1960, 5038.199
319.6781, 5079.246
320.1602, 5150.979
320.6423, 5233.078
321.1244, 5328.565
321.6065, 5452.521
322.0887, 5615.852
322.5708, 5791.820
323.0529, 5967.741
323.5350, 6141.953
324.0171, 6270.001
324.4992, 6356.044
324.9814, 6380.526
325.4635, 6306.180
325.9456, 6130.030
326.4277, 5910.807
326.9098, 5677.600
327.3919, 5435.479
327.8741, 5223.003
328.3562, 5033.703
328.8383, 4879.057
329.3204, 4773.224
329.8025, 4706.859
330.2846, 4656.584
330.7668, 4610.930
331.2489, 4576.042
331.7310, 4570.775
332.2131, 4603.886
332.6952, 4655.515
333.1773, 4729.855
333.6595, 4819.525
334.1416, 4912.594
334.6237, 5008.139
335.1058, 5119.256
335.5879, 5263.806
336.0700, 5448.463
336.5522, 5647.234
337.0343, 5835.118
337.5164, 6057.118
337.9985, 6335.150
338.4806, 6665.864
338.9627, 7035.515
339.4449, 7430.184
339.9270, 7853.821
340.4091, 8334.516
340.8912, 8871.460
341.3733, 9475.111
341.8554, 10144.93
342.3376, 10873.92
342.8197, 11653.72
343.3018, 12476.43
343.7839, 13352.95
344.2660, 14299.53
344.7481, 15318.67
345.2303, 16393.08
345.7124, 17543.50
346.1945, 18723.39
346.6766, 19910.40
347.1587, 21097.83
347.6408, 22280.19
348.1230, 23494.70
348.6051, 24705.57
349.0872, 25844.20
349.5693, 26944.71
350.0514, 27861.46
350.5335, 28481.62
351.0157, 28818.83
351.4978, 28837.12
351.9799, 28454.66
352.4620, 27806.40
352.9441, 26914.93
353.4262, 25818.93
353.9084, 24716.18
354.3905, 23675.58
354.8726, 22726.12
355.3547, 22020.47
355.8368, 21527.17
356.3189, 21252.63
356.8011, 21212.92
357.2832, 21384.83
357.7653, 21734.36
358.2474, 22252.18
358.7295, 22963.68
359.2116, 23914.34
359.6938, 25133.62
360.1759, 26525.58
360.6580, 28058.79
361.1401, 29757.21
361.6222, 31637.82
362.1043, 33691.78
362.5865, 35896.07
363.0686, 38258.47
363.5507, 40765.05
364.0328, 43299.44
364.5149, 45916.52
364.9970, 48485.96
365.4792, 51089.00
365.9613, 53600.29
366.4434, 55914.10
366.9255, 58018.89
367.4076, 59790.28
367.8897, 61137.56
368.3719, 62078.35
368.8540, 62374.42
369.3361, 61945.31
369.8182, 60809.86
370.3003, 58990.56
370.7824, 56512.85
371.2646, 53642.12
371.7467, 50352.05
372.2288, 46810.97
372.7109, 43292.44
373.1930, 39803.62
373.6751, 36455.53
374.1573, 33306.90
374.6394, 30394.56
375.1215, 27780.16
375.6036, 25518.50
376.0857, 23504.67
376.5678, 21716.93
377.0500, 20140.29
377.5321, 18759.88
378.0142, 17569.13
378.4963, 16546.65
378.9784, 15657.00
379.4605, 14946.22
379.9427, 14298.87
380.4248, 13752.97
380.9069, 13241.22
381.3890, 12722.84
381.8711, 12186.87
382.3532, 11619.25
382.8354, 10999.83
383.3175, 10329.68
383.7996, 9669.208
384.2817, 8975.297
384.7638, 8339.525
385.2459, 7791.222
385.7281, 7310.052
386.2102, 6869.790
386.6923, 6457.770
387.1744, 6079.516
387.6565, 5743.730
388.1386, 5452.033
388.6208, 5193.857
389.1029, 4982.272
389.5850, 4794.820
390.0671, 4616.975
390.5492, 4448.961
391.0313, 4294.951
391.5135, 4163.512
391.9956, 4047.340
392.4777, 3930.300
392.9598, 3809.892
393.4419, 3696.169
393.9240, 3595.394
394.4062, 3507.025
394.8883, 3428.967
395.3704, 3369.162
395.8525, 3310.957
396.3346, 3243.874
396.8167, 3172.081
397.2989, 3105.750
397.7810, 3048.711
398.2631, 2996.693
398.7452, 2942.667
399.2273, 2884.797
399.7094, 2829.397
400.1916, 2773.094
400.6737, 2722.139
401.1558, 2682.945
401.6379, 2653.286
402.1200, 2625.140
402.6021, 2592.249
403.0843, 2555.227
403.5664, 2518.930
404.0485, 2484.128
404.5306, 2448.803
405.0127, 2409.129
405.4948, 2370.331
405.9770, 2339.678
406.4591, 2319.313
406.9412, 2300.186
407.4233, 2268.062
407.9054, 2223.233
408.3875, 2193.938
408.8697, 2194.999
409.3518, 2196.616
409.8339, 2172.013
410.3160, 2127.454
410.7981, 2087.693
411.2802, 2063.922
411.7624, 2047.008
412.2445, 2026.909
412.7266, 2004.057
413.2087, 1983.725
413.6908, 1970.179
414.1729, 1959.530
414.6551, 1939.560
415.1372, 1902.617
415.6193, 1872.616
416.1014, 1858.980
416.5835, 1851.997
417.0656, 1841.977
417.5478, 1827.247
418.0299, 1811.594
418.5120, 1798.977
418.9941, 1789.924
419.4762, 1777.156
419.9583, 1756.039
420.4405, 1736.219
420.9226, 1718.190
421.4047, 1703.434
421.8868, 1695.240
422.3689, 1695.503
422.8510, 1697.593
423.3332, 1689.286
423.8153, 1668.488
424.2974, 1651.301
424.7795, 1641.370
425.2616, 1635.199
425.7437, 1631.134
426.2259, 1628.751
426.7080, 1625.901
427.1901, 1618.973
427.6722, 1612.148
428.1543, 1612.975
428.6364, 1621.638
429.1186, 1630.322
429.6007, 1634.918
430.0828, 1636.348
430.5649, 1637.274
431.0470, 1634.298
431.5291, 1636.448
432.0113, 1650.489
432.4934, 1668.917
432.9755, 1681.969
433.4576, 1688.081
433.9397, 1693.368
434.4218, 1704.351
434.9040, 1721.527
435.3861, 1739.784
435.8682, 1758.730
436.3503, 1779.309
436.8324, 1799.313
437.3145, 1821.908
437.7967, 1851.715
438.2788, 1890.974
438.7609, 1936.499
439.2430, 1983.245
439.7251, 2030.257
440.2072, 2084.631
440.6894, 2148.727
441.1715, 2220.140
441.6536, 2296.288
442.1357, 2377.345
442.6178, 2465.151
443.0999, 2564.527
443.5821, 2668.743
444.0642, 2766.816
444.5463, 2859.774
445.0284, 2959.807
445.5105, 3074.014
445.9926, 3198.495
446.4748, 3324.021
446.9569, 3456.772
447.4390, 3579.003
447.9211, 3687.712
448.4032, 3784.624
448.8853, 3878.500
449.3675, 3965.967
449.8496, 4030.703
450.3317, 4058.750
450.8138, 4050.062
451.2959, 3999.558
451.7780, 3895.921
452.2602, 3761.455
452.7423, 3582.552
453.2244, 3386.428
453.7065, 3200.943
454.1886, 3034.505
454.6707, 2879.537
455.1529, 2725.255
455.6350, 2573.366
456.1171, 2444.606
456.5992, 2344.699
457.0813, 2262.085
457.5634, 2189.054
458.0455, 2125.569
458.5276, 2074.719
459.0098, 2044.625
459.4919, 2020.222
459.9740, 1989.356
460.4561, 1955.526
460.9382, 1929.241
461.4203, 1914.542
461.9025, 1907.075
462.3846, 1900.025
462.8667, 1893.477
463.3488, 1887.223
463.8309, 1877.929
464.3130, 1871.980
464.7952, 1872.317
465.2773, 1878.939
465.7594, 1892.313
466.2415, 1913.903
466.7236, 1938.727
467.2057, 1953.040
467.6879, 1953.804
468.1700, 1953.712
468.6521, 1952.628
469.1342, 1953.771
469.6163, 1962.381
470.0984, 1977.474
470.5806, 1987.560
471.0627, 1980.277
471.5448, 1966.405
472.0269, 1960.960
472.5090, 1964.609
472.9911, 1982.617
473.4733, 2023.617
473.9554, 2077.679
474.4375, 2112.909
474.9196, 2117.686
475.4017, 2128.301
475.8839, 2150.154
476.3660, 2181.424
476.8481, 2221.236
477.3302, 2269.079
477.8123, 2323.099
478.2944, 2381.392
478.7766, 2444.618
479.2587, 2516.094
479.7408, 2596.031
480.2229, 2685.106
480.7050, 2778.036
481.1871, 2882.048
481.6693, 3003.350
482.1514, 3143.604
482.6335, 3299.323
483.1156, 3467.294
483.5977, 3647.847
484.0798, 3840.168
484.5620, 4043.579
485.0441, 4263.707
485.5262, 4508.349
486.0083, 4775.375
486.4904, 5040.962
486.9725, 5293.430
487.4547, 5558.252
487.9368, 5856.449
488.4189, 6169.240
488.9010, 6470.495
489.3831, 6752.654
489.8652, 7014.524
490.3474, 7260.305
490.8295, 7493.115
491.3116, 7655.868
491.7937, 7748.283
492.2758, 7761.918
492.7579, 7677.750
493.2401, 7520.233
493.7222, 7309.780
494.2043, 7052.504
494.6864, 6773.317
495.1685, 6490.131
495.6506, 6206.083
496.1328, 5940.194
496.6149, 5688.928
497.0970, 5464.625
497.5791, 5278.102
498.0612, 5126.693
498.5433, 5004.371
499.0255, 4904.554
499.5076, 4839.350
499.9897, 4814.250
500.4718, 4827.850
500.9539, 4877.448
501.4360, 4962.084
501.9182, 5082.552
502.4003, 5234.820
502.8824, 5410.951
503.3645, 5669.821
503.8466, 6041.747
504.3287, 6466.494
504.8109, 6908.750
505.2930, 7399.401
505.7751, 7989.964
506.2572, 8696.559
506.7393, 9490.123
507.2214, 10329.71
507.7036, 11219.74
508.1857, 12167.86
508.6678, 13169.63
509.1499, 14239.19
509.6320, 15399.88
510.1141, 16642.59
510.5963, 17929.64
511.0784, 19305.64
511.5605, 20671.95
512.0426, 22059.22
512.5247, 23388.88
513.0068, 24582.19
513.4890, 25605.99
513.9711, 26363.90
514.4532, 26752.24
514.9353, 26780.26
515.4174, 26359.26
515.8995, 25265.45
516.3817, 23937.05
516.8638, 22388.27
517.3459, 20715.13
517.8280, 19029.96
518.3101, 17350.59
518.7922, 15754.68
519.2744, 14299.38
519.7565, 12987.68
520.2386, 11807.21
520.7207, 10765.82
521.2028, 9840.035
521.6849, 9024.921
522.1671, 8326.269
522.6492, 7708.015
523.1313, 7191.808
523.6134, 6733.411
524.0955, 6333.186
524.5776, 5976.313
525.0598, 5643.154
525.5419, 5329.552
526.0240, 5041.530
526.5061, 4782.351
526.9882, 4551.775
527.4703, 4360.335
527.9525, 4228.910
528.4346, 4102.828
528.9167, 3961.951
529.3988, 3820.023
529.8809, 3692.125
530.3630, 3582.077
530.8452, 3479.920
531.3273, 3374.033
531.8094, 3272.724
532.2915, 3196.440
532.7736, 3147.366
533.2557, 3104.033
533.7379, 3051.050
534.2200, 2993.445
534.7021, 2952.842
535.1842, 2937.447
535.6663, 2925.808
536.1484, 2914.618
536.6306, 2907.078
537.1127, 2910.944
537.5948, 2922.754
538.0769, 2926.183
538.5590, 2904.432
539.0411, 2868.690
539.5233, 2861.075
540.0054, 2888.470
540.4875, 2919.148
540.9696, 2944.753
541.4517, 2969.221
541.9338, 2992.130
542.4160, 3013.669
542.8981, 3049.940
543.3802, 3116.603
543.8623, 3193.527
544.3444, 3256.831
544.8265, 3311.323
545.3087, 3381.352
545.7908, 3480.195
546.2729, 3591.481
546.7550, 3681.130
547.2371, 3730.863
547.7192, 3803.469
548.2014, 3911.442
548.6835, 4028.389
549.1656, 4152.433
549.6477, 4274.658
550.1298, 4382.052
550.6119, 4471.024
551.0941, 4535.673
551.5762, 4570.901
552.0583, 4575.935
552.5404, 4541.998
553.0225, 4465.265
553.5046, 4356.341
553.9868, 4220.968
554.4689, 4058.804
554.9510, 3887.930
555.4331, 3697.446
555.9152, 3511.508
556.3973, 3337.627
556.8795, 3174.631
557.3616, 3019.106
557.8437, 2871.070
558.3258, 2736.458
558.8079, 2621.623
559.2900, 2526.433
559.7722, 2438.398
560.2543, 2357.309
560.7364, 2283.845
561.2185, 2219.920
561.7006, 2162.894
562.1827, 2111.982
562.6649, 2067.275
563.1470, 2024.273
563.6291, 1979.203
564.1112, 1935.068
564.5933, 1894.377
565.0754, 1857.640
565.5576, 1826.908
566.0397, 1803.367
566.5218, 1786.336
567.0039, 1774.356
567.4860, 1768.688
567.9681, 1766.114
568.4503, 1761.339
568.9324, 1764.205
569.4145, 1783.648
569.8966, 1814.770
570.3787, 1846.111
570.8608, 1872.753
571.3430, 1896.448
571.8251, 1917.008
572.3072, 1935.547
572.7893, 1960.602
573.2714, 1995.771
573.7535, 2030.613
574.2357, 2055.956
574.7178, 2071.556
575.1999, 2079.855
575.6820, 2087.764
576.1641, 2080.621
576.6462, 2048.412
577.1284, 2001.820
577.6105, 1948.115
578.0926, 1891.400
578.5747, 1840.831
579.0568, 1807.340
579.5389, 1787.116
580.0211, 1758.326
580.5032, 1718.512
580.9853, 1678.840
581.4674, 1640.572
581.9495, 1606.574
582.4316, 1581.755
582.9138, 1567.576
583.3959, 1549.672
583.8780, 1516.689
584.3601, 1484.451
584.8422, 1466.735
585.3243, 1460.970
585.8065, 1459.271
586.2886, 1458.228
586.7707, 1455.586
587.2528, 1447.051
587.7349, 1431.343
588.2170, 1414.651
588.6992, 1392.594
589.1813, 1375.287
589.6634, 1368.525
590.1455, 1368.678
590.6276, 1370.977
591.1097, 1376.193
591.5919, 1376.974
592.0740, 1364.951
592.5561, 1346.309
593.0382, 1331.527
593.5203, 1321.909
594.0024, 1314.174
594.4846, 1306.027
594.9667, 1297.900
595.4488, 1291.378
595.9309, 1286.394
596.4130, 1283.305
596.8951, 1285.683
597.3773, 1286.685
597.8594, 1281.498
598.3415, 1271.061
598.8236, 1259.175
599.3057, 1246.883
599.7878, 1235.276
600.2700, 1224.638
600.7521, 1215.591
601.2342, 1212.722
601.7163, 1218.240
602.1984, 1223.037
602.6805, 1216.834
603.1627, 1199.540
603.6448, 1189.617
604.1269, 1196.228
604.6090, 1197.934
605.0911, 1186.146
605.5732, 1170.053
606.0554, 1158.850
606.5375, 1153.574
607.0196, 1149.408
607.5017, 1142.654
607.9838, 1134.314
608.4659, 1127.306
608.9481, 1121.727
609.4302, 1113.793
609.9123, 1101.361
610.3944, 1087.386
610.8765, 1075.927
611.3586, 1067.420
611.8408, 1058.927
612.3229, 1047.571
612.8050, 1039.222
613.2871, 1039.259
613.7692, 1042.864
614.2513, 1043.706
614.7335, 1039.772
615.2156, 1032.092
615.6977, 1019.449
616.1798, 1003.204
616.6619, 993.6035
617.1440, 992.2180
617.6262, 990.1762
618.1083, 983.1938
618.5904, 973.5673
619.0725, 965.3176
619.5546, 958.5564
620.0367, 952.2270
620.5189, 943.5123
621.0010, 937.6344
621.4831, 941.1751
621.9652, 949.6854
622.4473, 953.4602
622.9294, 948.5243
623.4116, 940.3242
623.8937, 936.1245
624.3758, 935.8904
624.8579, 937.4924
625.3400, 942.4418
625.8221, 944.8892
626.3043, 937.8376
626.7864, 927.8599
627.2685, 929.5300
627.7506, 949.4595
628.2327, 961.6556
628.7148, 953.7669
629.1970, 939.6998
629.6791, 927.1180
630.1612, 918.5610
630.6433, 919.5337
631.1254, 933.3594
631.6075, 949.2924
632.0897, 944.7477
632.5718, 917.1799
633.0539, 906.9621
633.5360, 925.2087
634.0181, 944.6969
634.5002, 949.9887
634.9824, 944.8779
635.4645, 936.3256
635.9466, 922.0622
636.4287, 910.6119
636.9108, 904.8420
637.3929, 903.0599
637.8751, 905.7371
638.3572, 911.1159
638.8393, 914.8463
639.3214, 914.6034
639.8035, 910.8223
640.2856, 901.9896
640.7678, 886.7131
641.2499, 881.5505
641.7320, 892.4406
642.2141, 905.8629
642.6962, 916.8108
643.1783, 923.3578
643.6605, 919.7769
644.1426, 898.6824
644.6247, 881.6839
645.1068, 878.6976
645.5889, 881.1243
646.0710, 881.2073
646.5532, 878.6408
647.0353, 876.5327
647.5174, 876.8621
647.9995, 877.6095
648.4816, 873.5211
648.9637, 863.8582
649.4459, 859.1962
649.9280, 863.8456
650.4101, 867.5159
650.8922, 859.5763
651.3743, 845.7620
651.8564, 841.8760
652.3386, 854.3508
652.8207, 866.2767
653.3028, 876.7783
653.7849, 881.5626
654.2670, 871.5339
654.7491, 851.6204
655.2313, 837.5549
655.7134, 838.5738
656.1955, 848.4521
656.6776, 857.8138
657.1597, 866.7379
657.6418, 869.8937
658.1240, 865.5798
658.6061, 857.9324
659.0882, 846.9150
659.5703, 835.0911
660.0524, 830.6810
660.5345, 838.4171
661.0167, 844.5531
661.4988, 847.9148
661.9809, 847.3140
662.4630, 836.9872
662.9451, 822.0200
663.4272, 816.4301
663.9094, 828.3270
664.3915, 845.2845
664.8736, 846.9529
665.3557, 835.0998
665.8378, 829.2192
666.3199, 832.3389
666.8021, 836.9542
667.2842, 838.3542
667.7663, 837.8210
668.2484, 839.6774
668.7305, 847.6399
669.2126, 850.5180
669.6948, 843.3050
670.1769, 834.5587
670.6590, 827.6062
671.1411, 823.6779
671.6232, 825.1618
672.1053, 833.5286
672.5875, 842.1055
673.0696, 842.2107
673.5517, 836.1841
674.0338, 832.6570
674.5159, 832.4329
674.9980, 832.0145
675.4802, 829.3526
675.9623, 825.4453
676.4444, 822.5320
676.9265, 820.3878
677.4086, 819.8694
677.8907, 822.9805
678.3729, 825.4371
678.8550, 826.4846
679.3371, 825.2711
679.8192, 819.1286
680.3013, 806.9505
680.7834, 797.4310
681.2656, 799.8907
681.7477, 808.3123
682.2298, 812.3625
682.7119, 811.9470
683.1940, 810.8271
683.6761, 810.8050
684.1583, 810.0781
684.6404, 804.3990
685.1225, 790.8618
685.6046, 788.9725
686.0867, 811.2701
686.5688, 828.6723
687.0510, 830.2756
687.5331, 824.0016
688.0152, 817.2173
688.4973, 810.9403
688.9794, 806.7733
689.4615, 807.6802
689.9437, 809.1843
690.4258, 805.2493
690.9079, 798.6637
691.3900, 797.6279
691.8721, 804.4336
692.3542, 811.8726
692.8364, 811.0276
693.3185, 802.8442
693.8006, 799.9808
694.2827, 804.0537
694.7648, 808.5870
695.2469, 811.3367
695.7291, 814.1667
696.2112, 820.4354
696.6933, 829.6713
697.1754, 834.3723
697.6575, 831.7172
698.1396, 826.1917
698.6218, 815.1919
699.1039, 804.9330
699.5860, 804.0361
700.0681, 812.6671
700.5502, 824.2927
701.0323, 835.7285
701.5145, 844.1424
701.9966, 841.2266
702.4787, 827.3684
702.9608, 814.1277
703.4429, 802.3980
703.9250, 797.2670
704.4072, 805.4434
704.8893, 824.3843
705.3714, 836.4003
705.8535, 836.2368
706.3356, 836.5858
706.8177, 839.5030
707.2999, 842.1544
707.7820, 842.5214
708.2641, 841.0265
708.7462, 839.0518
709.2283, 837.0408
709.7104, 835.1252
710.1926, 833.8004
710.6747, 832.5423
711.1568, 828.2133
711.6389, 821.4452
712.1210, 821.5316
712.6031, 834.8621
713.0853, 853.8496
713.5674, 862.2970
714.0495, 858.8511
714.5316, 848.8042
715.0137, 822.9972
715.4958, 803.4227
715.9780, 802.0831
716.4601, 811.0651
716.9422, 821.9655
717.4243, 834.8140
717.9064, 842.4889
718.3885, 837.5873
718.8707, 830.9282
719.3528, 829.9792
719.8349, 833.8402
720.3170, 842.0989
720.7991, 853.7445
721.2813, 861.5864
721.7634, 856.0329
722.2455, 840.5855
722.7276, 829.8760
723.2097, 823.8889
723.6918, 823.4000
724.1740, 830.1199
724.6561, 839.4910
725.1382, 847.4736
725.6203, 854.1934
726.1024, 855.8960
726.5845, 849.3968
727.0667, 842.6813
727.5488, 835.8993
728.0309, 830.4411
728.5130, 829.1717
728.9951, 830.5176
729.4772, 828.0955
729.9594, 816.0076
730.4415, 804.7794
730.9236, 806.2918
731.4057, 816.1965
731.8878, 826.9177
732.3699, 836.7402
732.8521, 842.8216
733.3342, 843.3195
733.8163, 838.9255
734.2984, 829.2941
734.7805, 810.7175
735.2626, 804.6915
735.7448, 819.7639
736.2269, 835.0759
736.7090, 840.2534
737.1911, 838.7002
737.6732, 835.4394
738.1553, 830.4723
738.6375, 824.6667
739.1196, 814.2007
739.6017, 806.9578
740.0838, 809.5924
740.5659, 818.2472
741.0480, 828.0665
741.5302, 837.0309
742.0123, 841.8044
742.4944, 836.1219
742.9765, 825.4700
743.4586, 824.3927
743.9407, 831.6963
744.4229, 834.6486
744.9050, 829.3273
745.3871, 820.4240
745.8692, 811.9552
746.3513, 804.1127
746.8334, 799.1385
747.3156, 795.0187
747.7977, 797.3663
748.2798, 815.8791
748.7619, 832.8261
749.2440, 835.1076
749.7261, 826.9866
750.2083, 822.0605
750.6904, 825.8527
751.1725, 828.4567
751.6546, 822.5367
752.1367, 814.6537
752.6188, 811.2552
753.1010, 812.3607
753.5831, 816.2703
754.0652, 822.2651
754.5473, 828.0569
755.0294, 830.9271
755.5115, 830.9202
755.9937, 826.6509
756.4758, 817.3909
756.9579, 812.4543
757.4400, 816.4349
757.9221, 825.1193
758.4042, 833.0903
758.8864, 840.6221
759.3685, 845.1322
759.8506, 843.4080
760.3327, 842.6547
760.8148, 844.4551
761.2969, 847.5267
761.7791, 849.9445
762.2612, 852.2354
762.7433, 857.8685
763.2254, 871.5919
763.7075, 884.4511
764.1896, 892.0709
764.6718, 894.1316
765.1539, 886.9682
765.6360, 872.8975
766.1181, 861.4598
766.6002, 858.1474
767.0823, 861.7733
767.5645, 872.8139
768.0466, 890.5125
768.5287, 901.8928
769.0108, 904.9890
769.4929, 907.2277
769.9750, 910.6386
770.4572, 917.8738
770.9393, 935.0712
771.4214, 966.6299
771.9035, 990.3442
772.3856, 1002.114
772.8677, 1011.461
773.3499, 1021.763
773.8320, 1030.197
774.3141, 1031.583
774.7962, 1026.779
775.2783, 1025.997
775.7604, 1035.872
776.2426, 1048.758
776.7247, 1058.081
777.2068, 1067.511
777.6889, 1085.162
778.1710, 1109.868
778.6531, 1130.425
779.1353, 1139.201
779.6174, 1142.167
780.0995, 1150.327
780.5816, 1163.078
781.0637, 1172.063
781.5458, 1175.022
782.0280, 1187.109
782.5101, 1219.100
782.9922, 1260.490
783.4743, 1289.979
783.9564, 1303.565
784.4385, 1321.001
784.9207, 1342.857
785.4028, 1367.933
785.8849, 1396.718
786.3670, 1427.834
786.8491, 1460.990
787.3312, 1495.679
787.8134, 1528.406
788.2955, 1550.808
788.7776, 1578.762
789.2597, 1625.179
789.7418, 1679.599
790.2239, 1728.796
790.7061, 1772.803
791.1882, 1822.019
791.6703, 1883.094
792.1524, 1948.009
792.6345, 2001.713
793.1166, 2049.023
793.5988, 2110.455
794.0809, 2187.466
794.5630, 2268.633
795.0451, 2348.138
795.5272, 2429.684
796.0093, 2519.565
796.4915, 2618.030
796.9736, 2722.485
797.4557, 2831.584
797.9378, 2949.233
798.4199, 3076.996
798.9020, 3213.971
799.3842, 3352.170
799.8663, 3494.756
800.3484, 3665.634
800.8305, 3881.854
801.3126, 4107.880
801.7947, 4326.140
802.2769, 4554.131
802.7590, 4803.065
803.2411, 5075.389
803.7232, 5372.222
804.2053, 5692.285
804.6874, 6041.646
805.1696, 6409.878
805.6517, 6815.140
806.1338, 7295.153
806.6159, 7842.843
807.0980, 8421.456
807.5801, 9020.402
808.0623, 9642.821
808.5444, 10297.05
809.0265, 10982.50
809.5086, 11696.94
809.9907, 12441.82
810.4728, 13212.77
810.9550, 14030.00
811.4371, 14826.57
811.9192, 15559.45
812.4013, 16226.38
812.8834, 16807.38
813.3655, 17346.98
813.8477, 17729.25
814.3298, 17978.34
814.8119, 18047.71
815.2940, 17882.11
815.7761, 17533.14
816.2582, 17077.56
816.7404, 16528.38
817.2225, 15886.18
817.7046, 15111.08
818.1867, 14284.41
818.6688, 13429.86
819.1509, 12585.64
819.6331, 11793.23
820.1152, 11065.62
820.5973, 10406.46
821.0794, 9815.416
821.5615, 9290.730
822.0436, 8831.161
822.5258, 8431.825
823.0079, 8075.544
823.4900, 7760.710
823.9721, 7491.772
824.4542, 7271.036
824.9363, 7094.292
825.4185, 6954.377
825.9006, 6851.070
826.3827, 6789.581
826.8648, 6778.115
827.3469, 6783.155
827.8290, 6783.053
828.3111, 6805.748
828.7932, 6889.274
829.2753, 7034.907
829.7574, 7189.177
830.2396, 7333.948
830.7217, 7510.405
831.2038, 7728.242
831.6859, 7976.091
832.1680, 8247.051
832.6501, 8542.636
833.1323, 8873.068
833.6144, 9241.658
834.0965, 9635.482
834.5786, 10046.88
835.0607, 10477.51
835.5428, 10939.35
836.0250, 11418.23
836.5071, 11893.14
836.9892, 12354.61
837.4713, 12794.60
837.9534, 13217.85
838.4355, 13604.13
838.9177, 13910.47
839.3998, 14147.01
839.8819, 14367.46
840.3640, 14577.75
840.8461, 14700.95
841.3282, 14682.04
841.8104, 14552.94
842.2925, 14386.65
842.7746, 14187.05
843.2567, 13909.50
843.7388, 13547.22
844.2209, 13117.84
844.7031, 12602.88
845.1852, 12056.85
845.6673, 11548.49
846.1494, 11080.60
846.6315, 10625.23
847.1136, 10171.59
847.5958, 9749.937
848.0779, 9364.979
848.5600, 9013.132
849.0421, 8689.723
849.5242, 8397.174
850.0063, 8136.726
850.4885, 7908.914
850.9706, 7712.960
851.4527, 7555.167
851.9348, 7422.890
852.4169, 7306.336
852.8990, 7209.485
853.3812, 7141.428
853.8633, 7102.658
854.3454, 7079.046
854.8275, 7052.760
855.3096, 7045.606
855.7917, 7089.250
856.2739, 7170.066
856.7560, 7258.677
857.2381, 7352.018
857.7202, 7459.761
858.2023, 7586.380
858.6844, 7740.907
859.1666, 7943.374
859.6487, 8189.444
860.1308, 8444.789
860.6129, 8707.954
861.0950, 9010.012
861.5771, 9362.885
862.0593, 9766.466
862.5414, 10221.33
863.0235, 10725.80
863.5056, 11253.35
863.9877, 11786.79
864.4698, 12395.72
864.9520, 13096.21
865.4341, 13868.15
865.9162, 14702.66
866.3983, 15601.47
866.8804, 16548.26
867.3625, 17529.59
867.8447, 18601.99
868.3268, 19842.70
868.8089, 21082.40
869.2910, 22249.16
869.7731, 23394.22
870.2552, 24600.72
870.7374, 25845.99
871.2195, 26999.23
871.7016, 28027.95
872.1837, 28923.95
872.6658, 29778.51
873.1479, 30416.45
873.6301, 30719.50
874.1122, 30665.57
874.5943, 30236.20
875.0764, 29427.23
875.5585, 28328.70
876.0406, 26929.90
876.5228, 25330.41
877.0049, 23590.73
877.4870, 21772.26
877.9691, 19968.21
878.4512, 18213.35
878.9333, 16583.52
879.4155, 15131.71
879.8976, 13815.28
880.3797, 12562.07
880.8618, 11377.38
881.3439, 10334.05
881.8260, 9436.022
882.3082, 8650.913
882.7903, 7974.061
883.2724, 7376.032
883.7545, 6832.696
884.2366, 6341.450
884.7188, 5899.920
885.2009, 5511.873
885.6830, 5150.329
886.1651, 4805.969
886.6472, 4498.715
887.1293, 4248.361
887.6115, 4039.211
888.0936, 3831.281
888.5757, 3619.059
889.0578, 3427.841
889.5399, 3268.292
890.0220, 3115.764
890.5042, 2949.644
890.9863, 2797.296
891.4684, 2690.901
891.9505, 2623.693
892.4326, 2550.432
892.9147, 2458.799
893.3969, 2370.411
893.8790, 2288.121
894.3611, 2212.590
894.8432, 2146.303
895.3253, 2086.494
895.8074, 2031.657
896.2896, 1980.992
896.7717, 1927.553
897.2538, 1860.711
897.7359, 1797.941
898.2180, 1753.196
898.7001, 1718.600
899.1823, 1686.179
899.6644, 1654.220
900.1465, 1622.345
900.6286, 1590.359
901.1107, 1559.083
901.5928, 1527.535
902.0750, 1498.122
902.5571, 1475.748
903.0392, 1458.524
903.5213, 1441.734
904.0034, 1423.476
904.4855, 1400.706
904.9677, 1370.040
905.4498, 1335.269
905.9319, 1299.740
906.4140, 1266.207
906.8961, 1251.461
907.3782, 1255.432
907.8604, 1252.691
908.3425, 1231.022
908.8246, 1203.828
909.3067, 1190.426
909.7888, 1187.805
910.2709, 1171.650
910.7531, 1140.582
911.2352, 1110.470
911.7173, 1082.944
912.1994, 1063.698
912.6815, 1058.166
913.1636, 1061.339
913.6458, 1061.239
914.1279, 1057.336
914.6100, 1052.583
915.0921, 1045.783
915.5742, 1041.240
916.0563, 1042.728
916.5385, 1043.756
917.0206, 1037.431
917.5027, 1024.744
917.9848, 1013.013
918.4669, 998.9669
918.9490, 991.2659
919.4312, 996.2878
919.9133, 1000.419
920.3954, 1000.507
920.8775, 995.1961
921.3596, 977.6495
921.8417, 947.3569
922.3239, 934.5739
922.8060, 960.5704
923.2881, 981.1411
923.7702, 982.5262
924.2523, 976.7221
924.7344, 971.5114
925.2166, 966.2049
925.6987, 956.7247
926.1808, 941.3892
926.6629, 929.4455
927.1450, 924.4286
927.6271, 923.8986
928.1093, 930.0665
928.5914, 937.3895
929.0735, 941.0428
929.5556, 939.8643
930.0377, 932.2266
930.5198, 915.1997
931.0020, 900.7348
931.4841, 901.5231
931.9662, 905.1212
932.4483, 894.5792
932.9304, 878.5671
933.4125, 878.3795
933.8947, 894.8723
934.3768, 903.9717
934.8589, 887.0859
935.3410, 862.8000
935.8231, 850.0085
936.3052, 845.2825
936.7874, 845.1989
937.2695, 847.5730
937.7516, 847.6360
938.2337, 843.7211
938.7158, 837.4438
939.1979, 829.2891
939.6801, 820.8087
940.1622, 812.7954
940.6443, 807.1367
941.1264, 814.1454
941.6085, 832.5261
942.0906, 841.4709
942.5728, 830.1481
943.0549, 814.6380
943.5370, 817.9049
944.0191, 835.4095
944.5012, 849.8071
944.9833, 860.9767
945.4655, 866.8983
945.9476, 867.1767
946.4297, 865.2154
946.9118, 863.3697
947.3939, 860.5920
947.8760, 853.2318
948.3582, 841.5928
948.8403, 837.4807
949.3224, 841.5325
949.8045, 846.5686
950.2866, 850.8850
950.7687, 853.4342
951.2509, 852.9619
951.7330, 850.5245
952.2151, 849.8701
952.6972, 851.4333
953.1793, 851.1078
953.6614, 847.6957
954.1436, 847.2747
954.6257, 854.1715
955.1078, 859.5865
955.5899, 851.6143
956.0720, 833.3699
956.5541, 830.4942
957.0363, 850.6735
957.5184, 860.6572
958.0005, 854.1782
958.4826, 845.4771
958.9647, 840.1846
959.4468, 837.3112
959.9290, 835.3218
960.4111, 834.1872
960.8932, 836.6489
961.3753, 845.9200
961.8574, 852.0232
962.3395, 850.8868
962.8217, 850.6512
963.3038, 858.5889
963.7859, 868.6213
964.2680, 868.4797
964.7501, 855.5316
965.2322, 850.8369
965.7144, 863.5126
966.1965, 870.9987
966.6786, 862.1544
967.1607, 854.7802
967.6428, 862.9358
968.1249, 879.7482
968.6071, 889.4464
969.0892, 889.1219
969.5713, 892.2950
970.0534, 907.7749
970.5355, 915.9390
971.0176, 902.2672
971.4998, 888.0172
971.9819, 891.9086
972.4640, 908.4093
972.9461, 920.7594
973.4282, 927.1489
973.9103, 930.2437
974.3925, 927.3444
974.8746, 925.0042
975.3567, 923.5368
975.8388, 925.3282
976.3209, 935.0024
976.8030, 949.9831
977.2852, 960.4998
977.7673, 963.3966
978.2494, 965.8646
978.7315, 966.6965
979.2136, 970.7313
979.6957, 981.6033
980.1779, 995.9586
980.6600, 1011.035
981.1421, 1026.181
981.6242, 1039.615
982.1063, 1046.366
982.5884, 1061.362
983.0706, 1095.749
983.5527, 1132.137
984.0348, 1157.458
984.5169, 1180.809
984.9990, 1212.079
985.4811, 1252.922
985.9633, 1304.235
986.4454, 1365.820
986.9275, 1438.303
987.4096, 1529.316
987.8917, 1622.849
988.3738, 1703.584
988.8560, 1782.876
989.3381, 1880.112
989.8202, 1995.574
990.3023, 2110.660
990.7844, 2221.947
991.2665, 2326.619
991.7487, 2428.438
992.2308, 2519.020
992.7129, 2595.146
993.1950, 2654.414
993.6771, 2698.240
994.1592, 2724.727
994.6414, 2717.319
995.1235, 2669.876
995.6056, 2586.431
996.0877, 2455.643
996.5698, 2301.525
997.0519, 2131.234
997.5341, 1957.312
998.0162, 1796.099
998.4983, 1651.441
998.9804, 1520.930
999.4625, 1405.042
999.9446, 1303.045
1000.427, 1214.166
1000.909, 1139.590
1001.391, 1084.002
1001.873, 1041.624
1002.355, 1004.465
1002.837, 970.3558
1003.319, 934.8119
1003.802, 888.0960
1004.284, 849.5150
1004.766, 833.7621
1005.248, 825.5862
1005.730, 815.0137
1006.212, 800.9633
1006.694, 781.5180
1007.176, 756.9737
1007.659, 739.1867
1008.141, 741.0504
1008.623, 740.5713
1009.105, 720.3519
1009.587, 699.4440
1010.069, 698.1912
1010.551, 706.9583
1011.033, 705.0169
1011.515, 688.7888
1011.998, 675.3098
1012.480, 675.0263
1012.962, 674.4420
1013.444, 668.5459
1013.926, 658.7119
1014.408, 640.6381
1014.890, 621.6848
1015.372, 616.4148
1015.854, 626.9260
1016.337, 635.1219
1016.819, 633.0065
1017.301, 628.9090
1017.783, 624.1410
1018.265, 620.7822
1018.747, 623.4141
1019.229, 627.3155
1019.711, 620.8732
1020.194, 603.0765
1020.676, 596.8923
1021.158, 627.5830
1021.640, 646.7772
1022.122, 627.4509
1022.604, 600.3201
1023.086, 584.5995
1023.568, 577.8973
1024.051, 574.5558
1024.533, 573.6354
1025.015, 573.4377
1025.497, 574.1282
1025.979, 574.6152
1026.461, 573.7772
1026.943, 573.4777
1027.425, 576.0702
1027.907, 579.3793
1028.390, 579.2618
1028.872, 575.5868
1029.354, 574.5431
1029.836, 581.7231
1030.318, 585.1799
1030.800, 581.9457
1031.282, 574.9017
1031.764, 560.8450
1032.246, 546.7139
1032.729, 540.7507
1033.211, 543.5353
1033.693, 554.8320
1034.175, 592.1653
1034.657, 611.2278
1035.139, 593.9905
1035.621, 572.4669
1036.103, 558.9227
1036.586, 550.8965
1037.068, 544.8820
1037.550, 540.9777
1038.032, 541.1086
1038.514, 555.4041
1038.996, 557.4678
1039.478, 530.3503
1039.960, 512.3169
1040.443, 527.8971
1040.925, 549.9270
1041.407, 546.2250
1041.889, 522.0896
1042.371, 514.1492
1042.853, 534.0820
1043.335, 545.4609
1043.817, 545.5737
1044.299, 541.5274
1044.781, 533.1060
1045.264, 524.9088
1045.746, 521.4938
1046.228, 521.9034
1046.710, 522.2836
1047.192, 522.4971
1047.674, 523.4105
1048.156, 526.0961
1048.638, 526.0458
1049.121, 519.9066
1049.603, 515.5584
1050.085, 520.8031
1050.567, 531.4566
1051.049, 536.0884
1051.531, 534.3361
1052.013, 527.8228
1052.495, 514.8088
1052.978, 506.0251
1053.460, 504.1632
1053.942, 507.0744
1054.424, 514.2473
1054.906, 522.3987
1055.388, 523.7507
1055.870, 518.7084
1056.352, 521.0075
1056.834, 530.9503
1057.317, 536.5781
1057.799, 535.3476
1058.281, 534.5679
1058.763, 538.9813
1059.245, 542.8403
1059.727, 534.9664
1060.209, 519.8788
1060.691, 520.0374
1061.173, 533.1862
1061.656, 541.4890
1062.138, 542.9968
1062.620, 548.3416
1063.102, 562.5596
1063.584, 575.2463
1064.066, 572.8472
1064.548, 562.6257
1065.030, 560.6072
1065.513, 564.2372
1065.995, 566.2849
1066.477, 566.3058
1066.959, 566.1418
1067.441, 566.5416
1067.923, 567.9914
1068.405, 571.0554
1068.887, 575.0573
1069.370, 579.9033
1069.852, 584.5812
1070.334, 585.2906
1070.816, 584.8265
1071.298, 592.8902
1071.780, 609.4404
1072.262, 619.6684
1072.744, 612.5969
1073.226, 602.9194
1073.708, 602.9123
1074.191, 606.5432
1074.673, 606.9450
1075.155, 606.9904
1075.637, 613.6848
1076.119, 625.5849
1076.601, 632.5281
1077.083, 629.4033
1077.565, 626.6071
1078.047, 628.2372
1078.530, 633.2076
1079.012, 644.2141
1079.494, 655.5325
1079.976, 661.2486
1080.458, 662.1105
1080.940, 661.1025
1081.422, 658.2345
1081.904, 657.2043
1082.387, 659.3979
1082.869, 662.8916
1083.351, 667.3918
1083.833, 672.6819
1084.315, 679.9800
1084.797, 687.4240
1085.279, 690.9490
1085.761, 689.8431
1086.244, 691.6771
1086.726, 700.3203
1087.208, 705.3386
1087.690, 705.4000
1088.172, 702.1320
1088.654, 693.1399
1089.136, 684.7939
1089.618, 685.3323
1090.100, 693.5717
1090.583, 701.3086
1091.065, 709.0997
1091.547, 713.9642
1092.029, 715.1121
1092.511, 715.8629
1092.993, 717.0113
1093.475, 719.4109
1093.957, 724.2285
1094.439, 729.9200
1094.922, 732.8180
1095.404, 732.9468
1095.886, 730.6619
1096.368, 726.0473
1096.850, 719.9875
1097.332, 712.8723
1097.814, 711.8768
1098.296, 721.7997
1098.779, 734.3373
1099.261, 736.4100
1099.743, 732.9197
1100.225, 738.6381
1100.707, 749.4968
1101.189, 753.0297
1101.671, 748.7788
1102.153, 741.1058
1102.635, 732.2236
1103.118, 728.1530
1103.600, 737.4191
1104.082, 748.3440
1104.564, 747.8163
1105.046, 740.8665
1105.528, 731.1998
1106.010, 721.7501
1106.492, 718.6216
1106.974, 721.3478
1107.457, 720.0969
1107.939, 708.1484
1108.421, 697.5200
1108.903, 696.1885
1109.385, 696.6804
1109.867, 695.1888
1110.349, 691.8715
1110.831, 686.0537
1111.314, 678.9219
1111.796, 674.3022
1112.278, 673.6985
1112.760, 671.4077
1113.242, 665.3559
1113.724, 659.1199
1114.206, 652.6219
1114.688, 647.2709
1115.171, 644.6242
1115.653, 643.2210
1116.135, 640.7962
1116.617, 637.3726
1117.099, 633.6708
1117.581, 629.4810
1118.063, 625.8106
1118.545, 623.0635
1119.027, 619.9454
1119.510, 616.1268
1119.992, 611.1083
1120.474, 604.2676
1120.956, 596.0098
1121.438, 586.4936
1121.920, 575.9476
1122.402, 572.5746
1122.884, 576.1610
1123.366, 578.7167
1123.849, 578.3404
1124.331, 575.8333
1124.813, 571.5173
1125.295, 567.3217
1125.777, 567.5065
1126.259, 568.6300
1126.741, 563.4502
1127.223, 553.4869
1127.706, 538.2745
1128.188, 521.7993
1128.670, 517.8964
1129.152, 529.6799
1129.634, 539.2096
1130.116, 533.4670
1130.598, 523.1873
1131.080, 514.3934
1131.563, 507.2928
1132.045, 501.7553
1132.527, 498.1771
1133.009, 498.3956
1133.491, 501.3491
1133.973, 501.3635
1134.455, 494.7401
1134.937, 492.5172
1135.419, 502.4445
1135.901, 510.4102
1136.384, 509.0770
1136.866, 506.2377
1137.348, 508.9802
1137.830, 513.7671
1138.312, 513.7510
1138.794, 508.6999
1139.276, 503.7880
1139.758, 497.6145
1140.241, 496.7580
1140.723, 504.5391
1141.205, 507.5657
1141.687, 498.2912
1142.169, 491.0155
1142.651, 501.9510
1143.133, 521.9995
1143.615, 523.5891
1144.098, 509.3248
1144.580, 502.9350
1145.062, 504.0483
1145.544, 504.7063
1146.026, 503.1430
1146.508, 499.8043
1146.990, 494.8086
1147.472, 492.1833
1147.954, 498.1605
1148.437, 507.6771
1148.919, 514.9817
1149.401, 519.9803
1149.883, 522.2487
1150.365, 522.0999
1150.847, 519.3420
1151.329, 514.5363
1151.811, 511.2993
1152.293, 511.2552
1152.776, 513.2061
1153.258, 518.1592
1153.740, 523.1012
1154.222, 526.5175
1154.704, 528.8221
1155.186, 531.3026
1155.668, 533.0190
1156.150, 530.2162
1156.633, 520.6171
1157.115, 516.1608
1157.597, 518.4921
1158.079, 522.9919
1158.561, 531.1635
1159.043, 536.3765
1159.525, 534.1652
1160.007, 530.6138
1160.490, 533.5938
1160.972, 540.5290
1161.454, 539.9426
1161.936, 532.3878
1162.418, 533.7356
1162.900, 543.9075
1163.382, 552.5366
1163.864, 557.2922
1164.346, 563.0352
1164.828, 572.9763
1165.311, 579.7337
1165.793, 570.2296
1166.275, 555.7667
1166.757, 552.7729
1167.239, 557.1552
1167.721, 565.1167
1168.203, 573.7923
1168.685, 578.1072
1169.168, 577.4100
1169.650, 576.5073
1170.132, 578.0348
1170.614, 578.4617
1171.096, 574.7132
1171.578, 571.4283
1172.060, 571.1259
1172.542, 572.4520
1173.025, 573.8807
1173.507, 575.9009
1173.989, 580.6069
1174.471, 588.7835
1174.953, 592.7151
1175.435, 591.7657
1175.917, 587.3873
1176.399, 577.2332
1176.881, 573.6076
1177.364, 583.6657
1177.846, 593.2415
1178.328, 586.9989
1178.810, 572.6981
1179.292, 569.3336
1179.774, 575.0026
1180.256, 581.2308
1180.738, 587.6868
1181.220, 595.6322
1181.703, 604.0377
1182.185, 606.1491
1182.667, 599.1443
1183.149, 591.1344
1183.631, 588.8743
1184.113, 588.3589
1184.595, 587.6609
1185.077, 585.3798
1185.560, 577.4112
1186.042, 568.4830
1186.524, 566.8245
1187.006, 571.6397
1187.488, 574.0045
1187.970, 570.8640
1188.452, 569.4527
1188.934, 571.9255
1189.417, 574.4913
1189.899, 577.5577
1190.381, 578.6756
1190.863, 575.7827
1191.345, 571.1760
1191.827, 567.5696
1192.309, 565.3622
1192.791, 568.0115
1193.273, 575.4639
1193.755, 578.0041
1194.238, 575.2727
1194.720, 569.4392
1195.202, 561.3229
1195.684, 552.8107
1196.166, 544.7832
1196.648, 540.2200
1197.130, 544.5127
1197.612, 552.2947
1198.095, 559.1044
1198.577, 562.9529
1199.059, 558.5339
1199.541, 550.0416
1200.023, 547.3543
1200.505, 550.5499
1200.987, 548.2084
1201.469, 533.1944
1201.952, 522.2864
1202.434, 524.1328
1202.916, 524.6799
1203.398, 515.8962
1203.880, 508.2244
1204.362, 509.2322
1204.844, 514.0652
1205.326, 516.1295
1205.808, 515.0693
1206.291, 505.1368
1206.773, 485.0515
1207.255, 480.9948
1207.737, 494.3835
1208.219, 503.7202
1208.701, 503.3830
1209.183, 499.0952
1209.665, 494.1331
1210.147, 490.6533
1210.630, 490.8778
1211.112, 494.5048
1211.594, 505.8244
1212.076, 516.8347
1212.558, 513.3616
1213.040, 501.4083
1213.522, 495.2967
1214.004, 496.3558
1214.487, 495.1296
1214.969, 488.0655
1215.451, 480.6383
1215.933, 470.5309
1216.415, 465.4498
1216.897, 475.2137
1217.379, 480.5468
1217.861, 465.9679
1218.344, 446.8020
1218.826, 446.1143
1219.308, 459.4799
1219.790, 460.9763
1220.272, 450.6448
1220.754, 443.9911
1221.236, 441.4981
1221.718, 440.5533
1222.200, 440.2985
1222.682, 439.4493
1223.165, 437.3416
1223.647, 433.2437
1224.129, 423.3773
1224.611, 414.9486
1225.093, 418.8340
1225.575, 425.6606
1226.057, 424.1002
1226.539, 418.5799
1227.022, 416.8001
1227.504, 419.1762
1227.986, 422.9909
1228.468, 429.3799
1228.950, 431.0427
1229.432, 424.4275
1229.914, 418.2974
1230.396, 414.1689
1230.879, 409.6581
1231.361, 403.0723
1231.843, 397.6369
1232.325, 397.5969
1232.807, 399.3739
1233.289, 391.2848
1233.771, 376.4955
1234.253, 372.3815
1234.735, 376.2002
1235.218, 375.5752
1235.700, 370.3908
1236.182, 369.7495
1236.664, 376.3785
1237.146, 381.9624
1237.628, 381.4048
1238.110, 378.1540
1238.592, 373.4753
1239.074, 367.8298
1239.557, 356.0808
1240.039, 348.2583
1240.521, 359.8415
1241.003, 381.1717
1241.485, 387.9514
1241.967, 380.0675
1242.449, 375.9538
1242.931, 376.5537
1243.414, 376.3301
1243.896, 374.8246
1244.378, 373.2244
1244.860, 371.8563
1245.342, 372.0738
1245.824, 374.8809
1246.306, 378.3079
1246.788, 380.7369
1247.271, 381.3285
1247.753, 377.3675
1248.235, 371.7609
1248.717, 367.3626
1249.199, 365.4025
1249.681, 370.0541
1250.163, 379.0784
1250.645, 380.0420
1251.127, 367.1128
1251.609, 357.4148
1252.092, 353.8052
1252.574, 354.2054
1253.056, 361.7067
1253.538, 366.2607
1254.020, 362.0871
1254.502, 356.5759
1254.984, 357.4033
1255.466, 361.8539
1255.949, 362.7997
1256.431, 361.3936
1256.913, 364.3576
1257.395, 369.7170
##END=



