##NAMES=Andradite
##RRUFFID=R060423
##IDEAL CHEMISTRY=Ca_3_Fe^3+^_2_(SiO_4_)_3_
##LOCALITY=Mali
##OWNER=RRUFF
##SOURCE=Greg Schmidt
##DESCRIPTION=Black dodecahedron
##STATUS=The identification of this mineral has been confirmed by X-ray diffraction and chemical analysis
##URL=rruff.info/R060423
##MEASURED CHEMISTRY=(Ca_2.93_Mg_0.04_Mn_0.03_)_Σ=3_(Fe^3+^_0.99_Al_0.95_Ti_0.06_)_Σ=2_((Si_0.98_Fe^3+^_0.02_)_Σ=1_O_4_)_3_
92.20605, 67.31788
92.68817, 67.77515
93.17029, 68.43767
93.65240, 68.56056
94.13452, 68.44819
94.61664, 67.92466
95.09875, 66.96091
95.58087, 65.78638
96.06299, 64.88277
96.54510, 64.65702
97.02722, 64.09203
97.50933, 62.92237
97.99145, 61.40604
98.47356, 59.85814
98.95568, 58.43711
99.43780, 57.04181
99.91991, 55.93476
100.4020, 55.24771
100.8841, 54.64545
101.3663, 54.02774
101.8484, 53.37114
102.3305, 52.67354
102.8126, 51.91164
103.2947, 51.04114
103.7768, 50.33276
104.2590, 49.89325
104.7411, 49.55426
105.2232, 49.15133
105.7053, 48.64543
106.1874, 48.07387
106.6695, 47.40239
107.1517, 46.62616
107.6338, 46.00575
108.1159, 45.74552
108.5980, 45.77391
109.0801, 45.73334
109.5622, 45.57249
110.0444, 45.26095
110.5265, 44.74598
111.0086, 44.01611
111.4907, 43.23888
111.9728, 42.57825
112.4549, 42.03273
112.9371, 41.62929
113.4192, 41.47310
113.9013, 41.38826
114.3834, 41.23463
114.8655, 40.95941
115.3476, 40.63337
115.8298, 40.45121
116.3119, 40.54840
116.7940, 40.63652
117.2761, 40.71881
117.7582, 40.76804
118.2403, 40.74549
118.7225, 40.62351
119.2046, 40.41224
119.6867, 40.23352
120.1688, 39.96221
120.6509, 39.83233
121.1330, 40.05581
121.6152, 40.54096
122.0973, 40.94796
122.5794, 40.99007
123.0615, 40.65741
123.5436, 40.40788
124.0257, 40.28968
124.5079, 40.22593
124.9900, 40.15632
125.4721, 40.07708
125.9542, 39.98359
126.4363, 39.82335
126.9184, 39.63496
127.4006, 39.53234
127.8827, 39.64655
128.3648, 39.89051
128.8469, 39.98841
129.3290, 39.85661
129.8111, 39.65217
130.2932, 39.44834
130.7754, 39.25487
131.2575, 39.09957
131.7396, 39.04920
132.2217, 39.13078
132.7038, 39.07315
133.1859, 38.59255
133.6681, 38.17814
134.1502, 38.04367
134.6323, 38.21088
135.1144, 38.56903
135.5965, 39.01089
136.0786, 39.70603
136.5608, 40.12008
137.0429, 40.17874
137.5250, 40.05990
138.0071, 39.85965
138.4892, 39.61696
138.9713, 39.35404
139.4535, 39.11730
139.9356, 38.76834
140.4177, 38.65030
140.8998, 39.01011
141.3819, 39.56036
141.8640, 39.89540
142.3462, 39.82060
142.8283, 39.46955
143.3104, 39.20594
143.7925, 38.99857
144.2746, 38.89495
144.7567, 38.94413
145.2388, 39.12522
145.7210, 39.36581
146.2031, 39.70446
146.6852, 40.02899
147.1673, 40.13350
147.6494, 39.88978
148.1315, 39.60189
148.6137, 39.57763
149.0958, 39.85258
149.5779, 40.14005
150.0600, 40.35530
150.5421, 40.49411
151.0242, 40.53030
151.5064, 40.43821
151.9885, 40.26134
152.4706, 40.04185
152.9527, 39.60957
153.4348, 39.48455
153.9169, 39.95857
154.3991, 40.73203
154.8812, 41.45795
155.3633, 41.94393
155.8454, 42.21777
156.3275, 42.43846
156.8096, 42.53194
157.2918, 42.64475
157.7739, 42.82718
158.2560, 43.04950
158.7381, 43.25523
159.2202, 43.40049
159.7023, 43.48316
160.1845, 43.58248
160.6666, 43.64619
161.1487, 43.77139
161.6308, 44.06067
162.1129, 44.46500
162.5950, 44.81327
163.0772, 44.92699
163.5593, 44.76030
164.0414, 44.82843
164.5235, 45.36070
165.0056, 45.93528
165.4877, 46.20620
165.9698, 46.15533
166.4520, 46.09599
166.9341, 46.34282
167.4162, 46.90344
167.8983, 47.54070
168.3804, 48.43964
168.8625, 49.32352
169.3447, 49.69977
169.8268, 49.35982
170.3089, 49.08608
170.7910, 49.88669
171.2731, 51.48295
171.7552, 52.93827
172.2374, 53.62224
172.7195, 53.86746
173.2016, 54.69388
173.6837, 56.57246
174.1658, 58.50306
174.6479, 59.96944
175.1301, 60.95890
175.6122, 61.41272
176.0943, 61.14202
176.5764, 60.17374
177.0585, 59.14813
177.5406, 58.07442
178.0228, 56.96472
178.5049, 55.83643
178.9870, 54.68231
179.4691, 53.49431
179.9512, 52.23863
180.4333, 50.88545
180.9155, 49.59398
181.3976, 48.16954
181.8797, 46.95821
182.3618, 46.14972
182.8439, 45.74660
183.3260, 45.63994
183.8082, 45.76262
184.2903, 46.38244
184.7724, 46.49357
185.2545, 45.77368
185.7366, 44.89394
186.2187, 44.25645
186.7009, 43.94519
187.1830, 43.80615
187.6651, 43.61675
188.1472, 43.27811
188.6293, 43.11763
189.1114, 43.23602
189.5936, 43.46819
190.0757, 43.76371
190.5578, 44.09720
191.0399, 44.28221
191.5220, 43.92469
192.0041, 42.64542
192.4863, 41.89466
192.9684, 42.18242
193.4505, 42.96767
193.9326, 43.61162
194.4147, 43.94403
194.8968, 44.03371
195.3790, 43.88662
195.8611, 43.46593
196.3432, 43.17090
196.8253, 43.22470
197.3074, 43.48595
197.7895, 43.62561
198.2717, 43.50245
198.7538, 43.32833
199.2359, 43.37775
199.7180, 43.64755
200.2001, 43.96912
200.6822, 44.30885
201.1644, 44.64553
201.6465, 44.86210
202.1286, 44.86946
202.6107, 44.81276
203.0928, 44.80861
203.5749, 44.85967
204.0571, 44.97003
204.5392, 45.22735
205.0213, 45.62771
205.5034, 45.80363
205.9855, 45.53807
206.4676, 45.14114
206.9497, 44.68348
207.4319, 44.21025
207.9140, 43.93716
208.3961, 44.19981
208.8782, 45.12093
209.3603, 45.80033
209.8424, 45.90011
210.3246, 45.91771
210.8067, 46.08434
211.2888, 46.42324
211.7709, 46.81432
212.2530, 47.07860
212.7351, 47.10094
213.2173, 47.36552
213.6994, 48.12162
214.1815, 48.91210
214.6636, 49.45546
215.1457, 49.73260
215.6278, 49.94986
216.1100, 50.38245
216.5921, 51.14431
217.0742, 51.84947
217.5563, 52.42638
218.0384, 53.01205
218.5205, 53.72971
219.0027, 54.57918
219.4848, 55.44747
219.9669, 56.17600
220.4490, 56.70353
220.9311, 57.22481
221.4132, 57.56107
221.8954, 58.00938
222.3775, 58.90989
222.8596, 60.27631
223.3417, 61.69538
223.8238, 62.60278
224.3059, 62.65655
224.7881, 63.15095
225.2702, 64.58638
225.7523, 66.15829
226.2344, 67.08807
226.7165, 67.25063
227.1986, 67.19405
227.6807, 67.56524
228.1629, 68.45018
228.6450, 69.40940
229.1271, 70.53526
229.6092, 71.66487
230.0913, 72.56454
230.5734, 73.18422
231.0556, 73.78831
231.5377, 74.74326
232.0198, 76.04397
232.5019, 77.10649
232.9840, 77.65141
233.4661, 77.98614
233.9483, 78.51573
234.4304, 79.32227
234.9125, 80.13525
235.3946, 80.51786
235.8767, 80.61037
236.3588, 81.10607
236.8410, 82.38074
237.3231, 84.09248
237.8052, 85.89857
238.2873, 87.92538
238.7694, 89.53289
239.2515, 90.08427
239.7337, 89.84181
240.2158, 89.21729
240.6979, 88.54736
241.1800, 87.53410
241.6621, 85.46486
242.1442, 81.98196
242.6264, 78.35777
243.1085, 75.34167
243.5906, 72.73300
244.0727, 70.25190
244.5548, 67.73852
245.0369, 65.31209
245.5191, 63.24038
246.0012, 61.58582
246.4833, 60.16380
246.9654, 58.92730
247.4475, 57.83678
247.9296, 56.83385
248.4117, 55.84184
248.8939, 54.97520
249.3760, 54.54271
249.8581, 54.78870
250.3402, 54.95839
250.8223, 54.69439
251.3044, 54.25151
251.7866, 53.89181
252.2687, 53.71658
252.7508, 53.70559
253.2329, 53.84487
253.7150, 54.25370
254.1971, 54.56498
254.6793, 54.64967
255.1614, 54.62884
255.6435, 54.62166
256.1256, 54.67712
256.6077, 54.74849
257.0898, 54.71792
257.5720, 54.47297
258.0541, 54.35417
258.5362, 54.43555
259.0183, 54.62634
259.5004, 54.88587
259.9825, 55.19447
260.4647, 55.49162
260.9468, 55.61406
261.4289, 55.26754
261.9110, 55.35476
262.3931, 56.19255
262.8752, 57.24865
263.3574, 58.10151
263.8395, 58.64748
264.3216, 59.07684
264.8037, 59.70270
265.2858, 60.64152
265.7679, 61.55574
266.2501, 62.48468
266.7322, 63.36111
267.2143, 64.16795
267.6964, 64.88506
268.1785, 65.45516
268.6606, 65.75020
269.1428, 65.50487
269.6249, 65.70213
270.1070, 66.97846
270.5891, 68.11835
271.0712, 68.30511
271.5533, 67.52006
272.0355, 66.33059
272.5176, 65.33804
272.9997, 64.58710
273.4818, 63.88160
273.9639, 63.24770
274.4460, 62.62759
274.9282, 61.99480
275.4103, 61.34841
275.8924, 60.69539
276.3745, 60.02771
276.8566, 59.32499
277.3387, 58.81606
277.8208, 58.61683
278.3029, 58.44999
278.7851, 58.13855
279.2672, 57.74278
279.7493, 57.48281
280.2314, 57.55114
280.7135, 57.92959
281.1956, 58.03619
281.6778, 57.84587
282.1599, 57.47645
282.6420, 56.79697
283.1241, 55.96507
283.6062, 55.30759
284.0883, 55.02860
284.5705, 55.06828
285.0526, 55.09747
285.5347, 55.23242
286.0168, 55.22809
286.4989, 54.92900
286.9810, 54.46483
287.4632, 53.99462
287.9453, 53.56386
288.4274, 53.28025
288.9095, 53.49324
289.3916, 54.66862
289.8737, 55.61024
290.3559, 56.06820
290.8380, 56.20401
291.3201, 56.17395
291.8022, 56.02214
292.2843, 55.84987
292.7664, 55.85144
293.2486, 56.11383
293.7307, 56.34174
294.2128, 56.51458
294.6949, 56.63601
295.1770, 56.64334
295.6591, 56.52572
296.1413, 56.48704
296.6234, 56.82468
297.1055, 57.67729
297.5876, 58.36256
298.0697, 58.73780
298.5518, 59.01241
299.0340, 59.34555
299.5161, 59.75969
299.9982, 60.22904
300.4803, 60.73419
300.9624, 61.27966
301.4445, 61.84307
301.9267, 62.62038
302.4088, 63.25433
302.8909, 63.34681
303.3730, 62.98644
303.8551, 62.77803
304.3372, 63.18926
304.8194, 64.15042
305.3015, 64.90858
305.7836, 65.30045
306.2657, 65.67750
306.7478, 66.19154
307.2299, 66.82467
307.7121, 67.53770
308.1942, 68.34531
308.6763, 69.17920
309.1584, 69.77174
309.6405, 69.88042
310.1227, 70.15884
310.6048, 70.88342
311.0869, 71.91263
311.5690, 72.99590
312.0511, 74.04724
312.5332, 75.07583
313.0154, 76.09732
313.4975, 77.15432
313.9796, 78.09913
314.4617, 78.65856
314.9438, 79.17915
315.4259, 80.14970
315.9081, 81.69492
316.3902, 83.53809
316.8723, 85.45069
317.3544, 87.50573
317.8365, 89.10966
318.3186, 90.25029
318.8007, 90.89851
319.2828, 90.84546
319.7650, 90.11836
320.2471, 89.29601
320.7292, 88.93208
321.2113, 89.02352
321.6934, 88.67757
322.1755, 87.70126
322.6577, 86.47166
323.1398, 85.14706
323.6219, 83.75703
324.1040, 82.32083
324.5861, 80.82536
325.0682, 79.31194
325.5504, 78.03807
326.0325, 76.80645
326.5146, 75.97334
326.9967, 75.90585
327.4788, 76.31435
327.9609, 76.55359
328.4431, 76.30781
328.9252, 75.86491
329.4073, 75.94868
329.8894, 76.84102
330.3715, 77.56023
330.8536, 77.83022
331.3358, 77.86363
331.8179, 77.89548
332.3000, 77.98647
332.7821, 78.14663
333.2642, 78.41644
333.7463, 78.86150
334.2285, 79.15519
334.7106, 78.98274
335.1927, 78.85925
335.6748, 79.31918
336.1569, 80.35238
336.6390, 81.41515
337.1212, 82.01321
337.6033, 82.12180
338.0854, 82.35971
338.5675, 82.65690
339.0496, 83.13248
339.5317, 83.87788
340.0139, 84.85683
340.4960, 85.94298
340.9781, 87.04815
341.4602, 88.21412
341.9423, 89.66679
342.4244, 91.86230
342.9066, 93.75069
343.3887, 94.69250
343.8708, 95.31247
344.3529, 96.49306
344.8350, 98.56712
345.3171, 101.2938
345.7993, 104.2397
346.2814, 107.6767
346.7635, 110.8671
347.2456, 113.3667
347.7277, 115.8634
348.2098, 118.9644
348.6920, 122.7366
349.1741, 126.8630
349.6562, 130.8866
350.1383, 134.6484
350.6204, 139.3268
351.1025, 145.4874
351.5847, 151.8773
352.0668, 157.7593
352.5489, 163.2573
353.0310, 168.9789
353.5131, 175.3713
353.9952, 182.3303
354.4774, 188.9187
354.9595, 194.8329
355.4416, 200.7119
355.9237, 206.6279
356.4058, 212.5815
356.8879, 218.7169
357.3701, 225.0903
357.8522, 231.3769
358.3343, 236.8987
358.8164, 241.4865
359.2985, 245.4503
359.7806, 248.6719
360.2627, 251.4255
360.7448, 253.7182
361.2270, 255.6631
361.7091, 257.6070
362.1912, 259.9437
362.6733, 262.6658
363.1554, 265.8528
363.6375, 269.7974
364.1197, 273.8830
364.6018, 277.5817
365.0839, 281.2092
365.5660, 285.4779
366.0481, 290.9620
366.5302, 297.5256
367.0124, 304.1609
367.4945, 311.4253
367.9766, 317.9773
368.4587, 324.0898
368.9408, 329.1691
369.4229, 332.6009
369.9051, 334.1209
370.3872, 333.8453
370.8693, 332.0272
371.3514, 328.8768
371.8335, 323.4781
372.3156, 315.0600
372.7978, 305.0382
373.2799, 293.9828
373.7620, 282.0932
374.2441, 269.2841
374.7262, 254.9529
375.2083, 238.9904
375.6905, 224.6317
376.1726, 212.4529
376.6547, 201.3869
377.1368, 191.2409
377.6189, 181.7471
378.1010, 172.4752
378.5832, 162.9203
379.0653, 153.5602
379.5474, 145.7252
380.0295, 139.8048
380.5116, 134.4140
380.9937, 128.9547
381.4759, 123.7867
381.9580, 119.3889
382.4401, 115.9455
382.9222, 112.8401
383.4043, 109.3534
383.8864, 105.4851
384.3686, 102.0171
384.8507, 99.17833
385.3328, 96.77032
385.8149, 94.58959
386.2970, 92.63860
386.7791, 90.83991
387.2613, 89.23213
387.7434, 87.75619
388.2255, 86.26008
388.7076, 84.73117
389.1897, 83.20957
389.6718, 81.68139
390.1540, 80.17964
390.6361, 78.76988
391.1182, 77.36152
391.6003, 76.15906
392.0824, 75.43643
392.5645, 75.14564
393.0467, 74.90940
393.5288, 74.64521
394.0109, 74.27166
394.4930, 73.63409
394.9751, 72.68445
395.4572, 71.69998
395.9394, 70.51136
396.4215, 69.43127
396.9036, 69.21362
397.3857, 70.09673
397.8678, 71.01564
398.3499, 70.77059
398.8321, 69.27034
399.3142, 68.01179
399.7963, 67.14437
400.2784, 66.45440
400.7605, 65.97114
401.2426, 65.58115
401.7247, 64.83762
402.2068, 63.39787
402.6890, 61.47208
403.1711, 60.03905
403.6532, 59.62595
404.1353, 58.96650
404.6174, 57.60903
405.0995, 55.97509
405.5817, 54.58535
406.0638, 53.59738
406.5459, 52.82611
407.0280, 52.02467
407.5101, 51.19364
407.9922, 50.34260
408.4744, 49.32179
408.9565, 48.41887
409.4386, 47.91082
409.9207, 47.67682
410.4028, 47.30880
410.8849, 46.46672
411.3671, 45.26387
411.8492, 44.55532
412.3313, 44.88649
412.8134, 45.05815
413.2955, 44.78209
413.7776, 44.32926
414.2598, 44.01135
414.7419, 43.92559
415.2240, 43.90879
415.7061, 43.69939
416.1882, 43.22634
416.6703, 42.80458
417.1525, 42.33871
417.6346, 42.02795
418.1167, 42.12441
418.5988, 42.49099
419.0809, 42.69934
419.5630, 42.37314
420.0452, 41.66615
420.5273, 41.22530
421.0094, 41.10993
421.4915, 41.15067
421.9736, 41.41116
422.4557, 41.72652
422.9379, 41.90853
423.4200, 41.89690
423.9021, 41.80524
424.3842, 41.75597
424.8663, 41.74559
425.3484, 41.67965
425.8306, 41.49699
426.3127, 41.30606
426.7948, 41.14287
427.2769, 41.02567
427.7590, 41.09464
428.2411, 41.61788
428.7233, 42.27702
429.2054, 42.56593
429.6875, 42.45117
430.1696, 42.18001
430.6517, 41.78522
431.1339, 41.38107
431.6160, 41.28127
432.0981, 41.69614
432.5802, 42.08362
433.0623, 42.05889
433.5444, 41.82385
434.0266, 41.83004
434.5087, 42.22921
434.9908, 42.78356
435.4729, 43.20014
435.9550, 43.47023
436.4371, 43.58687
436.9193, 43.47757
437.4014, 43.27328
437.8835, 42.99603
438.3656, 42.69152
438.8477, 42.48027
439.3298, 42.44495
439.8120, 42.56278
440.2941, 42.71385
440.7762, 43.08617
441.2583, 43.25486
441.7404, 42.95801
442.2225, 42.54910
442.7046, 42.41158
443.1867, 42.62853
443.6689, 42.97658
444.1510, 43.16819
444.6331, 43.16272
445.1152, 43.20669
445.5973, 43.45448
446.0794, 43.59708
446.5616, 43.45176
447.0437, 43.12886
447.5258, 42.83122
448.0079, 42.66901
448.4900, 42.61457
448.9721, 42.62636
449.4543, 42.76140
449.9364, 42.79774
450.4185, 42.47741
450.9006, 42.17952
451.3827, 42.23827
451.8648, 42.66499
452.3470, 43.09594
452.8291, 43.25169
453.3112, 43.17326
453.7933, 43.00772
454.2754, 42.71354
454.7575, 42.45426
455.2397, 42.33776
455.7218, 42.33015
456.2039, 42.40179
456.6860, 42.60699
457.1681, 42.80213
457.6502, 42.83379
458.1324, 42.74003
458.6145, 42.72561
459.0966, 42.91160
459.5787, 43.09459
460.0608, 42.89434
460.5429, 42.27323
461.0251, 41.81349
461.5072, 41.69632
461.9893, 41.73134
462.4714, 41.76278
462.9535, 41.78181
463.4356, 41.85486
463.9178, 42.05463
464.3999, 42.32695
464.8820, 42.37164
465.3641, 42.05829
465.8462, 41.70166
466.3283, 41.25153
466.8105, 40.82288
467.2926, 40.56600
467.7747, 40.50050
468.2568, 40.50008
468.7389, 40.42554
469.2210, 40.27697
469.7032, 40.04549
470.1853, 39.37587
470.6674, 38.99786
471.1495, 39.33726
471.6316, 40.07445
472.1137, 40.70924
472.5959, 41.01071
473.0780, 41.07273
473.5601, 41.03819
474.0422, 40.87607
474.5243, 40.74911
475.0064, 40.61868
475.4886, 40.59511
475.9707, 40.78850
476.4528, 41.17008
476.9349, 41.58193
477.4170, 41.94566
477.8991, 42.26683
478.3813, 42.52190
478.8634, 42.67915
479.3455, 42.96736
479.8276, 43.64449
480.3097, 44.46038
480.7918, 44.94267
481.2740, 44.94910
481.7561, 44.97156
482.2382, 45.28370
482.7203, 45.77462
483.2024, 46.30368
483.6845, 46.85329
484.1666, 47.22704
484.6487, 47.16436
485.1309, 46.64826
485.6130, 46.44624
486.0951, 46.72296
486.5772, 47.11570
487.0593, 47.55108
487.5414, 47.98110
488.0236, 48.35866
488.5057, 48.66602
488.9878, 48.85260
489.4699, 48.79473
489.9520, 48.26243
490.4341, 48.05878
490.9163, 48.46034
491.3984, 48.87580
491.8805, 48.99754
492.3626, 48.88058
492.8447, 48.74131
493.3268, 48.73281
493.8090, 48.75675
494.2911, 48.45643
494.7732, 47.61134
495.2553, 47.04560
495.7374, 47.19581
496.2195, 47.52899
496.7017, 47.74445
497.1838, 47.79744
497.6659, 47.69198
498.1480, 47.36633
498.6301, 46.88846
499.1122, 46.43934
499.5944, 46.02391
500.0765, 45.63462
500.5586, 45.21153
501.0407, 44.83235
501.5228, 44.66213
502.0049, 44.79724
502.4871, 44.94637
502.9692, 44.95840
503.4513, 44.88792
503.9334, 44.84658
504.4155, 44.85960
504.8976, 44.83687
505.3798, 44.66647
505.8619, 44.33350
506.3440, 44.15043
506.8261, 44.21884
507.3082, 44.30677
507.7903, 44.22166
508.2725, 44.13168
508.7546, 44.34320
509.2367, 44.96143
509.7188, 45.75675
510.2009, 46.36125
510.6830, 46.71894
511.1652, 47.07794
511.6473, 47.16955
512.1294, 47.52924
512.6115, 48.51092
513.0936, 49.90661
513.5757, 51.31364
514.0579, 52.54729
514.5400, 53.64048
515.0221, 54.57631
515.5042, 55.30448
515.9863, 56.31329
516.4684, 58.02743
516.9506, 59.75164
517.4327, 60.76379
517.9148, 61.17023
518.3969, 61.79049
518.8790, 63.18650
519.3611, 64.86388
519.8433, 66.14513
520.3254, 67.05025
520.8075, 68.02870
521.2896, 69.29011
521.7717, 70.76250
522.2538, 72.23107
522.7360, 73.55919
523.2181, 75.25764
523.7002, 77.76830
524.1823, 80.43029
524.6644, 82.55661
525.1465, 84.18722
525.6287, 85.89835
526.1108, 88.11095
526.5929, 90.72197
527.0750, 93.24128
527.5571, 95.33635
528.0392, 97.80870
528.5214, 101.2925
529.0035, 104.7857
529.4856, 107.3903
529.9677, 109.0620
530.4498, 110.4755
530.9319, 112.4883
531.4141, 114.8022
531.8962, 115.4867
532.3783, 114.0742
532.8604, 112.0992
533.3425, 110.3485
533.8246, 108.2995
534.3068, 105.2994
534.7889, 101.1992
535.2710, 96.53559
535.7531, 91.30189
536.2352, 85.81327
536.7173, 80.62570
537.1995, 75.79899
537.6816, 71.43053
538.1637, 67.65424
538.6458, 64.43069
539.1279, 61.47560
539.6100, 58.80290
540.0922, 56.34236
540.5743, 53.96341
541.0564, 51.82500
541.5385, 50.12714
542.0206, 48.90679
542.5027, 48.07113
542.9849, 47.58434
543.4670, 47.45855
543.9491, 47.13918
544.4312, 46.44110
544.9133, 45.76426
545.3954, 45.05070
545.8775, 44.46567
546.3596, 44.28673
546.8417, 44.55660
547.3239, 44.85862
547.8060, 44.61855
548.2881, 43.90906
548.7702, 43.66462
549.2523, 44.17138
549.7344, 44.62218
550.2166, 44.33258
550.6987, 43.71266
551.1808, 43.40978
551.6629, 43.64423
552.1450, 43.94100
552.6271, 44.01367
553.1093, 43.93452
553.5914, 43.85195
554.0735, 43.79601
554.5556, 43.71696
555.0377, 43.55642
555.5198, 43.31641
556.0020, 43.15445
556.4841, 43.23506
556.9662, 43.18402
557.4483, 42.77848
557.9304, 42.24437
558.4125, 41.85590
558.8947, 41.67754
559.3768, 41.60443
559.8589, 41.56466
560.3410, 41.56555
560.8231, 41.26840
561.3052, 40.38106
561.7874, 39.62314
562.2695, 39.29943
562.7516, 39.17467
563.2337, 38.99157
563.7158, 38.68953
564.1979, 38.31279
564.6801, 37.86060
565.1622, 37.36245
565.6443, 36.90851
566.1264, 36.50189
566.6085, 36.17116
567.0906, 36.00052
567.5728, 35.91368
568.0549, 35.62803
568.5370, 35.02095
569.0191, 34.41053
569.5012, 33.91874
569.9833, 33.47614
570.4655, 32.96275
570.9476, 32.37948
571.4297, 31.85224
571.9118, 31.50122
572.3939, 31.31601
572.8760, 31.18464
573.3582, 31.22408
573.8403, 31.15276
574.3224, 30.92434
574.8045, 30.57999
575.2866, 30.04165
575.7687, 29.36206
576.2509, 28.87459
576.7330, 29.00182
577.2151, 29.54902
577.6972, 29.72963
578.1793, 29.46391
578.6614, 29.17732
579.1436, 29.07210
579.6257, 29.03984
580.1078, 28.89281
580.5899, 28.59194
581.0720, 28.39444
581.5541, 28.47455
582.0363, 28.65991
582.5184, 28.74797
583.0005, 28.74167
583.4826, 28.77646
583.9647, 28.94553
584.4468, 29.18019
584.9290, 29.27229
585.4111, 28.97396
585.8932, 28.92863
586.3753, 29.40981
586.8574, 29.88971
587.3395, 29.93151
587.8217, 29.67443
588.3038, 29.58553
588.7859, 29.96711
589.2680, 30.61118
589.7501, 31.08802
590.2322, 31.38758
590.7144, 31.58570
591.1965, 31.64093
591.6786, 31.66335
592.1607, 31.72407
592.6428, 31.82654
593.1249, 31.99124
593.6071, 32.22644
594.0892, 32.52398
594.5713, 33.00333
595.0534, 33.54187
595.5355, 33.72317
596.0176, 33.38669
596.4998, 32.93509
596.9819, 32.88468
597.4640, 33.30562
597.9461, 33.70914
598.4282, 34.24598
598.9103, 34.59801
599.3925, 34.48363
599.8746, 34.19889
600.3567, 34.12367
600.8388, 34.37403
601.3209, 34.80602
601.8030, 35.35040
602.2852, 35.99363
602.7673, 36.31964
603.2494, 36.18705
603.7315, 36.03278
604.2136, 36.17255
604.6957, 36.38572
605.1779, 36.33747
605.6600, 35.91837
606.1421, 35.54990
606.6242, 35.51420
607.1063, 35.62105
607.5884, 35.54448
608.0706, 35.28680
608.5527, 35.18602
609.0348, 35.50327
609.5169, 36.08073
609.9990, 36.36949
610.4811, 36.09016
610.9633, 35.92159
611.4454, 35.98904
611.9275, 36.06254
612.4096, 35.91367
612.8917, 35.63375
613.3738, 35.54128
613.8560, 35.87893
614.3381, 36.35488
614.8202, 36.33985
615.3023, 35.78456
615.7844, 35.37903
616.2665, 35.32911
616.7487, 35.36586
617.2308, 35.25635
617.7129, 35.03125
618.1950, 34.80236
618.6771, 34.61014
619.1592, 34.40224
619.6414, 34.15627
620.1235, 33.87022
620.6056, 33.52726
621.0877, 33.12606
621.5698, 32.70803
622.0519, 32.30969
622.5341, 31.92942
623.0162, 31.62426
623.4983, 31.54864
623.9804, 31.34829
624.4625, 30.93657
624.9446, 30.39734
625.4268, 29.69668
625.9089, 28.89414
626.3910, 28.30865
626.8731, 28.37512
627.3552, 28.79754
627.8373, 28.75656
628.3194, 28.21235
628.8015, 27.73588
629.2836, 27.57536
629.7657, 27.56507
630.2479, 27.44886
630.7300, 27.22282
631.2121, 26.98785
631.6942, 26.72402
632.1763, 26.48723
632.6584, 26.26960
633.1406, 26.11256
633.6227, 26.13376
634.1048, 26.37404
634.5869, 26.66619
635.0690, 26.75245
635.5511, 26.59968
636.0333, 26.46522
636.5154, 26.23712
636.9975, 26.19326
637.4796, 26.59381
637.9617, 27.14482
638.4438, 27.46696
638.9260, 27.46791
639.4081, 27.37310
639.8902, 27.27612
640.3723, 27.20974
640.8544, 27.28074
641.3365, 27.48641
641.8187, 27.60160
642.3008, 27.47257
642.7829, 27.21324
643.2650, 27.10638
643.7471, 27.22712
644.2292, 27.37079
644.7114, 27.62756
645.1935, 27.82209
645.6756, 27.73967
646.1577, 27.53435
646.6398, 27.57117
647.1219, 28.03243
647.6041, 28.59758
648.0862, 28.76372
648.5683, 28.53813
649.0504, 28.36547
649.5325, 28.30222
650.0146, 28.26444
650.4968, 28.24732
650.9789, 28.20537
651.4610, 28.02266
651.9431, 27.60256
652.4252, 27.24103
652.9073, 27.10505
653.3895, 27.05680
653.8716, 26.90819
654.3537, 26.67739
654.8358, 26.56399
655.3179, 26.71206
655.8000, 26.99817
656.2822, 27.04428
656.7643, 26.67118
657.2464, 26.51592
657.7285, 26.88427
658.2106, 27.23806
658.6927, 27.36328
659.1749, 27.28522
659.6570, 27.05194
660.1391, 26.60422
660.6212, 26.21352
661.1033, 26.23956
661.5854, 26.50533
662.0676, 26.49009
662.5497, 26.10387
663.0318, 25.74702
663.5139, 25.74816
663.9960, 26.00720
664.4781, 26.03081
664.9603, 25.51240
665.4424, 25.18161
665.9245, 25.15816
666.4066, 25.24909
666.8887, 25.35854
667.3708, 25.46230
667.8530, 25.54344
668.3351, 25.58804
668.8172, 25.62488
669.2993, 25.70993
669.7814, 25.84051
670.2635, 25.93918
670.7457, 25.97059
671.2278, 26.03400
671.7099, 26.30025
672.1920, 26.66336
672.6741, 26.68564
673.1563, 26.03719
673.6384, 25.55455
674.1205, 25.62481
674.6026, 25.88296
675.0847, 25.98351
675.5668, 25.90694
676.0490, 25.81148
676.5311, 25.80799
677.0132, 25.81925
677.4953, 25.59095
677.9774, 25.01904
678.4595, 24.72652
678.9417, 25.04085
679.4238, 25.33112
679.9059, 25.13636
680.3880, 24.63327
680.8701, 24.21625
681.3522, 23.99992
681.8344, 23.81174
682.3165, 23.52823
682.7986, 23.22252
683.2807, 23.01336
683.7628, 22.90479
684.2449, 22.80131
684.7271, 22.63414
685.2092, 22.43580
685.6913, 22.30326
686.1734, 22.22352
686.6555, 22.24011
687.1376, 22.48265
687.6198, 22.69852
688.1019, 22.82424
688.5840, 22.82665
689.0661, 22.60695
689.5482, 22.04984
690.0303, 21.55492
690.5125, 21.55368
690.9946, 21.84439
691.4767, 21.99212
691.9588, 21.94623
692.4409, 21.84782
692.9230, 21.77610
693.4052, 21.73310
693.8873, 21.72399
694.3694, 21.74958
694.8515, 21.81094
695.3336, 21.97584
695.8157, 22.10577
696.2979, 22.12452
696.7800, 22.05972
697.2621, 21.96253
697.7442, 21.84917
698.2263, 21.73514
698.7084, 21.59720
699.1906, 21.47129
699.6727, 21.52769
700.1548, 21.79641
700.6369, 21.95730
701.1190, 21.77450
701.6011, 21.43455
702.0833, 21.39581
702.5654, 21.86673
703.0475, 22.15003
703.5296, 22.10789
704.0117, 22.00729
704.4938, 22.03802
704.9760, 22.09048
705.4581, 21.89918
705.9402, 21.38743
706.4223, 20.91993
706.9044, 21.00116
707.3865, 21.48940
707.8687, 21.72462
708.3508, 21.65656
708.8329, 21.56449
709.3149, 21.56363
709.7971, 21.61871
710.2792, 21.67582
710.7613, 21.73733
711.2434, 21.78826
711.7255, 21.77246
712.2076, 21.80482
712.6898, 21.96919
713.1719, 22.20673
713.6540, 22.45147
714.1361, 22.67708
714.6182, 22.84769
715.1003, 22.94616
715.5825, 22.95947
716.0646, 22.78356
716.5467, 22.37823
717.0288, 22.07385
717.5109, 21.98315
717.9930, 22.04062
718.4752, 22.17282
718.9573, 22.37732
719.4394, 22.69963
719.9215, 23.40196
720.4036, 23.92321
720.8857, 23.85439
721.3679, 23.57036
721.8500, 23.54337
722.3321, 23.83102
722.8142, 24.15883
723.2963, 24.28469
723.7784, 24.32244
724.2606, 24.65541
724.7427, 25.33210
725.2248, 25.82479
725.7069, 25.93053
726.1890, 25.98107
726.6711, 26.36080
727.1533, 26.95804
727.6354, 27.21121
728.1175, 26.73676
728.5996, 26.39892
729.0817, 26.45156
729.5638, 26.75776
730.0460, 27.32407
730.5281, 28.03144
731.0102, 28.56155
731.4923, 28.71287
731.9744, 28.67505
732.4565, 28.72323
732.9387, 28.85381
733.4208, 29.38279
733.9029, 30.55595
734.3850, 31.56616
734.8671, 31.72143
735.3492, 31.42487
735.8314, 31.73151
736.3135, 32.92159
736.7956, 33.90327
737.2777, 34.35472
737.7598, 34.61930
738.2419, 34.90218
738.7241, 35.20382
739.2062, 35.44469
739.6883, 35.60265
740.1704, 35.81250
740.6525, 36.24677
741.1346, 36.88860
741.6168, 37.67201
742.0989, 38.66460
742.5810, 39.42789
743.0631, 39.66534
743.5452, 39.70922
744.0273, 40.04591
744.5095, 40.69043
744.9916, 41.32189
745.4737, 41.92104
745.9558, 42.49518
746.4379, 43.04189
746.9200, 43.56824
747.4022, 44.12329
747.8843, 44.68528
748.3664, 45.11621
748.8485, 45.25756
749.3306, 45.24818
749.8127, 45.41184
750.2949, 45.74951
750.7770, 46.14491
751.2591, 46.57308
751.7412, 47.05512
752.2233, 47.65120
752.7054, 48.33033
753.1876, 48.88179
753.6697, 49.14679
754.1518, 49.51772
754.6339, 50.10464
755.1160, 50.76625
755.5981, 51.47761
756.0803, 52.16564
756.5624, 52.66905
757.0445, 52.89645
757.5266, 53.08657
758.0087, 53.64955
758.4908, 54.43220
758.9730, 54.69348
759.4551, 54.33876
759.9372, 54.25486
760.4193, 54.98357
760.9014, 56.11676
761.3835, 56.88768
761.8657, 57.22794
762.3478, 57.42278
762.8299, 57.42936
763.3120, 57.35188
763.7941, 57.05669
764.2762, 56.79080
764.7584, 56.97153
765.2405, 57.59452
765.7226, 58.00635
766.2047, 57.62608
766.6868, 56.87197
767.1689, 56.31177
767.6511, 55.91070
768.1332, 55.57607
768.6153, 55.28894
769.0974, 54.88538
769.5795, 54.17821
770.0616, 53.21877
770.5438, 52.46642
771.0259, 51.92199
771.5080, 51.58488
771.9901, 51.67446
772.4722, 51.75344
772.9543, 51.58008
773.4365, 51.20014
773.9186, 50.75406
774.4007, 50.29004
774.8828, 49.74314
775.3649, 48.86510
775.8470, 47.99569
776.3292, 47.72429
776.8113, 47.95946
777.2934, 48.12838
777.7755, 47.95720
778.2576, 47.57734
778.7397, 47.17612
779.2219, 46.74384
779.7040, 46.39143
780.1861, 46.07516
780.6682, 45.93426
781.1503, 46.21215
781.6324, 46.55305
782.1146, 46.52345
782.5967, 46.13469
783.0788, 45.86781
783.5609, 45.82121
784.0430, 45.94341
784.5251, 46.31479
785.0073, 46.78362
785.4894, 47.18642
785.9715, 47.47800
786.4536, 47.61158
786.9357, 47.50825
787.4178, 47.35796
787.9000, 47.60716
788.3821, 48.25221
788.8642, 48.92727
789.3463, 49.60746
789.8284, 50.22667
790.3105, 50.70521
790.7927, 51.10365
791.2748, 51.57087
791.7568, 52.05505
792.2390, 52.73553
792.7211, 53.84182
793.2032, 54.91292
793.6853, 55.69197
794.1674, 56.30515
794.6495, 56.91746
795.1317, 57.58164
795.6138, 58.35864
796.0959, 59.30635
796.5780, 60.32598
797.0601, 61.53790
797.5422, 62.76447
798.0244, 64.13356
798.5065, 65.66277
798.9886, 67.43336
799.4707, 69.60164
799.9528, 72.06152
800.4349, 73.91346
800.9171, 74.70013
801.3992, 75.80576
801.8813, 77.61870
802.3634, 79.54597
802.8455, 81.25865
803.3276, 82.86380
803.8098, 84.57288
804.2919, 86.41428
804.7740, 88.40615
805.2561, 90.59232
805.7382, 92.88799
806.2203, 95.39668
806.7025, 97.91486
807.1846, 99.86624
807.6667, 101.0623
808.1488, 102.2223
808.6309, 104.2368
809.1130, 106.9634
809.5952, 109.5082
810.0773, 111.8883
810.5594, 114.0339
811.0415, 115.8574
811.5236, 117.5424
812.0057, 119.2456
812.4879, 120.9619
812.9700, 122.6543
813.4521, 124.4735
813.9342, 126.0484
814.4163, 126.9255
814.8984, 127.8839
815.3806, 129.8595
815.8627, 132.3020
816.3448, 133.8327
816.8269, 133.8794
817.3090, 133.6570
817.7911, 134.6099
818.2733, 135.9578
818.7554, 135.9373
819.2375, 134.6855
819.7196, 133.7272
820.2017, 133.6788
820.6838, 133.6627
821.1660, 132.5111
821.6481, 130.2627
822.1302, 128.5312
822.6123, 127.6975
823.0944, 126.5388
823.5765, 124.7296
824.0587, 122.5892
824.5408, 120.1372
825.0229, 117.5475
825.5050, 115.4077
825.9871, 114.1668
826.4692, 112.7007
826.9514, 110.1820
827.4335, 107.5614
827.9156, 105.8628
828.3977, 104.7912
828.8798, 103.4354
829.3619, 101.4490
829.8441, 99.37028
830.3262, 97.87165
830.8083, 96.78030
831.2904, 95.46055
831.7725, 93.92049
832.2546, 92.29869
832.7368, 90.60575
833.2189, 88.98951
833.7010, 87.60251
834.1831, 86.43407
834.6652, 85.26234
835.1473, 83.70242
835.6295, 82.78885
836.1116, 83.04607
836.5937, 83.48283
837.0758, 83.72353
837.5579, 83.69387
838.0400, 83.26607
838.5222, 82.34338
839.0043, 81.39843
839.4864, 80.44360
839.9685, 79.76994
840.4506, 79.94770
840.9327, 80.58920
841.4149, 80.71743
841.8970, 80.09511
842.3791, 79.43985
842.8612, 79.50990
843.3433, 80.04965
843.8254, 80.14774
844.3076, 79.78237
844.7897, 79.66722
845.2718, 80.00900
845.7539, 80.39755
846.2360, 80.53078
846.7181, 80.47018
847.2003, 80.42076
847.6824, 80.35067
848.1645, 80.35635
848.6466, 80.54223
849.1287, 80.68216
849.6108, 80.47902
850.0930, 80.28116
850.5751, 80.69043
851.0572, 81.74544
851.5393, 82.53143
852.0214, 82.27868
852.5035, 81.85668
852.9857, 81.95728
853.4678, 82.45336
853.9499, 83.23148
854.4320, 84.18607
854.9141, 84.97242
855.3962, 85.31224
855.8784, 85.53342
856.3605, 86.33031
856.8426, 87.68816
857.3247, 89.03790
857.8068, 90.34337
858.2889, 91.58518
858.7711, 92.67191
859.2532, 93.80230
859.7353, 95.31174
860.2174, 97.24840
860.6995, 99.19185
861.1816, 101.1246
861.6638, 103.0854
862.1459, 105.0657
862.6280, 107.0994
863.1101, 109.3365
863.5922, 111.6614
864.0743, 113.6599
864.5565, 115.0836
865.0386, 116.5182
865.5207, 118.3723
866.0028, 120.4061
866.4849, 122.2871
866.9670, 124.0959
867.4492, 126.0676
867.9313, 128.2900
868.4134, 130.7279
868.8955, 133.5100
869.3776, 136.3944
869.8597, 138.3610
870.3419, 139.3996
870.8240, 140.5992
871.3061, 142.2560
871.7882, 143.9562
872.2703, 145.3587
872.7524, 146.5161
873.2346, 147.6312
873.7167, 148.7934
874.1987, 149.7331
874.6808, 150.9187
875.1630, 151.3255
875.6451, 150.1791
876.1272, 148.2648
876.6093, 146.6777
877.0914, 145.5205
877.5735, 143.6254
878.0557, 140.1196
878.5378, 136.3224
879.0199, 132.8989
879.5020, 129.6814
879.9841, 126.5507
880.4662, 123.4042
880.9484, 119.9679
881.4305, 116.0547
881.9126, 112.0498
882.3947, 108.4137
882.8768, 105.0830
883.3589, 101.9988
883.8411, 99.11777
884.3232, 95.92995
884.8053, 92.19781
885.2874, 88.55957
885.7695, 85.86001
886.2516, 83.99037
886.7338, 81.72475
887.2159, 78.84214
887.6980, 76.20113
888.1801, 74.09196
888.6622, 72.02377
889.1443, 69.39292
889.6265, 66.60313
890.1086, 64.64117
890.5907, 63.80296
891.0728, 62.89787
891.5549, 61.79726
892.0370, 60.54168
892.5192, 59.13970
893.0013, 57.60110
893.4834, 55.75053
893.9655, 53.70455
894.4476, 52.16115
894.9297, 51.70821
895.4119, 51.50686
895.8940, 50.81519
896.3761, 49.82748
896.8582, 48.81779
897.3403, 47.83985
897.8224, 46.90039
898.3046, 46.00763
898.7867, 45.19493
899.2688, 44.52161
899.7509, 43.97359
900.2330, 43.48463
900.7151, 43.06669
901.1973, 42.47981
901.6794, 41.61128
902.1615, 40.73243
902.6436, 40.06466
903.1257, 39.58580
903.6078, 39.21361
904.0900, 39.05913
904.5721, 38.77114
905.0542, 38.19629
905.5363, 37.66906
906.0184, 37.38517
906.5005, 37.17959
906.9827, 36.82344
907.4648, 36.30906
907.9469, 35.91577
908.4290, 35.67141
908.9111, 35.61116
909.3932, 36.00225
909.8754, 36.39331
910.3575, 36.27582
910.8396, 35.76868
911.3217, 35.29850
911.8038, 35.03392
912.2859, 34.88286
912.7681, 34.75278
913.2502, 34.68983
913.7323, 34.85140
914.2144, 35.14427
914.6965, 35.26931
915.1786, 35.15093
915.6608, 34.89160
916.1429, 34.54292
916.6250, 34.19927
917.1071, 34.13333
917.5892, 34.34583
918.0714, 34.58031
918.5535, 34.85271
919.0356, 34.88951
919.5177, 34.44453
919.9998, 33.92802
920.4819, 34.02812
920.9641, 34.81762
921.4462, 35.16257
921.9283, 34.78875
922.4104, 34.43244
922.8925, 34.11794
923.3746, 33.95184
923.8568, 34.16853
924.3389, 34.55873
924.8210, 34.57676
925.3031, 33.99837
925.7852, 33.63903
926.2673, 33.80785
926.7495, 34.12954
927.2316, 34.55376
927.7137, 34.91368
928.1958, 34.93430
928.6779, 34.66437
929.1600, 34.49921
929.6422, 34.65072
930.1243, 34.95678
930.6064, 35.47404
931.0885, 35.94209
931.5706, 35.81333
932.0527, 35.25804
932.5349, 34.96451
933.0170, 35.18068
933.4991, 35.56020
933.9812, 35.79552
934.4633, 35.86689
934.9454, 35.60852
935.4276, 35.07190
935.9097, 34.83372
936.3918, 35.01463
936.8739, 35.20990
937.3560, 35.17982
937.8381, 34.94607
938.3203, 34.49708
938.8024, 33.76573
939.2845, 33.40809
939.7666, 33.58036
940.2487, 33.71877
940.7308, 33.66750
941.2130, 33.52288
941.6951, 33.36872
942.1772, 33.19794
942.6593, 32.96382
943.1414, 32.57720
943.6235, 32.28683
944.1057, 32.25562
944.5878, 32.14724
945.0699, 31.72008
945.5520, 31.18962
946.0341, 30.84927
946.5162, 30.70689
946.9984, 30.50046
947.4805, 30.12573
947.9626, 29.68772
948.4447, 29.13291
948.9268, 28.62674
949.4089, 28.34557
949.8911, 28.24649
950.3732, 28.25051
950.8553, 28.32125
951.3374, 28.26552
951.8195, 27.71083
952.3016, 27.11177
952.7838, 27.19451
953.2659, 27.66607
953.7480, 27.83500
954.2301, 27.63303
954.7122, 27.40979
955.1943, 27.36291
955.6765, 27.45283
956.1586, 27.71909
956.6406, 28.08173
957.1227, 28.01810
957.6049, 27.54189
958.0870, 27.38668
958.5691, 27.78345
959.0512, 28.31512
959.5333, 28.61944
960.0154, 28.76856
960.4976, 28.99721
960.9797, 29.32129
961.4618, 29.65394
961.9439, 30.01053
962.4260, 30.32374
962.9081, 30.56353
963.3903, 30.74062
963.8724, 30.80153
964.3545, 30.76421
964.8366, 31.06871
965.3187, 32.28739
965.8008, 32.93210
966.2830, 32.38420
966.7651, 31.85521
967.2472, 31.96110
967.7293, 32.41415
968.2114, 32.81470
968.6935, 33.13107
969.1757, 33.36333
969.6578, 33.48731
970.1399, 33.55895
970.6220, 33.52201
971.1041, 33.50658
971.5862, 33.66503
972.0684, 33.92445
972.5505, 34.08212
973.0326, 34.07084
973.5147, 34.14080
973.9968, 34.58239
974.4789, 35.01610
974.9611, 35.15157
975.4432, 35.05260
975.9253, 34.68969
976.4074, 34.18854
976.8895, 33.95358
977.3716, 34.21119
977.8538, 34.56288
978.3359, 34.52679
978.8180, 34.32973
979.3001, 34.47081
979.7822, 34.80997
980.2643, 34.78285
980.7465, 34.29965
981.2286, 33.83537
981.7107, 33.74648
982.1928, 33.83437
982.6749, 33.69414
983.1570, 33.38648
983.6392, 33.27627
984.1213, 33.37742
984.6034, 33.56252
985.0855, 33.79943
985.5676, 33.97738
986.0497, 34.00085
986.5319, 33.85797
987.0140, 33.41557
987.4961, 32.58855
987.9782, 32.20102
988.4603, 32.43441
988.9424, 32.60937
989.4246, 32.39954
989.9067, 32.06538
990.3888, 31.91170
990.8709, 31.93522
991.3530, 32.11448
991.8351, 32.72948
992.3173, 32.83060
992.7994, 31.90640
993.2815, 31.09271
993.7636, 31.08505
994.2457, 31.43743
994.7278, 31.47224
995.2100, 31.16651
995.6921, 30.91054
996.1742, 30.75431
996.6563, 30.58229
997.1384, 30.39418
997.6205, 30.16927
998.1027, 29.83473
998.5848, 29.47923
999.0669, 29.28248
999.5490, 29.28044
1000.031, 29.20166
1000.513, 29.01792
1000.995, 28.69676
1001.477, 28.05267
1001.960, 27.41649
1002.442, 27.14055
1002.924, 27.09040
1003.406, 26.94498
1003.888, 26.62305
1004.370, 26.16682
1004.852, 25.54885
1005.334, 24.85987
1005.817, 24.10825
1006.299, 23.35155
1006.781, 22.55100
1007.263, 21.80813
1007.745, 21.46531
1008.227, 21.68457
1008.709, 21.80353
1009.191, 21.06671
1009.673, 20.14886
1010.156, 19.83391
1010.638, 19.89932
1011.120, 19.93310
1011.602, 19.87289
1012.084, 19.85200
1012.566, 19.94760
1013.048, 19.98972
1013.530, 19.69901
1014.013, 19.26854
1014.495, 19.06504
1014.977, 19.04469
1015.459, 19.04035
1015.941, 19.02425
1016.423, 19.10315
1016.905, 19.35830
1017.387, 19.61388
1017.869, 19.56207
1018.352, 19.28973
1018.834, 19.12166
1019.316, 19.04673
1019.798, 18.87293
1020.280, 18.56349
1020.762, 18.45640
1021.244, 18.83257
1021.726, 19.40012
1022.208, 19.56162
1022.691, 19.34844
1023.173, 19.12518
1023.655, 18.89588
1024.137, 18.78565
1024.619, 18.84315
1025.101, 18.89695
1025.583, 18.81198
1026.065, 18.61863
1026.547, 18.36627
1027.030, 18.04055
1027.512, 17.89381
1027.994, 17.98648
1028.476, 17.92896
1028.958, 17.59686
1029.440, 17.08642
1029.922, 16.41788
1030.404, 15.70985
1030.887, 15.40096
1031.369, 15.62102
1031.851, 15.65921
1032.333, 15.49375
1032.815, 15.18041
1033.297, 14.60390
1033.779, 14.14052
1034.261, 14.20704
1034.744, 14.62022
1035.226, 14.68953
1035.708, 14.25301
1036.190, 13.95380
1036.672, 13.81229
1037.154, 13.77651
1037.636, 13.90791
1038.118, 14.04757
1038.600, 14.05180
1039.083, 13.94603
1039.565, 13.82057
1040.047, 13.58775
1040.529, 13.55674
1041.011, 13.99285
1041.493, 14.25703
1041.975, 13.97923
1042.457, 13.62265
1042.939, 13.66340
1043.422, 13.96516
1043.904, 14.00520
1044.386, 13.62755
1044.868, 13.35233
1045.350, 13.29228
1045.832, 13.21879
1046.314, 12.97494
1046.796, 12.76356
1047.279, 12.79000
1047.761, 12.99999
1048.243, 13.20036
1048.725, 13.39658
1049.207, 13.51772
1049.689, 13.53920
1050.171, 13.50269
1050.653, 13.32092
1051.135, 13.17373
1051.618, 13.31817
1052.100, 13.62268
1052.582, 13.65867
1053.064, 13.28647
1053.546, 12.93188
1054.028, 12.58731
1054.510, 12.39788
1054.992, 12.48049
1055.474, 12.69521
1055.957, 13.05294
1056.439, 13.41674
1056.921, 13.40392
1057.403, 12.83877
1057.885, 12.44109
1058.367, 12.50107
1058.849, 12.66109
1059.331, 12.84662
1059.814, 12.99071
1060.296, 13.03944
1060.778, 13.00218
1061.260, 12.88420
1061.742, 12.66414
1062.224, 12.54777
1062.706, 12.69931
1063.188, 12.85234
1063.671, 12.83399
1064.153, 12.80228
1064.635, 13.00704
1065.117, 13.29120
1065.599, 13.22939
1066.081, 12.70659
1066.563, 12.32251
1067.045, 12.41452
1067.527, 12.56853
1068.010, 12.58741
1068.492, 12.57621
1068.974, 12.67058
1069.456, 12.79888
1069.938, 12.76587
1070.420, 12.53600
1070.902, 12.40760
1071.384, 12.67779
1071.866, 12.85607
1072.349, 12.55951
1072.831, 12.20399
1073.313, 12.17667
1073.795, 12.34619
1074.277, 12.39964
1074.759, 12.29287
1075.241, 12.29251
1075.723, 12.66742
1076.206, 12.95181
1076.688, 12.90873
1077.170, 12.69656
1077.652, 12.29094
1078.134, 11.88102
1078.616, 11.80250
1079.098, 12.05492
1079.580, 12.22124
1080.062, 12.04466
1080.545, 11.92717
1081.027, 12.17289
1081.509, 12.43626
1081.991, 12.38636
1082.473, 12.22678
1082.955, 12.29371
1083.437, 12.58170
1083.919, 12.79766
1084.401, 12.82307
1084.884, 12.80835
1085.366, 12.83209
1085.848, 12.82872
1086.330, 12.73491
1086.812, 12.60100
1087.294, 12.46368
1087.776, 12.34650
1088.258, 12.30639
1088.740, 12.38237
1089.223, 12.44625
1089.705, 12.42665
1090.187, 12.40085
1090.669, 12.43978
1091.151, 12.47596
1091.633, 12.41629
1092.115, 12.29280
1092.597, 12.20738
1093.080, 12.18463
1093.562, 12.19650
1094.044, 12.31043
1094.526, 12.35801
1095.008, 12.15537
1095.490, 11.94215
1095.972, 11.97194
1096.454, 12.14413
1096.937, 12.19363
1097.419, 12.06630
1097.901, 12.07072
1098.383, 12.54052
1098.865, 12.83309
1099.347, 12.55484
1099.829, 12.18791
1100.311, 12.02686
1100.793, 12.04068
1101.276, 12.19378
1101.758, 12.46289
1102.240, 12.63312
1102.722, 12.54467
1103.204, 12.51243
1103.686, 12.73222
1104.168, 12.89007
1104.650, 12.67938
1105.132, 12.39576
1105.615, 12.46301
1106.097, 12.82949
1106.579, 13.03048
1107.061, 12.91556
1107.543, 12.80381
1108.025, 12.65983
1108.507, 12.63405
1108.989, 12.98213
1109.472, 13.31162
1109.954, 13.13400
1110.436, 12.63516
1110.918, 12.49636
1111.400, 12.95680
1111.882, 13.12082
1112.364, 12.57334
1112.846, 12.20934
1113.328, 12.38688
1113.811, 12.66729
1114.293, 12.78807
1114.775, 12.78541
1115.257, 12.70012
1115.739, 12.49845
1116.221, 12.47749
1116.703, 12.83066
1117.185, 13.03463
1117.667, 12.93312
1118.150, 12.80497
1118.632, 12.78126
1119.114, 12.81472
1119.596, 12.84105
1120.078, 12.86246
1120.560, 12.92482
1121.042, 13.07492
1121.524, 13.14929
1122.007, 13.12248
1122.489, 13.05029
1122.971, 12.91198
1123.453, 12.80845
1123.935, 12.85637
1124.417, 13.01101
1124.899, 13.10975
1125.381, 13.15454
1125.864, 13.12615
1126.346, 13.00101
1126.828, 12.88491
1127.310, 12.79180
1127.792, 12.76495
1128.274, 12.85571
1128.756, 12.99006
1129.238, 13.02096
1129.720, 12.95051
1130.203, 12.84949
1130.685, 12.71264
1131.167, 12.59284
1131.649, 12.48832
1132.131, 12.53477
1132.613, 12.82523
1133.095, 13.13752
1133.577, 13.17202
1134.059, 13.01317
1134.542, 12.99806
1135.024, 13.10980
1135.506, 13.13723
1135.988, 13.06638
1136.470, 12.97844
1136.952, 12.90102
1137.434, 12.81020
1137.916, 12.67462
1138.399, 12.56009
1138.881, 12.63467
1139.363, 12.82585
1139.845, 12.91091
1140.327, 12.88172
1140.809, 12.69578
1141.291, 12.37795
1141.773, 12.11318
1142.255, 11.99842
1142.738, 12.03049
1143.220, 12.27673
1143.702, 12.61417
1144.184, 12.88807
1144.666, 13.06723
1145.148, 12.99710
1145.630, 12.77386
1146.112, 12.78956
1146.594, 13.13849
1147.077, 13.36626
1147.559, 13.07267
1148.041, 12.66027
1148.523, 12.45514
1149.005, 12.40462
1149.487, 12.57152
1149.969, 12.78745
1150.451, 12.70044
1150.934, 12.33878
1151.416, 12.11005
1151.898, 12.20303
1152.380, 12.37214
1152.862, 12.58295
1153.344, 12.69914
1153.826, 12.59823
1154.308, 12.37808
1154.791, 12.02972
1155.273, 11.68330
1155.755, 11.63908
1156.237, 11.96963
1156.719, 12.27439
1157.201, 12.45253
1157.683, 12.56761
1158.165, 12.68107
1158.647, 12.69150
1159.130, 12.40218
1159.612, 12.05635
1160.094, 11.99896
1160.576, 12.21591
1161.058, 12.43438
1161.540, 12.78260
1162.022, 12.85208
1162.504, 12.33991
1162.986, 12.00860
1163.469, 12.19153
1163.951, 12.46833
1164.433, 12.51146
1164.915, 12.42061
1165.397, 12.44920
1165.879, 12.31322
1166.361, 12.54615
1166.843, 12.08108
1167.325, 11.79137
1167.808, 11.77458
1168.290, 11.88421
1168.772, 12.06762
1169.254, 12.29949
1169.736, 12.59212
1170.218, 12.85782
1170.700, 12.67009
1171.182, 12.04503
1171.665, 11.62401
1172.147, 11.44085
1172.629, 11.50386
1173.111, 11.81156
1173.593, 12.10529
1174.075, 12.20354
1174.557, 12.40929
1175.039, 12.36970
1175.521, 12.56835
1176.004, 12.61194
1176.486, 12.52205
1176.968, 12.31048
1177.450, 12.02624
1177.932, 11.83679
1178.414, 11.80290
1178.896, 11.87197
1179.378, 12.02318
1179.860, 12.21584
1180.343, 12.44910
1180.825, 12.66187
1181.307, 12.80452
1181.789, 12.85457
1182.271, 12.71263
1182.753, 12.43885
1183.235, 12.29085
1183.717, 12.37405
1184.200, 12.53914
1184.682, 12.90328
1185.164, 13.08338
1185.646, 12.64742
1186.128, 12.13522
1186.610, 12.03658
1187.092, 12.20646
1187.574, 12.34785
1188.057, 12.42305
1188.539, 12.43981
1189.021, 12.19673
1189.503, 12.21716
1189.985, 12.92293
1190.467, 13.41960
1190.949, 13.21126
1191.431, 12.86328
1191.913, 12.89306
1192.396, 13.13735
1192.878, 13.12886
1193.360, 12.80236
1193.842, 12.79331
1194.324, 13.26765
1194.806, 13.39970
1195.288, 12.97174
1195.770, 12.56708
1196.252, 12.46355
1196.735, 12.56063
1197.217, 12.79165
1197.699, 13.04253
1198.181, 12.82126
1198.663, 12.22132
1199.145, 12.18283
1199.627, 12.66356
1200.109, 12.93421
1200.592, 12.83691
1201.074, 12.64419
1201.556, 12.50947
1202.038, 12.48402
1202.520, 12.75496
1203.002, 13.06311
1203.484, 12.87841
1203.966, 12.48065
1204.448, 12.42017
1204.931, 12.58940
1205.413, 12.53895
1205.895, 12.20282
1206.377, 11.94864
1206.859, 11.96368
1207.341, 12.10554
1207.823, 12.42841
1208.305, 12.68485
1208.787, 12.62463
1209.270, 12.47222
1209.752, 12.48507
1210.234, 12.60344
1210.716, 12.63991
1211.198, 12.56504
1211.680, 12.45401
1212.162, 12.13044
1212.644, 12.06213
1213.127, 12.68626
1213.609, 13.07356
1214.091, 12.67674
1214.573, 12.13808
1215.055, 12.10703
1215.537, 11.94368
1216.019, 11.91905
1216.501, 12.12574
1216.984, 12.12541
1217.466, 12.49829
1217.948, 12.65369
1218.430, 12.46586
1218.912, 12.31161
1219.394, 12.37619
1219.876, 12.50731
1220.358, 12.54196
1220.840, 12.50949
1221.323, 12.43176
1221.805, 12.35511
1222.287, 12.56103
1222.769, 12.90412
1223.251, 12.73934
1223.733, 12.07410
1224.215, 11.59701
1224.697, 11.63204
1225.179, 11.87823
1225.662, 12.21725
1226.144, 12.49873
1226.626, 12.56203
1227.108, 12.51342
1227.590, 12.42890
1228.072, 12.33527
1228.554, 12.23810
1229.036, 12.15261
1229.519, 12.14780
1230.001, 12.29710
1230.483, 12.34374
1230.965, 12.23438
1231.447, 12.00595
1231.929, 11.51600
1232.411, 11.07750
1232.893, 10.79291
1233.375, 10.74971
1233.858, 11.16706
1234.340, 11.96529
1234.822, 12.43058
1235.304, 12.53004
1235.786, 12.41437
1236.268, 12.03559
1236.750, 11.74837
1237.232, 11.63423
1237.714, 11.77034
1238.197, 12.24712
1238.679, 12.67193
1239.161, 12.41787
1239.643, 11.77349
1240.125, 11.43562
1240.607, 11.38257
1241.089, 11.68948
1241.571, 12.19839
1242.054, 12.41061
1242.536, 12.24847
1243.018, 12.01327
1243.500, 11.83974
1243.982, 11.79434
1244.464, 12.09391
1244.946, 12.34278
1245.428, 12.10829
1245.910, 11.79569
1246.393, 11.88430
1246.875, 12.15307
1247.357, 12.11663
1247.839, 12.21160
1248.321, 12.31895
1248.803, 12.13786
1249.285, 12.33280
1249.767, 12.06674
1250.250, 11.76449
1250.732, 11.44525
1251.214, 11.24794
1251.696, 11.28581
1252.178, 11.45006
1252.660, 11.59987
1253.142, 11.71973
1253.624, 11.71462
1254.106, 11.58627
1254.589, 11.39149
1255.071, 11.14594
1255.553, 11.03729
1256.035, 11.10156
1256.517, 11.21394
1256.999, 11.30558
1257.481, 11.31459
1257.963, 11.06310
1258.445, 10.82026
1258.928, 11.09026
1259.410, 11.49555
1259.892, 11.47825
1260.374, 11.20257
1260.856, 10.99471
1261.338, 10.92943
1261.820, 11.04483
1262.302, 11.42279
1262.785, 11.60835
1263.267, 11.19642
1263.749, 10.94595
1264.231, 11.27252
1264.713, 11.62542
1265.195, 11.75650
1265.677, 11.67909
1266.159, 11.32680
1266.641, 10.80527
1267.124, 10.53308
1267.606, 10.52277
1268.088, 10.71457
1268.570, 11.13933
1269.052, 11.42441
1269.534, 11.50547
1270.016, 11.49338
1270.498, 11.43766
1270.980, 11.32628
1271.463, 11.13272
1271.945, 10.92563
1272.427, 10.80740
1272.909, 10.75473
1273.391, 10.70218
1273.873, 10.69676
1274.355, 10.89052
1274.837, 11.20791
1275.320, 11.39995
1275.802, 11.40283
1276.284, 11.34511
1276.766, 11.25020
1277.248, 11.15478
1277.730, 11.04774
1278.212, 10.97152
1278.694, 11.04003
1279.177, 11.05015
1279.659, 10.71591
1280.141, 10.82353
1280.623, 10.80648
1281.105, 10.74518
1281.587, 10.94423
1282.069, 10.87165
1282.551, 10.91575
1283.033, 11.11370
1283.516, 11.15883
1283.998, 10.96944
1284.480, 10.73602
1284.962, 10.57091
1285.444, 10.54503
1285.926, 10.73084
1286.408, 11.12983
##END=



