##NAMES=Andradite
##RRUFFID=R060449
##IDEAL CHEMISTRY=Ca_3_Fe^3+^_2_(SiO_4_)_3_
##LOCALITY=Namibia
##OWNER=RRUFF
##SOURCE=Gemological Institute of America
##DESCRIPTION=Blue fragment, variety demantoid
##STATUS=The identification of this mineral has been confirmed by X-ray diffraction and chemical analysis
##URL=rruff.info/R060449
##MEASURED CHEMISTRY=Ca_3.00_(Fe^3+^_1.93_Al_0.07_)_Î£=2_(Si_1.00_O_4_)_3__
92.10938, 4.425258
92.59149, 4.404459
93.07361, 4.352921
93.55573, 4.281257
94.03784, 4.331622
94.51996, 4.924075
95.00208, 5.816091
95.48419, 6.134146
95.96631, 5.262990
96.44843, 3.693263
96.93054, 2.844905
97.41266, 2.785036
97.89478, 3.127393
98.37689, 3.555364
98.85901, 4.065174
99.34113, 4.393214
99.82324, 4.375114
100.3054, 4.011333
100.7875, 3.653416
101.2696, 3.239213
101.7517, 2.911785
102.2338, 3.027583
102.7159, 3.775314
103.1981, 4.424021
103.6802, 4.571496
104.1623, 4.008840
104.6444, 3.617995
105.1265, 3.416133
105.6086, 3.404413
106.0908, 3.633423
106.5729, 4.407030
107.0550, 5.061789
107.5371, 5.161351
108.0192, 3.910712
108.5013, 3.305348
108.9835, 3.829436
109.4656, 5.434222
109.9477, 6.476671
110.4298, 6.612590
110.9119, 6.375468
111.3940, 6.133889
111.8762, 5.586043
112.3583, 5.348938
112.8404, 5.688839
113.3225, 6.689003
113.8046, 7.414551
114.2867, 7.486654
114.7689, 7.302299
115.2510, 7.294752
115.7331, 7.523570
116.2152, 7.975027
116.6973, 8.826896
117.1794, 10.29678
117.6616, 11.26415
118.1437, 10.81696
118.6258, 9.644642
119.1079, 8.904170
119.5900, 9.519869
120.0721, 10.43210
120.5543, 10.85251
121.0364, 10.39817
121.5185, 10.08540
122.0006, 10.75579
122.4827, 12.11828
122.9648, 13.34926
123.4470, 14.05250
123.9291, 14.33503
124.4112, 14.21541
124.8933, 13.37960
125.3754, 12.62056
125.8575, 12.86985
126.3397, 14.00639
126.8218, 15.29103
127.3039, 16.17615
127.7860, 16.80918
128.2681, 17.49020
128.7502, 18.37886
129.2324, 19.30877
129.7145, 19.94821
130.1966, 20.30006
130.6787, 20.58044
131.1608, 20.94393
131.6429, 21.39214
132.1251, 21.97353
132.6072, 22.96589
133.0893, 24.09102
133.5714, 24.16382
134.0535, 22.97891
134.5356, 21.68520
135.0178, 21.93546
135.4999, 23.76810
135.9820, 25.43388
136.4641, 26.19185
136.9462, 26.07041
137.4283, 26.05989
137.9105, 26.17191
138.3926, 26.37388
138.8747, 26.65927
139.3568, 27.08064
139.8389, 27.37893
140.3210, 27.35968
140.8032, 26.90844
141.2853, 26.75226
141.7674, 26.94665
142.2495, 27.41025
142.7316, 27.87745
143.2137, 28.09052
143.6959, 28.47443
144.1780, 29.51610
144.6601, 31.78495
145.1422, 33.30648
145.6243, 33.94183
146.1064, 33.83067
146.5886, 33.41110
147.0707, 32.26373
147.5528, 31.28333
148.0349, 30.97783
148.5170, 31.73878
148.9991, 32.51729
149.4813, 33.17774
149.9634, 33.76054
150.4455, 34.59918
150.9276, 35.97734
151.4097, 37.41958
151.8918, 38.60159
152.3740, 38.36687
152.8561, 39.18287
153.3382, 41.32725
153.8203, 44.76220
154.3024, 48.99797
154.7845, 54.85469
155.2667, 60.99208
155.7488, 66.49713
156.2309, 71.55017
156.7130, 75.55867
157.1951, 78.02983
157.6772, 78.88893
158.1594, 79.93235
158.6415, 81.26820
159.1236, 83.05007
159.6057, 85.43872
160.0878, 88.87305
160.5699, 92.50880
161.0521, 96.03410
161.5342, 99.36977
162.0163, 102.9635
162.4984, 106.7978
162.9805, 111.0176
163.4626, 115.8074
163.9448, 121.3556
164.4269, 127.3851
164.9090, 133.5989
165.3911, 139.8020
165.8732, 147.1111
166.3553, 156.1451
166.8375, 166.6345
167.3196, 178.1393
167.8017, 187.7958
168.2838, 200.0092
168.7659, 217.2809
169.2480, 239.2432
169.7302, 268.7586
170.2123, 306.9340
170.6944, 354.1860
171.1765, 410.6333
171.6586, 477.7188
172.1407, 553.6146
172.6229, 646.6630
173.1050, 771.6158
173.5871, 874.1623
174.0692, 911.0223
174.5513, 887.6793
175.0334, 818.3395
175.5156, 673.5129
175.9977, 497.3938
176.4798, 356.0430
176.9619, 260.6078
177.4440, 195.0260
177.9261, 149.3027
178.4083, 121.0984
178.8904, 101.5874
179.3725, 88.15080
179.8546, 79.07182
180.3367, 71.50075
180.8188, 65.04787
181.3010, 59.66390
181.7831, 55.51875
182.2652, 52.57174
182.7473, 50.22030
183.2294, 48.24595
183.7115, 46.56098
184.1937, 44.97108
184.6758, 43.36512
185.1579, 41.89835
185.6400, 40.86087
186.1221, 40.24644
186.6042, 39.69378
187.0864, 38.90924
187.5685, 37.93980
188.0506, 37.00433
188.5327, 36.06755
189.0148, 35.25353
189.4969, 34.94739
189.9791, 35.17748
190.4612, 35.33154
190.9433, 34.63230
191.4254, 33.23043
191.9075, 32.43382
192.3896, 32.82619
192.8718, 33.87414
193.3539, 33.91146
193.8360, 32.83334
194.3181, 31.57950
194.8002, 30.98165
195.2823, 31.02253
195.7645, 31.22231
196.2466, 31.51114
196.7287, 31.86652
197.2108, 32.25435
197.6929, 32.71286
198.1750, 33.02660
198.6572, 32.92518
199.1393, 32.38918
199.6214, 31.85697
200.1035, 31.40874
200.5856, 31.04638
201.0677, 30.77998
201.5499, 30.59381
202.0320, 30.54500
202.5141, 30.70590
202.9962, 31.09004
203.4783, 31.60469
203.9604, 32.36954
204.4426, 33.29682
204.9247, 33.52977
205.4068, 32.87901
205.8889, 32.00620
206.3710, 31.55638
206.8531, 31.58399
207.3353, 31.74856
207.8174, 31.94912
208.2995, 32.20106
208.7816, 32.75785
209.2637, 33.69682
209.7458, 34.77648
210.2280, 35.75267
210.7101, 36.60205
211.1922, 37.43077
211.6743, 38.25105
212.1564, 39.05770
212.6385, 39.90804
213.1207, 40.76096
213.6028, 41.70685
214.0849, 42.77091
214.5670, 43.81290
215.0491, 45.36321
215.5313, 47.54560
216.0134, 50.37154
216.4955, 53.60475
216.9776, 57.17827
217.4597, 61.28402
217.9418, 66.37045
218.4239, 72.90379
218.9061, 79.08501
219.3882, 84.61847
219.8703, 89.45978
220.3524, 93.49769
220.8345, 96.23363
221.3166, 98.72706
221.7988, 102.0879
222.2809, 106.5173
222.7630, 111.2600
223.2451, 115.9899
223.7272, 120.7360
224.2093, 126.3788
224.6915, 132.8275
225.1736, 140.3860
225.6557, 149.0784
226.1378, 158.7914
226.6199, 170.1957
227.1020, 183.4811
227.5842, 198.7684
228.0663, 215.2256
228.5484, 233.7934
229.0305, 252.7356
229.5126, 270.3988
229.9947, 285.9775
230.4769, 301.6626
230.9590, 316.6877
231.4411, 331.0112
231.9232, 351.2712
232.4053, 375.9589
232.8874, 408.4866
233.3696, 451.7821
233.8517, 505.9200
234.3338, 571.4888
234.8159, 654.5736
235.2980, 755.1859
235.7801, 841.1215
236.2623, 933.8581
236.7444, 988.8168
237.2265, 963.1300
237.7086, 816.4229
238.1907, 666.3888
238.6728, 521.7841
239.1550, 383.9694
239.6371, 278.1812
240.1192, 212.7698
240.6013, 169.8621
241.0834, 137.5011
241.5655, 119.6276
242.0477, 105.1599
242.5298, 93.12887
243.0119, 83.49055
243.4940, 75.93491
243.9761, 71.14117
244.4582, 67.62608
244.9404, 64.31221
245.4225, 60.79758
245.9046, 58.31545
246.3867, 57.19358
246.8688, 57.26931
247.3509, 57.46924
247.8331, 57.95267
248.3152, 58.35679
248.7973, 58.44683
249.2794, 58.14574
249.7615, 57.66172
250.2436, 56.84211
250.7258, 55.83365
251.2079, 55.38098
251.6900, 55.72277
252.1721, 56.28106
252.6542, 56.69642
253.1363, 56.76868
253.6185, 57.16830
254.1006, 57.98841
254.5827, 59.15430
255.0648, 60.40151
255.5469, 61.70943
256.0291, 63.10950
256.5112, 64.56829
256.9933, 65.92869
257.4754, 67.77051
257.9575, 70.11996
258.4396, 72.96767
258.9218, 76.05542
259.4039, 78.89343
259.8860, 82.91454
260.3681, 88.73494
260.8502, 96.33930
261.3323, 105.9724
261.8145, 117.8248
262.2966, 131.5392
262.7787, 146.7587
263.2608, 164.1549
263.7429, 181.7624
264.2250, 201.1052
264.7072, 225.7815
265.1893, 236.3801
265.6714, 230.3587
266.1535, 212.2236
266.6356, 188.0760
267.1177, 154.0910
267.5999, 123.6215
268.0820, 101.9441
268.5641, 89.72143
269.0462, 80.30219
269.5283, 74.11986
270.0104, 70.07889
270.4926, 66.50554
270.9747, 63.31322
271.4568, 60.79182
271.9389, 59.13311
272.4210, 58.34343
272.9031, 57.66553
273.3853, 57.00488
273.8674, 56.62465
274.3495, 57.02397
274.8316, 58.39261
275.3137, 59.54632
275.7958, 60.12503
276.2780, 60.16642
276.7601, 60.14629
277.2422, 59.94762
277.7243, 59.98274
278.2064, 60.72380
278.6885, 62.22020
279.1707, 64.02596
279.6528, 66.22240
280.1349, 68.64487
280.6170, 70.28545
281.0991, 70.96927
281.5812, 71.58478
282.0634, 73.01388
282.5455, 75.30010
283.0276, 77.35368
283.5097, 78.89082
283.9918, 80.10876
284.4739, 81.64818
284.9561, 83.54347
285.4382, 85.50935
285.9203, 87.16365
286.4024, 88.54230
286.8845, 90.52038
287.3666, 93.22673
287.8488, 96.55051
288.3309, 100.3063
288.8130, 104.4966
289.2951, 108.9676
289.7772, 113.5396
290.2593, 118.2427
290.7415, 123.3105
291.2236, 128.4364
291.7057, 134.5758
292.1878, 143.6303
292.6699, 155.4355
293.1520, 168.0301
293.6342, 180.4857
294.1163, 192.8794
294.5984, 205.3592
295.0805, 218.3092
295.5626, 230.1981
296.0447, 240.2717
296.5269, 248.1653
297.0090, 252.0984
297.4911, 250.0407
297.9732, 243.5615
298.4553, 235.4043
298.9374, 225.5017
299.4196, 215.5777
299.9017, 206.7221
300.3838, 199.2321
300.8659, 194.0542
301.3480, 192.0033
301.8301, 192.3137
302.3123, 193.7814
302.7944, 196.4388
303.2765, 200.8754
303.7586, 207.4714
304.2407, 216.1945
304.7228, 227.0617
305.2050, 239.2202
305.6871, 254.3516
306.1692, 273.5590
306.6513, 297.0496
307.1334, 324.6244
307.6155, 356.3141
308.0977, 392.2676
308.5798, 432.5619
309.0619, 477.3835
309.5440, 527.0963
310.0261, 586.0098
310.5082, 650.9982
310.9904, 712.3053
311.4725, 780.5995
311.9546, 834.9348
312.4367, 856.9305
312.9188, 842.1823
313.4009, 800.0124
313.8831, 719.1129
314.3652, 615.9562
314.8473, 520.5033
315.3294, 439.6560
315.8115, 373.6689
316.2936, 324.1745
316.7758, 292.4542
317.2579, 269.2120
317.7400, 251.7432
318.2221, 239.9066
318.7042, 233.0865
319.1863, 233.1424
319.6685, 236.3605
320.1506, 241.0996
320.6327, 247.2655
321.1148, 256.5531
321.5969, 270.6774
322.0790, 287.4425
322.5612, 305.3414
323.0433, 324.8719
323.5254, 344.4767
324.0075, 367.2511
324.4896, 391.7580
324.9717, 406.5733
325.4539, 409.9559
325.9360, 403.2786
326.4181, 387.1418
326.9002, 351.1470
327.3823, 318.9498
327.8644, 290.8293
328.3466, 267.3539
328.8287, 250.3045
329.3108, 242.3918
329.7929, 238.4995
330.2750, 236.9411
330.7571, 237.2847
331.2393, 240.8239
331.7214, 247.7885
332.2035, 257.9109
332.6856, 270.5692
333.1677, 285.5607
333.6498, 303.5042
334.1320, 325.2009
334.6141, 350.6650
335.0962, 376.7220
335.5783, 404.0361
336.0604, 431.2487
336.5425, 457.1477
337.0247, 481.1930
337.5068, 505.3388
337.9889, 529.6553
338.4710, 554.3385
338.9531, 581.7175
339.4352, 611.8937
339.9173, 645.0097
340.3994, 680.5433
340.8816, 718.5907
341.3637, 760.1486
341.8458, 805.3414
342.3279, 854.4025
342.8100, 909.8216
343.2921, 970.7441
343.7743, 1040.596
344.2564, 1118.917
344.7385, 1206.662
345.2206, 1307.773
345.7027, 1422.448
346.1848, 1553.351
346.6670, 1702.170
347.1491, 1869.437
347.6312, 2062.571
348.1133, 2292.092
348.5954, 2551.441
349.0775, 2824.775
349.5597, 3115.483
350.0418, 3410.816
350.5239, 3720.540
351.0060, 4028.876
351.4881, 4276.540
351.9702, 4470.124
352.4524, 4572.600
352.9345, 4505.813
353.4166, 4278.845
353.8987, 3971.225
354.3808, 3590.750
354.8629, 3181.993
355.3451, 2817.770
355.8272, 2510.894
356.3093, 2256.954
356.7914, 2058.902
357.2735, 1910.539
357.7556, 1800.258
358.2378, 1733.169
358.7199, 1695.341
359.2020, 1677.099
359.6841, 1677.917
360.1662, 1694.563
360.6483, 1725.442
361.1305, 1770.932
361.6126, 1831.569
362.0947, 1903.534
362.5768, 1994.187
363.0589, 2105.205
363.5410, 2236.828
364.0232, 2395.381
364.5053, 2580.805
364.9874, 2795.133
365.4695, 3039.951
365.9516, 3320.993
366.4337, 3626.840
366.9159, 3968.893
367.3980, 4338.887
367.8801, 4705.469
368.3622, 5093.576
368.8443, 5450.384
369.3264, 5758.691
369.8086, 6059.353
370.2907, 6234.993
370.7728, 6282.365
371.2549, 6206.597
371.7370, 6010.269
372.2191, 5644.429
372.7013, 5221.885
373.1834, 4759.029
373.6655, 4245.464
374.1476, 3768.742
374.6297, 3334.295
375.1118, 2943.180
375.5940, 2600.431
376.0761, 2312.749
376.5582, 2062.709
377.0403, 1849.499
377.5224, 1672.491
378.0045, 1521.728
378.4867, 1401.935
378.9688, 1300.896
379.4509, 1212.984
379.9330, 1138.971
380.4151, 1074.818
380.8972, 1021.612
381.3794, 976.5441
381.8615, 939.2928
382.3436, 909.1113
382.8257, 875.9919
383.3078, 834.6329
383.7899, 786.4423
384.2721, 732.8316
384.7542, 673.5131
385.2363, 614.8484
385.7184, 561.1544
386.2005, 513.0643
386.6826, 469.1187
387.1648, 428.7290
387.6469, 393.2984
388.1290, 365.1945
388.6111, 343.9086
389.0932, 325.8095
389.5753, 309.1559
390.0575, 293.9639
390.5396, 279.9403
391.0217, 266.8423
391.5038, 255.0798
391.9859, 245.0915
392.4680, 236.6256
392.9502, 229.0835
393.4323, 223.0402
393.9144, 217.2631
394.3965, 210.9846
394.8786, 204.0891
395.3607, 197.5854
395.8429, 192.0305
396.3250, 186.8733
396.8071, 181.5992
397.2892, 175.4317
397.7713, 169.8328
398.2534, 165.4082
398.7356, 161.9325
399.2177, 158.4043
399.6998, 154.5616
400.1819, 150.7828
400.6640, 147.1904
401.1461, 143.6242
401.6283, 140.5829
402.1104, 138.1603
402.5925, 136.2249
403.0746, 134.6068
403.5567, 133.6505
404.0388, 132.3743
404.5210, 130.4142
405.0031, 127.7681
405.4852, 125.3970
405.9673, 123.2880
406.4494, 121.4645
406.9315, 120.1538
407.4137, 119.5028
407.8958, 118.0452
408.3779, 115.2135
408.8600, 111.8106
409.3421, 110.1556
409.8242, 110.3816
410.3064, 110.3751
410.7885, 108.5125
411.2706, 105.2793
411.7527, 103.1314
412.2348, 102.2341
412.7169, 101.9220
413.1991, 101.7453
413.6812, 101.5753
414.1633, 100.9762
414.6454, 99.55141
415.1275, 97.79771
415.6096, 96.40352
416.0918, 95.32991
416.5739, 94.20488
417.0560, 92.54171
417.5381, 90.78268
418.0202, 89.51427
418.5023, 89.05647
418.9845, 88.57570
419.4666, 87.28448
419.9487, 85.62108
420.4308, 84.43951
420.9129, 84.66412
421.3951, 84.94447
421.8772, 84.53627
422.3593, 83.34719
422.8414, 82.21767
423.3235, 81.25082
423.8056, 80.50688
424.2878, 80.04613
424.7699, 80.22742
425.2520, 80.28563
425.7341, 80.12040
426.2162, 79.76559
426.6983, 79.30752
427.1805, 78.44330
427.6626, 77.83430
428.1447, 77.84672
428.6268, 78.81275
429.1089, 79.13002
429.5910, 78.48066
430.0732, 77.51797
430.5553, 77.07837
431.0374, 77.29502
431.5195, 77.48528
432.0016, 77.40480
432.4837, 77.18587
432.9659, 77.57859
433.4480, 78.68623
433.9301, 79.75545
434.4122, 79.84770
434.8943, 79.22242
435.3764, 79.97672
435.8586, 82.59987
436.3407, 85.74226
436.8228, 87.46278
437.3049, 88.03899
437.7870, 88.62257
438.2691, 89.80669
438.7513, 91.27871
439.2334, 92.54266
439.7155, 93.61876
440.1976, 94.84711
440.6797, 96.50233
441.1618, 98.44077
441.6440, 100.4955
442.1261, 102.5835
442.6082, 104.8165
443.0903, 107.0613
443.5724, 109.4960
444.0545, 112.5052
444.5367, 116.2123
445.0188, 120.5437
445.5009, 125.4794
445.9830, 130.9547
446.4651, 137.1880
446.9472, 144.6973
447.4294, 152.7524
447.9115, 160.6454
448.3936, 167.7206
448.8757, 175.4871
449.3578, 184.4892
449.8399, 194.1986
450.3221, 203.5471
450.8042, 213.2534
451.2863, 221.5027
451.7684, 228.1422
452.2505, 233.6688
452.7326, 234.3086
453.2148, 229.6043
453.6969, 220.8088
454.1790, 208.8128
454.6611, 193.3453
455.1432, 177.6587
455.6253, 162.1654
456.1075, 147.3230
456.5896, 134.7640
457.0717, 124.3712
457.5538, 115.7406
458.0359, 108.9237
458.5180, 103.6250
459.0002, 99.08232
459.4823, 95.26501
459.9644, 92.25680
460.4465, 90.70505
460.9286, 90.00781
461.4107, 89.04764
461.8929, 86.96991
462.3750, 84.83270
462.8571, 83.43223
463.3392, 82.66176
463.8213, 82.08971
464.3034, 81.60186
464.7856, 81.17119
465.2677, 80.79215
465.7498, 80.49754
466.2319, 80.16066
466.7140, 79.35649
467.1961, 78.61993
467.6783, 78.63078
468.1604, 80.17286
468.6425, 81.70000
469.1246, 82.85580
469.6067, 83.69456
470.0888, 84.89870
470.5710, 86.68069
471.0531, 88.53638
471.5352, 90.14372
472.0173, 91.36943
472.4994, 92.86378
472.9815, 94.59904
473.4637, 96.66891
473.9458, 99.16485
474.4279, 102.0928
474.9100, 105.5023
475.3921, 109.4652
475.8742, 113.8984
476.3564, 118.5460
476.8385, 123.4097
477.3206, 128.5964
477.8027, 134.3564
478.2848, 140.4322
478.7669, 146.0371
479.2491, 150.8613
479.7312, 156.1212
480.2133, 163.0687
480.6954, 171.2699
481.1775, 179.9537
481.6596, 188.9465
482.1418, 198.0702
482.6239, 206.7800
483.1060, 215.3168
483.5881, 224.9996
484.0702, 235.7357
484.5523, 248.2889
485.0345, 263.2496
485.5166, 280.9245
485.9987, 300.2181
486.4808, 319.9207
486.9629, 341.3989
487.4450, 366.3889
487.9272, 396.5513
488.4093, 427.9066
488.8914, 459.7622
489.3735, 492.5760
489.8556, 527.6913
490.3377, 566.5743
490.8199, 605.5806
491.3020, 644.3453
491.7841, 683.9325
492.2662, 712.8573
492.7483, 730.8242
493.2304, 737.2860
493.7126, 729.7592
494.1947, 709.0291
494.6768, 680.0616
495.1589, 641.8987
495.6410, 598.9484
496.1231, 558.3284
496.6053, 519.7040
497.0874, 484.7607
497.5695, 452.5381
498.0516, 424.7344
498.5337, 402.9012
499.0158, 387.5333
499.4980, 377.2520
499.9801, 372.6918
500.4622, 372.1241
500.9443, 373.4330
501.4264, 375.4548
501.9085, 379.7948
502.3907, 387.5941
502.8728, 398.3013
503.3549, 409.6557
503.8370, 418.9452
504.3191, 431.2551
504.8012, 448.3647
505.2834, 470.6488
505.7655, 495.9443
506.2476, 523.4063
506.7297, 554.6800
507.2118, 591.4308
507.6939, 633.1570
508.1761, 681.5457
508.6582, 736.2264
509.1403, 798.2933
509.6224, 870.7352
510.1045, 953.6055
510.5866, 1044.378
511.0688, 1141.287
511.5509, 1248.346
512.0330, 1359.636
512.5151, 1485.499
512.9973, 1615.771
513.4794, 1755.211
513.9615, 1893.832
514.4436, 2018.949
514.9257, 2134.396
515.4078, 2219.578
515.8900, 2264.791
516.3721, 2267.196
516.8542, 2222.481
517.3363, 2109.473
517.8184, 1967.338
518.3005, 1802.214
518.7827, 1615.672
519.2648, 1439.195
519.7469, 1273.401
520.2290, 1122.896
520.7111, 989.0328
521.1932, 873.2263
521.6754, 773.8067
522.1575, 692.7988
522.6396, 625.6486
523.1217, 566.4518
523.6038, 515.5420
524.0859, 471.3966
524.5681, 434.8058
525.0502, 404.7015
525.5323, 376.7455
526.0144, 350.7758
526.4965, 328.2758
526.9786, 310.9935
527.4608, 297.6453
527.9429, 284.7735
528.4250, 272.0293
528.9071, 260.1801
529.3892, 250.0992
529.8713, 241.2828
530.3535, 233.1567
530.8356, 225.6552
531.3177, 218.4829
531.7998, 210.9760
532.2819, 203.6197
532.7640, 197.9055
533.2462, 195.3294
533.7283, 193.4545
534.2104, 191.3932
534.6925, 189.1115
535.1746, 186.5418
535.6567, 182.9429
536.1389, 179.6426
536.6210, 177.5699
537.1031, 177.3724
537.5852, 176.8266
538.0673, 175.6413
538.5494, 174.3169
539.0316, 173.8459
539.5137, 174.4120
539.9958, 174.4906
540.4779, 173.3303
540.9600, 171.5293
541.4421, 170.9852
541.9243, 171.6571
542.4064, 172.6227
542.8885, 173.2179
543.3706, 173.6852
543.8527, 174.3519
544.3348, 175.2156
544.8170, 176.6508
545.2991, 179.3764
545.7812, 182.6841
546.2633, 185.6759
546.7454, 187.2451
547.2275, 189.5479
547.7097, 194.0665
548.1918, 199.9896
548.6739, 205.3448
549.1560, 208.6415
549.6381, 212.4518
550.1202, 217.8217
550.6024, 224.8106
551.0845, 231.3288
551.5666, 238.0591
552.0487, 243.4196
552.5308, 246.3413
553.0129, 246.7142
553.4951, 245.4447
553.9772, 242.6735
554.4593, 238.0393
554.9414, 230.5415
555.4235, 220.3645
555.9056, 209.5412
556.3878, 198.4573
556.8699, 187.4276
557.3520, 176.7341
557.8341, 166.5646
558.3162, 157.9591
558.7983, 151.9822
559.2805, 147.5727
559.7626, 143.9101
560.2447, 140.9568
560.7268, 138.3645
561.2089, 135.5028
561.6910, 133.1790
562.1732, 132.1139
562.6553, 133.6566
563.1374, 134.5664
563.6195, 133.5863
564.1016, 132.0167
564.5837, 131.7783
565.0659, 133.2691
565.5480, 135.3923
566.0301, 138.1009
566.5122, 141.2534
566.9943, 143.8624
567.4764, 145.6411
567.9586, 148.1533
568.4407, 152.5984
568.9228, 158.6305
569.4049, 164.3767
569.8870, 169.7043
570.3691, 175.3187
570.8513, 181.7303
571.3334, 188.9329
571.8155, 196.6974
572.2976, 205.2233
572.7797, 213.9992
573.2618, 223.2029
573.7440, 232.3598
574.2261, 240.8265
574.7082, 249.3294
575.1903, 256.0723
575.6724, 261.2708
576.1545, 264.5621
576.6367, 262.6173
577.1188, 252.7236
577.6009, 240.0250
578.0830, 225.9325
578.5651, 210.1357
579.0472, 194.8612
579.5294, 179.6527
580.0115, 165.4561
580.4936, 152.8875
580.9757, 141.8423
581.4578, 132.5768
581.9399, 125.3097
582.4221, 119.4016
582.9042, 113.7816
583.3863, 108.6244
583.8684, 104.3284
584.3505, 101.3061
584.8326, 99.05378
585.3148, 97.12547
585.7969, 95.50710
586.2789, 94.22042
586.7610, 93.48623
587.2432, 92.92135
587.7253, 92.36458
588.2074, 91.84246
588.6895, 91.01314
589.1716, 89.38820
589.6537, 87.70303
590.1359, 86.54054
590.6180, 86.36549
591.1001, 85.79657
591.5822, 84.65025
592.0643, 83.22139
592.5464, 82.01877
593.0286, 81.07809
593.5107, 80.08389
593.9928, 78.88078
594.4749, 77.62011
594.9570, 76.70199
595.4391, 76.11266
595.9213, 75.65586
596.4034, 75.30279
596.8855, 74.96664
597.3676, 74.59989
597.8497, 74.19522
598.3318, 73.52468
598.8140, 72.00723
599.2961, 70.42226
599.7782, 69.46702
600.2603, 69.53453
600.7424, 69.64187
601.2245, 69.63695
601.7067, 69.52589
602.1888, 69.31448
602.6709, 68.90122
603.1530, 68.57010
603.6351, 68.46485
604.1172, 68.42493
604.5994, 67.82518
605.0815, 66.50566
605.5636, 65.56273
606.0457, 65.81615
606.5278, 66.79618
607.0099, 66.38702
607.4921, 64.63109
607.9742, 62.97604
608.4563, 62.90228
608.9384, 63.49804
609.4205, 63.34339
609.9026, 62.17708
610.3848, 60.97422
610.8669, 60.36992
611.3490, 60.04980
611.8311, 59.67342
612.3132, 58.89962
612.7953, 58.41292
613.2775, 58.66256
613.7596, 59.22341
614.2417, 59.28007
614.7238, 58.46970
615.2059, 57.78457
615.6880, 57.51308
616.1702, 57.52404
616.6523, 57.08256
617.1344, 56.08976
617.6165, 55.23222
618.0986, 55.01307
618.5807, 55.25386
619.0629, 55.21260
619.5450, 54.88239
620.0271, 54.63494
620.5092, 55.06542
620.9913, 55.65431
621.4734, 55.52155
621.9556, 54.22884
622.4377, 53.31382
622.9198, 54.14371
623.4019, 55.58305
623.8840, 56.31519
624.3661, 55.48880
624.8483, 54.62011
625.3304, 53.74592
625.8125, 52.99969
626.2946, 52.74200
626.7767, 53.22774
627.2589, 53.62289
627.7410, 53.68185
628.2231, 53.45931
628.7052, 53.15380
629.1873, 52.74754
629.6694, 52.53167
630.1516, 52.83986
630.6337, 53.45132
631.1158, 53.91403
631.5979, 54.20599
632.0800, 54.23331
632.5621, 53.63267
633.0443, 52.86939
633.5264, 52.42188
634.0085, 52.36948
634.4906, 52.68652
634.9727, 53.99512
635.4548, 55.40987
635.9370, 55.85983
636.4191, 54.08471
636.9012, 52.96363
637.3833, 53.00950
637.8654, 53.74297
638.3475, 54.01844
638.8297, 53.73388
639.3118, 53.46410
639.7939, 53.39211
640.2760, 53.47628
640.7581, 53.65231
641.2402, 53.90829
641.7224, 54.02491
642.2045, 53.80646
642.6866, 53.39769
643.1687, 52.89689
643.6508, 52.31528
644.1329, 51.98782
644.6151, 52.32928
645.0972, 52.86103
645.5793, 53.20428
646.0614, 53.24934
646.5435, 53.23326
647.0256, 53.17643
647.5078, 53.08068
647.9899, 52.93679
648.4720, 52.70139
648.9541, 52.53609
649.4362, 52.49131
649.9183, 52.48079
650.4005, 52.28696
650.8826, 51.91617
651.3647, 51.68529
651.8468, 51.74829
652.3289, 51.95845
652.8110, 52.13771
653.2932, 52.26313
653.7753, 52.23387
654.2574, 51.85193
654.7395, 51.40474
655.2216, 51.14880
655.7037, 51.07681
656.1859, 50.89892
656.6680, 50.32127
657.1501, 49.77690
657.6322, 49.50885
658.1143, 49.55077
658.5964, 49.75941
659.0786, 50.38885
659.5607, 50.81696
660.0428, 50.27364
660.5249, 48.66867
661.0070, 47.83146
661.4891, 48.00467
661.9713, 48.73435
662.4534, 49.81279
662.9355, 50.99681
663.4176, 51.53657
663.8997, 50.91575
664.3818, 50.11050
664.8640, 49.85740
665.3461, 50.02913
665.8282, 50.36872
666.3103, 51.31701
666.7924, 51.86510
667.2745, 51.37254
667.7567, 50.06823
668.2388, 49.33992
668.7209, 49.48544
669.2030, 49.73363
669.6851, 49.79340
670.1672, 49.69256
670.6494, 49.89676
671.1315, 50.45889
671.6136, 50.93155
672.0957, 50.91386
672.5778, 50.56213
673.0599, 50.27626
673.5421, 50.07882
674.0242, 50.00708
674.5063, 50.19492
674.9884, 50.47451
675.4705, 50.67421
675.9526, 50.78008
676.4348, 50.75218
676.9169, 50.49876
677.3990, 50.14079
677.8811, 49.80389
678.3632, 49.42972
678.8453, 49.19809
679.3275, 49.15014
679.8096, 49.22903
680.2917, 49.38409
680.7738, 49.62783
681.2559, 49.71712
681.7380, 49.53265
682.2202, 49.21782
682.7023, 49.00707
683.1844, 48.89717
683.6665, 48.88250
684.1486, 49.03917
684.6307, 49.22573
685.1129, 49.33539
685.5950, 49.37367
686.0771, 49.39451
686.5592, 49.50721
687.0413, 49.52413
687.5234, 49.27165
688.0056, 48.71363
688.4877, 48.45110
688.9698, 48.61533
689.4519, 48.84026
689.9340, 48.86629
690.4161, 48.68948
690.8983, 48.63938
691.3804, 48.72215
691.8625, 48.93365
692.3446, 49.43688
692.8267, 50.02943
693.3088, 50.22755
693.7910, 49.82813
694.2731, 49.53028
694.7552, 50.13301
695.2373, 50.98325
695.7194, 51.31894
696.2015, 50.18909
696.6837, 49.51196
697.1658, 49.93864
697.6479, 50.80671
698.1300, 51.09276
698.6121, 50.50980
699.0942, 50.21709
699.5764, 50.62160
700.0585, 51.26206
700.5406, 50.80881
701.0227, 49.39078
701.5048, 48.39561
701.9869, 48.66602
702.4691, 49.50762
702.9512, 50.10491
703.4333, 50.49249
703.9154, 50.79088
704.3975, 51.07722
704.8796, 51.28176
705.3618, 51.35481
705.8439, 51.29591
706.3260, 51.18284
706.8081, 50.84161
707.2902, 50.66923
707.7723, 50.91349
708.2545, 51.60604
708.7366, 52.00267
709.2187, 52.06138
709.7008, 52.01061
710.1829, 52.05384
710.6650, 52.13850
711.1472, 52.07258
711.6293, 51.83079
712.1114, 51.57791
712.5935, 51.48462
713.0756, 51.43237
713.5577, 51.27491
714.0399, 50.92221
714.5220, 50.62677
715.0041, 50.43066
715.4862, 50.35223
715.9683, 50.43275
716.4504, 50.88833
716.9326, 50.99232
717.4147, 50.55646
717.8968, 49.93646
718.3789, 49.76507
718.8610, 50.01452
719.3431, 50.04848
719.8253, 49.54278
720.3074, 49.09478
720.7895, 49.78040
721.2716, 51.14244
721.7537, 52.14293
722.2358, 52.22884
722.7180, 51.92712
723.2001, 51.24034
723.6822, 50.34626
724.1643, 49.79764
724.6464, 49.92323
725.1285, 50.09184
725.6107, 50.19898
726.0928, 50.23997
726.5749, 50.12001
727.0570, 49.78576
727.5391, 49.65463
728.0212, 50.11858
728.5034, 50.87064
728.9855, 50.99364
729.4676, 50.56351
729.9497, 50.14515
730.4318, 50.32735
730.9139, 50.52633
731.3961, 49.98072
731.8782, 48.66539
732.3603, 48.07944
732.8424, 49.66037
733.3245, 51.21281
733.8066, 51.50256
734.2888, 50.23902
734.7709, 49.63342
735.2530, 49.91545
735.7351, 50.25153
736.2172, 49.79913
736.6993, 48.74388
737.1815, 48.36974
737.6636, 48.79729
738.1457, 49.38427
738.6278, 49.51305
739.1099, 49.45509
739.5920, 49.54884
740.0742, 49.87360
740.5563, 50.29213
741.0384, 51.15369
741.5205, 51.86586
742.0026, 51.76816
742.4847, 49.99641
742.9669, 49.12487
743.4490, 49.49443
743.9311, 50.38570
744.4132, 50.98078
744.8953, 51.27911
745.3774, 51.15559
745.8596, 50.44179
746.3417, 49.73676
746.8238, 49.91067
747.3059, 50.63720
747.7880, 51.30905
748.2701, 51.87365
748.7523, 52.10227
749.2344, 51.61782
749.7165, 50.77192
750.1986, 50.22267
750.6807, 50.30227
751.1628, 50.24918
751.6450, 49.76973
752.1271, 49.21419
752.6092, 49.67128
753.0913, 51.24084
753.5734, 52.18441
754.0555, 51.68483
754.5377, 50.54047
755.0198, 50.07455
755.5019, 50.12224
755.9840, 50.18230
756.4661, 49.84772
756.9482, 49.60509
757.4304, 49.93694
757.9125, 50.63979
758.3946, 50.92562
758.8767, 50.14374
759.3588, 49.56713
759.8409, 49.59193
760.3231, 50.08707
760.8052, 50.25249
761.2873, 50.00253
761.7694, 50.07026
762.2515, 51.04407
762.7336, 52.47827
763.2158, 53.44655
763.6979, 53.97569
764.1800, 54.16396
764.6621, 53.67299
765.1442, 53.18923
765.6263, 53.24752
766.1085, 53.84492
766.5906, 54.39821
767.0727, 54.75609
767.5548, 55.10902
768.0369, 55.53896
768.5190, 56.04252
769.0012, 56.42551
769.4833, 56.65692
769.9654, 56.93407
770.4475, 57.46754
770.9296, 58.13359
771.4117, 58.56493
771.8939, 58.77280
772.3760, 59.06207
772.8581, 59.45455
773.3402, 60.13931
773.8223, 61.53484
774.3044, 63.83681
774.7866, 65.22760
775.2687, 64.54970
775.7508, 63.84675
776.2329, 64.30386
776.7150, 66.11873
777.1971, 66.98672
777.6793, 66.76314
778.1614, 66.40529
778.6435, 66.65811
779.1256, 67.38638
779.6077, 68.38866
780.0898, 69.65926
780.5720, 70.81686
781.0541, 71.44729
781.5362, 71.97615
782.0183, 72.73180
782.5004, 73.77367
782.9825, 75.01466
783.4647, 76.56538
783.9468, 78.17956
784.4289, 79.69941
784.9110, 81.12694
785.3931, 82.52540
785.8752, 83.89531
786.3574, 85.17023
786.8395, 86.16264
787.3216, 87.02959
787.8037, 88.08885
788.2858, 89.35474
788.7679, 90.90315
789.2501, 92.70203
789.7322, 94.84480
790.2143, 97.47994
790.6964, 100.8425
791.1785, 104.1651
791.6606, 107.4166
792.1428, 110.6078
792.6249, 113.7089
793.1070, 116.7407
793.5891, 119.7553
794.0712, 122.7296
794.5533, 126.0216
795.0355, 130.0529
795.5176, 134.6891
795.9997, 139.8650
796.4818, 145.7189
796.9639, 151.3295
797.4460, 155.3869
797.9282, 159.5530
798.4103, 165.4745
798.8924, 174.3985
799.3745, 182.5791
799.8566, 189.3791
800.3387, 196.3146
800.8209, 204.7352
801.3030, 214.5948
801.7851, 225.3483
802.2672, 237.0783
802.7493, 249.4641
803.2314, 261.4566
803.7136, 274.1131
804.1957, 288.8891
804.6778, 306.6619
805.1599, 325.0648
805.6420, 342.4641
806.1241, 360.7355
806.6063, 381.4175
807.0884, 404.9191
807.5705, 429.6979
808.0526, 455.5150
808.5347, 483.3468
809.0168, 514.5858
809.4990, 548.9671
809.9811, 585.9542
810.4632, 625.6943
810.9453, 667.4244
811.4274, 711.1423
811.9095, 756.8761
812.3917, 804.7559
812.8738, 857.3074
813.3559, 906.1567
813.8380, 952.9557
814.3201, 993.1854
814.8022, 1023.926
815.2844, 1045.372
815.7665, 1054.831
816.2486, 1052.205
816.7307, 1037.387
817.2128, 1007.630
817.6949, 966.0818
818.1771, 918.1603
818.6592, 864.3365
819.1413, 808.9447
819.6234, 750.4888
820.1055, 693.7264
820.5876, 642.2629
821.0698, 596.8639
821.5519, 558.1202
822.0340, 526.9636
822.5161, 501.0449
822.9982, 477.9061
823.4803, 457.5181
823.9625, 441.2669
824.4446, 429.1830
824.9267, 420.4293
825.4088, 415.0066
825.8909, 412.1587
826.3730, 410.9849
826.8552, 411.2471
827.3373, 413.7629
827.8194, 420.5262
828.3015, 428.3105
828.7836, 434.9612
829.2657, 440.0040
829.7479, 445.8952
830.2300, 452.1989
830.7121, 460.4662
831.1942, 472.4720
831.6763, 487.4104
832.1584, 502.0507
832.6406, 516.2131
833.1227, 531.9989
833.6048, 549.3663
834.0869, 569.8127
834.5690, 595.4453
835.0511, 626.8129
835.5333, 659.2886
836.0154, 691.8299
836.4975, 726.5861
836.9796, 764.9443
837.4617, 807.2831
837.9438, 849.8947
838.4260, 892.9738
838.9081, 935.5193
839.3902, 978.7120
839.8723, 1020.005
840.3544, 1057.124
840.8365, 1089.376
841.3187, 1111.732
841.8008, 1121.676
842.2829, 1121.051
842.7650, 1110.211
843.2471, 1089.571
843.7292, 1059.429
844.2114, 1018.429
844.6935, 972.2093
845.1756, 920.7233
845.6577, 867.1813
846.1398, 819.3959
846.6219, 777.0198
847.1041, 738.0987
847.5862, 701.7096
848.0683, 668.1798
848.5504, 637.4430
849.0325, 609.8381
849.5146, 585.6791
849.9968, 564.8165
850.4789, 547.8735
850.9610, 535.4279
851.4431, 526.8978
851.9252, 520.4178
852.4073, 515.9934
852.8895, 513.7822
853.3716, 514.2267
853.8537, 516.5377
854.3358, 519.0697
854.8179, 522.7833
855.3000, 529.8629
855.7822, 542.5031
856.2643, 557.0941
856.7464, 571.7408
857.2285, 587.8406
857.7106, 608.2309
858.1927, 632.9650
858.6749, 662.1161
859.1570, 695.7510
859.6391, 734.2544
860.1212, 778.6979
860.6033, 828.1454
861.0854, 880.0012
861.5676, 933.3265
862.0497, 990.0505
862.5318, 1049.954
863.0139, 1114.102
863.4960, 1182.990
863.9781, 1256.672
864.4603, 1335.203
864.9424, 1417.795
865.4245, 1508.651
865.9066, 1614.377
866.3887, 1733.742
866.8708, 1864.292
867.3530, 2004.652
867.8351, 2160.959
868.3172, 2341.518
868.7993, 2542.784
869.2814, 2760.596
869.7635, 2995.153
870.2457, 3251.795
870.7278, 3542.290
871.2099, 3839.683
871.6920, 4132.412
872.1741, 4418.554
872.6563, 4665.182
873.1384, 4873.120
873.6205, 5006.167
874.1026, 5041.282
874.5847, 4980.121
875.0668, 4811.932
875.5490, 4538.364
876.0311, 4209.278
876.5132, 3793.669
876.9953, 3374.705
877.4774, 2980.578
877.9595, 2613.341
878.4417, 2284.819
878.9238, 1995.475
879.4059, 1741.108
879.8880, 1525.760
880.3701, 1343.181
880.8522, 1186.372
881.3344, 1053.886
881.8165, 939.5921
882.2986, 845.1315
882.7807, 763.0253
883.2628, 692.8145
883.7449, 633.0693
884.2271, 579.6372
884.7092, 532.9376
885.1913, 491.4745
885.6734, 455.2576
886.1555, 423.5391
886.6376, 395.0621
887.1198, 370.0203
887.6019, 347.2971
888.0840, 326.6688
888.5661, 308.1104
889.0482, 291.9046
889.5303, 277.6133
890.0125, 264.8617
890.4946, 254.0052
890.9767, 243.6032
891.4588, 233.4380
891.9409, 223.7716
892.4230, 214.8400
892.9052, 206.5632
893.3873, 198.6131
893.8694, 190.7809
894.3515, 183.7995
894.8336, 178.9602
895.3157, 174.8818
895.7979, 170.0100
896.2800, 163.5105
896.7621, 158.4416
897.2442, 155.9623
897.7263, 153.6395
898.2084, 149.5923
898.6906, 143.9264
899.1727, 139.6176
899.6548, 136.7059
900.1369, 134.4249
900.6190, 132.8838
901.1011, 131.2568
901.5833, 128.3110
902.0654, 124.2168
902.5475, 120.9258
903.0296, 120.0372
903.5117, 118.8140
903.9938, 116.1140
904.4760, 112.4680
904.9581, 110.4320
905.4402, 110.0335
905.9223, 109.7011
906.4044, 108.8336
906.8865, 107.5924
907.3687, 105.9837
907.8508, 104.1669
908.3329, 102.5320
908.8150, 101.1815
909.2971, 100.0906
909.7792, 99.51681
910.2614, 99.02018
910.7435, 97.86093
911.2256, 95.97835
911.7077, 94.23425
912.1898, 92.78597
912.6719, 91.36684
913.1541, 89.52050
913.6362, 87.54885
914.1183, 86.03316
914.6004, 85.34749
915.0825, 84.19215
915.5646, 81.21178
916.0468, 78.40282
916.5289, 77.30097
917.0110, 78.25015
917.4931, 78.07078
917.9752, 76.62814
918.4573, 75.16614
918.9395, 75.04379
919.4216, 75.32246
919.9037, 74.31066
920.3858, 72.10893
920.8679, 70.29202
921.3500, 70.17570
921.8322, 69.85934
922.3143, 68.26186
922.7964, 65.79655
923.2785, 64.48540
923.7606, 64.48148
924.2427, 64.42562
924.7249, 63.72286
925.2070, 62.81680
925.6891, 62.58212
926.1712, 62.69699
926.6533, 62.44590
927.1354, 61.21046
927.6176, 59.97692
928.0997, 58.96206
928.5818, 58.12038
929.0639, 57.46686
929.5460, 57.07560
930.0281, 56.29941
930.5103, 54.96727
930.9924, 53.73111
931.4745, 53.47872
931.9566, 53.78331
932.4387, 54.05960
932.9208, 54.25586
933.4030, 54.05840
933.8851, 52.98651
934.3672, 51.79107
934.8493, 50.90298
935.3314, 50.32141
935.8135, 49.93944
936.2957, 49.79767
936.7778, 49.49815
937.2599, 48.49052
937.7420, 47.33986
938.2241, 46.99419
938.7062, 47.30016
939.1884, 47.62669
939.6705, 47.75365
940.1526, 47.82095
940.6347, 47.91500
941.1168, 47.96519
941.5989, 47.72466
942.0811, 47.14944
942.5632, 46.85258
943.0453, 47.02826
943.5274, 47.40603
944.0095, 47.74188
944.4916, 48.02158
944.9738, 48.21378
945.4559, 48.26371
945.9380, 48.34206
946.4201, 48.55121
946.9022, 48.75267
947.3843, 48.85736
947.8665, 48.86655
948.3486, 48.73288
948.8307, 48.44551
949.3128, 48.16891
949.7949, 48.08000
950.2770, 48.04332
950.7592, 47.88984
951.2413, 47.62559
951.7234, 47.38172
952.2055, 46.95621
952.6876, 46.86512
953.1697, 47.34218
953.6519, 48.22501
954.1340, 49.07288
954.6161, 49.87497
955.0982, 50.30206
955.5803, 50.20307
956.0624, 49.75895
956.5446, 48.71819
957.0267, 47.59059
957.5088, 47.15765
957.9909, 48.50648
958.4730, 49.16667
958.9551, 48.69828
959.4373, 47.99065
959.9194, 48.01674
960.4015, 48.66550
960.8836, 48.92069
961.3657, 48.70399
961.8478, 48.51651
962.3300, 48.91845
962.8121, 49.38646
963.2942, 49.40044
963.7763, 48.92559
964.2584, 48.77003
964.7405, 49.12074
965.2227, 49.47039
965.7048, 49.60011
966.1869, 49.62761
966.6690, 49.90390
967.1511, 50.38531
967.6332, 50.88361
968.1154, 51.43610
968.5975, 51.83361
969.0796, 51.81047
969.5617, 51.61344
970.0438, 51.65925
970.5259, 52.15499
971.0081, 52.27309
971.4902, 51.80788
971.9723, 51.42614
972.4544, 52.06992
972.9365, 53.31489
973.4186, 54.12276
973.9008, 54.38857
974.3829, 54.65213
974.8650, 55.38834
975.3471, 55.99916
975.8292, 55.95429
976.3113, 55.37761
976.7935, 55.78245
977.2756, 57.34351
977.7577, 58.46307
978.2398, 58.06088
978.7219, 57.30430
979.2040, 58.00430
979.6862, 59.74215
980.1683, 61.60498
980.6504, 63.65668
981.1325, 65.30748
981.6146, 66.27130
982.0967, 66.99314
982.5789, 67.84659
983.0610, 68.82928
983.5431, 70.36609
984.0252, 72.51205
984.5073, 75.23366
984.9894, 79.25407
985.4716, 83.36479
985.9537, 85.92377
986.4358, 86.72719
986.9179, 88.97408
987.4000, 93.40652
987.8821, 98.54906
988.3643, 103.8717
988.8464, 109.4551
989.3285, 115.1835
989.8106, 121.2530
990.2927, 128.6783
990.7748, 138.5183
991.2570, 148.9086
991.7391, 158.5477
992.2212, 168.0072
992.7033, 178.5262
993.1854, 190.6870
993.6675, 202.8188
994.1497, 215.5339
994.6318, 226.1173
995.1139, 232.2289
995.5960, 233.9428
996.0781, 231.1266
996.5602, 223.8040
997.0424, 213.3330
997.5245, 198.0112
998.0066, 181.9566
998.4887, 166.7137
998.9708, 152.3760
999.4529, 138.4649
999.9351, 124.9843
1000.417, 113.0534
1000.899, 102.9014
1001.381, 94.53414
1001.864, 88.39388
1002.346, 83.73231
1002.828, 79.44144
1003.310, 75.29967
1003.792, 71.41624
1004.274, 67.62312
1004.756, 64.26402
1005.238, 61.64516
1005.720, 59.72430
1006.203, 58.10317
1006.685, 56.77776
1007.167, 55.46055
1007.649, 54.05712
1008.131, 52.52880
1008.613, 50.65146
1009.095, 48.59312
1009.577, 47.17726
1010.060, 46.61089
1010.542, 46.08946
1011.024, 45.40695
1011.506, 44.72401
1011.988, 44.41115
1012.470, 44.27012
1012.952, 43.80857
1013.434, 42.69904
1013.916, 41.96665
1014.399, 42.03088
1014.881, 42.64317
1015.363, 44.04042
1015.845, 46.26481
1016.327, 45.81644
1016.809, 42.63602
1017.291, 40.19196
1017.773, 42.08237
1018.255, 44.64474
1018.738, 43.83769
1019.220, 40.73344
1019.702, 38.58989
1020.184, 38.46492
1020.666, 38.55442
1021.148, 38.77613
1021.630, 38.92554
1022.112, 38.69592
1022.595, 38.14067
1023.077, 37.34061
1023.559, 36.27073
1024.041, 35.41132
1024.523, 35.04280
1025.005, 35.00178
1025.487, 35.24228
1025.969, 35.73336
1026.452, 36.32932
1026.934, 37.10131
1027.416, 37.34752
1027.898, 36.46138
1028.380, 35.26103
1028.862, 35.00681
1029.344, 35.29508
1029.826, 35.36035
1030.308, 34.91114
1030.791, 34.26408
1031.273, 33.25827
1031.755, 32.34760
1032.237, 32.05750
1032.719, 32.30095
1033.201, 32.48954
1033.683, 32.59081
1034.165, 32.54572
1034.647, 32.11121
1035.130, 31.70437
1035.612, 31.74279
1036.094, 32.08222
1036.576, 31.89964
1037.058, 31.03725
1037.540, 30.37089
1038.022, 30.14872
1038.504, 30.13144
1038.987, 30.02645
1039.469, 29.87751
1039.951, 29.73841
1040.433, 29.59204
1040.915, 29.58810
1041.397, 30.06358
1041.879, 30.30807
1042.361, 29.76497
1042.844, 28.59742
1043.326, 28.09898
1043.808, 28.20945
1044.290, 28.35570
1044.772, 28.22853
1045.254, 28.03210
1045.736, 27.72113
1046.218, 27.48411
1046.700, 27.75080
1047.182, 28.85585
1047.665, 29.28428
1048.147, 28.79045
1048.629, 28.06800
1049.111, 27.70894
1049.593, 27.66284
1050.075, 27.98017
1050.557, 28.63929
1051.039, 29.06465
1051.522, 28.91352
1052.004, 28.65155
1052.486, 28.32835
1052.968, 28.03809
1053.450, 28.10081
1053.932, 28.46643
1054.414, 28.87238
1054.896, 29.32642
1055.379, 29.55764
1055.861, 29.02811
1056.343, 28.41463
1056.825, 28.51233
1057.307, 29.54973
1057.789, 29.84990
1058.271, 29.26671
1058.753, 28.80705
1059.235, 29.31290
1059.718, 30.22584
1060.200, 30.79364
1060.682, 31.08533
1061.164, 31.30286
1061.646, 31.46482
1062.128, 31.62171
1062.610, 31.81877
1063.092, 31.95642
1063.574, 31.61773
1064.057, 31.06844
1064.539, 31.82426
1065.021, 34.04489
1065.503, 35.80148
1065.985, 35.56796
1066.467, 34.81141
1066.949, 34.22671
1067.431, 33.86049
1067.914, 33.89772
1068.396, 34.37923
1068.878, 34.81224
1069.360, 35.00954
1069.842, 35.23141
1070.324, 35.81304
1070.806, 36.59326
1071.288, 37.36666
1071.771, 38.11576
1072.253, 38.84866
1072.735, 39.73582
1073.217, 40.20925
1073.699, 39.60978
1074.181, 38.45147
1074.663, 38.15192
1075.145, 38.59801
1075.627, 39.39841
1076.109, 41.05779
1076.592, 42.19637
1077.074, 41.91142
1077.556, 41.26587
1078.038, 41.55954
1078.520, 42.78019
1079.002, 43.49293
1079.484, 43.59128
1079.966, 43.61150
1080.448, 44.00571
1080.931, 44.45662
1081.413, 44.66828
1081.895, 44.68774
1082.377, 44.91550
1082.859, 45.40374
1083.341, 45.89880
1083.823, 46.33724
1084.305, 46.76643
1084.788, 47.29005
1085.270, 47.82753
1085.752, 48.24143
1086.234, 48.49584
1086.716, 48.68838
1087.198, 48.82920
1087.680, 48.92983
1088.162, 49.00037
1088.645, 49.03154
1089.127, 48.87867
1089.609, 48.63919
1090.091, 48.71641
1090.573, 49.62200
1091.055, 50.32051
1091.537, 50.09730
1092.019, 49.62373
1092.501, 49.55998
1092.984, 49.94109
1093.466, 50.31922
1093.948, 50.69166
1094.430, 51.04779
1094.912, 51.52971
1095.394, 51.86595
1095.876, 51.65635
1096.358, 51.11495
1096.840, 50.92693
1097.323, 51.25115
1097.805, 51.51608
1098.287, 51.62469
1098.769, 51.74450
1099.251, 52.21464
1099.733, 52.75331
1100.215, 52.88192
1100.697, 52.56071
1101.180, 52.23117
1101.662, 51.78493
1102.144, 51.69601
1102.626, 52.24713
1103.108, 53.08077
1103.590, 53.40216
1104.072, 53.28375
1104.554, 52.88877
1105.036, 52.18536
1105.519, 51.49567
1106.001, 50.78125
1106.483, 50.34807
1106.965, 50.57119
1107.447, 51.35200
1107.929, 51.09166
1108.411, 49.86460
1108.893, 48.85658
1109.375, 48.79557
1109.858, 48.99579
1110.340, 49.13248
1110.822, 49.11781
1111.304, 48.81386
1111.786, 48.15021
1112.268, 47.46037
1112.750, 46.74008
1113.232, 46.06405
1113.715, 45.40736
1114.197, 44.88114
1114.679, 44.68575
1115.161, 44.73600
1115.643, 44.72614
1116.125, 44.86641
1116.607, 44.35709
1117.089, 42.87721
1117.572, 41.23623
1118.054, 40.47374
1118.536, 40.30922
1119.018, 40.24475
1119.500, 40.21924
1119.982, 40.04368
1120.464, 39.76537
1120.946, 39.12145
1121.428, 37.82626
1121.911, 36.30480
1122.393, 35.56178
1122.875, 35.48018
1123.357, 35.60200
1123.839, 35.87781
1124.321, 36.05915
1124.803, 35.99921
1125.285, 35.78916
1125.767, 35.53884
1126.250, 35.22401
1126.732, 34.42863
1127.214, 33.18466
1127.696, 32.35995
1128.178, 32.54232
1128.660, 32.86242
1129.142, 32.57343
1129.624, 32.01738
1130.107, 31.61718
1130.589, 31.43178
1131.071, 31.26066
1131.553, 31.13092
1132.035, 30.80059
1132.517, 29.83069
1132.999, 28.79301
1133.481, 28.28463
1133.964, 28.25683
1134.446, 28.65635
1134.928, 30.04167
1135.410, 30.59892
1135.892, 30.02948
1136.374, 29.26193
1136.856, 29.41375
1137.338, 29.90457
1137.820, 29.53030
1138.302, 28.43075
1138.785, 27.75375
1139.267, 28.42394
1139.749, 28.77168
1140.231, 28.37783
1140.713, 27.76897
1141.195, 27.76422
1141.677, 28.16986
1142.159, 28.45622
1142.642, 28.55478
1143.124, 28.59704
1143.606, 28.65154
1144.088, 28.63601
1144.570, 28.43858
1145.052, 28.20711
1145.534, 28.42888
1146.016, 29.01682
1146.499, 29.49311
1146.981, 29.73602
1147.463, 29.87778
1147.945, 30.02267
1148.427, 30.06384
1148.909, 29.91895
1149.391, 29.60958
1149.873, 29.20076
1150.355, 28.71236
1150.838, 28.66559
1151.320, 29.51247
1151.802, 30.33161
1152.284, 30.24094
1152.766, 30.67777
1153.248, 30.67057
1153.730, 30.43586
1154.212, 30.34047
1154.694, 29.50767
1155.177, 29.02265
1155.659, 29.92215
1156.141, 31.03029
1156.623, 31.16133
1157.105, 30.71254
1157.587, 30.38180
1158.069, 30.20629
1158.551, 30.17683
1159.034, 30.27021
1159.516, 30.63372
1159.998, 31.67390
1160.480, 32.84157
1160.962, 33.49829
1161.444, 33.69738
1161.926, 33.63799
1162.408, 33.25683
1162.891, 32.79610
1163.373, 32.16028
1163.855, 31.82513
1164.337, 32.72117
1164.819, 34.04099
1165.301, 34.32745
1165.783, 33.64902
1166.265, 33.27854
1166.747, 33.53321
1167.229, 34.16111
1167.712, 35.34438
1168.194, 36.44198
1168.676, 36.28664
1169.158, 35.43444
1169.640, 34.99585
1170.122, 35.10522
1170.604, 35.45786
1171.086, 36.14551
1171.569, 36.85416
1172.051, 37.62985
1172.533, 38.22721
1173.015, 37.83694
1173.497, 36.89090
1173.979, 36.66144
1174.461, 37.52241
1174.943, 38.32243
1175.426, 38.59867
1175.908, 38.74083
1176.390, 38.90536
1176.872, 39.04787
1177.354, 38.94502
1177.836, 38.68916
1178.318, 38.61172
1178.800, 38.84135
1179.282, 39.17456
1179.765, 39.82476
1180.247, 40.22750
1180.729, 39.94092
1181.211, 39.12960
1181.693, 38.62631
1182.175, 38.44237
1182.657, 38.66267
1183.139, 39.70389
1183.621, 40.46894
1184.104, 40.23177
1184.586, 39.65124
1185.068, 39.17684
1185.550, 38.81149
1186.032, 38.61570
1186.514, 38.58530
1186.996, 38.69908
1187.478, 39.28899
1187.961, 39.61148
1188.443, 39.05032
1188.925, 38.20316
1189.407, 37.67121
1189.889, 37.46329
1190.371, 37.38468
1190.853, 37.42476
1191.335, 37.45934
1191.818, 37.49929
1192.300, 37.41357
1192.782, 37.05547
1193.264, 36.55593
1193.746, 36.04663
1194.228, 35.51491
1194.710, 35.43443
1195.192, 35.82849
1195.674, 35.97425
1196.156, 34.90991
1196.639, 33.87638
1197.121, 33.79027
1197.603, 34.27989
1198.085, 34.56954
1198.567, 34.65375
1199.049, 34.71922
1199.531, 34.78873
1200.013, 34.77283
1200.496, 34.52214
1200.978, 34.23469
1201.460, 34.02251
1201.942, 33.88963
1202.424, 33.86007
1202.906, 33.94022
1203.388, 33.97773
1203.870, 33.95552
1204.353, 33.82062
1204.835, 33.48088
1205.317, 33.05025
1205.799, 32.53116
1206.281, 32.00100
1206.763, 31.82062
1207.245, 32.01001
1207.727, 31.99568
1208.209, 31.60933
1208.692, 31.29264
1209.174, 31.52339
1209.656, 31.91322
1210.138, 32.26817
1210.620, 32.51807
1211.102, 32.17618
1211.584, 31.22246
1212.066, 30.51996
1212.548, 30.36702
1213.031, 30.29465
1213.513, 29.83989
1213.995, 29.32536
1214.477, 29.08954
1214.959, 29.08582
1215.441, 28.82611
1215.923, 28.30551
1216.405, 27.84704
1216.888, 27.60887
1217.370, 27.31668
1217.852, 26.49812
1218.334, 25.71375
1218.816, 25.58526
1219.298, 26.06651
1219.780, 26.21058
1220.262, 26.01719
1220.745, 25.50744
1221.227, 24.51662
1221.709, 23.59792
1222.191, 23.28806
1222.673, 23.18580
1223.155, 22.85645
1223.637, 22.29857
1224.119, 22.10009
1224.601, 22.24228
1225.083, 22.43007
1225.566, 22.67648
1226.048, 22.65826
1226.530, 21.74901
1227.012, 20.76298
1227.494, 20.60215
1227.976, 21.27017
1228.458, 21.32653
1228.940, 20.81395
1229.423, 20.35456
1229.905, 20.41269
1230.387, 20.35089
1230.869, 19.44397
1231.351, 18.50337
1231.833, 18.40283
1232.315, 19.13162
1232.797, 19.24660
1233.280, 18.80940
1233.762, 18.38964
1234.244, 18.45449
1234.726, 18.39138
1235.208, 17.64793
1235.690, 16.83034
1236.172, 16.54017
1236.654, 16.75153
1237.136, 16.70862
1237.619, 16.44425
1238.101, 16.19414
1238.583, 16.01523
1239.065, 15.96922
1239.547, 16.20650
1240.029, 16.47697
1240.511, 16.57392
1240.993, 16.50450
1241.475, 16.25690
1241.958, 15.87052
1242.440, 15.56964
1242.922, 15.52687
1243.404, 15.50084
1243.886, 15.39510
1244.368, 15.30984
1244.850, 15.39834
1245.332, 15.59487
1245.815, 15.59882
1246.297, 15.42648
1246.779, 15.19881
1247.261, 14.84836
1247.743, 14.63548
1248.225, 14.65056
1248.707, 14.73329
1249.189, 14.75045
1249.672, 14.69832
1250.154, 14.49508
1250.636, 14.19478
1251.118, 14.04886
1251.600, 12.76791
1252.082, 14.29503
1252.564, 20.68669
1253.046, 26.50668
1253.528, 24.77824
1254.010, 19.05937
1254.493, 16.00264
1254.975, 15.39360
1255.457, 14.91467
1255.939, 13.75728
1256.421, 13.04236
1256.903, 12.91694
1257.385, 13.09958
1257.867, 13.57783
1258.350, 14.02725
1258.832, 13.78909
1259.314, 13.05715
1259.796, 12.72716
1260.278, 12.99330
1260.760, 13.49652
1261.242, 14.30155
1261.724, 14.84405
1262.207, 14.23664
1262.689, 13.36004
1263.171, 13.20193
1263.653, 13.63326
1264.135, 14.05171
1264.617, 14.49668
1265.099, 14.53078
1265.581, 14.07045
1266.063, 13.63557
1266.546, 13.76899
1267.028, 14.03041
1267.510, 14.03273
1267.992, 13.87702
1268.474, 13.89277
1268.956, 14.11075
1269.438, 13.98750
1269.920, 13.46712
1270.402, 13.16393
1270.885, 13.77225
1271.367, 14.50036
1271.849, 14.91482
1272.331, 15.10395
1272.813, 15.16453
1273.295, 15.10850
1273.777, 15.11997
1274.259, 15.20975
1274.742, 15.27165
1275.224, 15.28093
1275.706, 15.18798
1276.188, 14.88863
1276.670, 14.57855
1277.152, 14.62232
1277.634, 14.90300
1278.116, 14.84366
1278.599, 14.46193
1279.081, 14.30005
1279.563, 14.98703
1280.045, 15.36504
1280.527, 15.15387
1281.009, 14.64734
1281.491, 13.95252
1281.973, 13.34424
1282.455, 13.66141
1282.938, 14.74575
1283.420, 15.39335
1283.902, 14.92432
1284.384, 14.64336
1284.866, 14.68522
1285.348, 14.99235
1285.830, 15.79134
1286.312, 16.61688
1286.794, 16.74386
1287.277, 16.30071
1287.759, 16.00876
1288.241, 16.01789
1288.723, 15.79283
1289.205, 15.22598
1289.687, 14.80491
1290.169, 15.15863
1290.651, 15.66452
1291.134, 15.71216
1291.616, 15.46822
1292.098, 15.51926
1292.580, 15.92505
1293.062, 15.78438
1293.544, 15.02336
1294.026, 14.53156
1294.508, 15.44743
1294.990, 16.28168
1295.473, 15.95701
1295.955, 15.14818
1296.437, 14.66145
1296.919, 14.48367
1297.401, 14.60064
1297.883, 14.98492
1298.365, 15.36919
1298.847, 15.65526
1299.329, 15.86055
1299.812, 15.98601
1300.294, 16.05658
1300.776, 16.15815
1301.258, 16.21532
1301.740, 15.87591
1302.222, 15.25724
1302.704, 14.95170
1303.186, 15.42971
1303.669, 15.86477
1304.151, 16.20990
1304.633, 16.46386
##END=



