##NAMES=Andradite
##RRUFFID=R070722
##IDEAL CHEMISTRY=Ca_3_Fe^3+^_2_(SiO_4_)_3_
##LOCALITY=Otjosondu, Namibia
##OWNER=RRUFF
##SOURCE=Royal Ontario Museum
##DESCRIPTION=Dark red-brown to orange semi-transparent druse of crystals associated with quartz.
##STATUS=The identification of this mineral is confirmed by single-crystal X-ray diffraction and chemical analysis.
##URL=rruff.info/R070722
##MEASURED CHEMISTRY=(Ca_1.77_Mn^2+^_1.27_Mg_0.02_)_Σ=3.06_(Fe^3+^_1.58_Al^3+^_0.38_Ti_0.01_)_Σ=1.97_(SiO_4_)_3_
80.11163, 0.0000000E+00
80.59375, 604.2974
81.07587, 604.1212
81.55798, 601.7978
82.04010, 597.4240
82.52222, 591.4656
83.00433, 580.4253
83.48645, 569.5983
83.96857, 563.0687
84.45068, 564.2719
84.93280, 568.1781
85.41492, 573.7720
85.89703, 581.4101
86.37915, 587.2829
86.86127, 589.1943
87.34338, 587.8706
87.82550, 584.6505
88.30762, 576.8702
88.78973, 568.8793
89.27185, 564.2338
89.75397, 561.6727
90.23608, 565.6905
90.71819, 588.5612
91.20031, 627.1160
91.68243, 658.2623
92.16454, 654.4136
92.64666, 628.3065
93.12878, 611.6052
93.61089, 625.2578
94.09301, 655.2827
94.57513, 667.9273
95.05724, 660.7200
95.53936, 645.7394
96.02148, 637.8836
96.50359, 636.9894
96.98571, 637.5822
97.46783, 632.7389
97.94994, 623.3218
98.43206, 628.2552
98.91418, 652.9588
99.39629, 691.3477
99.87841, 726.1279
100.3605, 757.5831
100.8426, 783.7297
101.3248, 798.4597
101.8069, 796.0645
102.2890, 804.6270
102.7711, 834.5875
103.2532, 889.6827
103.7353, 932.2321
104.2175, 955.7633
104.6996, 971.6847
105.1817, 999.8820
105.6638, 1041.265
106.1459, 1093.416
106.6280, 1154.691
107.1102, 1220.266
107.5923, 1302.950
108.0744, 1410.784
108.5565, 1540.554
109.0386, 1660.952
109.5207, 1766.808
110.0029, 1867.136
110.4850, 1967.404
110.9671, 2059.815
111.4492, 2161.382
111.9313, 2276.409
112.4134, 2407.523
112.8956, 2543.185
113.3777, 2674.136
113.8598, 2809.774
114.3419, 2964.602
114.8240, 3155.476
115.3061, 3356.122
115.7883, 3551.142
116.2704, 3735.980
116.7525, 3926.284
117.2346, 4136.277
117.7167, 4358.743
118.1988, 4568.787
118.6810, 4742.536
119.1631, 4906.974
119.6452, 5085.186
120.1273, 5302.812
120.6094, 5524.701
121.0915, 5726.910
121.5737, 5909.195
122.0558, 6090.503
122.5379, 6300.277
123.0200, 6517.598
123.5021, 6704.724
123.9842, 6833.684
124.4664, 6926.763
124.9485, 7002.711
125.4306, 7055.910
125.9127, 7115.338
126.3948, 7222.451
126.8769, 7368.729
127.3591, 7513.819
127.8412, 7623.404
128.3233, 7710.475
128.8054, 7804.277
129.2875, 7911.220
129.7696, 8019.243
130.2518, 8105.785
130.7339, 8178.701
131.2160, 8254.235
131.6981, 8329.882
132.1802, 8404.226
132.6623, 8470.932
133.1445, 8516.309
133.6266, 8547.170
134.1087, 8613.704
134.5908, 8723.785
135.0729, 8849.517
135.5550, 8946.866
136.0372, 9013.037
136.5193, 9067.852
137.0014, 9113.420
137.4835, 9146.192
137.9656, 9208.386
138.4477, 9315.727
138.9299, 9449.513
139.4120, 9548.707
139.8941, 9612.185
140.3762, 9645.725
140.8583, 9646.651
141.3404, 9598.962
141.8225, 9570.237
142.3047, 9576.373
142.7868, 9618.320
143.2689, 9658.277
143.7510, 9695.501
144.2331, 9731.536
144.7152, 9768.385
145.1974, 9808.512
145.6795, 9846.468
146.1616, 9881.613
146.6437, 9915.091
147.1258, 9941.884
147.6079, 9955.280
148.0901, 9962.145
148.5722, 9980.804
149.0543, 10029.51
149.5364, 10073.82
150.0185, 10098.15
150.5006, 10054.18
150.9828, 10046.95
151.4649, 10099.79
151.9470, 10205.85
152.4291, 10287.64
152.9112, 10322.12
153.3933, 10341.84
153.8755, 10370.14
154.3576, 10432.46
154.8397, 10480.21
155.3218, 10493.96
155.8039, 10465.47
156.2860, 10455.47
156.7682, 10483.98
157.2503, 10533.96
157.7324, 10584.69
158.2145, 10645.75
158.6966, 10695.12
159.1787, 10720.14
159.6609, 10706.43
160.1430, 10698.09
160.6251, 10710.44
161.1072, 10738.21
161.5893, 10769.46
162.0714, 10810.62
162.5536, 10847.98
163.0357, 10872.26
163.5178, 10877.68
163.9999, 10874.22
164.4820, 10866.94
164.9641, 10855.32
165.4463, 10835.30
165.9284, 10778.46
166.4105, 10720.62
166.8926, 10700.41
167.3747, 10768.39
167.8568, 10852.42
168.3390, 10904.08
168.8211, 10919.40
169.3032, 10926.53
169.7853, 10941.04
170.2674, 10959.64
170.7495, 10976.73
171.2317, 10988.96
171.7138, 10998.83
172.1959, 11007.94
172.6780, 11015.72
173.1601, 11025.85
173.6422, 11048.95
174.1244, 11079.44
174.6065, 11098.42
175.0886, 11082.18
175.5707, 11050.88
176.0528, 11032.59
176.5349, 11030.83
177.0171, 11047.33
177.4992, 11101.34
177.9813, 11186.62
178.4634, 11254.69
178.9455, 11246.62
179.4276, 11192.00
179.9098, 11159.54
180.3919, 11182.68
180.8740, 11233.49
181.3561, 11269.16
181.8382, 11289.11
182.3203, 11297.18
182.8025, 11290.60
183.2846, 11273.20
183.7667, 11259.88
184.2488, 11257.24
184.7309, 11263.98
185.2130, 11268.92
185.6951, 11266.51
186.1773, 11284.83
186.6594, 11403.50
187.1415, 11608.49
187.6236, 11750.76
188.1057, 11708.04
188.5878, 11520.90
189.0700, 11381.58
189.5521, 11312.88
190.0342, 11293.28
190.5163, 11292.04
190.9984, 11309.20
191.4805, 11332.73
191.9627, 11351.49
192.4448, 11366.35
192.9269, 11393.36
193.4090, 11440.74
193.8911, 11498.45
194.3732, 11533.20
194.8554, 11541.89
195.3375, 11547.53
195.8196, 11581.63
196.3017, 11645.69
196.7838, 11680.36
197.2659, 11656.98
197.7481, 11588.36
198.2302, 11563.05
198.7123, 11590.02
199.1944, 11635.65
199.6765, 11660.13
200.1586, 11661.54
200.6408, 11659.70
201.1229, 11658.66
201.6050, 11658.27
202.0871, 11668.65
202.5692, 11692.68
203.0513, 11722.57
203.5335, 11743.86
204.0156, 11753.62
204.4977, 11765.86
204.9798, 11784.07
205.4619, 11806.38
205.9440, 11848.73
206.4262, 11921.57
206.9083, 12006.93
207.3904, 12054.81
207.8725, 12052.90
208.3546, 12046.49
208.8367, 12067.08
209.3189, 12126.31
209.8010, 12161.19
210.2831, 12157.04
210.7652, 12125.89
211.2473, 12122.80
211.7294, 12156.76
212.2116, 12201.80
212.6937, 12237.09
213.1758, 12258.19
213.6579, 12287.14
214.1400, 12330.83
214.6221, 12388.36
215.1043, 12439.05
215.5864, 12484.75
216.0685, 12522.80
216.5506, 12544.86
217.0327, 12536.95
217.5148, 12549.80
217.9970, 12596.58
218.4791, 12677.97
218.9612, 12774.04
219.4433, 12894.17
219.9254, 13017.51
220.4075, 13117.13
220.8897, 13188.91
221.3718, 13242.17
221.8539, 13274.18
222.3360, 13278.94
222.8181, 13290.78
223.3002, 13307.94
223.7824, 13332.97
224.2645, 13373.75
224.7466, 13447.01
225.2287, 13508.12
225.7108, 13536.25
226.1929, 13513.74
226.6750, 13509.63
227.1572, 13535.83
227.6393, 13577.26
228.1214, 13593.95
228.6035, 13575.42
229.0856, 13547.77
229.5677, 13524.24
230.0499, 13512.02
230.5320, 13487.17
231.0141, 13442.07
231.4962, 13383.35
231.9783, 13339.51
232.4604, 13324.43
232.9426, 13306.66
233.4247, 13265.11
233.9068, 13186.25
234.3889, 13112.63
234.8710, 13048.10
235.3531, 12991.88
235.8353, 12942.36
236.3174, 12903.99
236.7995, 12867.66
237.2816, 12826.81
237.7637, 12780.83
238.2458, 12731.94
238.7280, 12680.73
239.2101, 12627.22
239.6922, 12567.48
240.1743, 12488.02
240.6564, 12415.55
241.1385, 12378.03
241.6207, 12398.89
242.1028, 12411.66
242.5849, 12399.51
243.0670, 12359.22
243.5491, 12333.99
244.0313, 12327.72
244.5134, 12333.21
244.9955, 12345.55
245.4776, 12380.72
245.9597, 12394.33
246.4418, 12366.89
246.9240, 12285.88
247.4061, 12238.81
247.8882, 12242.27
248.3703, 12268.23
248.8524, 12274.76
249.3345, 12246.55
249.8167, 12225.63
250.2988, 12229.26
250.7809, 12269.88
251.2630, 12283.50
251.7451, 12256.53
252.2272, 12210.26
252.7094, 12183.90
253.1915, 12187.53
253.6736, 12193.45
254.1557, 12191.64
254.6378, 12179.59
255.1199, 12166.79
255.6021, 12150.15
256.0842, 12134.36
256.5663, 12133.09
257.0484, 12160.20
257.5305, 12177.86
258.0126, 12162.96
258.4948, 12090.32
258.9769, 12058.81
259.4590, 12084.83
259.9411, 12147.14
260.4232, 12188.79
260.9053, 12205.00
261.3875, 12209.72
261.8696, 12205.45
262.3517, 12182.64
262.8338, 12184.90
263.3159, 12229.15
263.7980, 12296.40
264.2802, 12316.18
264.7623, 12269.58
265.2444, 12213.20
265.7265, 12175.53
266.2086, 12154.55
266.6907, 12163.45
267.1729, 12213.00
267.6550, 12290.84
268.1371, 12353.86
268.6192, 12402.25
269.1013, 12433.38
269.5834, 12440.21
270.0656, 12416.29
270.5477, 12397.93
271.0298, 12391.50
271.5119, 12393.76
271.9940, 12389.77
272.4761, 12377.37
272.9583, 12364.84
273.4404, 12360.11
273.9225, 12365.75
274.4046, 12364.25
274.8867, 12346.20
275.3688, 12320.04
275.8510, 12329.47
276.3331, 12384.10
276.8152, 12445.71
277.2973, 12479.89
277.7794, 12483.35
278.2615, 12491.89
278.7437, 12515.39
279.2258, 12548.81
279.7079, 12567.27
280.1900, 12567.91
280.6721, 12564.97
281.1542, 12571.99
281.6364, 12589.55
282.1185, 12605.89
282.6006, 12618.06
283.0827, 12627.41
283.5648, 12638.42
284.0469, 12650.85
284.5291, 12666.56
285.0112, 12684.93
285.4933, 12706.17
285.9754, 12739.36
286.4575, 12790.94
286.9396, 12854.56
287.4217, 12908.29
287.9038, 12951.40
288.3860, 12987.98
288.8681, 13015.57
289.3502, 13035.89
289.8323, 13069.22
290.3144, 13123.24
290.7965, 13193.00
291.2787, 13272.15
291.7608, 13362.87
292.2429, 13441.09
292.7250, 13472.74
293.2071, 13467.81
293.6892, 13475.61
294.1714, 13515.04
294.6535, 13576.29
295.1356, 13640.78
295.6177, 13709.19
296.0998, 13778.95
296.5819, 13846.98
297.0641, 13915.35
297.5462, 13988.93
298.0283, 14069.24
298.5104, 14155.82
298.9925, 14260.18
299.4746, 14383.01
299.9568, 14485.08
300.4389, 14509.30
300.9210, 14486.04
301.4031, 14486.99
301.8852, 14549.49
302.3673, 14642.11
302.8495, 14731.31
303.3316, 14815.97
303.8137, 14892.13
304.2958, 14952.89
304.7779, 15002.36
305.2600, 15046.84
305.7422, 15090.96
306.2243, 15129.64
306.7064, 15151.03
307.1885, 15156.55
307.6706, 15170.61
308.1527, 15233.92
308.6349, 15311.71
309.1170, 15354.61
309.5991, 15308.50
310.0812, 15248.08
310.5633, 15234.56
311.0454, 15265.14
311.5276, 15290.68
312.0097, 15281.03
312.4918, 15250.84
312.9739, 15216.18
313.4560, 15183.60
313.9381, 15147.49
314.4203, 15097.02
314.9024, 15033.90
315.3845, 14988.23
315.8666, 14988.92
316.3487, 15007.20
316.8308, 15015.88
317.3130, 14993.42
317.7951, 14972.00
318.2772, 14962.24
318.7593, 14963.98
319.2414, 14975.40
319.7235, 15007.21
320.2057, 15042.72
320.6878, 15068.76
321.1699, 15074.65
321.6520, 15078.90
322.1341, 15075.02
322.6162, 15066.63
323.0984, 15089.18
323.5805, 15181.06
324.0626, 15287.98
324.5447, 15373.34
325.0268, 15409.91
325.5089, 15449.69
325.9911, 15502.41
326.4732, 15566.19
326.9553, 15625.56
327.4374, 15664.35
327.9195, 15708.03
328.4016, 15771.85
328.8838, 15888.42
329.3659, 15983.06
329.8480, 16042.08
330.3301, 16071.11
330.8122, 16108.18
331.2943, 16154.45
331.7765, 16207.43
332.2586, 16267.82
332.7407, 16350.70
333.2228, 16412.65
333.7049, 16440.07
334.1870, 16444.74
334.6692, 16477.30
335.1513, 16552.85
335.6334, 16633.36
336.1155, 16694.15
336.5976, 16723.72
337.0797, 16773.34
337.5619, 16851.79
338.0440, 16949.18
338.5261, 17037.64
339.0082, 17118.90
339.4903, 17184.85
339.9724, 17219.47
340.4546, 17215.70
340.9367, 17244.24
341.4188, 17311.76
341.9009, 17410.20
342.3830, 17528.19
342.8651, 17666.95
343.3473, 17811.71
343.8294, 17952.52
344.3115, 18091.69
344.7936, 18236.39
345.2757, 18387.55
345.7578, 18547.87
346.2400, 18722.88
346.7221, 18911.07
347.2042, 19118.52
347.6863, 19356.25
348.1684, 19617.08
348.6505, 19876.65
349.1327, 20133.14
349.6148, 20400.88
350.0969, 20698.83
350.5790, 21023.51
351.0611, 21363.01
351.5432, 21712.87
352.0254, 22070.97
352.5075, 22439.96
352.9896, 22818.02
353.4717, 23205.84
353.9538, 23587.38
354.4359, 23978.39
354.9181, 24399.13
355.4002, 24887.42
355.8823, 25392.96
356.3644, 25861.75
356.8465, 26293.04
357.3286, 26734.74
357.8108, 27215.93
358.2929, 27730.08
358.7750, 28277.88
359.2571, 28881.88
359.7392, 29500.84
360.2213, 30121.50
360.7035, 30742.25
361.1856, 31344.78
361.6677, 31943.41
362.1498, 32507.71
362.6319, 33018.23
363.1140, 33477.39
363.5962, 33872.98
364.0783, 34228.54
364.5604, 34531.62
365.0425, 34696.55
365.5246, 34651.60
366.0067, 34494.81
366.4889, 34287.92
366.9710, 34122.29
367.4531, 33809.25
367.9352, 33284.28
368.4173, 32584.25
368.8994, 31867.65
369.3815, 31161.17
369.8636, 30423.54
370.3458, 29643.12
370.8279, 28775.42
371.3100, 27928.13
371.7921, 27088.45
372.2742, 26267.11
372.7563, 25488.64
373.2385, 24767.47
373.7206, 24075.58
374.2027, 23407.83
374.6848, 22766.29
375.1669, 22150.74
375.6490, 21560.37
376.1312, 20987.67
376.6133, 20449.59
377.0954, 19913.81
377.5775, 19409.38
378.0596, 18929.13
378.5417, 18481.96
379.0239, 18101.25
379.5060, 17798.32
379.9881, 17537.99
380.4702, 17286.77
380.9523, 17042.71
381.4344, 16812.28
381.9166, 16593.50
382.3987, 16390.18
382.8808, 16201.45
383.3629, 16028.94
383.8450, 15867.07
384.3271, 15719.16
384.8093, 15579.48
385.2914, 15433.00
385.7735, 15265.71
386.2556, 15100.02
386.7377, 14980.95
387.2198, 14903.00
387.7020, 14819.52
388.1841, 14680.59
388.6662, 14523.01
389.1483, 14395.60
389.6304, 14320.76
390.1125, 14264.46
390.5947, 14202.76
391.0768, 14138.34
391.5589, 14080.79
392.0410, 14040.03
392.5231, 14005.27
393.0052, 13967.46
393.4874, 13922.25
393.9695, 13881.42
394.4516, 13857.29
394.9337, 13839.32
395.4158, 13808.28
395.8979, 13745.65
396.3801, 13679.50
396.8622, 13620.54
397.3443, 13570.10
397.8264, 13523.81
398.3085, 13467.92
398.7906, 13420.35
399.2728, 13403.93
399.7549, 13462.50
400.2370, 13503.63
400.7191, 13509.57
401.2012, 13479.00
401.6833, 13433.01
402.1655, 13353.97
402.6476, 13278.04
403.1297, 13239.38
403.6118, 13254.74
404.0939, 13267.88
404.5760, 13272.64
405.0582, 13268.87
405.5403, 13250.18
406.0224, 13208.88
406.5045, 13175.27
406.9866, 13178.20
407.4688, 13220.60
407.9509, 13243.60
408.4330, 13236.98
408.9151, 13213.51
409.3972, 13196.02
409.8793, 13184.55
410.3615, 13182.49
410.8436, 13200.13
411.3257, 13229.70
411.8078, 13243.06
412.2899, 13236.80
412.7720, 13222.57
413.2542, 13209.53
413.7363, 13199.27
414.2184, 13196.19
414.7005, 13214.04
415.1826, 13234.41
415.6647, 13232.53
416.1469, 13207.42
416.6290, 13179.15
417.1111, 13159.74
417.5932, 13146.21
418.0753, 13135.33
418.5574, 13122.02
419.0396, 13113.77
419.5217, 13113.56
420.0038, 13121.27
420.4859, 13136.57
420.9680, 13173.02
421.4501, 13208.90
421.9323, 13228.56
422.4144, 13222.68
422.8965, 13211.05
423.3786, 13195.96
423.8607, 13178.11
424.3428, 13158.84
424.8250, 13121.16
425.3071, 13098.31
425.7892, 13106.00
426.2713, 13163.73
426.7534, 13199.34
427.2355, 13197.17
427.7177, 13182.42
428.1998, 13195.89
428.6819, 13257.30
429.1640, 13300.62
429.6461, 13300.81
430.1282, 13258.64
430.6104, 13233.31
431.0925, 13225.78
431.5746, 13231.11
432.0567, 13250.10
432.5388, 13283.18
433.0209, 13305.38
433.5031, 13307.88
433.9852, 13299.23
434.4673, 13298.09
434.9494, 13304.66
435.4315, 13320.43
435.9136, 13359.85
436.3958, 13409.64
436.8779, 13433.09
437.3600, 13420.61
437.8421, 13394.12
438.3242, 13368.74
438.8063, 13347.65
439.2885, 13339.55
439.7706, 13359.29
440.2527, 13387.83
440.7348, 13407.17
441.2169, 13415.04
441.6990, 13422.48
442.1812, 13433.50
442.6633, 13448.01
443.1454, 13466.11
443.6275, 13502.98
444.1096, 13528.22
444.5917, 13517.77
445.0739, 13475.57
445.5560, 13459.27
446.0381, 13502.71
446.5202, 13560.13
447.0023, 13604.73
447.4844, 13633.99
447.9666, 13651.43
448.4487, 13651.68
448.9308, 13640.91
449.4129, 13635.48
449.8950, 13637.43
450.3771, 13641.90
450.8592, 13646.53
451.3413, 13650.35
451.8235, 13660.18
452.3056, 13676.17
452.7877, 13698.18
453.2698, 13736.77
453.7519, 13795.95
454.2340, 13819.71
454.7162, 13772.77
455.1983, 13682.05
455.6804, 13647.05
456.1625, 13670.06
456.6446, 13706.95
457.1267, 13736.69
457.6089, 13751.54
458.0910, 13724.01
458.5731, 13628.50
459.0552, 13525.54
459.5373, 13499.79
460.0194, 13531.13
460.5016, 13552.45
460.9837, 13506.09
461.4658, 13443.93
461.9479, 13415.09
462.4300, 13430.41
462.9121, 13449.42
463.3943, 13452.55
463.8764, 13447.07
464.3585, 13442.28
464.8406, 13434.25
465.3227, 13433.87
465.8048, 13444.58
466.2870, 13466.46
466.7691, 13496.65
467.2512, 13549.67
467.7333, 13600.81
468.2154, 13632.81
468.6975, 13607.25
469.1797, 13628.65
469.6618, 13734.64
470.1439, 13880.92
470.6260, 13939.42
471.1081, 13869.56
471.5902, 13809.74
472.0724, 13829.01
472.5545, 13934.40
473.0366, 13995.45
473.5187, 14001.39
474.0008, 13991.67
474.4829, 14018.51
474.9651, 14078.46
475.4472, 14128.44
475.9293, 14148.46
476.4114, 14155.52
476.8935, 14185.07
477.3756, 14235.87
477.8578, 14293.07
478.3399, 14347.17
478.8220, 14400.64
479.3041, 14454.49
479.7862, 14503.81
480.2683, 14567.03
480.7505, 14681.86
481.2326, 14820.44
481.7147, 14924.74
482.1968, 14926.48
482.6789, 14924.65
483.1610, 14958.78
483.6432, 15029.29
484.1253, 15160.30
484.6074, 15470.43
485.0895, 15784.33
485.5716, 15952.01
486.0537, 15786.88
486.5359, 15680.14
487.0180, 15678.76
487.5001, 15763.18
487.9822, 15847.33
488.4643, 15941.51
488.9464, 16017.52
489.4286, 16049.69
489.9107, 16019.66
490.3928, 16053.58
490.8749, 16176.04
491.3570, 16321.12
491.8391, 16388.59
492.3213, 16378.60
492.8034, 16361.04
493.2855, 16358.87
493.7676, 16367.31
494.2497, 16377.14
494.7318, 16388.35
495.2140, 16394.43
495.6961, 16396.97
496.1782, 16389.26
496.6603, 16351.75
497.1424, 16257.49
497.6245, 16181.66
498.1067, 16221.84
498.5888, 16326.13
499.0709, 16374.41
499.5530, 16238.62
500.0351, 16093.13
500.5172, 16036.36
500.9994, 16087.68
501.4815, 16145.33
501.9636, 16196.71
502.4457, 16238.72
502.9278, 16268.49
503.4099, 16260.07
503.8921, 16272.85
504.3742, 16318.52
504.8563, 16390.45
505.3384, 16460.81
505.8205, 16530.22
506.3026, 16598.89
506.7848, 16657.80
507.2669, 16699.96
507.7490, 16799.64
508.2311, 16971.15
508.7132, 17169.37
509.1953, 17330.69
509.6775, 17459.01
510.1596, 17607.66
510.6417, 17791.37
511.1238, 18005.80
511.6059, 18247.74
512.0880, 18516.59
512.5701, 18796.66
513.0522, 19069.40
513.5344, 19351.77
514.0165, 19668.88
514.4986, 20032.72
514.9807, 20407.54
515.4628, 20772.46
515.9449, 21134.76
516.4271, 21501.29
516.9092, 21867.60
517.3913, 22249.64
517.8734, 22660.41
518.3555, 23101.88
518.8376, 23536.98
519.3198, 23987.59
519.8019, 24412.37
520.2840, 24788.98
520.7661, 25091.16
521.2482, 25400.53
521.7303, 25775.12
522.2125, 26128.59
522.6946, 26249.26
523.1767, 26104.48
523.6588, 25869.58
524.1409, 25606.79
524.6230, 25315.73
525.1052, 24952.16
525.5873, 24512.45
526.0694, 24027.37
526.5515, 23523.26
527.0336, 23000.80
527.5157, 22459.07
527.9979, 21895.90
528.4800, 21339.49
528.9621, 20822.84
529.4442, 20343.91
529.9263, 19879.97
530.4084, 19411.42
530.8906, 18964.16
531.3727, 18562.40
531.8548, 18205.62
532.3369, 17881.36
532.8190, 17596.08
533.3011, 17334.51
533.7833, 17087.21
534.2654, 16831.02
534.7475, 16613.23
535.2296, 16447.38
535.7117, 16321.76
536.1938, 16196.81
536.6760, 16067.77
537.1581, 15945.13
537.6402, 15832.97
538.1223, 15732.62
538.6044, 15630.17
539.0865, 15519.31
539.5687, 15422.39
540.0508, 15370.56
540.5329, 15358.99
541.0150, 15359.23
541.4971, 15371.75
541.9792, 15382.87
542.4614, 15377.30
542.9435, 15353.43
543.4256, 15303.30
543.9077, 15189.57
544.3898, 15065.98
544.8719, 14992.48
545.3541, 14982.37
545.8362, 14966.46
546.3183, 14891.18
546.8004, 14800.36
547.2825, 14741.18
547.7646, 14742.78
548.2468, 14757.14
548.7289, 14792.63
549.2110, 14838.00
549.6931, 14843.46
550.1752, 14775.17
550.6573, 14713.18
551.1395, 14695.16
551.6216, 14732.71
552.1037, 14743.28
552.5858, 14719.29
553.0679, 14685.48
553.5500, 14671.06
554.0322, 14675.49
554.5143, 14680.02
554.9964, 14679.89
555.4785, 14678.28
555.9606, 14689.49
556.4427, 14708.60
556.9249, 14707.87
557.4070, 14653.32
557.8891, 14578.58
558.3712, 14521.16
558.8533, 14485.99
559.3354, 14455.12
559.8176, 14422.06
560.2997, 14386.03
560.7818, 14346.05
561.2639, 14277.19
561.7460, 14232.17
562.2281, 14242.38
562.7103, 14288.71
563.1924, 14298.46
563.6745, 14244.76
564.1566, 14189.37
564.6387, 14155.25
565.1208, 14144.93
565.6030, 14130.41
566.0851, 14110.99
566.5672, 14090.20
567.0493, 14070.05
567.5314, 14051.26
568.0135, 14039.27
568.4957, 14038.30
568.9778, 14039.63
569.4599, 14026.38
569.9420, 14001.87
570.4241, 13980.54
570.9063, 13966.84
571.3884, 13961.85
571.8705, 13963.10
572.3526, 13970.59
572.8347, 13996.60
573.3168, 14073.51
573.7990, 14157.43
574.2811, 14208.84
574.7632, 14182.39
575.2453, 14177.17
575.7274, 14221.71
576.2095, 14295.36
576.6917, 14357.66
577.1738, 14410.38
577.6559, 14447.94
578.1380, 14462.78
578.6201, 14456.99
579.1022, 14472.24
579.5844, 14517.54
580.0665, 14550.05
580.5486, 14528.31
581.0307, 14459.84
581.5128, 14393.34
581.9949, 14328.56
582.4771, 14287.13
582.9592, 14308.83
583.4413, 14375.48
583.9234, 14442.13
584.4055, 14532.62
584.8876, 14581.81
585.3698, 14510.44
585.8519, 14341.17
586.3340, 14194.25
586.8161, 14092.85
587.2982, 14051.02
587.7803, 14091.81
588.2625, 14270.86
588.7446, 14392.56
589.2267, 14433.91
589.7088, 14425.29
590.1909, 14395.25
590.6730, 14337.68
591.1552, 14273.81
591.6373, 14199.08
592.1194, 14124.95
592.6015, 14086.79
593.0836, 14085.53
593.5657, 14102.89
594.0479, 14140.32
594.5300, 14187.80
595.0121, 14217.66
595.4942, 14229.06
595.9763, 14230.57
596.4584, 14222.37
596.9406, 14210.88
597.4227, 14205.35
597.9048, 14213.92
598.3869, 14218.31
598.8690, 14204.01
599.3511, 14180.29
599.8333, 14164.91
600.3154, 14172.26
600.7975, 14177.60
601.2796, 14172.39
601.7617, 14157.23
602.2438, 14151.90
602.7260, 14165.86
603.2081, 14174.34
603.6902, 14156.24
604.1723, 14108.32
604.6544, 14080.09
605.1365, 14077.19
605.6187, 14085.20
606.1008, 14086.12
606.5829, 14081.69
607.0650, 14079.10
607.5471, 14082.42
608.0292, 14086.51
608.5114, 14086.62
608.9935, 14082.51
609.4756, 14073.55
609.9577, 14055.70
610.4398, 14035.53
610.9219, 14019.19
611.4041, 14008.60
611.8862, 13988.78
612.3683, 13935.67
612.8504, 13885.52
613.3325, 13867.15
613.8146, 13903.70
614.2968, 13925.83
614.7789, 13927.18
615.2610, 13915.10
615.7431, 13903.88
616.2252, 13894.09
616.7073, 13879.00
617.1895, 13850.73
617.6716, 13817.82
618.1537, 13810.48
618.6358, 13826.31
619.1179, 13836.29
619.6000, 13801.27
620.0822, 13757.38
620.5643, 13759.48
621.0464, 13825.13
621.5285, 13872.74
622.0106, 13848.47
622.4927, 13786.84
622.9749, 13724.68
623.4570, 13652.90
623.9391, 13601.71
624.4212, 13580.57
624.9033, 13582.02
625.3854, 13589.95
625.8676, 13610.23
626.3497, 13623.75
626.8318, 13623.51
627.3139, 13610.27
627.7960, 13586.28
628.2781, 13548.78
628.7603, 13522.48
629.2424, 13542.22
629.7245, 13588.08
630.2066, 13607.19
630.6887, 13590.17
631.1708, 13558.41
631.6530, 13523.05
632.1351, 13487.27
632.6172, 13455.73
633.0993, 13436.81
633.5814, 13416.09
634.0635, 13376.88
634.5457, 13329.14
635.0278, 13311.28
635.5099, 13353.42
635.9920, 13396.77
636.4741, 13425.69
636.9562, 13440.09
637.4384, 13439.25
637.9205, 13417.69
638.4026, 13395.73
638.8847, 13391.72
639.3668, 13403.71
639.8489, 13415.84
640.3311, 13427.29
640.8132, 13434.38
641.2953, 13429.79
641.7774, 13417.64
642.2595, 13406.80
642.7416, 13398.76
643.2238, 13395.12
643.7059, 13401.34
644.1880, 13413.74
644.6701, 13419.92
645.1522, 13414.77
645.6343, 13403.83
646.1165, 13387.48
646.5986, 13364.95
647.0807, 13345.92
647.5628, 13329.86
648.0449, 13318.08
648.5270, 13310.07
649.0092, 13305.29
649.4913, 13316.84
649.9734, 13351.56
650.4555, 13386.00
650.9376, 13380.50
651.4197, 13346.12
651.9019, 13322.21
652.3840, 13325.94
652.8661, 13340.85
653.3482, 13360.13
653.8303, 13378.79
654.3124, 13381.90
654.7946, 13330.11
655.2767, 13289.88
655.7588, 13303.92
656.2408, 13381.30
656.7230, 13430.24
657.2051, 13438.83
657.6872, 13427.19
658.1693, 13401.71
658.6514, 13354.66
659.1335, 13333.38
659.6157, 13346.93
660.0978, 13368.61
660.5799, 13357.60
661.0620, 13320.92
661.5441, 13298.44
662.0262, 13307.70
662.5084, 13324.99
662.9905, 13316.99
663.4726, 13293.24
663.9547, 13279.48
664.4368, 13314.05
664.9189, 13338.62
665.4011, 13304.87
665.8832, 13214.69
666.3653, 13163.06
666.8474, 13201.60
667.3295, 13249.31
667.8116, 13269.31
668.2938, 13252.02
668.7759, 13249.16
669.2580, 13267.00
669.7401, 13285.41
670.2222, 13279.42
670.7043, 13251.93
671.1865, 13230.29
671.6686, 13220.74
672.1507, 13217.40
672.6328, 13212.95
673.1149, 13209.23
673.5970, 13210.09
674.0792, 13228.50
674.5613, 13242.10
675.0434, 13226.82
675.5255, 13191.13
676.0076, 13179.75
676.4897, 13227.24
676.9719, 13276.68
677.4540, 13312.12
677.9361, 13334.72
678.4182, 13321.19
678.9003, 13253.84
679.3824, 13187.16
679.8646, 13172.37
680.3467, 13204.20
680.8288, 13219.23
681.3109, 13208.04
681.7930, 13194.51
682.2751, 13214.57
682.7573, 13251.73
683.2394, 13272.92
683.7215, 13260.83
684.2036, 13238.40
684.6857, 13213.32
685.1678, 13188.06
685.6500, 13167.41
686.1321, 13144.92
686.6142, 13136.86
687.0963, 13154.28
687.5784, 13193.18
688.0605, 13215.82
688.5427, 13218.21
689.0248, 13214.22
689.5069, 13208.92
689.9890, 13202.79
690.4711, 13209.00
690.9532, 13230.11
691.4354, 13233.82
691.9175, 13160.10
692.3996, 13057.86
692.8817, 13010.74
693.3638, 13048.97
693.8459, 13100.31
694.3281, 13131.90
694.8102, 13149.47
695.2923, 13160.34
695.7744, 13154.96
696.2565, 13157.62
696.7386, 13178.44
697.2208, 13207.72
697.7029, 13216.00
698.1850, 13193.98
698.6671, 13185.71
699.1492, 13218.96
699.6313, 13274.12
700.1135, 13268.38
700.5956, 13205.61
701.0777, 13154.74
701.5598, 13178.97
702.0419, 13233.16
702.5240, 13262.30
703.0062, 13260.69
703.4883, 13252.24
703.9704, 13247.70
704.4525, 13241.38
704.9346, 13227.80
705.4167, 13191.84
705.8989, 13175.30
706.3810, 13184.31
706.8631, 13208.01
707.3452, 13238.44
707.8273, 13279.51
708.3094, 13300.82
708.7916, 13293.50
709.2737, 13270.56
709.7558, 13248.33
710.2379, 13229.53
710.7200, 13223.25
711.2021, 13244.10
711.6843, 13271.33
712.1664, 13283.16
712.6485, 13284.19
713.1306, 13294.37
713.6127, 13334.92
714.0948, 13373.37
714.5770, 13398.15
715.0591, 13410.07
715.5412, 13392.78
716.0233, 13326.59
716.5054, 13266.35
716.9875, 13258.05
717.4697, 13301.23
717.9518, 13312.84
718.4339, 13285.03
718.9160, 13253.49
719.3981, 13258.50
719.8802, 13287.07
720.3624, 13315.28
720.8445, 13340.50
721.3266, 13358.70
721.8087, 13364.44
722.2908, 13362.65
722.7729, 13360.15
723.2551, 13355.17
723.7372, 13353.07
724.2193, 13351.14
724.7014, 13352.84
725.1835, 13373.54
725.6656, 13421.93
726.1478, 13451.31
726.6299, 13438.86
727.1120, 13397.49
727.5941, 13360.86
728.0762, 13329.19
728.5583, 13309.11
729.0405, 13311.14
729.5226, 13322.91
730.0047, 13335.48
730.4868, 13348.34
730.9689, 13354.19
731.4510, 13348.95
731.9332, 13337.52
732.4153, 13322.39
732.8974, 13302.02
733.3795, 13283.69
733.8616, 13265.49
734.3438, 13253.21
734.8259, 13256.59
735.3080, 13275.21
735.7901, 13282.83
736.2722, 13271.37
736.7543, 13263.02
737.2365, 13304.13
737.7186, 13366.97
738.2007, 13393.00
738.6828, 13328.76
739.1649, 13264.93
739.6470, 13250.51
740.1292, 13270.40
740.6113, 13290.53
741.0934, 13318.50
741.5755, 13328.60
742.0576, 13309.72
742.5397, 13269.31
743.0219, 13236.77
743.5040, 13210.71
743.9861, 13201.57
744.4682, 13221.39
744.9503, 13260.78
745.4324, 13296.43
745.9146, 13328.41
746.3967, 13355.73
746.8788, 13387.67
747.3609, 13407.59
747.8430, 13390.53
748.3251, 13326.08
748.8073, 13289.38
749.2894, 13325.25
749.7715, 13373.29
750.2536, 13395.46
750.7357, 13382.57
751.2178, 13372.95
751.7000, 13367.06
752.1821, 13363.44
752.6642, 13360.34
753.1463, 13358.04
753.6284, 13357.51
754.1105, 13358.66
754.5927, 13362.34
755.0748, 13379.86
755.5569, 13397.93
756.0390, 13395.79
756.5211, 13335.13
757.0032, 13288.79
757.4854, 13279.65
757.9675, 13299.14
758.4496, 13329.51
758.9317, 13385.09
759.4138, 13419.61
759.8959, 13414.24
760.3781, 13385.55
760.8602, 13388.21
761.3423, 13420.22
761.8244, 13449.59
762.3065, 13450.30
762.7886, 13443.83
763.2708, 13462.73
763.7529, 13502.51
764.2350, 13533.33
764.7171, 13540.41
765.1992, 13535.31
765.6813, 13514.59
766.1635, 13473.25
766.6456, 13470.20
767.1277, 13525.82
767.6098, 13586.08
768.0919, 13613.63
768.5740, 13609.03
769.0562, 13616.82
769.5383, 13638.43
770.0204, 13665.45
770.5025, 13688.12
770.9846, 13711.83
771.4667, 13750.01
771.9489, 13812.10
772.4310, 13857.21
772.9131, 13860.64
773.3952, 13838.89
773.8773, 13807.35
774.3594, 13737.26
774.8416, 13708.70
775.3237, 13740.21
775.8058, 13795.85
776.2879, 13828.68
776.7700, 13838.78
777.2521, 13841.54
777.7343, 13838.31
778.2164, 13833.98
778.6985, 13835.94
779.1806, 13842.16
779.6627, 13847.86
780.1448, 13852.28
780.6270, 13854.48
781.1091, 13853.91
781.5912, 13850.61
782.0733, 13843.48
782.5554, 13814.77
783.0375, 13811.01
783.5197, 13853.18
784.0018, 13924.41
784.4839, 13960.89
784.9660, 13961.59
785.4481, 13957.97
785.9302, 13964.11
786.4124, 13976.80
786.8945, 13991.48
787.3766, 14008.15
787.8587, 14026.08
788.3408, 14042.81
788.8229, 14062.80
789.3051, 14093.36
789.7872, 14136.57
790.2693, 14160.83
790.7514, 14155.29
791.2335, 14147.30
791.7156, 14148.16
792.1978, 14158.06
792.6799, 14187.49
793.1620, 14237.66
793.6441, 14287.39
794.1262, 14316.89
794.6083, 14334.65
795.0905, 14353.83
795.5726, 14376.51
796.0547, 14393.34
796.5368, 14381.32
797.0189, 14373.10
797.5010, 14396.73
797.9832, 14465.36
798.4653, 14535.40
798.9474, 14608.36
799.4295, 14679.71
799.9116, 14745.30
800.3937, 14805.21
800.8759, 14866.02
801.3580, 14930.42
801.8401, 14988.21
802.3222, 15024.14
802.8043, 15048.14
803.2864, 15073.55
803.7686, 15096.79
804.2507, 15135.73
804.7328, 15201.56
805.2149, 15285.36
805.6970, 15374.36
806.1791, 15467.84
806.6613, 15567.13
807.1434, 15676.97
807.6255, 15785.12
808.1076, 15865.79
808.5897, 15923.07
809.0718, 15982.52
809.5540, 16050.32
810.0361, 16124.37
810.5182, 16205.46
811.0003, 16290.66
811.4824, 16374.44
811.9645, 16448.93
812.4467, 16529.22
812.9288, 16623.04
813.4109, 16725.31
813.8930, 16819.95
814.3751, 16903.93
814.8572, 16998.87
815.3394, 17118.07
815.8215, 17247.09
816.3036, 17353.87
816.7857, 17441.87
817.2678, 17521.30
817.7499, 17586.50
818.2321, 17657.06
818.7142, 17755.02
819.1963, 17872.90
819.6784, 17974.06
820.1605, 18045.11
820.6426, 18105.42
821.1247, 18155.03
821.6068, 18196.39
822.0889, 18242.75
822.5710, 18293.77
823.0532, 18346.38
823.5353, 18408.11
824.0174, 18465.94
824.4995, 18503.45
824.9816, 18518.18
825.4637, 18499.97
825.9459, 18401.75
826.4280, 18305.86
826.9101, 18269.00
827.3922, 18297.03
827.8743, 18287.64
828.3564, 18226.11
828.8386, 18153.40
829.3207, 18084.97
829.8028, 18021.16
830.2849, 17961.22
830.7670, 17905.54
831.2491, 17848.27
831.7313, 17780.43
832.2134, 17712.42
832.6955, 17658.86
833.1776, 17620.42
833.6597, 17577.33
834.1418, 17517.27
834.6240, 17455.10
835.1061, 17398.24
835.5882, 17346.65
836.0703, 17296.25
836.5524, 17245.87
837.0345, 17204.01
837.5167, 17180.77
837.9988, 17170.79
838.4809, 17152.81
838.9630, 17126.11
839.4451, 17115.42
839.9272, 17154.42
840.4094, 17204.76
840.8915, 17231.51
841.3736, 17220.22
841.8557, 17235.99
842.3378, 17301.97
842.8199, 17368.90
843.3021, 17392.62
843.7842, 17370.16
844.2663, 17415.91
844.7484, 17536.47
845.2305, 17664.45
845.7126, 17731.86
846.1948, 17773.54
846.6769, 17843.10
847.1590, 17952.48
847.6411, 18047.32
848.1232, 18090.56
848.6053, 18124.17
849.0875, 18177.68
849.5696, 18255.48
850.0517, 18341.06
850.5338, 18439.55
851.0159, 18533.48
851.4980, 18601.95
851.9802, 18652.13
852.4623, 18713.13
852.9444, 18789.34
853.4265, 18851.27
853.9086, 18881.97
854.3907, 18883.82
854.8729, 18854.11
855.3550, 18779.58
855.8371, 18711.77
856.3192, 18657.87
856.8013, 18604.98
857.2834, 18547.12
857.7656, 18484.21
858.2477, 18396.49
858.7298, 18279.94
859.2119, 18167.89
859.6940, 18097.68
860.1761, 18049.08
860.6583, 17995.49
861.1404, 17932.43
861.6225, 17870.15
862.1046, 17807.15
862.5867, 17751.30
863.0688, 17713.44
863.5510, 17706.77
864.0331, 17657.66
864.5152, 17552.37
864.9973, 17448.35
865.4794, 17403.00
865.9615, 17399.86
866.4437, 17390.39
866.9258, 17367.71
867.4079, 17360.53
867.8900, 17394.88
868.3721, 17448.36
868.8542, 17506.83
869.3364, 17581.67
869.8185, 17619.08
870.3006, 17599.94
870.7827, 17574.94
871.2648, 17577.87
871.7469, 17609.01
872.2291, 17678.66
872.7112, 17789.28
873.1933, 17907.61
873.6754, 17987.20
874.1575, 18068.81
874.6396, 18203.97
875.1218, 18408.63
875.6039, 18611.81
876.0860, 18773.62
876.5681, 18950.52
877.0502, 19177.36
877.5323, 19459.25
878.0145, 19742.96
878.4966, 20028.38
878.9787, 20314.35
879.4608, 20591.95
879.9429, 20872.29
880.4250, 21174.35
880.9072, 21499.99
881.3893, 21840.69
881.8714, 22196.38
882.3535, 22558.33
882.8356, 22920.59
883.3177, 23282.23
883.7999, 23656.68
884.2820, 24060.50
884.7641, 24428.89
885.2462, 24721.22
885.7283, 24944.79
886.2104, 25139.95
886.6926, 25305.02
887.1747, 25393.64
887.6568, 25385.27
888.1389, 25281.85
888.6210, 25075.72
889.1031, 24761.72
889.5853, 24387.88
890.0674, 23941.63
890.5495, 23473.02
891.0316, 23006.55
891.5137, 22537.86
891.9958, 22039.64
892.4780, 21511.65
892.9601, 21013.55
893.4422, 20595.79
893.9243, 20216.20
894.4064, 19833.99
894.8885, 19453.89
895.3707, 19111.76
895.8528, 18831.02
896.3349, 18574.24
896.8170, 18336.75
897.2991, 18116.16
897.7813, 17889.64
898.2634, 17658.79
898.7455, 17442.83
899.2276, 17260.77
899.7097, 17096.30
900.1918, 16929.54
900.6740, 16765.00
901.1561, 16618.97
901.6382, 16510.56
902.1203, 16407.91
902.6024, 16299.58
903.0845, 16190.25
903.5667, 16100.56
904.0488, 16031.91
904.5309, 15972.65
905.0130, 15923.24
905.4951, 15875.15
905.9772, 15803.37
906.4594, 15720.94
906.9415, 15661.82
907.4236, 15660.76
907.9057, 15660.95
908.3878, 15644.03
908.8699, 15614.10
909.3521, 15580.68
909.8342, 15546.21
910.3163, 15493.05
910.7984, 15408.01
911.2805, 15321.60
911.7626, 15287.81
912.2448, 15293.60
912.7269, 15310.47
913.2090, 15347.42
913.6911, 15362.81
914.1732, 15323.91
914.6553, 15256.70
915.1375, 15193.09
915.6196, 15116.34
916.1017, 15100.31
916.5838, 15169.73
917.0659, 15256.41
917.5480, 15270.46
918.0302, 15227.88
918.5123, 15169.86
918.9944, 15098.12
919.4765, 15041.25
919.9586, 15015.88
920.4407, 15015.29
920.9229, 15038.06
921.4050, 15107.09
921.8871, 15134.96
922.3692, 15111.84
922.8513, 15069.01
923.3334, 15029.25
923.8156, 14994.07
924.2977, 14970.15
924.7798, 14958.26
925.2619, 14948.61
925.7440, 14929.50
926.2261, 14913.33
926.7083, 14911.34
927.1904, 14927.32
927.6725, 14943.10
928.1546, 14961.95
928.6367, 14974.18
929.1188, 14969.60
929.6010, 14953.18
930.0831, 14950.12
930.5652, 14959.94
931.0473, 14975.91
931.5294, 15004.19
932.0115, 15028.21
932.4937, 15028.09
932.9758, 15007.27
933.4579, 15007.25
933.9400, 15041.43
934.4221, 15075.19
934.9042, 15098.67
935.3864, 15113.44
935.8685, 15124.42
936.3506, 15131.61
936.8327, 15136.69
937.3148, 15139.21
937.7969, 15140.87
938.2791, 15147.35
938.7612, 15153.58
939.2433, 15146.24
939.7254, 15104.45
940.2075, 15084.29
940.6896, 15098.99
941.1718, 15132.45
941.6539, 15166.96
942.1360, 15197.47
942.6181, 15190.08
943.1002, 15121.59
943.5823, 15053.29
944.0645, 15039.09
944.5466, 15050.43
945.0287, 15051.78
945.5108, 15026.05
945.9929, 15008.42
946.4750, 15000.49
946.9572, 14997.19
947.4393, 14994.98
947.9214, 14993.02
948.4035, 14984.91
948.8856, 14969.26
949.3677, 14958.34
949.8499, 14972.79
950.3320, 14988.09
950.8141, 14977.93
951.2962, 14930.07
951.7783, 14914.87
952.2604, 14954.52
952.7426, 14984.14
953.2247, 14945.11
953.7068, 14863.00
954.1889, 14874.40
954.6710, 14968.52
955.1531, 15049.62
955.6353, 15053.43
956.1174, 15028.04
956.5995, 14996.24
957.0816, 14961.57
957.5637, 14935.03
958.0458, 14912.32
958.5280, 14909.79
959.0101, 14939.13
959.4922, 14984.79
959.9743, 15007.67
960.4564, 15013.42
960.9385, 15022.58
961.4207, 15048.36
961.9028, 15073.52
962.3849, 15086.12
962.8670, 15093.02
963.3491, 15106.50
963.8312, 15131.27
964.3134, 15152.59
964.7955, 15170.58
965.2776, 15180.53
965.7597, 15163.93
966.2418, 15135.32
966.7239, 15134.84
967.2061, 15174.52
967.6882, 15217.13
968.1703, 15244.53
968.6524, 15264.60
969.1345, 15283.54
969.6166, 15302.57
970.0988, 15315.49
970.5809, 15322.34
971.0630, 15323.06
971.5451, 15305.54
972.0272, 15286.51
972.5093, 15311.02
972.9915, 15373.73
973.4736, 15414.32
973.9557, 15379.69
974.4378, 15342.62
974.9199, 15334.97
975.4020, 15352.62
975.8842, 15382.62
976.3663, 15428.60
976.8484, 15452.87
977.3305, 15429.70
977.8126, 15392.13
978.2947, 15383.95
978.7769, 15399.21
979.2590, 15424.69
979.7411, 15471.57
980.2232, 15507.82
980.7053, 15533.81
981.1874, 15542.15
981.6696, 15508.63
982.1517, 15431.16
982.6338, 15402.44
983.1159, 15441.09
983.5980, 15496.72
984.0801, 15521.45
984.5623, 15533.00
985.0444, 15553.13
985.5264, 15589.54
986.0085, 15618.27
986.4907, 15642.25
986.9728, 15650.70
987.4549, 15629.62
987.9370, 15583.49
988.4191, 15560.67
988.9012, 15560.14
989.3834, 15559.76
989.8655, 15537.37
990.3476, 15516.40
990.8297, 15519.93
991.3118, 15543.30
991.7939, 15551.51
992.2761, 15531.69
992.7582, 15520.33
993.2403, 15524.22
993.7224, 15545.52
994.2045, 15604.67
994.6866, 15686.65
995.1688, 15738.12
995.6509, 15712.98
996.1330, 15703.08
996.6151, 15776.34
997.0972, 15882.22
997.5793, 15957.58
998.0615, 15999.35
998.5436, 16016.70
999.0257, 16006.98
999.5078, 15984.29
999.9899, 15944.97
1000.472, 15909.12
1000.954, 15924.16
1001.436, 15995.86
1001.918, 16049.34
1002.401, 16038.76
1002.883, 16017.44
1003.365, 16016.49
1003.847, 16030.22
1004.329, 15992.96
1004.811, 15903.05
1005.293, 15829.95
1005.775, 15836.65
1006.257, 15850.71
1006.740, 15775.77
1007.222, 15647.48
1007.704, 15550.64
1008.186, 15553.57
1008.668, 15526.78
1009.150, 15445.13
1009.632, 15342.22
1010.114, 15267.25
1010.596, 15216.31
1011.079, 15176.10
1011.561, 15147.25
1012.043, 15110.22
1012.525, 15038.76
1013.007, 14960.18
1013.489, 14898.00
1013.971, 14852.32
1014.453, 14829.75
1014.936, 14836.52
1015.418, 14846.24
1015.900, 14842.24
1016.382, 14828.54
1016.864, 14813.47
1017.346, 14797.08
1017.828, 14778.59
1018.310, 14748.14
1018.792, 14726.77
1019.275, 14731.80
1019.757, 14748.39
1020.239, 14735.67
1020.721, 14691.70
1021.203, 14662.95
1021.685, 14665.74
1022.167, 14672.78
1022.649, 14645.70
1023.132, 14606.14
1023.614, 14586.93
1024.096, 14615.63
1024.578, 14614.24
1025.060, 14561.04
1025.542, 14504.19
1026.024, 14477.18
1026.506, 14478.58
1026.989, 14511.03
1027.471, 14571.08
1027.953, 14615.29
1028.435, 14599.18
1028.917, 14572.88
1029.399, 14573.53
1029.881, 14594.09
1030.363, 14585.72
1030.845, 14535.11
1031.328, 14507.42
1031.810, 14527.53
1032.292, 14565.80
1032.774, 14577.16
1033.256, 14570.29
1033.738, 14562.95
1034.220, 14563.00
1034.702, 14558.33
1035.184, 14538.00
1035.667, 14519.89
1036.149, 14519.37
1036.631, 14536.63
1037.113, 14560.93
1037.595, 14592.56
1038.077, 14611.34
1038.559, 14586.09
1039.041, 14553.55
1039.524, 14548.04
1040.006, 14568.74
1040.488, 14576.40
1040.970, 14565.14
1041.452, 14549.24
1041.934, 14529.48
1042.416, 14512.11
1042.898, 14517.94
1043.380, 14536.11
1043.863, 14534.85
1044.345, 14483.04
1044.827, 14447.63
1045.309, 14466.84
1045.791, 14506.43
1046.273, 14540.78
1046.755, 14572.45
1047.237, 14563.14
1047.719, 14508.04
1048.202, 14459.62
1048.684, 14474.27
1049.166, 14508.53
1049.648, 14514.04
1050.130, 14491.05
1050.612, 14482.53
1051.094, 14493.91
1051.576, 14519.87
1052.059, 14569.00
1052.541, 14621.26
1053.023, 14622.83
1053.505, 14587.28
1053.987, 14557.45
1054.469, 14546.39
1054.951, 14545.72
1055.433, 14560.55
1055.916, 14578.10
1056.398, 14584.10
1056.880, 14574.66
1057.362, 14580.57
1057.844, 14604.07
1058.326, 14621.25
1058.808, 14595.57
1059.290, 14564.95
1059.772, 14577.92
1060.255, 14631.02
1060.737, 14671.16
1061.219, 14688.00
1061.701, 14695.44
1062.183, 14693.32
1062.665, 14687.78
1063.147, 14698.83
1063.629, 14718.04
1064.111, 14715.05
1064.594, 14669.72
1065.076, 14631.29
1065.558, 14629.54
1066.040, 14642.64
1066.522, 14652.57
1067.004, 14659.75
1067.486, 14659.25
1067.968, 14650.40
1068.450, 14644.77
1068.933, 14659.27
1069.415, 14675.16
1069.897, 14668.88
1070.379, 14645.43
1070.861, 14629.06
1071.343, 14624.45
1071.825, 14626.03
1072.307, 14633.51
1072.790, 14645.66
1073.272, 14666.00
1073.754, 14688.67
1074.236, 14692.63
1074.718, 14665.29
1075.200, 14652.41
1075.682, 14687.14
1076.164, 14733.51
1076.646, 14767.04
1077.129, 14787.80
1077.611, 14819.94
1078.093, 14863.55
1078.575, 14893.74
1079.057, 14896.43
1079.539, 14877.86
1080.021, 14823.47
1080.503, 14753.18
1080.985, 14722.25
1081.468, 14753.08
1081.950, 14779.13
1082.432, 14793.72
1082.914, 14800.73
1083.396, 14800.06
1083.878, 14797.00
1084.360, 14802.35
1084.842, 14818.02
1085.325, 14836.17
1085.807, 14865.51
1086.289, 14881.53
1086.771, 14856.97
1087.253, 14812.12
1087.735, 14870.78
1088.217, 15018.33
1088.699, 15137.44
1089.182, 15177.86
1089.664, 15171.97
1090.146, 15113.33
1090.628, 15033.79
1091.110, 14981.21
1091.592, 14968.62
1092.074, 14932.60
1092.556, 14863.85
1093.038, 14811.63
1093.521, 14840.47
1094.003, 14900.98
1094.485, 14933.01
1094.967, 14934.27
1095.449, 14922.58
1095.931, 14885.02
1096.413, 14862.61
1096.895, 14867.28
1097.377, 14890.48
1097.860, 14919.11
1098.342, 14950.66
1098.824, 14977.42
1099.306, 14999.41
1099.788, 15010.01
1100.270, 15003.41
1100.752, 14984.85
1101.234, 14948.45
1101.717, 14892.42
1102.199, 14910.04
1102.681, 15000.13
1103.163, 15079.23
1103.645, 15086.53
1104.127, 15067.36
1104.609, 15049.72
1105.091, 15035.20
1105.573, 15025.84
1106.056, 15022.33
1106.538, 15023.33
1107.020, 15030.01
1107.502, 15037.22
1107.984, 15028.43
1108.466, 15020.63
1108.948, 15037.30
1109.430, 15081.22
1109.912, 15154.79
1110.395, 15291.13
1110.877, 15413.11
1111.359, 15508.92
1111.841, 15559.96
1112.323, 15459.43
1112.805, 15256.90
1113.287, 15133.27
1113.769, 15206.81
1114.252, 15275.46
1114.734, 15222.98
1115.216, 15145.05
1115.698, 15137.22
1116.180, 15207.81
1116.662, 15231.43
1117.144, 15206.80
1117.626, 15177.61
1118.109, 15167.63
1118.591, 15172.51
1119.073, 15206.34
1119.555, 15253.25
1120.037, 15253.90
1120.519, 15190.48
1121.001, 15142.86
1121.483, 15124.97
1121.965, 15125.29
1122.448, 15133.40
1122.930, 15148.73
1123.412, 15173.92
1123.894, 15211.98
1124.376, 15234.72
1124.858, 15226.48
1125.340, 15227.59
1125.822, 15265.64
1126.304, 15317.50
1126.787, 15305.98
1127.269, 15252.69
1127.751, 15222.24
1128.233, 15253.56
1128.715, 15289.89
1129.197, 15321.16
1129.679, 15344.91
1130.161, 15356.66
1130.644, 15356.99
1131.126, 15359.14
1131.608, 15363.14
1132.090, 15363.06
1132.572, 15347.62
1133.054, 15333.86
1133.536, 15329.71
1134.018, 15335.87
1134.500, 15355.54
1134.983, 15390.72
1135.465, 15425.17
1135.947, 15460.22
1136.429, 15474.12
1136.911, 15405.59
1137.393, 15328.84
1137.875, 15336.04
1138.357, 15452.79
1138.839, 15511.05
1139.322, 15498.52
1139.804, 15465.30
1140.286, 15419.80
1140.768, 15382.35
1141.250, 15404.72
1141.732, 15457.04
1142.214, 15479.45
1142.696, 15400.35
1143.179, 15397.32
1143.661, 15520.13
1144.143, 15648.31
1144.625, 15680.24
1145.107, 15639.91
1145.589, 15601.54
1146.071, 15565.25
1146.553, 15522.06
1147.036, 15433.39
1147.518, 15381.38
1148.000, 15399.58
1148.482, 15453.38
1148.964, 15487.28
1149.446, 15504.28
1149.928, 15528.40
1150.410, 15564.65
1150.892, 15583.21
1151.375, 15537.82
1151.857, 15493.74
1152.339, 15502.01
1152.821, 15549.39
1153.303, 15562.80
1153.785, 15542.78
1154.267, 15518.53
1154.749, 15491.85
1155.231, 15482.79
1155.714, 15529.43
1156.196, 15592.14
1156.678, 15622.77
1157.160, 15614.33
1157.642, 15602.82
1158.124, 15585.97
1158.606, 15580.96
1159.088, 15609.65
1159.571, 15647.06
1160.053, 15669.36
1160.535, 15677.40
1161.017, 15671.37
1161.499, 15635.80
1161.981, 15625.81
1162.463, 15651.95
1162.945, 15683.36
1163.427, 15686.38
1163.910, 15673.71
1164.392, 15661.29
1164.874, 15651.07
1165.356, 15647.68
1165.838, 15654.97
1166.320, 15665.25
1166.802, 15677.94
1167.284, 15691.06
1167.766, 15699.65
1168.249, 15706.23
1168.731, 15718.92
1169.213, 15741.49
1169.695, 15755.64
1170.177, 15744.28
1170.659, 15736.70
1171.141, 15747.39
1171.623, 15770.46
1172.106, 15787.76
1172.588, 15799.09
1173.070, 15803.59
1173.552, 15794.31
1174.034, 15789.71
1174.516, 15796.71
1174.998, 15812.17
1175.480, 15838.91
1175.963, 15875.57
1176.445, 15896.25
1176.927, 15901.08
1177.409, 15894.45
1177.891, 15866.46
1178.373, 15841.42
1178.855, 15836.34
1179.337, 15839.67
1179.819, 15830.44
1180.302, 15808.18
1180.784, 15807.72
1181.266, 15833.34
1181.748, 15869.18
1182.230, 15911.51
1182.712, 15952.25
1183.194, 15985.11
1183.676, 16010.90
1184.158, 16033.95
1184.641, 16054.96
1185.123, 16064.17
1185.605, 16057.10
1186.087, 16045.22
1186.569, 16028.96
1187.051, 16019.96
1187.533, 16039.89
1188.015, 16091.96
1188.498, 16092.85
1188.980, 16033.74
1189.462, 15988.82
1189.944, 15995.44
1190.426, 16021.26
1190.908, 16037.88
1191.390, 16045.45
1191.872, 16042.30
1192.354, 16021.68
1192.837, 16013.10
1193.319, 16018.14
1193.801, 16029.00
1194.283, 16040.45
1194.765, 16055.13
1195.247, 16082.25
1195.729, 16115.16
1196.211, 16135.31
1196.693, 16141.45
1197.176, 16128.26
1197.658, 16087.70
1198.140, 16053.80
1198.622, 16074.24
1199.104, 16114.95
1199.586, 16119.77
1200.068, 16092.18
1200.550, 16084.37
1201.033, 16115.97
1201.515, 16145.55
1201.997, 16167.82
1202.479, 16180.80
1202.961, 16178.19
1203.443, 16165.75
1203.925, 16150.17
1204.407, 16132.05
1204.890, 16123.48
1205.372, 16126.16
1205.854, 16138.87
1206.336, 16164.31
1206.818, 16195.32
1207.300, 16226.58
1207.782, 16249.52
1208.264, 16238.53
1208.746, 16166.12
1209.229, 16140.32
1209.711, 16199.77
1210.193, 16257.28
1210.675, 16262.46
1211.157, 16236.70
1211.639, 16234.86
1212.121, 16247.78
1212.603, 16250.64
1213.085, 16213.80
1213.568, 16205.58
1214.050, 16248.50
1214.532, 16293.74
1215.014, 16296.21
1215.496, 16272.41
1215.978, 16275.42
1216.460, 16297.97
1216.942, 16308.56
1217.425, 16274.15
1217.907, 16253.70
1218.389, 16254.13
1218.871, 16274.10
1219.353, 16321.50
1219.835, 16385.50
1220.317, 16449.66
1220.799, 16507.73
1221.281, 16516.26
1221.764, 16409.25
1222.246, 16310.89
1222.728, 16242.09
1223.210, 16206.36
1223.692, 16211.37
1224.174, 16253.79
1224.656, 16346.82
1225.138, 16495.33
1225.620, 16580.74
1226.103, 16500.52
1226.585, 16417.75
1227.067, 16378.04
1227.549, 16365.82
1228.031, 16349.41
1228.513, 16331.60
1228.995, 16321.08
1229.477, 16321.18
1229.960, 16321.98
1230.442, 16332.40
1230.924, 16325.51
1231.406, 16279.81
1231.888, 16215.89
1232.370, 16186.59
1232.852, 16188.62
1233.334, 16216.05
1233.816, 16291.08
1234.299, 16332.47
1234.781, 16305.71
1235.263, 16272.81
1235.745, 16271.91
1236.227, 16296.03
1236.709, 16334.27
1237.191, 16379.34
1237.673, 16407.98
1238.156, 16393.64
1238.638, 16388.05
1239.120, 16403.23
1239.602, 16417.95
1240.084, 16413.39
1240.566, 16393.63
1241.048, 16358.10
1241.530, 16315.09
1242.012, 16297.87
1242.495, 16355.14
1242.977, 16386.62
1243.459, 16370.47
1243.941, 16341.13
1244.423, 16341.32
1244.905, 16356.63
1245.387, 16349.19
1245.869, 16321.63
1246.351, 16311.23
1246.834, 16339.57
1247.316, 16376.45
1247.798, 16426.07
1248.280, 16463.59
1248.762, 16432.19
1249.244, 16373.43
1249.726, 16372.88
1250.208, 16438.12
1250.691, 16484.16
1251.173, 16489.51
1251.655, 16486.31
1252.137, 16479.95
1252.619, 16473.43
1253.101, 16469.91
1253.583, 16470.13
1254.065, 16478.21
1254.547, 16496.50
1255.030, 16502.18
1255.512, 16490.32
1255.994, 16476.36
1256.476, 16464.96
1256.958, 16455.88
1257.440, 16450.48
1257.922, 16446.36
1258.404, 16436.48
1258.886, 16413.54
1259.369, 16422.32
1259.851, 16473.42
1260.333, 16513.56
1260.815, 16514.23
1261.297, 16497.50
1261.779, 16484.46
1262.261, 16477.18
1262.743, 16482.94
1263.226, 16512.98
1263.708, 16504.38
1264.190, 16449.66
1264.672, 16408.88
1265.154, 16436.38
1265.636, 16474.17
1266.118, 16460.16
1266.600, 16416.72
1267.083, 16377.54
1267.565, 16339.44
1268.047, 16332.97
1268.529, 16359.97
1269.011, 16391.71
1269.493, 16409.77
1269.975, 16423.46
1270.457, 16441.86
1270.939, 16459.41
1271.422, 16464.76
1271.904, 16454.71
1272.386, 16461.61
1272.868, 16486.51
1273.350, 16514.89
1273.832, 16547.13
1274.314, 16568.20
1274.796, 16566.46
1275.278, 16547.43
1275.761, 16509.02
1276.243, 16453.36
1276.725, 16452.34
1277.207, 16509.24
1277.689, 16543.02
1278.171, 16460.28
1278.653, 16391.70
1279.135, 16405.41
1279.618, 16461.84
1280.100, 16500.04
1280.582, 16523.57
1281.064, 16554.66
1281.546, 16595.61
1282.028, 16611.58
1282.510, 16542.90
1282.992, 16502.24
1283.474, 16539.80
1283.957, 16604.01
1284.439, 16593.10
1284.921, 16534.25
1285.403, 16504.32
1285.885, 16514.82
1286.367, 16522.94
1286.849, 16511.01
1287.331, 16500.44
1287.813, 16496.39
1288.296, 16497.16
1288.778, 16497.61
1289.260, 16501.62
1289.742, 16523.46
1290.224, 16568.71
1290.706, 16576.86
1291.188, 16519.60
1291.670, 16493.45
1292.153, 16540.34
1292.635, 16608.55
1293.117, 16629.96
1293.599, 16621.04
1294.081, 16598.62
1294.563, 16561.79
1295.045, 16543.68
1295.527, 16545.94
1296.010, 16560.18
1296.492, 16590.86
1296.974, 16614.33
1297.456, 16587.05
1297.938, 16548.98
1298.420, 16553.03
1298.902, 16599.71
1299.384, 16618.28
1299.866, 16609.17
1300.349, 16590.96
1300.831, 16562.12
##END=



