##NAMES=Andradite
##RRUFFID=R060350
##IDEAL CHEMISTRY=Ca_3_Fe^3+^_2_(SiO_4_)_3_
##LOCALITY=south of the Gem mine, southern San Benito County, California, USA
##OWNER=RRUFF
##SOURCE=Michael Scott
##DESCRIPTION=Cluster of black vitreous crystals showing well-developed faces
##STATUS=The identification of this mineral has been confirmed by X-ray diffraction and chemical analysis
##URL=rruff.info/R060350
##MEASURED CHEMISTRY=(Ca_2.93_Mg_0.07_)_Σ=3_(Fe^3+^_1.18_Ti_0.77_Al_0.05_)_Σ=2_((Si_0.74_Fe^3+^_0.26_)_Σ=1_O_4_)_3_ ; trace amounts of Mn
91.72394, 0.0000000E+00
92.20605, 132.2451
92.68817, 131.9650
93.17029, 132.7389
93.65240, 133.6790
94.13452, 134.6162
94.61664, 134.7164
95.09875, 133.7868
95.58087, 132.2111
96.06299, 130.6806
96.54510, 129.5206
97.02721, 127.9094
97.50933, 125.3671
97.99145, 122.4859
98.47356, 120.0727
98.95568, 118.6428
99.43780, 118.0159
99.91991, 117.1047
100.4020, 115.6935
100.8841, 114.3086
101.3663, 113.1095
101.8484, 112.0988
102.3305, 111.2325
102.8126, 110.4874
103.2947, 109.8953
103.7768, 109.2466
104.2590, 108.4849
104.7411, 107.6772
105.2232, 106.8475
105.7053, 105.9604
106.1874, 105.1825
106.6695, 104.8208
107.1517, 104.8401
107.6338, 104.7473
108.1159, 104.1099
108.5980, 103.0798
109.0801, 102.5098
109.5622, 103.1232
110.0444, 103.7912
110.5265, 103.4348
111.0086, 101.9402
111.4907, 100.3084
111.9728, 99.78206
112.4549, 100.7598
112.9371, 101.4824
113.4192, 101.5225
113.9013, 101.2729
114.3834, 100.9215
114.8655, 100.5432
115.3476, 100.2203
115.8298, 100.1936
116.3119, 100.9132
116.7940, 101.3821
117.2761, 101.4008
117.7582, 101.1422
118.2403, 100.7873
118.7225, 100.4214
119.2046, 100.0717
119.6867, 100.0982
120.1688, 100.7823
120.6509, 101.4737
121.1330, 102.0345
121.6152, 102.4279
122.0973, 102.5648
122.5794, 102.2870
123.0615, 101.6101
123.5436, 101.2272
124.0257, 101.3667
124.5079, 101.6679
124.9900, 101.8577
125.4721, 101.9300
125.9542, 101.7964
126.4363, 101.0018
126.9184, 99.86226
127.4006, 99.23399
127.8827, 99.81983
128.3648, 101.2121
128.8469, 102.1632
129.3290, 102.5016
129.8111, 102.4501
130.2932, 102.0662
130.7754, 101.4342
131.2575, 100.8310
131.7396, 100.4643
132.2217, 100.3448
132.7038, 100.3716
133.1859, 100.7994
133.6681, 101.1808
134.1502, 101.2321
134.6323, 100.9712
135.1144, 100.6825
135.5965, 100.7979
136.0786, 101.7494
136.5608, 102.2113
137.0429, 101.8282
137.5250, 101.2636
138.0071, 101.0356
138.4892, 101.2940
138.9713, 101.8062
139.4535, 102.0871
139.9356, 101.8730
140.4177, 101.7856
140.8998, 101.9253
141.3819, 102.1948
141.8640, 102.4899
142.3462, 102.7827
142.8283, 103.0285
143.3104, 103.0479
143.7925, 102.5521
144.2746, 102.3443
144.7567, 102.9419
145.2388, 104.1773
145.7210, 105.3623
146.2031, 106.2436
146.6852, 106.7925
147.1673, 107.0319
147.6494, 106.7813
148.1315, 106.4848
148.6137, 106.6090
149.0958, 107.2159
149.5779, 107.8067
150.0600, 108.1608
150.5421, 108.3692
151.0242, 108.4831
151.5064, 108.4918
151.9885, 108.4506
152.4706, 108.4333
152.9527, 108.3116
153.4348, 108.4906
153.9169, 109.1908
154.3991, 110.1730
154.8812, 111.1737
155.3633, 112.0553
155.8454, 112.8217
156.3275, 113.4847
156.8096, 114.0039
157.2918, 114.4398
157.7739, 114.7517
158.2560, 114.9918
158.7381, 115.2521
159.2202, 115.6137
159.7023, 116.0839
160.1845, 116.3689
160.6666, 116.1408
161.1487, 116.0638
161.6308, 116.4902
162.1129, 117.3272
162.5950, 118.2217
163.0772, 118.8793
163.5593, 119.2764
164.0414, 119.4817
164.5235, 119.3422
165.0056, 119.1448
165.4877, 119.0491
165.9698, 119.0779
166.4520, 119.2309
166.9341, 119.5727
167.4162, 120.1018
167.8983, 120.4831
168.3804, 120.8792
168.8625, 121.0324
169.3447, 120.3969
169.8268, 118.6937
170.3089, 117.0344
170.7910, 116.8296
171.2731, 117.7048
171.7552, 118.3870
172.2374, 118.2660
172.7195, 117.5684
173.2016, 116.9012
173.6837, 116.2490
174.1658, 115.7744
174.6479, 115.6751
175.1301, 115.8556
175.6122, 115.9475
176.0943, 115.6099
176.5764, 114.8657
177.0585, 114.2899
177.5406, 113.9661
178.0228, 113.7951
178.5049, 113.8185
178.9870, 113.9830
179.4691, 114.1164
179.9512, 114.0166
180.4333, 113.6094
180.9155, 113.3119
181.3976, 113.3317
181.8797, 113.2936
182.3618, 112.9179
182.8439, 112.2434
183.3260, 111.5910
183.8082, 111.4117
184.2903, 112.0641
184.7724, 112.2362
185.2545, 111.6801
185.7366, 110.9348
186.2187, 110.2334
186.7009, 109.6668
187.1830, 109.3191
187.6651, 109.3462
188.1472, 110.1131
188.6293, 110.4792
189.1114, 110.2251
189.5936, 109.7110
190.0757, 109.1875
190.5578, 108.7303
191.0399, 108.3631
191.5220, 108.1321
192.0041, 108.0525
192.4863, 108.0767
192.9684, 108.2623
193.4505, 108.5299
193.9326, 108.8048
194.4147, 109.0785
194.8968, 109.2993
195.3790, 109.3284
195.8611, 109.1440
196.3432, 109.0235
196.8253, 109.1653
197.3074, 109.4263
197.7895, 109.4580
198.2717, 109.0803
198.7538, 108.5977
199.2359, 108.3803
199.7180, 108.4164
200.2001, 108.5855
200.6822, 108.8846
201.1644, 109.2850
201.6465, 109.6512
202.1286, 109.9831
202.6107, 110.2295
203.0928, 110.3066
203.5749, 110.2201
204.0571, 110.1784
204.5392, 110.3708
205.0213, 110.7946
205.5034, 111.2147
205.9855, 111.7895
206.4676, 112.1627
206.9497, 111.8744
207.4319, 110.9909
207.9140, 110.2801
208.3961, 110.7544
208.8782, 112.7021
209.3603, 114.0070
209.8424, 113.7709
210.3246, 113.3410
210.8067, 113.3374
211.2888, 113.8276
211.7709, 114.5083
212.2530, 114.9978
212.7351, 115.1682
213.2173, 115.5483
213.6994, 116.4548
214.1815, 117.3178
214.6636, 117.8076
215.1457, 117.8906
215.6278, 117.7690
216.1100, 117.6861
216.5921, 117.6290
217.0742, 117.6549
217.5563, 117.8795
218.0384, 118.0864
218.5205, 118.0987
219.0027, 117.9095
219.4848, 117.6759
219.9669, 117.6041
220.4490, 117.7370
220.9311, 117.9609
221.4132, 118.2340
221.8954, 118.6134
222.3775, 119.3037
222.8596, 120.2800
223.3417, 121.1022
223.8238, 121.1230
224.3059, 119.7503
224.7881, 119.2747
225.2702, 120.6705
225.7523, 122.3680
226.2344, 122.9151
226.7165, 122.0659
227.1986, 120.7212
227.6807, 119.9112
228.1629, 119.7355
228.6450, 119.7358
229.1271, 120.0778
229.6092, 120.4896
230.0913, 120.7065
230.5734, 120.6814
231.0556, 120.4826
231.5377, 120.1226
232.0198, 119.6039
232.5019, 119.1518
232.9840, 118.8026
233.4661, 118.5392
233.9483, 118.3359
234.4304, 118.1858
234.9125, 118.1173
235.3946, 118.2216
235.8767, 118.4552
236.3588, 118.6343
236.8410, 118.6477
237.3231, 118.6015
237.8052, 118.7296
238.2873, 119.1423
238.7694, 119.3966
239.2515, 118.8419
239.7337, 117.8319
240.2158, 117.1636
240.6979, 117.3483
241.1800, 117.9900
241.6621, 118.3898
242.1442, 118.5389
242.6264, 118.4385
243.1085, 117.7199
243.5906, 116.7975
244.0727, 116.4211
244.5548, 117.2433
245.0369, 118.6527
245.5191, 119.2599
246.0012, 118.7201
246.4833, 118.1849
246.9654, 118.4072
247.4475, 118.9273
247.9296, 119.1115
248.4117, 118.6074
248.8939, 117.6904
249.3760, 116.8965
249.8581, 116.0819
250.3402, 115.7472
250.8223, 116.5084
251.3044, 117.6207
251.7866, 118.2171
252.2687, 117.8653
252.7508, 116.9651
253.2329, 116.4529
253.7150, 116.6217
254.1971, 116.5818
254.6793, 115.7513
255.1614, 114.8022
255.6435, 114.4999
256.1256, 115.1862
256.6077, 116.2988
257.0898, 116.6042
257.5720, 115.5978
258.0541, 114.7458
258.5362, 114.2487
259.0183, 113.9872
259.5004, 113.9611
259.9825, 114.1561
260.4647, 114.3514
260.9468, 114.0555
261.4289, 112.7506
261.9110, 111.9937
262.3931, 112.1661
262.8752, 112.6514
263.3574, 113.0710
263.8395, 113.2914
264.3216, 113.2843
264.8037, 112.9295
265.2858, 111.7803
265.7679, 111.2123
266.2501, 111.7692
266.7322, 112.4371
267.2143, 112.4971
267.6964, 111.8411
268.1785, 110.8559
268.6606, 110.0013
269.1428, 109.1410
269.6249, 108.8432
270.1070, 109.6692
270.5891, 110.5072
271.0712, 110.5516
271.5533, 109.8154
272.0355, 108.9796
272.5176, 108.8473
272.9997, 109.7105
273.4818, 110.0049
273.9639, 109.1779
274.4460, 108.3787
274.9282, 108.2763
275.4103, 108.8107
275.8924, 109.4825
276.3745, 109.8308
276.8566, 109.8009
277.3387, 109.9836
277.8208, 110.5798
278.3029, 111.1457
278.7851, 111.4080
279.2672, 111.4589
279.7493, 111.6001
280.2314, 112.0645
280.7135, 112.8394
281.1956, 113.5805
281.6778, 114.5066
282.1599, 115.1873
282.6420, 115.2924
283.1241, 115.0349
283.6062, 114.8267
284.0883, 114.8765
284.5705, 115.2169
285.0526, 116.0716
285.5347, 118.3243
286.0168, 119.9989
286.4989, 120.1572
286.9810, 119.4921
287.4632, 119.1845
287.9453, 119.7983
288.4274, 121.0504
288.9095, 122.1732
289.3916, 123.2153
289.8737, 124.0681
290.3559, 124.4702
290.8380, 124.7380
291.3201, 125.3536
291.8022, 126.4987
292.2843, 127.8618
292.7664, 128.8728
293.2486, 129.2844
293.7307, 129.9306
294.2128, 131.0870
294.6949, 132.4272
295.1770, 133.6453
295.6591, 134.6721
296.1413, 135.4918
296.6234, 136.0043
297.1055, 136.0383
297.5876, 136.5414
298.0697, 137.9030
298.5518, 139.5236
299.0340, 140.8787
299.5161, 141.9085
299.9982, 142.9139
300.4803, 144.2046
300.9624, 145.8153
301.4445, 147.1866
301.9267, 148.3706
302.4088, 149.2721
302.8909, 149.5478
303.3730, 149.3407
303.8551, 149.4860
304.3372, 150.6426
304.8194, 152.7134
305.3015, 154.5794
305.7836, 156.3789
306.2657, 157.8760
306.7478, 158.7382
307.2299, 159.1681
307.7121, 159.7607
308.1942, 160.8248
308.6763, 162.2674
309.1584, 163.7827
309.6405, 165.6454
310.1227, 167.1715
310.6048, 167.8545
311.0869, 168.0794
311.5690, 168.5830
312.0511, 169.6627
312.5332, 171.0459
313.0154, 172.1944
313.4975, 173.0529
313.9796, 173.9103
314.4617, 174.7843
314.9438, 175.7011
315.4259, 176.6580
315.9081, 177.6446
316.3902, 178.8062
316.8723, 180.4370
317.3544, 182.6725
317.8365, 184.4981
318.3186, 185.4986
318.8007, 186.2647
319.2828, 187.3861
319.7650, 188.9091
320.2471, 190.3801
320.7292, 191.3775
321.2113, 191.8821
321.6934, 192.5409
322.1755, 193.3793
322.6577, 194.3455
323.1398, 195.4524
323.6219, 196.6716
324.1040, 197.8918
324.5861, 198.9881
325.0682, 200.0555
325.5504, 201.5068
326.0325, 203.6004
326.5146, 205.7263
326.9967, 207.6672
327.4788, 209.4877
327.9609, 211.4125
328.4431, 213.5974
328.9252, 215.7713
329.4073, 217.2314
329.8894, 217.6651
330.3715, 218.1892
330.8536, 218.9749
331.3358, 219.9706
331.8179, 221.0983
332.3000, 222.3365
332.7821, 223.7535
333.2642, 225.4885
333.7463, 227.6619
334.2285, 229.7278
334.7106, 231.5612
335.1927, 233.3421
335.6748, 235.2540
336.1569, 237.2879
336.6390, 239.3147
337.1212, 241.2442
337.6033, 243.0752
338.0854, 244.5555
338.5675, 245.4559
339.0496, 246.2868
339.5317, 247.3474
340.0139, 248.5608
340.4960, 249.6058
340.9781, 250.2351
341.4602, 250.6103
341.9423, 251.5695
342.4244, 253.5501
342.9066, 255.4886
343.3887, 257.1744
343.8708, 258.6889
344.3529, 260.1917
344.8350, 261.7432
345.3171, 263.1782
345.7993, 264.1695
346.2814, 264.4484
346.7635, 264.6917
347.2456, 264.7278
347.7277, 264.8339
348.2098, 265.3129
348.6920, 266.1799
349.1741, 267.1636
349.6562, 267.9537
350.1383, 268.5110
350.6204, 269.0689
351.1025, 269.4848
351.5847, 270.0289
352.0668, 271.0604
352.5489, 272.3668
353.0310, 273.3853
353.5131, 273.7085
353.9952, 273.3743
354.4774, 272.7460
354.9595, 271.2462
355.4416, 270.1222
355.9237, 270.1685
356.4058, 270.5727
356.8879, 270.1391
357.3701, 268.3269
357.8522, 265.7137
358.3343, 263.6529
358.8164, 263.0383
359.2985, 261.5646
359.7806, 258.5113
360.2627, 255.1029
360.7448, 252.3526
361.2270, 250.3922
361.7091, 248.6544
362.1912, 246.4528
362.6733, 243.6819
363.1554, 240.9002
363.6375, 237.9197
364.1197, 235.1125
364.6018, 232.8802
365.0839, 230.9576
365.5660, 228.7522
366.0481, 225.7949
366.5302, 222.1888
367.0124, 218.7265
367.4945, 215.4169
367.9766, 212.2665
368.4587, 209.2227
368.9408, 206.3605
369.4229, 203.8881
369.9051, 201.9102
370.3872, 200.0191
370.8693, 197.3121
371.3514, 193.2642
371.8335, 189.7747
372.3156, 187.2468
372.7978, 185.1618
373.2799, 183.4108
373.7620, 181.8778
374.2441, 180.1404
374.7262, 177.6682
375.2083, 174.4251
375.6905, 171.3860
376.1726, 168.5449
376.6547, 165.9414
377.1368, 163.6051
377.6189, 161.4953
378.1010, 159.5974
378.5832, 158.0285
379.0653, 156.5518
379.5474, 154.4048
380.0295, 151.2256
380.5116, 148.3355
380.9937, 146.3736
381.4759, 144.8628
381.9580, 143.4079
382.4401, 141.9199
382.9222, 140.4290
383.4043, 139.1437
383.8864, 138.0557
384.3686, 136.3089
384.8507, 133.0546
385.3328, 129.7969
385.8149, 127.8770
386.2970, 127.1923
386.7791, 126.6312
387.2613, 125.5322
387.7434, 124.1380
388.2255, 123.1311
388.7076, 122.7348
389.1897, 122.1160
389.6718, 120.3216
390.1540, 117.8958
390.6361, 115.9353
391.1182, 114.9016
391.6003, 114.1520
392.0824, 113.1172
392.5645, 111.8273
393.0467, 110.5745
393.5288, 109.4641
394.0109, 108.4777
394.4930, 107.5571
394.9751, 106.6825
395.4572, 105.9268
395.9394, 105.4014
396.4215, 104.9933
396.9036, 104.5023
397.3857, 103.8741
397.8678, 103.2565
398.3499, 102.8821
398.8321, 102.7697
399.3142, 102.2443
399.7963, 100.8463
400.2784, 99.37070
400.7605, 98.34386
401.2426, 97.73901
401.7247, 97.32126
402.2068, 96.97153
402.6890, 96.68066
403.1711, 96.41959
403.6532, 96.33537
404.1353, 96.09388
404.6174, 95.45534
405.0995, 94.69830
405.5817, 94.16982
406.0638, 93.97251
406.5459, 93.97851
407.0280, 94.03191
407.5101, 94.19402
407.9922, 94.19556
408.4744, 93.90718
408.9565, 93.59645
409.4386, 93.41631
409.9207, 93.34670
410.4028, 93.28040
410.8849, 93.13734
411.3671, 92.93159
411.8492, 92.77050
412.3313, 92.81093
412.8134, 92.69264
413.2955, 92.02366
413.7776, 91.33381
414.2598, 91.34929
414.7419, 92.26450
415.2240, 93.37792
415.7061, 93.53342
416.1882, 92.36677
416.6703, 91.51493
417.1525, 91.08096
417.6346, 90.96534
418.1167, 91.36771
418.5988, 92.10349
419.0809, 92.65011
419.5630, 92.56540
420.0452, 92.01820
420.5273, 91.71898
421.0094, 91.71726
421.4915, 91.87362
421.9736, 92.31382
422.4557, 92.79514
422.9379, 92.98457
423.4200, 92.74242
423.9021, 92.49120
424.3842, 92.80510
424.8663, 93.65087
425.3484, 94.19301
425.8306, 94.15170
426.3127, 93.88035
426.7948, 93.66335
427.2769, 93.50086
427.7590, 93.40179
428.2411, 93.38701
428.7233, 93.43019
429.2054, 93.45591
429.6875, 93.45147
430.1696, 93.60913
430.6517, 94.20274
431.1339, 94.99580
431.6160, 95.31489
432.0981, 95.01862
432.5802, 94.46948
433.0623, 93.56387
433.5444, 92.56669
434.0266, 92.06113
434.5087, 92.24392
434.9908, 92.82977
435.4729, 93.55356
435.9550, 94.55289
436.4371, 94.94941
436.9193, 94.22469
437.4014, 93.28444
437.8835, 92.77596
438.3656, 92.64507
438.8477, 92.46159
439.3298, 91.92361
439.8120, 91.12669
440.2941, 90.59944
440.7762, 90.88731
441.2583, 90.76280
441.7404, 89.68217
442.2225, 88.34750
442.7046, 87.55586
443.1867, 87.46944
443.6689, 87.54990
444.1510, 87.06233
444.6331, 85.81362
445.1152, 84.96098
445.5973, 85.05567
446.0794, 85.00351
446.5616, 84.33074
447.0437, 83.24349
447.5258, 82.12804
448.0079, 81.17993
448.4900, 80.41289
448.9721, 79.87261
449.4543, 79.59202
449.9364, 79.44770
450.4185, 79.61297
450.9006, 79.76733
451.3827, 79.66885
451.8648, 79.29859
452.3470, 78.83198
452.8291, 78.39848
453.3112, 77.98199
453.7933, 77.47960
454.2754, 76.79036
454.7575, 76.25182
455.2397, 76.30295
455.7218, 76.62839
456.2039, 76.67339
456.6860, 76.15997
457.1681, 75.55901
457.6502, 75.17867
458.1324, 75.02666
458.6145, 75.18535
459.0966, 75.77652
459.5787, 76.50381
460.0608, 76.89971
460.5429, 76.94507
461.0251, 77.02898
461.5072, 77.33955
461.9893, 77.63449
462.4714, 77.63345
462.9535, 77.36998
463.4356, 77.11523
463.9178, 77.01982
464.3999, 77.10061
464.8820, 77.46220
465.3641, 78.65357
465.8462, 79.40709
466.3283, 79.07353
466.8105, 78.46049
467.2926, 78.54959
467.7747, 79.50915
468.2568, 80.63525
468.7389, 81.05196
469.2210, 80.60457
469.7032, 80.49419
470.1853, 80.88795
470.6674, 81.45528
471.1495, 82.19112
471.6316, 83.01897
472.1137, 83.82240
472.5959, 84.54260
473.0780, 85.24585
473.5601, 86.14348
474.0422, 87.37516
474.5243, 88.19319
475.0064, 88.01924
475.4886, 87.74322
475.9707, 87.99935
476.4528, 88.70592
476.9349, 89.27507
477.4170, 89.26826
477.8991, 88.88699
478.3813, 88.48486
478.8634, 88.00334
479.3455, 87.89108
479.8276, 88.64431
480.3097, 89.79940
480.7918, 90.50330
481.2740, 90.59021
481.7561, 90.59849
482.2382, 90.61423
482.7203, 90.77846
483.2024, 91.54098
483.6845, 93.02570
484.1666, 94.37821
484.6487, 94.69894
485.1309, 93.93987
485.6130, 93.60469
486.0951, 93.79713
486.5772, 94.27036
487.0593, 95.08213
487.5414, 96.07355
488.0236, 97.04001
488.5057, 97.90202
488.9878, 98.54149
489.4699, 98.69643
489.9520, 98.00687
490.4341, 97.72282
490.9163, 97.94872
491.3984, 98.40872
491.8805, 99.20155
492.3626, 100.1122
492.8447, 100.6727
493.3268, 100.5355
493.8090, 99.96246
494.2911, 99.62843
494.7732, 99.37119
495.2553, 99.80064
495.7374, 102.2169
496.2195, 104.5618
496.7017, 104.9890
497.1838, 103.5379
497.6659, 102.3105
498.1480, 103.1978
498.6301, 105.4032
499.1122, 106.6298
499.5944, 106.6131
500.0765, 106.5001
500.5586, 106.9253
501.0407, 107.7072
501.5228, 108.4467
502.0049, 109.0966
502.4871, 109.7646
502.9692, 110.4785
503.4513, 111.2568
503.9334, 112.2415
504.4155, 113.4671
504.8976, 114.5470
505.3798, 115.0818
505.8619, 115.0397
506.3440, 114.9320
506.8261, 114.6836
507.3082, 114.4621
507.7903, 114.3161
508.2725, 114.2414
508.7546, 114.2480
509.2367, 114.3361
509.7188, 114.4515
510.2009, 114.5619
510.6830, 114.8180
511.1652, 114.5578
511.6473, 113.2420
512.1294, 111.9433
512.6115, 111.1619
513.0936, 110.6975
513.5757, 110.0824
514.0579, 109.0443
514.5400, 107.8341
515.0221, 106.9172
515.5042, 106.3233
515.9863, 105.7756
516.4684, 105.2596
516.9506, 104.7170
517.4327, 104.0980
517.9148, 103.4089
518.3969, 102.7032
518.8790, 102.0836
519.3611, 101.4100
519.8433, 100.3438
520.3254, 98.93174
520.8075, 97.86340
521.2896, 97.54750
521.7717, 97.68294
522.2538, 97.59880
522.7360, 97.26611
523.2181, 96.85445
523.7002, 96.38957
524.1823, 95.86040
524.6644, 95.09170
525.1465, 94.19466
525.6287, 93.66541
526.1108, 93.92194
526.5929, 94.77673
527.0750, 95.24492
527.5571, 95.09760
528.0392, 94.85615
528.5214, 94.58233
529.0035, 94.23022
529.4856, 93.69411
529.9677, 93.00537
530.4498, 92.37261
530.9319, 91.99960
531.4141, 91.84600
531.8962, 91.65059
532.3783, 91.36317
532.8604, 91.15145
533.3425, 91.27237
533.8246, 91.41660
534.3068, 91.23115
534.7889, 90.63345
535.2710, 89.92662
535.7531, 89.19309
536.2352, 88.51225
536.7173, 88.09676
537.1995, 87.99065
537.6816, 87.92928
538.1637, 87.75522
538.6458, 87.45598
539.1279, 87.00300
539.6100, 86.25322
540.0922, 85.53931
540.5743, 85.00713
541.0564, 84.53533
541.5385, 83.89483
542.0206, 83.07706
542.5027, 82.39799
542.9849, 82.25325
543.4670, 82.66495
543.9491, 82.62295
544.4312, 81.63928
544.9133, 80.76915
545.3954, 80.33500
545.8775, 80.06230
546.3596, 79.70292
546.8417, 79.17664
547.3239, 78.41396
547.8060, 77.16002
548.2881, 75.48579
548.7702, 74.36622
549.2523, 74.13169
549.7344, 73.84321
550.2166, 72.71351
550.6987, 71.21017
551.1808, 70.04595
551.6629, 69.41650
552.1450, 68.96256
552.6271, 68.62136
553.1093, 68.26303
553.5914, 67.53481
554.0735, 66.35786
554.5556, 65.15913
555.0377, 64.34136
555.5198, 63.89613
556.0020, 63.36637
556.4841, 62.79913
556.9662, 62.10590
557.4483, 61.08345
557.9304, 60.00134
558.4125, 59.17491
558.8947, 58.68232
559.3768, 58.44500
559.8589, 58.47026
560.3410, 58.77494
560.8231, 58.56391
561.3052, 57.49405
561.7874, 56.39082
562.2695, 55.29071
562.7516, 54.40777
563.2337, 54.04637
563.7158, 54.30141
564.1979, 54.75417
564.6801, 55.12474
565.1622, 55.40746
565.6443, 55.58804
566.1264, 55.66936
566.6085, 55.61732
567.0906, 55.31506
567.5728, 54.86990
568.0549, 54.69382
568.5370, 55.05183
569.0191, 55.26121
569.5012, 54.83410
569.9833, 54.25724
570.4655, 54.20497
570.9476, 54.73614
571.4297, 55.36154
571.9118, 55.64577
572.3939, 55.61372
572.8760, 55.56848
573.3582, 55.39288
573.8403, 55.37215
574.3224, 55.73890
574.8045, 56.14291
575.2866, 56.16322
575.7687, 55.81109
576.2509, 55.59425
576.7330, 56.06612
577.2151, 57.02141
577.6972, 57.67088
578.1793, 57.98075
578.6614, 58.12547
579.1436, 58.12302
579.6257, 58.02411
580.1078, 57.91990
580.5899, 57.82317
581.0720, 57.65400
581.5541, 57.25216
582.0363, 56.84304
582.5184, 56.75260
583.0005, 56.94103
583.4826, 57.03032
583.9647, 56.76844
584.4468, 56.32068
584.9290, 56.17842
585.4111, 56.70237
585.8932, 56.96875
586.3753, 56.82639
586.8574, 56.57660
587.3395, 56.34527
587.8217, 56.17213
588.3038, 56.11268
588.7859, 56.23101
589.2680, 56.39970
589.7501, 56.30667
590.2322, 55.90440
590.7144, 55.59183
591.1965, 55.58701
591.6786, 55.53199
592.1607, 54.90557
592.6428, 53.90004
593.1249, 53.42953
593.6071, 54.31500
594.0892, 55.36781
594.5713, 55.71028
595.0534, 55.42499
595.5355, 54.54264
596.0176, 53.01447
596.4998, 51.62953
596.9819, 51.51003
597.4640, 52.99899
597.9461, 53.62630
598.4282, 52.81335
598.9103, 51.93718
599.3925, 51.41320
599.8746, 51.09742
600.3567, 50.67073
600.8388, 50.06539
601.3209, 49.67805
601.8030, 50.17559
602.2852, 51.50328
602.7673, 52.26031
603.2494, 52.33631
603.7315, 52.03797
604.2136, 51.28732
604.6957, 50.33709
605.1779, 49.51686
605.6600, 48.86723
606.1421, 48.31234
606.6242, 47.77514
607.1063, 47.32441
607.5884, 47.02704
608.0706, 46.90205
608.5527, 47.10469
609.0348, 47.85236
609.5169, 48.82665
609.9990, 48.89801
610.4811, 46.79182
610.9633, 45.65906
611.4454, 46.39985
611.9275, 47.33323
612.4096, 47.25501
612.8917, 46.38635
613.3738, 45.69139
613.8560, 45.78141
614.3381, 46.22634
614.8202, 46.17096
615.3023, 45.57404
615.7844, 44.98055
616.2665, 44.44168
616.7487, 44.01125
617.2308, 43.72581
617.7129, 43.57787
618.1950, 43.57336
618.6771, 43.84325
619.1592, 44.12280
619.6414, 44.34936
620.1235, 44.45047
620.6056, 44.17086
621.0877, 43.47336
621.5698, 42.83506
622.0519, 42.78338
622.5341, 43.32286
623.0162, 43.75415
623.4983, 44.37790
623.9804, 44.47779
624.4625, 43.37657
624.9446, 42.06487
625.4268, 41.45937
625.9089, 41.68198
626.3910, 42.26074
626.8730, 43.06283
627.3552, 43.89355
627.8373, 44.17627
628.3194, 43.87294
628.8015, 43.51823
629.2836, 43.29494
629.7657, 43.15368
630.2479, 43.00677
630.7300, 42.84142
631.2121, 42.77137
631.6942, 43.08216
632.1763, 43.24137
632.6584, 42.60992
633.1406, 41.60332
633.6227, 41.16372
634.1048, 41.65771
634.5869, 42.56749
635.0690, 43.16410
635.5511, 43.42677
636.0333, 43.52623
636.5154, 43.34452
636.9975, 43.15783
637.4796, 43.04334
637.9617, 42.99301
638.4438, 43.00546
638.9260, 43.08389
639.4081, 43.18480
639.8902, 43.28312
640.3723, 43.38121
640.8544, 43.50030
641.3365, 43.63813
641.8187, 43.71521
642.3008, 43.65825
642.7829, 43.55686
643.2650, 43.64129
643.7471, 44.05759
644.2292, 44.38744
644.7114, 44.69163
645.1935, 44.85325
645.6756, 44.65996
646.1577, 44.29425
646.6398, 44.18188
647.1219, 44.53785
647.6041, 44.96404
648.0862, 44.70194
648.5683, 43.77221
649.0504, 43.50258
649.5325, 44.29028
650.0146, 45.13952
650.4968, 45.37736
650.9789, 45.21778
651.4610, 45.12192
651.9431, 45.16933
652.4252, 45.17350
652.9073, 44.95731
653.3895, 44.72411
653.8716, 44.74200
654.3537, 44.99284
654.8358, 45.24287
655.3179, 45.33538
655.8000, 45.35504
656.2822, 45.55465
656.7643, 46.02499
657.2464, 46.44355
657.7285, 46.86388
658.2106, 47.15145
658.6927, 47.15535
659.1749, 46.98695
659.6570, 46.86117
660.1391, 46.80631
660.6212, 46.93661
661.1033, 47.56111
661.5854, 48.43335
662.0676, 48.87051
662.5497, 48.75550
663.0318, 48.46170
663.5139, 48.23244
663.9960, 48.06447
664.4781, 47.94425
664.9603, 47.98893
665.4424, 47.91771
665.9245, 47.41034
666.4066, 47.04514
666.8887, 47.46825
667.3708, 48.39526
667.8530, 48.91590
668.3351, 48.44778
668.8172, 47.66872
669.2993, 47.82360
669.7814, 48.86026
670.2635, 49.42881
670.7457, 49.18911
671.2278, 48.77477
671.7099, 48.61352
672.1920, 48.68207
672.6741, 48.83709
673.1563, 49.03692
673.6384, 49.38372
674.1205, 50.22485
674.6026, 51.01249
675.0847, 51.03476
675.5668, 50.41223
676.0490, 49.91810
676.5311, 50.07344
677.0132, 50.60615
677.4953, 50.71660
677.9774, 50.18456
678.4595, 50.34473
678.9417, 52.07254
679.4238, 53.62765
679.9059, 53.68859
680.3880, 52.80601
680.8701, 52.19637
681.3522, 52.16516
681.8344, 52.32863
682.3165, 52.56709
682.7986, 52.81689
683.2807, 52.89680
683.7628, 52.84006
684.2449, 53.03625
684.7271, 53.80704
685.2092, 54.87211
685.6913, 55.28631
686.1734, 54.59422
686.6555, 54.30315
687.1376, 54.68391
687.6198, 55.30470
688.1019, 56.24517
688.5840, 57.23225
689.0661, 57.69724
689.5482, 57.31225
690.0303, 56.85264
690.5125, 57.12691
690.9946, 57.77719
691.4767, 57.90587
691.9588, 57.43033
692.4409, 57.12033
692.9230, 57.47943
693.4052, 58.33474
693.8873, 59.20330
694.3694, 60.29617
694.8515, 61.00114
695.3336, 61.16681
695.8157, 61.12725
696.2979, 60.94318
696.7800, 60.70329
697.2621, 60.50721
697.7442, 60.38223
698.2263, 60.40443
698.7084, 60.70578
699.1906, 61.21742
699.6727, 61.76316
700.1548, 62.33419
700.6369, 62.73387
701.1190, 62.73748
701.6011, 62.63252
702.0833, 63.16819
702.5654, 64.95294
703.0475, 65.91662
703.5296, 65.24805
704.0117, 64.54940
704.4938, 64.78852
704.9760, 65.53253
705.4581, 65.92023
705.9402, 65.66851
706.4223, 65.35820
706.9044, 65.73647
707.3865, 66.61986
707.8687, 67.14145
708.3508, 67.22523
708.8329, 67.32503
709.3149, 67.64981
709.7971, 68.09859
710.2792, 68.50244
710.7613, 68.84878
711.2434, 69.22289
711.7255, 69.68047
712.2076, 70.11655
712.6898, 70.49792
713.1719, 70.81543
713.6540, 70.98856
714.1361, 71.03074
714.6182, 71.19020
715.1003, 71.79131
715.5825, 72.70869
716.0646, 73.37101
716.5467, 73.72311
717.0288, 74.17934
717.5109, 74.85072
717.9930, 75.71470
718.4752, 76.88607
718.9573, 78.35082
719.4394, 79.44590
719.9215, 79.63161
720.4036, 79.99293
720.8857, 81.18864
721.3679, 82.69497
721.8500, 83.80448
722.3321, 84.46073
722.8142, 85.19308
723.2963, 86.45837
723.7784, 88.06360
724.2606, 89.45347
724.7427, 90.62362
725.2248, 91.65269
725.7069, 92.36209
726.1890, 93.26887
726.6711, 94.99637
727.1533, 97.36159
727.6354, 99.39219
728.1175, 100.9797
728.5996, 102.3204
729.0817, 103.1002
729.5638, 103.9238
730.0460, 105.4780
730.5281, 107.6604
731.0102, 109.8756
731.4923, 111.7790
731.9744, 113.4994
732.4565, 115.1595
732.9387, 116.7466
733.4208, 118.9544
733.9029, 122.1269
734.3850, 125.2034
734.8671, 127.3065
735.3492, 128.9272
735.8314, 131.3378
736.3135, 134.8408
736.7956, 138.2200
737.2777, 141.3285
737.7598, 144.1559
738.2419, 146.5892
738.7241, 148.7757
739.2062, 150.9483
739.6883, 153.2234
740.1704, 155.6669
740.6525, 158.5196
741.1346, 161.6861
741.6168, 164.2898
742.0989, 166.1346
742.5810, 168.4058
743.0631, 171.9966
743.5452, 175.7903
744.0273, 177.8452
744.5095, 177.9964
744.9916, 179.1846
745.4737, 182.7773
745.9558, 186.1607
746.4379, 187.9321
746.9200, 189.0139
747.4022, 190.6243
747.8843, 192.9216
748.3664, 195.2440
748.8485, 197.0783
749.3306, 198.5508
749.8127, 199.9856
750.2949, 201.3855
750.7770, 202.3979
751.2591, 202.8574
751.7412, 203.1675
752.2233, 203.7337
752.7054, 204.4754
753.1876, 204.8210
753.6697, 204.5538
754.1518, 204.2337
754.6339, 203.9966
755.1160, 203.6766
755.5981, 203.1632
756.0803, 202.4606
756.5624, 201.5457
757.0445, 200.3702
757.5266, 199.2589
758.0087, 198.7843
758.4908, 198.7243
758.9730, 198.1103
759.4551, 196.8308
759.9372, 195.7030
760.4193, 195.1866
760.9014, 195.0119
761.3835, 194.7145
761.8657, 194.4196
762.3478, 193.5455
762.8299, 191.5267
763.3120, 189.6399
763.7941, 188.0946
764.2762, 187.0433
764.7584, 186.9405
765.2405, 187.7018
765.7226, 188.1011
766.2047, 186.9582
766.6868, 185.2107
767.1689, 184.2388
767.6511, 183.8808
768.1332, 183.5602
768.6153, 183.1370
769.0974, 182.3344
769.5795, 180.7688
770.0616, 178.6045
770.5438, 177.3243
771.0259, 177.6339
771.5080, 177.5610
771.9901, 176.6445
772.4722, 175.5697
772.9543, 174.6893
773.4365, 173.9639
773.9186, 173.2385
774.4007, 172.4467
774.8828, 171.7226
775.3649, 171.2428
775.8470, 170.8400
776.3292, 170.2420
776.8113, 169.4802
777.2934, 168.7283
777.7755, 168.0564
778.2576, 167.6387
778.7397, 167.8661
779.2219, 168.8263
779.7040, 169.3094
780.1861, 169.1391
780.6682, 168.8421
781.1503, 168.3104
781.6324, 167.9578
782.1146, 168.3108
782.5967, 169.3522
783.0788, 170.3850
783.5609, 171.5057
784.0430, 172.2819
784.5251, 171.9278
785.0073, 171.3836
785.4894, 172.1607
785.9715, 174.2265
786.4536, 176.1071
786.9357, 176.6757
787.4178, 176.6593
787.9000, 177.7419
788.3821, 179.9099
788.8642, 181.7344
789.3463, 182.9231
789.8284, 184.1105
790.3105, 185.7323
790.7927, 187.6242
791.2747, 189.3079
791.7568, 190.7226
792.2390, 192.1039
792.7211, 193.5081
793.2032, 194.8339
793.6853, 195.7256
794.1674, 196.6463
794.6495, 198.4896
795.1317, 201.3648
795.6138, 204.0318
796.0959, 205.1629
796.5780, 205.6581
797.0601, 207.0660
797.5422, 209.2525
798.0244, 211.5653
798.5065, 213.8507
798.9886, 215.8377
799.4707, 217.1734
799.9528, 218.0126
800.4349, 219.4378
800.9171, 221.7327
801.3992, 224.0501
801.8813, 226.5560
802.3634, 228.8064
802.8455, 230.5531
803.3276, 231.8610
803.8098, 232.7745
804.2919, 233.1535
804.7740, 233.7208
805.2561, 234.7325
805.7382, 236.1870
806.2203, 238.5947
806.7025, 241.3914
807.1846, 243.1029
807.6667, 243.2146
808.1488, 242.8229
808.6309, 243.2213
809.1130, 244.2644
809.5952, 245.0383
810.0773, 245.5357
810.5594, 245.7962
811.0415, 245.6969
811.5236, 245.5961
812.0057, 245.8530
812.4879, 246.4414
812.9700, 247.0314
813.4521, 248.2605
813.9342, 248.5946
814.4163, 247.0318
814.8984, 245.1690
815.3806, 244.0575
815.8627, 243.6194
816.3448, 243.5064
816.8269, 243.6209
817.3090, 243.6323
817.7911, 243.1834
818.2733, 242.4347
818.7554, 241.5184
819.2375, 240.5394
819.7196, 240.2663
820.2017, 241.0612
820.6838, 241.7394
821.1660, 240.6979
821.6481, 237.9973
822.1302, 236.0777
822.6123, 235.3687
823.0944, 234.4901
823.5765, 233.0268
824.0587, 231.4407
824.5408, 229.9214
825.0229, 228.5496
825.5050, 227.6264
825.9871, 227.5831
826.4692, 227.2354
826.9514, 225.7445
827.4335, 224.0609
827.9156, 223.1273
828.3977, 222.7385
828.8798, 222.2269
829.3619, 221.3339
829.8441, 220.3161
830.3262, 219.5348
830.8083, 218.8659
831.2904, 217.7364
831.7725, 216.1590
832.2546, 214.8853
832.7368, 214.2351
833.2189, 213.6198
833.7010, 212.3510
834.1831, 210.5245
834.6652, 209.1756
835.1473, 208.6732
835.6295, 208.0726
836.1116, 206.9878
836.5937, 206.1092
837.0758, 206.3630
837.5579, 206.9689
838.0400, 206.1521
838.5222, 203.1872
839.0043, 200.5602
839.4864, 199.6782
839.9685, 199.6455
840.4506, 200.0308
840.9327, 200.4473
841.4149, 200.0388
841.8970, 198.6350
842.3791, 197.1121
842.8612, 196.3857
843.3433, 195.3676
843.8254, 194.5459
844.3076, 194.2159
844.7897, 193.3980
845.2718, 193.3402
845.7539, 193.2556
846.2360, 192.5404
846.7181, 191.3527
847.2003, 190.2249
847.6824, 189.0898
848.1645, 188.1604
848.6466, 187.6892
849.1287, 187.1254
849.6108, 186.0015
850.0930, 184.7709
850.5751, 184.1061
851.0572, 184.0779
851.5393, 183.9983
852.0214, 183.6635
852.5035, 182.9887
852.9857, 181.5432
853.4678, 179.8374
853.9499, 178.8972
854.4320, 178.7718
854.9141, 178.6412
855.3962, 177.9584
855.8784, 176.9343
856.3605, 175.9060
856.8426, 174.8799
857.3247, 174.2143
857.8068, 174.0278
858.2889, 173.7553
858.7711, 173.1858
859.2532, 172.2979
859.7353, 170.9427
860.2174, 168.9831
860.6995, 167.5903
861.1816, 167.2050
861.6638, 166.7780
862.1459, 166.2717
862.6280, 165.5200
863.1101, 164.2044
863.5922, 162.5208
864.0743, 161.1309
864.5565, 160.3358
865.0386, 159.6050
865.5207, 158.6557
866.0028, 157.5562
866.4849, 156.2068
866.9670, 154.7912
867.4492, 153.9284
867.9313, 153.8035
868.4134, 153.6702
868.8955, 152.5585
869.3776, 150.8192
869.8597, 149.8792
870.3419, 149.7463
870.8240, 149.2115
871.3061, 147.8989
871.7882, 146.5623
872.2703, 145.9179
872.7524, 144.6562
873.2346, 143.4247
873.7166, 142.6908
874.1987, 141.0670
874.6808, 140.1229
875.1630, 139.5079
875.6451, 139.7002
876.1272, 139.8294
876.6093, 138.6379
877.0914, 136.0261
877.5735, 133.4859
878.0557, 131.3287
878.5378, 129.6162
879.0199, 128.5440
879.5020, 127.8447
879.9841, 127.4150
880.4662, 127.0459
880.9484, 126.1872
881.4305, 124.5013
881.9126, 122.4902
882.3947, 120.7248
882.8768, 119.1677
883.3589, 117.6981
883.8411, 116.3184
884.3232, 115.2150
884.8053, 114.5003
885.2874, 113.7507
885.7695, 112.4238
886.2516, 110.5854
886.7338, 109.0770
887.2159, 108.1925
887.6980, 106.7538
888.1801, 104.1467
888.6622, 101.5295
889.1443, 99.58360
889.6265, 98.20370
890.1086, 97.17497
890.5907, 96.62617
891.0728, 95.99441
891.5549, 95.14388
892.0370, 94.25205
892.5192, 93.65774
893.0013, 92.92021
893.4834, 91.11021
893.9655, 88.43853
894.4476, 86.67508
894.9297, 87.25865
895.4119, 88.21273
895.8940, 87.62467
896.3761, 86.18806
896.8582, 84.93469
897.3403, 83.99370
897.8224, 83.29690
898.3046, 82.81548
898.7867, 82.26909
899.2688, 81.07629
899.7509, 79.45695
900.2330, 79.02578
900.7151, 79.88825
901.1973, 79.98034
901.6794, 78.57691
902.1615, 76.96122
902.6436, 76.22229
903.1257, 76.19775
903.6078, 76.21700
904.0900, 76.48891
904.5721, 76.35390
905.0542, 75.29665
905.5363, 74.45073
906.0184, 74.42829
906.5005, 74.74483
906.9827, 74.94844
907.4648, 74.99535
907.9469, 74.59177
908.4290, 72.86922
908.9111, 71.67760
909.3932, 72.34663
909.8754, 73.50423
910.3575, 73.89397
910.8396, 73.54594
911.3217, 72.93723
911.8038, 72.23196
912.2859, 71.65491
912.7681, 71.40434
913.2502, 71.40559
913.7323, 71.61103
914.2144, 71.96323
914.6965, 72.41570
915.1786, 72.91078
915.6608, 73.01785
916.1429, 72.29276
916.6250, 71.12760
917.1071, 70.52999
917.5892, 70.50068
918.0714, 70.73475
918.5535, 71.29757
919.0356, 71.57109
919.5177, 71.16054
919.9998, 70.49085
920.4819, 70.22544
920.9641, 70.40104
921.4462, 70.41174
921.9283, 70.11510
922.4104, 69.89236
922.8925, 69.72530
923.3746, 69.73034
923.8568, 70.30669
924.3389, 71.05804
924.8210, 70.94751
925.3031, 69.53590
925.7852, 68.43446
926.2673, 68.08641
926.7495, 68.10274
927.2316, 68.57261
927.7137, 69.09949
928.1958, 69.19653
928.6779, 68.84593
929.1600, 68.35582
929.6422, 67.79787
930.1243, 67.35238
930.6064, 67.36226
931.0885, 67.47927
931.5706, 67.09787
932.0527, 66.31734
932.5349, 65.61466
933.0170, 65.17281
933.4991, 64.87785
933.9812, 64.65466
934.4633, 64.45519
934.9454, 64.05846
935.4276, 63.50687
935.9097, 63.28558
936.3918, 63.49879
936.8739, 63.75148
937.3560, 63.80278
937.8381, 63.70678
938.3203, 63.58405
938.8024, 63.45153
939.2845, 63.13890
939.7666, 62.61703
940.2487, 61.96247
940.7308, 60.99406
941.2130, 60.16090
941.6951, 59.94780
942.1772, 60.24203
942.6593, 60.40896
943.1414, 60.25909
943.6235, 60.32366
944.1057, 60.99238
944.5878, 61.45741
945.0699, 61.25847
945.5520, 60.72201
946.0341, 60.20405
946.5162, 59.75322
946.9984, 59.36124
947.4805, 58.89277
947.9626, 58.65299
948.4447, 59.05002
948.9268, 59.53651
949.4089, 59.51123
949.8911, 59.14330
950.3732, 58.97351
950.8553, 59.16628
951.3374, 59.26461
951.8195, 58.66881
952.3016, 57.95313
952.7838, 57.93428
953.2659, 58.36980
953.7480, 58.81820
954.2301, 59.14275
954.7122, 59.11269
955.1943, 58.57231
955.6764, 57.87117
956.1585, 57.54026
956.6406, 57.52119
957.1227, 57.54379
957.6049, 57.60133
958.0870, 57.67213
958.5691, 57.76629
959.0512, 57.64292
959.5333, 56.97981
960.0154, 56.12441
960.4976, 56.48415
960.9797, 58.51267
961.4618, 59.27975
961.9439, 58.22826
962.4260, 57.12311
962.9081, 56.59417
963.3903, 56.45829
963.8724, 56.56629
964.3545, 56.90430
964.8366, 57.16695
965.3187, 57.42012
965.8008, 57.48815
966.2830, 57.16937
966.7651, 56.88126
967.2472, 56.93293
967.7293, 57.08078
968.2114, 56.86872
968.6935, 56.24480
969.1757, 55.96156
969.6578, 56.52513
970.1399, 57.00134
970.6220, 57.02454
971.1041, 56.84863
971.5862, 56.66562
972.0684, 56.47114
972.5505, 56.17493
973.0326, 55.74356
973.5147, 55.37312
973.9968, 55.25760
974.4789, 55.16668
974.9611, 54.94814
975.4432, 54.60588
975.9253, 54.06070
976.4074, 53.39693
976.8895, 52.89336
977.3716, 52.69308
977.8538, 52.67706
978.3359, 52.85073
978.8180, 53.05038
979.3001, 52.98335
979.7822, 52.68237
980.2643, 52.24551
980.7465, 51.71737
981.2286, 51.22286
981.7107, 50.85435
982.1928, 50.56886
982.6749, 50.32543
983.1570, 50.10559
983.6392, 49.74621
984.1213, 49.25023
984.6034, 48.92680
985.0855, 48.89450
985.5676, 48.94949
986.0497, 48.91862
986.5319, 48.77362
987.0140, 48.33749
987.4961, 47.53928
987.9782, 47.06149
988.4603, 47.05116
988.9424, 46.97038
989.4246, 46.59085
989.9067, 46.01471
990.3888, 45.27555
990.8709, 44.41789
991.3530, 44.19347
991.8351, 45.27781
992.3173, 45.39722
992.7994, 43.53395
993.2815, 41.89289
993.7636, 41.77084
994.2457, 42.38789
994.7278, 42.55253
995.2100, 42.22095
995.6921, 42.13076
996.1742, 42.64995
996.6563, 42.89726
997.1384, 42.52076
997.6205, 42.06023
998.1027, 41.72057
998.5848, 41.56599
999.0669, 41.77597
999.5490, 42.40692
1000.031, 42.78970
1000.513, 42.50143
1000.995, 42.26684
1001.477, 42.41562
1001.960, 42.69677
1002.442, 42.91787
1002.924, 43.08228
1003.406, 43.22234
1003.888, 43.33895
1004.370, 43.56598
1004.852, 44.25992
1005.334, 44.76656
1005.817, 44.50036
1006.299, 43.87463
1006.781, 43.23647
1007.263, 42.74844
1007.745, 42.70191
1008.227, 43.23639
1008.709, 43.77660
1009.191, 43.79420
1009.673, 44.05941
1010.156, 43.75623
1010.638, 43.96286
1011.120, 43.85550
1011.602, 43.42133
1012.084, 42.88099
1012.566, 42.33949
1013.048, 41.89141
1013.530, 41.93113
1014.013, 41.98433
1014.495, 40.73405
1014.977, 38.73716
1015.459, 37.97211
1015.941, 38.64913
1016.423, 39.18502
1016.905, 38.56974
1017.387, 37.40991
1017.869, 36.53671
1018.352, 35.90168
1018.834, 35.40673
1019.316, 35.01715
1019.798, 34.40844
1020.280, 33.51875
1020.762, 32.89610
1021.244, 32.97361
1021.726, 33.40572
1022.208, 33.59795
1022.691, 33.53615
1023.173, 32.86237
1023.655, 31.54753
1024.137, 30.78228
1024.619, 30.94515
1025.101, 31.27254
1025.583, 31.15693
1026.065, 30.75510
1026.547, 30.41835
1027.030, 30.12824
1027.512, 30.24559
1027.994, 30.89895
1028.476, 31.24093
1028.958, 30.96358
1029.440, 30.47944
1029.922, 30.11353
1030.404, 29.85542
1030.887, 29.68228
1031.369, 29.59524
1031.851, 29.62101
1032.333, 29.88416
1032.815, 29.87044
1033.297, 29.25391
1033.779, 28.62955
1034.261, 28.57313
1034.744, 28.91576
1035.226, 29.03528
1035.708, 28.86414
1036.190, 28.65214
1036.672, 28.24233
1037.154, 28.10087
1037.636, 28.55712
1038.118, 29.10527
1038.600, 29.30391
1039.083, 29.21787
1039.565, 29.10040
1040.047, 28.90201
1040.529, 28.79737
1041.011, 28.92132
1041.493, 28.94897
1041.975, 28.59145
1042.457, 28.27229
1042.939, 28.58461
1043.422, 29.25692
1043.904, 29.19908
1044.386, 27.81785
1044.868, 27.12507
1045.350, 27.74838
1045.832, 28.36399
1046.314, 28.65522
1046.796, 28.70511
1047.279, 28.43802
1047.761, 27.99464
1048.243, 27.84064
1048.725, 28.12436
1049.207, 28.38140
1049.689, 28.55412
1050.171, 28.68789
1050.653, 28.83970
1051.135, 28.92584
1051.618, 28.89907
1052.100, 28.74289
1052.582, 28.37955
1053.064, 27.68133
1053.546, 27.21247
1054.028, 27.03585
1054.510, 27.18070
1054.992, 28.03758
1055.474, 28.90259
1055.957, 29.12644
1056.439, 28.82902
1056.921, 28.39388
1057.403, 27.81471
1057.885, 27.50048
1058.367, 27.75345
1058.849, 28.06101
1059.331, 28.27660
1059.814, 28.37629
1060.296, 28.24311
1060.778, 28.00569
1061.260, 28.00566
1061.742, 28.36142
1062.224, 28.57378
1062.706, 28.22167
1063.188, 28.00175
1063.671, 28.37063
1064.153, 28.90765
1064.635, 29.38284
1065.117, 29.66214
1065.599, 29.51067
1066.081, 28.86130
1066.563, 28.12381
1067.045, 27.10810
1067.527, 26.48417
1068.010, 26.80548
1068.492, 27.46022
1068.974, 28.06601
1069.456, 28.51295
1069.938, 28.67729
1070.420, 28.53788
1070.902, 28.34872
1071.384, 28.24755
1071.866, 28.08008
1072.349, 27.57853
1072.831, 27.15581
1073.313, 27.26568
1073.795, 27.67686
1074.277, 27.93204
1074.759, 27.95216
1075.241, 27.97915
1075.723, 28.24185
1076.206, 28.35306
1076.688, 28.04248
1077.170, 27.58606
1077.652, 27.02686
1078.134, 26.56710
1078.616, 26.60047
1079.098, 27.10067
1079.580, 27.42520
1080.062, 27.13345
1080.545, 26.97445
1081.027, 27.59048
1081.509, 28.18524
1081.991, 27.91632
1082.473, 27.37957
1082.955, 27.57264
1083.437, 28.45566
1083.919, 29.07039
1084.401, 29.04815
1084.884, 28.81126
1085.366, 28.31954
1085.848, 27.93360
1086.330, 27.89637
1086.812, 28.10872
1087.294, 28.62523
1087.776, 29.26777
1088.258, 29.44609
1088.740, 28.85551
1089.223, 28.31553
1089.705, 28.16049
1090.187, 28.15940
1090.669, 28.37823
1091.151, 28.52383
1091.633, 28.15957
1092.115, 27.47873
1092.597, 27.06287
1093.080, 27.06053
1093.562, 27.23995
1094.044, 27.76651
1094.526, 28.13618
1095.008, 27.96237
1095.490, 27.65115
1095.972, 27.59543
1096.454, 27.67749
1096.937, 27.52162
1097.419, 27.04772
1097.901, 26.88362
1098.383, 27.63975
1098.865, 28.17077
1099.347, 27.89934
1099.829, 27.43527
1100.311, 27.13292
1100.793, 26.98242
1101.276, 26.91941
1101.758, 26.93546
1102.240, 27.03837
1102.722, 27.37741
1103.204, 27.58162
1103.686, 27.55715
1104.168, 27.38354
1104.650, 26.88499
1105.132, 26.40917
1105.615, 26.47284
1106.097, 26.99054
1106.579, 27.28514
1107.061, 27.13022
1107.543, 27.01386
1108.025, 26.98397
1108.507, 27.04047
1108.989, 27.39641
1109.472, 27.66260
1109.954, 27.36626
1110.436, 26.68187
1110.918, 26.19801
1111.400, 25.96805
1111.882, 25.89282
1112.364, 25.98276
1112.846, 26.20445
1113.328, 26.75795
1113.811, 27.23647
1114.293, 27.31707
1114.775, 27.13974
1115.257, 26.95415
1115.739, 26.74164
1116.221, 26.67160
1116.703, 26.94113
1117.185, 27.01014
1117.667, 26.57668
1118.150, 26.26757
1118.632, 26.45585
1119.114, 26.89304
1119.596, 27.30312
1120.078, 27.67208
1120.560, 27.79384
1121.042, 27.62919
1121.524, 27.26820
1122.007, 26.44657
1122.489, 26.02750
1122.971, 26.50245
1123.453, 27.21168
1123.935, 27.54038
1124.417, 27.54890
1124.899, 27.44417
1125.381, 27.19068
1125.864, 27.01008
1126.346, 26.96900
1126.828, 26.68089
1127.310, 25.89490
1127.792, 25.40952
1128.274, 25.92942
1128.756, 26.83412
1129.238, 26.83560
1129.720, 25.96485
1130.203, 25.42520
1130.685, 25.23353
1131.167, 25.26767
1131.649, 25.53705
1132.131, 25.73586
1132.613, 25.69868
1133.095, 25.58775
1133.577, 25.59111
1134.059, 25.71250
1134.542, 26.03941
1135.024, 26.54000
1135.506, 26.80786
1135.988, 26.81007
1136.470, 26.52587
1136.952, 25.95543
1137.434, 25.50205
1137.916, 25.51574
1138.399, 25.80761
1138.881, 26.10946
1139.363, 26.37542
1139.845, 26.46482
1140.327, 26.37219
1140.809, 25.98567
1141.291, 25.36174
1141.773, 24.98536
1142.255, 25.12236
1142.738, 25.50642
1143.220, 25.84391
1143.702, 26.20827
1144.184, 26.92843
1144.666, 27.68517
1145.148, 27.67976
1145.630, 27.06638
1146.112, 26.58746
1146.594, 26.49639
1147.077, 26.61785
1147.559, 26.89743
1148.041, 27.19923
1148.523, 27.47559
1149.005, 27.63039
1149.487, 27.50262
1149.969, 27.18612
1150.451, 26.84653
1150.934, 26.51307
1151.416, 26.09068
1151.898, 25.43885
1152.380, 25.12723
1152.862, 25.81772
1153.344, 26.56997
1153.826, 26.84461
1154.308, 26.77172
1154.791, 26.23777
1155.273, 25.57225
1155.755, 25.56972
1156.237, 26.42332
1156.719, 27.06073
1157.201, 27.01240
1157.683, 26.93355
1158.165, 27.04502
1158.647, 27.15546
1159.130, 27.08489
1159.612, 26.97972
1160.094, 27.06991
1160.576, 27.33891
1161.058, 27.54128
1161.540, 27.83062
1162.022, 27.72152
1162.504, 26.69180
1162.986, 26.05855
1163.469, 26.42069
1163.951, 27.00427
1164.433, 27.24647
1164.915, 27.25920
1165.397, 27.29695
1165.879, 27.36575
1166.361, 27.36815
1166.843, 27.22669
1167.325, 27.33535
1167.808, 27.83270
1168.290, 28.31159
1168.772, 28.61093
1169.254, 28.67405
1169.736, 28.40699
1170.218, 27.88336
1170.700, 27.28867
1171.182, 26.63770
1171.665, 26.59800
1172.147, 27.18475
1172.629, 27.65962
1173.111, 27.81997
1173.593, 27.86753
1174.075, 27.93895
1174.557, 27.99466
1175.039, 27.97582
1175.521, 27.89255
1176.004, 27.77136
1176.486, 27.61092
1176.968, 27.37064
1177.450, 27.08066
1177.932, 26.85633
1178.414, 26.74786
1178.896, 26.81125
1179.378, 27.12665
1179.860, 27.55943
1180.343, 28.15647
1180.825, 28.62512
1181.307, 28.44473
1181.789, 27.92553
1182.271, 27.60556
1182.753, 27.56194
1183.235, 27.65307
1183.717, 27.84604
1184.200, 28.03637
1184.682, 28.28001
1185.164, 28.36684
1185.646, 28.01535
1186.128, 27.60826
1186.610, 27.51684
1187.092, 27.60223
1187.574, 27.56129
1188.057, 27.36502
1188.539, 27.21773
1189.021, 26.98935
1189.503, 27.06973
1189.985, 28.08934
1190.467, 28.64505
1190.949, 27.77912
1191.431, 26.75272
1191.913, 26.70651
1192.396, 27.30643
1192.878, 27.67402
1193.360, 27.78691
1193.842, 27.84910
1194.324, 27.90461
1194.806, 27.71850
1195.288, 27.20415
1195.770, 26.60804
1196.252, 25.97959
1196.735, 25.66322
1197.217, 26.16237
1197.699, 27.11391
1198.181, 27.23771
1198.663, 26.65890
1199.145, 26.60281
1199.627, 27.04353
1200.109, 27.29351
1200.592, 27.18863
1201.074, 26.79011
1201.556, 26.11453
1202.038, 25.63678
1202.520, 26.18675
1203.002, 27.05151
1203.484, 26.94377
1203.966, 26.36279
1204.448, 26.23450
1204.931, 26.43643
1205.413, 26.39222
1205.895, 25.98959
1206.377, 25.52450
1206.859, 25.03123
1207.341, 24.87218
1207.823, 25.69100
1208.305, 26.44864
1208.787, 26.26597
1209.270, 25.76818
1209.752, 25.55426
1210.234, 25.62393
1210.716, 25.89383
1211.198, 26.37956
1211.680, 26.56490
1212.162, 25.90258
1212.644, 25.67006
1213.127, 26.71880
1213.609, 27.31193
1214.091, 26.43578
1214.573, 25.26065
1215.055, 24.89336
1215.537, 25.12638
1216.019, 25.33950
1216.501, 25.53511
1216.984, 25.70402
1217.466, 25.86379
1217.948, 25.82627
1218.430, 25.52192
1218.912, 25.43695
1219.394, 25.83562
1219.876, 26.21857
1220.358, 25.97003
1220.840, 26.32980
1221.323, 25.69222
1221.805, 26.36398
1222.287, 26.47440
1222.769, 26.05901
1223.251, 25.27969
1223.733, 24.30028
1224.215, 23.60102
1224.697, 23.40642
1225.179, 23.60096
1225.662, 24.36221
1226.144, 25.15639
1226.626, 25.57331
1227.108, 25.69313
1227.590, 25.43092
1228.072, 25.02535
1228.554, 24.85969
1229.036, 24.93374
1229.519, 24.93748
1230.001, 24.78451
1230.483, 24.58566
1230.965, 24.38425
1231.447, 24.11475
1231.929, 23.58369
1232.411, 23.17340
1232.893, 23.17996
1233.375, 23.38918
1233.858, 23.50125
1234.340, 23.53295
1234.822, 23.64151
1235.304, 23.85287
1235.786, 24.01888
1236.268, 24.12974
1236.750, 24.18618
1237.232, 24.16191
1237.714, 24.42681
1238.197, 25.27559
1238.679, 26.06680
1239.161, 25.82138
1239.643, 24.91896
1240.125, 24.17239
1240.607, 23.68493
1241.089, 23.98653
1241.571, 24.80371
1242.054, 25.14842
1242.536, 24.85178
1243.018, 24.46948
1243.500, 24.26858
1243.982, 24.21394
1244.464, 24.36224
1244.946, 24.54605
1245.428, 24.66933
1245.910, 24.73715
1246.393, 24.72170
1246.875, 24.67499
1247.357, 24.67707
1247.839, 24.73516
1248.321, 24.82361
1248.803, 25.04673
1249.285, 25.06502
1249.767, 24.75465
1250.250, 24.39960
1250.732, 23.95727
1251.214, 23.67765
1251.696, 23.75595
1252.178, 24.01444
1252.660, 24.20229
1253.142, 24.32732
1253.624, 24.46162
1254.106, 24.60138
1254.589, 24.51423
1255.071, 24.19700
1255.553, 23.65894
1256.035, 22.96640
1256.517, 22.85125
1256.999, 23.75154
1257.481, 24.61831
1257.963, 24.01208
1258.445, 24.61624
1258.928, 23.52509
1259.410, 24.45230
1259.892, 24.49212
1260.374, 23.99835
1260.856, 23.75659
1261.338, 23.88592
1261.820, 24.22062
1262.302, 24.78491
1262.785, 25.16013
1263.267, 25.05751
1263.749, 24.97309
1264.231, 25.11684
1264.713, 25.26368
1265.195, 25.44721
1265.677, 25.39608
1266.159, 24.60146
1266.641, 23.38381
1267.124, 23.10470
1267.606, 23.93072
1268.088, 24.33122
1268.570, 24.25382
1269.052, 24.39338
1269.534, 24.87460
1270.016, 25.21411
1270.498, 25.19714
1270.980, 24.76798
1271.463, 23.72151
1271.945, 22.72879
1272.427, 23.12025
1272.909, 24.11704
1273.391, 24.39128
1273.873, 24.20740
1274.355, 24.15157
1274.837, 24.21605
1275.320, 24.01419
1275.802, 23.47332
1276.284, 23.23624
1276.766, 23.80091
1277.248, 24.30449
1277.730, 24.54378
1278.212, 24.55961
1278.694, 24.19270
1279.177, 23.78167
1279.659, 23.52487
1280.141, 23.47911
1280.623, 23.82180
1281.105, 24.52170
1281.587, 24.86615
1282.069, 24.81412
1282.551, 24.72516
1283.033, 24.62505
1283.516, 24.38024
1283.998, 23.95717
1284.480, 23.71667
1284.962, 23.88963
1285.444, 24.23402
1285.926, 24.51030
##END=



