##NAMES=Andradite
##RRUFFID=R070722
##IDEAL CHEMISTRY=Ca_3_Fe^3+^_2_(SiO_4_)_3_
##LOCALITY=Otjosondu, Namibia
##OWNER=RRUFF
##SOURCE=Royal Ontario Museum
##DESCRIPTION=Dark red-brown to orange semi-transparent druse of crystals associated with quartz.
##STATUS=The identification of this mineral is confirmed by single-crystal X-ray diffraction and chemical analysis.
##URL=rruff.info/R070722
##MEASURED CHEMISTRY=(Ca_1.77_Mn^2+^_1.27_Mg_0.02_)_Σ=3.06_(Fe^3+^_1.58_Al^3+^_0.38_Ti_0.01_)_Σ=1.97_(SiO_4_)_3_
89.15009, 17573.11
89.63220, 17714.13
90.11432, 17758.42
90.59644, 17912.10
91.07855, 18262.66
91.56067, 18636.23
92.04279, 18955.57
92.52490, 19192.38
93.00702, 19340.30
93.48914, 19379.99
93.97125, 19184.33
94.45337, 19018.30
94.93549, 18791.50
95.41760, 18524.43
95.89972, 18237.10
96.38184, 17868.54
96.86395, 17456.63
97.34607, 17111.88
97.82819, 16835.84
98.31030, 16601.82
98.79242, 16400.93
99.27454, 16230.48
99.75665, 16074.18
100.2388, 15922.20
100.7209, 15775.95
101.2030, 15641.75
101.6851, 15526.53
102.1672, 15421.78
102.6494, 15304.25
103.1315, 15145.09
103.6136, 15020.49
104.0957, 14971.77
104.5778, 14981.17
105.0599, 15006.90
105.5421, 15016.84
106.0242, 15007.83
106.5063, 15008.93
106.9884, 15065.97
107.4705, 15097.51
107.9526, 15054.71
108.4348, 14936.42
108.9169, 14784.82
109.3990, 14661.38
109.8811, 14576.72
110.3632, 14505.62
110.8453, 14448.60
111.3275, 14401.99
111.8096, 14365.90
112.2917, 14340.66
112.7738, 14320.86
113.2559, 14287.01
113.7380, 14219.99
114.2202, 14161.21
114.7023, 14126.70
115.1844, 14107.80
115.6665, 14084.77
116.1486, 14047.08
116.6307, 13992.40
117.1129, 13922.49
117.5950, 13801.57
118.0771, 13690.72
118.5592, 13647.49
119.0413, 13677.87
119.5234, 13720.19
120.0056, 13729.93
120.4877, 13711.63
120.9698, 13668.60
121.4519, 13575.94
121.9340, 13459.62
122.4161, 13381.99
122.8982, 13359.05
123.3804, 13363.65
123.8625, 13384.13
124.3446, 13415.69
124.8267, 13434.32
125.3088, 13411.08
125.7909, 13341.40
126.2731, 13293.90
126.7552, 13296.91
127.2373, 13311.74
127.7194, 13328.92
128.2015, 13344.27
128.6837, 13347.65
129.1658, 13319.15
129.6479, 13230.83
130.1300, 13165.34
130.6121, 13134.51
131.0942, 13122.35
131.5764, 13116.51
132.0585, 13111.58
132.5406, 13108.53
133.0227, 13111.07
133.5048, 13131.67
133.9869, 13144.42
134.4691, 13143.05
134.9512, 13131.98
135.4333, 13118.11
135.9154, 13105.37
136.3975, 13093.95
136.8796, 13085.42
137.3618, 13079.96
137.8439, 13076.67
138.3260, 13071.41
138.8081, 13065.76
139.2902, 13070.67
139.7723, 13101.69
140.2545, 13158.00
140.7366, 13193.07
141.2187, 13197.52
141.7008, 13182.66
142.1829, 13154.74
142.6650, 13110.48
143.1472, 13070.39
143.6293, 13056.85
144.1114, 13065.10
144.5935, 13081.79
145.0756, 13111.83
145.5577, 13147.90
146.0399, 13165.00
146.5220, 13153.54
147.0041, 13126.12
147.4862, 13088.19
147.9683, 13041.10
148.4504, 13002.03
148.9326, 12987.13
149.4147, 12997.93
149.8968, 13015.09
150.3789, 13044.50
150.8610, 13073.74
151.3431, 13092.71
151.8252, 13099.63
152.3074, 13106.03
152.7895, 13133.24
153.2716, 13200.04
153.7537, 13246.56
154.2358, 13256.45
154.7179, 13251.90
155.2001, 13252.52
155.6822, 13266.80
156.1643, 13288.37
156.6464, 13297.15
157.1285, 13265.80
157.6106, 13253.22
158.0928, 13279.14
158.5749, 13324.51
159.0570, 13362.71
159.5391, 13377.16
160.0212, 13370.71
160.5033, 13374.39
160.9855, 13382.20
161.4676, 13404.14
161.9497, 13460.59
162.4318, 13537.71
162.9139, 13596.90
163.3960, 13605.13
163.8782, 13559.86
164.3603, 13534.87
164.8424, 13537.17
165.3245, 13551.55
165.8066, 13576.55
166.2887, 13610.37
166.7709, 13633.89
167.2530, 13622.06
167.7351, 13575.59
168.2172, 13547.00
168.6993, 13548.32
169.1814, 13567.85
169.6636, 13594.86
170.1457, 13630.20
170.6278, 13663.87
171.1099, 13687.59
171.5920, 13702.65
172.0741, 13705.82
172.5563, 13683.00
173.0384, 13646.08
173.5205, 13630.24
174.0026, 13646.25
174.4847, 13679.03
174.9668, 13717.58
175.4490, 13761.24
175.9311, 13799.97
176.4132, 13830.70
176.8953, 13853.27
177.3774, 13857.25
177.8595, 13827.56
178.3417, 13787.58
178.8238, 13744.60
179.3059, 13700.60
179.7880, 13669.55
180.2701, 13665.56
180.7522, 13689.09
181.2344, 13739.36
181.7165, 13876.78
182.1986, 14001.87
182.6807, 14040.89
183.1628, 13975.56
183.6449, 13859.67
184.1271, 13782.30
184.6092, 13760.86
185.0913, 13746.87
185.5734, 13739.43
186.0555, 13733.37
186.5376, 13719.06
187.0198, 13692.81
187.5019, 13667.27
187.9840, 13677.34
188.4661, 13780.91
188.9482, 13847.33
189.4303, 13844.33
189.9125, 13806.86
190.3946, 13775.03
190.8767, 13769.18
191.3588, 13783.84
191.8409, 13793.33
192.3230, 13796.32
192.8052, 13795.62
193.2873, 13777.07
193.7694, 13755.96
194.2515, 13763.93
194.7336, 13825.38
195.2157, 13930.49
195.6979, 13980.92
196.1800, 13929.84
196.6621, 13885.57
197.1442, 13884.13
197.6263, 13921.72
198.1084, 13985.90
198.5906, 14078.61
199.0727, 14192.58
199.5548, 14254.80
200.0369, 14218.94
200.5190, 14175.90
201.0011, 14177.42
201.4833, 14222.99
201.9654, 14285.21
202.4475, 14350.69
202.9296, 14416.88
203.4117, 14469.95
203.8938, 14498.80
204.3760, 14521.17
204.8581, 14555.73
205.3402, 14604.49
205.8223, 14647.57
206.3044, 14653.48
206.7865, 14637.80
207.2687, 14658.75
207.7508, 14758.25
208.2329, 14888.54
208.7150, 14980.76
209.1971, 15021.92
209.6792, 15060.30
210.1614, 15147.60
210.6435, 15263.25
211.1256, 15358.17
211.6077, 15386.18
212.0898, 15384.27
212.5719, 15443.41
213.0541, 15599.15
213.5362, 15751.71
214.0183, 15818.88
214.5004, 15828.29
214.9825, 15847.49
215.4646, 15913.40
215.9468, 16018.46
216.4289, 16131.38
216.9110, 16257.05
217.3931, 16383.72
217.8752, 16508.40
218.3573, 16630.01
218.8395, 16744.52
219.3216, 16845.43
219.8037, 16934.03
220.2858, 17027.85
220.7679, 17117.82
221.2500, 17225.73
221.7322, 17374.52
222.2143, 17552.20
222.6964, 17722.74
223.1785, 17859.03
223.6606, 17960.49
224.1427, 18041.52
224.6249, 18086.97
225.1070, 18123.04
225.5891, 18158.10
226.0712, 18192.34
226.5533, 18223.04
227.0354, 18251.52
227.5176, 18280.85
227.9997, 18284.22
228.4818, 18251.89
228.9639, 18200.36
229.4460, 18135.14
229.9281, 18056.30
230.4103, 17960.00
230.8924, 17841.01
231.3745, 17694.36
231.8566, 17544.33
232.3387, 17374.25
232.8208, 17213.93
233.3030, 17078.79
233.7851, 16968.01
234.2672, 16874.04
234.7493, 16799.35
235.2314, 16775.47
235.7135, 16649.28
236.1957, 16344.11
236.6778, 16017.42
237.1599, 15745.15
237.6420, 15537.02
238.1241, 15367.34
238.6062, 15209.03
239.0884, 15061.56
239.5705, 14928.94
240.0526, 14807.11
240.5347, 14700.54
241.0168, 14618.66
241.4989, 14558.71
241.9811, 14507.42
242.4632, 14452.77
242.9453, 14406.90
243.4274, 14310.74
243.9095, 14127.18
244.3916, 13929.29
244.8738, 13752.38
245.3559, 13606.00
245.8380, 13488.76
246.3201, 13402.12
246.8022, 13359.85
247.2843, 13306.46
247.7665, 13243.15
248.2486, 13168.97
248.7307, 13073.88
249.2128, 12960.47
249.6949, 12853.35
250.1770, 12782.63
250.6592, 12763.87
251.1413, 12730.42
251.6234, 12660.48
252.1055, 12591.45
252.5876, 12560.58
253.0697, 12569.30
253.5519, 12578.04
254.0340, 12541.30
254.5161, 12442.88
254.9982, 12359.16
255.4803, 12291.12
255.9624, 12236.95
256.4445, 12197.91
256.9267, 12173.53
257.4088, 12158.43
257.8909, 12150.99
258.3730, 12155.74
258.8551, 12135.47
259.3372, 12056.80
259.8194, 11974.68
260.3015, 11939.96
260.7836, 11956.69
261.2657, 11984.93
261.7478, 11988.50
262.2299, 11963.17
262.7121, 11926.63
263.1942, 11860.59
263.6763, 11795.58
264.1584, 11758.37
264.6405, 11750.98
265.1227, 11755.58
265.6048, 11757.57
266.0869, 11756.73
266.5690, 11758.17
267.0511, 11761.86
267.5332, 11767.97
268.0154, 11782.76
268.4975, 11805.38
268.9796, 11816.10
269.4617, 11793.03
269.9438, 11736.26
270.4259, 11697.58
270.9081, 11689.14
271.3902, 11691.51
271.8723, 11691.27
272.3544, 11687.53
272.8365, 11682.18
273.3186, 11673.78
273.8008, 11664.37
274.2829, 11667.59
274.7650, 11702.67
275.2471, 11736.35
275.7292, 11734.12
276.2113, 11698.90
276.6935, 11674.59
277.1756, 11694.70
277.6577, 11754.40
278.1398, 11802.46
278.6219, 11835.33
279.1040, 11859.78
279.5862, 11877.21
280.0683, 11888.72
280.5504, 11900.90
281.0325, 11916.22
281.5146, 11936.18
281.9967, 11963.24
282.4789, 11995.57
282.9610, 12036.36
283.4431, 12089.32
283.9252, 12153.40
284.4073, 12222.21
284.8894, 12293.50
285.3716, 12367.02
285.8537, 12442.40
286.3358, 12523.36
286.8179, 12601.24
287.3000, 12669.59
287.7821, 12730.27
288.2643, 12788.38
288.7464, 12844.39
289.2285, 12901.96
289.7106, 12968.33
290.1927, 13041.36
290.6748, 13125.06
291.1570, 13223.51
291.6391, 13334.76
292.1212, 13452.25
292.6033, 13574.04
293.0854, 13700.45
293.5675, 13833.11
294.0497, 13977.40
294.5318, 14116.23
295.0139, 14235.63
295.4960, 14344.81
295.9781, 14464.08
296.4602, 14599.29
296.9424, 14748.73
297.4245, 14915.29
297.9066, 15107.84
298.3887, 15278.00
298.8708, 15402.56
299.3529, 15496.28
299.8351, 15579.23
300.3172, 15652.67
300.7993, 15730.63
301.2814, 15834.46
301.7635, 15961.78
302.2456, 16107.64
302.7278, 16295.42
303.2099, 16491.76
303.6920, 16649.96
304.1741, 16760.08
304.6562, 16840.35
305.1383, 16904.71
305.6205, 16951.87
306.1026, 17003.81
306.5847, 17066.94
307.0668, 17134.35
307.5489, 17200.89
308.0310, 17266.12
308.5132, 17327.39
308.9953, 17387.38
309.4774, 17444.84
309.9595, 17470.07
310.4416, 17445.09
310.9237, 17399.40
311.4059, 17354.32
311.8880, 17311.15
312.3701, 17263.12
312.8522, 17206.21
313.3343, 17139.16
313.8164, 17058.06
314.2986, 16950.95
314.7807, 16841.51
315.2628, 16739.21
315.7449, 16645.60
316.2270, 16559.88
316.7091, 16477.52
317.1913, 16405.21
317.6734, 16377.02
318.1555, 16447.43
318.6376, 16496.82
319.1197, 16452.07
319.6018, 16351.08
320.0840, 16285.54
320.5661, 16304.03
321.0482, 16380.78
321.5303, 16431.19
322.0124, 16427.20
322.4945, 16439.33
322.9767, 16491.67
323.4588, 16566.92
323.9409, 16638.25
324.4230, 16695.22
324.9051, 16748.10
325.3872, 16818.01
325.8694, 16906.17
326.3515, 17009.70
326.8336, 17144.67
327.3157, 17286.53
327.7978, 17409.92
328.2799, 17508.24
328.7621, 17593.67
329.2442, 17684.51
329.7263, 17786.63
330.2084, 17876.73
330.6905, 17930.76
331.1726, 17990.06
331.6548, 18097.80
332.1369, 18251.35
332.6190, 18402.17
333.1011, 18497.48
333.5832, 18522.97
334.0653, 18572.27
334.5475, 18654.24
335.0296, 18746.77
335.5117, 18840.93
335.9938, 18936.15
336.4759, 19036.78
336.9580, 19147.23
337.4402, 19267.22
337.9223, 19377.59
338.4044, 19456.38
338.8865, 19549.05
339.3686, 19668.47
339.8507, 19810.39
340.3329, 19967.00
340.8150, 20135.59
341.2971, 20313.27
341.7792, 20488.48
342.2613, 20650.72
342.7434, 20824.45
343.2256, 21009.23
343.7077, 21207.07
344.1898, 21415.85
344.6719, 21635.07
345.1540, 21873.99
345.6361, 22154.11
346.1183, 22484.04
346.6004, 22842.10
347.0825, 23225.25
347.5646, 23628.29
348.0467, 24048.41
348.5288, 24482.92
349.0110, 24939.08
349.4931, 25425.16
349.9752, 25949.24
350.4573, 26477.54
350.9394, 26993.20
351.4215, 27532.97
351.9037, 28122.77
352.3858, 28757.26
352.8679, 29407.07
353.3500, 30034.81
353.8321, 30641.49
354.3142, 31312.30
354.7964, 32089.32
355.2785, 32879.73
355.7606, 33640.62
356.2427, 34388.20
356.7248, 35163.09
357.2069, 35995.27
357.6891, 36861.46
358.1712, 37680.11
358.6533, 38419.77
359.1354, 39193.77
359.6175, 40086.14
360.0996, 41018.98
360.5818, 41900.43
361.0639, 42693.92
361.5460, 43446.56
362.0281, 44235.39
362.5102, 45076.84
362.9923, 45836.00
363.4745, 46474.95
363.9566, 46999.66
364.4387, 47418.02
364.9208, 47733.12
365.4029, 47922.56
365.8850, 47973.06
366.3672, 47885.31
366.8493, 47668.32
367.3314, 47343.49
367.8135, 46849.64
368.2956, 46116.66
368.7777, 45163.45
369.2599, 44101.43
369.7420, 42956.87
370.2241, 41744.63
370.7062, 40483.23
371.1883, 39166.67
371.6704, 37837.52
372.1526, 36518.76
372.6347, 35204.98
373.1168, 33876.82
373.5989, 32467.80
374.0810, 31085.96
374.5631, 29814.14
375.0453, 28646.57
375.5274, 27538.26
376.0095, 26455.46
376.4916, 25410.63
376.9737, 24436.24
377.4558, 23543.15
377.9380, 22692.45
378.4201, 21865.49
378.9022, 21069.46
379.3843, 20328.12
379.8664, 19652.68
380.3485, 19027.48
380.8307, 18433.45
381.3128, 17865.34
381.7949, 17335.86
382.2770, 16851.14
382.7591, 16401.34
383.2412, 15985.29
383.7234, 15600.27
384.2055, 15241.47
384.6876, 14906.28
385.1697, 14596.35
385.6518, 14303.16
386.1339, 14031.87
386.6161, 13768.96
387.0982, 13494.85
387.5803, 13220.82
388.0624, 12982.16
388.5445, 12806.23
389.0266, 12687.21
389.5088, 12565.59
389.9909, 12464.73
390.4730, 12332.06
390.9551, 12118.87
391.4372, 11882.86
391.9193, 11699.62
392.4015, 11602.83
392.8836, 11556.50
393.3657, 11487.75
393.8478, 11388.20
394.3299, 11287.33
394.8120, 11183.44
395.2942, 11083.52
395.7763, 10993.07
396.2584, 10912.50
396.7405, 10837.61
397.2226, 10764.13
397.7047, 10692.34
398.1869, 10623.33
398.6690, 10558.78
399.1511, 10495.31
399.6332, 10428.43
400.1153, 10360.92
400.5974, 10300.27
401.0796, 10252.29
401.5617, 10213.44
402.0438, 10178.19
402.5259, 10149.22
403.0080, 10113.28
403.4901, 10050.71
403.9723, 9980.068
404.4544, 9931.291
404.9365, 9916.485
405.4186, 9912.693
405.9007, 9907.738
406.3828, 9899.865
406.8650, 9876.291
407.3471, 9825.173
407.8292, 9765.894
408.3113, 9731.459
408.7934, 9725.342
409.2755, 9720.116
409.7577, 9710.927
410.2398, 9696.417
410.7219, 9670.193
411.2040, 9631.157
411.6861, 9596.497
412.1682, 9587.226
412.6504, 9608.357
413.1325, 9606.868
413.6146, 9553.600
414.0967, 9505.205
414.5788, 9501.687
415.0609, 9531.471
415.5431, 9555.187
416.0252, 9548.014
416.5073, 9517.113
416.9894, 9495.906
417.4715, 9503.766
417.9536, 9497.969
418.4358, 9461.319
418.9179, 9415.194
419.4000, 9381.196
419.8821, 9366.188
420.3642, 9363.921
420.8463, 9368.003
421.3285, 9386.798
421.8106, 9388.422
422.2927, 9346.175
422.7748, 9311.060
423.2569, 9314.863
423.7390, 9350.484
424.2212, 9387.381
424.7033, 9404.462
425.1854, 9402.969
425.6675, 9387.457
426.1496, 9342.896
426.6317, 9310.434
427.1139, 9317.507
427.5960, 9340.049
428.0781, 9344.315
428.5602, 9313.112
429.0423, 9276.342
429.5244, 9279.137
430.0066, 9322.763
430.4887, 9347.842
430.9708, 9326.429
431.4529, 9289.713
431.9350, 9273.542
432.4171, 9278.826
432.8993, 9287.476
433.3814, 9293.385
433.8635, 9296.351
434.3456, 9293.306
434.8277, 9282.618
435.3098, 9276.717
435.7920, 9290.476
436.2741, 9321.595
436.7562, 9338.237
437.2383, 9324.824
437.7204, 9310.012
438.2025, 9311.585
438.6847, 9325.742
439.1668, 9341.027
439.6489, 9352.469
440.1310, 9359.705
440.6131, 9361.335
441.0952, 9339.590
441.5774, 9337.697
442.0595, 9373.888
442.5416, 9421.268
443.0237, 9455.476
443.5058, 9472.439
443.9879, 9482.506
444.4701, 9495.797
444.9522, 9511.348
445.4343, 9536.753
445.9164, 9591.751
446.3985, 9636.551
446.8806, 9651.632
447.3628, 9647.777
447.8449, 9644.513
448.3270, 9651.497
448.8091, 9667.788
449.2912, 9692.049
449.7733, 9726.028
450.2555, 9762.985
450.7376, 9805.650
451.2197, 9847.826
451.7018, 9889.271
452.1839, 9929.409
452.6660, 9954.879
453.1482, 9941.886
453.6303, 9901.443
454.1124, 9891.615
454.5945, 9935.797
455.0766, 9974.112
455.5587, 9942.528
456.0409, 9862.453
456.5230, 9794.278
457.0051, 9768.054
457.4872, 9745.965
457.9693, 9686.969
458.4514, 9597.860
458.9336, 9521.505
459.4156, 9481.881
459.8978, 9463.473
460.3799, 9423.842
460.8620, 9349.775
461.3441, 9283.357
461.8262, 9240.174
462.3083, 9203.627
462.7905, 9152.477
463.2726, 9084.581
463.7547, 9019.055
464.2368, 8975.388
464.7189, 8955.165
465.2010, 8943.696
465.6832, 8939.738
466.1653, 8945.196
466.6474, 8968.479
467.1295, 9000.081
467.6116, 9023.971
468.0938, 9031.166
468.5759, 9031.169
469.0580, 9044.888
469.5401, 9074.914
470.0222, 9111.582
470.5043, 9162.542
470.9865, 9212.748
471.4686, 9249.126
471.9507, 9272.282
472.4328, 9299.238
472.9149, 9347.090
473.3970, 9409.342
473.8792, 9460.520
474.3613, 9495.178
474.8434, 9531.703
475.3255, 9583.312
475.8076, 9645.382
476.2897, 9710.033
476.7719, 9780.284
477.2540, 9847.545
477.7361, 9895.656
478.2182, 9934.842
478.7003, 10001.08
479.1824, 10110.93
479.6646, 10236.08
480.1467, 10330.36
480.6288, 10381.65
481.1109, 10441.22
481.5930, 10512.73
482.0751, 10591.99
482.5573, 10679.80
483.0394, 10773.77
483.5215, 10866.86
484.0036, 10954.27
484.4857, 11036.31
484.9678, 11114.38
485.4500, 11169.55
485.9321, 11246.97
486.4142, 11369.10
486.8963, 11505.65
487.3784, 11630.82
487.8605, 11736.68
488.3427, 11827.20
488.8248, 11897.44
489.3069, 11945.43
489.7890, 12026.80
490.2711, 12182.89
490.7532, 12320.41
491.2354, 12371.16
491.7175, 12367.50
492.1996, 12388.41
492.6817, 12487.73
493.1638, 12600.38
493.6459, 12644.35
494.1281, 12623.91
494.6102, 12597.34
495.0923, 12584.56
495.5744, 12579.29
496.0565, 12572.34
496.5386, 12565.66
497.0208, 12550.30
497.5029, 12519.22
497.9850, 12481.36
498.4671, 12445.78
498.9492, 12413.09
499.4313, 12377.52
499.9135, 12332.78
500.3956, 12280.72
500.8777, 12244.96
501.3598, 12252.48
501.8419, 12244.02
502.3240, 12173.82
502.8062, 12099.65
503.2883, 12096.58
503.7704, 12183.21
504.2525, 12298.34
504.7346, 12352.76
505.2167, 12330.38
505.6989, 12363.90
506.1810, 12485.43
506.6631, 12633.32
507.1452, 12777.67
507.6273, 12924.20
508.1094, 13087.81
508.5916, 13275.85
509.0737, 13482.54
509.5558, 13692.25
510.0379, 13905.28
510.5200, 14157.13
511.0021, 14466.26
511.4843, 14812.97
511.9664, 15171.98
512.4485, 15544.11
512.9306, 15917.59
513.4127, 16279.15
513.8948, 16645.45
514.3770, 17035.03
514.8591, 17447.74
515.3412, 17863.07
515.8233, 18261.22
516.3054, 18654.00
516.7875, 19106.32
517.2697, 19677.63
517.7518, 20239.82
518.2339, 20795.54
518.7160, 21330.74
519.1981, 21828.15
519.6802, 22288.73
520.1624, 22731.17
520.6445, 23196.30
521.1266, 23687.48
521.6087, 24065.74
522.0908, 24308.28
522.5729, 24460.79
523.0551, 24570.21
523.5372, 24607.97
524.0193, 24527.19
524.5014, 24310.54
524.9835, 23980.22
525.4656, 23535.12
525.9478, 22988.70
526.4299, 22399.86
526.9120, 21786.29
527.3941, 21134.57
527.8762, 20409.38
528.3583, 19607.30
528.8405, 18846.78
529.3226, 18155.77
529.8047, 17491.83
530.2868, 16806.14
530.7689, 16120.58
531.2510, 15494.72
531.7332, 14959.95
532.2153, 14495.30
532.6974, 14049.35
533.1795, 13610.24
533.6616, 13215.02
534.1437, 12881.57
534.6259, 12570.79
535.1080, 12256.34
535.5901, 11941.09
536.0722, 11649.96
536.5543, 11400.71
537.0364, 11189.23
537.5186, 11009.96
538.0007, 10867.35
538.4828, 10738.24
538.9649, 10617.11
539.4470, 10504.56
539.9291, 10402.52
540.4113, 10311.90
540.8934, 10227.19
541.3755, 10142.33
541.8576, 10063.25
542.3397, 10002.28
542.8218, 9960.338
543.3040, 9924.945
543.7861, 9887.944
544.2682, 9849.380
544.7503, 9809.709
545.2324, 9765.172
545.7145, 9724.222
546.1967, 9680.473
546.6788, 9645.595
547.1609, 9640.055
547.6430, 9664.291
548.1251, 9689.305
548.6072, 9677.143
549.0894, 9625.591
549.5715, 9609.196
550.0536, 9661.772
550.5357, 9701.240
551.0178, 9684.766
551.4999, 9643.336
551.9821, 9620.185
552.4642, 9630.344
552.9463, 9649.594
553.4284, 9659.582
553.9105, 9660.556
554.3926, 9649.811
554.8748, 9622.835
555.3569, 9599.690
555.8390, 9605.795
556.3211, 9639.754
556.8032, 9646.407
557.2853, 9620.042
557.7675, 9571.017
558.2496, 9489.492
558.7317, 9392.080
559.2138, 9308.121
559.6959, 9248.202
560.1780, 9198.006
560.6602, 9138.013
561.1423, 9069.494
561.6244, 8987.276
562.1065, 8875.023
562.5886, 8765.635
563.0707, 8666.020
563.5529, 8578.097
564.0350, 8505.033
564.5171, 8452.043
564.9992, 8404.122
565.4813, 8336.358
565.9634, 8250.734
566.4456, 8180.719
566.9277, 8137.139
567.4098, 8104.672
567.8919, 8067.686
568.3740, 8026.923
568.8561, 7989.789
569.3383, 7958.036
569.8204, 7929.353
570.3025, 7903.269
570.7846, 7878.764
571.2667, 7850.649
571.7488, 7816.416
572.2310, 7787.143
572.7131, 7785.573
573.1952, 7827.627
573.6773, 7854.439
574.1594, 7848.727
574.6415, 7845.781
575.1237, 7861.071
575.6058, 7890.858
576.0879, 7927.032
576.5700, 7968.769
577.0521, 8006.697
577.5342, 8025.259
578.0164, 8024.323
578.4985, 8017.059
578.9806, 8005.034
579.4627, 7989.860
579.9448, 7972.105
580.4269, 7952.118
580.9091, 7932.713
581.3912, 7919.991
581.8733, 7902.987
582.3554, 7867.735
582.8375, 7822.119
583.3196, 7785.328
583.8018, 7765.546
584.2839, 7757.681
584.7660, 7756.104
585.2481, 7773.199
585.7302, 7760.437
586.2123, 7683.211
586.6945, 7612.426
587.1766, 7581.856
587.6587, 7579.082
588.1408, 7575.333
588.6229, 7556.433
589.1050, 7534.428
589.5872, 7528.562
590.0693, 7538.128
590.5514, 7545.351
591.0335, 7548.925
591.5156, 7544.972
591.9977, 7523.705
592.4799, 7488.175
592.9620, 7462.450
593.4441, 7446.869
593.9262, 7444.823
594.4083, 7469.255
594.8904, 7506.947
595.3726, 7534.090
595.8547, 7542.082
596.3368, 7532.111
596.8189, 7500.534
597.3010, 7436.111
597.7831, 7404.073
598.2653, 7438.698
598.7474, 7471.130
599.2295, 7479.758
599.7116, 7472.328
600.1937, 7461.917
600.6758, 7453.145
601.1580, 7442.530
601.6401, 7421.326
602.1222, 7393.629
602.6043, 7381.870
603.0864, 7392.778
603.5685, 7408.006
604.0507, 7413.681
604.5328, 7409.968
605.0149, 7403.504
605.4970, 7383.107
605.9791, 7373.058
606.4612, 7389.829
606.9434, 7418.085
607.4255, 7443.472
607.9076, 7460.289
608.3897, 7461.015
608.8718, 7434.126
609.3539, 7380.363
609.8361, 7334.389
610.3182, 7291.282
610.8003, 7264.577
611.2824, 7274.174
611.7645, 7292.982
612.2466, 7288.258
612.7288, 7252.626
613.2109, 7219.866
613.6930, 7226.221
614.1751, 7245.882
614.6572, 7223.377
615.1393, 7155.184
615.6215, 7092.085
616.1036, 7065.775
616.5857, 7067.792
617.0678, 7066.986
617.5499, 7071.580
618.0320, 7061.737
618.5142, 7021.312
618.9963, 6977.870
619.4784, 6952.492
619.9605, 6944.420
620.4426, 6942.311
620.9247, 6940.771
621.4069, 6936.413
621.8890, 6915.511
622.3711, 6872.833
622.8532, 6845.926
623.3353, 6857.633
623.8174, 6875.418
624.2996, 6863.063
624.7817, 6822.725
625.2638, 6786.634
625.7459, 6762.699
626.2280, 6746.714
626.7101, 6738.252
627.1923, 6735.057
627.6744, 6734.175
628.1565, 6734.680
628.6386, 6729.531
629.1207, 6704.679
629.6028, 6650.827
630.0850, 6615.099
630.5671, 6615.547
631.0492, 6616.267
631.5313, 6604.459
632.0134, 6586.228
632.4955, 6571.382
632.9777, 6563.104
633.4598, 6558.593
633.9419, 6559.748
634.4240, 6562.783
634.9061, 6552.137
635.3882, 6523.971
635.8704, 6496.331
636.3525, 6483.439
636.8346, 6482.674
637.3167, 6477.073
637.7988, 6468.772
638.2809, 6453.708
638.7631, 6424.539
639.2452, 6392.700
639.7273, 6367.822
640.2094, 6351.214
640.6915, 6340.434
641.1736, 6334.274
641.6558, 6331.808
642.1379, 6329.887
642.6200, 6328.201
643.1021, 6329.226
643.5842, 6341.172
644.0663, 6348.868
644.5485, 6331.346
645.0306, 6289.588
645.5127, 6259.261
645.9948, 6257.541
646.4769, 6264.646
646.9590, 6268.189
647.4412, 6267.709
647.9233, 6264.624
648.4054, 6259.503
648.8875, 6249.595
649.3696, 6228.118
649.8517, 6189.807
650.3339, 6167.587
650.8160, 6169.858
651.2981, 6179.252
651.7802, 6199.071
652.2623, 6218.865
652.7444, 6222.771
653.2266, 6205.152
653.7087, 6182.835
654.1908, 6167.274
654.6729, 6156.790
655.1550, 6146.505
655.6371, 6136.004
656.1193, 6132.474
656.6014, 6143.108
657.0835, 6162.258
657.5656, 6168.364
658.0477, 6150.513
658.5298, 6134.011
659.0120, 6113.538
659.4941, 6098.959
659.9762, 6104.952
660.4583, 6123.398
660.9404, 6127.922
661.4225, 6098.470
661.9047, 6057.997
662.3868, 6051.167
662.8689, 6076.536
663.3510, 6087.367
663.8331, 6067.746
664.3152, 6044.778
664.7974, 6049.915
665.2795, 6080.751
665.7616, 6088.160
666.2437, 6047.183
666.7258, 6010.451
667.2079, 5980.587
667.6901, 5973.927
668.1722, 6037.606
668.6543, 6164.268
669.1364, 6256.843
669.6185, 6202.804
670.1006, 6036.883
670.5828, 5984.819
671.0649, 6090.644
671.5470, 6163.832
672.0291, 6121.332
672.5112, 6032.664
672.9933, 5974.247
673.4755, 5947.465
673.9576, 5932.499
674.4397, 5936.999
674.9218, 5939.665
675.4039, 5915.636
675.8860, 5876.936
676.3682, 5857.816
676.8503, 5871.279
677.3324, 5889.298
677.8145, 5863.015
678.2966, 5780.981
678.7787, 5749.409
679.2609, 5801.188
679.7430, 5855.702
680.2251, 5892.701
680.7072, 5909.920
681.1893, 5898.836
681.6714, 5854.407
682.1536, 5809.421
682.6357, 5776.284
683.1178, 5756.625
683.5999, 5758.485
684.0820, 5778.559
684.5641, 5799.165
685.0463, 5811.574
685.5284, 5815.441
686.0105, 5808.384
686.4926, 5781.821
686.9747, 5764.676
687.4568, 5767.014
687.9390, 5768.581
688.4211, 5754.835
688.9032, 5735.732
689.3853, 5733.638
689.8674, 5761.513
690.3495, 5785.411
690.8317, 5767.208
691.3138, 5725.946
691.7959, 5704.171
692.2780, 5707.254
692.7601, 5720.093
693.2422, 5734.564
693.7244, 5748.070
694.2065, 5749.664
694.6886, 5724.084
695.1707, 5711.532
695.6528, 5723.263
696.1349, 5738.310
696.6171, 5744.609
697.0992, 5743.560
697.5813, 5742.320
698.0634, 5746.004
698.5455, 5746.572
699.0276, 5729.535
699.5098, 5701.029
699.9919, 5682.789
700.4740, 5678.979
700.9561, 5685.857
701.4382, 5703.232
701.9203, 5728.754
702.4025, 5743.601
702.8846, 5738.228
703.3667, 5734.632
703.8488, 5741.032
704.3309, 5744.403
704.8130, 5728.145
705.2952, 5698.497
705.7773, 5680.782
706.2594, 5693.929
706.7415, 5718.885
707.2236, 5732.089
707.7057, 5733.665
708.1879, 5718.980
708.6700, 5682.795
709.1521, 5654.891
709.6342, 5668.479
710.1163, 5720.836
710.5984, 5746.871
711.0806, 5727.258
711.5627, 5708.282
712.0448, 5691.119
712.5269, 5681.267
713.0090, 5685.529
713.4911, 5702.289
713.9733, 5723.393
714.4554, 5749.379
714.9375, 5769.891
715.4196, 5761.744
715.9017, 5729.049
716.3839, 5706.656
716.8660, 5705.718
717.3481, 5706.209
717.8302, 5683.808
718.3123, 5638.791
718.7944, 5623.616
719.2766, 5666.133
719.7587, 5699.833
720.2408, 5709.560
720.7229, 5708.191
721.2050, 5704.453
721.6871, 5701.066
722.1693, 5701.208
722.6514, 5710.256
723.1335, 5720.544
723.6156, 5717.815
724.0977, 5703.743
724.5798, 5689.153
725.0620, 5675.800
725.5441, 5668.311
726.0262, 5673.145
726.5083, 5690.290
726.9904, 5701.051
727.4725, 5705.663
727.9547, 5703.798
728.4368, 5688.045
728.9189, 5670.923
729.4010, 5665.305
729.8831, 5670.189
730.3652, 5673.394
730.8474, 5667.422
731.3295, 5655.877
731.8116, 5637.383
732.2937, 5616.072
732.7758, 5617.408
733.2579, 5650.423
733.7401, 5686.977
734.2222, 5699.548
734.7043, 5688.910
735.1864, 5674.529
735.6685, 5652.745
736.1506, 5632.021
736.6328, 5606.815
737.1149, 5588.093
737.5970, 5587.878
738.0791, 5603.519
738.5612, 5620.009
739.0433, 5632.032
739.5255, 5638.439
740.0076, 5637.329
740.4897, 5629.505
740.9718, 5614.987
741.4539, 5593.709
741.9360, 5575.708
742.4182, 5570.018
742.9003, 5575.757
743.3824, 5586.526
743.8645, 5613.135
744.3466, 5625.877
744.8287, 5610.384
745.3109, 5590.096
745.7930, 5578.819
746.2751, 5576.316
746.7572, 5577.228
747.2393, 5578.294
747.7214, 5583.954
748.2036, 5606.228
748.6857, 5633.402
749.1678, 5640.567
749.6499, 5624.747
750.1320, 5600.514
750.6141, 5576.916
751.0963, 5557.231
751.5784, 5557.490
752.0605, 5589.165
752.5426, 5607.948
753.0247, 5596.248
753.5068, 5583.313
753.9890, 5590.678
754.4711, 5610.765
754.9532, 5622.187
755.4353, 5616.208
755.9174, 5608.957
756.3995, 5608.351
756.8817, 5611.154
757.3638, 5614.302
757.8459, 5617.040
758.3280, 5617.606
758.8101, 5614.174
759.2922, 5611.981
759.7744, 5625.212
760.2565, 5656.235
760.7386, 5677.944
761.2207, 5683.942
761.7028, 5687.948
762.1849, 5695.669
762.6671, 5708.384
763.1492, 5731.372
763.6313, 5779.012
764.1134, 5803.637
764.5955, 5774.629
765.0776, 5735.896
765.5598, 5713.767
766.0419, 5710.173
766.5240, 5724.094
767.0061, 5755.481
767.4882, 5792.075
767.9703, 5807.217
768.4525, 5810.647
768.9346, 5873.099
769.4167, 6009.474
769.8988, 6105.318
770.3809, 6093.598
770.8630, 6019.854
771.3452, 5970.358
771.8273, 5949.899
772.3094, 5941.384
772.7915, 5958.800
773.2736, 5972.081
773.7557, 5965.752
774.2379, 5949.551
774.7200, 5932.335
775.2021, 5917.157
775.6842, 5917.346
776.1663, 5951.613
776.6484, 6002.719
777.1306, 6048.751
777.6127, 6087.434
778.0948, 6110.274
778.5769, 6113.587
779.0590, 6104.399
779.5411, 6087.044
780.0233, 6060.590
780.5054, 6068.380
780.9875, 6140.522
781.4696, 6197.224
781.9517, 6207.527
782.4338, 6204.351
782.9160, 6213.244
783.3981, 6234.220
783.8802, 6253.612
784.3623, 6271.968
784.8444, 6281.931
785.3265, 6267.466
785.8087, 6246.240
786.2908, 6250.414
786.7729, 6281.789
787.2550, 6311.220
787.7371, 6314.201
788.2192, 6301.833
788.7014, 6306.507
789.1835, 6329.866
789.6656, 6353.104
790.1477, 6370.709
790.6298, 6392.609
791.1119, 6429.640
791.5941, 6477.437
792.0762, 6516.426
792.5583, 6545.039
793.0404, 6567.417
793.5225, 6569.085
794.0046, 6577.746
794.4868, 6621.895
794.9689, 6687.976
795.4510, 6741.930
795.9331, 6768.270
796.4152, 6788.018
796.8973, 6815.881
797.3795, 6855.507
797.8616, 6923.306
798.3437, 7018.504
798.8258, 7106.067
799.3079, 7166.832
799.7900, 7217.671
800.2722, 7289.661
800.7543, 7389.326
801.2364, 7481.705
801.7185, 7558.254
802.2006, 7638.715
802.6827, 7723.236
803.1649, 7817.776
803.6470, 7932.167
804.1291, 8067.599
804.6112, 8198.782
805.0933, 8310.812
805.5754, 8420.645
806.0576, 8542.142
806.5397, 8668.781
807.0218, 8780.429
807.5039, 8877.558
807.9860, 8994.143
808.4681, 9167.518
808.9503, 9376.760
809.4324, 9551.219
809.9145, 9687.980
810.3966, 9838.333
810.8787, 10016.98
811.3608, 10198.42
811.8430, 10355.31
812.3251, 10493.19
812.8072, 10661.46
813.2893, 10889.75
813.7714, 11104.45
814.2535, 11286.00
814.7357, 11464.50
815.2178, 11669.28
815.6999, 11885.65
816.1820, 12073.88
816.6641, 12215.13
817.1462, 12347.46
817.6284, 12497.94
818.1105, 12662.12
818.5926, 12843.72
819.0747, 13035.40
819.5568, 13203.85
820.0389, 13332.91
820.5211, 13438.85
821.0032, 13548.52
821.4853, 13663.93
821.9674, 13749.15
822.4495, 13795.62
822.9316, 13834.50
823.4138, 13881.50
823.8959, 13922.33
824.3780, 13936.53
824.8601, 13924.09
825.3422, 13906.75
825.8243, 13905.56
826.3065, 13877.43
826.7886, 13792.31
827.2707, 13680.54
827.7528, 13568.39
828.2349, 13462.18
828.7170, 13364.26
829.1992, 13280.20
829.6813, 13197.53
830.1633, 13104.63
830.6454, 12998.79
831.1276, 12872.17
831.6097, 12723.57
832.0918, 12558.25
832.5739, 12377.06
833.0560, 12188.37
833.5381, 12013.13
834.0203, 11847.31
834.5024, 11710.07
834.9845, 11622.24
835.4666, 11533.12
835.9487, 11407.84
836.4308, 11269.66
836.9130, 11149.38
837.3951, 11048.33
837.8772, 10968.85
838.3593, 10924.29
838.8414, 10889.32
839.3235, 10851.37
839.8057, 10811.86
840.2878, 10766.97
840.7699, 10719.89
841.2520, 10694.42
841.7341, 10715.29
842.2162, 10765.52
842.6984, 10814.55
843.1805, 10864.61
843.6626, 10928.19
844.1447, 11008.32
844.6268, 11090.80
845.1089, 11163.33
845.5911, 11228.95
846.0732, 11304.28
846.5553, 11392.92
847.0374, 11479.28
847.5195, 11540.65
848.0016, 11626.98
848.4838, 11788.83
848.9659, 11989.61
849.4480, 12159.90
849.9301, 12292.51
850.4122, 12403.47
850.8943, 12493.26
851.3765, 12567.00
851.8586, 12609.22
852.3407, 12644.29
852.8228, 12726.35
853.3049, 12864.17
853.7870, 12978.03
854.2692, 12987.66
854.7513, 12931.84
855.2334, 12877.55
855.7155, 12822.43
856.1976, 12755.30
856.6797, 12673.27
857.1619, 12578.78
857.6440, 12473.37
858.1261, 12356.47
858.6082, 12219.88
859.0903, 12051.61
859.5724, 11901.56
860.0546, 11786.20
860.5367, 11675.12
861.0188, 11545.07
861.5009, 11404.89
861.9830, 11275.22
862.4651, 11153.39
862.9473, 11049.02
863.4294, 10967.22
863.9115, 10900.55
864.3936, 10847.65
864.8757, 10805.65
865.3578, 10770.42
865.8400, 10741.05
866.3221, 10723.80
866.8042, 10726.60
867.2863, 10741.73
867.7684, 10750.30
868.2505, 10762.46
868.7327, 10814.15
869.2148, 10912.33
869.6969, 11022.42
870.1790, 11112.85
870.6611, 11195.36
871.1432, 11313.96
871.6254, 11472.30
872.1075, 11634.90
872.5896, 11791.72
873.0717, 11967.19
873.5538, 12176.79
874.0359, 12417.08
874.5181, 12674.95
875.0002, 12967.23
875.4823, 13252.44
875.9644, 13626.54
876.4465, 14017.68
876.9286, 14413.88
877.4108, 14812.94
877.8929, 15200.62
878.3750, 15579.47
878.8571, 15995.96
879.3392, 16498.95
879.8214, 17027.75
880.3035, 17539.40
880.7856, 18042.63
881.2677, 18549.94
881.7498, 19066.21
882.2319, 19594.11
882.7141, 20141.85
883.1962, 20683.16
883.6783, 21168.66
884.1604, 21602.76
884.6425, 22039.49
885.1246, 22489.28
885.6068, 22841.20
886.0889, 23034.86
886.5710, 23103.77
887.0531, 23113.92
887.5352, 23077.13
888.0173, 22912.12
888.4995, 22605.72
888.9816, 22192.29
889.4637, 21646.13
889.9458, 21020.02
890.4279, 20359.79
890.9100, 19666.95
891.3922, 18951.54
891.8743, 18204.16
892.3564, 17443.76
892.8385, 16645.39
893.3206, 15860.76
893.8027, 15130.24
894.2849, 14452.34
894.7670, 13815.96
895.2491, 13214.52
895.7312, 12657.45
896.2133, 12150.76
896.6954, 11689.41
897.1776, 11284.86
897.6597, 10924.21
898.1418, 10569.98
898.6239, 10207.50
899.1060, 9859.404
899.5881, 9546.598
900.0703, 9266.538
900.5524, 9001.130
901.0345, 8750.307
901.5166, 8525.505
901.9987, 8330.820
902.4808, 8157.481
902.9630, 8002.606
903.4451, 7860.750
903.9272, 7708.710
904.4093, 7534.823
904.8914, 7373.327
905.3735, 7217.042
905.8557, 7084.197
906.3378, 6994.399
906.8199, 6926.250
907.3020, 6851.703
907.7841, 6767.580
908.2662, 6683.870
908.7484, 6595.157
909.2305, 6515.938
909.7126, 6465.744
910.1947, 6421.021
910.6768, 6348.551
911.1589, 6251.511
911.6411, 6163.776
912.1232, 6105.043
912.6053, 6059.194
913.0874, 6014.854
913.5695, 5970.241
914.0516, 5916.855
914.5338, 5858.590
915.0159, 5816.606
915.4980, 5800.939
915.9801, 5791.639
916.4622, 5759.836
916.9443, 5709.340
917.4265, 5664.883
917.9086, 5626.788
918.3907, 5591.815
918.8728, 5559.611
919.3549, 5526.344
919.8370, 5485.613
920.3192, 5440.916
920.8013, 5418.798
921.2834, 5435.057
921.7655, 5434.795
922.2476, 5394.455
922.7297, 5361.241
923.2119, 5369.375
923.6940, 5399.014
924.1761, 5422.037
924.6582, 5444.904
925.1403, 5428.540
925.6224, 5309.981
926.1046, 5218.941
926.5867, 5245.946
927.0688, 5306.480
927.5509, 5297.833
928.0330, 5221.372
928.5151, 5160.199
928.9973, 5160.498
929.4794, 5172.493
929.9615, 5158.739
930.4436, 5136.163
930.9257, 5122.802
931.4078, 5121.176
931.8900, 5135.048
932.3721, 5165.926
932.8542, 5191.990
933.3363, 5179.559
933.8184, 5146.185
934.3005, 5141.696
934.7827, 5161.620
935.2648, 5173.175
935.7469, 5167.326
936.2290, 5155.463
936.7111, 5146.512
937.1932, 5141.630
937.6754, 5147.930
938.1575, 5168.078
938.6396, 5176.221
939.1217, 5167.967
939.6038, 5152.686
940.0859, 5133.324
940.5681, 5112.467
941.0502, 5094.930
941.5323, 5081.286
942.0144, 5068.060
942.4965, 5056.286
942.9786, 5043.578
943.4608, 5030.457
943.9429, 5015.295
944.4250, 4989.308
944.9071, 4958.631
945.3892, 4951.370
945.8713, 4997.084
946.3535, 5021.636
946.8356, 4984.923
947.3177, 4941.402
947.7998, 4928.511
948.2819, 4934.965
948.7640, 4937.943
949.2462, 4931.952
949.7283, 4925.476
950.2104, 4930.316
950.6925, 4930.196
951.1746, 4902.438
951.6567, 4863.513
952.1389, 4839.489
952.6210, 4833.012
953.1031, 4835.115
953.5852, 4841.956
954.0673, 4847.180
954.5494, 4835.064
955.0316, 4848.290
955.5137, 4825.867
955.9958, 4860.123
956.4779, 4884.424
956.9600, 4885.918
957.4421, 4877.635
957.9243, 4873.111
958.4064, 4871.724
958.8885, 4866.619
959.3706, 4856.422
959.8527, 4875.542
960.3348, 4939.241
960.8170, 4985.351
961.2991, 4967.494
961.7812, 4913.308
962.2633, 4888.234
962.7454, 4900.846
963.2275, 4902.413
963.7097, 4882.223
964.1918, 4871.938
964.6739, 4886.536
965.1560, 4910.265
965.6381, 4931.270
966.1202, 4948.575
966.6024, 4951.791
967.0845, 4919.337
967.5666, 4904.717
968.0487, 4928.718
968.5308, 4955.492
969.0129, 4967.316
969.4951, 4967.783
969.9772, 4961.318
970.4593, 4947.537
970.9414, 4943.017
971.4235, 4962.769
971.9056, 4981.922
972.3878, 4979.612
972.8699, 4975.346
973.3520, 5001.593
973.8341, 5047.988
974.3162, 5065.705
974.7983, 5025.311
975.2805, 4985.682
975.7626, 4998.656
976.2447, 5031.670
976.7268, 5045.723
977.2089, 5047.723
977.6910, 5060.540
978.1732, 5089.572
978.6553, 5121.393
979.1374, 5149.167
979.6195, 5167.856
980.1016, 5163.519
980.5837, 5144.165
981.0659, 5134.108
981.5480, 5134.787
982.0301, 5129.726
982.5122, 5109.879
982.9943, 5092.627
983.4764, 5109.441
983.9586, 5152.315
984.4407, 5173.736
984.9228, 5174.068
985.4049, 5166.240
985.8870, 5152.810
986.3691, 5138.623
986.8513, 5126.954
987.3334, 5118.575
987.8155, 5114.880
988.2976, 5121.794
988.7797, 5126.179
989.2618, 5151.357
989.7440, 5178.615
990.2261, 5207.984
990.7082, 5228.123
991.1903, 5219.645
991.6724, 5183.789
992.1545, 5176.676
992.6367, 5217.799
993.1188, 5247.458
993.6009, 5249.590
994.0830, 5250.678
994.5651, 5267.254
995.0472, 5292.986
995.5294, 5311.493
996.0115, 5314.876
996.4936, 5345.208
996.9757, 5429.791
997.4578, 5508.075
997.9399, 5582.524
998.4221, 5628.766
998.9042, 5607.283
999.3863, 5538.932
999.8684, 5500.273
1000.351, 5517.310
1000.833, 5535.633
1001.315, 5537.881
1001.797, 5539.646
1002.279, 5555.511
1002.761, 5573.745
1003.243, 5582.448
1003.725, 5577.965
1004.207, 5551.955
1004.690, 5485.263
1005.172, 5418.569
1005.654, 5378.354
1006.136, 5347.275
1006.618, 5315.563
1007.100, 5276.631
1007.582, 5216.753
1008.064, 5132.660
1008.547, 5049.931
1009.029, 4987.146
1009.511, 4935.786
1009.993, 4889.033
1010.475, 4846.954
1010.957, 4814.246
1011.439, 4786.771
1011.921, 4745.555
1012.403, 4679.657
1012.886, 4613.831
1013.368, 4578.408
1013.850, 4560.168
1014.332, 4538.994
1014.814, 4513.075
1015.296, 4474.208
1015.778, 4423.786
1016.260, 4386.270
1016.742, 4382.727
1017.225, 4393.303
1017.707, 4380.246
1018.189, 4351.794
1018.671, 4341.425
1019.153, 4348.491
1019.635, 4345.858
1020.117, 4323.501
1020.599, 4299.022
1021.082, 4292.643
1021.564, 4295.790
1022.046, 4275.128
1022.528, 4233.287
1023.010, 4211.312
1023.492, 4215.265
1023.974, 4216.083
1024.456, 4198.374
1024.938, 4173.336
1025.421, 4156.289
1025.903, 4147.243
1026.385, 4147.259
1026.867, 4157.528
1027.349, 4165.803
1027.831, 4169.614
1028.313, 4172.108
1028.795, 4176.340
1029.278, 4178.782
1029.760, 4169.396
1030.242, 4145.002
1030.724, 4138.110
1031.206, 4157.863
1031.688, 4161.981
1032.170, 4132.787
1032.652, 4097.825
1033.135, 4079.604
1033.617, 4075.877
1034.099, 4079.774
1034.581, 4098.797
1035.063, 4102.362
1035.545, 4080.664
1036.027, 4062.982
1036.509, 4060.592
1036.991, 4065.924
1037.474, 4072.761
1037.956, 4080.502
1038.438, 4082.897
1038.920, 4077.866
1039.402, 4071.058
1039.884, 4053.520
1040.366, 4047.117
1040.848, 4077.562
1041.330, 4113.987
1041.813, 4107.368
1042.295, 4054.481
1042.777, 4028.650
1043.259, 4057.250
1043.741, 4072.503
1044.223, 4057.249
1044.705, 4038.587
1045.187, 4030.329
1045.670, 4028.845
1046.152, 4029.246
1046.634, 4032.535
1047.116, 4028.463
1047.598, 4001.831
1048.080, 3987.503
1048.562, 4008.071
1049.044, 4029.588
1049.526, 4023.429
1050.009, 4000.863
1050.491, 3989.915
1050.973, 3995.923
1051.455, 4002.575
1051.937, 4015.144
1052.419, 4017.816
1052.901, 3986.578
1053.383, 3958.481
1053.865, 3978.183
1054.348, 4028.442
1054.830, 4049.834
1055.312, 4022.394
1055.794, 3996.160
1056.276, 3981.584
1056.758, 3973.035
1057.240, 3971.215
1057.722, 3971.748
1058.205, 3968.123
1058.687, 3962.367
1059.169, 3966.653
1059.651, 3996.277
1060.133, 4006.239
1060.615, 3960.640
1061.097, 3915.339
1061.579, 3901.194
1062.062, 3907.490
1062.544, 3924.696
1063.026, 3948.109
1063.508, 3964.001
1063.990, 3966.192
1064.472, 3963.560
1064.954, 3952.331
1065.436, 3944.763
1065.918, 3952.664
1066.401, 3967.860
1066.883, 3981.185
1067.365, 3989.948
1067.847, 3987.786
1068.329, 3962.570
1068.811, 3941.124
1069.293, 3937.387
1069.775, 3939.779
1070.257, 3938.906
1070.740, 3938.061
1071.222, 3946.408
1071.704, 3964.299
1072.186, 3975.646
1072.668, 3975.769
1073.150, 3965.350
1073.632, 3924.541
1074.114, 3891.699
1074.597, 3911.546
1075.079, 3959.440
1075.561, 3986.201
1076.043, 3982.184
1076.525, 3979.094
1077.007, 4001.019
1077.489, 4014.174
1077.971, 3986.339
1078.453, 3955.572
1078.936, 3965.850
1079.418, 3997.423
1079.900, 4000.287
1080.382, 3963.163
1080.864, 3940.249
1081.346, 3975.746
1081.828, 4006.941
1082.310, 3973.894
1082.792, 3943.941
1083.275, 4012.770
1083.757, 4128.142
1084.239, 4159.320
1084.721, 4072.091
1085.203, 3987.797
1085.685, 3951.496
1086.167, 3940.808
1086.649, 3959.417
1087.131, 3984.779
1087.614, 3999.055
1088.096, 4001.883
1088.578, 3995.947
1089.060, 3981.170
1089.542, 3968.564
1090.024, 3958.969
1090.506, 3957.087
1090.988, 3974.314
1091.471, 3992.859
1091.953, 3991.156
1092.435, 3977.568
1092.917, 3977.400
1093.399, 3998.669
1093.881, 4012.342
1094.363, 3998.185
1094.845, 3985.732
1095.328, 3990.352
1095.810, 4002.139
1096.292, 4022.175
1096.774, 4039.310
1097.256, 4023.438
1097.738, 3961.051
1098.220, 3919.020
1098.702, 3930.410
1099.184, 3951.816
1099.667, 3975.597
1100.149, 3991.883
1100.631, 3985.328
1101.113, 3966.058
1101.595, 3957.843
1102.077, 3964.541
1102.559, 3984.354
1103.041, 4047.118
1103.523, 4083.663
1104.006, 4039.567
1104.488, 3984.769
1104.970, 3985.546
1105.452, 4020.871
1105.934, 4029.502
1106.416, 3996.157
1106.898, 3975.451
1107.380, 3992.026
1107.863, 4002.151
1108.345, 3986.088
1108.827, 3964.793
1109.309, 3952.632
1109.791, 3948.217
1110.273, 3945.826
1110.755, 3943.752
1111.237, 3949.936
1111.719, 3973.545
1112.202, 3993.814
1112.684, 4010.339
1113.166, 4017.892
1113.648, 4010.882
1114.130, 3992.878
1114.612, 3969.578
1115.094, 3937.195
1115.576, 3918.034
1116.058, 3926.551
1116.541, 3925.817
1117.023, 3897.094
1117.505, 3872.886
1117.987, 3879.722
1118.469, 3901.420
1118.951, 3903.641
1119.433, 3881.426
1119.915, 3877.436
1120.398, 3905.796
1120.880, 3922.123
1121.362, 3911.154
1121.844, 3901.028
1122.326, 3912.532
1122.808, 3931.021
1123.290, 3929.049
1123.772, 3905.249
1124.255, 3890.294
1124.737, 3886.932
1125.219, 3883.942
1125.701, 3879.754
1126.183, 3875.579
1126.665, 3872.200
1127.147, 3867.378
1127.629, 3849.261
1128.111, 3822.375
1128.594, 3889.177
1129.076, 4077.270
1129.558, 4172.104
1130.040, 4135.094
1130.522, 4062.445
1131.004, 3996.408
1131.486, 3938.760
1131.968, 3890.470
1132.450, 3853.897
1132.933, 3853.677
1133.415, 3889.357
1133.897, 3887.217
1134.379, 3838.419
1134.861, 3802.390
1135.343, 3805.245
1135.825, 3821.386
1136.307, 3823.049
1136.790, 3815.799
1137.272, 3814.089
1137.754, 3817.902
1138.236, 3832.135
1138.718, 3854.195
1139.200, 3857.781
1139.682, 3834.665
1140.164, 3812.855
1140.646, 3819.333
1141.129, 3837.834
1141.611, 3839.942
1142.093, 3830.494
1142.575, 3819.614
1143.057, 3809.083
1143.539, 3802.228
1144.021, 3799.478
1144.503, 3797.409
1144.985, 3794.111
1145.468, 3788.771
1145.950, 3776.479
1146.432, 3764.258
1146.914, 3763.621
1147.396, 3771.473
1147.878, 3783.498
1148.360, 3796.152
1148.842, 3799.508
1149.325, 3786.640
1149.807, 3771.279
1150.289, 3758.767
1150.771, 3754.153
1151.253, 3768.605
1151.735, 3790.163
1152.217, 3801.669
1152.699, 3803.480
1153.182, 3808.222
1153.664, 3823.373
1154.146, 3823.847
1154.628, 3777.551
1155.110, 3737.412
1155.592, 3737.731
1156.074, 3755.100
1156.556, 3769.886
1157.038, 3780.736
1157.521, 3791.625
1158.003, 3804.510
1158.485, 3808.119
1158.967, 3785.345
1159.449, 3773.248
1159.931, 3799.978
1160.413, 3822.979
1160.895, 3806.380
1161.377, 3769.230
1161.860, 3747.643
1162.342, 3743.404
1162.824, 3742.264
1163.306, 3744.605
1163.788, 3749.428
1164.270, 3756.029
1164.752, 3766.898
1165.234, 3788.951
1165.717, 3808.663
1166.199, 3806.714
1166.681, 3785.906
1167.163, 3772.480
1167.645, 3769.511
1168.127, 3757.017
1168.609, 3727.908
1169.091, 3717.813
1169.573, 3743.748
1170.056, 3777.228
1170.538, 3790.813
1171.020, 3790.072
1171.502, 3790.285
1171.984, 3791.411
1172.466, 3793.981
1172.948, 3797.804
1173.430, 3799.303
1173.912, 3797.530
1174.395, 3793.295
1174.877, 3786.848
1175.359, 3780.143
1175.841, 3777.333
1176.323, 3776.270
1176.805, 3767.251
1177.287, 3755.611
1177.769, 3762.947
1178.252, 3787.420
1178.734, 3801.976
1179.216, 3793.718
1179.698, 3781.528
1180.180, 3780.484
1180.662, 3787.403
1181.144, 3807.248
1181.626, 3827.043
1182.109, 3823.322
1182.591, 3804.261
1183.073, 3794.525
1183.555, 3800.514
1184.037, 3809.632
1184.519, 3819.980
1185.001, 3825.534
1185.483, 3821.924
1185.965, 3813.625
1186.448, 3791.726
1186.930, 3774.376
1187.412, 3800.073
1187.894, 3863.398
1188.376, 3889.680
1188.858, 3839.292
1189.340, 3799.010
1189.822, 3782.638
1190.304, 3775.177
1190.787, 3775.051
1191.269, 3777.752
1191.751, 3778.923
1192.233, 3780.074
1192.715, 3787.252
1193.197, 3786.380
1193.679, 3785.013
1194.161, 3791.624
1194.644, 3783.177
1195.126, 3791.521
1195.608, 3802.296
1196.090, 3809.124
1196.572, 3805.520
1197.054, 3775.025
1197.536, 3724.509
1198.018, 3711.013
1198.500, 3733.016
1198.983, 3756.104
1199.465, 3775.338
1199.947, 3782.826
1200.429, 3775.412
1200.911, 3762.197
1201.393, 3750.634
1201.875, 3742.226
1202.357, 3742.182
1202.839, 3746.360
1203.322, 3744.599
1203.804, 3738.979
1204.286, 3738.252
1204.768, 3743.250
1205.250, 3745.629
1205.732, 3739.575
1206.214, 3734.841
1206.696, 3739.936
1207.179, 3748.938
1207.661, 3759.324
1208.143, 3768.548
1208.625, 3777.618
1209.107, 3782.399
1209.589, 3767.725
1210.071, 3725.494
1210.553, 3702.668
1211.036, 3730.483
1211.518, 3754.451
1212.000, 3760.412
1212.482, 3754.904
1212.964, 3736.990
1213.446, 3713.249
1213.928, 3691.802
1214.410, 3672.818
1214.892, 3662.141
1215.375, 3664.030
1215.857, 3661.245
1216.339, 3646.922
1216.821, 3648.503
1217.303, 3682.319
1217.785, 3712.826
1218.267, 3705.818
1218.749, 3677.695
1219.231, 3671.937
1219.714, 3686.137
1220.196, 3682.000
1220.678, 3661.295
1221.160, 3648.375
1221.642, 3647.114
1222.124, 3642.529
1222.606, 3626.398
1223.088, 3616.899
1223.571, 3640.799
1224.053, 3677.835
1224.535, 3702.914
1225.017, 3714.073
1225.499, 3700.611
1225.981, 3671.908
1226.463, 3650.532
1226.945, 3641.950
1227.427, 3638.589
1227.910, 3639.021
1228.392, 3638.744
1228.874, 3638.801
1229.356, 3633.487
1229.838, 3607.183
1230.320, 3582.351
1230.802, 3593.474
1231.284, 3628.991
1231.766, 3641.003
1232.249, 3618.025
1232.731, 3595.433
1233.213, 3568.069
1233.695, 3552.648
1234.177, 3554.480
1234.659, 3565.209
1235.141, 3585.198
1235.623, 3603.015
1236.106, 3599.685
1236.588, 3608.761
1237.070, 3610.138
1237.552, 3600.884
1238.034, 3603.444
1238.516, 3585.374
1238.998, 3568.277
1239.480, 3558.913
1239.963, 3554.663
1240.445, 3554.060
1240.927, 3554.775
1241.409, 3553.262
1241.891, 3550.752
1242.373, 3548.069
1242.855, 3546.874
1243.337, 3553.867
1243.819, 3565.392
1244.302, 3567.058
1244.784, 3554.058
1245.266, 3540.780
1245.748, 3534.486
1246.230, 3531.494
1246.712, 3531.296
1247.194, 3532.189
1247.676, 3538.217
1248.158, 3541.223
1248.641, 3523.021
1249.123, 3487.970
1249.605, 3476.966
1250.087, 3503.940
1250.569, 3525.875
1251.051, 3544.371
1251.533, 3553.688
1252.015, 3550.510
1252.498, 3542.030
1252.980, 3532.071
1253.462, 3521.708
1253.944, 3512.853
1254.426, 3505.151
1254.908, 3493.101
1255.390, 3478.590
1255.872, 3485.620
1256.354, 3511.930
1256.837, 3520.350
1257.319, 3499.895
1257.801, 3472.919
1258.283, 3453.517
1258.765, 3444.222
1259.247, 3455.523
1259.729, 3471.631
1260.211, 3467.487
1260.693, 3458.746
1261.176, 3480.323
1261.658, 3519.278
1262.140, 3523.908
1262.622, 3477.999
1263.104, 3441.713
1263.586, 3441.537
1264.068, 3442.325
1264.550, 3429.169
1265.033, 3421.277
1265.515, 3437.943
1265.997, 3455.964
1266.479, 3443.493
1266.961, 3461.823
1267.443, 3470.363
1267.925, 3468.183
1268.407, 3488.826
1268.890, 3474.445
1269.372, 3467.698
1269.854, 3478.149
1270.336, 3488.740
1270.818, 3489.928
1271.300, 3485.688
1271.782, 3479.033
1272.264, 3472.558
1272.746, 3470.099
1273.229, 3472.363
1273.711, 3477.822
1274.193, 3490.065
1274.675, 3523.121
1275.157, 3574.279
1275.639, 3617.313
1276.121, 3645.333
1276.603, 3647.552
1277.085, 3604.608
1277.568, 3552.608
1278.050, 3494.019
1278.532, 3448.986
1279.014, 3441.487
1279.496, 3456.055
1279.978, 3462.469
1280.460, 3460.768
1280.942, 3455.437
1281.425, 3444.456
1281.907, 3436.651
1282.389, 3431.994
1282.871, 3434.289
1283.353, 3445.398
1283.835, 3459.035
1284.317, 3470.993
1284.799, 3478.954
1285.281, 3476.380
1285.764, 3468.268
1286.246, 3470.471
1286.728, 3476.295
1287.210, 3465.379
1287.692, 3443.290
1288.174, 3430.160
1288.656, 3431.915
##END=



