##NAMES=Andradite
##RRUFFID=R060326
##IDEAL CHEMISTRY=Ca_3_Fe^3+^_2_(SiO_4_)_3_
##LOCALITY=Ultevis, Sweden
##OWNER=RRUFF
##SOURCE=Marcus Origlieri
##DESCRIPTION=Reddish-brown colored druse of crystals associated with white svabite R050180
##STATUS=The identification of this mineral has been confirmed by X-ray diffraction and chemical analysis
##URL=rruff.info/R060326
##MEASURED CHEMISTRY=(Ca_2.98_Mn_0.02_)_Σ=3_(Fe^3+^_1.75_Al_0.21_Ti_0.04_)_Σ=2_(Si_1.00_O_4_)_3_
92.10938, 3.853196
92.59149, 3.762275
93.07361, 3.793828
93.55573, 3.938611
94.03784, 4.081999
94.51996, 4.108838
95.00208, 4.048957
95.48419, 4.012751
95.96631, 4.079334
96.44843, 4.185439
96.93054, 4.101441
97.41266, 3.794688
97.89478, 3.477033
98.37689, 3.451937
98.85901, 3.723819
99.34113, 3.960791
99.82324, 4.000619
100.3054, 3.843098
100.7875, 3.773160
101.2696, 3.806124
101.7517, 3.907165
102.2338, 4.033596
102.7159, 4.211841
103.1981, 4.336873
103.6802, 4.327610
104.1623, 4.102104
104.6444, 4.011370
105.1265, 4.095888
105.6086, 4.320300
106.0908, 4.560796
106.5729, 4.831629
107.0550, 5.099554
107.5371, 5.332827
108.0192, 5.398074
108.5013, 5.633631
108.9835, 6.144850
109.4656, 6.919279
109.9477, 7.589394
110.4298, 8.045756
110.9119, 8.459168
111.3940, 8.958203
111.8762, 9.500408
112.3583, 10.16768
112.8404, 10.95812
113.3225, 11.86230
113.8046, 12.96656
114.2867, 14.39824
114.7689, 16.01335
115.2510, 17.64048
115.7331, 19.31853
116.2152, 20.95416
116.6973, 22.49462
117.1794, 23.92507
117.6616, 25.30657
118.1437, 26.67422
118.6258, 28.01734
119.1079, 29.27157
119.5900, 30.32544
120.0721, 31.35092
120.5543, 32.50331
121.0364, 33.90585
121.5185, 35.18502
122.0006, 35.88888
122.4827, 36.24150
122.9648, 36.89511
123.4470, 38.40776
123.9291, 40.34786
124.4112, 42.22049
124.8933, 43.85969
125.3754, 45.48021
125.8575, 47.33850
126.3397, 49.39997
126.8218, 51.46059
127.3039, 53.18443
127.7860, 54.78998
128.2681, 56.75867
128.7502, 59.54993
129.2324, 62.54966
129.7145, 64.54350
130.1966, 65.54018
130.6787, 66.32611
131.1608, 67.72880
131.6429, 69.60009
132.1251, 71.27537
132.6072, 72.50729
133.0893, 73.36868
133.5714, 74.07738
134.0535, 74.59444
134.5356, 75.13795
135.0178, 76.05079
135.4999, 77.33871
135.9820, 78.56467
136.4641, 79.52218
136.9462, 80.22533
137.4283, 81.04550
137.9105, 82.00020
138.3926, 83.05400
138.8747, 84.15501
139.3568, 85.33182
139.8389, 86.48158
140.3210, 87.50536
140.8032, 88.34014
141.2853, 89.43328
141.7674, 90.85461
142.2495, 92.48997
142.7316, 93.96802
143.2137, 94.94044
143.6959, 95.33982
144.1780, 95.66809
144.6601, 95.82607
145.1422, 96.19195
145.6243, 96.86835
146.1064, 97.75703
146.5886, 98.50255
147.0707, 98.98257
147.5528, 99.46088
148.0349, 100.0766
148.5170, 100.9898
148.9991, 101.7908
149.4813, 102.4045
149.9634, 102.8589
150.4455, 103.3613
150.9276, 104.0300
151.4097, 104.6659
151.8918, 105.1317
152.3740, 104.9658
152.8561, 105.1539
153.3382, 105.8973
153.8203, 107.1754
154.3024, 108.4205
154.7845, 109.5749
155.2667, 110.6786
155.7488, 111.7798
156.2309, 113.0517
156.7130, 114.1319
157.1951, 114.8261
157.6772, 115.1061
158.1594, 115.5689
158.6415, 116.5527
159.1236, 117.6881
159.6057, 118.6183
160.0878, 118.9106
160.5699, 119.2782
161.0521, 120.0505
161.5342, 121.2981
162.0163, 122.4561
162.4984, 123.1325
162.9805, 123.6566
163.4626, 124.4450
163.9448, 126.0974
164.4269, 127.7079
164.9090, 128.6834
165.3911, 128.8322
165.8732, 129.1390
166.3553, 129.9891
166.8375, 131.3282
167.3196, 133.0685
167.8017, 135.2783
168.2838, 137.8017
168.7659, 140.5280
169.2480, 143.4142
169.7302, 146.6077
170.2123, 150.2532
170.6944, 154.2972
171.1765, 158.5503
171.6586, 163.6384
172.1407, 168.5766
172.6229, 172.5287
173.1050, 175.4203
173.5871, 177.1839
174.0692, 177.9326
174.5513, 177.5500
175.0334, 175.6389
175.5156, 171.5602
175.9977, 165.8902
176.4798, 159.3980
176.9619, 151.8282
177.4440, 144.1165
177.9261, 137.1153
178.4083, 130.8247
178.8904, 125.3924
179.3725, 121.2850
179.8546, 118.0815
180.3367, 115.0582
180.8188, 112.0304
181.3010, 109.2285
181.7831, 107.0159
182.2652, 105.3769
182.7473, 104.0374
183.2294, 102.9118
183.7115, 101.9486
184.1937, 101.0293
184.6758, 100.0789
185.1579, 99.20865
185.6400, 98.66379
186.1221, 98.43458
186.6042, 98.17053
187.0864, 97.50826
187.5685, 96.54459
188.0506, 95.73833
188.5327, 95.19688
189.0148, 94.85242
189.4969, 94.55528
189.9791, 94.30913
190.4612, 94.07701
190.9433, 93.88627
191.4254, 93.71757
191.9075, 93.34286
192.3896, 92.57574
192.8718, 91.64494
193.3539, 91.26659
193.8360, 91.48964
194.3181, 91.84760
194.8002, 91.87730
195.2823, 91.58870
195.7645, 91.44531
196.2466, 91.63038
196.7287, 92.02320
197.2108, 92.11731
197.6929, 91.87487
198.1750, 91.49941
198.6572, 91.08202
199.1393, 90.60612
199.6214, 90.43616
200.1035, 90.78995
200.5856, 91.53667
201.0677, 91.84370
201.5499, 91.61789
202.0320, 91.26619
202.5141, 91.19081
202.9962, 91.42136
203.4783, 91.71050
203.9604, 92.05954
204.4426, 92.44016
204.9247, 92.56953
205.4068, 92.39300
205.8889, 92.10751
206.3710, 91.88379
206.8531, 91.71753
207.3353, 91.64190
207.8174, 91.67071
208.2995, 91.80104
208.7816, 91.98511
209.2637, 92.20625
209.7458, 92.50784
210.2280, 92.98776
210.7101, 93.73609
211.1922, 94.31174
211.6743, 94.51535
212.1564, 94.36766
212.6385, 94.61266
213.1207, 95.35411
213.6028, 96.31212
214.0849, 97.21972
214.5670, 98.06653
215.0491, 98.86357
215.5313, 99.59361
216.0134, 100.2606
216.4955, 100.9389
216.9776, 101.5289
217.4597, 102.2733
217.9418, 103.5130
218.4239, 105.4813
218.9061, 107.2979
219.3882, 108.7250
219.8703, 109.7469
220.3524, 110.9682
220.8345, 112.5853
221.3166, 114.1413
221.7988, 115.0923
222.2809, 115.0183
222.7630, 115.2988
223.2451, 116.2366
223.7272, 117.8470
224.2093, 119.6658
224.6915, 121.8560
225.1736, 124.1042
225.6557, 125.9947
226.1378, 127.2812
226.6199, 128.8104
227.1020, 130.7781
227.5842, 133.2038
228.0663, 135.6439
228.5484, 138.1558
229.0305, 140.6525
229.5126, 143.0227
229.9947, 145.0764
230.4769, 147.3677
230.9590, 149.9603
231.4411, 152.8441
231.9232, 156.2336
232.4053, 160.2764
232.8874, 164.7125
233.3696, 169.3331
233.8517, 174.1171
234.3338, 179.1882
234.8159, 184.9916
235.2980, 191.5270
235.7801, 196.2504
236.2623, 199.1838
236.7444, 200.2936
237.2265, 199.6461
237.7086, 197.7107
238.1907, 193.0011
238.6728, 184.4014
239.1550, 172.1963
239.6371, 161.2810
240.1192, 151.9099
240.6013, 143.5359
241.0834, 135.7553
241.5655, 128.2986
242.0477, 122.1434
242.5298, 117.6315
243.0119, 114.6464
243.4940, 112.0112
243.9761, 109.6950
244.4582, 107.7631
244.9404, 106.3154
245.4225, 105.6303
245.9046, 104.8537
246.3867, 103.8096
246.8688, 102.5669
247.3509, 101.6183
247.8331, 101.1017
248.3152, 100.7029
248.7973, 100.1623
249.2794, 99.14668
249.7615, 98.73941
250.2436, 99.30840
250.7258, 100.5823
251.2079, 101.2282
251.6900, 100.9010
252.1721, 100.4386
252.6542, 100.3296
253.1363, 100.7168
253.6185, 101.1266
254.1006, 101.5361
254.5827, 101.9470
255.0648, 102.3718
255.5469, 102.8494
256.0291, 103.2726
256.5112, 103.5564
256.9933, 103.5847
257.4754, 103.7624
257.9575, 104.0608
258.4396, 104.5319
258.9218, 105.3491
259.4039, 106.6795
259.8860, 108.0642
260.3681, 109.3018
260.8502, 110.3516
261.3323, 111.3501
261.8145, 112.1528
262.2966, 112.9858
262.7787, 114.4580
263.2608, 116.9304
263.7429, 119.2788
264.2250, 121.0641
264.7072, 122.1911
265.1893, 123.0978
265.6714, 123.9119
266.1535, 124.3775
266.6356, 123.9339
267.1177, 122.2835
267.5999, 120.4945
268.0820, 118.9980
268.5641, 117.8542
269.0462, 116.4045
269.5283, 114.4457
270.0104, 112.4162
270.4926, 110.9280
270.9747, 110.0451
271.4568, 109.4460
271.9389, 109.0585
272.4210, 108.8841
272.9031, 108.8671
273.3853, 109.0817
273.8674, 109.3248
274.3495, 109.3328
274.8316, 109.0783
275.3137, 108.7251
275.7958, 108.2505
276.2780, 107.6786
276.7601, 107.3579
277.2422, 107.3502
277.7243, 107.4290
278.2064, 107.3140
278.6885, 106.9651
279.1707, 106.7703
279.6528, 106.8486
280.1349, 107.1539
280.6170, 107.4576
281.0991, 107.7620
281.5812, 108.0629
282.0634, 108.3482
282.5455, 108.6222
283.0276, 108.8972
283.5097, 109.1463
283.9918, 109.4175
284.4739, 109.9264
284.9561, 110.7120
285.4382, 111.4504
285.9203, 111.7879
286.4024, 111.7572
286.8845, 111.9681
287.3666, 112.5005
287.8488, 113.3185
288.3309, 114.4889
288.8130, 116.0224
289.2951, 117.4139
289.7772, 118.1576
290.2593, 118.3912
290.7415, 118.9882
291.2236, 120.0649
291.7057, 121.4345
292.1878, 122.8447
292.6699, 124.2946
293.1520, 125.7706
293.6342, 127.1944
294.1163, 128.6310
294.5984, 130.3099
295.0805, 132.3151
295.5626, 134.3171
296.0447, 135.9419
296.5269, 137.2268
297.0090, 138.3549
297.4911, 139.2719
297.9732, 140.1080
298.4553, 141.2724
298.9374, 142.8120
299.4196, 144.1327
299.9017, 144.3443
300.3838, 143.8015
300.8659, 143.4634
301.3480, 143.6203
301.8301, 144.2430
302.3123, 145.4624
302.7944, 147.2674
303.2765, 149.0777
303.7586, 150.1341
304.2407, 150.9096
304.7228, 152.3012
305.2050, 154.7208
305.6871, 157.7395
306.1692, 160.9268
306.6513, 164.3074
307.1334, 167.7612
307.6155, 171.2106
308.0977, 174.7284
308.5798, 178.4428
309.0619, 182.5443
309.5440, 186.6409
310.0261, 190.4527
310.5082, 194.0143
310.9904, 197.4166
311.4725, 201.0930
311.9546, 204.4621
312.4367, 207.1592
312.9188, 209.3000
313.4009, 210.1959
313.8831, 209.2854
314.3652, 206.8231
314.8473, 203.2949
315.3294, 198.0062
315.8115, 192.3304
316.2936, 187.0029
316.7758, 182.0836
317.2579, 177.6299
317.7400, 173.4788
318.2221, 169.8392
318.7042, 166.8833
319.1863, 164.6128
319.6685, 163.0894
320.1506, 162.5254
320.6327, 162.9337
321.1148, 163.4992
321.5969, 163.8904
322.0790, 164.3773
322.5612, 165.1955
323.0433, 166.6884
323.5254, 168.2025
324.0075, 169.5188
324.4896, 170.6875
324.9717, 172.0552
325.4539, 174.0670
325.9360, 176.0451
326.4181, 177.5977
326.9002, 178.8766
327.3823, 179.5162
327.8644, 179.0977
328.3466, 177.9676
328.8287, 177.1844
329.3108, 176.5556
329.7929, 176.4718
330.2750, 177.1150
330.7571, 178.7797
331.2393, 180.4859
331.7214, 181.8119
332.2035, 183.3447
332.6856, 186.0300
333.1677, 190.4053
333.6498, 195.1775
334.1320, 200.0946
334.6141, 205.0745
335.0962, 210.0916
335.5783, 214.9316
336.0604, 220.0317
336.5425, 226.0161
337.0247, 233.3103
337.5068, 240.4411
337.9889, 247.0774
338.4710, 253.3012
338.9531, 260.0477
339.4352, 267.4454
339.9173, 275.1973
340.3994, 282.8958
340.8816, 290.5040
341.3637, 298.7425
341.8458, 307.8809
342.3279, 317.6163
342.8100, 327.4116
343.2921, 337.0050
343.7743, 347.8602
344.2564, 360.9445
344.7385, 376.2794
345.2206, 391.9647
345.7027, 408.0160
346.1848, 424.5258
346.6670, 441.2710
347.1491, 458.3491
347.6312, 477.1970
348.1133, 499.3244
348.5954, 523.8578
349.0775, 548.2641
349.5597, 572.7640
350.0418, 597.1315
350.5239, 621.8506
351.0060, 646.4296
351.4881, 668.3302
351.9702, 687.2768
352.4524, 702.7390
352.9345, 713.4708
353.4166, 719.5645
353.8987, 721.8091
354.3808, 720.6533
354.8629, 716.0591
355.3451, 707.4467
355.8272, 693.4601
356.3093, 678.0765
356.7914, 663.9948
357.2735, 651.1862
357.7556, 639.9202
358.2378, 629.6871
358.7199, 621.5334
359.2020, 616.1396
359.6841, 613.4445
360.1662, 614.3170
360.6483, 619.3314
361.1305, 628.1893
361.6126, 640.4747
362.0947, 656.6036
362.5768, 675.6286
363.0589, 697.2712
363.5410, 721.5184
364.0232, 748.4584
364.5053, 779.0928
364.9874, 811.9151
365.4695, 845.7560
365.9516, 881.3105
366.4337, 916.8664
366.9159, 954.1768
367.3980, 991.9600
367.8801, 1025.250
368.3622, 1056.319
368.8443, 1080.076
369.3264, 1094.358
369.8086, 1098.963
370.2907, 1093.963
370.7728, 1079.123
371.2549, 1054.842
371.7370, 1021.450
372.2191, 975.1349
372.7013, 924.6397
373.1834, 871.8163
373.6655, 816.0711
374.1476, 760.9013
374.6297, 706.4064
375.1118, 653.9481
375.5940, 604.9503
376.0761, 559.8048
376.5582, 518.3439
377.0403, 480.4095
377.5224, 446.3245
378.0045, 415.9601
378.4867, 390.0443
378.9688, 367.1925
379.4509, 346.9331
379.9330, 329.4497
380.4151, 313.4072
380.8972, 298.8386
381.3794, 285.6991
381.8615, 274.4705
382.3436, 264.9919
382.8257, 256.4420
383.3078, 248.3708
383.7899, 240.8324
384.2721, 233.7706
384.7542, 227.2306
385.2363, 221.0678
385.7184, 215.2514
386.2005, 209.7210
386.6826, 203.9447
387.1648, 197.6549
387.6469, 191.2649
388.1290, 185.1754
388.6111, 179.3955
389.0932, 173.8376
389.5753, 168.2298
390.0575, 162.8606
390.5396, 157.9957
391.0217, 153.6787
391.5038, 149.7326
391.9859, 146.0493
392.4680, 142.6494
392.9502, 139.5170
393.4323, 136.6518
393.9144, 134.0733
394.3965, 131.8977
394.8786, 130.1314
395.3607, 128.4170
395.8429, 126.5518
396.3250, 124.6982
396.8071, 122.9940
397.2892, 121.4734
397.7713, 120.0951
398.2534, 118.9000
398.7356, 117.8609
399.2177, 116.8728
399.6998, 115.9487
400.1819, 115.0569
400.6640, 114.1909
401.1461, 113.3978
401.6283, 112.5173
402.1104, 111.2753
402.5925, 110.0739
403.0746, 109.6103
403.5567, 110.5534
404.0388, 111.0028
404.5210, 110.2824
405.0031, 108.3895
405.4852, 107.0623
405.9673, 106.4288
406.4494, 106.1167
406.9315, 105.8684
407.4137, 105.7047
407.8958, 105.4159
408.3779, 104.9170
408.8600, 104.3319
409.3421, 103.9865
409.8242, 103.8948
410.3064, 103.8623
410.7885, 103.9061
411.2706, 103.9498
411.7527, 103.4834
412.2348, 102.3909
412.7169, 101.3415
413.1991, 101.2444
413.6812, 101.8711
414.1633, 102.4862
414.6454, 102.9442
415.1275, 103.1536
415.6096, 102.7982
416.0918, 101.9645
416.5739, 101.2640
417.0560, 101.1676
417.5381, 101.4163
418.0202, 101.7637
418.5023, 102.2717
418.9845, 102.5797
419.4666, 102.2386
419.9487, 101.5499
420.4308, 101.0880
420.9129, 101.2567
421.3951, 101.5535
421.8772, 101.7380
422.3593, 101.7820
422.8414, 101.8382
423.3235, 102.0516
423.8056, 102.2377
424.2878, 102.2460
424.7699, 101.6491
425.2520, 101.3450
425.7341, 101.8059
426.2162, 102.7118
426.6983, 102.8773
427.1805, 101.5582
427.6626, 100.3535
428.1447, 99.91976
428.6268, 100.5247
429.1089, 100.9205
429.5910, 100.9994
430.0732, 100.9859
430.5553, 101.1522
431.0374, 101.5113
431.5195, 102.0283
432.0016, 102.8460
432.4837, 103.7998
432.9659, 103.9929
433.4480, 103.3078
433.9301, 102.5967
434.4122, 102.5298
434.8943, 103.0182
435.3764, 103.4436
435.8586, 103.7562
436.3407, 103.9584
436.8228, 103.9198
437.3049, 103.7286
437.7870, 103.7583
438.2691, 104.3153
438.7513, 105.1295
439.2334, 105.9195
439.7155, 106.6732
440.1976, 107.1949
440.6797, 107.1984
441.1618, 106.9446
441.6440, 106.7449
442.1261, 106.6977
442.6082, 106.6828
443.0903, 106.4840
443.5724, 106.2667
444.0545, 106.3881
444.5367, 107.2787
445.0188, 108.2873
445.5009, 109.1333
445.9830, 109.7732
446.4651, 110.3386
446.9472, 110.7366
447.4294, 111.1302
447.9115, 111.6513
448.3936, 112.4158
448.8757, 113.1787
449.3578, 113.9403
449.8399, 114.6837
450.3221, 115.3951
450.8042, 116.0516
451.2863, 116.7202
451.7684, 117.4769
452.2505, 118.3769
452.7326, 119.0454
453.2148, 119.5013
453.6969, 119.6865
454.1790, 119.4479
454.6611, 118.7624
455.1432, 118.1066
455.6253, 117.7110
456.1075, 117.3245
456.5896, 116.2037
457.0717, 114.3522
457.5538, 112.3637
458.0359, 110.5063
458.5180, 108.8172
459.0002, 107.3456
459.4823, 106.1048
459.9644, 105.1082
460.4465, 104.5247
460.9286, 104.1926
461.4107, 103.8153
461.8929, 103.1404
462.3750, 102.4971
462.8571, 102.1577
463.3392, 102.0752
463.8213, 102.0454
464.3034, 101.9408
464.7856, 101.8766
465.2677, 101.9331
465.7498, 102.1409
466.2319, 102.4191
466.7140, 102.6854
467.1961, 103.0293
467.6783, 103.5708
468.1604, 104.6232
468.6425, 105.5360
469.1246, 106.1090
469.6067, 106.3833
470.0888, 106.8671
470.5710, 107.6413
471.0531, 108.5124
471.5352, 109.3705
472.0173, 110.1989
472.4994, 111.0864
472.9815, 111.9955
473.4637, 113.0252
473.9458, 114.3705
474.4279, 116.0584
474.9100, 117.7333
475.3921, 119.3049
475.8742, 120.7751
476.3564, 122.0746
476.8385, 123.2068
477.3206, 124.4335
477.8027, 125.9782
478.2848, 127.7464
478.7669, 129.5293
479.2491, 131.2924
479.7312, 133.0929
480.2133, 135.0129
480.6954, 137.0049
481.1775, 138.9902
481.6596, 140.8130
482.1418, 142.6914
482.6239, 144.8446
483.1060, 147.2283
483.5881, 149.4584
484.0702, 151.3012
484.5523, 153.0237
485.0345, 154.7440
485.5166, 156.2768
485.9987, 158.2315
486.4808, 160.8840
486.9629, 163.9303
487.4450, 166.9320
487.9272, 169.6732
488.4093, 172.7035
488.8914, 176.3515
489.3735, 180.5168
489.8556, 183.9577
490.3377, 186.5658
490.8199, 188.8201
491.3020, 191.0068
491.7841, 193.1648
492.2662, 194.8963
492.7483, 196.1338
493.2304, 197.0578
493.7126, 198.0291
494.1947, 198.9758
494.6768, 199.2358
495.1589, 198.4938
495.6410, 197.0273
496.1231, 195.1639
496.6053, 192.9289
497.0874, 190.6924
497.5695, 188.7874
498.0516, 186.9186
498.5337, 184.5350
499.0158, 181.4496
499.4980, 178.7633
499.9801, 176.9698
500.4622, 175.9988
500.9443, 175.7373
501.4264, 176.2981
501.9085, 177.4247
502.3907, 179.2237
502.8728, 181.5816
503.3549, 184.0404
503.8370, 186.0733
504.3191, 188.6727
504.8012, 192.2449
505.2834, 196.9624
505.7655, 201.8983
506.2476, 207.0207
506.7297, 212.3761
507.2118, 218.0466
507.6939, 223.9678
508.1761, 230.3014
508.6582, 236.9256
509.1403, 244.1133
509.6224, 252.5264
510.1045, 262.1695
510.5866, 272.7673
511.0688, 284.1099
511.5509, 296.2992
512.0330, 309.8806
512.5151, 324.9348
512.9973, 340.3818
513.4794, 355.4654
513.9615, 370.4615
514.4436, 385.8924
514.9257, 402.0579
515.4078, 418.1743
515.8900, 434.7091
516.3721, 450.5499
516.8542, 463.6600
517.3363, 473.9538
517.8184, 480.9028
518.3005, 484.8268
518.7827, 485.6628
519.2648, 481.3036
519.7469, 469.8733
520.2290, 454.2201
520.7111, 435.7125
521.1932, 413.4266
521.6754, 390.4302
522.1575, 365.8936
522.6396, 341.1413
523.1217, 317.8781
523.6038, 295.9776
524.0859, 275.9603
524.5681, 258.1164
525.0502, 242.3876
525.5323, 228.3608
526.0144, 215.9996
526.4965, 205.1926
526.9786, 195.9395
527.4608, 188.0513
527.9429, 181.2936
528.4250, 175.6398
528.9071, 170.5358
529.3892, 165.3801
529.8713, 160.4029
530.3535, 156.1043
530.8356, 152.7536
531.3177, 149.8586
531.7998, 147.2097
532.2819, 144.7725
532.7640, 142.5838
533.2462, 140.6981
533.7283, 138.9686
534.2104, 137.2723
534.6925, 135.5971
535.1746, 134.2086
535.6567, 133.2736
536.1389, 132.5219
536.6210, 131.8109
537.1031, 131.0694
537.5852, 130.5294
538.0673, 130.2986
538.5494, 130.1650
539.0316, 129.6753
539.5137, 128.7234
539.9958, 128.1635
540.4779, 128.4677
540.9600, 129.2234
541.4421, 128.9855
541.9243, 127.8038
542.4064, 126.7814
542.8885, 126.8114
543.3706, 127.4814
543.8527, 128.0921
544.3348, 128.5894
544.8170, 128.9682
545.2991, 129.1051
545.7812, 129.1622
546.2633, 129.3567
546.7454, 129.9507
547.2275, 130.4233
547.7097, 130.4315
548.1918, 130.1605
548.6739, 130.0426
549.1560, 130.2144
549.6381, 130.5022
550.1202, 130.8263
550.6024, 131.1783
551.0845, 131.8282
551.5666, 133.2288
552.0487, 134.3218
552.5308, 134.2999
553.0129, 132.9277
553.4951, 131.7232
553.9772, 130.7483
554.4593, 129.9455
554.9414, 129.4008
555.4235, 129.0636
555.9056, 128.2929
556.3878, 126.7376
556.8699, 124.8478
557.3520, 123.3551
557.8341, 122.2037
558.3162, 121.1851
558.7983, 120.3428
559.2805, 119.4729
559.7626, 118.2268
560.2447, 116.5788
560.7268, 115.2822
561.2089, 115.0853
561.6910, 115.1460
562.1732, 114.7643
562.6553, 113.2993
563.1374, 112.2039
563.6195, 111.7921
564.1016, 111.8125
564.5837, 111.9119
565.0659, 112.1372
565.5480, 112.3537
566.0301, 112.5116
566.5122, 112.6375
566.9943, 112.8865
567.4764, 113.2864
567.9586, 113.6665
568.4407, 113.7648
568.9228, 113.7006
569.4049, 114.2953
569.8870, 115.6101
570.3691, 116.9965
570.8513, 117.7234
571.3334, 118.0785
571.8155, 118.6007
572.2976, 119.4654
572.7797, 120.4166
573.2618, 121.2558
573.7440, 122.0512
574.2261, 122.9455
574.7082, 124.1159
575.1903, 125.2671
575.6724, 126.3107
576.1545, 127.2372
576.6367, 127.9882
577.1188, 128.7423
577.6009, 129.1288
578.0830, 128.9691
578.5651, 128.1899
579.0472, 127.2364
579.5294, 126.0547
580.0115, 124.7750
580.4936, 123.4643
580.9757, 122.1087
581.4578, 120.8867
581.9399, 119.8273
582.4221, 118.9035
582.9042, 118.0960
583.3863, 117.3926
583.8684, 116.6979
584.3505, 115.8719
584.8326, 115.1110
585.3148, 114.7038
585.7969, 114.5754
586.2789, 114.4017
586.7610, 113.9595
587.2432, 113.4512
587.7253, 112.9686
588.2074, 112.4922
588.6895, 112.2114
589.1716, 112.3189
589.6537, 112.5363
590.1359, 112.6570
590.6180, 112.6704
591.1001, 112.6145
591.5822, 112.5328
592.0643, 112.3462
592.5464, 111.8234
593.0286, 110.8876
593.5107, 110.2172
593.9928, 110.0605
594.4749, 110.2524
594.9570, 110.3581
595.4391, 110.3974
595.9213, 110.5624
596.4034, 111.2728
596.8855, 112.0376
597.3676, 112.0456
597.8497, 111.2754
598.3318, 110.5715
598.8140, 110.6240
599.2961, 110.8949
599.7782, 110.8979
600.2603, 110.3711
600.7424, 109.9532
601.2245, 109.8868
601.7067, 109.9601
602.1888, 109.8978
602.6709, 109.6425
603.1530, 109.3197
603.6351, 108.8701
604.1172, 108.3896
604.5994, 108.2554
605.0815, 108.5634
605.5636, 108.6851
606.0457, 108.2553
606.5278, 107.4367
607.0099, 106.8616
607.4921, 106.5360
607.9742, 106.2364
608.4563, 105.7313
608.9384, 105.1770
609.4205, 104.7806
609.9026, 104.5548
610.3848, 104.5697
610.8669, 105.4523
611.3490, 106.3306
611.8311, 106.2627
612.3132, 103.7106
612.7953, 101.9355
613.2775, 102.2251
613.7596, 103.5703
614.2417, 104.0589
614.7238, 103.1833
615.2059, 102.3114
615.6880, 101.7724
616.1702, 101.4569
616.6523, 100.7386
617.1344, 99.52288
617.6165, 98.44941
618.0986, 97.93172
618.5807, 97.85339
619.0629, 97.78914
619.5450, 97.73658
620.0271, 97.71279
620.5092, 97.82256
620.9913, 97.93513
621.4734, 97.83930
621.9556, 97.44093
622.4377, 97.05131
622.9198, 96.70897
623.4019, 96.51470
623.8840, 96.58476
624.3661, 97.44350
624.8483, 97.96140
625.3304, 97.67372
625.8125, 96.99213
626.2946, 96.88602
626.7767, 97.69846
627.2589, 98.27592
627.7410, 98.13857
628.2231, 97.50658
628.7052, 97.71920
629.1873, 98.85236
629.6694, 99.70800
630.1516, 99.12840
630.6337, 97.77405
631.1158, 97.28680
631.5979, 97.73373
632.0800, 98.31046
632.5621, 98.40701
633.0443, 98.30836
633.5264, 98.33750
634.0085, 98.62619
634.4906, 98.85748
634.9727, 98.90550
635.4548, 98.83678
635.9370, 98.72617
636.4191, 98.53335
636.9012, 98.36279
637.3833, 98.23328
637.8654, 98.12646
638.3475, 97.94827
638.8297, 97.62663
639.3118, 97.60317
639.7939, 98.22565
640.2760, 99.16689
640.7581, 99.16013
641.2402, 98.26817
641.7224, 97.51310
642.2045, 97.82058
642.6866, 98.50320
643.1687, 98.56412
643.6508, 97.96298
644.1329, 97.31438
644.6151, 96.89559
645.0972, 96.62084
645.5793, 96.42186
646.0614, 96.26546
646.5435, 96.24264
647.0256, 96.49946
647.5078, 96.81969
647.9899, 97.01389
648.4720, 97.07793
648.9541, 97.00573
649.4362, 96.71590
649.9183, 96.38417
650.4005, 96.37659
650.8826, 96.68676
651.3647, 96.96532
651.8468, 97.13822
652.3289, 97.16730
652.8110, 96.82183
653.2932, 96.21993
653.7753, 95.87270
654.2574, 96.30688
654.7395, 96.90445
655.2216, 97.28682
655.7037, 97.42777
656.1859, 97.28520
656.6680, 96.29173
657.1501, 95.46078
657.6322, 95.51057
658.1143, 96.79732
658.5964, 97.30659
659.0786, 96.64834
659.5607, 95.79601
660.0428, 95.50392
660.5249, 95.77700
661.0070, 96.78063
661.4891, 98.79005
661.9713, 100.5884
662.4534, 100.2435
662.9355, 98.39117
663.4176, 96.79348
663.8997, 95.96280
664.3818, 95.56595
664.8640, 95.43496
665.3461, 95.52183
665.8282, 95.72910
666.3103, 96.34987
666.7924, 96.74315
667.2745, 96.53895
667.7567, 95.85825
668.2388, 95.44987
668.7209, 95.46233
669.2030, 95.51236
669.6851, 95.46867
670.1672, 95.33878
670.6494, 95.20069
671.1315, 95.03696
671.6136, 94.99023
672.0957, 95.36613
672.5778, 95.92578
673.0599, 95.82536
673.5421, 94.99421
674.0242, 94.33790
674.5063, 94.96645
674.9884, 95.96239
675.4705, 96.23622
675.9526, 95.26503
676.4348, 94.44881
676.9169, 94.45341
677.3990, 94.76155
677.8811, 94.78078
678.3632, 94.09890
678.8453, 93.87444
679.3275, 94.42574
679.8096, 95.27048
680.2917, 95.39333
680.7738, 94.72853
681.2559, 94.39648
681.7380, 94.89164
682.2202, 95.68131
682.7023, 95.66428
683.1844, 95.01414
683.6665, 94.42336
684.1486, 94.18941
684.6307, 94.20483
685.1129, 94.57351
685.5950, 95.18648
686.0771, 95.46902
686.5592, 94.83804
687.0413, 94.16930
687.5234, 93.87938
688.0056, 93.99065
688.4877, 94.15390
688.9698, 94.41597
689.4519, 94.64417
689.9340, 94.75699
690.4161, 94.75294
690.8983, 94.62341
691.3804, 94.32883
691.8625, 94.17235
692.3446, 94.62978
692.8267, 95.40895
693.3088, 95.94759
693.7910, 96.13010
694.2731, 96.10892
694.7552, 95.81648
695.2373, 95.45187
695.7194, 95.24538
696.2015, 95.26781
696.6837, 95.43747
697.1658, 95.90212
697.6479, 96.44282
698.1300, 96.72088
698.6121, 96.64921
699.0942, 96.54881
699.5764, 96.44649
700.0585, 96.38692
700.5406, 96.55528
701.0227, 96.91908
701.5048, 97.12743
701.9869, 96.88463
702.4691, 96.51537
702.9512, 96.47175
703.4333, 96.68786
703.9154, 96.90833
704.3975, 96.91164
704.8796, 96.97422
705.3618, 97.35921
705.8439, 98.06752
706.3260, 98.42916
706.8081, 98.15279
707.2902, 97.81349
707.7723, 97.62351
708.2545, 97.57683
708.7366, 97.76840
709.2187, 98.23705
709.7008, 98.76482
710.1829, 99.22640
710.6650, 99.59868
711.1472, 99.72939
711.6293, 99.58360
712.1114, 99.51576
712.5935, 100.0191
713.0756, 100.6578
713.5577, 100.8843
714.0399, 100.3720
714.5220, 100.0430
715.0041, 100.2470
715.4862, 100.7332
715.9683, 101.2563
716.4504, 101.9489
716.9326, 102.3738
717.4147, 102.4671
717.8968, 102.3249
718.3789, 102.0382
718.8610, 101.6132
719.3431, 101.1843
719.8253, 100.6537
720.3074, 100.4003
720.7895, 101.2399
721.2716, 102.7441
721.7537, 103.9473
722.2358, 104.3086
722.7180, 104.3675
723.2001, 104.1132
723.6822, 103.7379
724.1643, 103.8290
724.6464, 105.0005
725.1285, 105.9802
725.6107, 106.4820
726.0928, 106.5629
726.5749, 106.3863
727.0570, 105.8808
727.5391, 105.6023
728.0212, 105.9149
728.5034, 106.6174
728.9855, 107.2793
729.4676, 107.8731
729.9497, 108.2076
730.4318, 107.7514
730.9139, 107.2624
731.3961, 107.5658
731.8782, 108.6963
732.3603, 109.4202
732.8424, 108.9396
733.3245, 108.3292
733.8066, 108.1228
734.2888, 108.3666
734.7709, 108.7830
735.2530, 109.4815
735.7351, 110.0773
736.2172, 110.1879
736.6993, 109.8951
737.1815, 109.7168
737.6636, 109.6882
738.1457, 109.7356
738.6278, 109.8292
739.1099, 109.9414
739.5920, 109.9756
740.0742, 109.8130
740.5563, 109.9624
741.0384, 111.0358
741.5205, 112.2922
742.0026, 112.9784
742.4847, 112.6537
742.9669, 112.5896
743.4490, 112.9579
743.9311, 113.3942
744.4132, 113.3694
744.8953, 112.8974
745.3774, 112.5166
745.8596, 112.3162
746.3417, 112.2637
746.8238, 112.4073
747.3059, 112.6528
747.7880, 112.7989
748.2701, 112.5790
748.7523, 112.5413
749.2344, 113.2028
749.7165, 114.1775
750.1986, 114.7378
750.6807, 114.5061
751.1628, 114.3257
751.6450, 114.3356
752.1271, 114.4458
752.6092, 114.3800
753.0913, 114.1127
753.5734, 114.1058
754.0555, 114.6667
754.5377, 115.3656
755.0198, 115.2368
755.5019, 114.5740
755.9840, 114.3042
756.4661, 115.2935
756.9482, 116.4089
757.4304, 117.1453
757.9125, 117.4766
758.3946, 117.4042
758.8767, 116.3587
759.3588, 115.6084
759.8409, 115.5843
760.3231, 116.1259
760.8052, 116.2815
761.2873, 115.9687
761.7694, 115.8977
762.2515, 116.6674
762.7336, 117.8038
763.2158, 118.1420
763.6979, 117.8050
764.1800, 117.4632
764.6621, 117.6368
765.1442, 117.8491
765.6263, 117.7169
766.1085, 117.2432
766.5906, 116.8777
767.0727, 116.7361
767.5548, 116.6709
768.0369, 116.6277
768.5190, 116.6705
769.0012, 116.6925
769.4833, 116.8994
769.9654, 117.1173
770.4475, 117.3468
770.9296, 117.5230
771.4117, 117.3239
771.8939, 116.7861
772.3760, 116.5404
772.8581, 117.4862
773.3402, 118.5502
773.8223, 118.7929
774.3044, 118.0109
774.7866, 117.5103
775.2687, 117.6465
775.7508, 117.9291
776.2329, 118.0856
776.7150, 118.0768
777.1971, 118.4043
777.6793, 119.1364
778.1614, 119.8344
778.6435, 119.9968
779.1256, 119.8688
779.6077, 120.1043
780.0898, 120.7655
780.5720, 121.2765
781.0541, 120.9568
781.5362, 120.5199
782.0183, 120.6109
782.5004, 121.4923
782.9825, 122.2127
783.4647, 122.5683
783.9468, 122.8838
784.4289, 123.4399
784.9110, 124.3072
785.3931, 124.6634
785.8752, 124.3473
786.3574, 124.3010
786.8395, 125.9326
787.3216, 128.3974
787.8037, 129.9085
788.2858, 130.1136
788.7679, 130.1278
789.2501, 130.3689
789.7322, 130.8777
790.2143, 131.7310
790.6964, 133.1404
791.1785, 134.3950
791.6606, 135.2949
792.1428, 136.2540
792.6249, 137.6512
793.1070, 139.5130
793.5891, 141.4204
794.0712, 143.3766
794.5533, 145.2977
795.0355, 146.9951
795.5176, 148.6570
795.9997, 150.6602
796.4818, 153.1349
796.9639, 155.6239
797.4460, 157.5615
797.9282, 159.6345
798.4103, 162.5748
798.8924, 167.2945
799.3745, 170.9532
799.8566, 173.1103
800.3387, 174.8613
800.8209, 177.2005
801.3030, 180.1021
801.7851, 183.1805
802.2672, 186.3985
802.7493, 189.9933
803.2314, 194.3703
803.7136, 199.1722
804.1957, 203.9767
804.6778, 208.8892
805.1599, 213.3099
805.6420, 216.6119
806.1241, 219.5946
806.6063, 222.9022
807.0884, 226.3767
807.5705, 230.7547
808.0526, 236.3307
808.5347, 242.1217
809.0168, 246.9499
809.4990, 251.0871
809.9811, 255.8835
810.4632, 261.6085
810.9453, 267.4515
811.4274, 272.9703
811.9095, 278.2161
812.3917, 283.1586
812.8738, 287.7550
813.3559, 292.2681
813.8380, 297.3146
814.3201, 301.8129
814.8022, 304.8629
815.2844, 306.2801
815.7665, 307.2658
816.2486, 307.9247
816.7307, 307.8747
817.2128, 306.6101
817.6949, 304.3698
818.1771, 301.6227
818.6592, 298.4395
819.1413, 294.8437
819.6234, 291.0071
820.1055, 286.6382
820.5876, 281.3774
821.0698, 274.7020
821.5519, 268.4131
822.0340, 262.4634
822.5161, 256.9564
822.9982, 251.8618
823.4803, 247.1594
823.9625, 242.8148
824.4446, 238.7970
824.9267, 235.1857
825.4088, 232.0573
825.8909, 229.3942
826.3730, 227.3117
826.8552, 225.8197
827.3373, 224.6190
827.8194, 223.2172
828.3015, 222.3915
828.7836, 222.7073
829.2657, 224.4132
829.7479, 225.8532
830.2300, 226.9107
830.7121, 228.0186
831.1942, 229.5232
831.6763, 231.3559
832.1584, 233.1815
832.6406, 234.9857
833.1227, 237.1199
833.6048, 240.0288
834.0869, 243.1947
834.5690, 246.2291
835.0511, 249.0250
835.5333, 252.1626
836.0154, 255.9180
836.4975, 259.7346
836.9796, 263.2701
837.4617, 266.5778
837.9438, 270.2516
838.4260, 274.3149
838.9081, 278.4146
839.3902, 282.6475
839.8723, 286.5854
840.3544, 289.4240
840.8365, 291.2180
841.3187, 292.8353
841.8008, 295.0362
842.2829, 296.7764
842.7650, 297.6644
843.2471, 297.7191
843.7292, 296.5606
844.2114, 293.9226
844.6935, 290.9562
845.1756, 288.1442
845.6577, 285.4501
846.1398, 282.7751
846.6219, 280.0796
847.1041, 277.1424
847.5862, 273.5501
848.0683, 269.9183
848.5504, 266.6164
849.0325, 263.6543
849.5146, 260.8279
849.9968, 257.4847
850.4789, 255.2888
850.9610, 254.9915
851.4431, 256.0211
851.9252, 256.3868
852.4073, 256.1135
852.8895, 256.0013
853.3716, 256.3438
853.8537, 257.0698
854.3358, 257.7619
854.8179, 258.7885
855.3000, 260.9933
855.7822, 265.7168
856.2643, 270.4873
856.7464, 274.2820
857.2285, 277.7516
857.7106, 282.1723
858.1927, 287.6653
858.6749, 293.5909
859.1570, 299.8118
859.6391, 306.5292
860.1212, 313.9417
860.6033, 322.0581
861.0854, 330.8711
861.5676, 340.4659
862.0497, 350.7541
862.5318, 361.7354
863.0139, 373.3246
863.4960, 385.1747
863.9781, 396.9394
864.4603, 409.9061
864.9424, 424.5946
865.4245, 440.0374
865.9066, 455.1786
866.3887, 470.0723
866.8708, 485.6931
867.3530, 502.1245
867.8351, 519.4448
868.3172, 538.7761
868.7993, 558.8701
869.2814, 578.2817
869.7635, 596.3622
870.2457, 615.5802
870.7278, 636.9504
871.2099, 658.5441
871.6920, 679.3684
872.1741, 699.2572
872.6563, 716.4236
873.1384, 730.8038
873.6205, 741.7756
874.1026, 748.9538
874.5847, 752.3756
875.0668, 752.3439
875.5490, 748.8460
876.0311, 740.2264
876.5132, 725.1232
876.9953, 705.2632
877.4774, 680.9523
877.9595, 652.3859
878.4417, 622.7200
878.9238, 591.8027
879.4059, 560.5445
879.8880, 529.2697
880.3701, 498.4033
880.8522, 468.6390
881.3344, 440.1615
881.8165, 413.7644
882.2986, 390.2187
882.7807, 368.3818
883.2628, 348.1399
883.7449, 329.3492
884.2271, 311.7217
884.7092, 295.0882
885.1913, 280.1641
885.6734, 267.3458
886.1555, 256.0654
886.6376, 245.1283
887.1198, 234.7812
887.6019, 225.1794
888.0840, 216.2865
888.5661, 208.3673
889.0482, 201.7642
889.5303, 196.1687
890.0125, 191.2397
890.4946, 187.3387
890.9767, 183.2097
891.4588, 178.6130
891.9409, 173.9745
892.4230, 169.7524
892.9052, 165.9056
893.3873, 162.2894
893.8694, 158.8307
894.3515, 155.6938
894.8336, 153.0580
895.3157, 150.7798
895.7979, 148.7585
896.2800, 147.0819
896.7621, 145.3682
897.2442, 143.5254
897.7263, 141.7421
898.2084, 140.1823
898.6906, 138.8444
899.1727, 137.4766
899.6548, 136.0899
900.1369, 134.7489
900.6190, 133.4952
901.1011, 132.3363
901.5833, 131.3147
902.0654, 130.4352
902.5475, 129.5884
903.0296, 128.7316
903.5117, 127.9421
903.9938, 127.2874
904.4760, 126.7234
904.9581, 126.0378
905.4402, 125.2284
905.9223, 124.3112
906.4044, 123.0881
906.8865, 121.9751
907.3687, 121.6463
907.8508, 121.8127
908.3329, 121.8408
908.8150, 121.4702
909.2971, 120.9795
909.7792, 120.3404
910.2614, 119.6758
910.7435, 119.1602
911.2256, 118.7973
911.7077, 118.5881
912.1898, 118.5694
912.6719, 118.5576
913.1541, 118.2859
913.6362, 117.8914
914.1183, 117.6130
914.6004, 117.5729
915.0825, 117.3816
915.5646, 116.5093
916.0468, 115.7833
916.5289, 115.8923
917.0110, 117.0359
917.4931, 117.3456
917.9752, 116.7301
918.4573, 116.0436
918.9395, 115.9857
919.4216, 116.2602
919.9037, 116.5012
920.3858, 116.6730
920.8679, 116.6516
921.3500, 116.2913
921.8322, 115.8156
922.3143, 115.1282
922.7964, 114.3884
923.2785, 114.5229
923.7606, 115.6954
924.2427, 116.4407
924.7249, 116.0225
925.2070, 115.1316
925.6891, 114.7953
926.1712, 114.8630
926.6533, 115.0055
927.1354, 115.0907
927.6176, 115.2364
928.0997, 115.4970
928.5818, 115.8272
929.0639, 116.1873
929.5460, 116.5913
930.0281, 116.9610
930.5103, 117.2974
930.9924, 117.5414
931.4745, 117.6325
931.9566, 117.5788
932.4387, 117.3490
932.9208, 116.9140
933.4030, 116.5337
933.8851, 116.4739
934.3672, 116.3525
934.8493, 115.9008
935.3314, 115.0988
935.8135, 114.5875
936.2957, 114.4000
936.7778, 114.2129
937.2599, 113.8159
937.7420, 113.3001
938.2241, 112.7292
938.7062, 112.1449
939.1884, 111.6959
939.6705, 111.3583
940.1526, 111.2875
940.6347, 111.8607
941.1168, 112.5927
941.5989, 112.1313
942.0811, 110.3226
942.5632, 109.3624
943.0453, 110.0347
943.5274, 111.0254
944.0095, 110.4734
944.4916, 109.1900
944.9738, 108.5076
945.4559, 109.0131
945.9380, 109.5080
946.4201, 109.6261
946.9022, 109.7001
947.3843, 110.0212
947.8665, 110.6334
948.3486, 110.8397
948.8307, 110.6036
949.3128, 110.4202
949.7949, 110.9312
950.2770, 111.5545
950.7592, 111.5070
951.2413, 110.8329
951.7234, 110.2340
952.2055, 109.6020
952.6876, 109.4965
953.1697, 110.3178
953.6519, 111.6922
954.1340, 112.2532
954.6161, 112.0397
955.0982, 111.9114
955.5803, 112.2265
956.0624, 112.6420
956.5446, 112.8634
957.0267, 112.9384
957.5088, 112.9371
957.9909, 112.7418
958.4730, 112.6695
958.9551, 112.7256
959.4373, 112.9072
959.9194, 113.3074
960.4015, 113.8739
960.8836, 114.1260
961.3657, 114.0234
961.8478, 113.8617
962.3300, 113.7129
962.8121, 113.7228
963.2942, 114.1711
963.7763, 115.0699
964.2584, 115.4374
964.7405, 114.9229
965.2227, 114.5443
965.7048, 114.7472
966.1869, 115.2920
966.6690, 115.5429
967.1511, 115.5487
967.6332, 115.4926
968.1154, 115.2402
968.5975, 115.2379
969.0796, 115.9901
969.5617, 117.0622
970.0438, 117.8042
970.5259, 118.1423
971.0081, 118.2350
971.4902, 118.0069
971.9723, 117.7780
972.4544, 117.9906
972.9365, 118.4508
973.4186, 118.6800
973.9008, 118.6291
974.3829, 118.5838
974.8650, 118.7812
975.3471, 118.9383
975.8292, 118.8684
976.3113, 118.5994
976.7935, 118.3642
977.2756, 118.1371
977.7577, 118.1795
978.2398, 118.7586
978.7219, 119.4879
979.2040, 119.6517
979.6862, 119.5114
980.1683, 119.6307
980.6504, 120.5801
981.1325, 121.3229
981.6146, 121.6724
982.0967, 121.7520
982.5789, 121.5709
983.0610, 121.1253
983.5431, 121.0816
984.0252, 121.5073
984.5073, 122.1968
984.9894, 123.1053
985.4716, 124.0958
985.9537, 125.0530
986.4358, 125.9653
986.9179, 126.8044
987.4000, 127.6441
987.8821, 128.2828
988.3643, 128.5434
988.8464, 128.6080
989.3285, 128.9474
989.8106, 129.5854
990.2927, 130.6687
990.7748, 132.6428
991.2570, 134.5195
991.7391, 135.6027
992.2212, 136.2131
992.7033, 136.8291
993.1854, 137.3244
993.6675, 138.3298
994.1497, 140.0484
994.6318, 141.7082
995.1139, 142.4836
995.5960, 142.6195
996.0781, 142.6648
996.5602, 142.6448
997.0424, 142.2008
997.5245, 141.0805
998.0066, 139.5637
998.4887, 137.7784
998.9708, 135.7347
999.4529, 133.2999
999.9351, 130.4665
1000.417, 127.5518
1000.899, 124.5615
1001.381, 121.6874
1001.864, 119.0608
1002.346, 116.6884
1002.828, 114.6111
1003.310, 112.9262
1003.792, 111.3924
1004.274, 109.9091
1004.756, 108.6504
1005.238, 107.8019
1005.720, 107.3237
1006.203, 106.9364
1006.685, 106.6226
1007.167, 106.1451
1007.649, 105.0059
1008.131, 103.9581
1008.613, 103.5983
1009.095, 103.8394
1009.577, 103.9839
1010.060, 103.9765
1010.542, 104.0304
1011.024, 104.2345
1011.506, 104.4346
1011.988, 104.3824
1012.470, 104.1382
1012.952, 103.7846
1013.434, 103.2482
1013.916, 102.9230
1014.399, 103.1583
1014.881, 103.5009
1015.363, 103.7299
1015.845, 103.8517
1016.327, 103.4065
1016.809, 102.3837
1017.291, 101.5674
1017.773, 101.8319
1018.255, 102.2411
1018.738, 101.6311
1019.220, 100.4029
1019.702, 99.77963
1020.184, 100.6896
1020.666, 100.9586
1021.148, 100.0974
1021.630, 98.87971
1022.112, 98.37944
1022.595, 98.48533
1023.077, 98.99177
1023.559, 99.92227
1024.041, 100.5644
1024.523, 100.2599
1025.005, 99.69925
1025.487, 99.26787
1025.969, 98.97991
1026.452, 99.15963
1026.934, 99.89176
1027.416, 100.3824
1027.898, 100.1984
1028.380, 99.69222
1028.862, 99.20688
1029.344, 98.80967
1029.826, 98.62287
1030.308, 98.79464
1030.791, 99.05258
1031.273, 99.48717
1031.755, 99.83518
1032.237, 99.83231
1032.719, 99.50105
1033.201, 98.89632
1033.683, 98.04368
1034.165, 97.45342
1034.647, 97.78769
1035.130, 98.21533
1035.612, 98.11076
1036.094, 98.23496
1036.576, 98.28542
1037.058, 97.90458
1037.540, 98.01457
1038.022, 97.50025
1038.504, 96.84019
1038.987, 96.62729
1039.469, 96.77293
1039.951, 97.22745
1040.433, 98.17770
1040.915, 98.65498
1041.397, 98.04194
1041.879, 97.39761
1042.361, 97.36632
1042.844, 97.83879
1043.326, 97.91116
1043.808, 97.63063
1044.290, 97.43215
1044.772, 97.69350
1045.254, 97.96753
1045.736, 97.94783
1046.218, 97.75094
1046.700, 97.61909
1047.182, 97.59025
1047.665, 97.51514
1048.147, 97.36494
1048.629, 97.23872
1049.111, 97.27152
1049.593, 97.38220
1050.075, 97.45112
1050.557, 97.46622
1051.039, 97.44469
1051.522, 97.44737
1052.004, 97.32105
1052.486, 96.91904
1052.968, 96.42066
1053.450, 96.44228
1053.932, 96.88463
1054.414, 97.14457
1054.896, 96.99886
1055.379, 96.75010
1055.861, 96.42033
1056.343, 96.21391
1056.825, 96.41380
1057.307, 97.14127
1057.789, 97.51331
1058.271, 97.50486
1058.753, 97.29152
1059.235, 96.77789
1059.718, 96.26539
1060.200, 96.23539
1060.682, 96.57848
1061.164, 96.98576
1061.646, 97.35677
1062.128, 97.80652
1062.610, 98.40266
1063.092, 98.99438
1063.574, 99.50567
1064.057, 99.86588
1064.539, 99.62658
1065.021, 98.74010
1065.503, 97.93764
1065.985, 97.61278
1066.467, 97.57056
1066.949, 97.81418
1067.431, 98.24738
1067.914, 98.50599
1068.396, 98.57469
1068.878, 98.64490
1069.360, 98.75347
1069.842, 98.93856
1070.324, 99.42574
1070.806, 99.93119
1071.288, 100.0334
1071.771, 99.44630
1072.253, 99.09191
1072.735, 98.97939
1073.217, 99.16128
1073.699, 99.89233
1074.181, 100.8548
1074.663, 101.0545
1075.145, 100.6616
1075.627, 100.2719
1076.109, 100.0703
1076.592, 100.0158
1077.074, 100.1668
1077.556, 100.4047
1078.038, 100.6146
1078.520, 100.7984
1079.002, 100.9001
1079.484, 100.9128
1079.966, 101.0298
1080.448, 101.6493
1080.931, 102.2209
1081.413, 102.2353
1081.895, 101.7599
1082.377, 101.4563
1082.859, 101.3557
1083.341, 101.3255
1083.823, 101.3487
1084.305, 101.3949
1084.788, 101.4359
1085.270, 101.4656
1085.752, 101.4109
1086.234, 101.1845
1086.716, 101.3539
1087.198, 102.3810
1087.680, 103.2057
1088.162, 103.2540
1088.645, 102.7820
1089.127, 102.6442
1089.609, 102.7539
1090.091, 102.7505
1090.573, 102.2561
1091.055, 101.9902
1091.537, 102.4212
1092.019, 103.1398
1092.501, 103.8395
1092.984, 104.5714
1093.466, 104.5703
1093.948, 103.8140
1094.430, 103.1400
1094.912, 103.3410
1095.394, 103.6854
1095.876, 103.4711
1096.358, 102.9006
1096.840, 102.6551
1097.323, 102.8805
1097.805, 103.0749
1098.287, 103.1693
1098.769, 103.2386
1099.251, 103.3570
1099.733, 103.5127
1100.215, 103.7083
1100.697, 103.9418
1101.180, 104.1126
1101.662, 104.1675
1102.144, 104.1945
1102.626, 104.2178
1103.108, 104.2243
1103.590, 104.1617
1104.072, 104.0560
1104.554, 103.9886
1105.036, 103.9769
1105.519, 104.0208
1106.001, 104.2486
1106.483, 104.4096
1106.965, 104.2925
1107.447, 103.9324
1107.929, 103.8816
1108.411, 104.1148
1108.893, 104.1752
1109.375, 103.6288
1109.858, 103.1034
1110.340, 103.2343
1110.822, 102.9313
1111.304, 102.8593
1111.786, 103.0550
1112.268, 102.9339
1112.750, 103.3596
1113.232, 103.7646
1113.715, 103.5812
1114.197, 103.2184
1114.679, 103.1979
1115.161, 103.4420
1115.643, 103.6172
1116.125, 103.7063
1116.607, 103.6067
1117.089, 103.2161
1117.572, 102.8398
1118.054, 103.0161
1118.536, 103.4493
1119.018, 103.4629
1119.500, 103.0034
1119.982, 102.5759
1120.464, 102.2234
1120.946, 102.1587
1121.428, 102.6121
1121.911, 103.2461
1122.393, 103.0881
1122.875, 102.3633
1123.357, 102.1986
1123.839, 103.0398
1124.321, 103.5366
1124.803, 102.3151
1125.285, 101.0206
1125.767, 100.8197
1126.250, 101.5714
1126.732, 101.8305
1127.214, 101.6201
1127.696, 101.5602
1128.178, 102.0911
1128.660, 102.5377
1129.142, 102.1523
1129.624, 101.4561
1130.107, 101.1029
1130.589, 101.1890
1131.071, 101.2811
1131.553, 101.3779
1132.035, 101.4950
1132.517, 101.7830
1132.999, 101.9852
1133.481, 101.6825
1133.964, 101.0689
1134.446, 100.5760
1134.928, 100.0802
1135.410, 100.1864
1135.892, 101.0985
1136.374, 102.0924
1136.856, 102.5048
1137.338, 102.4742
1137.820, 102.0506
1138.302, 101.3387
1138.785, 100.8644
1139.267, 100.9542
1139.749, 101.1266
1140.231, 101.3766
1140.713, 101.5553
1141.195, 101.4651
1141.677, 101.1228
1142.159, 100.4249
1142.642, 99.34724
1143.124, 98.63586
1143.606, 98.67349
1144.088, 99.17448
1144.570, 100.2608
1145.052, 101.5410
1145.534, 101.7212
1146.016, 101.0294
1146.499, 100.7448
1146.981, 101.2633
1147.463, 101.8146
1147.945, 101.9580
1148.427, 101.9399
1148.909, 101.9034
1149.391, 101.8591
1149.873, 101.9000
1150.355, 102.0216
1150.838, 102.1015
1151.320, 102.1017
1151.802, 102.0313
1152.284, 101.8447
1152.766, 101.6237
1153.248, 101.4495
1153.730, 101.3203
1154.212, 101.2458
1154.694, 101.2203
1155.177, 101.3429
1155.659, 101.8996
1156.141, 102.3955
1156.623, 102.2070
1157.105, 101.6617
1157.587, 101.3593
1158.069, 101.3981
1158.551, 101.5197
1159.034, 101.7396
1159.516, 101.9250
1159.998, 101.8817
1160.480, 101.8076
1160.962, 102.0220
1161.444, 102.4223
1161.926, 102.6365
1162.408, 102.4907
1162.891, 102.4645
1163.373, 102.6559
1163.855, 102.8022
1164.337, 102.3851
1164.819, 101.8587
1165.301, 102.1657
1165.783, 103.2007
1166.265, 103.7660
1166.747, 103.3235
1167.229, 102.8124
1167.712, 102.3263
1168.194, 101.9742
1168.676, 101.9772
1169.158, 102.2072
1169.640, 102.3722
1170.122, 102.4377
1170.604, 102.6532
1171.086, 103.4192
1171.569, 103.8921
1172.051, 103.7507
1172.533, 103.3082
1173.015, 103.1636
1173.497, 103.2555
1173.979, 103.4542
1174.461, 103.7683
1174.943, 103.9519
1175.426, 103.7339
1175.908, 103.5685
1176.390, 103.6607
1176.872, 103.9226
1177.354, 104.0597
1177.836, 104.1142
1178.318, 104.2705
1178.800, 104.6720
1179.282, 104.9046
1179.765, 104.4840
1180.247, 104.1475
1180.729, 104.4116
1181.211, 105.1253
1181.693, 105.4243
1182.175, 105.3648
1182.657, 105.2416
1183.139, 105.1046
1183.621, 105.0560
1184.104, 105.4026
1184.586, 105.6299
1185.068, 105.2020
1185.550, 104.1774
1186.032, 103.7470
1186.514, 103.8741
1186.996, 104.2827
1187.478, 105.2307
1187.961, 105.9323
1188.443, 105.8310
1188.925, 105.3938
1189.407, 105.1064
1189.889, 104.9762
1190.371, 104.7031
1190.853, 104.2896
1191.335, 103.9309
1191.818, 103.6677
1192.300, 103.5767
1192.782, 103.7752
1193.264, 104.1416
1193.746, 104.5275
1194.228, 104.9369
1194.710, 105.2528
1195.192, 105.4660
1195.674, 105.6002
1196.156, 105.6208
1196.639, 105.6194
1197.121, 105.7150
1197.603, 105.8087
1198.085, 105.6810
1198.567, 105.3209
1199.049, 104.9300
1199.531, 104.5207
1200.013, 104.2488
1200.496, 104.1909
1200.978, 104.3607
1201.460, 105.0762
1201.942, 105.9822
1202.424, 105.9422
1202.906, 104.9060
1203.388, 104.2675
1203.870, 104.2647
1204.353, 104.4596
1204.835, 104.5497
1205.317, 104.6281
1205.799, 104.8129
1206.281, 105.0476
1206.763, 105.1136
1207.245, 105.0088
1207.727, 104.7241
1208.209, 104.2180
1208.692, 103.7913
1209.174, 103.8031
1209.656, 103.9295
1210.138, 103.8341
1210.620, 103.9786
1211.102, 104.1762
1211.584, 104.1975
1212.066, 104.5906
1212.548, 104.7522
1213.031, 104.7705
1213.513, 104.6080
1213.995, 104.4295
1214.477, 104.4271
1214.959, 104.5660
1215.441, 104.5380
1215.923, 104.3429
1216.405, 103.9174
1216.888, 103.0848
1217.370, 102.5180
1217.852, 103.1464
1218.334, 104.0458
1218.816, 104.3224
1219.298, 104.0021
1219.780, 103.8687
1220.262, 103.9188
1220.745, 103.8700
1221.227, 103.5227
1221.709, 103.2557
1222.191, 103.5210
1222.673, 103.8925
1223.155, 103.8960
1223.637, 103.5356
1224.119, 103.6705
1224.601, 104.2571
1225.083, 104.4699
1225.566, 103.7537
1226.048, 102.8942
1226.530, 102.2431
1227.012, 101.8853
1227.494, 101.9058
1227.976, 102.3025
1228.458, 102.8289
1228.940, 103.4519
1229.423, 103.6649
1229.905, 102.9022
1230.387, 102.1606
1230.869, 101.9764
1231.351, 102.1672
1231.833, 102.6241
1232.315, 103.3418
1232.797, 103.6618
1233.280, 103.6132
1233.762, 103.4836
1234.244, 103.3778
1234.726, 103.2849
1235.208, 103.2439
1235.690, 103.1796
1236.172, 102.9960
1236.654, 102.7025
1237.136, 102.5216
1237.619, 102.4514
1238.101, 102.4582
1238.583, 102.7358
1239.065, 102.8219
1239.547, 102.3384
1240.029, 101.7589
1240.511, 101.4237
1240.993, 101.3496
1241.475, 101.9517
1241.958, 103.0669
1242.440, 103.7368
1242.922, 103.0135
1243.404, 102.4038
1243.886, 102.4208
1244.368, 102.6123
1244.850, 102.4502
1245.332, 102.0835
1245.815, 102.3657
1246.297, 103.1449
1246.779, 103.5776
1247.261, 102.8277
1247.743, 102.3368
1248.225, 102.5446
1248.707, 102.8179
1249.189, 102.2838
1249.672, 101.3569
1250.154, 101.3054
1250.636, 102.0014
1251.118, 102.6763
1251.600, 103.2812
1252.082, 103.4143
1252.564, 102.8774
1253.046, 102.2145
1253.528, 101.9517
1254.010, 101.9882
1254.493, 102.2426
1254.975, 102.6388
1255.457, 102.8928
1255.939, 103.0829
1256.421, 102.7317
1256.903, 101.6100
1257.385, 100.5490
1257.867, 100.3246
1258.350, 100.7009
1258.832, 101.6437
1259.314, 102.9135
1259.796, 103.5568
1260.278, 103.2705
1260.760, 102.8796
1261.242, 102.4098
1261.724, 102.1016
1262.207, 102.3314
1262.689, 102.7276
1263.171, 102.8842
1263.653, 102.8475
1264.135, 102.8584
1264.617, 102.9439
1265.099, 102.9969
1265.581, 103.0039
1266.063, 103.0082
1266.546, 103.0271
1267.028, 103.0767
1267.510, 103.2677
1267.992, 103.4713
1268.474, 103.2872
1268.956, 102.6470
1269.438, 102.6269
1269.920, 103.3297
1270.402, 103.9656
1270.885, 103.8792
1271.367, 103.6010
1271.849, 103.4095
1272.331, 103.2599
1272.813, 102.9446
1273.295, 102.5134
1273.777, 102.9509
1274.259, 104.2751
1274.742, 105.0829
1275.224, 103.8786
1275.706, 102.7821
1276.188, 102.5830
1276.670, 102.9231
1277.152, 103.4234
1277.634, 104.0394
1278.116, 104.6633
1278.599, 105.2510
1279.081, 105.4252
1279.563, 104.5547
1280.045, 103.8964
1280.527, 103.7219
1281.009, 103.8263
1281.491, 104.0140
1281.973, 104.2649
1282.455, 104.6154
1282.938, 105.0140
1283.420, 105.1676
1283.902, 104.9042
1284.384, 104.4983
1284.866, 103.8844
1285.348, 103.4436
1285.830, 103.8404
1286.312, 104.5062
1286.794, 104.6564
1287.277, 104.3677
1287.759, 104.1584
1288.241, 104.1028
1288.723, 103.9483
1289.205, 103.6174
1289.687, 103.5671
1290.169, 104.6413
1290.651, 105.7833
1291.134, 105.9409
1291.616, 105.4032
1292.098, 105.1405
1292.580, 105.1948
1293.062, 105.0008
1293.544, 104.5124
1294.026, 104.0141
1294.508, 103.4722
1294.990, 103.2408
1295.473, 103.7971
1295.955, 104.6354
1296.437, 105.1321
1296.919, 105.3106
1297.401, 105.2570
1297.883, 105.0061
1298.365, 104.8337
1298.847, 104.9678
1299.329, 105.0892
1299.812, 105.0727
1300.294, 105.0552
1300.776, 105.3388
1301.258, 105.7184
1301.740, 105.4943
1302.222, 104.7941
1302.704, 104.3406
1303.186, 104.5578
1303.669, 104.7861
1304.151, 104.9800
1304.633, 105.1471
##END=



