##NAMES=Anglesite
##RRUFFID=R050408
##IDEAL CHEMISTRY=Pb^2+^S^6+^O_4_
##LOCALITY=Tsumeb mine, Tsumeb, Otavi District, Oshikoto, Namibia
##OWNER=RRUFF
##SOURCE=California Institute of Technology
##DESCRIPTION=Pale yellow fragment
##STATUS=The identification of this mineral has been confirmed by X-ray diffraction and chemical analysis
##URL=rruff.info/R050408
##MEASURED CHEMISTRY=Pb_1.00_S_1.00_O_4_
92.52344, 762.8357
93.00555, 744.3494
93.48767, 746.5793
93.96979, 794.5150
94.45190, 842.5565
94.93402, 887.5148
95.41614, 916.5951
95.89825, 933.0823
96.38037, 944.0756
96.86249, 950.1910
97.34460, 953.3441
97.82672, 954.9473
98.30884, 954.7592
98.79095, 954.2588
99.27307, 951.1110
99.75519, 942.0515
100.2373, 927.5735
100.7194, 909.3136
101.2015, 892.7215
101.6837, 877.9697
102.1658, 864.0094
102.6479, 849.9562
103.1300, 835.6334
103.6121, 821.7687
104.0942, 808.7153
104.5764, 796.2950
105.0585, 784.8213
105.5406, 774.8268
106.0227, 765.7408
106.5048, 755.8331
106.9869, 743.8752
107.4691, 732.3547
107.9512, 722.2064
108.4333, 713.2744
108.9154, 705.2168
109.3975, 697.7511
109.8796, 690.8372
110.3618, 684.5855
110.8439, 679.6149
111.3260, 674.7209
111.8081, 669.0755
112.2902, 662.7679
112.7723, 656.6580
113.2544, 652.0093
113.7366, 649.7055
114.2187, 647.4156
114.7008, 644.6196
115.1829, 642.0613
115.6650, 640.2949
116.1471, 639.5004
116.6293, 639.7301
117.1114, 641.2333
117.5935, 643.5802
118.0756, 647.5621
118.5577, 653.8879
119.0398, 662.0339
119.5220, 670.7913
120.0041, 679.4090
120.4862, 688.5834
120.9683, 699.3874
121.4504, 712.1780
121.9325, 725.8761
122.4147, 739.6432
122.8968, 753.4561
123.3789, 767.5685
123.8610, 781.9865
124.3431, 796.8333
124.8252, 812.5211
125.3074, 829.6548
125.7895, 847.1099
126.2716, 862.6201
126.7537, 875.8265
127.2358, 887.2158
127.7179, 896.8656
128.2001, 905.2229
128.6822, 913.0012
129.1643, 920.6222
129.6464, 928.0533
130.1285, 934.4373
130.6107, 938.6458
131.0928, 942.8551
131.5749, 948.1820
132.0570, 953.9940
132.5391, 958.9277
133.0212, 961.7845
133.5034, 962.4220
133.9855, 961.4403
134.4676, 959.5342
134.9497, 955.9055
135.4318, 950.5431
135.9139, 943.3019
136.3960, 933.3351
136.8782, 919.4062
137.3603, 900.7360
137.8424, 880.8478
138.3245, 860.0321
138.8066, 838.0901
139.2887, 814.8002
139.7709, 790.1111
140.2530, 764.4648
140.7351, 737.7971
141.2172, 710.3505
141.6993, 683.6481
142.1814, 658.5950
142.6636, 635.0473
143.1457, 612.1869
143.6278, 589.7757
144.1099, 568.4799
144.5920, 548.3593
145.0741, 529.5082
145.5563, 511.7664
146.0384, 494.9063
146.5205, 478.8963
147.0026, 464.3134
147.4847, 451.6919
147.9668, 440.3061
148.4490, 429.8443
148.9311, 420.2847
149.4132, 411.7180
149.8953, 404.3907
150.3774, 398.6141
150.8595, 393.5281
151.3417, 389.3061
151.8238, 385.4675
152.3059, 381.3232
152.7880, 376.6973
153.2701, 372.2898
153.7522, 369.9727
154.2344, 374.3251
154.7165, 375.5380
155.1986, 370.8427
155.6807, 363.4712
156.1628, 357.3965
156.6449, 354.6307
157.1271, 354.4948
157.6092, 354.3770
158.0913, 353.9481
158.5734, 353.8809
159.0555, 354.2690
159.5376, 355.1509
160.0198, 356.7057
160.5019, 359.2108
160.9840, 362.3975
161.4661, 365.1463
161.9482, 367.3195
162.4303, 369.2369
162.9125, 371.1885
163.3946, 373.1589
163.8767, 374.7543
164.3588, 375.8664
164.8409, 376.3406
165.3230, 375.9171
165.8052, 374.2833
166.2873, 371.9689
166.7694, 369.7567
167.2515, 367.8130
167.7336, 365.3472
168.2157, 361.7899
168.6979, 357.5699
169.1800, 353.0086
169.6621, 348.0194
170.1442, 342.9374
170.6263, 338.7414
171.1084, 335.9675
171.5906, 333.3015
172.0727, 329.8023
172.5548, 326.2014
173.0369, 323.5924
173.5190, 322.7899
174.0011, 323.5424
174.4833, 323.7287
174.9654, 322.5206
175.4475, 321.5314
175.9296, 320.8195
176.4117, 320.5827
176.8938, 321.2176
177.3760, 323.1759
177.8581, 326.5259
178.3402, 328.4800
178.8223, 327.9624
179.3044, 327.2805
179.7865, 327.0783
180.2687, 327.3905
180.7508, 328.0820
181.2329, 329.1096
181.7150, 330.5324
182.1971, 331.4371
182.6792, 331.8359
183.1614, 331.8075
183.6435, 331.3485
184.1256, 330.4765
184.6077, 329.2621
185.0898, 327.6862
185.5719, 325.7199
186.0541, 323.8999
186.5362, 322.9581
187.0183, 321.7476
187.5004, 319.0541
187.9825, 314.6965
188.4646, 309.7724
188.9468, 305.1927
189.4289, 300.8622
189.9110, 296.2577
190.3931, 291.1370
190.8752, 285.7190
191.3573, 280.3011
191.8395, 274.9283
192.3216, 269.4777
192.8037, 263.8456
193.2858, 258.0946
193.7679, 252.3072
194.2500, 246.4415
194.7322, 240.5757
195.2143, 234.9023
195.6964, 229.6160
196.1785, 224.2528
196.6606, 218.2750
197.1427, 212.0019
197.6249, 206.2066
198.1070, 201.5467
198.5891, 197.9010
199.0712, 194.0249
199.5533, 189.5235
200.0354, 185.2278
200.5176, 181.5588
200.9997, 178.3645
201.4818, 175.2905
201.9639, 172.0663
202.4460, 168.6829
202.9281, 165.4706
203.4103, 162.3974
203.8924, 159.5683
204.3745, 157.2635
204.8566, 155.2718
205.3387, 153.1358
205.8208, 150.3923
206.3030, 146.9100
206.7851, 143.9655
207.2672, 141.8851
207.7493, 139.9653
208.2314, 137.9166
208.7135, 135.7833
209.1957, 133.8129
209.6778, 132.2524
210.1599, 131.1757
210.6420, 129.9780
211.1241, 128.5961
211.6062, 127.1783
212.0884, 125.8004
212.5705, 124.4654
213.0526, 123.1205
213.5347, 121.7090
214.0168, 120.2210
214.4989, 118.7611
214.9811, 117.3462
215.4632, 115.9401
215.9453, 114.5171
216.4274, 113.0743
216.9095, 111.6247
217.3916, 110.1456
217.8737, 108.6463
218.3559, 107.3516
218.8380, 106.4152
219.3201, 105.5776
219.8022, 104.5735
220.2843, 103.3837
220.7664, 102.2617
221.2486, 101.4866
221.7307, 100.9650
222.2128, 100.3202
222.6949, 99.56755
223.1770, 98.62932
223.6591, 97.37573
224.1413, 95.77417
224.6234, 94.05551
225.1055, 92.03409
225.5876, 90.04073
226.0697, 88.80223
226.5518, 89.09997
227.0340, 89.95558
227.5161, 89.87125
227.9982, 88.63544
228.4803, 87.18221
228.9624, 85.89428
229.4445, 84.76624
229.9267, 83.82530
230.4088, 83.17860
230.8909, 82.65697
231.3730, 81.91746
231.8551, 80.85798
232.3372, 79.84303
232.8194, 78.96302
233.3015, 78.21841
233.7836, 77.66187
234.2657, 77.38717
234.7478, 77.19873
235.2299, 76.60139
235.7121, 75.31609
236.1942, 74.17642
236.6763, 73.46125
237.1584, 72.97778
237.6405, 72.51857
238.1227, 71.98678
238.6048, 71.45191
239.0869, 71.13560
239.5690, 71.32653
240.0511, 71.20802
240.5332, 70.52256
241.0154, 69.55415
241.4975, 68.52898
241.9796, 67.54005
242.4617, 66.64628
242.9438, 66.02612
243.4259, 65.88933
243.9081, 65.70942
244.3902, 65.44259
244.8723, 65.10439
245.3544, 64.67432
245.8365, 64.14748
246.3186, 63.60651
246.8008, 63.25505
247.2829, 63.43933
247.7650, 63.29572
248.2471, 62.54230
248.7292, 61.59388
249.2113, 60.82731
249.6935, 60.37162
250.1756, 60.09821
250.6577, 59.75302
251.1398, 59.19799
251.6219, 58.78031
252.1040, 58.62700
252.5862, 58.53928
253.0683, 58.34120
253.5504, 57.98319
254.0325, 57.53156
254.5146, 57.08876
254.9967, 56.62959
255.4789, 56.24250
255.9610, 56.02809
256.4431, 55.83017
256.9252, 55.47210
257.4073, 54.92222
257.8894, 54.34701
258.3716, 53.97917
258.8537, 53.94202
259.3358, 53.80181
259.8179, 53.43572
260.3000, 53.03968
260.7821, 52.84850
261.2643, 52.88681
261.7464, 52.88310
262.2285, 52.50222
262.7106, 51.62038
263.1927, 50.94435
263.6748, 50.49864
264.1570, 50.25476
264.6391, 50.33696
265.1212, 50.72390
265.6033, 50.98471
266.0854, 50.63196
266.5675, 49.63269
267.0497, 48.96542
267.5318, 48.92466
268.0139, 49.03551
268.4960, 48.91693
268.9781, 48.55358
269.4602, 48.15749
269.9424, 47.87073
270.4245, 47.69548
270.9066, 47.56179
271.3887, 47.56795
271.8708, 47.53983
272.3529, 47.30341
272.8351, 46.87470
273.3172, 46.46309
273.7993, 46.19686
274.2814, 46.04585
274.7635, 45.88440
275.2456, 45.75135
275.7278, 45.56331
276.2099, 45.19271
276.6920, 44.67060
277.1741, 44.25482
277.6562, 44.08545
278.1383, 44.10057
278.6205, 44.16750
279.1026, 44.38464
279.5847, 44.44308
280.0668, 43.96468
280.5489, 43.06216
281.0310, 42.45487
281.5132, 42.56311
281.9953, 42.91649
282.4774, 42.81435
282.9595, 42.18832
283.4416, 41.52512
283.9237, 41.07536
284.4059, 40.82018
284.8880, 40.70407
285.3701, 40.80086
285.8522, 40.91624
286.3343, 40.81984
286.8164, 40.52343
287.2986, 40.25088
287.7807, 40.15726
288.2628, 40.18559
288.7449, 40.13947
289.2270, 39.95106
289.7091, 39.75994
290.1913, 39.69897
290.6734, 39.73579
291.1555, 39.75462
291.6376, 39.72401
292.1197, 39.63604
292.6018, 39.43529
293.0840, 39.04800
293.5661, 38.72231
294.0482, 38.74127
294.5303, 38.92756
295.0124, 38.94286
295.4945, 38.54259
295.9767, 37.95592
296.4588, 37.61230
296.9409, 37.57545
297.4230, 37.56359
297.9051, 37.41649
298.3872, 37.21280
298.8694, 37.05049
299.3515, 36.98315
299.8336, 36.92258
300.3157, 36.74752
300.7978, 36.44371
301.2799, 36.10099
301.7621, 35.61140
302.2442, 35.17524
302.7263, 35.01650
303.2084, 35.20775
303.6905, 35.48413
304.1726, 35.59528
304.6548, 35.53693
305.1369, 35.39216
305.6190, 35.02366
306.1011, 34.70695
306.5832, 34.72099
307.0653, 35.06995
307.5475, 35.39935
308.0296, 35.40542
308.5117, 35.11276
308.9938, 34.79861
309.4759, 34.41267
309.9580, 34.12198
310.4402, 34.09936
310.9223, 34.27721
311.4044, 34.39831
311.8865, 34.22248
312.3686, 33.83736
312.8507, 33.63941
313.3329, 33.72035
313.8150, 33.84544
314.2971, 33.87653
314.7792, 33.85782
315.2613, 33.87569
315.7434, 33.99904
316.2256, 34.16368
316.7077, 34.22174
317.1898, 34.13894
317.6719, 34.04457
318.1540, 33.92860
318.6361, 33.85653
319.1183, 33.94680
319.6004, 34.28960
320.0825, 34.65138
320.5646, 34.66927
321.0467, 34.28075
321.5288, 33.94758
322.0110, 33.85698
322.4931, 33.85765
322.9752, 33.86979
323.4573, 33.88360
323.9394, 33.83028
324.4215, 33.56169
324.9037, 33.08709
325.3858, 32.82813
325.8679, 33.00801
326.3500, 33.28357
326.8321, 33.42753
327.3142, 33.44367
327.7964, 33.40238
328.2785, 33.33155
328.7606, 33.23722
329.2427, 33.14013
329.7248, 33.01475
330.2069, 32.93636
330.6891, 32.99861
331.1712, 33.13562
331.6533, 33.20251
332.1354, 33.08259
332.6175, 32.87789
333.0996, 32.81456
333.5818, 32.94104
334.0639, 33.05124
334.5460, 32.91656
335.0281, 32.75033
335.5102, 32.85622
335.9923, 33.42688
336.4745, 34.02547
336.9566, 34.06269
337.4387, 33.49966
337.9208, 33.03788
338.4029, 32.98009
338.8850, 33.07530
339.3671, 33.05886
339.8492, 32.89992
340.3314, 32.78299
340.8135, 32.94632
341.2956, 33.31966
341.7777, 33.41161
342.2598, 32.94726
342.7419, 32.45359
343.2241, 32.45817
343.7062, 32.86341
344.1883, 33.18259
344.6704, 33.08280
345.1525, 32.75243
345.6346, 32.62548
346.1168, 32.78202
346.5989, 32.95445
347.0810, 32.86267
347.5631, 32.65877
348.0452, 32.62955
348.5273, 32.98054
349.0095, 33.41739
349.4916, 33.56510
349.9737, 33.41568
350.4558, 33.33599
350.9379, 33.61338
351.4200, 33.98527
351.9022, 33.99482
352.3843, 33.48359
352.8664, 32.99527
353.3485, 32.90711
353.8306, 33.14736
354.3127, 33.46846
354.7949, 33.88254
355.2770, 34.22029
355.7591, 34.20774
356.2412, 33.85470
356.7233, 33.56189
357.2054, 33.53609
357.6876, 33.63913
358.1697, 33.63252
358.6518, 33.46987
359.1339, 33.31427
359.6160, 33.32229
360.0981, 33.46770
360.5803, 33.60332
361.0624, 33.68087
361.5445, 33.76580
362.0266, 33.92120
362.5087, 34.14035
362.9908, 34.37032
363.4730, 34.60537
363.9551, 34.81359
364.4372, 34.90423
364.9193, 34.78746
365.4014, 34.71154
365.8835, 34.81636
366.3657, 35.03002
366.8478, 35.23577
367.3299, 35.41178
367.8120, 35.49316
368.2941, 35.31317
368.7762, 34.76746
369.2584, 34.43695
369.7405, 34.48078
370.2226, 34.72914
370.7047, 35.07747
371.1868, 35.49703
371.6689, 35.88034
372.1511, 36.12793
372.6332, 36.23153
373.1153, 36.34040
373.5974, 36.49195
374.0795, 36.61345
374.5616, 36.63352
375.0438, 36.59334
375.5259, 36.60253
376.0080, 36.72546
376.4901, 36.92857
376.9722, 37.09348
377.4543, 37.12748
377.9365, 37.24194
378.4186, 37.52960
378.9007, 37.87622
379.3828, 38.14130
379.8649, 38.29021
380.3470, 38.41304
380.8292, 38.64596
381.3113, 39.07035
381.7934, 39.35632
382.2755, 39.43547
382.7576, 39.45622
383.2397, 39.44857
383.7219, 39.44981
384.2040, 39.53184
384.6861, 39.75456
385.1682, 40.11158
385.6503, 40.49615
386.1324, 40.93504
386.6146, 41.37260
387.0967, 41.71212
387.5788, 42.07133
388.0609, 42.67025
388.5430, 43.59727
389.0251, 44.60915
389.5073, 45.19456
389.9894, 45.12148
390.4715, 45.09320
390.9536, 44.95128
391.4357, 45.00575
391.9178, 45.51884
392.4000, 46.47048
392.8821, 47.61260
393.3642, 48.79817
393.8463, 50.04165
394.3284, 50.84814
394.8105, 50.73043
395.2927, 50.73256
395.7748, 51.25552
396.2569, 52.12328
396.7390, 53.05141
397.2211, 53.92395
397.7032, 54.72066
398.1854, 55.34054
398.6675, 55.67550
399.1496, 56.17155
399.6317, 57.01188
400.1138, 58.03178
400.5959, 59.14597
401.0781, 60.33474
401.5602, 61.55850
402.0423, 62.78597
402.5244, 64.01340
403.0065, 65.24317
403.4886, 66.54092
403.9708, 67.72944
404.4529, 68.54301
404.9350, 69.14035
405.4171, 69.99306
405.8992, 71.51086
406.3813, 73.28837
406.8635, 74.64803
407.3456, 75.54283
407.8277, 76.46243
408.3098, 77.61162
408.7919, 78.97487
409.2740, 80.53051
409.7562, 82.37634
410.2383, 84.16595
410.7204, 85.54803
411.2025, 86.70777
411.6846, 88.20676
412.1667, 90.21648
412.6489, 92.53649
413.1310, 94.99060
413.6131, 97.58376
414.0952, 100.1948
414.5773, 102.4248
415.0594, 104.9215
415.5416, 108.3875
416.0237, 112.7811
416.5058, 117.4238
416.9879, 121.8393
417.4700, 126.1521
417.9521, 131.0528
418.4343, 136.2385
418.9164, 142.2369
419.3985, 149.1805
419.8806, 157.0413
420.3627, 165.7843
420.8448, 175.4180
421.3270, 185.8120
421.8091, 196.8916
422.2912, 209.0627
422.7733, 220.5959
423.2554, 231.0406
423.7375, 241.2547
424.2197, 251.0791
424.7018, 260.9534
425.1839, 271.8494
425.6660, 284.4330
426.1481, 298.6105
426.6302, 314.2449
427.1124, 330.4544
427.5945, 349.3932
428.0766, 371.6596
428.5587, 396.4616
429.0408, 422.7592
429.5229, 450.3202
430.0051, 480.7823
430.4872, 516.4324
430.9693, 557.2912
431.4514, 602.4714
431.9335, 651.4664
432.4156, 706.0394
432.8978, 766.7518
433.3799, 833.8798
433.8620, 908.5532
434.3441, 991.0287
434.8262, 1081.275
435.3083, 1179.632
435.7905, 1287.277
436.2726, 1398.960
436.7547, 1519.379
437.2368, 1640.223
437.7189, 1758.193
438.2010, 1873.850
438.6832, 1970.700
439.1653, 2037.777
439.6474, 2074.859
440.1295, 2078.952
440.6116, 2044.363
441.0938, 1985.801
441.5759, 1903.457
442.0580, 1805.942
442.5401, 1720.140
443.0222, 1647.538
443.5043, 1594.505
443.9865, 1566.570
444.4686, 1563.665
444.9507, 1584.418
445.4328, 1629.337
445.9149, 1697.197
446.3970, 1786.385
446.8792, 1899.624
447.3613, 2020.019
447.8434, 2151.724
448.3255, 2284.157
448.8076, 2411.057
449.2897, 2530.187
449.7719, 2626.965
450.2540, 2690.942
450.7361, 2722.052
451.2182, 2697.007
451.7003, 2608.568
452.1824, 2481.982
452.6646, 2311.415
453.1467, 2111.692
453.6288, 1901.256
454.1109, 1687.576
454.5930, 1479.886
455.0751, 1294.176
455.5573, 1131.132
456.0394, 991.5471
456.5215, 877.1334
457.0036, 780.5035
457.4857, 699.4000
457.9678, 632.1524
458.4500, 575.4432
458.9321, 527.4880
459.4142, 487.8241
459.8963, 453.3114
460.3784, 424.9386
460.8605, 400.4632
461.3427, 379.6725
461.8248, 361.4618
462.3069, 344.9279
462.7890, 329.8415
463.2711, 315.8267
463.7532, 302.7415
464.2354, 290.4848
464.7175, 278.7437
465.1996, 267.5880
465.6817, 256.8028
466.1638, 246.1437
466.6459, 235.6908
467.1281, 225.6636
467.6102, 216.1904
468.0923, 207.1653
468.5744, 198.5870
469.0565, 190.3857
469.5386, 182.5017
470.0208, 174.7977
470.5029, 167.5382
470.9850, 161.3673
471.4671, 156.3426
471.9492, 151.5524
472.4313, 146.5371
472.9135, 141.7519
473.3956, 137.8096
473.8777, 134.7034
474.3598, 131.7965
474.8419, 128.6406
475.3240, 125.2592
475.8062, 121.9512
476.2883, 118.5391
476.7704, 115.3905
477.2525, 112.6486
477.7346, 110.1875
478.2167, 107.9589
478.6989, 105.9052
479.1810, 103.8444
479.6631, 101.4676
480.1452, 98.66896
480.6273, 96.17281
481.1094, 94.38033
481.5916, 92.49040
482.0737, 90.07677
482.5558, 87.41476
483.0379, 85.01301
483.5200, 83.12441
484.0021, 81.50691
484.4843, 79.64805
484.9664, 77.43201
485.4485, 75.47569
485.9306, 74.03669
486.4127, 72.78896
486.8948, 71.61684
487.3770, 70.47083
487.8591, 69.19001
488.3412, 67.56242
488.8233, 65.78011
489.3054, 64.23183
489.7875, 62.94646
490.2697, 61.72510
490.7518, 60.49854
491.2339, 59.26859
491.7160, 58.00166
492.1981, 56.64958
492.6802, 55.42131
493.1624, 54.46532
493.6445, 53.67577
494.1266, 52.90304
494.6087, 52.11800
495.0908, 51.36998
495.5729, 50.72374
496.0551, 50.17621
496.5372, 49.45135
497.0193, 48.43003
497.5014, 47.40159
497.9835, 46.37200
498.4656, 45.41388
498.9478, 44.60725
499.4299, 43.98073
499.9120, 43.53744
500.3941, 43.35109
500.8762, 43.59975
501.3583, 43.38323
501.8405, 42.20952
502.3226, 41.07093
502.8047, 40.32106
503.2868, 39.86311
503.7689, 39.50363
504.2510, 39.15424
504.7331, 38.81555
505.2152, 38.50670
505.6974, 38.24457
506.1795, 37.89146
506.6616, 37.24297
507.1437, 36.67170
507.6258, 36.54706
508.1079, 36.78379
508.5901, 36.90473
509.0722, 36.57756
509.5543, 36.05167
510.0364, 35.68837
510.5185, 35.48888
511.0006, 35.31127
511.4828, 35.09790
511.9649, 34.86037
512.4470, 34.62705
512.9291, 34.40571
513.4113, 34.16221
513.8934, 33.84600
514.3755, 33.53012
514.8576, 33.31916
515.3397, 33.20453
515.8218, 33.07974
516.3040, 32.87450
516.7861, 32.58398
517.2682, 32.17770
517.7503, 31.48142
518.2324, 30.88766
518.7145, 30.36080
519.1967, 29.99010
519.6788, 29.94625
520.1609, 30.20240
520.6430, 30.46805
521.1251, 30.44818
521.6072, 30.14956
522.0894, 29.81638
522.5715, 29.35295
523.0536, 29.01208
523.5357, 28.99871
524.0178, 29.08385
524.4999, 28.96604
524.9821, 28.55018
525.4642, 28.13220
525.9463, 28.05277
526.4284, 28.22055
526.9105, 28.20537
527.3926, 27.91678
527.8748, 27.53758
528.3569, 27.15678
528.8390, 26.79677
529.3211, 26.53088
529.8032, 26.42218
530.2853, 26.34719
530.7675, 26.30793
531.2496, 26.24405
531.7317, 25.97072
532.2138, 25.42896
532.6959, 24.90864
533.1780, 24.80722
533.6602, 25.24218
534.1423, 25.35597
534.6244, 24.94164
535.1065, 24.48696
535.5886, 24.12296
536.0707, 23.85415
536.5529, 23.68251
537.0350, 23.60731
537.5171, 23.57773
537.9992, 23.48923
538.4813, 23.29939
538.9634, 23.27604
539.4456, 23.60483
539.9277, 23.91201
540.4098, 24.07998
540.8919, 24.09514
541.3740, 23.91121
541.8561, 23.42819
542.3383, 22.91460
542.8204, 22.74249
543.3025, 22.87495
543.7846, 22.94855
544.2667, 22.84990
544.7488, 22.71509
545.2310, 22.70678
545.7131, 22.80930
546.1952, 22.88660
546.6773, 22.93411
547.1594, 22.93585
547.6415, 22.83959
548.1237, 22.69013
548.6058, 22.59227
549.0879, 22.58837
549.5700, 22.65317
550.0521, 22.75069
550.5342, 22.89709
551.0164, 23.02616
551.4985, 23.09437
551.9806, 23.19105
552.4627, 23.46786
552.9448, 23.78275
553.4269, 23.81506
553.9091, 23.38989
554.3912, 22.85354
554.8733, 22.90606
555.3554, 23.67738
555.8375, 24.12500
556.3196, 23.84720
556.8018, 23.52505
557.2839, 23.67295
557.7660, 24.12865
558.2481, 24.41789
558.7302, 24.23017
559.2123, 23.97590
559.6945, 24.13703
560.1766, 24.61631
560.6587, 24.98383
561.1408, 25.11197
561.6229, 25.07270
562.1050, 24.90585
562.5872, 24.57369
563.0693, 24.43051
563.5514, 24.68285
564.0335, 24.92168
564.5156, 24.89596
564.9977, 24.71706
565.4799, 24.61231
565.9620, 24.67096
566.4441, 24.78535
566.9262, 24.75172
567.4083, 24.47263
567.8904, 24.44418
568.3726, 25.07824
568.8547, 25.53739
569.3368, 25.32351
569.8189, 24.79710
570.3010, 24.58460
570.7831, 24.95054
571.2653, 25.50233
571.7474, 25.80629
572.2295, 25.88323
572.7116, 25.89433
573.1937, 25.83376
573.6758, 25.78765
574.1580, 25.81686
574.6401, 25.92023
575.1222, 26.09631
575.6043, 26.44849
576.0864, 26.75589
576.5685, 26.84748
577.0507, 26.83839
577.5328, 26.94975
578.0149, 27.22846
578.4970, 27.49496
578.9791, 27.53642
579.4612, 27.33779
579.9434, 27.29551
580.4255, 27.52226
580.9076, 27.77859
581.3897, 28.13680
581.8718, 28.44434
582.3539, 28.46063
582.8361, 28.16700
583.3182, 27.89927
583.8003, 28.07482
584.2824, 28.61357
584.7645, 28.87142
585.2466, 28.71576
585.7288, 28.65734
586.2108, 29.05147
586.6929, 29.64671
587.1750, 30.02757
587.6572, 30.07232
588.1393, 30.31308
588.6214, 31.13925
589.1035, 32.22591
589.5856, 33.11839
590.0677, 33.79674
590.5499, 34.50890
591.0320, 35.40535
591.5141, 36.47783
591.9962, 37.68864
592.4783, 39.33511
592.9604, 40.68348
593.4426, 41.48936
593.9247, 42.19439
594.4068, 43.00352
594.8889, 43.98445
595.3710, 45.21043
595.8531, 46.73695
596.3353, 48.50323
596.8174, 50.39594
597.2995, 52.40206
597.7816, 54.56768
598.2637, 56.89917
598.7458, 59.40594
599.2280, 62.03963
599.7101, 64.82229
600.1922, 67.90916
600.6743, 71.35786
601.1564, 75.11470
601.6385, 79.03117
602.1207, 83.22324
602.6028, 88.15675
603.0849, 93.99423
603.5670, 100.2558
604.0491, 106.3201
604.5313, 112.1307
605.0134, 118.0913
605.4955, 124.5876
605.9776, 130.7905
606.4597, 136.5132
606.9418, 141.7758
607.4240, 146.6492
607.9061, 151.1185
608.3882, 154.8816
608.8703, 157.8049
609.3524, 159.8252
609.8345, 160.0762
610.3167, 158.4921
610.7988, 155.2622
611.2809, 149.9487
611.7630, 143.2241
612.2451, 135.7971
612.7272, 127.5964
613.2094, 119.3527
613.6915, 110.7071
614.1736, 102.5698
614.6557, 96.10621
615.1378, 91.33118
615.6199, 87.94765
616.1021, 85.90800
616.5842, 84.82126
617.0663, 83.60606
617.5484, 81.98791
618.0305, 80.69827
618.5126, 80.29398
618.9948, 79.67251
619.4769, 78.32083
619.9590, 76.23248
620.4411, 73.51352
620.9232, 70.15017
621.4053, 66.38621
621.8875, 62.40388
622.3696, 58.22202
622.8517, 54.54482
623.3338, 51.43139
623.8159, 48.98321
624.2980, 47.52055
624.7802, 46.83090
625.2623, 46.25824
625.7444, 45.54343
626.2265, 45.18312
626.7086, 45.53770
627.1907, 46.32737
627.6729, 47.16265
628.1550, 47.97384
628.6371, 48.92066
629.1192, 50.17053
629.6013, 51.67558
630.0834, 52.95260
630.5656, 53.42655
631.0477, 54.66816
631.5298, 57.25674
632.0119, 60.30656
632.4940, 63.21198
632.9761, 65.94524
633.4583, 68.76965
633.9404, 71.60204
634.4225, 74.81667
634.9046, 79.08742
635.3867, 84.38288
635.8688, 90.10609
636.3510, 96.12700
636.8331, 102.3815
637.3152, 108.6259
637.7973, 114.8384
638.2794, 122.4359
638.7615, 132.3017
639.2437, 142.6194
639.7258, 153.2720
640.2079, 163.7115
640.6900, 173.6732
641.1721, 182.9023
641.6542, 190.2348
642.1364, 194.7047
642.6185, 196.2557
643.1006, 193.7679
643.5827, 186.5934
644.0648, 176.7964
644.5469, 163.6545
645.0291, 149.0400
645.5112, 133.9272
645.9933, 118.4665
646.4754, 104.3103
646.9575, 92.24430
647.4396, 81.90479
647.9218, 73.07439
648.4039, 65.63637
648.8860, 59.25286
649.3681, 53.77431
649.8502, 49.12719
650.3323, 45.18170
650.8145, 41.97880
651.2966, 39.31218
651.7787, 37.40866
652.2608, 35.76033
652.7429, 34.37999
653.2250, 33.10138
653.7072, 31.68885
654.1893, 30.09227
654.6714, 28.61683
655.1535, 27.61404
655.6356, 26.96125
656.1177, 26.21720
656.5999, 25.35065
657.0820, 24.56502
657.5641, 23.92070
658.0462, 23.44277
658.5283, 23.24824
659.0104, 23.41997
659.4926, 23.40281
659.9747, 22.90611
660.4568, 22.40144
660.9389, 22.22668
661.4210, 22.26646
661.9031, 22.28111
662.3853, 22.17126
662.8674, 21.93509
663.3495, 21.47668
663.8316, 20.75649
664.3137, 20.47751
664.7958, 20.89903
665.2780, 21.29038
665.7601, 21.24632
666.2422, 21.03615
666.7243, 20.99908
667.2064, 21.20242
667.6885, 21.29522
668.1707, 21.05447
668.6528, 20.65767
669.1349, 20.20678
669.6170, 19.76801
670.0991, 19.59673
670.5812, 19.83410
671.0634, 20.20427
671.5455, 20.20238
672.0276, 19.68435
672.5097, 19.34313
672.9918, 19.27457
673.4739, 19.28536
673.9561, 19.43570
674.4382, 19.58321
674.9203, 19.50600
675.4024, 19.15052
675.8845, 18.80602
676.3666, 18.78308
676.8488, 18.91772
677.3309, 18.79956
677.8130, 18.41665
678.2951, 18.15808
678.7772, 18.26547
679.2593, 18.48521
679.7415, 18.32001
680.2236, 17.54429
680.7057, 17.08582
681.1878, 17.16787
681.6699, 17.31754
682.1520, 17.34409
682.6342, 17.29038
683.1163, 17.03559
683.5984, 16.60499
684.0805, 16.70437
684.5626, 18.92235
685.0447, 22.53826
685.5269, 23.24380
686.0090, 20.44532
686.4911, 17.74314
686.9732, 16.62264
687.4553, 16.50483
687.9374, 16.58768
688.4196, 16.90127
688.9017, 17.10543
689.3838, 17.17023
689.8659, 17.08996
690.3480, 16.75244
690.8301, 16.30010
691.3123, 15.93823
691.7944, 15.74230
692.2765, 15.71987
692.7586, 15.95986
693.2407, 16.42335
693.7228, 16.49141
694.2050, 15.94801
694.6871, 15.59862
695.1692, 15.88121
695.6513, 16.37682
696.1334, 16.66911
696.6155, 16.75110
697.0977, 16.70775
697.5798, 16.42478
698.0619, 16.15692
698.5440, 16.17986
699.0261, 16.34026
699.5082, 16.26476
699.9904, 15.86638
700.4725, 15.47616
700.9546, 15.48628
701.4367, 15.85772
701.9188, 15.96588
702.4009, 15.60769
702.8831, 15.39067
703.3652, 15.56957
703.8473, 15.86872
704.3294, 16.13784
704.8115, 16.35558
705.2936, 16.47726
705.7758, 16.48016
706.2579, 16.38471
706.7400, 16.10528
707.2221, 15.75713
707.7042, 15.62155
708.1863, 15.75643
708.6685, 15.95979
709.1506, 16.04546
709.6327, 16.03565
710.1148, 16.11114
710.5969, 16.42032
711.0790, 16.53801
711.5612, 16.25748
712.0433, 15.91248
712.5254, 15.70925
713.0075, 15.62291
713.4896, 15.52098
713.9717, 15.29521
714.4539, 15.14563
714.9360, 15.35301
715.4181, 15.75161
715.9002, 15.93250
716.3823, 15.84095
716.8644, 15.74030
717.3466, 15.82917
717.8287, 16.04676
718.3108, 16.17776
718.7929, 16.26915
719.2750, 16.17708
719.7571, 15.65125
720.2393, 15.19915
720.7214, 15.08010
721.2035, 15.21856
721.6856, 15.48372
722.1677, 15.86770
722.6498, 16.18060
723.1320, 16.23822
723.6141, 16.11922
724.0962, 15.94747
724.5783, 15.74311
725.0604, 15.58933
725.5425, 15.53403
726.0247, 15.54634
726.5068, 15.56557
726.9889, 15.59596
727.4710, 15.62050
727.9531, 15.69791
728.4352, 15.70289
728.9174, 15.46371
729.3995, 15.18957
729.8816, 15.18642
730.3637, 15.51131
730.8458, 15.85573
731.3279, 16.00863
731.8101, 16.04302
732.2922, 16.04836
732.7743, 16.03652
733.2564, 16.08024
733.7385, 16.21871
734.2206, 16.32638
734.7028, 16.21208
735.1849, 15.84625
735.6670, 15.70755
736.1491, 16.05368
736.6312, 16.29975
737.1133, 16.31516
737.5955, 16.22203
738.0776, 16.09321
738.5597, 15.95368
739.0418, 15.85173
739.5239, 15.83068
740.0060, 15.83452
740.4882, 15.84030
740.9703, 15.81746
741.4524, 15.60361
741.9345, 15.16762
742.4166, 14.84752
742.8987, 14.96123
743.3809, 15.39638
743.8630, 15.58348
744.3451, 15.33872
744.8272, 15.17851
745.3093, 15.14361
745.7914, 15.18241
746.2736, 15.32305
746.7557, 15.50621
747.2378, 15.62553
747.7199, 15.64724
748.2020, 15.59964
748.6841, 15.45376
749.1663, 15.27456
749.6484, 15.17219
750.1305, 15.15105
750.6126, 15.18380
751.0947, 15.26474
751.5768, 15.34064
752.0590, 15.29232
752.5411, 15.05267
753.0232, 15.01818
753.5053, 15.45030
753.9874, 15.73558
754.4695, 15.48488
754.9517, 15.12606
755.4338, 15.19237
755.9159, 15.72081
756.3980, 16.12660
756.8801, 16.04103
757.3622, 15.79014
757.8444, 15.66040
758.3265, 15.61933
758.8086, 15.55879
759.2907, 15.45651
759.7728, 15.41959
760.2549, 15.57746
760.7371, 15.87553
761.2192, 15.94732
761.7013, 15.67516
762.1834, 15.49845
762.6655, 15.60833
763.1476, 15.71285
763.6298, 15.51365
764.1119, 15.15761
764.5940, 15.08068
765.0761, 15.54684
765.5582, 15.94256
766.0403, 15.85332
766.5225, 15.61660
767.0046, 15.63733
767.4867, 15.88268
767.9688, 16.07893
768.4509, 16.08679
768.9330, 15.99090
769.4152, 15.95035
769.8973, 15.97218
770.3794, 15.81008
770.8615, 15.33994
771.3436, 15.01799
771.8257, 15.12422
772.3079, 15.43151
772.7900, 15.63173
773.2721, 15.72670
773.7542, 15.70956
774.2363, 15.43970
774.7184, 15.21196
775.2006, 15.19672
775.6827, 15.30227
776.1648, 15.41519
776.6469, 15.50774
777.1290, 15.60274
777.6111, 15.73590
778.0933, 15.85594
778.5754, 15.78483
779.0575, 15.53498
779.5396, 15.48990
780.0217, 15.76773
780.5038, 16.10731
780.9860, 16.35317
781.4681, 16.48726
781.9502, 16.42198
782.4323, 15.87562
782.9144, 15.60128
783.3965, 15.90729
783.8787, 16.21939
784.3608, 16.13438
784.8429, 15.84607
785.3250, 15.77614
785.8071, 16.05927
786.2892, 16.29552
786.7714, 16.04533
787.2535, 15.56131
787.7356, 15.32292
788.2177, 15.31495
788.6998, 15.28821
789.1819, 15.14312
789.6641, 15.03535
790.1462, 15.16758
790.6283, 15.53864
791.1104, 15.88562
791.5925, 16.33800
792.0746, 16.54002
792.5568, 16.16221
793.0389, 15.75458
793.5210, 15.75928
794.0031, 16.06875
794.4852, 16.26167
794.9673, 16.17408
795.4495, 16.02320
795.9316, 15.88298
796.4137, 15.79374
796.8958, 15.86795
797.3779, 16.05746
797.8600, 16.14067
798.3422, 15.99982
798.8243, 15.76829
799.3064, 15.66168
799.7885, 15.68323
800.2706, 15.72803
800.7527, 15.80846
801.2349, 15.87117
801.7170, 15.88470
802.1991, 15.87919
802.6812, 15.88433
803.1633, 15.89831
803.6454, 15.96362
804.1276, 16.21616
804.6097, 16.35962
805.0918, 16.22335
805.5739, 15.96536
806.0560, 15.66903
806.5381, 15.40688
807.0203, 15.34917
807.5024, 15.64739
807.9845, 16.03572
808.4666, 16.10790
808.9487, 15.94958
809.4308, 15.90232
809.9130, 16.00773
810.3951, 16.14013
810.8772, 16.23541
811.3593, 16.29508
811.8414, 16.31739
812.3235, 16.28275
812.8057, 16.28554
813.2878, 16.39848
813.7699, 16.45687
814.2520, 16.41864
814.7341, 16.30494
815.2162, 16.06794
815.6984, 15.73785
816.1805, 15.57161
816.6626, 15.84192
817.1447, 16.13821
817.6268, 16.04775
818.1089, 15.83169
818.5911, 15.97699
819.0732, 16.48203
819.5553, 16.91980
820.0374, 17.01057
820.5195, 16.88012
821.0016, 16.77016
821.4838, 16.68108
821.9659, 16.58796
822.4480, 16.46713
822.9301, 16.41315
823.4122, 16.46816
823.8943, 16.62391
824.3765, 16.90990
824.8586, 17.38891
825.3407, 17.66434
825.8228, 17.53785
826.3049, 17.42931
826.7870, 17.54187
827.2692, 17.70382
827.7513, 17.71984
828.2334, 17.59034
828.7155, 17.44830
829.1976, 17.33905
829.6797, 17.29616
830.1619, 17.38248
830.6440, 17.55932
831.1261, 17.72798
831.6082, 17.88116
832.0903, 18.11430
832.5724, 18.50752
833.0546, 18.87165
833.5367, 18.77144
834.0188, 18.09371
834.5009, 17.75644
834.9830, 17.89261
835.4651, 18.10458
835.9473, 18.30765
836.4294, 18.47313
836.9115, 18.56139
837.3936, 18.57578
837.8757, 18.59434
838.3578, 18.61172
838.8400, 18.65762
839.3221, 18.79437
839.8042, 18.92809
840.2863, 18.91130
840.7684, 18.80179
841.2505, 18.84884
841.7327, 19.20693
842.2148, 19.51893
842.6969, 19.16983
843.1790, 18.46650
843.6611, 18.36479
844.1432, 18.87629
844.6254, 19.32331
845.1075, 19.41713
845.5896, 19.35700
846.0717, 19.38942
846.5538, 19.51353
847.0359, 19.78559
847.5181, 20.34688
848.0002, 20.77448
848.4823, 20.91300
848.9644, 20.95897
849.4465, 21.01114
849.9286, 21.08152
850.4108, 21.20388
850.8929, 21.41425
851.3750, 21.60665
851.8571, 21.72860
852.3392, 21.83211
852.8214, 21.92581
853.3035, 22.04407
853.7856, 22.24050
854.2677, 22.53263
854.7498, 22.90609
855.2319, 23.38854
855.7141, 23.92116
856.1962, 24.43753
856.6783, 24.90694
857.1604, 25.03257
857.6425, 24.71019
858.1246, 24.49393
858.6068, 24.86980
859.0889, 25.68282
859.5710, 26.36859
860.0531, 26.93276
860.5352, 27.34986
861.0173, 27.51093
861.4995, 27.66603
861.9816, 27.91445
862.4637, 28.22825
862.9458, 28.55361
863.4279, 28.87925
863.9100, 29.33721
864.3922, 30.29439
864.8743, 31.01493
865.3564, 30.86801
865.8385, 30.41494
866.3206, 30.30004
866.8027, 30.57856
867.2849, 30.98552
867.7670, 31.37576
868.2491, 31.80305
868.7312, 32.54698
869.2133, 33.35118
869.6954, 33.29971
870.1776, 32.40315
870.6597, 31.68619
871.1418, 31.61193
871.6239, 31.90755
872.1060, 32.23360
872.5881, 32.58833
873.0703, 32.76555
873.5524, 32.56961
874.0345, 32.72268
874.5166, 33.74648
874.9987, 34.75451
875.4808, 34.88608
875.9630, 34.43523
876.4451, 34.28209
876.9272, 34.68895
877.4093, 34.93821
877.8914, 34.74975
878.3735, 34.50570
878.8557, 34.42476
879.3378, 34.45134
879.8199, 34.48532
880.3020, 34.49982
880.7841, 34.49827
881.2662, 34.44775
881.7484, 34.41594
882.2305, 34.47157
882.7126, 34.61465
883.1947, 34.90241
883.6768, 35.31027
884.1589, 35.62960
884.6411, 35.72402
885.1232, 35.65774
885.6053, 35.49526
886.0874, 35.22739
886.5695, 35.21843
887.0516, 35.50912
887.5338, 35.94487
888.0159, 36.54896
888.4980, 37.13743
888.9801, 37.47690
889.4622, 37.56828
889.9443, 37.65961
890.4265, 37.73899
890.9086, 37.83548
891.3907, 37.97020
891.8728, 38.10516
892.3549, 38.23623
892.8370, 38.34499
893.3192, 38.38690
893.8013, 38.34244
894.2834, 38.31838
894.7655, 38.25405
895.2476, 38.33862
895.7297, 38.97952
896.2119, 39.78105
896.6940, 39.95427
897.1761, 39.46436
897.6582, 39.06560
898.1403, 39.31565
898.6224, 39.83303
899.1046, 39.91405
899.5867, 39.70432
900.0688, 39.96522
900.5509, 40.74999
901.0330, 41.24134
901.5151, 41.00380
901.9973, 40.57581
902.4794, 40.78851
902.9615, 41.64294
903.4436, 42.21443
903.9257, 42.49126
904.4078, 42.48568
904.8900, 41.85442
905.3721, 41.38820
905.8542, 41.92489
906.3363, 43.09166
906.8184, 43.69543
907.3005, 43.38293
907.7827, 43.32905
908.2648, 43.83084
908.7469, 44.44962
909.2290, 45.13122
909.7111, 45.71588
910.1932, 45.97090
910.6754, 45.91295
911.1575, 45.85824
911.6396, 45.89491
912.1217, 46.08852
912.6038, 46.58777
913.0859, 47.22017
913.5681, 47.77220
914.0502, 48.22057
914.5323, 48.61058
915.0144, 48.96134
915.4965, 49.22869
915.9786, 49.27221
916.4607, 49.20588
916.9428, 49.46072
917.4249, 50.01839
917.9070, 50.65544
918.3892, 51.33014
918.8713, 51.94900
919.3534, 52.45188
919.8355, 52.81511
920.3176, 52.88694
920.7997, 52.45502
921.2819, 52.56609
921.7640, 53.50489
922.2461, 54.46624
922.7282, 55.25566
923.2103, 55.81028
923.6924, 55.90351
924.1746, 55.57239
924.6567, 55.56080
925.1388, 56.18084
925.6209, 56.72408
926.1030, 56.81530
926.5851, 57.02905
927.0673, 57.91025
927.5494, 59.13997
928.0315, 60.14307
928.5136, 60.77672
928.9957, 61.20258
929.4778, 61.39295
929.9600, 61.52036
930.4421, 61.10311
930.9242, 61.02879
931.4063, 63.57412
931.8884, 68.10826
932.3705, 70.72044
932.8527, 69.03093
933.3348, 66.00466
933.8169, 65.38821
934.2990, 66.49533
934.7811, 67.66021
935.2632, 68.76774
935.7454, 69.69619
936.2275, 70.40549
936.7096, 70.93707
937.1917, 71.26793
937.6738, 71.54512
938.1559, 72.43666
938.6381, 74.04186
939.1202, 75.35662
939.6023, 76.14428
940.0844, 77.09087
940.5665, 78.62230
941.0486, 80.39690
941.5308, 81.81759
942.0129, 82.81939
942.4950, 84.23901
942.9771, 86.25125
943.4592, 88.43222
943.9413, 90.69996
944.4235, 93.13207
944.9056, 95.93005
945.3877, 98.90571
945.8698, 101.5323
946.3519, 103.5188
946.8340, 106.1483
947.3162, 110.2604
947.7983, 114.5038
948.2804, 118.1590
948.7625, 121.5543
949.2446, 124.9915
949.7267, 128.5897
950.2089, 132.5426
950.6910, 137.0140
951.1731, 141.6242
951.6552, 145.8151
952.1373, 150.1656
952.6194, 155.3271
953.1016, 161.2637
953.5837, 167.8013
954.0658, 174.8846
954.5479, 182.6410
955.0300, 191.2729
955.5121, 200.5430
955.9943, 209.8193
956.4764, 219.3611
956.9585, 230.0577
957.4406, 242.0986
957.9227, 255.5759
958.4048, 270.5655
958.8870, 287.2060
959.3691, 305.6291
959.8512, 325.8751
960.3333, 348.1976
960.8154, 372.4176
961.2975, 399.3102
961.7797, 428.5630
962.2618, 461.4135
962.7439, 498.1897
963.2260, 539.1718
963.7081, 584.8802
964.1902, 635.4593
964.6724, 690.5707
965.1545, 750.4636
965.6366, 814.2291
966.1187, 881.0790
966.6008, 952.2465
967.0829, 1027.825
967.5651, 1108.653
968.0472, 1196.685
968.5293, 1291.322
969.0114, 1395.394
969.4935, 1506.450
969.9756, 1631.053
970.4578, 1770.920
970.9399, 1927.188
971.4220, 2100.440
971.9041, 2291.571
972.3862, 2503.874
972.8683, 2737.825
973.3505, 2992.828
973.8326, 3272.125
974.3147, 3570.693
974.7968, 3891.592
975.2789, 4224.285
975.7610, 4561.148
976.2432, 4894.093
976.7253, 5200.961
977.2074, 5481.552
977.6895, 5701.333
978.1716, 5835.945
978.6537, 5876.912
979.1359, 5803.714
979.6180, 5622.939
980.1001, 5353.458
980.5822, 5005.311
981.0643, 4610.744
981.5464, 4191.920
982.0286, 3763.469
982.5107, 3360.524
982.9928, 2985.750
983.4749, 2648.194
983.9570, 2350.264
984.4391, 2087.217
984.9213, 1858.060
985.4034, 1659.495
985.8855, 1488.547
986.3676, 1343.630
986.8497, 1217.486
987.3318, 1110.669
987.8140, 1016.902
988.2961, 935.7295
988.7782, 864.4877
989.2603, 801.7466
989.7424, 746.5213
990.2245, 696.1154
990.7067, 650.5234
991.1888, 609.4938
991.6709, 573.2083
992.1530, 540.3738
992.6351, 511.0065
993.1172, 484.3013
993.5994, 459.5668
994.0815, 436.8633
994.5636, 416.6437
995.0457, 399.5634
995.5278, 383.1585
996.0099, 367.2325
996.4921, 352.1073
996.9742, 337.6255
997.4563, 324.1668
997.9384, 312.3306
998.4205, 301.7778
998.9026, 291.4278
999.3848, 280.9106
999.8669, 271.3352
1000.349, 263.4097
1000.831, 255.9040
1001.313, 248.0043
1001.795, 240.3823
1002.277, 233.9684
1002.760, 228.5965
1003.242, 223.0054
1003.724, 216.6702
1004.206, 210.5209
1004.688, 204.5800
1005.170, 199.3663
1005.652, 195.8692
1006.134, 193.0248
1006.617, 189.1295
1007.099, 184.0972
1007.581, 179.1933
1008.063, 174.9697
1008.545, 171.1975
1009.027, 167.7136
1009.509, 164.5565
1009.991, 161.9411
1010.473, 159.6091
1010.956, 157.0063
1011.438, 154.0437
1011.920, 151.2260
1012.402, 148.9566
1012.884, 146.8049
1013.366, 144.0621
1013.848, 141.1396
1014.330, 138.9227
1014.813, 137.2602
1015.295, 135.3189
1015.777, 132.8943
1016.259, 130.8675
1016.741, 130.1711
1017.223, 129.9322
1017.705, 128.2625
1018.187, 125.6877
1018.669, 124.2952
1019.152, 124.0496
1019.634, 123.1747
1020.116, 121.0276
1020.598, 118.9038
1021.080, 118.2374
1021.562, 118.4277
1022.044, 117.7464
1022.526, 116.2777
1023.008, 114.8267
1023.491, 113.4690
1023.973, 112.4482
1024.455, 111.8879
1024.937, 111.5037
1025.419, 110.9808
1025.901, 110.3466
1026.383, 109.7481
1026.865, 109.1978
1027.348, 108.4431
1027.830, 107.4094
1028.312, 106.4492
1028.794, 105.7109
1029.276, 105.1542
1029.758, 104.7609
1030.240, 104.4996
1030.722, 104.0873
1031.204, 103.4111
1031.687, 103.2082
1032.169, 103.8813
1032.651, 103.9733
1033.133, 102.4667
1033.615, 100.6523
1034.097, 100.3105
1034.579, 101.3195
1035.061, 101.8031
1035.544, 101.5716
1036.026, 101.3132
1036.508, 101.1828
1036.990, 100.8224
1037.472, 99.85030
1037.954, 98.78613
1038.436, 98.32204
1038.918, 98.44107
1039.401, 98.65028
1039.883, 98.99833
1040.365, 99.34852
1040.847, 99.84020
1041.329, 100.1326
1041.811, 99.84573
1042.293, 99.43624
1042.775, 99.50347
1043.257, 100.0375
1043.740, 100.6257
1044.222, 101.2899
1044.704, 101.9756
1045.186, 102.7202
1045.668, 103.4434
1046.150, 104.1026
1046.632, 104.7273
1047.114, 105.3074
1047.596, 105.8577
1048.079, 106.5558
1048.561, 107.2989
1049.043, 108.3694
1049.525, 110.0019
1050.007, 111.7339
1050.489, 113.4620
1050.971, 115.0980
1051.453, 116.5039
1051.936, 117.7067
1052.418, 118.9473
1052.900, 120.2260
1053.382, 121.6179
1053.864, 123.1726
1054.346, 124.8208
1054.828, 126.8181
1055.310, 128.6993
1055.792, 129.8200
1056.275, 130.2533
1056.757, 130.6702
1057.239, 131.1090
1057.721, 131.7720
1058.203, 132.9184
1058.685, 134.0702
1059.167, 135.0401
1059.649, 135.8127
1060.131, 136.4245
1060.614, 136.8507
1061.096, 136.9875
1061.578, 136.7980
1062.060, 136.3364
1062.542, 135.4248
1063.024, 134.4726
1063.506, 133.7596
1063.988, 133.0984
1064.471, 132.1903
1064.953, 131.1186
1065.435, 130.3364
1065.917, 130.1315
1066.399, 129.5928
1066.881, 128.0303
1067.363, 126.4126
1067.845, 125.1117
1068.328, 124.1964
1068.810, 124.1174
1069.292, 124.4457
1069.774, 123.8205
1070.256, 121.6797
1070.738, 119.6892
1071.220, 118.5470
1071.702, 117.7979
1072.184, 117.3575
1072.667, 117.0419
1073.149, 116.8575
1073.631, 116.6160
1074.113, 115.8043
1074.595, 114.2247
1075.077, 112.9014
1075.559, 112.3372
1076.041, 112.1153
1076.523, 112.2343
1077.006, 112.3883
1077.488, 112.2965
1077.970, 111.9997
1078.452, 111.6327
1078.934, 111.2275
1079.416, 110.8228
1079.898, 110.4181
1080.380, 110.0376
1080.862, 109.6012
1081.345, 109.2754
1081.827, 109.2193
1082.309, 109.3850
1082.791, 109.8056
1083.273, 110.4334
1083.755, 110.6503
1084.237, 109.9607
1084.719, 109.1395
1085.202, 108.4829
1085.684, 107.9135
1086.166, 107.3288
1086.648, 106.8101
1087.130, 106.5773
1087.612, 106.5972
1088.094, 106.4140
1088.576, 105.7157
1089.058, 105.0775
1089.541, 104.7366
1090.023, 104.5522
1090.505, 104.6531
1090.987, 104.7056
1091.469, 104.1747
1091.951, 103.1541
1092.433, 102.3121
1092.915, 101.8757
1093.397, 101.5725
1093.880, 101.3729
1094.362, 101.1897
1094.844, 100.9998
1095.326, 100.7802
1095.808, 100.5098
1096.290, 100.1907
1096.772, 99.81039
1097.254, 99.33451
1097.737, 98.96455
1098.219, 98.71455
1098.701, 98.65476
1099.183, 99.13554
1099.665, 99.54092
1100.147, 99.15708
1100.629, 98.31254
1101.111, 97.80659
1101.594, 97.79248
1102.076, 97.79630
1102.558, 97.74156
1103.040, 97.62022
1103.522, 97.30022
1104.004, 97.04387
1104.486, 97.19207
1104.968, 97.45235
1105.450, 97.27572
1105.932, 96.62923
1106.415, 96.16527
1106.897, 96.12409
1107.379, 96.09870
1107.861, 95.92542
1108.343, 95.84660
1108.825, 96.08275
1109.307, 96.41797
1109.789, 96.58277
1110.272, 96.58826
1110.754, 96.63065
1111.236, 96.84104
1111.718, 96.86575
1112.200, 96.49319
1112.682, 96.16253
1113.164, 95.99048
1113.646, 95.95267
1114.129, 96.05777
1114.611, 96.27563
1115.093, 96.52650
1115.575, 96.87589
1116.057, 97.04959
1116.539, 96.96615
1117.021, 96.82401
1117.503, 96.45647
1117.985, 96.28564
1118.468, 96.67178
1118.950, 97.39067
1119.432, 98.04575
1119.914, 98.64059
1120.396, 99.11886
1120.878, 99.44606
1121.360, 99.73107
1121.842, 99.99693
1122.324, 100.1847
1122.807, 100.1635
1123.289, 100.1888
1123.771, 100.6235
1124.253, 101.4126
1124.735, 102.0955
1125.217, 102.6600
1125.699, 103.1387
1126.181, 103.4053
1126.664, 104.0326
1127.146, 105.3550
1127.628, 106.7166
1128.110, 107.4534
1128.592, 107.8472
1129.074, 108.7903
1129.556, 110.3637
1130.038, 111.4834
1130.521, 112.0349
1131.003, 113.0410
1131.485, 114.8338
1131.967, 116.3878
1132.449, 116.9539
1132.931, 117.2909
1133.413, 118.7095
1133.895, 121.0405
1134.377, 123.0367
1134.859, 124.7344
1135.342, 126.9489
1135.824, 129.7777
1136.306, 132.3292
1136.788, 134.1959
1137.270, 136.1955
1137.752, 139.2867
1138.234, 142.8992
1138.716, 145.4836
1139.199, 147.3447
1139.681, 149.6524
1140.163, 152.5270
1140.645, 156.2964
1141.127, 160.9375
1141.609, 165.5513
1142.091, 169.5010
1142.573, 173.2332
1143.056, 177.1563
1143.538, 181.4042
1144.020, 186.3245
1144.502, 191.7691
1144.984, 197.3626
1145.466, 203.0915
1145.948, 209.2078
1146.430, 215.8313
1146.912, 222.2779
1147.395, 227.3353
1147.877, 232.6108
1148.359, 240.4343
1148.841, 249.3105
1149.323, 257.3447
1149.805, 264.6287
1150.287, 271.7726
1150.769, 278.9620
1151.251, 286.2679
1151.734, 293.8267
1152.216, 301.1715
1152.698, 308.0471
1153.180, 314.4764
1153.662, 320.3004
1154.144, 325.7196
1154.626, 331.2130
1155.108, 336.5345
1155.591, 340.8752
1156.073, 344.0583
1156.555, 345.9336
1157.037, 345.8125
1157.519, 345.2225
1158.001, 344.8980
1158.483, 344.2335
1158.965, 343.1922
1159.448, 341.2770
1159.930, 337.6183
1160.412, 332.1620
1160.894, 325.9187
1161.376, 318.5714
1161.858, 311.1431
1162.340, 303.8396
1162.822, 296.3370
1163.304, 288.2227
1163.786, 280.2414
1164.269, 273.2919
1164.751, 266.9774
1165.233, 259.7990
1165.715, 251.5912
1166.197, 243.2475
1166.679, 234.4931
1167.161, 226.4135
1167.643, 219.2973
1168.126, 212.6084
1168.608, 206.0281
1169.090, 199.6624
1169.572, 193.6041
1170.054, 187.8525
1170.536, 182.7718
1171.018, 178.3855
1171.500, 173.6420
1171.983, 168.4211
1172.465, 163.4565
1172.947, 158.9907
1173.429, 154.9313
1173.911, 151.2096
1174.393, 147.7800
1174.875, 144.6253
1175.357, 141.6436
1175.839, 138.2829
1176.322, 134.6889
1176.804, 131.4994
1177.286, 128.7857
1177.768, 126.3456
1178.250, 124.0715
1178.732, 121.9494
1179.214, 120.0401
1179.696, 118.1527
1180.178, 115.9731
1180.661, 113.6572
1181.143, 111.3383
1181.625, 109.1312
1182.107, 107.3115
1182.589, 105.8826
1183.071, 104.5692
1183.553, 103.2993
1184.035, 101.9180
1184.518, 100.2603
1185.000, 98.54368
1185.482, 96.84024
1185.964, 95.22495
1186.446, 93.82555
1186.928, 92.56674
1187.410, 91.28630
1187.892, 89.95918
1188.375, 88.57272
1188.857, 86.89592
1189.339, 85.50881
1189.821, 84.90690
1190.303, 84.16808
1190.785, 82.58752
1191.267, 80.84135
1191.749, 79.68697
1192.231, 78.98009
1192.714, 78.15223
1193.196, 77.18716
1193.678, 76.15395
1194.160, 75.03606
1194.642, 73.86283
1195.124, 72.53896
1195.606, 71.48878
1196.088, 71.04195
1196.570, 70.78506
1197.053, 70.16096
1197.535, 69.20769
1198.017, 67.98038
1198.499, 66.49680
1198.981, 65.65480
1199.463, 65.46521
1199.945, 64.77837
1200.427, 63.28175
1200.910, 61.83302
1201.392, 61.01720
1201.874, 60.53952
1202.356, 60.00928
1202.838, 59.48532
1203.320, 59.14590
1203.802, 58.89657
1204.284, 58.58477
1204.766, 58.14540
1205.249, 57.40007
1205.731, 56.34281
1206.213, 55.39984
1206.695, 54.82750
1207.177, 54.46099
1207.659, 54.30997
1208.141, 54.17415
1208.623, 53.90697
1209.105, 53.52982
1209.588, 53.05207
1210.070, 52.50475
1210.552, 51.89885
1211.034, 51.20417
1211.516, 50.79270
1211.998, 50.90265
1212.480, 51.07776
1212.962, 51.38802
1213.445, 51.52747
1213.927, 51.16502
1214.409, 50.69084
1214.891, 50.58443
1215.373, 50.72446
1215.855, 50.53913
1216.337, 49.90281
1216.819, 49.53304
1217.302, 49.55493
1217.784, 49.31503
1218.266, 48.60424
1218.748, 47.97266
1219.230, 47.71782
1219.712, 47.71493
1220.194, 47.85566
1220.676, 48.03397
1221.158, 47.89460
1221.641, 47.47760
1222.123, 46.92627
1222.605, 46.29997
1223.087, 45.80971
1223.569, 45.50470
1224.051, 45.35858
1224.533, 45.36572
1225.015, 45.33710
1225.497, 45.15911
1225.980, 44.76378
1226.462, 43.95604
1226.944, 42.97033
1227.426, 41.88126
1227.908, 40.95306
1228.390, 40.85129
1228.872, 41.49181
1229.354, 41.68401
1229.837, 40.83421
1230.319, 40.05357
1230.801, 39.86977
1231.283, 39.63554
1231.765, 38.80955
1232.247, 38.08868
1232.729, 38.35036
1233.211, 38.92757
1233.693, 38.45346
1234.176, 36.98634
1234.658, 36.30121
1235.140, 36.77005
1235.622, 36.85527
1236.104, 36.36012
1236.586, 35.96985
1237.068, 35.90306
1237.550, 35.91393
1238.032, 35.85034
1238.515, 35.65560
1238.997, 35.18636
1239.479, 34.53369
1239.961, 34.02395
1240.443, 33.66155
1240.925, 33.52901
1241.407, 33.57583
1241.889, 33.54358
1242.372, 33.37455
1242.854, 33.24987
1243.336, 33.29018
1243.818, 33.35448
1244.300, 33.28742
1244.782, 33.20568
1245.264, 33.37036
1245.746, 33.46838
1246.229, 32.95448
1246.711, 32.14299
1247.193, 31.68432
1247.675, 31.67881
1248.157, 31.87992
1248.639, 32.42335
1249.121, 32.77241
1249.603, 32.82375
1250.085, 32.67254
1250.568, 32.10375
1251.050, 31.65894
1251.532, 31.78220
1252.014, 32.16140
1252.496, 32.28500
1252.978, 32.17062
1253.460, 31.99755
1253.942, 31.75469
1254.424, 31.57591
1254.907, 31.47159
1255.389, 31.36933
1255.871, 31.24924
1256.353, 31.08348
1256.835, 30.85276
1257.317, 30.59121
1257.799, 30.30713
1258.281, 30.05445
1258.764, 29.94579
1259.246, 29.93044
1259.728, 29.99235
1260.210, 30.04144
1260.692, 29.83560
1261.174, 29.40606
1261.656, 29.12488
1262.138, 29.17308
1262.620, 29.19611
1263.103, 28.99115
1263.585, 28.77834
1264.067, 28.73998
1264.549, 28.63823
1265.031, 28.20118
1265.513, 27.66503
1265.995, 27.38299
1266.477, 27.30615
1266.959, 27.17171
1267.442, 26.98655
1267.924, 26.68330
1268.406, 26.20196
1268.888, 25.89989
1269.370, 25.87049
1269.852, 25.81820
1270.334, 25.59509
1270.816, 25.30897
1271.299, 25.07019
1271.781, 24.85912
1272.263, 24.53626
1272.745, 24.25477
1273.227, 24.55688
1273.709, 25.15801
1274.191, 25.33325
1274.673, 25.06599
1275.156, 24.71600
1275.638, 24.41231
1276.120, 24.15655
1276.602, 23.99290
1277.084, 23.80118
1277.566, 23.55212
1278.048, 23.22170
1278.530, 22.63208
1279.012, 22.09769
1279.495, 21.99823
1279.977, 22.17970
1280.459, 22.26705
1280.941, 22.25956
1281.423, 22.10530
1281.905, 21.74896
1282.387, 21.46753
1282.869, 21.28742
1283.351, 21.14892
1283.834, 21.04074
1284.316, 20.88841
1284.798, 20.63009
1285.280, 20.39029
1285.762, 20.31920
1286.244, 20.42700
##END=



