##NAMES=Anglesite
##RRUFFID=R050052
##IDEAL CHEMISTRY=Pb^2+^S^6+^O_4_
##LOCALITY=Touissite, Oujela, Morocco
##OWNER=RRUFF
##SOURCE=Eugene Schlepp
##DESCRIPTION=Yellow prismatic single crystal
##STATUS=The identification of this mineral has been confirmed by X-ray diffraction and chemical analysis
##URL=rruff.info/R050052
##MEASURED CHEMISTRY=Pb_1.00_S_1.00_O_4_
90.64606, 19.93261
91.12817, 18.12406
91.61029, 15.71548
92.09241, 14.23945
92.57452, 15.09496
93.05664, 18.31682
93.53876, 20.53513
94.02087, 20.78789
94.50299, 20.84658
94.98511, 21.21387
95.46722, 21.86140
95.94934, 22.53767
96.43146, 23.07933
96.91357, 23.65289
97.39569, 23.22875
97.87781, 20.53576
98.35992, 18.05824
98.84204, 17.30952
99.32416, 18.34070
99.80627, 20.03606
100.2884, 21.02326
100.7705, 20.94184
101.2526, 20.99043
101.7347, 21.22504
102.2169, 21.54696
102.6990, 21.96281
103.1811, 22.46056
103.6632, 22.84519
104.1453, 22.70520
104.6274, 21.59355
105.1096, 21.10942
105.5917, 21.52117
106.0738, 22.62392
106.5559, 24.46217
107.0380, 27.27230
107.5201, 30.07803
108.0023, 30.53122
108.4844, 27.96612
108.9665, 26.17294
109.4486, 27.05291
109.9307, 29.76100
110.4128, 32.03335
110.8950, 32.96956
111.3771, 33.21692
111.8592, 33.78564
112.3413, 34.53688
112.8234, 35.92886
113.3055, 38.77047
113.7877, 42.85908
114.2698, 46.08606
114.7519, 46.16221
115.2340, 46.07285
115.7161, 49.73582
116.1982, 58.50917
116.6804, 68.24438
117.1625, 74.46848
117.6446, 76.72478
118.1267, 79.34398
118.6088, 83.75025
119.0909, 89.42700
119.5731, 96.29488
120.0552, 104.4820
120.5373, 113.3839
121.0194, 121.5064
121.5015, 127.5259
121.9836, 136.7058
122.4658, 151.0035
122.9479, 168.8005
123.4300, 189.3752
123.9121, 212.9853
124.3942, 237.9645
124.8763, 259.6738
125.3585, 275.1846
125.8406, 292.8191
126.3227, 314.2955
126.8048, 338.6231
127.2869, 364.9684
127.7690, 392.7597
128.2512, 422.1539
128.7333, 452.8035
129.2154, 485.0049
129.6975, 518.3020
130.1796, 552.4290
130.6617, 587.5068
131.1439, 623.8655
131.6260, 662.0043
132.1081, 701.3659
132.5902, 737.5332
133.0723, 769.8694
133.5544, 799.3600
134.0366, 824.9035
134.5187, 847.6431
135.0008, 869.5899
135.4829, 892.1052
135.9650, 915.0464
136.4471, 934.9816
136.9293, 953.8896
137.4114, 968.1602
137.8935, 974.3427
138.3756, 974.7286
138.8577, 974.1160
139.3398, 975.5200
139.8220, 978.9611
140.3041, 987.8314
140.7862, 998.3029
141.2683, 1016.173
141.7504, 1049.011
142.2325, 1093.026
142.7147, 1134.712
143.1968, 1162.560
143.6789, 1176.191
144.1610, 1201.245
144.6431, 1245.074
145.1252, 1292.524
145.6074, 1334.613
146.0895, 1371.654
146.5716, 1409.709
147.0537, 1453.999
147.5358, 1504.727
148.0179, 1553.280
148.5001, 1600.599
148.9822, 1645.096
149.4643, 1684.028
149.9464, 1717.853
150.4285, 1753.137
150.9106, 1801.419
151.3928, 1858.525
151.8749, 1890.250
152.3570, 1879.621
152.8391, 1851.809
153.3212, 1829.732
153.8033, 1815.252
154.2855, 1797.243
154.7676, 1763.838
155.2497, 1718.416
155.7318, 1676.145
156.2139, 1645.376
156.6960, 1615.907
157.1782, 1572.595
157.6603, 1512.437
158.1424, 1454.516
158.6245, 1415.471
159.1066, 1390.401
159.5887, 1369.449
160.0709, 1348.724
160.5530, 1331.366
161.0351, 1324.112
161.5172, 1329.595
161.9993, 1335.963
162.4814, 1331.898
162.9636, 1322.658
163.4457, 1318.097
163.9278, 1326.061
164.4099, 1339.580
164.8920, 1345.425
165.3741, 1341.450
165.8563, 1335.702
166.3384, 1331.973
166.8205, 1330.024
167.3026, 1329.811
167.7847, 1332.056
168.2668, 1335.792
168.7490, 1339.685
169.2311, 1345.329
169.7132, 1347.269
170.1953, 1339.144
170.6774, 1326.234
171.1595, 1316.791
171.6417, 1314.968
172.1238, 1318.866
172.6059, 1324.449
173.0880, 1333.390
173.5701, 1340.550
174.0522, 1343.613
174.5344, 1343.767
175.0165, 1342.251
175.4986, 1338.733
175.9807, 1334.504
176.4628, 1333.117
176.9449, 1335.197
177.4271, 1339.263
177.9092, 1348.582
178.3913, 1358.360
178.8734, 1361.070
179.3555, 1350.763
179.8376, 1333.144
180.3197, 1326.256
180.8019, 1338.725
181.2840, 1346.666
181.7661, 1338.349
182.2482, 1323.142
182.7303, 1313.177
183.2124, 1315.333
183.6946, 1324.818
184.1767, 1327.680
184.6588, 1320.280
185.1409, 1312.206
185.6230, 1307.715
186.1051, 1303.605
186.5873, 1294.919
187.0694, 1278.319
187.5515, 1258.797
188.0336, 1250.806
188.5157, 1265.244
188.9978, 1272.396
189.4800, 1262.766
189.9621, 1245.183
190.4442, 1228.238
190.9263, 1215.752
191.4084, 1206.195
191.8905, 1195.865
192.3727, 1183.879
192.8548, 1172.654
193.3369, 1161.870
193.8190, 1152.176
194.3011, 1144.421
194.7832, 1138.963
195.2654, 1134.915
195.7475, 1130.677
196.2296, 1127.207
196.7117, 1121.456
197.1938, 1111.193
197.6759, 1099.886
198.1581, 1091.134
198.6402, 1086.040
199.1223, 1082.066
199.6044, 1073.474
200.0865, 1053.964
200.5686, 1042.927
201.0508, 1050.010
201.5329, 1059.701
202.0150, 1059.511
202.4971, 1046.199
202.9792, 1026.283
203.4613, 1009.359
203.9435, 994.3403
204.4256, 985.4455
204.9077, 988.6202
205.3898, 992.9539
205.8719, 990.6683
206.3540, 980.4294
206.8362, 966.7292
207.3183, 954.7784
207.8004, 943.2161
208.2825, 937.6204
208.7646, 944.7762
209.2467, 951.9401
209.7289, 949.8530
210.2110, 938.5873
210.6931, 926.3833
211.1752, 923.9022
211.6573, 935.4425
212.1395, 940.8677
212.6216, 936.2493
213.1037, 929.3563
213.5858, 923.3626
214.0679, 918.6053
214.5500, 914.0053
215.0322, 908.5344
215.5143, 902.1304
215.9964, 895.3250
216.4785, 885.9578
216.9606, 878.1530
217.4427, 873.8719
217.9249, 872.6295
218.4070, 872.6227
218.8891, 872.3093
219.3712, 871.6412
219.8533, 872.4448
220.3354, 877.4095
220.8176, 881.2709
221.2997, 882.5344
221.7818, 881.5723
222.2639, 879.4192
222.7460, 876.8574
223.2281, 873.7536
223.7103, 868.9099
224.1924, 860.5549
224.6745, 852.2253
225.1566, 841.4111
225.6387, 831.6683
226.1208, 829.6159
226.6030, 840.2437
227.0851, 858.7435
227.5672, 864.4152
228.0493, 845.5487
228.5314, 828.8729
229.0135, 818.5461
229.4957, 812.8634
229.9778, 810.5306
230.4599, 811.1081
230.9420, 812.8835
231.4241, 811.2867
231.9062, 803.0879
232.3884, 797.0800
232.8705, 794.9282
233.3526, 794.7958
233.8347, 795.5650
234.3168, 796.7859
234.7989, 797.7280
235.2811, 797.2626
235.7632, 795.5681
236.2453, 791.8515
236.7274, 781.5660
237.2095, 772.5176
237.6916, 771.3504
238.1738, 778.6909
238.6559, 788.3472
239.1380, 792.8008
239.6201, 791.0110
240.1022, 787.7377
240.5843, 781.4606
241.0665, 775.1125
241.5486, 769.8312
242.0307, 765.7779
242.5128, 762.7212
242.9949, 760.4052
243.4770, 758.8023
243.9592, 758.3362
244.4413, 761.9615
244.9234, 763.8486
245.4055, 760.3011
245.8876, 753.0237
246.3697, 746.6194
246.8519, 744.7842
247.3340, 746.8981
247.8161, 747.2643
248.2982, 743.3895
248.7803, 741.1755
249.2624, 744.8623
249.7446, 751.0500
250.2267, 754.0215
250.7088, 750.0977
251.1909, 741.6734
251.6730, 735.5892
252.1551, 732.5218
252.6373, 730.5157
253.1194, 729.7938
253.6015, 729.3302
254.0836, 727.7794
254.5657, 724.4376
255.0478, 720.6893
255.5300, 718.6599
256.0121, 718.5291
256.4942, 719.4920
256.9763, 722.6613
257.4584, 726.0870
257.9406, 728.7687
258.4227, 730.5285
258.9048, 730.5706
259.3869, 726.8326
259.8690, 719.0368
260.3511, 713.8940
260.8333, 714.1141
261.3154, 716.2402
261.7975, 717.9869
262.2796, 719.2342
262.7617, 720.3862
263.2438, 722.2605
263.7260, 724.5066
264.2081, 724.8094
264.6902, 721.7864
265.1723, 718.5333
265.6544, 717.7478
266.1365, 718.7034
266.6187, 718.9948
267.1008, 715.8619
267.5829, 711.5889
268.0650, 712.1491
268.5471, 719.5380
269.0292, 725.6782
269.5114, 722.6536
269.9935, 714.7234
270.4756, 708.9164
270.9577, 707.6301
271.4398, 708.7191
271.9219, 710.0161
272.4041, 711.5176
272.8862, 713.6301
273.3683, 717.6763
273.8504, 721.8582
274.3325, 722.9500
274.8146, 720.0396
275.2968, 715.4003
275.7789, 707.6533
276.2610, 698.5900
276.7431, 696.7263
277.2252, 707.9307
277.7073, 723.8488
278.1895, 730.5491
278.6716, 727.2679
279.1537, 721.4174
279.6358, 713.2542
280.1179, 704.7637
280.6000, 699.7299
281.0822, 699.1995
281.5643, 700.7249
282.0464, 701.6158
282.5285, 701.7828
283.0106, 702.4095
283.4927, 705.6041
283.9749, 708.0592
284.4570, 705.1533
284.9391, 697.1008
285.4212, 690.5587
285.9033, 691.8112
286.3854, 700.6549
286.8676, 704.4165
287.3497, 699.5222
287.8318, 693.5288
288.3139, 688.5612
288.7960, 685.3082
289.2781, 685.5912
289.7603, 690.9219
290.2424, 699.7039
290.7245, 705.0784
291.2066, 706.7292
291.6887, 705.6890
292.1708, 699.1239
292.6530, 690.9892
293.1351, 686.3851
293.6172, 687.0736
294.0993, 690.8846
294.5814, 694.2442
295.0635, 698.8337
295.5457, 699.3417
296.0278, 691.9211
296.5099, 683.5128
296.9920, 678.3747
297.4741, 677.2891
297.9562, 679.6519
298.4384, 685.8747
298.9205, 697.5495
299.4026, 701.7640
299.8847, 689.5131
300.3668, 679.0230
300.8489, 677.4854
301.3311, 682.6376
301.8131, 689.0387
302.2953, 693.4981
302.7774, 695.9026
303.2595, 695.2220
303.7416, 686.9298
304.2237, 682.3948
304.7058, 688.0879
305.1880, 696.5217
305.6701, 698.7411
306.1522, 691.2582
306.6343, 680.1406
307.1164, 675.4954
307.5985, 678.9206
308.0807, 682.9508
308.5628, 687.2016
309.0449, 691.0432
309.5270, 694.6849
310.0091, 697.9064
310.4912, 698.9933
310.9734, 693.9144
311.4555, 683.7079
311.9376, 681.0056
312.4197, 692.3325
312.9018, 703.1072
313.3839, 702.5475
313.8661, 694.2902
314.3482, 687.8041
314.8303, 689.1521
315.3124, 694.0839
315.7945, 694.1778
316.2766, 688.3043
316.7588, 684.3666
317.2409, 689.6437
317.7230, 698.5529
318.2051, 701.3903
318.6872, 694.1155
319.1693, 685.7257
319.6515, 683.2097
320.1336, 685.4434
320.6157, 687.4623
321.0978, 687.7885
321.5799, 686.8737
322.0620, 684.7888
322.5442, 681.0034
323.0263, 679.1687
323.5084, 681.7958
323.9905, 686.3159
324.4726, 688.9249
324.9547, 689.0104
325.4369, 689.7332
325.9190, 694.9842
326.4011, 705.3932
326.8832, 710.4598
327.3653, 706.7899
327.8474, 701.1576
328.3296, 695.7682
328.8117, 691.4120
329.2938, 689.8438
329.7759, 692.4072
330.2580, 697.9730
330.7401, 701.3380
331.2223, 701.2123
331.7044, 700.4738
332.1865, 698.3001
332.6686, 696.1615
333.1507, 695.9839
333.6328, 698.2347
334.1150, 701.3134
334.5971, 702.8514
335.0792, 702.3626
335.5613, 701.5626
336.0434, 697.8292
336.5255, 696.0936
337.0077, 701.3568
337.4898, 711.4281
337.9719, 719.1981
338.4540, 718.3940
338.9361, 710.1257
339.4182, 704.2942
339.9004, 701.3539
340.3825, 700.5074
340.8646, 702.7279
341.3467, 706.1791
341.8288, 708.4825
342.3109, 708.6481
342.7931, 707.8917
343.2752, 708.0108
343.7573, 709.1303
344.2394, 710.2395
344.7215, 710.9825
345.2036, 711.7382
345.6858, 713.6721
346.1679, 716.7006
346.6500, 717.4965
347.1321, 711.5948
347.6142, 701.8939
348.0963, 696.6841
348.5785, 697.5187
349.0606, 700.5485
349.5427, 703.8461
350.0248, 707.0663
350.5069, 709.0018
350.9890, 709.7369
351.4712, 708.8791
351.9533, 704.2391
352.4354, 696.9401
352.9175, 693.1671
353.3996, 696.6168
353.8817, 704.4808
354.3639, 709.5458
354.8460, 711.5844
355.3281, 712.1209
355.8102, 710.0135
356.2923, 707.2327
356.7744, 706.6958
357.2566, 708.8591
357.7387, 710.9041
358.2208, 709.1862
358.7029, 702.2117
359.1850, 700.1142
359.6671, 707.0774
360.1493, 713.9994
360.6314, 717.7971
361.1135, 718.3168
361.5956, 715.0845
362.0777, 707.2303
362.5598, 697.4016
363.0420, 695.8569
363.5241, 711.0198
364.0062, 720.9636
364.4883, 718.4558
364.9704, 713.1592
365.4525, 714.7350
365.9347, 724.5543
366.4168, 734.2416
366.8989, 732.3436
367.3810, 717.7886
367.8631, 709.5776
368.3452, 712.2315
368.8274, 717.0464
369.3095, 720.3870
369.7916, 722.2944
370.2737, 722.9911
370.7558, 721.9303
371.2379, 720.2566
371.7201, 720.4642
372.2022, 722.8994
372.6843, 723.6412
373.1664, 718.6434
373.6485, 712.5560
374.1306, 712.7662
374.6128, 721.1735
375.0949, 729.8118
375.5770, 735.2271
376.0591, 737.8130
376.5412, 737.6118
377.0233, 734.3245
377.5055, 730.6160
377.9876, 729.2296
378.4697, 730.4654
378.9518, 731.5750
379.4339, 733.3317
379.9160, 734.2321
380.3982, 731.6392
380.8803, 727.2758
381.3624, 726.4955
381.8445, 732.6573
382.3266, 742.7287
382.8087, 747.5690
383.2909, 743.1228
383.7730, 738.2476
384.2551, 729.1434
384.7372, 722.2787
385.2193, 725.2615
385.7014, 737.8581
386.1836, 751.2891
386.6657, 755.7301
387.1478, 750.5357
387.6299, 748.4972
388.1120, 752.0658
388.5941, 756.1454
389.0763, 759.0168
389.5584, 761.2949
390.0405, 764.1748
390.5226, 768.4279
391.0047, 772.8141
391.4868, 774.7435
391.9690, 773.7533
392.4511, 774.7761
392.9332, 780.4994
393.4153, 787.5322
393.8974, 793.3458
394.3795, 797.8685
394.8617, 799.7886
395.3438, 794.3850
395.8259, 787.3540
396.3080, 789.5144
396.7901, 802.2165
397.2722, 816.5932
397.7544, 827.3254
398.2365, 834.4630
398.7186, 839.8295
399.2007, 841.8687
399.6828, 843.8724
400.1649, 847.5286
400.6471, 851.8812
401.1292, 854.9518
401.6113, 856.0961
402.0934, 857.1193
402.5755, 860.7714
403.0576, 867.9171
403.5398, 875.1992
404.0219, 883.7544
404.5040, 891.4535
404.9861, 897.9902
405.4682, 902.7903
405.9503, 904.1076
406.4325, 900.1893
406.9146, 893.4655
407.3967, 892.9347
407.8788, 901.4550
408.3609, 910.4384
408.8430, 917.4968
409.3252, 924.8315
409.8073, 935.1257
410.2894, 948.4870
410.7715, 960.9433
411.2536, 968.7217
411.7357, 972.5469
412.2179, 975.2857
412.7000, 975.9581
413.1821, 978.3111
413.6642, 985.4863
414.1463, 996.1874
414.6284, 1008.299
415.1106, 1023.023
415.5927, 1037.196
416.0748, 1047.865
416.5569, 1056.033
417.0390, 1064.074
417.5211, 1072.217
418.0033, 1082.637
418.4854, 1099.326
418.9675, 1124.984
419.4496, 1147.715
419.9317, 1162.384
420.4138, 1177.763
420.8960, 1199.303
421.3781, 1226.918
421.8602, 1258.572
422.3423, 1293.311
422.8244, 1330.772
423.3065, 1368.892
423.7887, 1403.733
424.2708, 1446.117
424.7529, 1496.545
425.2350, 1554.554
425.7171, 1621.311
426.1992, 1696.290
426.6814, 1774.363
427.1635, 1850.206
427.6456, 1924.800
428.1277, 2001.245
428.6098, 2074.413
429.0919, 2159.460
429.5741, 2269.486
430.0562, 2395.030
430.5383, 2521.126
431.0204, 2639.293
431.5025, 2768.231
431.9846, 2912.408
432.4668, 3078.326
432.9489, 3293.526
433.4310, 3570.014
433.9131, 3880.411
434.3952, 4191.304
434.8773, 4498.631
435.3595, 4845.197
435.8416, 5264.974
436.3237, 5694.918
436.8058, 6125.282
437.2879, 6535.062
437.7701, 6894.788
438.2522, 7191.638
438.7343, 7410.945
439.2164, 7509.512
439.6985, 7428.218
440.1806, 7324.466
440.6628, 7159.694
441.1449, 7010.333
441.6270, 6911.682
442.1091, 6872.481
442.5912, 6894.242
443.0733, 6972.674
443.5555, 7115.453
444.0376, 7354.804
444.5197, 7699.685
445.0018, 8116.993
445.4839, 8629.285
445.9660, 9196.761
446.4482, 9794.227
446.9303, 10420.20
447.4124, 11044.49
447.8945, 11709.36
448.3766, 12347.90
448.8587, 12836.64
449.3409, 13164.97
449.8230, 13296.35
450.3051, 13210.48
450.7872, 12891.84
451.2693, 12327.54
451.7514, 11378.82
452.2336, 10368.20
452.7157, 9342.619
453.1978, 8341.397
453.6799, 7413.785
454.1620, 6575.770
454.6441, 5830.300
455.1263, 5182.799
455.6084, 4637.549
456.0905, 4170.219
456.5726, 3814.807
457.0547, 3511.881
457.5368, 3256.538
458.0190, 3040.306
458.5011, 2853.679
458.9832, 2693.306
459.4653, 2557.007
459.9474, 2444.285
460.4295, 2355.807
460.9117, 2274.626
461.3938, 2200.255
461.8759, 2128.879
462.3580, 2053.458
462.8401, 1976.126
463.3222, 1909.020
463.8044, 1861.259
464.2865, 1820.140
464.7686, 1775.781
465.2507, 1728.587
465.7328, 1680.485
466.2149, 1631.834
466.6971, 1584.503
467.1792, 1542.772
467.6613, 1507.306
468.1434, 1476.794
468.6255, 1459.970
469.1076, 1440.426
469.5898, 1402.861
470.0719, 1353.248
470.5540, 1310.738
471.0361, 1287.979
471.5182, 1278.295
472.0003, 1260.868
472.4825, 1231.330
472.9646, 1206.287
473.4467, 1194.036
473.9288, 1184.152
474.4109, 1168.878
474.8930, 1148.599
475.3752, 1130.924
475.8573, 1122.530
476.3394, 1118.611
476.8215, 1111.185
477.3036, 1100.063
477.7857, 1086.647
478.2679, 1069.945
478.7500, 1052.802
479.2321, 1042.866
479.7142, 1043.600
480.1963, 1041.829
480.6784, 1033.624
481.1606, 1022.812
481.6427, 1011.730
482.1248, 1001.224
482.6069, 992.7906
483.0890, 987.7228
483.5711, 985.3771
484.0533, 982.5283
484.5354, 983.3067
485.0175, 976.2545
485.4996, 952.1489
485.9817, 925.9376
486.4638, 909.2910
486.9460, 903.4073
487.4281, 902.6588
487.9102, 905.9601
488.3923, 910.8609
488.8744, 909.9150
489.3565, 902.8018
489.8387, 890.7689
490.3208, 869.3250
490.8029, 846.1179
491.2850, 837.5106
491.7671, 849.2667
492.2492, 858.6145
492.7314, 853.1425
493.2135, 843.8994
493.6956, 847.0902
494.1777, 861.9792
494.6598, 870.8265
495.1419, 858.7338
495.6241, 829.9253
496.1062, 811.5737
496.5883, 810.9503
497.0704, 811.3078
497.5525, 811.4952
498.0346, 811.5791
498.5168, 811.7900
498.9989, 812.0747
499.4810, 812.0365
499.9631, 811.8308
500.4452, 811.0225
500.9273, 807.0732
501.4095, 798.7290
501.8916, 792.6518
502.3737, 793.2488
502.8558, 796.9573
503.3379, 797.5901
503.8200, 793.8906
504.3022, 792.0125
504.7843, 798.8325
505.2664, 806.0644
505.7485, 801.5771
506.2306, 786.1723
506.7127, 772.3763
507.1949, 768.9755
507.6770, 773.1628
508.1591, 772.5052
508.6412, 758.8798
509.1233, 752.4741
509.6054, 760.7622
510.0876, 771.3456
510.5697, 775.3024
511.0518, 772.4506
511.5339, 767.6881
512.0161, 764.1305
512.4982, 761.4471
512.9803, 758.6990
513.4624, 755.8537
513.9445, 753.2914
514.4266, 751.5023
514.9088, 749.7468
515.3909, 745.4485
515.8730, 737.8740
516.3551, 736.6611
516.8372, 752.1745
517.3193, 769.8103
517.8015, 775.7422
518.2836, 771.0790
518.7657, 763.6904
519.2478, 757.5324
519.7299, 752.1398
520.2120, 746.2648
520.6942, 738.2693
521.1763, 732.9919
521.6584, 729.7072
522.1405, 729.4298
522.6226, 735.7906
523.1047, 745.5964
523.5869, 750.9556
524.0690, 746.8460
524.5511, 738.2910
525.0332, 733.2410
525.5153, 731.6764
525.9974, 730.5604
526.4796, 729.5918
526.9617, 728.1576
527.4438, 723.0864
527.9259, 715.2850
528.4080, 715.6837
528.8901, 736.3530
529.3723, 755.2261
529.8544, 757.4189
530.3365, 748.7554
530.8186, 740.5635
531.3007, 736.7505
531.7828, 734.7469
532.2650, 730.5256
532.7471, 722.9492
533.2292, 720.2361
533.7113, 726.9973
534.1934, 733.4927
534.6755, 738.1327
535.1577, 740.2350
535.6398, 738.1481
536.1219, 730.9514
536.6040, 723.7673
537.0861, 722.7789
537.5682, 725.6948
538.0504, 723.7634
538.5325, 715.0773
539.0146, 708.5731
539.4967, 711.2488
539.9788, 721.3682
540.4609, 729.9688
540.9431, 739.3292
541.4252, 744.4077
541.9073, 740.8026
542.3894, 734.6553
542.8715, 731.6855
543.3536, 732.4185
543.8358, 734.3503
544.3179, 735.7166
544.8000, 736.4425
545.2821, 736.0965
545.7642, 734.3574
546.2463, 732.3948
546.7285, 728.7234
547.2106, 726.3457
547.6927, 728.9222
548.1748, 735.9479
548.6569, 741.0903
549.1390, 740.9926
549.6211, 738.0297
550.1032, 733.3445
550.5853, 727.7420
551.0674, 724.5067
551.5496, 725.0534
552.0317, 727.9582
552.5138, 731.2990
552.9959, 736.2938
553.4780, 737.4598
553.9601, 731.1931
554.4423, 725.5275
554.9244, 722.8672
555.4065, 723.1859
555.8886, 727.3879
556.3707, 735.9942
556.8528, 743.4734
557.3350, 740.9445
557.8171, 730.0732
558.2992, 724.6810
558.7813, 726.7424
559.2634, 732.3049
559.7455, 742.1456
560.2277, 752.9920
560.7098, 754.7641
561.1919, 741.1257
561.6740, 729.4182
562.1561, 723.8928
562.6382, 723.6796
563.1204, 731.3812
563.6025, 744.6921
564.0846, 753.4304
564.5667, 749.3475
565.0488, 736.4838
565.5309, 731.0742
566.0131, 736.0964
566.4952, 741.0446
566.9773, 743.4738
567.4594, 745.8677
567.9415, 750.4495
568.4236, 756.6161
568.9058, 761.4227
569.3879, 765.1481
569.8700, 765.6262
570.3521, 756.6596
570.8342, 742.1224
571.3163, 736.3533
571.7985, 744.2656
572.2806, 756.7614
572.7627, 762.9089
573.2448, 761.9093
573.7269, 762.2658
574.2090, 766.5383
574.6912, 769.0487
575.1733, 765.9796
575.6554, 761.6697
576.1375, 761.5695
576.6196, 766.6090
577.1017, 772.3010
577.5839, 773.9959
578.0660, 773.0956
578.5481, 774.6100
579.0302, 778.8849
579.5123, 783.0948
579.9944, 785.9389
580.4766, 787.9750
580.9587, 790.0945
581.4408, 792.1145
581.9229, 794.8863
582.4050, 798.5511
582.8871, 802.9568
583.3693, 809.1500
583.8514, 815.8430
584.3335, 820.0516
584.8156, 820.3477
585.2977, 819.4693
585.7798, 820.9069
586.2620, 824.4251
586.7441, 833.7200
587.2262, 852.4814
587.7083, 871.4117
588.1904, 885.4260
588.6725, 896.1152
589.1547, 905.1215
589.6368, 910.8003
590.1189, 919.8986
590.6010, 937.9991
591.0831, 960.1180
591.5652, 977.4714
592.0474, 991.1016
592.5295, 1012.264
593.0116, 1049.400
593.4937, 1096.266
593.9758, 1133.384
594.4579, 1154.600
594.9401, 1180.286
595.4222, 1210.417
595.9043, 1246.947
596.3864, 1292.206
596.8685, 1344.671
597.3506, 1400.369
597.8328, 1457.139
598.3149, 1517.603
598.7970, 1582.942
599.2791, 1654.149
599.7612, 1736.837
600.2433, 1832.462
600.7255, 1927.095
601.2076, 2007.354
601.6897, 2076.316
602.1718, 2159.252
602.6539, 2271.737
603.1360, 2377.192
603.6182, 2487.320
604.1003, 2578.240
604.5824, 2634.235
605.0645, 2654.340
605.5466, 2643.195
606.0287, 2600.161
606.5109, 2531.983
606.9930, 2442.793
607.4751, 2334.611
607.9572, 2224.658
608.4393, 2116.130
608.9214, 2008.182
609.4036, 1896.643
609.8857, 1781.431
610.3678, 1689.117
610.8499, 1630.873
611.3320, 1579.331
611.8141, 1526.661
612.2963, 1478.526
612.7784, 1441.929
613.2605, 1417.005
613.7426, 1398.677
614.2247, 1382.840
614.7068, 1371.116
615.1890, 1368.358
615.6711, 1374.826
616.1532, 1385.877
616.6353, 1404.147
617.1174, 1419.428
617.5995, 1419.834
618.0817, 1404.974
618.5638, 1385.029
619.0459, 1365.488
619.5280, 1335.098
620.0101, 1283.327
620.4922, 1221.267
620.9744, 1160.419
621.4565, 1104.180
621.9386, 1052.533
622.4207, 1004.281
622.9028, 961.0581
623.3849, 932.2086
623.8671, 920.2764
624.3492, 907.5670
624.8313, 886.6545
625.3134, 865.1259
625.7955, 852.7424
626.2776, 848.8960
626.7598, 846.4801
627.2419, 842.6636
627.7240, 842.1039
628.2061, 849.7594
628.6882, 861.1311
629.1703, 869.8506
629.6525, 874.3765
630.1346, 876.8215
630.6167, 878.7136
631.0988, 880.3737
631.5809, 883.6789
632.0630, 888.8795
632.5452, 894.6199
633.0273, 898.9310
633.5094, 905.2383
633.9915, 918.2677
634.4736, 937.6009
634.9557, 956.3475
635.4379, 974.6043
635.9200, 990.2440
636.4021, 997.9397
636.8842, 1003.740
637.3663, 1016.609
637.8484, 1038.768
638.3306, 1067.815
638.8127, 1103.407
639.2948, 1143.399
639.7769, 1173.853
640.2590, 1194.139
640.7411, 1207.547
641.2233, 1215.947
641.7054, 1216.499
642.1875, 1206.330
642.6696, 1185.859
643.1517, 1158.961
643.6339, 1123.775
644.1160, 1085.189
644.5981, 1044.026
645.0802, 1001.888
645.5623, 959.4384
646.0444, 917.8287
646.5266, 882.0391
647.0087, 857.2690
647.4908, 842.0649
647.9729, 831.1729
648.4550, 826.9048
648.9371, 817.2376
649.4193, 792.8516
649.9014, 768.8959
650.3835, 762.6320
650.8656, 771.2549
651.3477, 774.8250
651.8298, 765.1572
652.3120, 755.2698
652.7941, 751.7662
653.2762, 751.4106
653.7583, 750.4270
654.2404, 747.8723
654.7225, 743.8809
655.2047, 738.3879
655.6868, 731.7807
656.1689, 725.1004
656.6510, 718.0953
657.1331, 712.1675
657.6152, 705.6934
658.0974, 703.1698
658.5795, 712.6515
659.0616, 730.7108
659.5437, 741.5856
660.0258, 738.3470
660.5079, 734.6449
660.9901, 736.2794
661.4722, 738.9841
661.9543, 738.0568
662.4364, 733.4538
662.9185, 727.5256
663.4006, 721.1796
663.8828, 716.3619
664.3649, 718.9435
664.8470, 729.2743
665.3291, 735.1738
665.8112, 733.7275
666.2933, 730.0936
666.7755, 727.6739
667.2576, 726.1943
667.7397, 724.4804
668.2218, 724.7345
668.7039, 721.2346
669.1860, 706.3011
669.6682, 692.6154
670.1503, 692.3613
670.6324, 702.1351
671.1145, 710.1120
671.5966, 710.2662
672.0787, 707.7618
672.5609, 711.5135
673.0430, 719.9666
673.5251, 720.6199
674.0072, 710.8978
674.4893, 701.7043
674.9714, 699.9026
675.4536, 702.6846
675.9357, 702.6937
676.4178, 697.6916
676.8999, 694.8279
677.3820, 695.4255
677.8641, 697.0349
678.3463, 699.3210
678.8284, 701.4237
679.3105, 701.8719
679.7926, 700.2012
680.2747, 698.3186
680.7568, 698.8242
681.2390, 700.2570
681.7211, 698.3871
682.2032, 693.2870
682.6853, 689.1303
683.1674, 687.5743
683.6495, 688.3467
684.1317, 691.4587
684.6138, 697.8065
685.0959, 701.6838
685.5780, 704.3411
686.0601, 702.9708
686.5422, 691.8491
687.0244, 679.4162
687.5065, 674.8982
687.9886, 679.0675
688.4707, 685.1436
688.9528, 690.7789
689.4349, 695.2187
689.9171, 697.7031
690.3992, 698.2741
690.8813, 696.4355
691.3634, 692.1352
691.8455, 687.8162
692.3276, 685.9476
692.8098, 686.3076
693.2919, 687.0583
693.7740, 688.4217
694.2561, 689.6873
694.7382, 690.6847
695.2203, 691.5830
695.7025, 692.4777
696.1846, 693.3738
696.6667, 694.3267
697.1488, 696.0817
697.6309, 696.7987
698.1130, 693.9673
698.5952, 690.4102
699.0773, 690.6230
699.5594, 694.0502
700.0415, 695.7571
700.5236, 692.4428
701.0057, 687.0640
701.4879, 685.6658
701.9700, 688.3734
702.4521, 692.7957
702.9342, 700.0676
703.4163, 705.6332
703.8984, 706.8637
704.3806, 704.4788
704.8627, 699.7813
705.3448, 691.0448
705.8269, 685.0760
706.3090, 684.4305
706.7911, 685.1442
707.2733, 685.8566
707.7554, 685.9372
708.2375, 683.5537
708.7196, 678.4503
709.2017, 675.5703
709.6838, 682.4940
710.1660, 694.4946
710.6481, 699.0659
711.1302, 696.3950
711.6123, 692.1359
712.0944, 687.7587
712.5765, 684.9261
713.0587, 686.4577
713.5408, 692.7739
714.0229, 694.3616
714.5050, 684.5340
714.9871, 679.1561
715.4692, 684.7735
715.9514, 692.4831
716.4335, 695.2072
716.9156, 693.1865
717.3977, 690.5046
717.8798, 688.3486
718.3619, 686.7243
718.8441, 686.1299
719.3262, 685.8752
719.8083, 684.2738
720.2904, 681.4664
720.7725, 679.4676
721.2546, 679.5215
721.7368, 681.7609
722.2189, 687.5422
722.7010, 697.9518
723.1831, 704.5200
723.6652, 706.8291
724.1473, 704.6183
724.6295, 693.0848
725.1116, 678.7512
725.5937, 675.7769
726.0758, 688.5039
726.5579, 697.5786
727.0400, 697.3466
727.5222, 694.7321
728.0043, 693.8774
728.4864, 693.4532
728.9685, 689.7722
729.4506, 682.3557
729.9327, 676.6372
730.4149, 679.2061
730.8970, 686.3091
731.3791, 689.9557
731.8612, 690.2514
732.3433, 687.1381
732.8254, 679.8784
733.3076, 674.0896
733.7897, 676.3533
734.2718, 685.7643
734.7539, 690.3314
735.2360, 687.1429
735.7181, 683.9437
736.2003, 682.7932
736.6824, 680.7985
737.1645, 673.3029
737.6466, 663.6159
738.1287, 661.4286
738.6108, 672.8208
739.0930, 683.4029
739.5751, 684.9583
740.0572, 681.4765
740.5393, 674.6904
741.0214, 667.0729
741.5035, 665.1871
741.9857, 672.1716
742.4678, 682.0078
742.9499, 685.7869
743.4320, 684.0168
743.9141, 684.1403
744.3962, 686.5956
744.8784, 689.0232
745.3605, 690.6774
745.8426, 691.6492
746.3247, 691.9172
746.8068, 691.3677
747.2889, 691.1896
747.7711, 693.1160
748.2532, 693.1584
748.7353, 687.7537
749.2174, 682.0247
749.6995, 681.1550
750.1816, 684.5284
750.6638, 687.6953
751.1459, 688.9295
751.6280, 688.5126
752.1101, 685.6183
752.5922, 681.6383
753.0743, 679.2545
753.5565, 678.6689
754.0386, 678.6320
754.5207, 678.4044
755.0028, 678.3738
755.4849, 679.2775
755.9670, 681.1426
756.4492, 684.1833
756.9313, 689.8506
757.4134, 692.8370
757.8955, 688.5563
758.3776, 682.0479
758.8597, 682.8577
759.3419, 692.3794
759.8240, 694.0190
760.3061, 677.6113
760.7882, 663.6802
761.2703, 659.9683
761.7524, 662.5652
762.2346, 668.8812
762.7167, 677.3234
763.1988, 684.6141
763.6809, 689.0065
764.1630, 691.2411
764.6451, 691.8577
765.1273, 691.0488
765.6094, 688.2172
766.0915, 683.7744
766.5736, 682.4755
767.0557, 687.8798
767.5378, 695.3344
768.0200, 693.3885
768.5021, 679.5228
768.9842, 672.1073
769.4663, 674.7365
769.9484, 676.6317
770.4305, 671.4352
770.9127, 664.1382
771.3948, 662.6318
771.8769, 667.4798
772.3590, 670.1834
772.8411, 665.4916
773.3232, 663.6426
773.8054, 672.0577
774.2875, 682.9986
774.7696, 688.3195
775.2517, 687.6271
775.7338, 685.0731
776.2159, 682.4617
776.6981, 679.9190
777.1802, 676.6372
777.6623, 673.7607
778.1444, 675.3967
778.6265, 681.1533
779.1086, 684.1110
779.5908, 680.1358
780.0729, 672.9991
780.5550, 669.9019
781.0371, 671.3917
781.5192, 670.9007
782.0013, 666.2378
782.4835, 665.7510
782.9656, 675.7638
783.4477, 688.4952
783.9298, 693.5869
784.4119, 690.8892
784.8940, 688.7206
785.3762, 687.3954
785.8583, 686.6683
786.3404, 686.8329
786.8225, 687.2862
787.3046, 688.0997
787.7867, 688.7421
788.2689, 687.7388
788.7510, 684.1003
789.2331, 679.8846
789.7152, 675.3372
790.1973, 672.0743
790.6794, 674.0161
791.1616, 679.9973
791.6437, 683.7078
792.1258, 682.4497
792.6079, 681.1033
793.0900, 687.7155
793.5721, 700.8987
794.0543, 706.8936
794.5364, 705.3821
795.0185, 697.5328
795.5006, 680.1483
795.9827, 664.1268
796.4648, 661.3743
796.9470, 670.4092
797.4291, 675.3565
797.9112, 671.2426
798.3933, 670.1396
798.8754, 675.0995
799.3575, 680.6916
799.8397, 685.1163
800.3218, 687.5447
800.8039, 685.9444
801.2860, 679.0076
801.7681, 674.1190
802.2502, 677.3599
802.7324, 682.1727
803.2145, 682.2380
803.6966, 679.4906
804.1787, 678.7698
804.6608, 680.8594
805.1429, 681.4705
805.6251, 676.0120
806.1072, 668.0259
806.5893, 665.2500
807.0714, 667.1563
807.5535, 670.2588
808.0356, 674.0757
808.5178, 677.5944
808.9999, 680.4677
809.4820, 681.9431
809.9641, 679.5848
810.4462, 671.4975
810.9283, 666.6304
811.4105, 667.0071
811.8926, 667.2598
812.3747, 663.8784
812.8568, 660.3193
813.3389, 661.6479
813.8210, 667.8431
814.3032, 670.8350
814.7853, 665.5309
815.2674, 661.8328
815.7495, 664.8835
816.2316, 669.6172
816.7137, 671.6047
817.1959, 670.9818
817.6780, 669.7435
818.1601, 668.5367
818.6422, 667.7997
819.1243, 667.7448
819.6064, 668.4814
820.0886, 670.2934
820.5707, 673.0620
821.0528, 676.8108
821.5349, 681.4694
822.0170, 685.1143
822.4991, 685.3158
822.9813, 682.9399
823.4634, 681.1116
823.9455, 679.7086
824.4276, 682.2903
824.9097, 691.1900
825.3918, 697.6536
825.8740, 694.3816
826.3561, 684.1459
826.8382, 676.0126
827.3203, 668.7615
827.8024, 666.4799
828.2845, 671.9761
828.7667, 679.0806
829.2488, 690.5363
829.7309, 699.4822
830.2130, 694.5996
830.6951, 675.5017
831.1772, 663.0736
831.6594, 668.4217
832.1415, 673.9128
832.6236, 668.9488
833.1057, 662.5841
833.5878, 665.0933
834.0699, 675.0245
834.5521, 684.5929
835.0342, 690.5873
835.5163, 693.9777
835.9984, 696.1377
836.4805, 696.0390
836.9626, 689.0225
837.4448, 677.9342
837.9269, 674.2608
838.4090, 681.5151
838.8911, 690.6969
839.3732, 691.7714
839.8553, 687.6567
840.3375, 690.4941
840.8196, 700.5057
841.3017, 705.5174
841.7838, 702.8052
842.2659, 697.3881
842.7480, 691.5741
843.2302, 686.7962
843.7123, 687.0485
844.1944, 694.5417
844.6765, 699.7661
845.1586, 703.1058
845.6407, 703.5947
846.1229, 695.1910
846.6050, 687.7637
847.0871, 694.4559
847.5692, 713.6774
848.0513, 724.3442
848.5334, 716.5431
849.0156, 709.4684
849.4977, 710.2003
849.9798, 711.8942
850.4619, 707.7909
850.9440, 700.6857
851.4261, 697.7767
851.9083, 701.4668
852.3904, 705.9882
852.8725, 706.0453
853.3546, 706.3339
853.8367, 714.1816
854.3188, 725.4369
854.8010, 731.2196
855.2831, 730.1434
855.7652, 726.9249
856.2473, 724.8021
856.7294, 723.1119
857.2115, 720.2538
857.6937, 716.7487
858.1758, 714.2804
858.6579, 713.1342
859.1400, 716.1234
859.6221, 724.9587
860.1042, 735.7747
860.5864, 743.4026
861.0685, 747.8307
861.5506, 749.8350
862.0327, 749.1782
862.5148, 746.5717
862.9969, 740.3202
863.4791, 735.7557
863.9612, 737.8621
864.4433, 744.7529
864.9254, 749.4103
865.4075, 748.9077
865.8896, 752.3483
866.3718, 765.7926
866.8539, 775.8102
867.3360, 775.8228
867.8181, 771.2051
868.3002, 767.6339
868.7823, 765.4854
869.2645, 763.0297
869.7466, 755.3138
870.2287, 753.0834
870.7108, 769.3747
871.1929, 785.4912
871.6750, 780.4501
872.1572, 762.1288
872.6393, 752.0078
873.1214, 757.4811
873.6035, 764.9577
874.0856, 763.0742
874.5677, 759.3378
875.0499, 763.8931
875.5320, 772.6953
876.0141, 776.1054
876.4962, 773.1450
876.9783, 771.1483
877.4604, 775.6517
877.9426, 781.3046
878.4247, 776.6932
878.9068, 765.8668
879.3889, 766.6195
879.8710, 778.8187
880.3531, 784.8665
880.8353, 777.2488
881.3174, 767.3948
881.7995, 769.4702
882.2816, 781.1384
882.7637, 787.8494
883.2458, 789.3134
883.7280, 786.8195
884.2101, 778.5947
884.6922, 773.1744
885.1743, 777.0768
885.6564, 786.2397
886.1385, 791.6182
886.6207, 791.7822
887.1028, 794.9349
887.5849, 807.4446
888.0670, 812.4241
888.5491, 794.9540
889.0313, 777.4818
889.5134, 783.8334
889.9955, 807.7467
890.4776, 820.2105
890.9597, 811.8466
891.4418, 805.4554
891.9240, 805.7109
892.4061, 806.9174
892.8882, 805.5152
893.3703, 803.5095
893.8524, 804.0429
894.3345, 807.3752
894.8167, 810.8292
895.2988, 813.5987
895.7809, 815.8892
896.2630, 817.2209
896.7451, 818.5921
897.2272, 822.3716
897.7094, 826.9044
898.1915, 827.2848
898.6736, 821.7264
899.1557, 816.1551
899.6378, 816.2153
900.1199, 818.1687
900.6021, 816.1285
901.0842, 812.7620
901.5663, 815.1036
902.0484, 823.1937
902.5305, 829.7350
903.0126, 829.8619
903.4948, 828.1454
903.9769, 832.4177
904.4590, 840.1298
904.9411, 843.0067
905.4232, 841.1343
905.9053, 837.4495
906.3875, 832.9581
906.8696, 830.1940
907.3517, 832.2802
907.8338, 836.8257
908.3159, 834.0078
908.7980, 823.7120
909.2802, 823.8046
909.7623, 837.7031
910.2444, 849.7283
910.7265, 851.6667
911.2086, 849.8901
911.6907, 854.0912
912.1729, 864.1293
912.6550, 868.7122
913.1371, 866.3412
913.6192, 862.9620
914.1013, 857.9428
914.5834, 855.3205
915.0656, 859.0817
915.5477, 866.2070
916.0298, 869.2855
916.5119, 865.9641
916.9940, 867.6639
917.4761, 884.6002
917.9583, 892.0591
918.4404, 871.3087
918.9225, 850.2203
919.4046, 853.9634
919.8867, 876.0663
920.3688, 891.9161
920.8510, 899.3525
921.3331, 901.3241
921.8152, 890.9075
922.2973, 883.5901
922.7794, 889.2397
923.2615, 900.0773
923.7437, 907.8464
924.2258, 911.6670
924.7079, 912.8160
925.1900, 908.9725
925.6721, 907.0191
926.1542, 911.6669
926.6364, 917.5101
927.1185, 920.9595
927.6006, 922.1632
928.0827, 921.6063
928.5648, 919.5732
929.0469, 917.5379
929.5291, 914.1116
930.0112, 913.5364
930.4933, 920.1567
930.9754, 930.6704
931.4575, 943.6848
931.9396, 956.5151
932.4218, 962.4080
932.9039, 959.1298
933.3860, 955.7786
933.8681, 961.2917
934.3502, 970.2332
934.8323, 976.3094
935.3145, 980.1651
935.7966, 981.8588
936.2787, 982.4528
936.7608, 985.9084
937.2429, 994.4063
937.7250, 1005.002
938.2072, 1014.199
938.6893, 1022.832
939.1714, 1034.112
939.6535, 1046.722
940.1356, 1054.178
940.6177, 1055.697
941.0999, 1058.419
941.5820, 1067.494
942.0641, 1080.070
942.5462, 1090.965
943.0283, 1100.752
943.5104, 1112.458
943.9926, 1126.100
944.4747, 1140.157
944.9568, 1154.078
945.4389, 1171.656
945.9210, 1196.931
946.4031, 1226.658
946.8853, 1252.143
947.3674, 1273.433
947.8495, 1292.404
948.3316, 1308.892
948.8137, 1326.389
949.2958, 1346.192
949.7780, 1367.371
950.2601, 1388.181
950.7422, 1409.778
951.2243, 1440.103
951.7064, 1481.590
952.1885, 1514.125
952.6707, 1532.015
953.1528, 1554.109
953.6349, 1588.293
954.1170, 1632.982
954.5991, 1687.989
955.0812, 1752.527
955.5634, 1815.439
956.0455, 1875.429
956.5276, 1935.857
957.0097, 1991.440
957.4918, 2061.029
957.9739, 2158.626
958.4561, 2272.241
958.9382, 2382.038
959.4203, 2487.579
959.9024, 2600.604
960.3845, 2715.838
960.8666, 2848.718
961.3488, 2996.399
961.8309, 3169.058
962.3130, 3373.721
962.7951, 3606.037
963.2772, 3855.438
963.7593, 4114.788
964.2415, 4429.495
964.7236, 4806.860
965.2057, 5229.259
965.6878, 5700.050
966.1699, 6211.305
966.6520, 6744.045
967.1342, 7319.753
967.6163, 7987.685
968.0984, 8761.283
968.5805, 9576.154
969.0626, 10394.20
969.5447, 11305.22
970.0269, 12350.40
970.5090, 13480.09
970.9911, 14632.54
971.4732, 15844.10
971.9553, 17203.43
972.4374, 18737.44
972.9196, 20356.45
973.4017, 22075.00
973.8838, 23862.28
974.3659, 25821.59
974.8480, 27744.66
975.3301, 29523.67
975.8123, 31105.14
976.2944, 32356.00
976.7765, 33316.85
977.2586, 33740.76
977.7407, 33548.18
978.2228, 32832.22
978.7050, 31497.72
979.1871, 29763.61
979.6692, 27731.98
980.1513, 25493.82
980.6334, 23235.72
981.1155, 20956.77
981.5977, 18808.58
982.0798, 16780.24
982.5619, 14961.74
983.0440, 13406.25
983.5261, 12056.87
984.0082, 10874.92
984.4904, 9841.947
984.9725, 8934.310
985.4546, 8157.441
985.9367, 7468.190
986.4188, 6857.133
986.9009, 6317.074
987.3831, 5857.788
987.8652, 5455.967
988.3473, 5096.237
988.8294, 4774.335
989.3115, 4486.841
989.7936, 4235.236
990.2758, 4011.323
990.7579, 3820.751
991.2400, 3648.463
991.7221, 3486.541
992.2042, 3336.514
992.6863, 3199.040
993.1685, 3074.502
993.6506, 2963.229
994.1327, 2869.283
994.6148, 2778.503
995.0969, 2686.471
995.5790, 2593.428
996.0612, 2488.409
996.5433, 2390.190
997.0254, 2330.755
997.5075, 2302.383
997.9896, 2257.728
998.4717, 2172.003
998.9539, 2094.641
999.4360, 2051.880
999.9181, 2021.271
1000.400, 1995.337
1000.882, 1967.404
1001.364, 1926.623
1001.847, 1876.261
1002.329, 1834.334
1002.811, 1809.273
1003.293, 1785.992
1003.775, 1757.417
1004.257, 1727.975
1004.739, 1699.487
1005.221, 1672.989
1005.703, 1649.633
1006.186, 1629.519
1006.668, 1612.503
1007.150, 1600.016
1007.632, 1586.033
1008.114, 1569.206
1008.596, 1548.477
1009.078, 1517.933
1009.560, 1486.627
1010.043, 1466.236
1010.525, 1455.511
1011.007, 1445.193
1011.489, 1432.936
1011.971, 1418.796
1012.453, 1398.676
1012.935, 1381.265
1013.417, 1376.917
1013.899, 1374.539
1014.382, 1358.870
1014.864, 1333.576
1015.346, 1314.839
1015.828, 1307.764
1016.310, 1304.722
1016.792, 1308.511
1017.274, 1308.822
1017.756, 1296.803
1018.239, 1281.059
1018.721, 1269.703
1019.203, 1262.707
1019.685, 1258.203
1020.167, 1257.470
1020.649, 1250.419
1021.131, 1224.297
1021.613, 1202.831
1022.095, 1200.568
1022.578, 1204.781
1023.060, 1204.064
1023.542, 1199.708
1024.024, 1198.109
1024.506, 1201.248
1024.988, 1201.773
1025.470, 1198.143
1025.952, 1191.111
1026.435, 1177.409
1026.917, 1163.688
1027.399, 1154.875
1027.881, 1150.301
1028.363, 1147.715
1028.845, 1146.750
1029.327, 1148.632
1029.809, 1162.322
1030.292, 1166.772
1030.774, 1146.336
1031.256, 1124.914
1031.738, 1120.950
1032.220, 1126.374
1032.702, 1126.637
1033.184, 1120.586
1033.666, 1110.731
1034.148, 1088.928
1034.630, 1075.681
1035.113, 1080.862
1035.595, 1088.277
1036.077, 1087.807
1036.559, 1084.699
1037.041, 1090.552
1037.523, 1106.179
1038.005, 1104.089
1038.487, 1059.907
1038.970, 1037.446
1039.452, 1057.903
1039.934, 1077.708
1040.416, 1075.933
1040.898, 1065.454
1041.380, 1061.272
1041.862, 1062.761
1042.344, 1063.007
1042.826, 1062.504
1043.309, 1059.537
1043.791, 1052.847
1044.273, 1045.736
1044.755, 1037.953
1045.237, 1032.423
1045.719, 1033.652
1046.201, 1039.249
1046.683, 1037.023
1047.166, 1021.511
1047.648, 1017.709
1048.130, 1030.119
1048.612, 1041.150
1049.094, 1044.565
1049.576, 1047.902
1050.058, 1058.607
1050.540, 1072.422
1051.022, 1076.986
1051.505, 1071.012
1051.987, 1068.861
1052.469, 1071.265
1052.951, 1073.012
1053.433, 1072.858
1053.915, 1072.108
1054.397, 1071.739
1054.879, 1070.870
1055.361, 1066.831
1055.844, 1060.382
1056.326, 1061.861
1056.808, 1071.233
1057.290, 1076.516
1057.772, 1075.627
1058.254, 1075.310
1058.736, 1079.281
1059.218, 1083.324
1059.701, 1081.503
1060.183, 1075.576
1060.665, 1070.422
1061.147, 1066.461
1061.629, 1067.090
1062.111, 1072.026
1062.593, 1076.947
1063.075, 1080.007
1063.557, 1078.672
1064.040, 1069.199
1064.522, 1056.486
1065.004, 1047.469
1065.486, 1043.042
1065.968, 1048.424
1066.450, 1060.507
1066.932, 1067.900
1067.414, 1068.034
1067.896, 1067.380
1068.379, 1070.821
1068.861, 1073.402
1069.343, 1067.410
1069.825, 1058.701
1070.307, 1054.169
1070.789, 1053.870
1071.271, 1060.235
1071.753, 1070.405
1072.236, 1072.052
1072.718, 1058.226
1073.200, 1045.306
1073.682, 1046.522
1074.164, 1052.115
1074.646, 1054.407
1075.128, 1055.922
1075.610, 1061.826
1076.093, 1069.682
1076.575, 1071.348
1077.057, 1064.439
1077.539, 1059.538
1078.021, 1062.256
1078.503, 1066.639
1078.985, 1070.361
1079.467, 1074.340
1079.949, 1081.625
1080.432, 1088.579
1080.914, 1087.450
1081.396, 1078.066
1081.878, 1073.775
1082.360, 1080.526
1082.842, 1087.036
1083.324, 1092.448
1083.806, 1096.271
1084.288, 1098.327
1084.771, 1098.610
1085.253, 1095.661
1085.735, 1090.690
1086.217, 1089.753
1086.699, 1094.799
1087.181, 1098.615
1087.663, 1099.927
1088.145, 1102.755
1088.628, 1109.328
1089.110, 1115.415
1089.592, 1117.678
1090.074, 1117.667
1090.556, 1118.802
1091.038, 1121.153
1091.520, 1123.218
1092.002, 1125.744
1092.484, 1121.605
1092.967, 1108.118
1093.449, 1098.634
1093.931, 1100.362
1094.413, 1106.436
1094.895, 1107.857
1095.377, 1106.709
1095.859, 1110.914
1096.341, 1119.875
1096.823, 1130.384
1097.306, 1141.489
1097.788, 1147.419
1098.270, 1146.538
1098.752, 1143.509
1099.234, 1141.795
1099.716, 1140.914
1100.198, 1140.321
1100.680, 1139.915
1101.163, 1138.594
1101.645, 1137.520
1102.127, 1138.342
1102.609, 1142.323
1103.091, 1154.648
1103.573, 1178.342
1104.055, 1198.304
1104.537, 1198.429
1105.020, 1192.942
1105.502, 1194.888
1105.984, 1198.837
1106.466, 1194.013
1106.948, 1186.660
1107.430, 1195.267
1107.912, 1222.251
1108.394, 1239.822
1108.876, 1229.503
1109.359, 1218.648
1109.841, 1214.092
1110.323, 1215.790
1110.805, 1227.562
1111.287, 1242.979
1111.769, 1256.333
1112.251, 1266.475
1112.733, 1269.591
1113.215, 1258.635
1113.698, 1257.440
1114.180, 1276.038
1114.662, 1289.264
1115.144, 1287.256
1115.626, 1284.776
1116.108, 1293.546
1116.590, 1306.337
1117.072, 1308.521
1117.555, 1300.016
1118.037, 1301.334
1118.519, 1315.269
1119.001, 1321.799
1119.483, 1316.733
1119.965, 1317.209
1120.447, 1331.078
1120.929, 1349.052
1121.411, 1362.207
1121.894, 1370.694
1122.376, 1371.915
1122.858, 1368.375
1123.340, 1374.104
1123.822, 1388.142
1124.304, 1402.954
1124.786, 1416.428
1125.268, 1428.889
1125.750, 1440.648
1126.233, 1448.880
1126.715, 1447.639
1127.197, 1443.180
1127.679, 1441.954
1128.161, 1444.889
1128.643, 1454.517
1129.125, 1469.289
1129.607, 1486.100
1130.090, 1503.666
1130.572, 1518.860
1131.054, 1531.970
1131.536, 1539.145
1132.018, 1528.970
1132.500, 1522.672
1132.982, 1542.003
1133.464, 1568.272
1133.947, 1576.692
1134.429, 1570.730
1134.911, 1572.340
1135.393, 1587.776
1135.875, 1598.219
1136.357, 1595.616
1136.839, 1597.884
1137.321, 1612.083
1137.803, 1625.837
1138.286, 1631.563
1138.768, 1633.452
1139.250, 1636.946
1139.732, 1642.320
1140.214, 1654.247
1140.696, 1675.082
1141.178, 1682.158
1141.660, 1672.320
1142.142, 1668.777
1142.625, 1679.222
1143.107, 1692.741
1143.589, 1701.137
1144.071, 1706.266
1144.553, 1711.225
1145.035, 1715.636
1145.517, 1715.832
1145.999, 1714.896
1146.482, 1724.356
1146.964, 1742.879
1147.446, 1758.758
1147.928, 1767.630
1148.410, 1774.563
1148.892, 1782.876
1149.374, 1791.488
1149.856, 1798.912
1150.339, 1806.555
1150.821, 1819.064
1151.303, 1830.747
1151.785, 1828.417
1152.267, 1816.499
1152.749, 1820.409
1153.231, 1853.645
1153.713, 1873.130
1154.195, 1858.453
1154.677, 1843.629
1155.160, 1837.189
1155.642, 1835.612
1156.124, 1841.006
1156.606, 1846.172
1157.088, 1839.748
1157.570, 1822.800
1158.052, 1808.789
1158.534, 1800.445
1159.017, 1780.332
1159.499, 1744.334
1159.981, 1718.119
1160.463, 1710.531
1160.945, 1704.635
1161.427, 1688.395
1161.909, 1664.399
1162.391, 1633.821
1162.874, 1600.096
1163.356, 1577.039
1163.838, 1560.219
1164.320, 1532.323
1164.802, 1496.449
1165.284, 1474.970
1165.766, 1473.083
1166.248, 1469.065
1166.730, 1448.672
1167.213, 1420.822
1167.695, 1386.624
1168.177, 1354.734
1168.659, 1333.057
1169.141, 1318.437
1169.623, 1310.821
1170.105, 1305.415
1170.587, 1288.994
1171.069, 1257.092
1171.552, 1232.368
1172.034, 1222.758
1172.516, 1214.110
1172.998, 1203.667
1173.480, 1194.616
1173.962, 1188.840
1174.444, 1184.373
1174.926, 1179.244
1175.409, 1173.701
1175.891, 1168.970
1176.373, 1165.261
1176.855, 1159.105
1177.337, 1150.429
1177.819, 1142.034
1178.301, 1134.364
1178.783, 1123.125
1179.266, 1106.163
1179.748, 1093.711
1180.230, 1099.117
1180.712, 1110.985
1181.194, 1112.298
1181.676, 1106.222
1182.158, 1094.209
1182.640, 1080.834
1183.122, 1074.664
1183.604, 1075.914
1184.087, 1080.162
1184.569, 1086.914
1185.051, 1087.783
1185.533, 1077.372
1186.015, 1062.429
1186.497, 1036.176
1186.979, 1016.562
1187.461, 1022.723
1187.944, 1038.691
1188.426, 1040.765
1188.908, 1031.435
1189.390, 1027.210
1189.872, 1030.832
1190.354, 1028.749
1190.836, 1018.255
1191.318, 1015.815
1191.801, 1026.937
1192.283, 1031.817
1192.765, 1018.156
1193.247, 1001.670
1193.729, 1003.592
1194.211, 1014.752
1194.693, 1011.114
1195.175, 999.0461
1195.657, 995.7817
1196.140, 999.4943
1196.622, 1003.179
1197.104, 1004.195
1197.586, 998.2672
1198.068, 982.4895
1198.550, 970.4986
1199.032, 973.0463
1199.514, 978.9598
1199.996, 985.2651
1200.479, 988.9130
1200.961, 987.0138
1201.443, 981.3577
1201.925, 972.2737
1202.407, 961.3446
1202.889, 958.9236
1203.371, 969.9960
1203.853, 973.2556
1204.336, 966.0303
1204.818, 959.6578
1205.300, 956.5372
1205.782, 953.4002
1206.264, 948.2098
1206.746, 944.2483
1207.228, 945.8668
1207.710, 950.7092
1208.193, 954.3138
1208.675, 955.8003
1209.157, 950.0707
1209.639, 940.4498
1210.121, 938.2832
1210.603, 943.1614
1211.085, 943.5308
1211.567, 934.6617
1212.049, 928.3951
1212.531, 933.8034
1213.014, 941.3058
1213.496, 950.2748
1213.978, 954.6573
1214.460, 944.7103
1214.942, 931.7861
1215.424, 932.0468
1215.906, 941.4579
1216.388, 942.6279
1216.871, 932.9399
1217.353, 932.3929
1217.835, 944.8600
1218.317, 948.4642
1218.799, 938.2729
1219.281, 933.6937
1219.763, 943.2540
1220.245, 954.6234
1220.728, 956.9359
1221.210, 952.8908
1221.692, 945.6306
1222.174, 936.4752
1222.656, 926.5969
1223.138, 917.7281
1223.620, 914.2108
1224.102, 914.7301
1224.584, 913.7808
1225.067, 910.2910
1225.549, 910.0394
1226.031, 919.0557
1226.513, 924.6112
1226.995, 918.8860
1227.477, 913.4402
1227.959, 914.0973
1228.441, 916.2487
1228.923, 917.8187
1229.406, 917.2147
1229.888, 910.8508
1230.370, 899.5369
1230.852, 892.8695
1231.334, 891.0196
1231.816, 889.3309
1232.298, 887.5990
1232.780, 888.4984
1233.263, 892.4175
1233.745, 895.9125
1234.227, 897.0944
1234.709, 895.5917
1235.191, 888.0024
1235.673, 881.0496
1236.155, 884.4476
1236.637, 890.4569
1237.120, 888.9949
1237.602, 884.7798
1238.084, 888.4696
1238.566, 897.7342
1239.048, 896.9551
1239.530, 878.4442
1240.012, 872.8767
1240.494, 893.4117
1240.976, 903.0199
##END=



