##NAMES=Anglesite
##RRUFFID=R050052
##IDEAL CHEMISTRY=Pb^2+^S^6+^O_4_
##LOCALITY=Touissite, Oujela, Morocco
##OWNER=RRUFF
##SOURCE=Eugene Schlepp
##DESCRIPTION=Yellow prismatic single crystal
##STATUS=The identification of this mineral has been confirmed by X-ray diffraction and chemical analysis
##URL=rruff.info/R050052
##MEASURED CHEMISTRY=Pb_1.00_S_1.00_O_4_
123.1454, 81.79632
123.6275, 86.29571
124.1096, 96.88536
124.5917, 112.4265
125.0739, 128.2660
125.5560, 139.2289
126.0381, 148.4470
126.5202, 162.9754
127.0023, 186.8068
127.4844, 213.8961
127.9666, 233.5338
128.4487, 245.8072
128.9308, 257.7840
129.4129, 276.5728
129.8950, 301.0318
130.3772, 324.2856
130.8593, 344.0264
131.3414, 361.1525
131.8235, 378.3323
132.3056, 395.1358
132.7877, 413.1404
133.2699, 435.4921
133.7520, 462.5473
134.2341, 487.9296
134.7162, 508.5982
135.1983, 524.6476
135.6804, 541.0364
136.1626, 558.5688
136.6447, 575.0880
137.1268, 586.4760
137.6089, 592.3777
138.0910, 594.0431
138.5731, 591.3768
139.0553, 583.5700
139.5374, 575.0771
140.0195, 565.8879
140.5016, 556.2399
140.9837, 547.5831
141.4658, 540.4960
141.9480, 533.3569
142.4301, 525.0607
142.9122, 515.0708
143.3943, 505.0291
143.8764, 494.4864
144.3585, 483.5838
144.8407, 474.9710
145.3228, 468.9972
145.8049, 465.1172
146.2870, 462.9424
146.7691, 462.9742
147.2512, 464.0698
147.7334, 465.9466
148.2155, 468.4876
148.6976, 472.4482
149.1797, 478.0673
149.6618, 485.0612
150.1439, 492.9837
150.6261, 506.0048
151.1082, 516.1196
151.5903, 520.7397
152.0724, 517.3644
152.5545, 513.9905
153.0366, 511.9842
153.5188, 510.3282
154.0009, 507.0381
154.4830, 501.2408
154.9651, 494.1572
155.4472, 486.3628
155.9293, 478.8743
156.4115, 469.3273
156.8936, 455.5419
157.3757, 438.8649
157.8578, 423.7646
158.3399, 411.9551
158.8221, 401.9151
159.3042, 392.5250
159.7863, 382.6798
160.2684, 374.2825
160.7505, 368.5890
161.2326, 365.2510
161.7148, 362.0000
162.1969, 358.5571
162.6790, 354.4548
163.1611, 349.2959
163.6432, 339.9357
164.1253, 331.8272
164.6075, 328.9765
165.0896, 331.5667
165.5717, 333.6035
166.0538, 331.2578
166.5359, 326.3292
167.0180, 321.4091
167.5002, 316.9170
167.9823, 313.2026
168.4644, 310.7511
168.9465, 309.7325
169.4286, 309.0399
169.9107, 307.7378
170.3929, 306.1653
170.8750, 305.0034
171.3571, 304.8166
171.8392, 305.1369
172.3213, 305.6176
172.8034, 306.3621
173.2856, 306.7672
173.7677, 306.2712
174.2498, 304.9561
174.7319, 303.1232
175.2140, 301.0827
175.6961, 298.6172
176.1783, 294.8531
176.6604, 288.4526
177.1425, 282.9139
177.6246, 284.0315
178.1067, 290.8605
178.5888, 297.3466
179.0710, 298.3773
179.5531, 295.7794
180.0352, 293.5110
180.5173, 292.6789
180.9994, 292.4669
181.4815, 291.4604
181.9637, 289.6781
182.4458, 287.9878
182.9279, 287.8741
183.4100, 288.6672
183.8921, 287.6854
184.3742, 282.9278
184.8564, 276.4423
185.3385, 273.7702
185.8206, 275.1689
186.3027, 276.9767
186.7848, 275.4539
187.2669, 270.9018
187.7491, 265.5417
188.2312, 259.0428
188.7133, 252.3076
189.1954, 249.3667
189.6775, 250.8977
190.1596, 253.2795
190.6418, 251.5922
191.1239, 245.9471
191.6060, 240.7400
192.0881, 238.0363
192.5702, 237.5325
193.0524, 236.8337
193.5345, 236.1685
194.0166, 234.7326
194.4987, 230.7051
194.9808, 223.8900
195.4629, 217.4197
195.9451, 213.0245
196.4272, 210.6050
196.9093, 208.0942
197.3914, 205.4523
197.8735, 202.6792
198.3556, 199.4954
198.8378, 195.7336
199.3199, 192.6728
199.8020, 191.0419
200.2841, 190.8952
200.7662, 191.8731
201.2483, 194.6649
201.7305, 197.9236
202.2126, 198.1452
202.6947, 194.8616
203.1768, 190.2865
203.6589, 185.1204
204.1410, 179.0678
204.6232, 174.9868
205.1053, 173.6068
205.5874, 174.1542
206.0695, 174.0653
206.5516, 173.1540
207.0337, 172.0950
207.5159, 171.2928
207.9980, 170.7597
208.4801, 170.5441
208.9622, 170.8535
209.4443, 171.4821
209.9264, 171.4218
210.4086, 170.6004
210.8907, 169.2274
211.3728, 167.2558
211.8549, 164.2744
212.3370, 162.0389
212.8191, 160.7905
213.3013, 160.5017
213.7834, 161.1228
214.2655, 163.3650
214.7476, 165.3759
215.2297, 165.2599
215.7118, 162.0015
216.1940, 159.4967
216.6761, 158.8563
217.1582, 159.9343
217.6403, 159.3256
218.1224, 156.2416
218.6045, 152.5368
219.0867, 150.0233
219.5688, 149.1795
220.0509, 148.4270
220.5330, 147.3311
221.0151, 145.8527
221.4972, 145.4201
221.9794, 147.0442
222.4615, 148.5834
222.9436, 147.4859
223.4257, 142.2223
223.9078, 137.4385
224.3899, 134.3903
224.8721, 133.2007
225.3542, 131.3982
225.8363, 127.9254
226.3184, 124.8227
226.8005, 124.8567
227.2827, 130.1301
227.7648, 134.5569
228.2469, 136.7505
228.7290, 136.6325
229.2111, 134.7264
229.6932, 130.0253
230.1754, 124.3760
230.6575, 120.0174
231.1396, 116.9145
231.6217, 115.2758
232.1038, 115.5940
232.5859, 118.4627
233.0681, 120.0860
233.5502, 120.1917
234.0323, 119.2514
234.5144, 117.7606
234.9965, 114.9954
235.4786, 112.9403
235.9608, 112.4142
236.4429, 113.8975
236.9250, 114.6837
237.4071, 114.5402
237.8892, 113.8355
238.3713, 113.1783
238.8535, 112.8089
239.3356, 112.0743
239.8177, 110.6123
240.2998, 108.0495
240.7819, 106.1687
241.2640, 104.9447
241.7462, 104.3861
242.2283, 104.6013
242.7104, 106.1310
243.1925, 107.5460
243.6746, 108.3677
244.1567, 108.4602
244.6389, 108.5142
245.1210, 109.0479
245.6031, 109.2435
246.0852, 107.2873
246.5673, 101.2858
247.0494, 96.37305
247.5316, 94.69331
248.0137, 97.53330
248.4958, 99.29377
248.9779, 99.87890
249.4600, 99.42313
249.9421, 97.86076
250.4243, 93.92699
250.9064, 91.14386
251.3885, 91.27059
251.8706, 95.80502
252.3527, 98.15400
252.8348, 97.55892
253.3170, 95.25738
253.7991, 93.62921
254.2812, 93.20325
254.7633, 92.45631
255.2454, 90.43160
255.7275, 86.21322
256.2097, 84.40143
256.6918, 86.14425
257.1739, 89.52394
257.6560, 90.79179
258.1381, 88.78325
258.6202, 87.07954
259.1024, 87.43437
259.5845, 90.83898
260.0666, 91.90100
260.5487, 89.31955
261.0308, 85.38223
261.5129, 84.53076
261.9951, 88.09371
262.4772, 91.58529
262.9593, 93.07466
263.4414, 92.03333
263.9235, 91.75477
264.4056, 92.94848
264.8878, 94.23503
265.3699, 92.59608
265.8520, 86.52578
266.3341, 81.80582
266.8162, 81.32938
267.2983, 86.08970
267.7805, 88.56010
268.2626, 87.97047
268.7447, 85.91621
269.2268, 85.31476
269.7089, 86.69101
270.1910, 87.62908
270.6732, 86.86382
271.1553, 84.11012
271.6374, 82.58085
272.1195, 82.56849
272.6016, 83.35104
273.0837, 83.76180
273.5659, 83.71190
274.0480, 83.76659
274.5301, 84.44520
275.0122, 85.80633
275.4943, 85.53658
275.9764, 82.94823
276.4586, 80.02297
276.9407, 80.60116
277.4228, 85.28192
277.9049, 88.20592
278.3870, 85.93349
278.8691, 78.80664
279.3513, 74.95888
279.8334, 74.93456
280.3155, 76.79039
280.7976, 78.09098
281.2798, 78.79810
281.7619, 79.59922
282.2440, 81.02546
282.7261, 82.88834
283.2082, 83.65805
283.6903, 83.20708
284.1725, 82.13178
284.6546, 81.08669
285.1367, 80.07578
285.6188, 78.93437
286.1009, 77.22894
286.5830, 75.31071
287.0652, 74.91863
287.5473, 76.22392
288.0294, 78.05148
288.5115, 79.60780
288.9936, 80.78339
289.4757, 80.59342
289.9579, 77.82279
290.4400, 73.67207
290.9221, 71.52042
291.4042, 71.46587
291.8863, 72.18785
292.3684, 72.29156
292.8506, 72.00771
293.3327, 72.38235
293.8148, 74.23101
294.2969, 76.66299
294.7790, 78.08427
295.2611, 78.49501
295.7433, 78.09026
296.2254, 76.32612
296.7075, 73.79135
297.1896, 72.26060
297.6717, 72.74911
298.1538, 74.02176
298.6360, 74.19759
299.1181, 73.34853
299.6002, 72.30765
300.0823, 71.37245
300.5644, 70.72937
301.0465, 70.86874
301.5287, 72.63403
302.0108, 74.33424
302.4929, 73.54060
302.9750, 70.65776
303.4571, 68.05135
303.9392, 67.41190
304.4214, 67.96488
304.9035, 68.69621
305.3856, 69.42211
305.8677, 70.15143
306.3498, 71.27568
306.8319, 72.51678
307.3141, 72.90231
307.7962, 70.90238
308.2783, 68.20744
308.7604, 66.47118
309.2425, 66.25288
309.7246, 66.61722
310.2068, 67.31799
310.6889, 68.18076
311.1710, 68.76260
311.6531, 68.63361
312.1352, 68.27472
312.6173, 67.97519
313.0995, 67.69875
313.5816, 67.73630
314.0637, 68.46459
314.5458, 69.58932
315.0279, 70.56071
315.5100, 71.09165
315.9922, 71.47157
316.4743, 71.93172
316.9564, 72.61644
317.4385, 72.89089
317.9206, 72.04958
318.4027, 70.78486
318.8849, 70.06430
319.3670, 70.30515
319.8491, 70.99536
320.3312, 72.17005
320.8133, 74.00014
321.2954, 75.27801
321.7776, 75.72682
322.2597, 75.53934
322.7418, 74.92104
323.2239, 73.18958
323.7060, 71.74010
324.1881, 71.21276
324.6703, 71.76287
325.1524, 71.42351
325.6345, 68.68734
326.1166, 65.74213
326.5987, 64.33050
327.0808, 65.79381
327.5630, 67.22961
328.0451, 68.46929
328.5272, 69.49706
329.0093, 69.93031
329.4914, 69.21436
329.9735, 68.39882
330.4557, 68.12615
330.9378, 68.32049
331.4199, 69.27571
331.9020, 71.65380
332.3841, 74.92097
332.8662, 76.30354
333.3484, 74.76131
333.8305, 72.89147
334.3126, 72.31498
334.7947, 73.88023
335.2768, 74.00523
335.7589, 71.89465
336.2411, 68.58876
336.7232, 66.48337
337.2053, 65.52425
337.6874, 65.98036
338.1695, 68.84325
338.6516, 74.66866
339.1338, 77.60810
339.6159, 76.96316
340.0980, 74.32011
340.5801, 71.96291
341.0622, 69.80158
341.5443, 68.55322
342.0265, 68.73209
342.5086, 70.19522
342.9907, 71.81199
343.4728, 73.69351
343.9549, 75.23746
344.4370, 75.34708
344.9192, 74.18586
345.4013, 73.31300
345.8834, 73.33327
346.3655, 74.02499
346.8476, 74.91354
347.3297, 76.00168
347.8119, 77.09857
348.2940, 78.58654
348.7761, 80.00716
349.2582, 79.72822
349.7403, 75.85836
350.2225, 71.54409
350.7046, 72.23364
351.1867, 77.30550
351.6688, 81.91586
352.1509, 81.68782
352.6331, 79.00368
353.1152, 77.52640
353.5973, 78.53431
354.0794, 80.06036
354.5615, 79.95465
355.0436, 78.83776
355.5258, 78.59815
356.0079, 81.97575
356.4900, 85.74080
356.9721, 86.80788
357.4542, 84.05049
357.9363, 80.81067
358.4185, 78.41379
358.9006, 76.85938
359.3827, 76.14648
359.8648, 76.44392
360.3469, 77.44897
360.8290, 79.56864
361.3112, 83.18665
361.7933, 85.29560
362.2754, 83.16606
362.7575, 79.72049
363.2396, 78.12877
363.7217, 81.84789
364.2039, 84.76913
364.6860, 84.82639
365.1681, 81.94929
365.6502, 79.69533
366.1323, 78.60938
366.6144, 78.16876
367.0966, 78.01719
367.5787, 78.04131
368.0608, 78.47874
368.5429, 79.38634
369.0250, 80.73910
369.5071, 82.43086
369.9893, 85.00848
370.4714, 87.28395
370.9535, 88.79028
371.4356, 89.85934
371.9177, 89.20715
372.3998, 85.89265
372.8820, 81.30728
373.3641, 78.64062
373.8462, 78.39950
374.3283, 78.76160
374.8104, 78.88726
375.2925, 78.66078
375.7747, 79.81911
376.2568, 82.81974
376.7389, 86.31740
377.2210, 88.40638
377.7031, 89.00063
378.1852, 89.43947
378.6674, 90.27046
379.1495, 91.27023
379.6316, 91.22587
380.1137, 90.00663
380.5958, 88.93124
381.0779, 89.64407
381.5601, 91.73399
382.0422, 93.06913
382.5243, 92.99220
383.0064, 92.20224
383.4885, 91.62367
383.9706, 91.28161
384.4528, 91.39822
384.9349, 93.03232
385.4170, 94.99490
385.8991, 94.91494
386.3812, 91.76073
386.8633, 88.76268
387.3455, 88.99271
387.8276, 91.67730
388.3097, 95.07373
388.7918, 99.80727
389.2739, 103.9088
389.7560, 105.2486
390.2382, 103.4197
390.7203, 101.8040
391.2024, 102.5953
391.6845, 104.4756
392.1666, 105.9386
392.6487, 105.6850
393.1309, 105.6686
393.6130, 106.4925
394.0951, 108.1729
394.5772, 110.7064
395.0593, 115.9562
395.5414, 120.8846
396.0236, 123.5320
396.5057, 120.1728
396.9878, 118.6320
397.4699, 120.5127
397.9520, 124.8559
398.4341, 128.6405
398.9163, 132.1222
399.3984, 134.7703
399.8805, 136.2713
400.3626, 136.1857
400.8447, 136.2048
401.3268, 136.0843
401.8090, 136.2503
402.2911, 137.2979
402.7732, 139.2642
403.2553, 142.0736
403.7374, 146.2882
404.2195, 151.7189
404.7017, 154.4996
405.1838, 153.8565
405.6659, 152.6666
406.1480, 153.3660
406.6301, 155.9618
407.1122, 159.9719
407.5944, 166.1157
408.0765, 172.8073
408.5586, 175.5751
409.0407, 174.5058
409.5228, 173.2865
410.0049, 174.6636
410.4871, 177.7800
410.9692, 179.9958
411.4513, 180.7580
411.9334, 181.8124
412.4155, 185.9703
412.8976, 192.2243
413.3798, 197.5022
413.8619, 199.4641
414.3440, 200.3889
414.8261, 202.8633
415.3082, 206.9495
415.7903, 210.9112
416.2725, 212.9020
416.7546, 214.4326
417.2367, 217.2864
417.7188, 222.8829
418.2009, 228.8914
418.6830, 233.6078
419.1652, 237.6831
419.6473, 243.3238
420.1294, 250.7615
420.6115, 260.3674
421.0937, 272.9662
421.5758, 290.5689
422.0579, 306.5246
422.5400, 318.7393
423.0221, 329.0808
423.5042, 340.8231
423.9864, 351.8551
424.4685, 366.6522
424.9506, 387.4742
425.4327, 414.6015
425.9148, 440.4465
426.3969, 463.2399
426.8791, 486.7488
427.3612, 513.8924
427.8433, 544.9095
428.3254, 578.3792
428.8075, 613.4226
429.2896, 651.0153
429.7718, 693.7023
430.2539, 741.6968
430.7360, 793.7418
431.2181, 844.9052
431.7002, 896.3655
432.1823, 967.7327
432.6645, 1062.712
433.1466, 1168.896
433.6287, 1264.269
434.1108, 1352.762
434.5929, 1455.408
435.0750, 1582.558
435.5572, 1727.657
436.0393, 1885.358
436.5214, 2054.893
437.0035, 2220.621
437.4856, 2382.321
437.9677, 2527.602
438.4499, 2636.148
438.9320, 2693.080
439.4141, 2728.666
439.8962, 2749.771
440.3783, 2764.744
440.8604, 2795.749
441.3426, 2846.211
441.8247, 2919.877
442.3068, 3019.232
442.7889, 3145.211
443.2710, 3293.674
443.7531, 3459.875
444.2353, 3649.087
444.7174, 3870.085
445.1995, 4122.936
445.6816, 4406.011
446.1637, 4729.979
446.6458, 5088.312
447.1280, 5449.220
447.6101, 5846.497
448.0922, 6210.305
448.5743, 6514.846
449.0564, 6811.139
449.5385, 6914.184
450.0207, 6798.250
450.5028, 6507.975
450.9849, 6101.582
451.4670, 5565.237
451.9491, 4999.862
452.4312, 4418.021
452.9134, 3832.873
453.3955, 3326.686
453.8776, 2902.915
454.3597, 2543.431
454.8418, 2249.731
455.3239, 2012.120
455.8061, 1803.076
456.2882, 1614.656
456.7703, 1450.245
457.2524, 1316.026
457.7345, 1210.273
458.2166, 1123.202
458.6988, 1058.790
459.1809, 1006.169
459.6630, 954.9702
460.1451, 903.3313
460.6272, 855.0342
461.1093, 812.3951
461.5915, 774.6644
462.0736, 741.8228
462.5557, 719.7758
463.0378, 696.7413
463.5199, 667.0765
464.0020, 631.9545
464.4842, 599.3890
464.9663, 570.6472
465.4484, 545.5129
465.9305, 524.1574
466.4126, 510.5858
466.8947, 493.0838
467.3769, 468.3894
467.8590, 441.2769
468.3411, 419.4564
468.8232, 405.3662
469.3053, 391.9243
469.7874, 376.8620
470.2696, 360.3808
470.7517, 346.1851
471.2338, 334.4304
471.7159, 324.5698
472.1980, 317.2295
472.6801, 312.2819
473.1623, 305.3669
473.6444, 295.2747
474.1265, 284.0254
474.6086, 274.7351
475.0907, 267.3111
475.5728, 261.1537
476.0550, 256.7136
476.5371, 253.0534
477.0192, 248.6726
477.5013, 243.4942
477.9834, 238.2312
478.4655, 233.5232
478.9477, 229.0130
479.4298, 224.2607
479.9119, 218.5752
480.3940, 213.2435
480.8761, 209.6065
481.3582, 206.9693
481.8404, 203.3729
482.3225, 197.7052
482.8046, 191.3259
483.2867, 184.1086
483.7688, 174.7495
484.2509, 169.0792
484.7331, 170.9884
485.2152, 175.0746
485.6973, 176.2977
486.1794, 172.8880
486.6615, 169.6219
487.1436, 167.2019
487.6258, 165.4232
488.1079, 163.3197
488.5900, 160.8620
489.0721, 158.1895
489.5542, 155.6233
490.0363, 153.1665
490.5185, 149.1950
491.0006, 143.3525
491.4827, 137.1568
491.9648, 132.3627
492.4470, 128.9185
492.9291, 126.7446
493.4112, 126.3294
493.8933, 126.7766
494.3754, 126.8461
494.8575, 126.5760
495.3397, 126.2022
495.8218, 126.0355
496.3039, 125.7652
496.7860, 125.0213
497.2681, 123.6616
497.7502, 122.1437
498.2324, 120.4254
498.7145, 118.7681
499.1966, 117.4944
499.6787, 116.9666
500.1608, 116.5853
500.6429, 116.7389
501.1251, 117.2817
501.6072, 116.0717
502.0893, 110.5323
502.5714, 105.3474
503.0535, 102.8887
503.5356, 104.8202
504.0178, 105.4295
504.4999, 104.0887
504.9820, 101.9894
505.4641, 100.9399
505.9462, 101.1018
506.4283, 101.5105
506.9105, 102.0432
507.3926, 102.5780
507.8747, 102.5459
508.3568, 101.9215
508.8389, 101.1813
509.3210, 100.4308
509.8032, 99.83065
510.2853, 100.2769
510.7674, 102.3355
511.2495, 103.4852
511.7316, 99.48793
512.2137, 92.73898
512.6959, 88.16689
513.1780, 89.86597
513.6601, 92.67722
514.1422, 93.36189
514.6243, 92.12436
515.1064, 90.64689
515.5886, 89.32080
516.0707, 88.13990
516.5528, 87.03091
517.0349, 85.54314
517.5170, 85.03028
517.9991, 86.94724
518.4813, 89.39616
518.9634, 89.87685
519.4455, 87.10154
519.9276, 84.53539
520.4097, 82.70935
520.8918, 81.64995
521.3740, 81.63279
521.8561, 83.08244
522.3382, 84.16800
522.8203, 83.11938
523.3024, 80.14933
523.7845, 79.22270
524.2667, 81.03250
524.7488, 83.05183
525.2309, 81.54048
525.7130, 77.50122
526.1951, 74.47251
526.6772, 74.06398
527.1594, 74.86109
527.6415, 75.41888
528.1236, 75.79097
528.6057, 76.22766
529.0878, 76.89152
529.5699, 77.65709
530.0521, 78.84847
530.5342, 81.03784
531.0163, 81.26600
531.4984, 75.20292
531.9805, 68.14832
532.4626, 65.70299
532.9448, 75.55833
533.4269, 81.64318
533.9090, 79.99007
534.3911, 73.02785
534.8732, 70.58693
535.3553, 75.07530
535.8375, 79.54228
536.3196, 80.65300
536.8017, 78.21082
537.2838, 77.03527
537.7659, 77.35769
538.2480, 78.15018
538.7302, 78.14980
539.2123, 77.53141
539.6944, 77.74182
540.1765, 79.69704
540.6586, 81.50893
541.1407, 79.58080
541.6229, 74.99527
542.1050, 71.61454
542.5871, 73.22779
543.0692, 75.84818
543.5513, 75.47531
544.0334, 71.93073
544.5156, 68.84004
544.9977, 67.59050
545.4798, 67.67185
545.9619, 68.79031
546.4440, 72.11594
546.9261, 74.64867
547.4083, 75.70284
547.8904, 75.75833
548.3725, 75.65208
548.8546, 75.30824
549.3367, 74.88924
549.8188, 74.17184
550.3010, 73.27893
550.7831, 73.91634
551.2652, 76.52350
551.7473, 79.20230
552.2294, 81.00733
552.7115, 81.86731
553.1937, 80.29920
553.6758, 75.61881
554.1579, 70.86723
554.6400, 70.26959
555.1221, 72.70951
555.6042, 75.00603
556.0864, 76.04487
556.5685, 76.45457
557.0506, 76.70962
557.5327, 76.81207
558.0148, 76.76192
558.4969, 76.64417
558.9791, 76.30771
559.4612, 75.25960
559.9433, 73.00233
560.4254, 72.40714
560.9075, 76.65882
561.3896, 81.28160
561.8718, 82.21758
562.3539, 75.67271
562.8360, 72.02227
563.3181, 73.18622
563.8002, 77.17229
564.2823, 78.97878
564.7645, 77.98900
565.2466, 77.55302
565.7287, 79.32719
566.2108, 82.76051
566.6929, 85.58287
567.1750, 87.82047
567.6572, 88.32954
568.1393, 83.51318
568.6214, 76.69447
569.1035, 75.64565
569.5856, 82.91114
570.0677, 90.45937
570.5499, 91.05778
571.0320, 87.70442
571.5141, 85.16360
571.9962, 85.80392
572.4783, 86.96417
572.9604, 87.33343
573.4426, 87.20144
573.9247, 88.15998
574.4068, 93.30496
574.8889, 96.91444
575.3710, 95.91780
575.8531, 88.68900
576.3353, 85.90031
576.8174, 89.83370
577.2995, 94.86272
577.7816, 95.05138
578.2637, 89.80083
578.7458, 86.09014
579.2280, 85.03030
579.7101, 85.74821
580.1922, 86.84580
580.6743, 88.36934
581.1564, 90.57957
581.6385, 93.88855
582.1207, 97.80081
582.6028, 102.3779
583.0849, 107.3148
583.5670, 110.5552
584.0491, 109.1864
584.5313, 106.7090
585.0134, 105.6610
585.4955, 106.3828
585.9776, 108.6812
586.4597, 113.8971
586.9418, 120.0970
587.4240, 125.0127
587.9061, 127.6964
588.3882, 130.5140
588.8703, 133.6871
589.3524, 137.1635
589.8345, 140.4203
590.3167, 142.9083
590.7988, 147.4121
591.2809, 155.9558
591.7630, 167.5855
592.2451, 176.4404
592.7272, 182.3791
593.2094, 188.9974
593.6915, 200.8525
594.1736, 215.1981
594.6557, 225.9738
595.1378, 230.8309
595.6199, 237.1098
596.1021, 252.0062
596.5842, 271.3034
597.0663, 289.0589
597.5485, 300.2288
598.0306, 312.5255
598.5127, 326.5148
598.9948, 343.1364
599.4769, 366.5768
599.9590, 401.7495
600.4412, 438.2750
600.9233, 472.8819
601.4054, 505.6842
601.8875, 537.6023
602.3696, 568.8344
602.8517, 598.1556
603.3339, 626.9233
603.8160, 654.4825
604.2981, 666.5641
604.7802, 659.8965
605.2623, 643.0511
605.7444, 625.9571
606.2266, 607.3664
606.7087, 584.7760
607.1908, 554.8090
607.6729, 522.5520
608.1550, 490.8653
608.6371, 459.9616
609.1193, 429.4329
609.6014, 397.4417
610.0835, 367.4518
610.5656, 342.0031
611.0477, 321.6495
611.5298, 302.2669
612.0120, 281.6752
612.4941, 264.1388
612.9762, 253.4913
613.4583, 252.2753
613.9404, 248.4640
614.4225, 240.4987
614.9047, 231.8080
615.3868, 226.8166
615.8689, 225.4174
616.3510, 227.2994
616.8331, 234.5839
617.3152, 242.1895
617.7974, 242.7764
618.2795, 236.9540
618.7616, 227.2543
619.2437, 212.8802
619.7258, 196.8466
620.2079, 180.1665
620.6901, 163.0573
621.1722, 148.7395
621.6543, 140.1718
622.1364, 133.4326
622.6185, 125.9980
623.1006, 116.4664
623.5828, 108.8102
624.0649, 102.9728
624.5470, 99.06365
625.0291, 97.45838
625.5112, 98.45565
625.9933, 100.3732
626.4755, 103.3822
626.9576, 106.4814
627.4397, 107.3678
627.9218, 106.2504
628.4039, 104.7232
628.8860, 102.4009
629.3682, 100.7340
629.8503, 102.6648
630.3324, 107.6681
630.8145, 111.7618
631.2966, 111.2369
631.7787, 109.8967
632.2609, 110.4122
632.7430, 113.4240
633.2251, 117.1367
633.7072, 121.7471
634.1893, 126.5645
634.6714, 130.9944
635.1536, 134.6003
635.6357, 138.8474
636.1178, 144.0031
636.5999, 149.6185
637.0820, 154.6134
637.5641, 158.9077
638.0463, 164.3015
638.5284, 172.6671
639.0105, 181.4157
639.4926, 184.4617
639.9747, 182.7332
640.4568, 181.5367
640.9390, 187.3860
641.4211, 193.1058
641.9032, 191.0014
642.3853, 180.5671
642.8674, 170.0216
643.3495, 163.6398
643.8317, 157.6422
644.3138, 149.1627
644.7959, 135.8685
645.2780, 123.9669
645.7601, 113.1696
646.2422, 104.0479
646.7244, 97.52901
647.2065, 94.16509
647.6886, 90.79358
648.1707, 86.78362
648.6528, 82.67461
649.1349, 79.59481
649.6171, 77.44315
650.0992, 75.40031
650.5813, 72.56539
651.0634, 69.95286
651.5455, 69.06467
652.0276, 69.64180
652.5098, 70.33910
652.9919, 70.28203
653.4740, 70.24176
653.9561, 71.06194
654.4382, 73.21239
654.9203, 73.76500
655.4025, 70.50377
655.8846, 67.05332
656.3667, 66.01830
656.8488, 68.50985
657.3309, 69.96519
657.8130, 69.87595
658.2952, 69.37245
658.7773, 70.41611
659.2594, 72.81698
659.7415, 74.14690
660.2236, 73.56883
660.7057, 71.96877
661.1879, 70.01951
661.6700, 68.02827
662.1521, 66.88374
662.6342, 67.82062
663.1163, 69.04702
663.5984, 69.25233
664.0806, 68.58996
664.5627, 68.52329
665.0448, 70.65044
665.5269, 72.29786
666.0090, 72.21056
666.4911, 70.13200
666.9733, 68.16778
667.4554, 66.18948
667.9375, 64.58038
668.4196, 63.68772
668.9017, 63.49920
669.3839, 63.63889
669.8660, 64.05689
670.3481, 64.85964
670.8302, 67.03972
671.3123, 69.62690
671.7944, 70.33569
672.2766, 67.22142
672.7587, 64.05307
673.2408, 63.51023
673.7229, 64.64724
674.2050, 65.59599
674.6871, 66.06533
675.1693, 66.03645
675.6514, 65.11695
676.1335, 63.58656
676.6156, 62.91181
677.0977, 63.24528
677.5798, 64.11082
678.0620, 65.60756
678.5441, 67.59044
679.0262, 68.65920
679.5083, 68.83567
679.9904, 67.86495
680.4725, 63.93687
680.9547, 59.20647
681.4368, 57.95525
681.9189, 61.01246
682.4010, 64.40919
682.8831, 66.41434
683.3652, 66.93525
683.8474, 65.70976
684.3295, 60.84244
684.8116, 57.14072
685.2937, 55.26767
685.7758, 54.94558
686.2579, 56.21186
686.7401, 60.01354
687.2222, 62.82327
687.7043, 64.03593
688.1864, 63.84912
688.6685, 62.01594
689.1506, 58.69737
689.6328, 56.51294
690.1149, 57.34303
690.5970, 59.51236
691.0791, 60.55571
691.5612, 60.66264
692.0433, 60.77401
692.5255, 61.99832
693.0076, 62.91736
693.4897, 62.30346
693.9718, 59.88953
694.4539, 58.25971
694.9360, 58.16875
695.4182, 58.57528
695.9003, 59.05156
696.3824, 59.72441
696.8645, 59.70930
697.3466, 58.66776
697.8287, 57.82681
698.3109, 58.97233
698.7930, 61.64707
699.2751, 63.51997
699.7572, 64.24319
700.2393, 63.82590
700.7214, 61.16055
701.2036, 57.58419
701.6857, 55.33852
702.1678, 56.13497
702.6499, 57.33062
703.1320, 57.89116
703.6141, 58.13181
704.0963, 58.87377
704.5784, 60.58734
705.0605, 62.14121
705.5426, 63.23650
706.0247, 63.99694
706.5068, 65.19716
706.9890, 67.00301
707.4711, 67.91695
707.9532, 66.42337
708.4353, 63.62712
708.9174, 62.68767
709.3995, 63.41430
709.8817, 63.98710
710.3638, 62.71313
710.8459, 61.01731
711.3280, 60.34843
711.8101, 61.01667
712.2922, 61.18102
712.7744, 60.07430
713.2565, 58.45810
713.7386, 56.70930
714.2207, 54.19463
714.7028, 53.27325
715.1849, 54.27046
715.6671, 56.28520
716.1492, 58.91750
716.6313, 61.98973
717.1134, 63.49984
717.5955, 62.89593
718.0776, 61.27313
718.5598, 59.23925
719.0419, 57.25959
719.5240, 56.28534
720.0061, 57.89640
720.4882, 59.05837
720.9703, 57.23144
721.4525, 54.01751
721.9346, 53.06789
722.4167, 56.97212
722.8988, 60.45709
723.3809, 62.69772
723.8630, 63.78108
724.3452, 63.87624
724.8273, 62.87111
725.3094, 61.67975
725.7915, 60.54866
726.2736, 59.60923
726.7557, 59.36528
727.2379, 59.73317
727.7200, 60.05387
728.2021, 59.96374
728.6842, 59.60191
729.1663, 59.13821
729.6484, 58.59447
730.1306, 57.61614
730.6127, 54.61450
731.0948, 52.43024
731.5769, 52.89779
732.0590, 57.07034
732.5411, 59.42440
733.0233, 59.58071
733.5054, 58.76943
733.9875, 58.08824
734.4696, 57.46190
734.9517, 56.15159
735.4338, 53.91121
735.9160, 51.93977
736.3981, 51.19211
736.8802, 51.58283
737.3623, 53.17501
737.8444, 56.97942
738.3266, 60.05227
738.8087, 61.19655
739.2908, 60.98576
739.7729, 60.16386
740.2551, 58.07606
740.7372, 56.75391
741.2193, 56.81216
741.7014, 57.43614
742.1835, 56.37032
742.6656, 53.58861
743.1478, 52.51109
743.6299, 54.90109
744.1120, 58.73706
744.5941, 61.21994
745.0762, 62.49973
745.5583, 63.12110
746.0405, 62.68656
746.5226, 62.26995
747.0047, 62.95507
747.4868, 64.38503
747.9689, 64.36069
748.4510, 60.69422
748.9332, 58.06931
749.4153, 58.33830
749.8974, 61.18700
750.3795, 62.95141
750.8616, 63.58118
751.3438, 63.50578
751.8259, 62.63997
752.3080, 61.33687
752.7901, 60.30501
753.2722, 59.57742
753.7543, 59.29206
754.2365, 60.16550
754.7186, 61.08786
755.2007, 60.87070
755.6828, 59.01803
756.1649, 58.25713
756.6470, 59.76694
757.1292, 61.85277
757.6113, 63.69367
758.0934, 65.46253
758.5755, 66.16570
759.0576, 65.72714
759.5397, 64.49062
760.0219, 61.97741
760.5040, 58.91677
760.9861, 58.17195
761.4682, 60.65696
761.9503, 62.88836
762.4324, 61.15084
762.9146, 58.01548
763.3967, 56.52365
763.8788, 58.15587
764.3609, 60.26381
764.8430, 63.67661
765.3251, 66.62516
765.8073, 66.76833
766.2894, 63.19929
766.7715, 60.34154
767.2536, 58.74897
767.7357, 58.24477
768.2178, 59.05691
768.7000, 60.83207
769.1821, 62.05255
769.6642, 62.02929
770.1463, 61.61844
770.6284, 61.49978
771.1105, 61.53289
771.5927, 61.44629
772.0748, 60.18721
772.5569, 59.98247
773.0390, 62.65570
773.5211, 66.48737
774.0032, 66.65788
774.4854, 62.01777
774.9675, 58.02114
775.4496, 56.34483
775.9317, 56.31233
776.4138, 56.36092
776.8959, 56.54116
777.3781, 57.12890
777.8602, 58.96774
778.3423, 60.71132
778.8244, 61.04734
779.3065, 60.25792
779.7886, 59.58622
780.2708, 59.46355
780.7529, 59.45753
781.2350, 59.28112
781.7171, 59.01782
782.1992, 59.61218
782.6813, 61.31607
783.1635, 62.85297
783.6456, 63.46403
784.1277, 63.41903
784.6098, 63.62226
785.0919, 64.04557
785.5740, 64.41604
786.0562, 64.86442
786.5383, 64.96462
787.0204, 64.04946
787.5025, 62.09730
787.9846, 60.76312
788.4667, 60.71273
788.9489, 61.14844
789.4310, 62.10769
789.9131, 63.70534
790.3952, 63.06415
790.8773, 59.63678
791.3594, 56.54815
791.8416, 56.73883
792.3237, 59.00642
792.8058, 59.91626
793.2879, 59.33639
793.7700, 59.22491
794.2521, 62.28263
794.7343, 65.48493
795.2164, 65.86349
795.6985, 62.13138
796.1806, 59.98253
796.6627, 60.46241
797.1448, 62.11083
797.6270, 64.46936
798.1091, 67.86462
798.5912, 69.13583
799.0733, 68.06407
799.5554, 65.98125
800.0375, 62.92898
800.5197, 60.12731
801.0018, 60.93974
801.4839, 66.43179
801.9660, 70.19173
802.4481, 66.09797
802.9302, 59.95367
803.4124, 56.79852
803.8945, 59.31802
804.3766, 60.37715
804.8587, 59.40999
805.3408, 57.72736
805.8229, 56.20272
806.3051, 54.84252
806.7872, 54.85090
807.2693, 56.48937
807.7514, 58.53922
808.2335, 60.21002
808.7156, 61.32341
809.1978, 61.47750
809.6799, 60.31013
810.1620, 59.12769
810.6441, 58.12104
811.1262, 57.56202
811.6083, 57.74895
812.0905, 58.98915
812.5726, 60.30772
813.0547, 61.83533
813.5368, 63.12751
814.0189, 63.59853
814.5010, 63.33636
814.9832, 62.60532
815.4653, 61.22050
815.9474, 60.51061
816.4295, 62.41013
816.9116, 65.40372
817.3937, 67.62611
817.8759, 68.43856
818.3580, 68.79220
818.8401, 69.66036
819.3222, 69.60863
819.8043, 66.57682
820.2864, 59.28152
820.7686, 55.06252
821.2507, 54.91353
821.7328, 57.00269
822.2149, 59.88285
822.6970, 63.07132
823.1791, 65.32433
823.6613, 66.17854
824.1434, 66.60123
824.6255, 67.32794
825.1076, 67.91703
825.5897, 67.86493
826.0718, 65.90394
826.5540, 65.05194
827.0361, 65.72964
827.5182, 67.02570
828.0003, 67.83427
828.4824, 68.15760
828.9645, 68.86469
829.4467, 70.19596
829.9288, 71.43871
830.4109, 71.46550
830.8930, 70.96585
831.3751, 71.07169
831.8572, 72.42792
832.3394, 73.59477
832.8215, 74.49528
833.3036, 74.70163
833.7857, 73.59838
834.2678, 70.19209
834.7499, 68.61794
835.2321, 69.62930
835.7142, 71.36382
836.1963, 71.33050
836.6784, 70.01672
837.1605, 69.16917
837.6426, 69.12481
838.1248, 69.58611
838.6069, 70.09001
839.0890, 71.08735
839.5711, 73.23467
840.0532, 78.52094
840.5353, 81.44140
841.0175, 80.88657
841.4996, 78.76081
841.9817, 76.81859
842.4638, 75.05145
842.9459, 73.43353
843.4280, 71.94348
843.9102, 70.70158
844.3923, 69.47964
844.8744, 68.71160
845.3565, 69.35084
845.8386, 72.05896
846.3207, 74.37212
846.8029, 73.82358
847.2850, 73.41821
847.7671, 76.23941
848.2492, 85.36389
848.7313, 88.79270
849.2134, 84.85495
849.6956, 79.41461
850.1777, 78.41019
850.6598, 80.77907
851.1419, 83.20608
851.6240, 85.42529
852.1061, 86.40916
852.5883, 83.86309
853.0704, 80.66631
853.5525, 79.37908
854.0346, 80.64297
854.5167, 83.41035
854.9988, 89.22839
855.4810, 94.37177
855.9631, 95.74297
856.4452, 93.26973
856.9273, 92.17567
857.4094, 92.71251
857.8915, 92.92513
858.3737, 89.77800
858.8558, 85.96536
859.3379, 85.50415
859.8200, 89.12933
860.3021, 91.95575
860.7842, 90.57601
861.2664, 89.23292
861.7485, 90.55514
862.2306, 94.94772
862.7127, 97.91389
863.1948, 99.26185
863.6769, 100.1313
864.1591, 101.4800
864.6412, 102.9314
865.1233, 103.3519
865.6054, 102.8148
866.0875, 102.6527
866.5696, 104.2941
867.0518, 106.0391
867.5339, 106.6105
868.0160, 105.8640
868.4981, 106.0250
868.9802, 107.9726
869.4623, 108.9186
869.9445, 106.6191
870.4266, 102.2948
870.9087, 102.1618
871.3908, 105.8724
871.8729, 109.7040
872.3550, 111.0386
872.8372, 111.8476
873.3193, 114.0886
873.8014, 117.4508
874.2835, 119.8431
874.7656, 119.9697
875.2477, 120.0855
875.7299, 121.1132
876.2120, 122.4705
876.6941, 121.2265
877.1762, 117.3939
877.6583, 114.9035
878.1404, 116.5676
878.6226, 119.3498
879.1047, 119.0990
879.5869, 116.7158
880.0690, 114.5161
880.5511, 112.6889
881.0332, 111.9806
881.5153, 113.3240
881.9974, 115.6893
882.4796, 117.0435
882.9617, 117.2363
883.4438, 117.2140
883.9259, 117.0917
884.4080, 117.0693
884.8901, 117.4010
885.3723, 118.0865
885.8544, 119.1206
886.3365, 120.4171
886.8186, 122.1886
887.3007, 126.0198
887.7828, 129.7137
888.2650, 129.9617
888.7471, 124.7910
889.2292, 121.4976
889.7113, 120.9372
890.1934, 121.7944
890.6755, 122.5493
891.1577, 123.2989
891.6398, 124.6515
892.1219, 126.9917
892.6040, 128.4406
893.0861, 126.4632
893.5682, 123.6802
894.0504, 122.6032
894.5325, 124.2128
895.0146, 126.0833
895.4967, 128.5053
895.9788, 130.6464
896.4609, 131.3392
896.9431, 130.9616
897.4252, 132.3518
897.9073, 135.6833
898.3894, 138.2339
898.8715, 136.2255
899.3536, 133.8136
899.8358, 135.1052
900.3179, 140.8526
900.8000, 145.1470
901.2821, 147.2110
901.7642, 147.9934
902.2463, 147.6351
902.7285, 146.3039
903.2106, 145.2557
903.6927, 144.4776
904.1748, 143.5363
904.6569, 141.4346
905.1390, 139.5755
905.6212, 139.0041
906.1033, 139.8360
906.5854, 142.4012
907.0675, 150.5876
907.5496, 155.7324
908.0317, 154.3426
908.5139, 149.1113
908.9960, 148.9221
909.4781, 153.8050
909.9602, 157.3648
910.4423, 156.9379
910.9244, 154.7813
911.4066, 152.2841
911.8887, 150.2792
912.3708, 150.2848
912.8529, 154.3709
913.3350, 158.6166
913.8171, 162.6207
914.2993, 166.1843
914.7814, 169.3493
915.2635, 172.2607
915.7456, 172.4106
916.2277, 168.9788
916.7098, 164.7433
917.1920, 162.1389
917.6741, 161.1464
918.1562, 162.1356
918.6383, 165.8797
919.1204, 169.0033
919.6025, 169.9938
920.0847, 170.4081
920.5668, 171.3163
921.0489, 172.8707
921.5310, 173.5289
922.0131, 173.0935
922.4952, 173.3580
922.9774, 177.1548
923.4595, 181.9010
923.9416, 183.0954
924.4237, 180.7602
924.9058, 179.3358
925.3879, 181.0554
925.8701, 183.6814
926.3522, 187.0574
926.8343, 190.7474
927.3164, 190.3513
927.7985, 185.2895
928.2806, 181.5011
928.7628, 182.3356
929.2449, 185.4536
929.7270, 187.2969
930.2091, 188.3913
930.6912, 190.2166
931.1733, 195.0076
931.6555, 198.6644
932.1376, 198.7440
932.6197, 197.4368
933.1018, 198.4254
933.5839, 201.9901
934.0660, 206.1510
934.5482, 211.0636
935.0303, 214.9684
935.5124, 214.0247
935.9945, 210.9707
936.4766, 210.8190
936.9587, 215.8007
937.4409, 220.7420
937.9230, 223.5974
938.4051, 226.1223
938.8872, 229.5115
939.3693, 233.7578
939.8514, 239.6272
940.3336, 247.3819
940.8157, 254.4054
941.2978, 257.7679
941.7799, 259.4458
942.2620, 261.6695
942.7441, 264.7021
943.2263, 269.9915
943.7084, 281.8814
944.1905, 291.9386
944.6726, 295.8891
945.1547, 295.0042
945.6368, 296.9629
946.1190, 301.8222
946.6011, 308.9705
947.0832, 318.8021
947.5653, 330.0582
948.0474, 342.7121
948.5295, 355.4874
949.0117, 365.4150
949.4938, 364.3502
949.9759, 369.9150
950.4580, 390.3782
950.9401, 415.1913
951.4222, 425.9283
951.9044, 422.2792
952.3865, 426.4439
952.8686, 442.6584
953.3507, 463.9236
953.8328, 483.6508
954.3149, 503.5742
954.7971, 526.6951
955.2792, 554.6469
955.7613, 579.6461
956.2434, 595.0665
956.7255, 613.8347
957.2076, 645.2227
957.6898, 688.9474
958.1719, 728.1946
958.6540, 763.3826
959.1361, 801.5129
959.6182, 843.1412
960.1003, 893.7210
960.5825, 963.4350
961.0646, 1049.001
961.5467, 1130.330
962.0288, 1190.763
962.5109, 1265.746
962.9930, 1361.651
963.4752, 1476.735
963.9573, 1604.799
964.4394, 1745.789
964.9215, 1905.427
965.4036, 2083.782
965.8857, 2286.434
966.3679, 2519.555
966.8500, 2778.426
967.3321, 3060.509
967.8142, 3356.594
968.2963, 3688.716
968.7784, 4057.524
969.2606, 4456.060
969.7427, 4871.395
970.2248, 5306.637
970.7069, 5773.898
971.1890, 6272.051
971.6711, 6797.674
972.1533, 7332.349
972.6354, 7901.072
973.1175, 8524.716
973.5996, 9202.863
974.0817, 9893.526
974.5638, 10617.74
975.0460, 11283.35
975.5281, 11890.08
976.0102, 12386.99
976.4923, 12691.45
976.9744, 12801.00
977.4565, 12708.51
977.9387, 12397.95
978.4208, 11899.91
978.9029, 11134.71
979.3850, 10229.14
979.8671, 9326.286
980.3492, 8423.021
980.8314, 7559.139
981.3135, 6729.402
981.7956, 5972.422
982.2777, 5326.747
982.7598, 4770.268
983.2419, 4275.098
983.7241, 3838.351
984.2062, 3451.826
984.6883, 3126.306
985.1704, 2840.509
985.6525, 2585.431
986.1346, 2360.954
986.6168, 2168.919
987.0989, 2008.917
987.5810, 1868.092
988.0631, 1741.666
988.5452, 1628.427
989.0273, 1529.731
989.5095, 1444.038
989.9916, 1369.093
990.4737, 1311.691
990.9558, 1253.229
991.4379, 1191.314
991.9200, 1128.787
992.4022, 1068.339
992.8843, 1011.392
993.3664, 962.5486
993.8485, 923.9247
994.3306, 888.4603
994.8127, 849.0021
995.2949, 812.1381
995.7770, 786.0388
996.2591, 773.2113
996.7412, 752.4681
997.2233, 721.1425
997.7054, 692.3048
998.1876, 675.8349
998.6697, 666.7450
999.1518, 653.8885
999.6339, 638.1647
1000.116, 623.0408
1000.598, 612.8849
1001.080, 600.0983
1001.562, 579.1267
1002.044, 555.1509
1002.527, 537.1947
1003.009, 525.7581
1003.491, 514.8627
1003.973, 503.3389
1004.455, 493.4195
1004.937, 489.6934
1005.419, 488.2080
1005.901, 484.2001
1006.384, 476.6897
1006.866, 466.9157
1007.348, 452.2173
1007.830, 439.8710
1008.312, 435.4760
1008.794, 437.1874
1009.276, 433.3480
1009.758, 424.5893
1010.240, 416.0958
1010.723, 411.4734
1011.205, 407.4982
1011.687, 401.3763
1012.169, 394.4461
1012.651, 390.8693
1013.133, 393.4505
1013.615, 390.3429
1014.097, 378.0072
1014.580, 364.1600
1015.062, 360.6255
1015.544, 363.1311
1016.026, 363.1495
1016.508, 358.4373
1016.990, 355.3333
1017.472, 358.9667
1017.954, 362.5399
1018.436, 362.2656
1018.919, 358.2725
1019.401, 352.5609
1019.883, 345.1236
1020.365, 338.6445
1020.847, 335.3776
1021.329, 333.2196
1021.811, 329.9152
1022.293, 326.0961
1022.776, 323.2677
1023.258, 322.1639
1023.740, 321.3635
1024.222, 320.8079
1024.704, 320.3813
1025.186, 319.6339
1025.668, 318.8752
1026.150, 319.9296
1026.632, 323.3276
1027.115, 324.6682
1027.597, 318.1498
1028.079, 311.3265
1028.561, 309.5801
1029.043, 312.7007
1029.525, 316.5895
1030.007, 321.6871
1030.489, 323.1796
1030.972, 316.3044
1031.454, 307.4546
1031.936, 307.0992
1032.418, 311.3936
1032.900, 312.1128
1033.382, 301.5263
1033.864, 294.6032
1034.346, 294.0352
1034.828, 295.9143
1035.311, 296.2794
1035.793, 295.2542
1036.275, 294.2556
1036.757, 293.4008
1037.239, 289.7353
1037.721, 275.3795
1038.203, 262.4231
1038.685, 262.0142
1039.167, 272.6776
1039.650, 276.1025
1040.132, 270.0240
1040.614, 267.0280
1041.096, 273.4076
1041.578, 281.5615
1042.060, 276.9241
1042.542, 265.6511
1043.024, 259.5334
1043.507, 265.8113
1043.989, 270.0101
1044.471, 268.3964
1044.953, 265.2514
1045.435, 264.0619
1045.917, 264.5835
1046.399, 263.0375
1046.881, 259.4783
1047.364, 256.3523
1047.846, 254.7457
1048.328, 254.6626
1048.810, 257.2287
1049.292, 261.4921
1049.774, 263.3345
1050.256, 261.8739
1050.738, 260.9416
1051.220, 261.1998
1051.703, 262.5446
1052.185, 266.4579
1052.667, 270.7737
1053.149, 270.9753
1053.631, 264.7842
1054.113, 261.2642
1054.595, 266.7178
1055.077, 270.8172
1055.559, 266.8570
1056.042, 256.7061
1056.524, 253.4533
1057.006, 256.4834
1057.488, 260.7606
1057.970, 264.8696
1058.452, 267.9927
1058.934, 269.2692
1059.416, 269.3166
1059.899, 269.2562
1060.381, 268.8904
1060.863, 269.4652
1061.345, 271.3474
1061.827, 273.0480
1062.309, 272.9085
1062.791, 271.6753
1063.273, 269.8837
1063.755, 267.6535
1064.238, 267.2296
1064.720, 271.8949
1065.202, 274.9058
1065.684, 273.8006
1066.166, 270.0444
1066.648, 267.7684
1067.130, 266.6066
1067.612, 264.2777
1068.094, 258.5648
1068.577, 255.1518
1069.059, 260.4280
1069.541, 267.6320
1070.023, 269.7881
1070.505, 265.4875
1070.987, 264.2052
1071.469, 266.1702
1071.951, 268.7192
1072.434, 270.3481
1072.916, 271.3149
1073.398, 271.5970
1073.880, 271.4639
1074.362, 271.8210
1074.844, 273.3329
1075.326, 274.6125
1075.808, 275.6219
1076.291, 276.1257
1076.773, 275.4589
1077.255, 274.0534
1077.737, 273.1035
1078.219, 272.7871
1078.701, 272.9121
1079.183, 273.7408
1079.665, 274.6365
1080.147, 275.2057
1080.630, 275.5556
1081.112, 276.2171
1081.594, 277.2019
1082.076, 279.1548
1082.558, 283.6288
1083.040, 286.6389
1083.522, 282.0429
1084.004, 274.9666
1084.486, 272.7311
1084.969, 278.7346
1085.451, 281.7935
1085.933, 281.5288
1086.415, 279.6635
1086.897, 276.0504
1087.379, 272.4413
1087.861, 272.4900
1088.343, 275.4927
1088.826, 278.2218
1089.308, 280.0405
1089.790, 280.5208
1090.272, 278.7103
1090.754, 276.6586
1091.236, 278.5865
1091.718, 283.3011
1092.200, 284.6836
1092.682, 281.5484
1093.165, 279.0562
1093.647, 280.4879
1094.129, 283.6210
1094.611, 287.7609
1095.093, 292.4930
1095.575, 294.9446
1096.057, 295.0436
1096.539, 294.6171
1097.022, 294.2596
1097.504, 293.8200
1097.986, 292.7241
1098.468, 291.6307
1098.950, 291.3333
1099.432, 291.3109
1099.914, 294.4122
1100.396, 301.6531
1100.879, 308.5400
1101.361, 311.7871
1101.843, 312.4314
1102.325, 312.2741
1102.807, 311.3343
1103.289, 309.6195
1103.771, 304.4585
1104.253, 302.4117
1104.735, 305.6804
1105.218, 310.8798
1105.700, 313.2622
1106.182, 313.3829
1106.664, 313.5610
1107.146, 314.0511
1107.628, 315.1925
1108.110, 317.6304
1108.592, 320.3542
1109.074, 322.6181
1109.557, 324.6866
1110.039, 327.9550
1110.521, 332.4771
1111.003, 335.6285
1111.485, 335.9910
1111.967, 336.6403
1112.449, 342.3235
1112.931, 348.7809
1113.414, 350.7419
1113.896, 346.3471
1114.378, 344.9005
1114.860, 346.9618
1115.342, 349.4720
1115.824, 349.5782
1116.306, 350.0494
1116.788, 356.7489
1117.271, 367.0796
1117.753, 375.3539
1118.235, 379.7082
1118.717, 381.6541
1119.199, 380.9933
1119.681, 378.7256
1120.163, 374.0513
1120.645, 368.8288
1121.127, 369.5062
1121.609, 375.7726
1122.092, 381.9952
1122.574, 386.4099
1123.056, 388.7892
1123.538, 387.9371
1124.020, 386.0875
1124.502, 388.0404
1124.984, 393.3541
1125.466, 398.3423
1125.949, 402.2453
1126.431, 405.9554
1126.913, 411.3311
1127.395, 415.6150
1127.877, 415.3297
1128.359, 411.5166
1128.841, 413.6182
1129.323, 422.0695
1129.806, 428.4562
1130.288, 428.1842
1130.770, 427.9085
1131.252, 436.6254
1131.734, 448.3554
1132.216, 454.7235
1132.698, 452.8264
1133.180, 453.4397
1133.662, 457.3126
1134.145, 460.5013
1134.627, 458.5515
1135.109, 455.6846
1135.591, 458.2502
1136.073, 465.3421
1136.555, 474.5889
1137.037, 490.3522
1137.519, 500.2457
1138.001, 501.8963
1138.484, 501.0608
1138.966, 504.0799
1139.448, 509.1024
1139.930, 511.2699
1140.412, 510.6366
1140.894, 510.0713
1141.376, 509.6334
1141.858, 511.1490
1142.341, 516.2347
1142.823, 522.1892
1143.305, 523.4026
1143.787, 521.0095
1144.269, 520.4512
1144.751, 522.8449
1145.233, 524.7051
1145.715, 521.1879
1146.198, 519.7161
1146.680, 525.6883
1147.162, 536.7808
1147.644, 540.6171
1148.126, 537.9037
1148.608, 538.1729
1149.090, 545.3545
1149.572, 553.9706
1150.054, 561.9072
1150.536, 567.8282
1151.019, 569.8538
1151.501, 567.6006
1151.983, 568.3805
1152.465, 572.3646
1152.947, 575.1407
1153.429, 572.2042
1153.911, 569.3866
1154.393, 575.3231
1154.876, 584.2835
1155.358, 585.4551
1155.840, 574.7756
1156.322, 567.6943
1156.804, 565.0456
1157.286, 562.9470
1157.768, 558.9776
1158.250, 553.2651
1158.733, 545.1290
1159.215, 535.3148
1159.697, 526.3237
1160.179, 518.8499
1160.661, 512.0039
1161.143, 506.6393
1161.625, 499.0716
1162.107, 480.6134
1162.589, 458.9247
1163.072, 449.5128
1163.554, 452.4616
1164.036, 450.0443
1164.518, 434.2953
1165.000, 418.6873
1165.482, 405.3999
1165.964, 395.3291
1166.446, 393.7352
1166.928, 395.9424
1167.411, 389.9808
1167.893, 372.0661
1168.375, 357.6638
1168.857, 354.5068
1169.339, 352.4281
1169.821, 348.2295
1170.303, 342.0815
1170.785, 332.6980
1171.268, 321.6546
1171.750, 313.9869
1172.232, 312.1499
1172.714, 311.7916
1173.196, 312.6415
1173.678, 313.1387
1174.160, 312.9136
1174.642, 311.5833
1175.125, 304.7526
1175.607, 293.7120
1176.089, 285.9582
1176.571, 288.6449
1177.053, 290.4672
1177.535, 284.7028
1178.017, 277.0673
1178.499, 272.8361
1178.981, 271.9370
1179.464, 271.1819
1179.946, 270.4242
1180.428, 268.5176
1180.910, 262.5616
1181.392, 257.6491
1181.874, 258.0663
1182.356, 260.4227
1182.838, 258.7018
1183.320, 252.6187
1183.803, 251.8266
1184.285, 257.2541
1184.767, 261.7644
1185.249, 258.9452
1185.731, 254.3939
1186.213, 252.1985
1186.695, 251.2809
1187.177, 247.5250
1187.660, 240.5028
1188.142, 237.9039
1188.624, 241.4699
1189.106, 245.6944
1189.588, 247.0926
1190.070, 246.0117
1190.552, 241.2424
1191.034, 233.7390
1191.516, 229.9171
1191.999, 230.1893
1192.481, 229.9958
1192.963, 228.0191
1193.445, 225.7816
1193.927, 224.5322
1194.409, 223.9756
1194.891, 224.2171
1195.373, 225.2610
1195.855, 224.3838
1196.338, 221.2326
1196.820, 219.4577
1197.302, 221.6178
1197.784, 223.3890
1198.266, 218.5861
1198.748, 211.3466
1199.230, 206.8288
1199.712, 205.8168
1200.195, 206.5494
1200.677, 209.4582
1201.159, 210.9907
1201.641, 208.0913
1202.123, 204.3051
1202.605, 204.5795
1203.087, 206.4479
1203.569, 205.5639
1204.052, 199.9450
1204.534, 196.5231
1205.016, 195.5868
1205.498, 194.9649
1205.980, 192.6209
1206.462, 190.1893
1206.944, 189.8787
1207.426, 190.8841
1207.908, 191.2999
1208.391, 190.4538
1208.873, 190.9244
1209.355, 193.3686
1209.837, 194.1688
1210.319, 187.4598
1210.801, 179.5946
1211.283, 178.3727
1211.765, 182.3979
1212.247, 186.3140
1212.730, 190.1971
1213.212, 192.0605
1213.694, 191.5615
1214.176, 189.6040
1214.658, 184.7515
1215.140, 180.5630
1215.622, 182.5862
1216.104, 189.6265
1216.587, 193.1506
1217.069, 191.7738
1217.551, 189.8969
1218.033, 188.0217
1218.515, 186.7137
1218.997, 187.1807
1219.479, 188.1707
1219.961, 188.6029
1220.443, 188.2541
1220.926, 185.9900
1221.408, 180.8247
1221.890, 178.1243
1222.372, 179.8070
1222.854, 181.9956
1223.336, 179.3908
1223.818, 175.1086
1224.300, 172.7053
1224.782, 172.6981
1225.265, 172.5635
1225.747, 172.0572
1226.229, 172.7879
1226.711, 175.9149
1227.193, 178.6346
1227.675, 176.7188
1228.157, 172.9374
1228.639, 170.5387
1229.122, 169.9889
1229.604, 169.8652
1230.086, 170.3825
1230.568, 169.8088
1231.050, 167.0803
1231.532, 163.8151
1232.014, 161.2763
1232.496, 159.6343
1232.979, 159.6939
1233.461, 161.9739
1233.943, 159.9101
1234.425, 152.8115
1234.907, 148.6892
1235.389, 153.2312
1235.871, 159.2657
1236.353, 159.5685
1236.835, 157.1800
1237.318, 155.9665
1237.800, 156.1798
1238.282, 157.6797
1238.764, 160.6210
1239.246, 161.3500
1239.728, 156.0534
1240.210, 149.9724
1240.692, 146.9875
1241.175, 146.2852
1241.657, 146.8261
1242.139, 148.7268
1242.621, 151.0487
1243.103, 153.8282
1243.585, 154.9649
1244.067, 151.6317
1244.549, 147.9275
1245.031, 147.1284
1245.514, 147.3429
1245.996, 145.3302
1246.478, 140.5782
1246.960, 140.9211
1247.442, 146.1821
1247.924, 150.1443
1248.406, 147.1970
1248.888, 143.5677
1249.370, 143.3918
1249.853, 144.1418
1250.335, 141.9225
1250.817, 136.9266
1251.299, 134.3914
1251.781, 134.5145
1252.263, 136.4378
1252.745, 141.2777
1253.227, 145.9007
1253.710, 149.8903
1254.192, 152.1174
1254.674, 150.3123
1255.156, 145.0719
1255.638, 140.0480
1256.120, 135.6219
1256.602, 133.2172
1257.084, 135.5830
1257.567, 137.6029
1258.049, 137.2710
1258.531, 136.2373
1259.013, 137.1273
1259.495, 139.2556
1259.977, 139.9257
1260.459, 139.0685
1260.941, 138.3727
1261.423, 139.1679
1261.906, 139.4028
1262.388, 138.4982
1262.870, 137.0673
1263.352, 135.4034
1263.834, 134.0801
1264.316, 135.5713
1264.798, 139.6210
1265.280, 140.5544
1265.762, 133.2419
1266.245, 128.3403
1266.727, 128.1214
1267.209, 130.0267
1267.691, 131.5251
1268.173, 132.2822
1268.655, 131.4422
1269.137, 129.0414
1269.619, 126.8747
1270.102, 124.8660
1270.584, 123.8881
1271.066, 124.2861
1271.548, 125.2407
1272.030, 125.6468
1272.512, 126.0591
1272.994, 127.8393
1273.476, 130.7194
1273.958, 130.1231
1274.441, 124.6367
1274.923, 122.8846
1275.405, 127.7049
1275.887, 132.3966
1276.369, 128.8945
1276.851, 122.7405
1277.333, 118.9797
1277.815, 117.5557
1278.297, 115.8885
1278.780, 113.9207
1279.262, 113.4383
1279.744, 115.0951
1280.226, 116.8209
1280.708, 116.8849
1281.190, 116.4413
1281.672, 116.4126
1282.154, 116.5734
1282.637, 116.0967
1283.119, 114.9770
1283.601, 112.7495
1284.083, 108.9195
1284.565, 106.7881
1285.047, 110.7395
1285.529, 114.2155
1286.011, 113.8612
1286.494, 110.9109
1286.976, 107.9461
1287.458, 105.4045
1287.940, 105.3822
1288.422, 108.7502
1288.904, 110.8319
1289.386, 108.8807
1289.868, 106.6140
1290.350, 105.1008
1290.833, 104.1296
1291.315, 102.9625
1291.797, 102.1392
1292.279, 103.2216
1292.761, 106.9049
1293.243, 108.4727
1293.725, 106.4265
1294.207, 105.1315
1294.689, 106.2815
1295.172, 108.2049
1295.654, 109.2253
1296.136, 109.0933
1296.618, 106.8001
1297.100, 101.9124
1297.582, 99.95049
1298.064, 101.2838
1298.546, 103.2451
1299.029, 105.3552
1299.511, 106.6730
1299.993, 105.7473
1300.475, 103.8770
1300.957, 101.6625
1301.439, 99.50546
1301.921, 100.8875
1302.403, 105.5980
1302.885, 107.0806
1303.368, 102.9353
1303.850, 97.88408
1304.332, 92.52866
1304.814, 90.56510
1305.296, 95.90559
1305.778, 105.0548
1306.260, 104.0335
1306.742, 95.61992
1307.224, 91.03984
1307.707, 93.48810
1308.189, 97.39121
1308.671, 103.0547
1309.153, 106.1233
1309.635, 104.1777
1310.117, 99.67792
##END=



