##NAMES=Anglesite
##RRUFFID=R050408
##IDEAL CHEMISTRY=Pb^2+^S^6+^O_4_
##LOCALITY=Tsumeb mine, Tsumeb, Otavi District, Oshikoto, Namibia
##OWNER=RRUFF
##SOURCE=California Institute of Technology
##DESCRIPTION=Pale yellow fragment
##STATUS=The identification of this mineral has been confirmed by X-ray diffraction and chemical analysis
##URL=rruff.info/R050408
##MEASURED CHEMISTRY=Pb_1.00_S_1.00_O_4_
92.35352, 48.87151
92.83563, 43.35015
93.31775, 40.99868
93.79987, 43.34049
94.28198, 49.05468
94.76410, 54.21915
95.24622, 57.56533
95.72833, 60.45371
96.21045, 65.60340
96.69257, 73.07915
97.17468, 82.04851
97.65680, 91.89532
98.13892, 102.6503
98.62103, 113.8829
99.10315, 124.7399
99.58527, 135.7095
100.0674, 149.7048
100.5495, 166.7962
101.0316, 186.5059
101.5137, 208.0295
101.9958, 231.5471
102.4780, 256.6994
102.9601, 282.8188
103.4422, 309.4540
103.9243, 340.2384
104.4064, 377.0822
104.8885, 417.0193
105.3707, 455.4235
105.8528, 490.1491
106.3349, 525.8878
106.8170, 564.1480
107.2991, 605.8747
107.7813, 648.4666
108.2634, 694.0958
108.7455, 741.1163
109.2276, 782.3807
109.7097, 811.3036
110.1918, 839.6102
110.6740, 872.2056
111.1561, 916.7227
111.6382, 957.0980
112.1203, 986.6844
112.6024, 1008.618
113.0845, 1040.368
113.5667, 1091.101
114.0488, 1148.832
114.5309, 1206.094
115.0130, 1256.597
115.4951, 1310.330
115.9772, 1370.877
116.4594, 1438.695
116.9415, 1509.084
117.4236, 1578.534
117.9057, 1650.308
118.3878, 1727.561
118.8699, 1817.680
119.3521, 1909.840
119.8342, 1998.961
120.3163, 2084.509
120.7984, 2169.143
121.2805, 2257.289
121.7626, 2345.445
122.2448, 2427.620
122.7269, 2501.326
123.2090, 2567.541
123.6911, 2626.118
124.1732, 2676.097
124.6553, 2722.394
125.1375, 2770.527
125.6196, 2819.019
126.1017, 2863.194
126.5838, 2898.079
127.0659, 2927.123
127.5480, 2956.220
128.0302, 2985.833
128.5123, 3017.006
128.9944, 3051.272
129.4765, 3088.530
129.9586, 3127.846
130.4407, 3168.295
130.9229, 3210.162
131.4050, 3255.528
131.8871, 3305.402
132.3692, 3357.249
132.8513, 3404.390
133.3334, 3441.264
133.8156, 3459.815
134.2977, 3470.387
134.7798, 3484.646
135.2619, 3483.030
135.7440, 3459.428
136.2261, 3417.550
136.7083, 3370.980
137.1904, 3319.984
137.6725, 3263.850
138.1546, 3201.008
138.6367, 3131.027
139.1188, 3056.251
139.6010, 2976.337
140.0831, 2891.645
140.5652, 2801.785
141.0473, 2702.519
141.5294, 2602.350
142.0115, 2513.983
142.4937, 2439.356
142.9758, 2369.246
143.4579, 2299.230
143.9400, 2227.685
144.4221, 2165.121
144.9042, 2112.739
145.3864, 2068.107
145.8685, 2028.486
146.3506, 1994.187
146.8327, 1963.704
147.3148, 1935.895
147.7969, 1909.343
148.2791, 1888.987
148.7612, 1877.450
149.2433, 1871.821
149.7254, 1865.288
150.2075, 1856.379
150.6896, 1847.941
151.1718, 1841.126
151.6539, 1837.172
152.1360, 1833.034
152.6181, 1828.938
153.1002, 1824.676
153.5823, 1819.633
154.0645, 1814.010
154.5466, 1807.366
155.0287, 1799.552
155.5108, 1791.801
155.9929, 1781.199
156.4750, 1765.844
156.9572, 1746.812
157.4393, 1728.841
157.9214, 1710.905
158.4035, 1695.327
158.8856, 1683.486
159.3677, 1679.319
159.8499, 1675.218
160.3320, 1667.824
160.8141, 1658.023
161.2962, 1651.212
161.7783, 1653.723
162.2604, 1658.051
162.7426, 1658.008
163.2247, 1648.477
163.7068, 1637.116
164.1889, 1627.303
164.6710, 1618.995
165.1531, 1609.915
165.6353, 1599.545
166.1174, 1587.631
166.5995, 1573.901
167.0816, 1554.232
167.5637, 1535.658
168.0458, 1524.411
168.5280, 1520.601
169.0101, 1515.377
169.4922, 1499.970
169.9743, 1480.311
170.4564, 1464.782
170.9385, 1460.515
171.4207, 1459.611
171.9028, 1454.167
172.3849, 1443.663
172.8670, 1434.596
173.3491, 1434.347
173.8312, 1438.991
174.3134, 1441.011
174.7955, 1434.656
175.2776, 1424.877
175.7597, 1416.759
176.2418, 1410.350
176.7239, 1406.830
177.2061, 1408.554
177.6882, 1414.154
178.1703, 1419.847
178.6524, 1425.929
179.1345, 1430.478
179.6166, 1429.387
180.0988, 1421.791
180.5809, 1411.965
181.0630, 1404.611
181.5451, 1399.128
182.0272, 1393.427
182.5093, 1387.085
182.9915, 1379.624
183.4736, 1369.888
183.9557, 1357.534
184.4378, 1343.549
184.9199, 1327.943
185.4020, 1311.291
185.8842, 1295.666
186.3663, 1284.612
186.8484, 1276.025
187.3305, 1262.211
187.8126, 1241.680
188.2947, 1217.841
188.7769, 1195.419
189.2590, 1174.381
189.7411, 1154.075
190.2232, 1133.645
190.7053, 1113.373
191.1874, 1095.034
191.6696, 1079.323
192.1517, 1064.156
192.6338, 1044.733
193.1159, 1020.883
193.5980, 997.4254
194.0801, 977.9875
194.5623, 962.2811
195.0444, 944.6569
195.5265, 924.1659
196.0086, 902.3556
196.4907, 882.3750
196.9728, 864.3027
197.4550, 847.3220
197.9371, 830.7321
198.4192, 814.5076
198.9013, 800.3734
199.3834, 789.2767
199.8655, 779.5806
200.3477, 766.2811
200.8298, 748.4072
201.3119, 731.4667
201.7940, 719.1697
202.2761, 711.9642
202.7582, 704.2762
203.2404, 695.3615
203.7225, 685.8669
204.2046, 677.9581
204.6867, 672.2447
205.1688, 666.0135
205.6509, 657.0953
206.1331, 644.7920
206.6152, 634.2362
207.0973, 626.3106
207.5794, 620.1729
208.0615, 613.1731
208.5436, 605.0012
209.0258, 596.7467
209.5079, 589.0564
209.9900, 581.9460
210.4721, 575.4645
210.9542, 569.7283
211.4363, 564.5787
211.9185, 559.6159
212.4006, 555.0825
212.8827, 550.1506
213.3648, 544.2748
213.8469, 537.0302
214.3290, 530.0586
214.8112, 523.0707
215.2933, 516.5474
215.7754, 512.4178
216.2575, 512.0499
216.7396, 511.4744
217.2217, 507.9620
217.7039, 500.0852
218.1860, 493.8275
218.6681, 490.4128
219.1502, 488.8110
219.6323, 485.1579
220.1144, 478.6671
220.5966, 471.5399
221.0787, 464.9289
221.5608, 458.6882
222.0429, 453.4865
222.5250, 449.8306
223.0071, 447.2117
223.4893, 443.9511
223.9714, 440.0388
224.4535, 435.4755
224.9356, 429.8577
225.4177, 421.8985
225.8998, 416.2021
226.3820, 413.7501
226.8641, 413.6046
227.3462, 412.8625
227.8283, 412.2560
228.3104, 409.9491
228.7925, 404.6297
229.2747, 394.1268
229.7568, 385.2593
230.2389, 377.9859
230.7210, 372.4523
231.2031, 369.7318
231.6852, 371.8227
232.1674, 373.7637
232.6495, 372.9610
233.1316, 367.8598
233.6137, 363.5554
234.0958, 360.7635
234.5779, 358.7603
235.0601, 355.3456
235.5422, 349.0523
236.0243, 343.4202
236.5064, 340.2788
236.9885, 341.4677
237.4706, 340.9896
237.9528, 338.0466
238.4349, 333.6516
238.9170, 330.3751
239.3991, 328.7281
239.8812, 327.4366
240.3633, 326.1111
240.8455, 325.1776
241.3276, 323.0615
241.8097, 319.0951
242.2918, 314.2226
242.7739, 310.5911
243.2560, 308.8012
243.7382, 307.3313
244.2203, 305.7301
244.7024, 304.2410
245.1845, 301.8159
245.6666, 297.6222
246.1487, 292.8986
246.6309, 290.0473
247.1130, 289.9720
247.5951, 290.3058
248.0772, 290.4471
248.5593, 290.7272
249.0414, 289.4741
249.5236, 285.7447
250.0057, 281.0770
250.4878, 278.0594
250.9699, 277.6463
251.4520, 277.1762
251.9341, 275.7761
252.4163, 273.2297
252.8984, 270.7054
253.3805, 267.8101
253.8626, 265.2271
254.3447, 264.2344
254.8268, 265.8547
255.3090, 266.9563
255.7911, 266.6500
256.2732, 264.8442
256.7553, 262.2517
257.2374, 258.0356
257.7195, 253.8520
258.2017, 252.0414
258.6838, 253.9905
259.1659, 255.0959
259.6480, 253.9930
260.1301, 250.5954
260.6122, 247.6490
261.0944, 245.2544
261.5765, 243.1767
262.0586, 241.0904
262.5407, 238.8016
263.0228, 237.1055
263.5049, 236.4999
263.9871, 236.8997
264.4692, 236.0732
264.9513, 233.3816
265.4334, 230.4772
265.9155, 229.0477
266.3976, 229.7305
266.8798, 229.7988
267.3619, 228.6388
267.8440, 226.3992
268.3261, 224.4468
268.8082, 223.0148
269.2903, 221.3887
269.7725, 218.4489
270.2546, 213.4375
270.7367, 211.0405
271.2188, 213.1363
271.7009, 218.1430
272.1830, 218.6494
272.6652, 213.0000
273.1473, 207.3739
273.6294, 206.8637
274.1115, 212.7574
274.5936, 215.5768
275.0757, 213.5105
275.5579, 208.4160
276.0400, 205.8573
276.5221, 206.3777
277.0042, 207.2315
277.4863, 206.7963
277.9684, 204.9848
278.4506, 202.9798
278.9327, 200.6712
279.4148, 198.4477
279.8969, 197.3878
280.3790, 197.6879
280.8611, 197.7815
281.3433, 196.6795
281.8254, 194.3885
282.3075, 192.4192
282.7896, 190.7921
283.2717, 189.5259
283.7538, 188.7718
284.2360, 188.5500
284.7181, 188.3381
285.2002, 187.7112
285.6823, 186.7790
286.1644, 186.8649
286.6465, 188.2821
287.1287, 189.5765
287.6108, 188.3550
288.0929, 184.7774
288.5750, 181.8126
289.0571, 180.8621
289.5392, 181.4081
290.0214, 181.3163
290.5035, 180.5004
290.9856, 179.7628
291.4677, 180.3530
291.9498, 181.9809
292.4319, 182.8271
292.9141, 182.2351
293.3962, 180.5788
293.8783, 178.3615
294.3604, 175.5806
294.8425, 173.1904
295.3246, 172.2712
295.8068, 172.4472
296.2889, 172.4121
296.7710, 171.6126
297.2531, 170.7394
297.7352, 171.5328
298.2173, 173.7342
298.6995, 175.1324
299.1816, 173.4406
299.6637, 169.8281
300.1458, 166.6201
300.6279, 163.9793
301.1100, 162.3615
301.5922, 162.9884
302.0743, 165.3815
302.5564, 167.6032
303.0385, 168.6747
303.5206, 168.8231
304.0027, 168.1940
304.4849, 166.6302
304.9670, 165.0253
305.4491, 164.5145
305.9312, 164.6604
306.4133, 164.4142
306.8954, 162.7122
307.3776, 160.6551
307.8597, 159.5878
308.3418, 159.6878
308.8239, 159.5958
309.3060, 157.7459
309.7881, 155.1184
310.2703, 153.3179
310.7524, 153.8104
311.2345, 154.7393
311.7166, 154.3978
312.1987, 152.8377
312.6808, 152.1149
313.1630, 154.5772
313.6451, 158.0365
314.1272, 160.1534
314.6093, 159.1465
315.0914, 157.5556
315.5735, 156.7212
316.0557, 156.4357
316.5378, 155.6024
317.0199, 151.9453
317.5020, 148.6165
317.9841, 148.1958
318.4662, 154.2371
318.9484, 158.7945
319.4305, 157.7479
319.9126, 153.0876
320.3947, 150.0422
320.8768, 151.3765
321.3589, 153.7601
321.8411, 155.6954
322.3232, 157.1053
322.8053, 157.7244
323.2874, 157.3631
323.7695, 156.2045
324.2516, 154.5386
324.7338, 150.5171
325.2159, 147.7343
325.6980, 147.9379
326.1801, 152.2272
326.6622, 154.8459
327.1443, 154.5036
327.6265, 152.7235
328.1086, 151.0125
328.5907, 148.3617
329.0728, 146.9813
329.5549, 147.6667
330.0370, 150.4492
330.5192, 152.7274
331.0013, 155.3830
331.4834, 156.8154
331.9655, 155.6007
332.4476, 148.3929
332.9297, 144.3921
333.4119, 145.6990
333.8940, 150.9533
334.3761, 154.2335
334.8582, 155.0259
335.3403, 154.5682
335.8224, 153.2010
336.3046, 150.2822
336.7867, 148.3826
337.2688, 147.7208
337.7509, 147.9563
338.2330, 148.2973
338.7151, 148.5168
339.1973, 149.5881
339.6794, 152.5606
340.1615, 157.6084
340.6436, 159.9477
341.1257, 158.9424
341.6078, 156.5841
342.0900, 155.5950
342.5721, 156.1580
343.0542, 155.7438
343.5363, 152.7968
344.0184, 148.3526
344.5005, 147.6421
344.9827, 151.1576
345.4648, 154.8498
345.9469, 154.1617
346.4290, 149.7770
346.9111, 147.2728
347.3932, 148.1247
347.8754, 150.8055
348.3575, 152.5671
348.8396, 153.4577
349.3217, 154.1277
349.8038, 155.1646
350.2859, 156.2857
350.7681, 156.7778
351.2502, 156.5094
351.7323, 155.7839
352.2144, 154.4881
352.6965, 152.9249
353.1786, 152.0495
353.6608, 152.7150
354.1429, 154.1588
354.6250, 155.5060
355.1071, 156.7194
355.5892, 157.8855
356.0714, 159.4500
356.5535, 160.9344
357.0356, 161.6189
357.5177, 160.5428
357.9998, 159.1656
358.4819, 158.7826
358.9641, 159.1669
359.4462, 159.0538
359.9283, 156.7518
360.4104, 154.2175
360.8925, 153.2122
361.3746, 155.0531
361.8568, 156.8613
362.3389, 157.0302
362.8210, 156.2908
363.3031, 156.3082
363.7852, 158.6411
364.2673, 161.0139
364.7495, 162.3408
365.2316, 162.3069
365.7137, 161.9655
366.1958, 160.7225
366.6779, 159.5580
367.1600, 159.6142
367.6422, 162.3787
368.1243, 164.9663
368.6064, 167.0818
369.0885, 168.7418
369.5706, 169.0623
370.0527, 166.8593
370.5349, 164.2397
371.0170, 162.4570
371.4991, 161.0806
371.9812, 161.4191
372.4633, 164.6971
372.9454, 169.7261
373.4276, 172.0622
373.9097, 170.3328
374.3918, 168.3415
374.8739, 167.8603
375.3560, 169.1992
375.8381, 170.7132
376.3203, 172.6433
376.8024, 174.4142
377.2845, 174.8305
377.7666, 173.5378
378.2487, 172.7855
378.7308, 173.2440
379.2130, 174.8614
379.6951, 177.6672
380.1772, 181.9600
380.6593, 186.0173
381.1414, 188.0726
381.6235, 188.2998
382.1057, 188.3271
382.5878, 188.1172
383.0699, 188.3801
383.5520, 190.9322
384.0341, 195.5877
384.5162, 200.2109
384.9984, 203.3871
385.4805, 205.5982
385.9626, 207.9561
386.4447, 210.6228
386.9268, 213.1523
387.4089, 214.7303
387.8911, 215.8183
388.3732, 217.4194
388.8553, 219.6886
389.3374, 222.8607
389.8195, 228.1516
390.3016, 235.2715
390.7838, 240.8380
391.2659, 240.5989
391.7480, 238.5446
392.2301, 238.9426
392.7122, 244.6309
393.1943, 250.6655
393.6765, 254.2045
394.1586, 256.1793
394.6407, 259.1572
395.1228, 264.8522
395.6049, 271.1295
396.0870, 277.0568
396.5692, 282.4686
397.0513, 287.5962
397.5334, 292.7669
398.0155, 297.6071
398.4976, 301.5842
398.9797, 301.9746
399.4619, 304.4034
399.9440, 311.0929
400.4261, 322.0053
400.9082, 330.2984
401.3903, 333.9988
401.8724, 336.9438
402.3546, 341.7114
402.8367, 349.5608
403.3188, 356.3332
403.8009, 361.4815
404.2830, 365.5545
404.7651, 369.5939
405.2473, 372.9372
405.7294, 378.0499
406.2115, 386.7238
406.6936, 399.0367
407.1757, 409.3022
407.6578, 417.1347
408.1400, 424.0369
408.6221, 431.5442
409.1042, 439.6637
409.5863, 448.6493
410.0684, 458.4820
410.5505, 469.2782
411.0327, 482.0421
411.5148, 496.7975
411.9969, 512.3274
412.4790, 527.1346
412.9611, 542.3105
413.4432, 560.1202
413.9254, 581.0673
414.4075, 604.6207
414.8896, 629.9528
415.3717, 657.4750
415.8538, 688.0775
416.3359, 719.5128
416.8181, 755.7349
417.3002, 799.1082
417.7823, 850.3271
418.2644, 909.2972
418.7465, 974.4775
419.2286, 1049.383
419.7108, 1136.427
420.1929, 1237.070
420.6750, 1350.335
421.1571, 1475.422
421.6392, 1613.374
422.1213, 1763.828
422.6035, 1941.183
423.0856, 2117.989
423.5677, 2284.960
424.0498, 2439.058
424.5319, 2587.248
425.0140, 2723.541
425.4962, 2858.586
425.9783, 3003.188
426.4604, 3156.896
426.9425, 3320.807
427.4246, 3493.445
427.9067, 3676.872
428.3889, 3872.662
428.8710, 4075.261
429.3531, 4299.034
429.8352, 4555.128
430.3173, 4840.854
430.7994, 5152.894
431.2816, 5485.991
431.7637, 5852.438
432.2458, 6265.605
432.7279, 6725.703
433.2100, 7227.588
433.6921, 7770.748
434.1743, 8356.358
434.6564, 8978.271
435.1385, 9644.693
435.6206, 10332.20
436.1027, 11060.36
436.5848, 11796.90
437.0670, 12470.38
437.5491, 13095.59
438.0312, 13586.03
438.5133, 13892.83
438.9954, 13998.67
439.4775, 13854.38
439.9597, 13343.92
440.4418, 12630.58
440.9239, 11799.70
441.4060, 10856.42
441.8881, 9970.256
442.3702, 9194.118
442.8524, 8552.281
443.3345, 8062.849
443.8166, 7764.575
444.2987, 7580.221
444.7808, 7507.395
445.2629, 7533.112
445.7451, 7620.269
446.2272, 7783.556
446.7093, 7985.687
447.1914, 8224.275
447.6735, 8523.053
448.1556, 8781.784
448.6378, 9033.466
449.1199, 9220.760
449.6020, 9289.716
450.0841, 9253.836
450.5662, 9067.918
451.0483, 8706.788
451.5305, 8188.882
452.0126, 7592.683
452.4947, 6889.070
452.9768, 6181.737
453.4589, 5507.110
453.9410, 4859.441
454.4232, 4289.819
454.9053, 3793.216
455.3874, 3366.775
455.8695, 3007.561
456.3516, 2711.284
456.8337, 2458.759
457.3159, 2245.971
457.7980, 2067.559
458.2801, 1916.702
458.7622, 1792.551
459.2443, 1684.338
459.7264, 1589.072
460.2086, 1504.872
460.6907, 1432.033
461.1728, 1371.986
461.6549, 1317.129
462.1370, 1264.469
462.6191, 1213.935
463.1013, 1166.651
463.5834, 1124.154
464.0655, 1083.807
464.5476, 1045.318
465.0297, 1008.666
465.5118, 972.2498
465.9940, 935.2461
466.4761, 899.3972
466.9582, 865.8607
467.4403, 834.6393
467.9224, 805.2910
468.4045, 778.4399
468.8867, 753.2665
469.3688, 727.9616
469.8509, 701.4979
470.3330, 677.5695
470.8151, 657.1472
471.2972, 640.0867
471.7794, 625.5048
472.2615, 614.2834
472.7436, 602.7606
473.2257, 587.1959
473.7078, 567.4066
474.1899, 552.1391
474.6721, 542.9733
475.1542, 535.6359
475.6363, 522.8302
476.1184, 505.5598
476.6005, 490.2979
477.0826, 480.3102
477.5648, 473.5006
478.0469, 466.8296
478.5290, 460.2259
479.0111, 453.0407
479.4932, 444.8342
479.9753, 435.7831
480.4575, 425.7071
480.9396, 413.9705
481.4217, 403.1713
481.9038, 396.6889
482.3859, 391.9271
482.8680, 385.1452
483.3502, 371.7800
483.8323, 359.4200
484.3144, 351.7540
484.7965, 348.5037
485.2786, 343.6462
485.7607, 334.7663
486.2429, 325.3307
486.7250, 317.0187
487.2071, 310.3146
487.6892, 303.8942
488.1713, 297.7336
488.6534, 291.8883
489.1356, 286.4294
489.6177, 281.5347
490.0998, 276.3592
490.5819, 270.2827
491.0640, 263.7106
491.5461, 259.2319
492.0283, 257.1177
492.5104, 254.9311
492.9925, 250.6246
493.4746, 244.6448
493.9567, 239.6531
494.4388, 235.8194
494.9210, 232.6836
495.4031, 230.0629
495.8852, 227.7064
496.3673, 224.8960
496.8494, 221.1359
497.3315, 217.0488
497.8137, 213.0321
498.2958, 209.1183
498.7779, 205.6179
499.2600, 202.5044
499.7421, 199.9422
500.2242, 198.4199
500.7064, 198.4552
501.1885, 197.3274
501.6706, 193.0465
502.1527, 187.7381
502.6348, 183.6160
503.1169, 181.6977
503.5991, 180.1203
504.0812, 178.8463
504.5633, 177.7958
505.0454, 176.6260
505.5275, 175.2709
506.0096, 173.9394
506.4918, 172.6514
506.9739, 171.3626
507.4560, 170.6765
507.9381, 170.8496
508.4202, 170.9325
508.9023, 169.8961
509.3845, 167.7871
509.8666, 165.3021
510.3487, 162.3552
510.8308, 159.4873
511.3129, 157.8375
511.7950, 157.1707
512.2772, 156.3862
512.7593, 154.6482
513.2414, 152.6123
513.7235, 150.9890
514.2056, 149.7941
514.6877, 148.9146
515.1699, 148.7206
515.6520, 148.5774
516.1341, 147.7929
516.6162, 145.6252
517.0983, 143.9644
517.5804, 144.0439
518.0626, 144.8915
518.5447, 144.9133
519.0268, 143.2895
519.5089, 141.4035
519.9910, 139.5548
520.4731, 137.7276
520.9553, 135.6772
521.4374, 133.0039
521.9195, 130.7365
522.4016, 129.5025
522.8837, 129.4599
523.3658, 129.7682
523.8480, 130.5701
524.3301, 131.4086
524.8122, 131.8387
525.2943, 131.8429
525.7764, 130.9094
526.2585, 128.3438
526.7407, 125.4062
527.2228, 124.8489
527.7049, 126.2514
528.1870, 127.1687
528.6691, 125.4880
529.1512, 122.8424
529.6334, 121.3251
530.1155, 121.1111
530.5976, 120.6039
531.0797, 117.8571
531.5618, 114.7962
532.0439, 113.4238
532.5261, 115.6375
533.0082, 117.5330
533.4903, 118.1651
533.9724, 117.8144
534.4545, 117.0882
534.9366, 115.6915
535.4188, 114.3164
535.9009, 113.0224
536.3830, 111.8199
536.8651, 111.2272
537.3472, 111.5928
537.8293, 111.8896
538.3115, 111.2661
538.7936, 109.6210
539.2757, 108.4891
539.7578, 107.9019
540.2399, 107.9774
540.7220, 109.5954
541.2042, 112.3119
541.6863, 113.5941
542.1684, 112.0010
542.6505, 109.3861
543.1326, 108.3417
543.6147, 108.5824
544.0969, 109.0094
544.5790, 108.9016
545.0611, 108.7611
545.5432, 109.1860
546.0253, 110.2661
546.5074, 110.9088
546.9896, 110.2056
547.4717, 109.1183
547.9538, 108.4241
548.4359, 108.4959
548.9180, 108.6382
549.4001, 108.8263
549.8823, 109.0427
550.3644, 109.2449
550.8465, 109.3615
551.3286, 109.6072
551.8107, 110.0531
552.2928, 110.6813
552.7750, 111.4692
553.2571, 112.5410
553.7392, 113.1945
554.2213, 112.4303
554.7034, 110.6603
555.1855, 110.5497
555.6677, 112.4109
556.1498, 114.5348
556.6319, 115.0021
557.1140, 114.3967
557.5961, 113.9261
558.0782, 114.0715
558.5604, 114.2249
559.0425, 113.4916
559.5246, 112.3919
560.0067, 112.0969
560.4888, 114.4408
560.9709, 116.4687
561.4531, 116.2640
561.9352, 113.7900
562.4173, 112.6203
562.8994, 114.7762
563.3815, 117.1005
563.8636, 117.8518
564.3458, 115.8717
564.8279, 115.5456
565.3100, 117.4871
565.7921, 120.3042
566.2742, 122.2522
566.7563, 123.2876
567.2385, 123.9431
567.7206, 124.1605
568.2027, 124.2686
568.6848, 125.3958
569.1669, 127.3299
569.6490, 128.3503
570.1312, 126.4547
570.6133, 123.5922
571.0954, 122.2833
571.5775, 122.5832
572.0596, 124.5228
572.5417, 130.0819
573.0239, 136.1484
573.5060, 139.7740
573.9881, 139.6994
574.4702, 139.3391
574.9523, 139.7919
575.4344, 140.4918
575.9166, 140.6923
576.3987, 138.5384
576.8808, 138.3760
577.3629, 141.7744
577.8450, 147.3815
578.3271, 150.5360
578.8093, 150.3556
579.2914, 150.3185
579.7735, 151.8774
580.2556, 154.8309
580.7377, 158.0780
581.2198, 161.6664
581.7020, 164.8208
582.1841, 165.9609
582.6662, 166.2517
583.1483, 168.9221
583.6304, 174.7233
584.1125, 180.8850
584.5947, 184.2394
585.0768, 186.5628
585.5589, 190.4634
586.0410, 197.5425
586.5231, 205.5690
587.0052, 213.6055
587.4874, 221.8850
587.9695, 230.8654
588.4516, 239.5933
588.9337, 250.2552
589.4158, 263.8094
589.8979, 280.2752
590.3801, 296.8672
590.8622, 313.7972
591.3443, 330.5528
591.8264, 346.2882
592.3085, 360.9178
592.7906, 376.6479
593.2728, 393.4054
593.7549, 411.9583
594.2370, 433.9068
594.7191, 458.8203
595.2012, 484.5997
595.6833, 511.0921
596.1655, 537.8930
596.6476, 563.3136
597.1297, 588.5715
597.6118, 617.0740
598.0939, 652.6949
598.5760, 689.8511
599.0582, 724.0939
599.5403, 755.7183
600.0224, 793.0901
600.5045, 841.8621
600.9866, 893.5229
601.4688, 944.8759
601.9509, 995.8461
602.4330, 1047.358
602.9151, 1101.334
603.3972, 1152.689
603.8793, 1198.460
604.3615, 1239.582
604.8436, 1268.265
605.3257, 1283.695
605.8078, 1285.515
606.2899, 1270.916
606.7720, 1241.203
607.2542, 1202.933
607.7363, 1156.804
608.2184, 1105.102
608.7005, 1049.403
609.1826, 990.3214
609.6647, 932.0168
610.1469, 875.9845
610.6290, 820.7990
611.1111, 765.2621
611.5932, 708.4630
612.0753, 656.3595
612.5574, 609.5250
613.0396, 567.7186
613.5217, 530.6746
614.0038, 498.2013
614.4859, 470.1258
614.9680, 446.6082
615.4501, 427.2511
615.9323, 412.3538
616.4144, 402.1583
616.8965, 392.6115
617.3786, 383.0582
617.8607, 373.8045
618.3428, 366.1121
618.8250, 359.4164
619.3071, 351.3558
619.7892, 341.0825
620.2713, 328.7461
620.7534, 313.2900
621.2355, 295.3850
621.7177, 278.7790
622.1998, 263.9439
622.6819, 252.0022
623.1640, 243.6395
623.6461, 239.1155
624.1282, 236.7741
624.6104, 236.2685
625.0925, 237.9958
625.5746, 242.3615
626.0567, 250.0442
626.5388, 258.7249
627.0209, 268.5381
627.5031, 278.8668
627.9852, 289.1369
628.4673, 299.2278
628.9494, 308.3658
629.4315, 316.0838
629.9136, 323.2858
630.3958, 330.7869
630.8779, 338.7926
631.3600, 347.8474
631.8421, 357.8894
632.3242, 369.3470
632.8063, 383.2736
633.2885, 399.1332
633.7706, 414.6747
634.2527, 428.1966
634.7348, 441.9811
635.2169, 457.1802
635.6990, 473.7503
636.1812, 491.6133
636.6633, 510.6917
637.1454, 531.2446
637.6275, 553.5388
638.1096, 578.0761
638.5917, 602.6002
639.0739, 627.8067
639.5560, 651.2154
640.0381, 671.4499
640.5202, 687.8964
641.0023, 697.8939
641.4844, 701.7637
641.9666, 697.1732
642.4487, 682.7385
642.9308, 657.9283
643.4129, 622.0106
643.8950, 564.8354
644.3771, 505.7809
644.8593, 450.9798
645.3414, 401.2611
645.8235, 356.8802
646.3056, 318.9960
646.7877, 286.5700
647.2698, 260.6269
647.7520, 241.1479
648.2341, 222.0638
648.7162, 202.6868
649.1983, 185.6753
649.6804, 173.8048
650.1625, 166.6238
650.6447, 160.1185
651.1268, 154.1736
651.6089, 148.3111
652.0910, 141.5917
652.5731, 134.8084
653.0552, 129.2421
653.5374, 125.2153
654.0195, 122.5582
654.5016, 122.6370
654.9837, 123.5461
655.4658, 122.4911
655.9479, 114.8756
656.4301, 109.7310
656.9122, 110.7953
657.3943, 115.5063
657.8764, 116.6652
658.3585, 112.4714
658.8406, 109.0222
659.3228, 108.6930
659.8049, 110.6433
660.2870, 110.1727
660.7691, 107.1805
661.2512, 104.4080
661.7333, 103.8628
662.2155, 104.6971
662.6976, 105.5017
663.1797, 106.2091
663.6618, 106.6286
664.1439, 106.2001
664.6260, 105.6809
665.1082, 106.0063
665.5903, 107.9076
666.0724, 108.6136
666.5545, 106.1727
667.0366, 102.9817
667.5187, 101.2388
668.0009, 101.4505
668.4830, 102.2451
668.9651, 104.1354
669.4472, 105.8851
669.9293, 105.1994
670.4114, 102.0506
670.8936, 98.94257
671.3757, 96.26868
671.8578, 94.39150
672.3399, 94.59730
672.8220, 96.22784
673.3041, 97.03825
673.7863, 95.36382
674.2684, 92.93114
674.7505, 90.34842
675.2326, 87.88188
675.7147, 86.75086
676.1968, 89.04412
676.6790, 91.14649
677.1611, 91.28050
677.6432, 89.35414
678.1253, 87.83709
678.6074, 86.69926
679.0895, 86.05241
679.5717, 86.26341
680.0538, 87.33363
680.5359, 87.48251
681.0180, 86.60519
681.5001, 85.37437
681.9822, 84.68106
682.4644, 84.08459
682.9465, 82.40892
683.4286, 79.02905
683.9107, 76.25237
684.3928, 76.14323
684.8749, 77.38324
685.3571, 78.36090
685.8392, 78.98295
686.3213, 78.94116
686.8034, 77.45485
687.2855, 75.50718
687.7676, 74.75987
688.2498, 75.85621
688.7319, 76.49596
689.2140, 76.11739
689.6961, 75.07518
690.1782, 74.23428
690.6603, 73.59494
691.1425, 73.17127
691.6246, 73.25336
692.1067, 73.36560
692.5888, 72.53345
693.0709, 70.99209
693.5530, 69.75711
694.0352, 69.41724
694.5173, 69.54905
694.9994, 70.11900
695.4815, 71.13329
695.9636, 71.65701
696.4457, 71.31670
696.9279, 70.67284
697.4100, 69.80477
697.8921, 68.54234
698.3742, 68.39282
698.8563, 69.69210
699.3384, 71.06987
699.8206, 71.08540
700.3027, 70.06541
700.7848, 69.66800
701.2669, 70.15388
701.7490, 70.58628
702.2311, 69.97252
702.7133, 68.78333
703.1954, 67.52481
703.6775, 65.75644
704.1596, 65.15047
704.6417, 67.41248
705.1238, 70.83739
705.6060, 73.02443
706.0881, 73.51424
706.5702, 73.30495
707.0523, 72.11187
707.5344, 70.53504
708.0165, 69.98679
708.4987, 70.55338
708.9808, 70.77989
709.4629, 70.04701
709.9450, 68.96016
710.4271, 68.76561
710.9092, 69.24305
711.3914, 69.56805
711.8735, 68.97733
712.3556, 68.36498
712.8377, 68.71053
713.3198, 69.71893
713.8019, 69.89986
714.2841, 67.47259
714.7662, 65.52908
715.2483, 65.27557
715.7304, 66.66142
716.2125, 68.55153
716.6946, 71.64382
717.1768, 73.37083
717.6589, 71.16171
718.1410, 65.78098
718.6231, 63.60927
719.1052, 64.69044
719.5873, 66.33247
720.0695, 66.06453
720.5516, 65.22951
721.0337, 65.76864
721.5158, 68.07816
721.9979, 70.19908
722.4800, 71.49593
722.9622, 72.06794
723.4443, 71.83473
723.9264, 69.75387
724.4085, 69.33788
724.8906, 71.79102
725.3727, 74.48719
725.8549, 74.44914
726.3370, 71.44723
726.8191, 69.17449
727.3012, 68.12447
727.7833, 67.71318
728.2654, 67.32217
728.7476, 66.99861
729.2297, 66.86767
729.7118, 67.01644
730.1939, 67.25627
730.6760, 67.14101
731.1581, 67.11790
731.6403, 67.87180
732.1224, 71.09154
732.6045, 73.17429
733.0866, 73.25856
733.5687, 72.05815
734.0508, 70.93180
734.5330, 69.78102
735.0151, 69.11980
735.4972, 69.11327
735.9793, 69.63110
736.4614, 70.74498
736.9435, 72.25761
737.4257, 73.15175
737.9078, 72.58456
738.3899, 71.43001
738.8720, 70.18951
739.3541, 68.98356
739.8362, 68.25520
740.3184, 68.80128
740.8005, 69.21752
741.2826, 68.65173
741.7647, 67.30037
742.2468, 66.94563
742.7289, 67.93683
743.2111, 69.05141
743.6932, 69.79456
744.1753, 70.19258
744.6574, 70.42953
745.1395, 70.49919
745.6216, 70.24284
746.1038, 69.22448
746.5859, 67.99684
747.0680, 67.04430
747.5501, 66.42142
748.0322, 66.62993
748.5143, 69.48373
748.9965, 71.98469
749.4786, 71.92324
749.9607, 68.40556
750.4428, 66.38776
750.9249, 66.12704
751.4070, 66.86494
751.8892, 68.62492
752.3713, 71.37756
752.8534, 72.05087
753.3355, 70.38374
753.8176, 68.42683
754.2997, 68.20390
754.7819, 68.91499
755.2640, 69.32076
755.7461, 69.18059
756.2282, 69.05321
756.7103, 69.42762
757.1924, 69.82926
757.6746, 69.82371
758.1567, 69.06140
758.6388, 68.47366
759.1209, 68.06684
759.6030, 67.81910
760.0851, 67.81731
760.5673, 68.07995
761.0494, 67.77726
761.5315, 66.61678
762.0136, 65.73298
762.4957, 67.21667
762.9778, 69.80184
763.4600, 70.95383
763.9421, 69.40482
764.4242, 67.87197
764.9063, 68.10648
765.3884, 69.09794
765.8705, 69.61107
766.3527, 69.41093
766.8348, 68.68490
767.3169, 66.71761
767.7990, 64.87901
768.2811, 65.79392
768.7632, 69.65929
769.2454, 72.09866
769.7275, 71.97660
770.2096, 70.70428
770.6917, 70.12180
771.1738, 69.92641
771.6559, 69.37296
772.1381, 67.41191
772.6202, 66.15361
773.1023, 67.31999
773.5844, 69.82478
774.0665, 71.76563
774.5486, 73.31764
775.0308, 73.55409
775.5129, 71.59077
775.9950, 68.75868
776.4771, 68.36342
776.9592, 70.50473
777.4413, 72.03914
777.9235, 71.88557
778.4056, 70.93607
778.8877, 70.41177
779.3698, 70.19849
779.8519, 70.00140
780.3340, 69.89313
780.8162, 69.56095
781.2983, 68.20125
781.7804, 66.49887
782.2625, 66.41870
782.7446, 69.20251
783.2267, 71.74223
783.7089, 73.67860
784.1910, 74.83022
784.6731, 74.23799
785.1552, 71.92136
785.6373, 70.25252
786.1194, 70.42488
786.6016, 71.47165
787.0837, 72.31730
787.5658, 72.89827
788.0479, 73.02281
788.5300, 72.27478
789.0121, 71.37874
789.4943, 70.57949
789.9764, 69.88483
790.4585, 69.23523
790.9406, 68.28690
791.4227, 68.12694
791.9048, 69.40340
792.3870, 71.48805
792.8691, 72.18662
793.3512, 71.59551
793.8333, 71.10441
794.3154, 71.34323
794.7975, 72.04884
795.2797, 73.35564
795.7618, 74.93544
796.2439, 75.67973
796.7260, 74.19141
797.2081, 72.79002
797.6902, 72.29704
798.1724, 72.61845
798.6545, 73.57596
799.1366, 75.74283
799.6187, 76.92940
800.1008, 76.05222
800.5829, 73.92656
801.0651, 72.99524
801.5472, 73.12150
802.0293, 73.40852
802.5114, 73.57442
802.9935, 73.53139
803.4756, 72.86739
803.9578, 71.87291
804.4399, 71.52556
804.9220, 72.38924
805.4041, 73.70173
805.8862, 75.91470
806.3683, 78.40632
806.8505, 78.11021
807.3326, 74.29778
807.8147, 71.27562
808.2968, 70.88710
808.7789, 72.11234
809.2610, 72.94606
809.7432, 73.42223
810.2253, 73.67882
810.7074, 73.56492
811.1895, 73.46298
811.6716, 73.56154
812.1537, 73.86592
812.6359, 74.39996
813.1180, 75.88325
813.6001, 76.55354
814.0822, 75.57018
814.5643, 73.61205
815.0464, 73.22743
815.5286, 74.43574
816.0107, 76.04729
816.4928, 77.98225
816.9749, 79.62346
817.4570, 79.98351
817.9391, 79.26014
818.4213, 78.03259
818.9034, 75.43623
819.3855, 73.57288
819.8676, 73.50338
820.3497, 74.91822
820.8318, 76.77433
821.3140, 79.76584
821.7961, 81.34560
822.2782, 80.17802
822.7603, 77.88432
823.2424, 79.18938
823.7245, 83.41222
824.2067, 86.02583
824.6888, 83.94478
825.1709, 81.09107
825.6530, 81.23454
826.1351, 83.33766
826.6172, 85.07100
827.0994, 85.59436
827.5815, 85.85390
828.0636, 85.46791
828.5457, 85.19722
829.0278, 87.27647
829.5099, 92.36175
829.9921, 95.07477
830.4742, 93.44856
830.9563, 90.12682
831.4384, 88.87799
831.9205, 89.35279
832.4026, 90.73061
832.8848, 93.87731
833.3669, 96.19374
833.8490, 95.59340
834.3311, 93.48972
834.8132, 92.30213
835.2953, 92.40622
835.7775, 93.01969
836.2596, 94.32563
836.7417, 95.76553
837.2238, 96.31949
837.7059, 96.09317
838.1880, 96.04002
838.6702, 96.45021
839.1523, 96.85841
839.6344, 96.67446
840.1165, 96.22582
840.5986, 95.97242
841.0807, 96.01438
841.5629, 96.30469
842.0450, 96.66036
842.5271, 97.37967
843.0092, 98.92361
843.4913, 101.5129
843.9734, 103.7835
844.4556, 105.7131
844.9377, 106.9428
845.4198, 106.1401
845.9019, 104.4924
846.3840, 104.7747
846.8661, 107.9299
847.3483, 110.9593
847.8304, 111.4414
848.3125, 111.4704
848.7946, 113.1565
849.2767, 117.8824
849.7589, 120.8043
850.2410, 121.3222
850.7231, 121.1706
851.2052, 121.7184
851.6873, 122.9145
852.1694, 124.5669
852.6516, 126.6858
853.1337, 128.8497
853.6158, 130.6249
854.0979, 132.3523
854.5800, 134.5063
855.0621, 137.2309
855.5443, 139.5376
856.0264, 140.5989
856.5085, 141.8440
856.9906, 144.0251
857.4727, 147.1334
857.9548, 150.0099
858.4370, 152.6308
858.9191, 155.4202
859.4012, 159.2251
859.8833, 163.1779
860.3654, 165.5927
860.8475, 166.6176
861.3297, 167.8258
861.8118, 169.3321
862.2939, 171.7834
862.7760, 176.3873
863.2581, 182.6160
863.7402, 186.6561
864.2224, 188.0164
864.7045, 188.7140
865.1866, 189.3469
865.6687, 190.0586
866.1508, 191.2615
866.6329, 192.8860
867.1151, 194.5889
867.5972, 195.8484
868.0793, 197.4648
868.5614, 200.3126
869.0435, 203.9349
869.5256, 206.8402
870.0078, 209.0957
870.4899, 210.2493
870.9720, 209.7395
871.4541, 208.5658
871.9362, 209.3028
872.4183, 211.6476
872.9005, 213.0642
873.3826, 212.2834
873.8647, 211.3395
874.3468, 212.3171
874.8289, 214.3992
875.3110, 216.3434
875.7932, 218.3320
876.2753, 219.3532
876.7574, 218.9897
877.2395, 218.0107
877.7216, 216.9401
878.2037, 215.6864
878.6859, 216.4277
879.1680, 219.7082
879.6501, 223.5716
880.1322, 226.2157
880.6143, 227.9793
881.0964, 229.2357
881.5786, 229.9229
882.0607, 230.7398
882.5428, 232.2091
883.0249, 233.6704
883.5070, 234.4205
883.9891, 234.0627
884.4713, 235.8033
884.9534, 240.0389
885.4355, 244.2621
885.9176, 246.0731
886.3997, 246.5843
886.8818, 247.9820
887.3640, 250.3294
887.8461, 253.0262
888.3282, 257.1749
888.8103, 260.2603
889.2924, 259.9428
889.7745, 256.5571
890.2567, 255.5940
890.7388, 257.9464
891.2209, 259.9930
891.7030, 259.8019
892.1851, 258.5678
892.6672, 259.5733
893.1494, 262.4298
893.6315, 265.4120
894.1136, 268.0172
894.5957, 270.1614
895.0778, 271.4664
895.5599, 272.3045
896.0421, 273.6455
896.5242, 276.0882
897.0063, 277.7960
897.4884, 278.0741
897.9705, 278.0356
898.4526, 280.2658
898.9348, 284.1293
899.4169, 286.3647
899.8990, 285.4799
900.3811, 284.9144
900.8632, 287.6705
901.3453, 292.1609
901.8275, 296.7766
902.3096, 302.8174
902.7917, 305.3930
903.2738, 302.7308
903.7559, 299.2314
904.2380, 298.7455
904.7202, 301.0687
905.2023, 305.0696
905.6844, 310.6941
906.1665, 315.0226
906.6486, 313.8964
907.1307, 311.5119
907.6129, 311.8471
908.0950, 315.4333
908.5771, 319.0508
909.0592, 322.1822
909.5413, 325.3890
910.0234, 329.2189
910.5056, 333.3554
910.9877, 335.4093
911.4698, 335.4975
911.9519, 335.7928
912.4340, 337.6201
912.9161, 340.1578
913.3983, 342.6071
913.8804, 345.0621
914.3625, 347.7685
914.8446, 351.6923
915.3267, 354.6459
915.8088, 355.8886
916.2910, 356.2415
916.7731, 356.9483
917.2552, 358.0452
917.7373, 361.1649
918.2194, 367.4259
918.7015, 373.4271
919.1837, 374.7933
919.6658, 373.8485
920.1479, 373.6305
920.6300, 374.4286
921.1121, 377.1281
921.5942, 383.6047
922.0764, 390.0472
922.5585, 392.9461
923.0406, 392.1318
923.5227, 393.2313
924.0048, 396.4813
924.4869, 400.0533
924.9691, 402.3089
925.4512, 404.2042
925.9333, 406.2881
926.4154, 408.7130
926.8975, 413.0371
927.3796, 421.8030
927.8618, 430.2567
928.3439, 437.0369
928.8260, 442.2501
929.3081, 446.5395
929.7902, 449.9272
930.2723, 452.4764
930.7545, 453.4809
931.2366, 454.4992
931.7187, 457.2176
932.2008, 461.3123
932.6829, 466.0972
933.1650, 472.0080
933.6472, 477.8075
934.1293, 482.9850
934.6114, 488.2451
935.0935, 494.9742
935.5756, 503.1949
936.0577, 508.9632
936.5399, 511.1879
937.0220, 514.1722
937.5041, 522.8563
937.9862, 534.2496
938.4683, 544.8478
938.9504, 553.8763
939.4326, 563.1109
939.9147, 572.3228
940.3968, 582.1628
940.8789, 592.8007
941.3610, 604.3004
941.8431, 618.7468
942.3253, 636.1245
942.8074, 652.7450
943.2895, 663.0429
943.7716, 673.8973
944.2537, 692.6786
944.7358, 717.6779
945.2180, 742.3840
945.7001, 764.5645
946.1822, 787.4456
946.6643, 811.8523
947.1464, 837.3952
947.6285, 862.5841
948.1107, 887.8053
948.5928, 915.5822
949.0749, 947.1492
949.5570, 979.4518
950.0391, 1008.431
950.5212, 1037.434
951.0034, 1069.814
951.4855, 1106.511
951.9676, 1146.389
952.4497, 1188.080
952.9318, 1235.158
953.4139, 1290.611
953.8961, 1353.944
954.3782, 1423.173
954.8603, 1497.584
955.3424, 1575.786
955.8245, 1653.942
956.3066, 1737.860
956.7888, 1829.063
957.2709, 1929.552
957.7530, 2045.257
958.2351, 2175.629
958.7172, 2323.590
959.1993, 2491.174
959.6815, 2677.641
960.1636, 2872.770
960.6457, 3082.791
961.1278, 3324.850
961.6099, 3603.352
962.0920, 3920.313
962.5742, 4266.950
963.0563, 4660.351
963.5384, 5113.236
964.0205, 5628.594
964.5026, 6197.347
964.9847, 6816.883
965.4669, 7480.551
965.9490, 8187.059
966.4311, 8926.119
966.9132, 9711.287
967.3953, 10535.62
967.8774, 11391.18
968.3596, 12245.55
968.8417, 13149.17
969.3238, 14121.41
969.8059, 15156.19
970.2880, 16222.34
970.7701, 17320.98
971.2523, 18512.74
971.7344, 19829.88
972.2165, 21252.33
972.6986, 22782.08
973.1807, 24417.70
973.6628, 26138.30
974.1450, 28011.68
974.6271, 29898.91
975.1092, 31878.80
975.5913, 33792.03
976.0734, 35571.57
976.5555, 37219.82
977.0377, 38420.82
977.5198, 39150.10
978.0019, 39282.59
978.4840, 38675.39
978.9661, 37444.66
979.4482, 35591.90
979.9304, 33149.82
980.4125, 30553.29
980.8946, 27683.59
981.3767, 24905.32
981.8588, 22264.77
982.3409, 19797.04
982.8231, 17598.04
983.3052, 15662.02
983.7873, 13965.73
984.2694, 12526.59
984.7515, 11274.17
985.2336, 10189.84
985.7158, 9249.670
986.1979, 8433.657
986.6800, 7754.045
987.1621, 7143.835
987.6442, 6607.698
988.1263, 6126.034
988.6085, 5688.218
989.0906, 5292.662
989.5727, 4953.959
990.0548, 4668.271
990.5369, 4406.792
991.0190, 4156.678
991.5012, 3925.693
991.9833, 3718.784
992.4654, 3534.219
992.9475, 3362.314
993.4296, 3204.334
993.9117, 3060.561
994.3939, 2932.200
994.8760, 2816.082
995.3581, 2710.292
995.8402, 2613.676
996.3223, 2520.864
996.8044, 2430.023
997.2866, 2344.167
997.7687, 2261.422
998.2508, 2184.902
998.7329, 2118.337
999.2150, 2061.767
999.6971, 2003.134
1000.179, 1943.398
1000.661, 1886.294
1001.143, 1834.423
1001.626, 1786.637
1002.108, 1742.739
1002.590, 1702.214
1003.072, 1660.182
1003.554, 1615.196
1004.036, 1573.251
1004.518, 1536.096
1005.000, 1502.346
1005.483, 1471.172
1005.965, 1441.856
1006.447, 1413.343
1006.929, 1385.411
1007.411, 1358.128
1007.893, 1329.959
1008.375, 1303.500
1008.857, 1280.903
1009.339, 1262.346
1009.822, 1242.386
1010.304, 1220.934
1010.786, 1199.791
1011.268, 1180.601
1011.750, 1162.605
1012.232, 1144.421
1012.714, 1126.546
1013.196, 1110.206
1013.679, 1096.471
1014.161, 1083.489
1014.643, 1071.523
1015.125, 1059.852
1015.607, 1047.562
1016.089, 1034.747
1016.571, 1020.953
1017.053, 1005.934
1017.535, 992.9387
1018.018, 985.4952
1018.500, 980.2960
1018.982, 974.7341
1019.464, 968.6176
1019.946, 963.7542
1020.428, 960.7741
1020.910, 956.7450
1021.392, 950.2170
1021.875, 942.0593
1022.357, 932.6342
1022.839, 923.0980
1023.321, 916.2994
1023.803, 914.7367
1024.285, 913.9437
1024.767, 912.9020
1025.249, 912.1008
1025.731, 912.4434
1026.214, 913.9586
1026.696, 912.7338
1027.178, 908.4626
1027.660, 905.9759
1028.142, 911.8339
1028.624, 918.9026
1029.106, 919.4435
1029.588, 914.4362
1030.071, 914.5859
1030.553, 923.1201
1031.035, 930.2951
1031.517, 933.0762
1031.999, 934.5197
1032.481, 941.1925
1032.963, 950.9227
1033.445, 957.8276
1033.927, 959.5491
1034.410, 961.9823
1034.892, 966.9821
1035.374, 974.3738
1035.856, 984.0983
1036.338, 996.2324
1036.820, 1009.093
1037.302, 1022.521
1037.784, 1034.608
1038.266, 1042.475
1038.749, 1049.677
1039.231, 1058.333
1039.713, 1069.182
1040.195, 1083.975
1040.677, 1105.649
1041.159, 1126.588
1041.641, 1146.344
1042.123, 1165.255
1042.605, 1182.069
1043.088, 1198.694
1043.570, 1220.818
1044.052, 1249.034
1044.534, 1278.275
1045.016, 1307.311
1045.498, 1335.073
1045.980, 1359.545
1046.462, 1382.111
1046.945, 1409.744
1047.427, 1442.865
1047.909, 1475.367
1048.391, 1504.232
1048.873, 1533.268
1049.355, 1567.518
1049.837, 1604.281
1050.319, 1639.904
1050.802, 1672.015
1051.284, 1707.510
1051.766, 1747.212
1052.248, 1787.590
1052.730, 1827.058
1053.212, 1864.591
1053.694, 1896.666
1054.176, 1923.717
1054.658, 1947.847
1055.141, 1968.505
1055.623, 1988.212
1056.105, 2008.342
1056.587, 2027.993
1057.069, 2046.512
1057.551, 2063.997
1058.033, 2076.028
1058.515, 2081.782
1058.998, 2084.785
1059.480, 2092.030
1059.962, 2095.427
1060.444, 2085.474
1060.926, 2061.260
1061.408, 2038.823
1061.890, 2020.022
1062.372, 1999.706
1062.854, 1976.617
1063.337, 1950.652
1063.819, 1921.189
1064.301, 1889.224
1064.783, 1857.227
1065.265, 1826.224
1065.747, 1794.290
1066.229, 1759.343
1066.711, 1724.305
1067.193, 1690.678
1067.676, 1658.621
1068.158, 1625.776
1068.640, 1592.130
1069.122, 1559.671
1069.604, 1528.182
1070.086, 1499.255
1070.568, 1475.498
1071.050, 1454.074
1071.532, 1428.738
1072.015, 1397.291
1072.497, 1368.751
1072.979, 1344.035
1073.461, 1321.022
1073.943, 1296.863
1074.425, 1273.270
1074.907, 1252.570
1075.389, 1235.056
1075.872, 1218.391
1076.354, 1202.228
1076.836, 1186.838
1077.318, 1172.751
1077.800, 1159.235
1078.282, 1142.959
1078.764, 1125.236
1079.246, 1110.997
1079.729, 1102.076
1080.211, 1094.227
1080.693, 1086.780
1081.175, 1077.956
1081.657, 1065.914
1082.139, 1050.625
1082.621, 1040.380
1083.103, 1035.227
1083.585, 1027.766
1084.068, 1010.654
1084.550, 992.9246
1085.032, 985.5546
1085.514, 983.2456
1085.996, 976.4582
1086.478, 961.0308
1086.960, 947.7381
1087.442, 936.8701
1087.925, 928.2991
1088.407, 924.0292
1088.889, 921.0685
1089.371, 912.7801
1089.853, 899.8240
1090.335, 888.2791
1090.817, 881.5178
1091.299, 875.1368
1091.781, 868.4215
1092.264, 861.1520
1092.746, 852.4017
1093.228, 842.6737
1093.710, 834.8369
1094.192, 829.5596
1094.674, 824.3757
1095.156, 816.2435
1095.638, 808.9677
1096.120, 805.9598
1096.603, 806.4019
1097.085, 804.4572
1097.567, 800.0654
1098.049, 794.4545
1098.531, 787.5250
1099.013, 780.6733
1099.495, 775.2640
1099.977, 770.7853
1100.459, 766.5297
1100.942, 762.4835
1101.424, 758.5861
1101.906, 754.9475
1102.388, 751.0773
1102.870, 745.9513
1103.352, 740.7144
1103.834, 738.2858
1104.316, 737.5892
1104.799, 735.6627
1105.281, 729.5419
1105.763, 724.9211
1106.245, 723.2125
1106.727, 722.2296
1107.209, 719.4484
1107.691, 715.3190
1108.173, 711.6877
1108.656, 708.6650
1109.138, 706.4345
1109.620, 706.1248
1110.102, 705.4531
1110.584, 702.4859
1111.066, 698.7943
1111.548, 698.3500
1112.030, 701.0495
1112.512, 701.2058
1112.995, 697.3525
1113.477, 693.8687
1113.959, 695.5248
1114.441, 698.4709
1114.923, 699.6007
1115.405, 698.7311
1115.887, 696.7047
1116.369, 693.1691
1116.852, 690.3524
1117.334, 689.0736
1117.816, 688.8001
1118.298, 688.6770
1118.780, 689.1632
1119.262, 691.3383
1119.744, 697.0049
1120.226, 698.9896
1120.708, 695.5869
1121.191, 692.2839
1121.673, 693.1863
1122.155, 695.9551
1122.637, 693.1786
1123.119, 687.5266
1123.601, 686.3695
1124.083, 696.9742
1124.565, 706.2790
1125.047, 712.5319
1125.530, 716.5399
1126.012, 718.3248
1126.494, 718.4211
1126.976, 719.6924
1127.458, 722.1788
1127.940, 725.3826
1128.422, 728.6402
1128.904, 733.0398
1129.386, 740.3336
1129.869, 748.3143
1130.351, 752.4432
1130.833, 752.8560
1131.315, 758.2385
1131.797, 769.8232
1132.279, 782.8211
1132.761, 794.9878
1133.243, 805.7567
1133.726, 812.6271
1134.208, 817.3041
1134.690, 829.4517
1135.172, 850.7230
1135.654, 866.4175
1136.136, 871.6740
1136.618, 876.1979
1137.100, 892.0840
1137.583, 912.2573
1138.065, 928.4222
1138.547, 938.4878
1139.029, 953.1819
1139.511, 973.9998
1139.993, 994.7484
1140.475, 1012.307
1140.957, 1029.544
1141.439, 1050.759
1141.922, 1075.152
1142.404, 1102.012
1142.886, 1131.799
1143.368, 1161.830
1143.850, 1190.927
1144.332, 1221.030
1144.814, 1253.370
1145.296, 1286.986
1145.779, 1320.379
1146.261, 1353.209
1146.743, 1385.493
1147.225, 1415.125
1147.707, 1446.781
1148.189, 1482.103
1148.671, 1519.016
1149.153, 1556.155
1149.635, 1593.306
1150.118, 1630.962
1150.600, 1668.835
1151.082, 1704.737
1151.564, 1738.054
1152.046, 1769.011
1152.528, 1797.058
1153.010, 1823.087
1153.492, 1848.631
1153.974, 1873.360
1154.457, 1895.241
1154.939, 1913.779
1155.421, 1926.949
1155.903, 1932.221
1156.385, 1932.786
1156.867, 1931.014
1157.349, 1925.665
1157.831, 1911.885
1158.313, 1889.459
1158.796, 1867.300
1159.278, 1847.077
1159.760, 1824.725
1160.242, 1797.095
1160.724, 1765.666
1161.206, 1731.437
1161.688, 1694.281
1162.170, 1653.821
1162.653, 1609.800
1163.135, 1562.741
1163.617, 1511.153
1164.099, 1461.713
1164.581, 1421.803
1165.063, 1386.724
1165.545, 1351.908
1166.027, 1317.026
1166.510, 1280.994
1166.992, 1242.906
1167.474, 1208.091
1167.956, 1180.142
1168.438, 1153.816
1168.920, 1119.831
1169.402, 1083.702
1169.884, 1053.084
1170.366, 1031.748
1170.849, 1009.465
1171.331, 985.8553
1171.813, 962.4119
1172.295, 939.2614
1172.777, 917.0765
1173.259, 897.3718
1173.741, 879.1655
1174.223, 860.9456
1174.706, 841.2211
1175.188, 823.1859
1175.670, 806.8641
1176.152, 791.8889
1176.634, 777.8923
1177.116, 764.9393
1177.598, 752.5908
1178.080, 740.9217
1178.563, 730.0646
1179.045, 720.3687
1179.527, 711.1171
1180.009, 702.7734
1180.491, 693.5342
1180.973, 680.3837
1181.455, 665.2964
1181.937, 652.9778
1182.419, 643.3599
1182.901, 634.8259
1183.384, 628.0353
1183.866, 620.4710
1184.348, 610.8021
1184.830, 601.8547
1185.312, 599.1546
1185.794, 599.5771
1186.276, 593.6840
1186.758, 581.4290
1187.240, 570.9050
1187.723, 568.5499
1188.205, 564.3311
1188.687, 554.9878
1189.169, 543.8234
1189.651, 536.1862
1190.133, 531.2240
1190.615, 527.1331
1191.097, 523.6458
1191.580, 518.7103
1192.062, 510.3293
1192.544, 501.4539
1193.026, 492.5936
1193.508, 484.3498
1193.990, 478.7385
1194.472, 474.8802
1194.954, 469.5210
1195.437, 461.8081
1195.919, 454.7137
1196.401, 450.0202
1196.883, 445.7012
1197.365, 440.8610
1197.847, 435.8395
1198.329, 431.8532
1198.811, 428.5815
1199.293, 424.7482
1199.776, 419.9932
1200.258, 414.7504
1200.740, 408.1600
1201.222, 402.3041
1201.704, 398.5761
1202.186, 396.2699
1202.668, 392.6161
1203.150, 387.9830
1203.633, 383.7779
1204.115, 380.4850
1204.597, 377.5624
1205.079, 374.8244
1205.561, 372.3911
1206.043, 370.4705
1206.525, 368.9388
1207.007, 367.6781
1207.490, 366.4028
1207.972, 363.5621
1208.454, 357.1765
1208.936, 351.9669
1209.418, 351.0403
1209.900, 351.0385
1210.382, 349.5243
1210.864, 346.9687
1211.346, 347.5575
1211.828, 350.4773
1212.311, 351.6781
1212.793, 347.6357
1213.275, 344.2037
1213.757, 344.4001
1214.239, 345.1632
1214.721, 343.9593
1215.203, 341.2089
1215.685, 340.4063
1216.167, 341.2071
1216.650, 341.7421
1217.132, 340.9261
1217.614, 339.9138
1218.096, 339.4153
1218.578, 338.5049
1219.060, 336.3045
1219.542, 332.9151
1220.024, 328.0964
1220.507, 322.4084
1220.989, 318.7574
1221.471, 320.9467
1221.953, 322.2990
1222.435, 321.5003
1222.917, 318.4871
1223.399, 311.4661
1223.881, 301.8935
1224.364, 298.1572
1224.846, 299.5435
1225.328, 300.1450
1225.810, 296.3629
1226.292, 292.3102
1226.774, 288.8618
1227.256, 285.8141
1227.738, 283.0548
1228.220, 280.4957
1228.703, 278.1398
1229.185, 275.7676
1229.667, 271.9780
1230.149, 262.6617
1230.631, 256.9256
1231.113, 258.0814
1231.595, 261.2849
1232.077, 260.0938
1232.560, 256.0017
1233.042, 253.0457
1233.524, 251.4165
1234.006, 250.0975
1234.488, 248.7660
1234.970, 247.7492
1235.452, 247.5678
1235.934, 246.9087
1236.417, 242.6299
1236.899, 236.9975
1237.381, 236.1730
1237.863, 239.9940
1238.345, 241.7991
1238.827, 237.6073
1239.309, 233.9544
1239.791, 232.0748
1240.273, 230.6866
1240.755, 227.4259
1241.238, 223.6554
1241.720, 221.7745
1242.202, 221.9779
1242.684, 223.9049
1243.166, 229.3039
1243.648, 232.4458
1244.130, 231.9389
1244.612, 229.7315
1245.094, 227.7124
1245.577, 226.0098
1246.059, 224.6715
1246.541, 223.7371
1247.023, 224.1824
1247.505, 227.2421
1247.987, 227.9097
1248.469, 224.6310
1248.951, 220.4572
1249.434, 218.8903
1249.916, 218.8845
1250.398, 219.6290
1250.880, 220.9267
1251.362, 221.5103
1251.844, 221.3891
1252.326, 220.2586
1252.808, 217.8291
1253.291, 215.3233
1253.773, 213.8210
1254.255, 213.0658
1254.737, 213.1987
1255.219, 214.0093
1255.701, 213.7318
1256.183, 212.2717
1256.665, 210.3208
1257.147, 207.8317
1257.630, 206.1011
1258.112, 206.8680
1258.594, 208.4794
1259.076, 210.2078
1259.558, 211.5810
1260.040, 210.1466
1260.522, 205.9610
1261.004, 202.9400
1261.487, 202.1086
1261.969, 201.3905
1262.451, 198.5759
1262.933, 195.9968
1263.415, 195.6823
1263.897, 196.6624
1264.379, 195.0344
1264.861, 191.3679
1265.344, 190.5877
1265.826, 194.2730
1266.308, 196.5996
1266.790, 193.1572
1267.272, 188.4008
1267.754, 183.9631
1268.236, 180.3643
1268.718, 179.8095
1269.200, 181.2717
1269.682, 180.9330
1270.165, 177.9167
1270.647, 174.5710
1271.129, 170.6929
1271.611, 168.3228
1272.093, 168.6220
1272.575, 170.0609
1273.057, 169.1855
1273.539, 167.1486
1274.021, 167.1194
1274.504, 169.9650
1274.986, 170.0851
1275.468, 164.9194
1275.950, 160.3661
1276.432, 158.0850
1276.914, 157.3609
1277.396, 157.9635
1277.878, 158.8979
1278.361, 158.6256
1278.843, 156.8796
1279.325, 154.6040
1279.807, 151.4089
1280.289, 149.6440
1280.771, 150.2929
1281.253, 151.4707
1281.735, 151.1903
1282.218, 150.0108
1282.700, 148.5031
1283.182, 146.6803
1283.664, 144.1036
1284.146, 140.6085
1284.628, 138.4439
1285.110, 138.3943
1285.592, 138.5616
1286.074, 137.4732
1286.557, 135.7040
1287.039, 133.4496
1287.521, 130.9194
1288.003, 128.7261
1288.485, 126.8565
1288.967, 125.1949
1289.449, 123.7590
1289.931, 122.2964
1290.414, 120.9407
1290.896, 119.1291
1291.378, 116.2909
1291.860, 113.1469
1292.342, 111.6578
1292.824, 111.4307
1293.306, 111.0249
1293.788, 110.1646
1294.271, 109.5968
1294.753, 110.4754
1295.235, 110.4260
1295.717, 108.5018
1296.199, 105.8789
1296.681, 104.4791
1297.163, 103.9095
1297.645, 103.2968
1298.127, 102.5367
1298.609, 103.3262
1299.092, 106.9814
1299.574, 108.8032
##END=



