##NAMES=Anglesite
##RRUFFID=R040004
##IDEAL CHEMISTRY=Pb^2+^S^6+^O_4_
##LOCALITY=Erupcion mine, Los Lamentos, Chihuahua, Mexico
##OWNER=RRUFF
##SOURCE=University of Arizona Mineral Museum
##DESCRIPTION=Tan colored tabular crystal
##STATUS=The identification of this mineral has been confirmed by X-ray diffraction and chemical analysis
##URL=rruff.info/R040004
##MEASURED CHEMISTRY=Pb_1.00_S_1.00_O_4_
113.1730, 2696.072
113.6551, 2777.235
114.1373, 2854.527
114.6194, 2928.008
115.1015, 2998.628
115.5836, 3064.688
116.0657, 3129.129
116.5478, 3191.394
117.0300, 3252.184
117.5121, 3313.256
117.9942, 3373.414
118.4763, 3434.702
118.9584, 3499.477
119.4405, 3566.826
119.9227, 3640.236
120.4048, 3721.788
120.8869, 3812.851
121.3690, 3908.923
121.8511, 4006.964
122.3332, 4107.994
122.8154, 4214.165
123.2975, 4327.671
123.7796, 4445.893
124.2617, 4567.971
124.7438, 4691.326
125.2259, 4818.873
125.7081, 4953.711
126.1902, 5092.580
126.6723, 5208.233
127.1544, 5307.479
127.6365, 5407.265
128.1186, 5505.569
128.6008, 5601.063
129.0829, 5694.648
129.5650, 5789.175
130.0471, 5884.386
130.5292, 5973.505
131.0113, 6052.024
131.4935, 6120.302
131.9756, 6179.756
132.4577, 6232.670
132.9398, 6276.345
133.4219, 6300.444
133.9040, 6304.746
134.3862, 6294.798
134.8683, 6278.839
135.3504, 6256.817
135.8325, 6216.404
136.3146, 6151.375
136.7967, 6063.484
137.2789, 5966.703
137.7610, 5859.751
138.2431, 5745.277
138.7252, 5623.398
139.2073, 5492.116
139.6894, 5361.040
140.1716, 5232.306
140.6537, 5104.855
141.1358, 4979.214
141.6179, 4851.077
142.1000, 4725.986
142.5821, 4616.435
143.0643, 4523.179
143.5464, 4441.207
144.0285, 4367.806
144.5106, 4304.213
144.9927, 4246.915
145.4748, 4196.283
145.9570, 4152.157
146.4391, 4116.833
146.9212, 4092.855
147.4033, 4074.003
147.8854, 4057.121
148.3675, 4041.083
148.8497, 4028.941
149.3318, 4023.648
149.8139, 4023.272
150.2960, 4018.338
150.7781, 4013.685
151.2602, 4000.964
151.7424, 3975.715
152.2245, 3934.247
152.7066, 3884.825
153.1887, 3829.334
153.6708, 3767.780
154.1529, 3694.498
154.6351, 3601.390
155.1172, 3500.316
155.5993, 3399.433
156.0814, 3297.282
156.5635, 3196.477
157.0456, 3095.217
157.5278, 2994.420
158.0099, 2901.004
158.4920, 2815.547
158.9741, 2737.601
159.4562, 2666.388
159.9383, 2602.149
160.4205, 2544.177
160.9026, 2493.462
161.3847, 2450.290
161.8668, 2409.347
162.3489, 2368.975
162.8310, 2329.787
163.3132, 2292.490
163.7953, 2255.742
164.2774, 2222.101
164.7595, 2194.125
165.2416, 2172.688
165.7237, 2150.825
166.2059, 2125.176
166.6880, 2096.683
167.1701, 2066.787
167.6522, 2031.595
168.1343, 1998.035
168.6164, 1971.765
169.0985, 1954.307
169.5807, 1939.345
170.0628, 1923.892
170.5449, 1907.871
171.0270, 1891.252
171.5091, 1873.374
171.9912, 1855.245
172.4734, 1837.753
172.9555, 1820.917
173.4376, 1804.897
173.9197, 1789.330
174.4018, 1774.527
174.8839, 1761.495
175.3661, 1752.472
175.8482, 1745.113
176.3303, 1736.239
176.8124, 1724.823
177.2945, 1712.975
177.7766, 1703.418
178.2588, 1695.502
178.7409, 1687.000
179.2230, 1676.843
179.7051, 1664.948
180.1872, 1650.997
180.6693, 1634.108
181.1515, 1616.414
181.6336, 1601.264
182.1157, 1588.358
182.5978, 1575.629
183.0799, 1561.212
183.5620, 1545.689
184.0442, 1531.260
184.5263, 1519.065
185.0084, 1506.973
185.4905, 1489.775
185.9726, 1467.763
186.4547, 1446.486
186.9369, 1431.195
187.4190, 1420.484
187.9011, 1409.359
188.3832, 1397.177
188.8653, 1383.481
189.3474, 1366.146
189.8296, 1344.885
190.3117, 1323.909
190.7938, 1306.665
191.2759, 1292.869
191.7580, 1280.554
192.2401, 1269.833
192.7223, 1259.882
193.2044, 1247.710
193.6865, 1232.909
194.1686, 1218.084
194.6507, 1206.007
195.1328, 1196.531
195.6150, 1186.981
196.0971, 1177.147
196.5792, 1166.732
197.0613, 1153.716
197.5434, 1137.454
198.0255, 1121.743
198.5077, 1111.406
198.9898, 1106.615
199.4719, 1101.204
199.9540, 1093.530
200.4361, 1084.075
200.9182, 1075.368
201.4004, 1067.754
201.8825, 1060.024
202.3646, 1050.521
202.8467, 1039.025
203.3288, 1028.404
203.8109, 1019.363
204.2931, 1011.821
204.7752, 1005.238
205.2573, 999.8544
205.7394, 994.8617
206.2215, 989.5443
206.7036, 984.0119
207.1858, 977.8361
207.6679, 970.8151
208.1500, 962.9938
208.6321, 954.7982
209.1142, 945.6992
209.5963, 937.2075
210.0785, 931.5244
210.5606, 929.7925
211.0427, 926.6818
211.5248, 920.5494
212.0069, 911.4803
212.4890, 902.9271
212.9712, 894.7214
213.4533, 887.2695
213.9354, 881.1895
214.4175, 876.6677
214.8996, 872.8431
215.3817, 869.7661
215.8639, 867.4650
216.3460, 864.2892
216.8281, 860.1626
217.3102, 855.2284
217.7923, 849.7410
218.2744, 843.7809
218.7565, 836.8210
219.2387, 828.3065
219.7208, 818.0732
220.2029, 810.2860
220.6850, 806.4879
221.1671, 803.3768
221.6492, 797.0128
222.1314, 785.4374
222.6135, 775.0336
223.0956, 768.0760
223.5777, 764.7040
224.0598, 758.6423
224.5419, 748.0944
225.0241, 736.7902
225.5062, 728.9899
225.9883, 727.2432
226.4704, 723.6202
226.9525, 715.6464
227.4346, 702.9205
227.9168, 693.3363
228.3989, 688.2189
228.8810, 684.8230
229.3631, 680.3727
229.8452, 674.1186
230.3273, 668.2250
230.8095, 663.3337
231.2916, 659.5087
231.7737, 654.8300
232.2558, 648.6579
232.7379, 642.2977
233.2200, 637.2584
233.7022, 634.4396
234.1843, 631.1783
234.6664, 626.7516
235.1485, 621.1745
235.6306, 616.2264
236.1127, 611.8790
236.5949, 608.1239
237.0770, 605.0970
237.5591, 603.5924
238.0412, 601.2836
238.5233, 597.7117
239.0054, 592.8578
239.4876, 587.3426
239.9697, 580.0422
240.4518, 573.2457
240.9339, 569.1613
241.4160, 569.2474
241.8981, 569.2108
242.3803, 568.5034
242.8624, 567.1165
243.3445, 565.0007
243.8266, 561.8771
244.3087, 558.3214
244.7908, 554.8102
245.2730, 551.4769
245.7551, 547.8649
246.2372, 543.6024
246.7193, 538.8022
247.2014, 535.0983
247.6835, 532.7886
248.1657, 531.2417
248.6478, 530.2515
249.1299, 530.7400
249.6120, 529.6988
250.0941, 526.2286
250.5762, 520.7014
251.0584, 516.0581
251.5405, 512.4794
252.0226, 509.6064
252.5047, 507.3720
252.9868, 506.2321
253.4689, 504.6802
253.9511, 502.6918
254.4332, 500.1951
254.9153, 496.5439
255.3974, 490.5963
255.8795, 485.2809
256.3616, 482.6562
256.8438, 483.7035
257.3259, 484.9167
257.8080, 486.4464
258.2901, 487.9200
258.7722, 487.7735
259.2543, 485.2988
259.7365, 482.3712
260.2186, 479.9566
260.7007, 478.2315
261.1828, 476.5258
261.6649, 474.7560
262.1470, 472.9890
262.6292, 471.4766
263.1113, 470.5057
263.5934, 469.1996
264.0755, 467.0074
264.5576, 463.5805
265.0397, 460.3871
265.5219, 457.3008
266.0040, 454.5534
266.4861, 452.7502
266.9682, 452.2780
267.4503, 451.8360
267.9324, 451.0342
268.4146, 450.0364
268.8967, 447.5920
269.3788, 442.8032
269.8609, 437.4860
270.3430, 435.6430
270.8251, 438.4228
271.3073, 440.8571
271.7894, 440.7648
272.2715, 437.9221
272.7536, 434.9262
273.2357, 431.5006
273.7178, 428.3574
274.2000, 426.7310
274.6821, 426.9300
275.1642, 427.3110
275.6463, 427.4682
276.1284, 427.3998
276.6105, 426.4707
277.0927, 424.4018
277.5748, 422.0763
278.0569, 420.6602
278.5390, 420.2527
279.0211, 420.0479
279.5032, 420.2449
279.9854, 420.6214
280.4675, 418.6609
280.9496, 413.7897
281.4317, 408.5163
281.9138, 405.8323
282.3959, 405.8493
282.8781, 405.4098
283.3602, 403.2887
283.8423, 400.1387
284.3244, 399.1908
284.8065, 400.7561
285.2886, 402.5110
285.7708, 402.2651
286.2529, 400.1077
286.7350, 397.6338
287.2171, 394.7775
287.6992, 392.0786
288.1813, 391.6127
288.6635, 393.5028
289.1456, 395.2087
289.6277, 394.3196
290.1098, 391.2439
290.5919, 388.9559
291.0740, 388.3076
291.5562, 388.0558
292.0383, 385.1750
292.5204, 379.7923
293.0025, 375.1203
293.4846, 373.5937
293.9667, 374.5106
294.4489, 375.6116
294.9310, 376.8104
295.4131, 377.6431
295.8952, 377.5458
296.3773, 376.5162
296.8594, 374.5508
297.3416, 370.7458
297.8237, 366.0675
298.3058, 362.6937
298.7879, 360.7594
299.2700, 360.0849
299.7521, 361.6042
300.2343, 364.4974
300.7164, 366.0584
301.1985, 363.7533
301.6806, 359.7257
302.1627, 357.3655
302.6448, 356.8137
303.1270, 357.0428
303.6091, 357.3742
304.0912, 357.7711
304.5733, 358.1750
305.0554, 358.8478
305.5375, 359.3535
306.0197, 359.0595
306.5018, 358.0049
306.9839, 356.8407
307.4660, 356.2872
307.9481, 355.8791
308.4302, 354.9092
308.9124, 352.3813
309.3945, 349.9744
309.8766, 349.2857
310.3587, 350.0511
310.8408, 350.9128
311.3229, 350.6759
311.8051, 350.2984
312.2872, 350.9445
312.7693, 353.8869
313.2514, 356.2165
313.7335, 355.9206
314.2156, 353.5974
314.6978, 351.0104
315.1799, 347.8799
315.6620, 345.4606
316.1441, 344.9814
316.6262, 347.3667
317.1083, 349.6553
317.5905, 350.4655
318.0726, 350.3414
318.5547, 350.2416
319.0368, 351.0451
319.5189, 351.5123
320.0010, 350.5198
320.4832, 347.3919
320.9653, 345.8409
321.4474, 348.8650
321.9295, 353.3743
322.4116, 355.7536
322.8937, 353.1855
323.3759, 350.3532
323.8580, 348.1954
324.3401, 346.7574
324.8222, 346.7816
325.3043, 350.7213
325.7864, 354.9049
326.2686, 356.5013
326.7507, 351.8470
327.2328, 348.3508
327.7149, 347.4384
328.1970, 348.8806
328.6791, 349.9648
329.1613, 350.7467
329.6434, 351.0804
330.1255, 350.8245
330.6076, 348.4186
331.0897, 347.7381
331.5718, 350.1990
332.0540, 354.3899
332.5361, 356.1588
333.0182, 353.6194
333.5003, 351.1605
333.9824, 350.7027
334.4645, 353.2037
334.9467, 354.7637
335.4288, 355.1751
335.9109, 354.7839
336.3930, 353.9423
336.8751, 352.0939
337.3572, 351.1193
337.8394, 351.9414
338.3215, 354.6789
338.8036, 356.1489
339.2857, 355.8930
339.7678, 355.1682
340.2499, 355.7122
340.7320, 357.9635
341.2141, 358.6647
341.6963, 356.3961
342.1784, 352.0753
342.6605, 350.2634
343.1426, 351.3260
343.6247, 353.2385
344.1068, 354.7463
344.5890, 355.8152
345.0711, 355.7468
345.5532, 353.9327
346.0353, 351.6341
346.5174, 351.8567
346.9995, 354.5657
347.4817, 357.3847
347.9638, 358.9772
348.4459, 359.5204
348.9280, 359.4885
349.4101, 358.7973
349.8922, 358.0491
350.3744, 358.1961
350.8565, 359.0138
351.3386, 359.6289
351.8207, 359.3804
352.3028, 358.7516
352.7849, 358.5325
353.2671, 358.7358
353.7492, 359.1194
354.2313, 360.1844
354.7134, 361.1949
355.1955, 360.7391
355.6776, 356.7997
356.1598, 352.6835
356.6419, 351.8339
357.1240, 353.7562
357.6061, 355.7930
358.0882, 356.7086
358.5703, 356.7767
359.0525, 356.0661
359.5346, 354.0092
360.0167, 352.3660
360.4988, 352.1159
360.9809, 353.0331
361.4630, 354.6418
361.9452, 357.3299
362.4273, 360.2063
362.9094, 363.0140
363.3915, 365.9394
363.8736, 367.7338
364.3557, 366.8642
364.8379, 364.9971
365.3200, 364.0844
365.8021, 365.5167
366.2842, 367.0185
366.7663, 368.1398
367.2484, 368.8708
367.7306, 368.8696
368.2127, 367.3650
368.6948, 365.5811
369.1769, 364.3166
369.6590, 363.2149
370.1411, 363.1366
370.6233, 364.6470
371.1054, 367.2968
371.5875, 369.4081
372.0696, 370.9356
372.5517, 371.9457
373.0338, 372.2366
373.5160, 371.0146
373.9981, 371.4855
374.4802, 374.4552
374.9623, 378.4787
375.4444, 381.1449
375.9265, 382.0382
376.4087, 382.7799
376.8908, 383.7676
377.3729, 385.0032
377.8550, 386.4863
378.3371, 388.1907
378.8192, 390.1780
379.3014, 392.5397
379.7835, 395.3105
380.2656, 398.1880
380.7477, 401.2552
381.2298, 404.2557
381.7119, 406.3628
382.1941, 407.5341
382.6762, 408.8689
383.1583, 411.1440
383.6404, 414.1989
384.1225, 417.2640
384.6046, 420.1852
385.0868, 423.3810
385.5689, 428.0540
386.0510, 433.6684
386.5331, 438.2799
387.0152, 439.6526
387.4973, 440.0714
387.9795, 443.0505
388.4616, 448.6328
388.9437, 454.8697
389.4258, 460.5192
389.9079, 465.8277
390.3900, 471.0164
390.8722, 475.8420
391.3543, 480.9613
391.8364, 487.0421
392.3185, 493.8120
392.8006, 500.4676
393.2827, 506.1186
393.7649, 511.8324
394.2470, 518.2592
394.7291, 525.5181
395.2112, 533.4435
395.6933, 542.0519
396.1754, 551.2615
396.6576, 560.9537
397.1397, 571.5033
397.6218, 582.1346
398.1039, 592.4875
398.5860, 602.4857
399.0681, 612.9313
399.5503, 625.4814
400.0324, 637.5924
400.5145, 647.2275
400.9966, 651.4083
401.4787, 657.3783
401.9608, 665.8734
402.4430, 676.5385
402.9251, 688.3583
403.4072, 703.2868
403.8893, 716.4324
404.3714, 724.4080
404.8535, 724.7374
405.3357, 730.7618
405.8178, 743.8799
406.2999, 760.7025
406.7820, 776.7543
407.2641, 792.0522
407.7462, 806.3276
408.2284, 818.8322
408.7105, 830.1271
409.1926, 844.8589
409.6747, 863.4585
410.1568, 882.3333
410.6389, 897.4445
411.1211, 909.6291
411.6032, 924.5728
412.0853, 943.7059
412.5674, 965.1463
413.0495, 985.8651
413.5316, 1006.639
414.0138, 1030.690
414.4959, 1060.771
414.9780, 1095.243
415.4601, 1129.845
415.9422, 1164.319
416.4243, 1204.671
416.9065, 1254.425
417.3886, 1313.731
417.8707, 1381.728
418.3528, 1458.724
418.8349, 1544.389
419.3170, 1642.010
419.7992, 1750.708
420.2813, 1860.652
420.7634, 1972.283
421.2455, 2083.006
421.7276, 2190.959
422.2097, 2296.601
422.6919, 2399.981
423.1740, 2498.920
423.6561, 2596.457
424.1382, 2699.781
424.6203, 2803.175
425.1024, 2916.547
425.5846, 3041.337
426.0667, 3176.700
426.5488, 3329.879
427.0309, 3499.047
427.5130, 3689.463
427.9951, 3904.032
428.4773, 4137.845
428.9594, 4406.262
429.4415, 4710.433
429.9236, 5048.167
430.4057, 5421.215
430.8878, 5828.919
431.3700, 6268.348
431.8521, 6741.531
432.3342, 7248.509
432.8163, 7774.443
433.2984, 8322.116
433.7805, 8879.552
434.2627, 9432.382
434.7448, 9981.779
435.2269, 10538.16
435.7090, 11115.85
436.1911, 11700.49
436.6732, 12283.12
437.1554, 12858.62
437.6375, 13363.11
438.1196, 13785.86
438.6017, 14100.64
439.0838, 14248.62
439.5659, 14209.45
440.0480, 14078.29
440.5302, 13858.04
441.0123, 13612.01
441.4944, 13446.55
441.9765, 13366.29
442.4586, 13412.29
442.9407, 13610.21
443.4229, 13957.32
443.9050, 14441.74
444.3871, 15096.98
444.8692, 15857.22
445.3513, 16684.60
445.8334, 17605.16
446.3156, 18537.92
446.7977, 19515.84
447.2798, 20484.29
447.7619, 21343.11
448.2440, 22215.00
448.7261, 22829.38
449.2083, 23160.27
449.6904, 23218.79
450.1725, 22822.26
450.6546, 21895.15
451.1367, 20616.56
451.6188, 19068.27
452.1010, 17135.53
452.5831, 15274.58
453.0652, 13464.50
453.5473, 11770.69
454.0294, 10302.98
454.5115, 9062.920
454.9937, 8001.745
455.4758, 7101.977
455.9579, 6358.749
456.4400, 5734.131
456.9221, 5226.485
457.4042, 4802.810
457.8864, 4434.757
458.3685, 4121.640
458.8506, 3852.317
459.3327, 3632.792
459.8148, 3446.069
460.2969, 3278.819
460.7791, 3128.063
461.2612, 2989.331
461.7433, 2863.361
462.2254, 2745.661
462.7075, 2635.056
463.1896, 2530.609
463.6718, 2430.170
464.1539, 2334.888
464.6360, 2242.619
465.1181, 2152.852
465.6002, 2064.307
466.0823, 1979.386
466.5645, 1899.118
467.0466, 1823.433
467.5287, 1752.058
468.0108, 1683.805
468.4929, 1620.991
468.9750, 1564.858
469.4572, 1516.740
469.9393, 1470.862
470.4214, 1427.516
470.9035, 1386.494
471.3856, 1347.659
471.8677, 1311.019
472.3499, 1276.359
472.8320, 1243.195
473.3141, 1211.616
473.7962, 1181.333
474.2783, 1152.294
474.7604, 1125.009
475.2426, 1100.258
475.7247, 1077.618
476.2068, 1055.155
476.6889, 1032.597
477.1710, 1010.791
477.6531, 991.4240
478.1353, 973.6255
478.6174, 954.8732
479.0995, 933.3838
479.5816, 911.5851
480.0637, 892.2199
480.5458, 874.9742
481.0280, 859.0418
481.5101, 845.3693
481.9922, 831.8483
482.4743, 816.7040
482.9564, 799.3200
483.4385, 782.1219
483.9207, 766.2040
484.4028, 751.0771
484.8849, 736.2440
485.3670, 721.0873
485.8491, 707.0225
486.3312, 694.6447
486.8134, 683.7377
487.2955, 672.9742
487.7776, 663.2363
488.2597, 652.9010
488.7418, 640.7374
489.2239, 625.7912
489.7061, 614.5231
490.1882, 608.2745
490.6703, 603.7089
491.1524, 597.2042
491.6345, 588.5659
492.1166, 578.5763
492.5988, 566.2989
493.0809, 553.5490
493.5630, 546.0355
494.0451, 543.5270
494.5272, 540.9285
495.0093, 534.1049
495.4915, 525.1263
495.9736, 519.2352
496.4557, 516.8608
496.9378, 514.3678
497.4199, 507.7794
497.9020, 499.2034
498.3842, 492.0390
498.8663, 487.8433
499.3484, 484.4213
499.8305, 481.0666
500.3126, 477.4457
500.7947, 472.7248
501.2769, 464.4749
501.7590, 456.8233
502.2411, 451.9894
502.7232, 450.4752
503.2053, 448.8753
503.6874, 446.8650
504.1696, 444.5368
504.6517, 442.0060
505.1338, 439.5229
505.6159, 436.3220
506.0980, 431.8397
506.5801, 426.8569
507.0623, 423.3458
507.5444, 421.7183
508.0265, 420.1104
508.5086, 417.8405
508.9907, 414.9727
509.4728, 412.0753
509.9550, 409.1934
510.4371, 406.0380
510.9192, 402.2164
511.4013, 397.8943
511.8834, 393.6448
512.3655, 389.3656
512.8477, 385.7151
513.3298, 383.7584
513.8119, 383.0442
514.2940, 382.4932
514.7761, 382.3725
515.2582, 381.6506
515.7404, 378.9274
516.2225, 374.5313
516.7046, 370.8874
517.1867, 369.8587
517.6688, 369.3954
518.1509, 368.1440
518.6331, 365.5724
519.1152, 363.0314
519.5973, 360.7387
520.0794, 358.5865
520.5615, 356.4680
521.0436, 354.2805
521.5258, 352.2248
522.0079, 350.1564
522.4900, 348.2204
522.9721, 347.3791
523.4542, 348.1459
523.9363, 348.5403
524.4185, 347.2690
524.9006, 344.3408
525.3827, 342.2452
525.8648, 341.1492
526.3469, 340.0197
526.8290, 337.1687
527.3112, 333.2107
527.7933, 330.5855
528.2754, 330.3027
528.7575, 330.7610
529.2396, 330.1477
529.7217, 328.6965
530.2039, 327.1094
530.6860, 325.4646
531.1681, 324.0145
531.6502, 323.0540
532.1323, 322.5721
532.6144, 321.8777
533.0966, 320.4160
533.5787, 318.8107
534.0608, 317.4395
534.5429, 315.9883
535.0250, 315.4103
535.5071, 316.8263
535.9893, 318.7668
536.4714, 318.9275
536.9535, 315.9771
537.4356, 313.8759
537.9177, 313.8437
538.3998, 315.4391
538.8820, 315.8602
539.3641, 314.9257
539.8462, 313.6605
540.3283, 312.5450
540.8104, 311.6081
541.2925, 311.0566
541.7747, 310.9203
542.2568, 311.0573
542.7389, 311.2139
543.2210, 311.5293
543.7031, 312.4471
544.1852, 314.5936
544.6674, 316.5662
545.1495, 316.6238
545.6316, 315.4578
546.1137, 314.7927
546.5958, 316.2130
547.0779, 317.6575
547.5601, 317.6840
548.0422, 316.1728
548.5243, 315.5688
549.0064, 317.3660
549.4885, 319.5345
549.9706, 320.7722
550.4528, 320.2174
550.9349, 320.3156
551.4170, 321.1873
551.8991, 322.6098
552.3812, 324.4303
552.8633, 326.8822
553.3455, 328.8038
553.8276, 330.0206
554.3097, 330.4594
554.7918, 329.3555
555.2739, 326.7306
555.7560, 324.6640
556.2382, 324.3813
556.7203, 325.5780
557.2024, 328.1624
557.6845, 332.1880
558.1666, 335.5753
558.6487, 335.8774
559.1309, 334.7645
559.6130, 334.4121
560.0951, 335.7768
560.5772, 337.1553
561.0593, 337.3419
561.5414, 337.0524
562.0236, 337.5447
562.5057, 340.1689
562.9878, 342.5183
563.4699, 343.6664
563.9520, 343.7571
564.4341, 344.5760
564.9163, 346.8977
565.3984, 348.8507
565.8805, 349.3829
566.3626, 348.1913
566.8447, 347.4386
567.3268, 347.2008
567.8090, 347.1545
568.2911, 346.3289
568.7732, 345.0044
569.2553, 346.0832
569.7374, 350.9337
570.2195, 356.8504
570.7017, 360.2830
571.1838, 361.7251
571.6659, 362.6866
572.1480, 362.7688
572.6301, 363.5508
573.1122, 366.9402
573.5944, 372.6572
574.0765, 377.9326
574.5586, 382.0692
575.0407, 384.9933
575.5228, 386.3162
576.0049, 384.8587
576.4871, 384.9901
576.9692, 388.0657
577.4513, 392.2283
577.9334, 395.7873
578.4155, 398.1744
578.8976, 401.1054
579.3798, 404.5562
579.8619, 408.8407
580.3440, 414.9267
580.8261, 422.9167
581.3082, 431.0522
581.7903, 438.0948
582.2725, 444.8602
582.7546, 453.7835
583.2367, 464.7434
583.7188, 476.3561
584.2009, 485.5281
584.6830, 495.5049
585.1652, 510.8687
585.6473, 532.6755
586.1294, 557.1179
586.6115, 582.0925
587.0936, 608.7244
587.5757, 637.8899
588.0578, 671.4401
588.5399, 705.6296
589.0220, 740.7524
589.5042, 775.9779
589.9863, 809.4050
590.4684, 839.4242
590.9505, 869.6516
591.4326, 901.0373
591.9147, 933.4326
592.3969, 964.9974
592.8790, 995.0690
593.3611, 1027.140
593.8432, 1063.104
594.3253, 1102.541
594.8074, 1147.227
595.2896, 1197.440
595.7717, 1250.731
596.2538, 1302.590
596.7359, 1356.253
597.2180, 1417.861
597.7001, 1487.535
598.1823, 1565.625
598.6644, 1653.315
599.1465, 1749.174
599.6286, 1851.164
600.1107, 1961.270
600.5928, 2073.274
601.0750, 2186.454
601.5571, 2300.059
602.0392, 2412.947
602.5213, 2532.216
603.0034, 2642.985
603.4855, 2742.148
603.9677, 2831.956
604.4498, 2889.433
604.9319, 2915.373
605.4140, 2907.776
605.8961, 2862.124
606.3782, 2779.927
606.8604, 2670.604
607.3425, 2531.057
607.8246, 2379.769
608.3067, 2233.692
608.7888, 2093.464
609.2709, 1963.514
609.7531, 1843.742
610.2352, 1736.879
610.7173, 1642.597
611.1994, 1561.932
611.6815, 1496.635
612.1636, 1450.714
612.6458, 1416.198
613.1279, 1390.156
613.6100, 1373.006
614.0921, 1364.608
614.5742, 1367.722
615.0563, 1375.873
615.5385, 1386.323
616.0206, 1399.791
616.5027, 1413.749
616.9848, 1430.512
617.4669, 1440.844
617.9490, 1438.176
618.4312, 1420.990
618.9133, 1379.328
619.3954, 1307.569
619.8775, 1219.100
620.3596, 1121.516
620.8417, 1019.113
621.3239, 923.4992
621.8060, 834.8351
622.2881, 756.2271
622.7702, 689.0524
623.2523, 633.1895
623.7344, 588.0837
624.2166, 558.6371
624.6987, 535.2524
625.1808, 514.7805
625.6629, 496.9977
626.1450, 482.3029
626.6271, 470.2063
627.1093, 461.7565
627.5914, 458.9533
628.0735, 462.3597
628.5556, 462.7292
629.0377, 459.0895
629.5198, 454.4960
630.0020, 452.1810
630.4841, 451.8359
630.9662, 452.4264
631.4483, 453.4987
631.9304, 455.8519
632.4125, 460.5563
632.8947, 467.0855
633.3768, 474.4891
633.8589, 481.3445
634.3410, 489.9358
634.8231, 502.2473
635.3052, 517.5754
635.7874, 531.6947
636.2695, 542.2616
636.7516, 553.5909
637.2337, 567.3696
637.7158, 583.8739
638.1979, 598.9861
638.6801, 612.6964
639.1622, 625.2441
639.6443, 637.8080
640.1264, 649.8041
640.6085, 657.5585
641.0906, 660.8972
641.5728, 658.7816
642.0549, 650.1085
642.5370, 635.2249
643.0191, 614.0185
643.5012, 584.0720
643.9833, 552.5477
644.4655, 522.3702
644.9476, 493.9645
645.4297, 466.8394
645.9118, 438.6685
646.3939, 414.5841
646.8760, 397.5583
647.3582, 385.9301
647.8403, 374.4715
648.3224, 362.8084
648.8045, 351.7262
649.2866, 341.0051
649.7687, 330.8080
650.2509, 323.9798
650.7330, 320.6656
651.2151, 318.5474
651.6972, 315.8435
652.1793, 313.0191
652.6614, 311.7936
653.1436, 312.3961
653.6257, 312.2452
654.1078, 308.1813
654.5899, 302.8294
655.0720, 299.0839
655.5541, 298.3572
656.0363, 297.7613
656.5184, 295.8445
657.0005, 293.7989
657.4826, 293.2719
657.9647, 295.8375
658.4468, 297.2923
658.9290, 296.7079
659.4111, 294.9678
659.8932, 294.1357
660.3753, 294.2478
660.8574, 295.0240
661.3395, 296.8123
661.8217, 298.9045
662.3038, 299.4963
662.7859, 298.7094
663.2680, 297.3965
663.7501, 295.2879
664.2322, 293.4276
664.7144, 293.0001
665.1965, 294.0202
665.6786, 295.2278
666.1607, 296.7529
666.6428, 297.8051
667.1249, 297.9240
667.6071, 297.0323
668.0892, 295.0686
668.5713, 290.9918
669.0534, 286.9644
669.5355, 285.1202
670.0176, 285.7847
670.4998, 286.4488
670.9819, 287.0649
671.4640, 287.1566
671.9461, 285.5429
672.4282, 282.7116
672.9103, 280.4392
673.3925, 279.2777
673.8746, 278.8428
674.3567, 279.4567
674.8388, 280.4751
675.3209, 280.5054
675.8030, 277.8701
676.2852, 275.2542
676.7673, 273.9305
677.2494, 273.6467
677.7315, 272.7078
678.2136, 270.4644
678.6957, 268.3785
679.1779, 266.9975
679.6600, 266.2783
680.1421, 265.5780
680.6242, 264.8943
681.1063, 264.1994
681.5884, 263.3361
682.0706, 262.4394
682.5527, 262.0939
683.0348, 262.3445
683.5169, 262.5047
683.9990, 261.8796
684.4811, 260.9426
684.9633, 260.2980
685.4454, 260.2917
685.9275, 259.8563
686.4096, 258.0831
686.8917, 255.9528
687.3738, 254.5087
687.8560, 253.6820
688.3381, 253.7924
688.8202, 255.3892
689.3023, 257.4405
689.7844, 258.1021
690.2665, 257.2686
690.7487, 256.4622
691.2308, 255.9923
691.7129, 255.8719
692.1950, 256.6289
692.6771, 257.8621
693.1592, 258.1442
693.6414, 255.3697
694.1235, 252.5356
694.6056, 252.6477
695.0877, 254.9222
695.5698, 255.9859
696.0519, 251.4355
696.5341, 248.7464
697.0162, 252.6506
697.4983, 262.9776
697.9804, 267.4496
698.4625, 263.8839
698.9446, 258.9341
699.4268, 256.3217
699.9089, 255.9063
700.3910, 255.0155
700.8731, 253.5933
701.3552, 252.4086
701.8373, 252.3872
702.3195, 252.9847
702.8016, 253.1056
703.2837, 252.4709
703.7658, 252.3254
704.2479, 254.6534
704.7300, 257.1936
705.2122, 257.7029
705.6943, 253.9617
706.1764, 251.1385
706.6585, 249.8574
707.1406, 249.4715
707.6227, 249.1709
708.1049, 248.8136
708.5870, 249.2736
709.0691, 250.9896
709.5512, 253.0088
710.0333, 253.4790
710.5154, 252.6606
710.9976, 251.9174
711.4797, 251.7006
711.9618, 251.8022
712.4439, 252.3634
712.9260, 253.0785
713.4081, 253.2253
713.8903, 251.7093
714.3724, 250.3891
714.8545, 250.2464
715.3366, 251.0430
715.8187, 251.1314
716.3008, 250.1740
716.7830, 249.0437
717.2651, 247.7554
717.7472, 246.4716
718.2293, 246.8636
718.7114, 249.0385
719.1935, 251.1090
719.6757, 251.5562
720.1578, 251.1775
720.6399, 251.6514
721.1220, 252.9614
721.6041, 254.0146
722.0862, 254.1353
722.5684, 253.6733
723.0505, 252.6950
723.5326, 251.0131
724.0147, 249.8535
724.4968, 249.7513
724.9789, 249.9216
725.4611, 249.9600
725.9432, 249.9562
726.4253, 249.2549
726.9074, 247.5258
727.3895, 246.0491
727.8716, 246.7484
728.3538, 248.9849
728.8359, 249.9803
729.3180, 249.0616
729.8001, 247.9239
730.2822, 248.2508
730.7643, 249.2622
731.2465, 249.9007
731.7286, 249.5830
732.2107, 249.3094
732.6928, 249.0642
733.1749, 249.1317
733.6570, 250.0233
734.1392, 252.4965
734.6213, 254.0501
735.1034, 254.2336
735.5855, 253.4468
736.0676, 252.3444
736.5497, 250.9429
737.0319, 249.3912
737.5140, 247.2186
737.9961, 245.6899
738.4782, 247.4297
738.9603, 251.2156
739.4424, 253.8962
739.9246, 253.0617
740.4067, 251.8064
740.8888, 251.9548
741.3709, 253.0109
741.8530, 252.4150
742.3351, 248.5106
742.8173, 245.3750
743.2994, 244.3142
743.7815, 244.9449
744.2636, 245.1590
744.7457, 244.9097
745.2278, 244.8787
745.7100, 245.6395
746.1921, 246.8027
746.6742, 247.8164
747.1563, 248.6254
747.6384, 248.8506
748.1205, 248.1499
748.6027, 246.8882
749.0848, 244.6307
749.5669, 241.2945
750.0490, 240.2865
750.5311, 244.1315
751.0132, 248.0134
751.4954, 249.7052
751.9775, 249.0440
752.4596, 248.4954
752.9417, 248.0590
753.4238, 247.7095
753.9059, 247.3155
754.3881, 247.0007
754.8702, 247.3520
755.3523, 248.4306
755.8344, 248.9557
756.3165, 247.1428
756.7986, 244.8668
757.2808, 243.9755
757.7629, 245.2626
758.2450, 245.9253
758.7271, 244.6602
759.2092, 243.3230
759.6913, 243.2743
760.1735, 244.9257
760.6556, 246.1880
761.1377, 247.0100
761.6198, 247.4337
762.1019, 247.0741
762.5840, 246.3268
763.0662, 246.6620
763.5483, 248.5008
764.0304, 250.4301
764.5125, 251.4830
764.9946, 251.8357
765.4767, 251.6525
765.9589, 250.7286
766.4410, 249.6883
766.9231, 247.8447
767.4052, 246.4287
767.8873, 247.0945
768.3694, 250.7215
768.8516, 252.9010
769.3337, 252.9747
769.8158, 251.9061
770.2979, 250.6970
770.7800, 249.4941
771.2621, 248.9582
771.7443, 249.6060
772.2264, 250.1152
772.7085, 248.8468
773.1906, 246.8598
773.6727, 245.7341
774.1548, 246.5974
774.6370, 247.5376
775.1191, 248.3929
775.6012, 249.0802
776.0833, 249.4369
776.5654, 249.4227
777.0475, 249.2302
777.5297, 248.8210
778.0118, 248.3853
778.4939, 248.1273
778.9760, 248.1097
779.4581, 248.6555
779.9402, 250.4746
780.4224, 252.0091
780.9045, 251.4129
781.3866, 249.7159
781.8687, 248.8612
782.3508, 250.5863
782.8329, 251.7005
783.3151, 251.0807
783.7972, 249.6712
784.2793, 249.9141
784.7614, 252.3224
785.2435, 253.4275
785.7256, 251.7756
786.2077, 248.9710
786.6898, 248.4624
787.1719, 249.6800
787.6541, 250.5540
788.1362, 249.7408
788.6183, 248.6977
789.1004, 247.9499
789.5825, 247.7292
790.0646, 248.6342
790.5468, 253.3858
791.0289, 256.0320
791.5110, 254.5041
791.9931, 250.3476
792.4752, 248.3929
792.9573, 248.8115
793.4395, 249.7797
793.9216, 250.8641
794.4037, 251.8956
794.8858, 252.6339
795.3679, 253.0585
795.8500, 253.0742
796.3322, 251.5503
796.8143, 250.6526
797.2964, 252.3232
797.7785, 255.7278
798.2606, 257.8164
798.7427, 258.1370
799.2249, 257.3030
799.7070, 254.9544
800.1891, 251.7524
800.6712, 249.7106
801.1533, 248.8454
801.6354, 249.2357
802.1176, 251.6111
802.5997, 254.5884
803.0818, 256.2366
803.5639, 256.7750
804.0460, 256.8673
804.5281, 256.3837
805.0103, 255.9612
805.4924, 255.6966
805.9745, 255.7024
806.4566, 256.2892
806.9387, 257.3533
807.4208, 259.3570
807.9030, 263.1192
808.3851, 267.4515
808.8672, 268.2140
809.3493, 265.7752
809.8314, 263.5188
810.3135, 263.3248
810.7957, 263.8432
811.2778, 263.5336
811.7599, 262.7979
812.2420, 262.7648
812.7241, 264.3937
813.2062, 266.1859
813.6884, 268.3323
814.1705, 270.2751
814.6526, 269.6229
815.1347, 265.3002
815.6168, 262.9656
816.0989, 265.1883
816.5811, 269.5520
817.0632, 270.7292
817.5453, 269.2645
818.0274, 267.3696
818.5095, 265.0439
818.9916, 263.6714
819.4738, 265.3253
819.9559, 268.6756
820.4380, 270.1499
820.9201, 266.5606
821.4022, 264.2951
821.8843, 264.9814
822.3665, 267.4077
822.8486, 268.1937
823.3307, 267.2623
823.8128, 267.1650
824.2949, 269.2528
824.7770, 271.8640
825.2592, 272.4695
825.7413, 271.6627
826.2234, 270.8987
826.7055, 270.0969
827.1876, 270.1995
827.6697, 272.2332
828.1519, 275.3336
828.6340, 277.5786
829.1161, 278.8237
829.5982, 279.5049
830.0803, 279.7416
830.5624, 279.4027
831.0446, 277.2286
831.5267, 273.9071
832.0088, 273.2039
832.4909, 277.6255
832.9730, 282.7285
833.4551, 284.3445
833.9373, 283.9904
834.4194, 284.1087
834.9015, 285.9636
835.3836, 287.5566
835.8657, 288.6317
836.3478, 289.3388
836.8300, 289.8306
837.3121, 290.0762
837.7942, 290.3227
838.2763, 290.5720
838.7584, 290.9543
839.2405, 291.2598
839.7227, 291.8943
840.2048, 293.8973
840.6869, 298.5179
841.1690, 302.4499
841.6511, 303.4779
842.1332, 303.2978
842.6154, 303.9540
843.0975, 305.8474
843.5796, 307.9247
844.0617, 310.2974
844.5438, 312.5660
845.0259, 314.0891
845.5081, 315.0270
845.9902, 316.0849
846.4723, 317.3427
846.9544, 318.9019
847.4365, 321.0829
847.9186, 323.5041
848.4008, 325.7132
848.8829, 327.5540
849.3650, 329.4233
849.8471, 331.0179
850.3292, 333.0223
850.8113, 336.3143
851.2935, 341.1834
851.7756, 343.8678
852.2577, 343.8538
852.7398, 344.5648
853.2219, 350.8327
853.7040, 359.2015
854.1862, 363.4232
854.6683, 362.5583
855.1504, 363.0490
855.6325, 369.1192
856.1146, 376.5474
856.5967, 382.7912
857.0789, 387.7762
857.5610, 391.8909
858.0431, 394.7346
858.5252, 397.7917
859.0073, 402.2108
859.4894, 407.6181
859.9716, 412.9828
860.4537, 418.2760
860.9358, 422.8786
861.4179, 425.9205
861.9000, 428.5907
862.3821, 431.6489
862.8643, 435.1207
863.3464, 439.0385
863.8285, 443.8826
864.3106, 448.2173
864.7927, 451.2465
865.2748, 453.4037
865.7570, 456.8580
866.2391, 461.5267
866.7212, 465.4449
867.2033, 466.8822
867.6854, 467.6832
868.1675, 470.1723
868.6497, 473.7098
869.1318, 476.3950
869.6139, 476.2455
870.0960, 476.8357
870.5781, 479.3475
871.0602, 483.0288
871.5424, 486.0388
872.0245, 488.3105
872.5066, 490.6040
872.9887, 493.3737
873.4708, 495.8146
873.9529, 496.3964
874.4351, 495.7643
874.9172, 495.3024
875.3993, 495.5102
875.8814, 495.9280
876.3635, 496.5805
876.8456, 497.2701
877.3278, 497.6561
877.8099, 497.4474
878.2920, 497.8568
878.7741, 499.0485
879.2562, 500.7453
879.7383, 502.8663
880.2205, 505.2114
880.7026, 506.9324
881.1847, 507.6151
881.6668, 509.2214
882.1489, 513.9637
882.6310, 519.6557
883.1132, 524.5469
883.5953, 528.7040
884.0774, 530.9020
884.5595, 530.1849
885.0416, 529.2875
885.5237, 530.4097
886.0059, 533.2305
886.4880, 535.8052
886.9701, 538.0630
887.4522, 540.4073
887.9343, 543.3813
888.4164, 546.3947
888.8986, 548.5417
889.3807, 549.8221
889.8628, 552.5370
890.3449, 559.0469
890.8270, 563.9622
891.3091, 564.5298
891.7913, 561.8762
892.2734, 562.2624
892.7555, 565.5483
893.2376, 568.7632
893.7197, 569.8547
894.2018, 570.4906
894.6840, 572.8739
895.1661, 576.2889
895.6482, 578.7152
896.1303, 576.9812
896.6124, 577.5512
897.0945, 583.0125
897.5767, 590.7708
898.0588, 594.8202
898.5409, 595.0461
899.0230, 596.0578
899.5051, 599.1468
899.9872, 602.8802
900.4694, 604.4931
900.9515, 605.8201
901.4336, 610.3956
901.9157, 622.3737
902.3978, 631.2980
902.8799, 632.5654
903.3621, 630.6508
903.8442, 628.0933
904.3263, 623.7312
904.8084, 627.2175
905.2905, 640.3789
905.7726, 653.8878
906.2548, 657.7150
906.7369, 656.4443
907.2190, 657.3043
907.7011, 661.0994
908.1832, 665.2601
908.6653, 670.0521
909.1475, 673.5040
909.6296, 674.1262
910.1117, 672.0001
910.5938, 671.2186
911.0759, 671.9449
911.5580, 673.1957
912.0402, 674.0957
912.5223, 675.3450
913.0044, 678.9222
913.4865, 684.2247
913.9686, 688.8708
914.4507, 690.5344
914.9329, 692.5807
915.4150, 696.7861
915.8971, 702.3831
916.3792, 707.4205
916.8613, 711.6789
917.3434, 716.0358
917.8256, 720.6110
918.3077, 725.4837
918.7898, 730.8945
919.2719, 736.6907
919.7540, 742.6616
920.2361, 749.2536
920.7183, 754.7995
921.2004, 757.6694
921.6825, 759.6498
922.1646, 762.8267
922.6467, 768.3423
923.1288, 770.9823
923.6110, 769.5685
924.0931, 769.2028
924.5752, 775.7648
925.0573, 786.6943
925.5394, 797.0200
926.0215, 806.3342
926.5037, 813.3956
926.9858, 814.3746
927.4679, 815.7665
927.9500, 822.8789
928.4321, 835.0835
928.9142, 842.7875
929.3964, 844.6118
929.8785, 847.1405
930.3606, 853.4009
930.8427, 862.2073
931.3248, 871.5480
931.8069, 881.1395
932.2891, 890.0324
932.7712, 895.6232
933.2533, 902.9196
933.7354, 915.0129
934.2175, 930.0934
934.6996, 944.4097
935.1818, 958.1516
935.6639, 970.8247
936.1460, 982.2534
936.6281, 993.5910
937.1102, 1005.710
937.5923, 1019.135
938.0745, 1034.932
938.5566, 1053.783
939.0387, 1073.403
939.5208, 1092.304
940.0029, 1111.642
940.4850, 1131.562
940.9672, 1151.546
941.4493, 1175.714
941.9314, 1204.461
942.4135, 1234.805
942.8956, 1264.308
943.3777, 1294.355
943.8599, 1328.622
944.3420, 1366.638
944.8241, 1406.865
945.3062, 1449.544
945.7883, 1492.756
946.2704, 1534.470
946.7526, 1576.339
947.2347, 1623.237
947.7168, 1675.580
948.1989, 1730.778
948.6810, 1788.904
949.1631, 1847.988
949.6453, 1902.724
950.1274, 1957.144
950.6095, 2017.506
951.0916, 2085.000
951.5737, 2160.639
952.0558, 2244.113
952.5380, 2336.744
953.0201, 2439.681
953.5022, 2552.997
953.9843, 2675.403
954.4664, 2805.495
954.9485, 2947.877
955.4307, 3102.858
955.9128, 3273.923
956.3949, 3463.461
956.8770, 3672.288
957.3591, 3906.473
957.8412, 4164.022
958.3234, 4454.331
958.8055, 4779.752
959.2876, 5142.769
959.7697, 5547.604
960.2518, 5996.666
960.7339, 6505.404
961.2161, 7080.887
961.6982, 7725.313
962.1803, 8459.114
962.6624, 9263.707
963.1445, 10121.65
963.6266, 11043.77
964.1088, 12002.39
964.5909, 13008.87
965.0730, 14042.75
965.5551, 15073.30
966.0372, 16098.79
966.5193, 17147.30
967.0015, 18211.73
967.4836, 19308.17
967.9657, 20412.01
968.4478, 21567.45
968.9299, 22776.29
969.4120, 24044.66
969.8942, 25466.90
970.3763, 27059.17
970.8584, 28784.51
971.3405, 30638.89
971.8226, 32626.90
972.3047, 34812.29
972.7869, 37186.02
973.2690, 39747.73
973.7511, 42566.84
974.2332, 45461.10
974.7153, 48485.40
975.1974, 51471.46
975.6796, 54293.39
976.1617, 57144.50
976.6438, 59284.96
977.1259, 60692.68
977.6080, 61284.29
978.0901, 60975.61
978.5723, 59763.91
979.0544, 57495.43
979.5365, 54172.11
980.0186, 50357.34
980.5007, 45967.70
980.9828, 41569.47
981.4650, 37313.96
981.9471, 33252.21
982.4291, 29598.04
982.9113, 26355.91
983.3934, 23478.57
983.8755, 20958.83
984.3576, 18774.58
984.8397, 16915.12
985.3218, 15321.40
985.8040, 13920.17
986.2861, 12733.75
986.7682, 11680.58
987.2503, 10752.60
987.7324, 9930.101
988.2145, 9213.768
988.6967, 8597.976
989.1788, 8036.214
989.6609, 7523.887
990.1430, 7061.798
990.6251, 6649.312
991.1072, 6280.765
991.5894, 5956.983
992.0715, 5679.819
992.5536, 5418.581
993.0357, 5169.218
993.5178, 4936.766
993.9999, 4725.461
994.4821, 4532.474
994.9642, 4355.057
995.4463, 4192.964
995.9284, 4039.376
996.4105, 3893.369
996.8926, 3756.281
997.3748, 3628.518
997.8569, 3511.312
998.3390, 3403.789
998.8211, 3307.378
999.3032, 3214.668
999.7853, 3127.138
1000.267, 3043.287
1000.750, 2963.509
1001.232, 2887.477
1001.714, 2815.073
1002.196, 2746.827
1002.678, 2681.356
1003.160, 2620.365
1003.642, 2561.549
1004.124, 2504.086
1004.607, 2448.729
1005.089, 2400.776
1005.571, 2359.421
1006.053, 2315.291
1006.535, 2263.066
1007.017, 2213.639
1007.499, 2177.962
1007.981, 2149.368
1008.463, 2119.565
1008.946, 2086.627
1009.428, 2054.181
1009.910, 2021.955
1010.392, 1990.105
1010.874, 1958.350
1011.356, 1927.112
1011.838, 1900.068
1012.320, 1876.788
1012.802, 1853.928
1013.285, 1828.879
1013.767, 1804.938
1014.249, 1785.041
1014.731, 1767.242
1015.213, 1747.399
1015.695, 1724.495
1016.177, 1706.759
1016.659, 1696.782
1017.142, 1687.545
1017.624, 1668.639
1018.106, 1646.235
1018.588, 1629.285
1019.070, 1620.201
1019.552, 1609.960
1020.034, 1594.588
1020.516, 1580.443
1020.998, 1571.302
1021.481, 1565.742
1021.963, 1555.735
1022.445, 1541.912
1022.927, 1528.924
1023.409, 1519.134
1023.891, 1510.855
1024.373, 1504.779
1024.855, 1498.911
1025.338, 1489.082
1025.820, 1471.946
1026.302, 1461.062
1026.784, 1458.653
1027.266, 1457.771
1027.748, 1450.322
1028.230, 1439.606
1028.712, 1431.925
1029.194, 1427.685
1029.677, 1422.994
1030.159, 1415.708
1030.641, 1408.338
1031.123, 1401.858
1031.605, 1395.923
1032.087, 1389.095
1032.569, 1381.509
1033.051, 1374.498
1033.534, 1368.262
1034.016, 1363.468
1034.498, 1362.391
1034.980, 1362.201
1035.462, 1359.154
1035.944, 1350.490
1036.426, 1345.718
1036.908, 1345.981
1037.391, 1347.011
1037.873, 1345.841
1038.355, 1343.177
1038.837, 1340.881
1039.319, 1338.780
1039.801, 1336.125
1040.283, 1331.133
1040.765, 1327.226
1041.247, 1324.951
1041.729, 1324.658
1042.212, 1328.079
1042.694, 1335.284
1043.176, 1338.833
1043.658, 1337.112
1044.140, 1336.249
1044.622, 1343.598
1045.104, 1353.361
1045.586, 1359.769
1046.069, 1362.016
1046.551, 1364.559
1047.033, 1366.395
1047.515, 1371.747
1047.997, 1383.558
1048.479, 1398.391
1048.961, 1409.294
1049.443, 1417.032
1049.926, 1423.447
1050.408, 1427.101
1050.890, 1433.130
1051.372, 1445.204
1051.854, 1458.969
1052.336, 1471.597
1052.818, 1483.256
1053.300, 1491.650
1053.782, 1496.743
1054.265, 1502.269
1054.747, 1511.505
1055.229, 1521.786
1055.711, 1532.407
1056.193, 1542.339
1056.675, 1547.808
1057.157, 1546.275
1057.639, 1547.014
1058.121, 1552.346
1058.604, 1558.153
1059.086, 1558.072
1059.568, 1554.454
1060.050, 1552.485
1060.532, 1553.282
1061.014, 1551.797
1061.496, 1545.286
1061.978, 1536.722
1062.461, 1526.741
1062.943, 1515.923
1063.425, 1507.053
1063.907, 1499.849
1064.389, 1491.813
1064.871, 1481.912
1065.353, 1470.906
1065.835, 1458.900
1066.318, 1446.415
1066.800, 1433.602
1067.282, 1419.867
1067.764, 1407.914
1068.246, 1398.030
1068.728, 1388.988
1069.210, 1380.682
1069.692, 1372.155
1070.174, 1361.914
1070.656, 1350.074
1071.139, 1337.065
1071.621, 1319.670
1072.103, 1305.732
1072.585, 1296.713
1073.067, 1291.149
1073.549, 1288.243
1074.031, 1286.982
1074.513, 1281.816
1074.996, 1271.816
1075.478, 1262.825
1075.960, 1261.330
1076.442, 1259.573
1076.924, 1251.142
1077.406, 1237.672
1077.888, 1230.117
1078.370, 1228.725
1078.853, 1228.162
1079.335, 1226.951
1079.817, 1225.175
1080.299, 1222.115
1080.781, 1218.876
1081.263, 1217.220
1081.745, 1218.940
1082.227, 1217.804
1082.709, 1212.886
1083.192, 1207.440
1083.674, 1203.181
1084.156, 1200.051
1084.638, 1197.625
1085.120, 1196.127
1085.602, 1196.233
1086.084, 1200.077
1086.566, 1203.183
1087.048, 1204.690
1087.531, 1204.852
1088.013, 1203.168
1088.495, 1199.953
1088.977, 1199.045
1089.459, 1200.705
1089.941, 1203.507
1090.423, 1208.050
1090.905, 1211.902
1091.387, 1212.913
1091.870, 1211.760
1092.352, 1210.875
1092.834, 1209.859
1093.316, 1212.292
1093.798, 1219.701
1094.280, 1228.242
1094.762, 1233.291
1095.244, 1236.837
1095.727, 1241.745
1096.209, 1248.933
1096.691, 1253.297
1097.173, 1252.816
1097.655, 1253.524
1098.137, 1257.999
1098.619, 1265.548
1099.101, 1276.980
1099.583, 1289.941
1100.066, 1298.681
1100.548, 1298.211
1101.030, 1298.605
1101.512, 1300.987
1101.994, 1306.702
1102.476, 1318.954
1102.958, 1336.867
1103.440, 1347.444
1103.922, 1351.179
1104.405, 1354.525
1104.887, 1360.180
1105.369, 1367.819
1105.851, 1379.123
1106.333, 1391.751
1106.815, 1400.926
1107.297, 1406.036
1107.779, 1411.870
1108.262, 1418.876
1108.744, 1427.059
1109.226, 1437.715
1109.708, 1448.686
1110.190, 1457.664
1110.672, 1464.696
1111.154, 1472.544
1111.636, 1481.711
1112.119, 1490.703
1112.601, 1499.351
1113.083, 1507.436
1113.565, 1513.914
1114.047, 1520.037
1114.529, 1527.907
1115.011, 1538.067
1115.493, 1549.772
1115.975, 1564.974
1116.458, 1578.321
1116.940, 1586.510
1117.422, 1591.968
1117.904, 1602.847
1118.386, 1617.924
1118.868, 1633.925
1119.350, 1651.530
1119.832, 1665.854
1120.314, 1670.890
1120.797, 1675.077
1121.279, 1684.875
1121.761, 1700.219
1122.243, 1716.113
1122.725, 1732.501
1123.207, 1748.723
1123.689, 1764.914
1124.171, 1780.234
1124.654, 1793.909
1125.136, 1806.397
1125.618, 1818.198
1126.100, 1828.862
1126.582, 1841.666
1127.064, 1856.958
1127.546, 1872.970
1128.028, 1888.866
1128.510, 1904.187
1128.993, 1918.191
1129.475, 1930.963
1129.957, 1944.331
1130.439, 1958.687
1130.921, 1973.182
1131.403, 1988.164
1131.885, 2001.794
1132.367, 2010.475
1132.849, 2016.745
1133.332, 2024.726
1133.814, 2034.926
1134.296, 2046.006
1134.778, 2058.960
1135.260, 2070.315
1135.742, 2078.645
1136.224, 2085.197
1136.706, 2092.542
1137.189, 2100.448
1137.671, 2108.967
1138.153, 2119.138
1138.635, 2125.693
1139.117, 2122.656
1139.599, 2119.494
1140.081, 2120.688
1140.563, 2125.510
1141.046, 2132.602
1141.528, 2140.742
1142.010, 2143.573
1142.492, 2135.157
1142.974, 2126.878
1143.456, 2125.802
1143.938, 2126.629
1144.420, 2124.457
1144.902, 2119.111
1145.385, 2114.560
1145.867, 2110.817
1146.349, 2108.055
1146.831, 2108.162
1147.313, 2107.479
1147.795, 2102.938
1148.277, 2096.121
1148.759, 2089.264
1149.241, 2081.663
1149.724, 2078.856
1150.206, 2081.456
1150.688, 2084.432
1151.170, 2083.830
1151.652, 2081.486
1152.134, 2078.905
1152.616, 2076.025
1153.098, 2072.434
1153.581, 2068.114
1154.063, 2063.854
1154.545, 2060.443
1155.027, 2054.178
1155.509, 2038.829
1155.991, 2019.695
1156.473, 2004.929
1156.955, 1994.482
1157.438, 1976.781
1157.920, 1947.383
1158.402, 1920.135
1158.884, 1899.980
1159.366, 1879.884
1159.848, 1847.362
1160.330, 1808.485
1160.812, 1774.291
1161.294, 1747.240
1161.776, 1716.474
1162.259, 1677.039
1162.741, 1638.659
1163.223, 1604.345
1163.705, 1573.108
1164.187, 1543.632
1164.669, 1515.428
1165.151, 1486.713
1165.633, 1456.828
1166.116, 1426.852
1166.598, 1395.452
1167.080, 1365.791
1167.562, 1339.612
1168.044, 1316.038
1168.526, 1292.037
1169.008, 1267.891
1169.490, 1244.173
1169.973, 1219.980
1170.455, 1198.111
1170.937, 1181.550
1171.419, 1165.980
1171.901, 1148.211
1172.383, 1128.873
1172.865, 1111.797
1173.347, 1097.000
1173.829, 1082.960
1174.312, 1067.627
1174.794, 1054.507
1175.276, 1046.983
1175.758, 1040.775
1176.240, 1031.335
1176.722, 1018.824
1177.204, 1008.303
1177.686, 999.7867
1178.168, 991.5360
1178.651, 982.6047
1179.133, 973.6754
1179.615, 964.5262
1180.097, 955.8690
1180.579, 949.3739
1181.061, 945.1805
1181.543, 935.9399
1182.025, 921.0726
1182.508, 909.1958
1182.990, 909.8519
1183.472, 912.2736
1183.954, 909.7048
1184.436, 903.6279
1184.918, 897.0864
1185.400, 890.0153
1185.882, 884.8732
1186.365, 882.1688
1186.847, 879.0291
1187.329, 872.5547
1187.811, 865.0985
1188.293, 858.3947
1188.775, 852.3386
1189.257, 846.1425
1189.739, 839.7040
1190.221, 834.7230
1190.703, 831.6260
1191.186, 829.2111
1191.668, 827.1124
1192.150, 824.5858
1192.632, 820.9364
1193.114, 816.1718
1193.596, 810.5886
1194.078, 804.0677
1194.560, 797.7020
1195.043, 791.7515
1195.525, 786.3756
1196.007, 782.6107
1196.489, 778.9325
1196.971, 773.0715
1197.453, 764.9493
1197.935, 760.2238
1198.417, 759.4061
1198.900, 757.4658
1199.382, 752.1344
1199.864, 746.2919
1200.346, 743.6276
1200.828, 741.7347
1201.310, 737.4956
1201.792, 730.3368
1202.274, 724.5165
1202.756, 720.1865
1203.239, 716.0029
1203.721, 711.1612
1204.203, 706.6763
1204.685, 704.4132
1205.167, 702.8257
1205.649, 699.5417
1206.131, 693.6965
1206.613, 689.9825
1207.095, 688.6279
1207.578, 687.0027
1208.060, 683.0508
1208.542, 678.9941
1209.024, 678.1205
1209.506, 678.4720
1209.988, 676.7391
1210.470, 671.7458
1210.952, 668.7010
1211.435, 667.7316
1211.917, 667.5751
1212.399, 667.3241
1212.881, 667.5908
1213.363, 670.0278
1213.845, 673.1108
1214.327, 673.7260
1214.809, 670.1470
1215.292, 670.0247
1215.774, 673.7994
1216.256, 677.5739
1216.738, 678.7967
1217.220, 678.3278
1217.702, 676.6298
1218.184, 673.9346
1218.666, 670.6461
1219.148, 666.5900
1219.630, 663.0251
1220.113, 660.0905
1220.595, 656.9600
1221.077, 652.7316
1221.559, 648.3318
1222.041, 644.9296
1222.523, 641.9224
1223.005, 637.5967
1223.487, 631.3964
1223.970, 626.8011
1224.452, 624.1957
1224.934, 621.3284
1225.416, 615.9281
1225.898, 609.8385
1226.380, 604.4575
1226.862, 599.6777
1227.344, 594.8890
1227.827, 589.9705
1228.309, 585.8981
1228.791, 582.8094
1229.273, 579.4623
1229.755, 574.4437
1230.237, 569.1024
1230.719, 564.5460
1231.201, 560.5164
1231.683, 555.9677
1232.166, 550.7771
1232.648, 546.9700
1233.130, 544.8207
1233.612, 542.8224
1234.094, 539.8033
1234.576, 536.4227
1235.058, 532.5886
1235.540, 528.9509
1236.022, 527.4730
1236.505, 528.2084
1236.987, 527.2983
1237.469, 524.1764
1237.951, 520.5328
1238.433, 516.6620
1238.915, 513.7460
1239.397, 513.3330
1239.879, 514.2290
1240.362, 513.8424
1240.844, 512.2591
1241.326, 510.5048
1241.808, 508.6912
1242.290, 507.4414
1242.772, 507.7508
1243.254, 508.1324
1243.736, 507.9322
1244.219, 507.1554
1244.701, 505.3380
1245.183, 502.7833
1245.665, 501.6671
1246.147, 502.4442
1246.629, 503.2888
1247.111, 503.9921
1247.593, 503.4156
1248.075, 500.5115
1248.557, 496.6730
1249.040, 495.4495
1249.522, 496.1342
1250.004, 496.2111
1250.486, 495.3140
1250.968, 492.9156
1251.450, 486.1772
1251.932, 481.2361
1252.414, 480.5343
1252.897, 482.4268
1253.379, 484.5395
1253.861, 486.2164
1254.343, 485.1242
1254.825, 480.6451
1255.307, 477.5610
1255.789, 478.4702
1256.271, 479.5224
1256.754, 479.8958
1257.236, 479.3445
1257.718, 476.5833
1258.200, 472.8660
1258.682, 470.8563
1259.164, 471.1379
1259.646, 470.6750
1260.128, 469.1117
1260.610, 466.3832
1261.093, 461.8675
1261.575, 457.6140
1262.057, 458.1005
1262.539, 460.2282
1263.021, 458.8949
1263.503, 453.0958
1263.985, 449.9509
1264.467, 450.7796
1264.949, 450.6895
1265.432, 448.0542
1265.914, 444.4621
1266.396, 441.5318
1266.878, 439.0854
1267.360, 437.0295
1267.842, 435.3481
1268.324, 433.6884
1268.806, 432.1144
1269.289, 429.9190
1269.771, 426.6234
1270.253, 423.6403
1270.735, 423.3812
1271.217, 423.2668
1271.699, 420.2746
1272.181, 414.9982
1272.663, 410.9466
1273.146, 408.1507
1273.628, 407.0483
1274.110, 408.2703
1274.592, 408.7802
1275.074, 404.9346
1275.556, 400.9219
1276.038, 399.6911
1276.520, 400.4833
1277.002, 400.4509
1277.484, 399.6904
1277.967, 398.8529
1278.449, 398.2032
1278.931, 396.8507
1279.413, 394.0376
1279.895, 390.6144
1280.377, 386.6599
1280.859, 382.7175
1281.341, 380.2491
1281.823, 378.9285
1282.306, 377.9209
1282.788, 377.1866
1283.270, 375.8035
1283.752, 373.3374
1284.234, 370.2868
1284.716, 366.4098
1285.198, 362.6890
1285.680, 361.5723
1286.163, 361.6269
1286.645, 359.9915
1287.127, 356.0361
1287.609, 353.1643
1288.091, 352.3736
1288.573, 350.4788
1289.055, 346.1087
1289.537, 341.4023
1290.020, 339.8213
1290.502, 339.2419
1290.984, 337.0050
1291.466, 332.8347
1291.948, 329.6763
1292.430, 327.7387
1292.912, 325.1519
##END=



