##NAMES=Anhydrite
##RRUFFID=R040012
##IDEAL CHEMISTRY=CaS^6+^O_4_
##LOCALITY=Moundhouse, Nevada, USA
##OWNER=RRUFF
##SOURCE=University of Arizona Mineral Museum
##DESCRIPTION=White massive
##STATUS=The identification of this mineral has been confirmed by X-ray diffraction and chemical analysis
##URL=rruff.info/R040012
##MEASURED CHEMISTRY=Ca_1.00_S_1.00_O_4_
111.7267, 99.97116
112.2088, 107.1497
112.6909, 114.1636
113.1730, 121.0632
113.6551, 127.5563
114.1373, 133.8793
114.6194, 139.6284
115.1015, 144.5473
115.5836, 147.1871
116.0657, 150.1890
116.5478, 154.5880
117.0300, 160.6040
117.5121, 166.5338
117.9942, 170.5866
118.4763, 174.4715
118.9584, 180.3647
119.4405, 187.5866
119.9227, 198.1986
120.4048, 213.0985
120.8869, 232.2714
121.3690, 256.4432
121.8511, 295.2514
122.3332, 339.8921
122.8154, 371.8365
123.2975, 380.4002
123.7796, 372.0224
124.2617, 349.9979
124.7438, 309.6161
125.2259, 268.2654
125.7081, 240.7260
126.1902, 225.9530
126.6723, 219.0157
127.1544, 219.0623
127.6365, 225.9797
128.1186, 237.9668
128.6008, 253.8221
129.0829, 275.0244
129.5650, 305.5331
130.0471, 344.8838
130.5292, 386.7452
131.0113, 438.0435
131.4935, 491.6852
131.9756, 515.8262
132.4577, 496.1584
132.9398, 443.8770
133.4219, 384.9145
133.9040, 317.5502
134.3862, 253.6547
134.8683, 206.6571
135.3504, 175.9430
135.8325, 153.0083
136.3146, 136.1311
136.7967, 125.0533
137.2789, 117.2493
137.7610, 113.0672
138.2431, 111.0315
138.7252, 109.4858
139.2073, 108.6194
139.6894, 107.2794
140.1716, 104.5334
140.6537, 99.88392
141.1358, 97.68683
141.6179, 98.70670
142.1000, 101.3412
142.5821, 102.3790
143.0643, 100.9015
143.5464, 99.81116
144.0285, 100.3594
144.5106, 103.1472
144.9927, 105.9408
145.4748, 108.3786
145.9570, 110.8628
146.4391, 114.4093
146.9212, 118.9795
147.4033, 124.6627
147.8854, 131.6614
148.3675, 140.9974
148.8497, 150.0185
149.3318, 159.0349
149.8139, 167.7486
150.2960, 174.6472
150.7781, 180.6237
151.2602, 184.1175
151.7424, 184.2249
152.2245, 177.8526
152.7066, 171.6993
153.1887, 165.5361
153.6708, 159.5721
154.1529, 155.6987
154.6351, 154.6671
155.1172, 155.3318
155.5993, 156.9040
156.0814, 159.7077
156.5635, 162.9933
157.0456, 167.0150
157.5278, 171.7281
158.0099, 175.6926
158.4920, 178.2317
158.9741, 180.1144
159.4562, 182.0376
159.9383, 183.9220
160.4205, 186.0947
160.9026, 188.3782
161.3847, 190.7078
161.8668, 194.2672
162.3489, 199.2509
162.8310, 205.7358
163.3132, 213.8128
163.7953, 222.0264
164.2774, 232.9659
164.7595, 247.0173
165.2416, 263.8491
165.7237, 286.9937
166.2059, 322.1294
166.6880, 364.2172
167.1701, 405.5973
167.6522, 458.9077
168.1343, 500.3220
168.6164, 511.3300
169.0985, 487.2679
169.5807, 445.2424
170.0628, 384.3146
170.5449, 313.6708
171.0270, 251.8176
171.5091, 209.0806
171.9912, 178.8741
172.4734, 155.7753
172.9555, 139.7352
173.4376, 128.1833
173.9197, 120.2563
174.4018, 115.2145
174.8839, 111.1567
175.3661, 106.9707
175.8482, 103.1718
176.3303, 100.5541
176.8124, 99.42631
177.2945, 99.02263
177.7766, 98.94125
178.2588, 99.02222
178.7409, 98.60820
179.2230, 96.60514
179.7051, 93.90270
180.1872, 92.28085
180.6693, 92.30678
181.1515, 92.99335
181.6336, 93.08069
182.1157, 92.62144
182.5978, 91.98857
183.0799, 91.31869
183.5620, 90.65981
184.0442, 90.15453
184.5263, 89.83137
185.0084, 89.66283
185.4905, 89.57625
185.9726, 89.57571
186.4547, 89.74432
186.9369, 90.44812
187.4190, 91.47176
187.9011, 91.81065
188.3832, 91.02536
188.8653, 89.66163
189.3474, 88.95969
189.8296, 88.93332
190.3117, 89.03060
190.7938, 88.60481
191.2759, 87.77393
191.7580, 87.49707
192.2401, 88.11352
192.7223, 89.35367
193.2044, 90.61446
193.6865, 91.96355
194.1686, 92.89652
194.6507, 92.59518
195.1328, 91.13613
195.6150, 90.26791
196.0971, 90.65244
196.5792, 91.87949
197.0613, 92.17263
197.5434, 91.34351
198.0255, 90.47540
198.5077, 90.91394
198.9898, 92.73550
199.4719, 93.86346
199.9540, 93.44946
200.4361, 91.91697
200.9182, 91.76945
201.4004, 93.33024
201.8825, 95.30016
202.3646, 96.40822
202.8467, 96.57832
203.3288, 96.41879
203.8109, 95.84994
204.2931, 94.99860
204.7752, 95.05869
205.2573, 96.24151
205.7394, 97.82758
206.2215, 99.11626
206.7036, 100.0645
207.1858, 100.8537
207.6679, 101.3674
208.1500, 101.6619
208.6321, 102.6780
209.1142, 104.5760
209.5963, 106.8926
210.0785, 109.3680
210.5606, 112.2705
211.0427, 114.1901
211.5248, 114.3510
212.0069, 112.8240
212.4890, 112.9188
212.9712, 115.1801
213.4533, 118.2321
213.9354, 120.4477
214.4175, 121.4657
214.8996, 122.8414
215.3817, 125.2243
215.8639, 128.5996
216.3460, 130.7451
216.8281, 131.0806
217.3102, 130.9593
217.7923, 131.8687
218.2744, 134.0453
218.7565, 136.6912
219.2387, 139.7363
219.7208, 143.2258
220.2029, 146.2257
220.6850, 148.4339
221.1671, 150.4792
221.6492, 153.0407
222.1314, 156.3482
222.6135, 159.7086
223.0956, 162.9274
223.5777, 166.0454
224.0598, 169.0086
224.5419, 171.6282
225.0241, 174.3292
225.5062, 177.7264
225.9883, 182.3033
226.4704, 186.5056
226.9525, 189.8777
227.4346, 192.4368
227.9168, 194.7941
228.3989, 196.6818
228.8810, 198.6511
229.3631, 201.3911
229.8452, 205.7366
230.3273, 209.2740
230.8095, 211.5938
231.2916, 212.6955
231.7737, 212.5629
232.2558, 210.7799
232.7379, 208.1999
233.2200, 205.9383
233.7022, 205.3021
234.1843, 202.3759
234.6664, 195.6998
235.1485, 185.2723
235.6306, 175.9654
236.1127, 167.9021
236.5949, 160.7143
237.0770, 154.0207
237.5591, 147.7585
238.0412, 142.1479
238.5233, 137.4205
239.0054, 133.5578
239.4876, 129.5735
239.9697, 125.0675
240.4518, 120.8343
240.9339, 117.6195
241.4160, 115.8359
241.8981, 114.2774
242.3803, 112.8392
242.8624, 111.5087
243.3445, 110.0510
243.8266, 108.3033
244.3087, 106.5976
244.7908, 105.1819
245.2730, 104.0057
245.7551, 103.2197
246.2372, 102.8605
246.7193, 102.9192
247.2014, 103.3873
247.6835, 104.7360
248.1657, 105.9166
248.6478, 105.9857
249.1299, 104.1457
249.6120, 102.9684
250.0941, 103.0662
250.5762, 104.2169
251.0584, 104.5830
251.5405, 103.8059
252.0226, 102.7232
252.5047, 101.8865
252.9868, 101.2838
253.4689, 100.9613
253.9511, 101.0409
254.4332, 101.4308
254.9153, 101.5820
255.3974, 101.3761
255.8795, 101.1202
256.3616, 100.9480
256.8438, 100.7093
257.3259, 101.0085
257.8080, 102.2598
258.2901, 104.0560
258.7722, 104.6870
259.2543, 103.4270
259.7365, 102.2228
260.2186, 102.2294
260.7007, 103.9091
261.1828, 105.4203
261.6649, 106.7010
262.1470, 107.7333
262.6292, 108.4419
263.1113, 108.6396
263.5934, 108.8787
264.0755, 109.4759
264.5576, 110.5754
265.0397, 111.5830
265.5219, 112.6600
266.0040, 113.5319
266.4861, 113.4221
266.9682, 111.9146
267.4503, 110.4685
267.9324, 109.8503
268.4146, 110.2818
268.8967, 110.5032
269.3788, 110.5574
269.8609, 110.3605
270.3430, 109.7107
270.8251, 108.5293
271.3073, 107.1553
271.7894, 105.5542
272.2715, 103.6209
272.7536, 102.6201
273.2357, 102.8131
273.7178, 103.5686
274.2000, 103.9110
274.6821, 103.7249
275.1642, 103.6334
275.6463, 103.9762
276.1284, 104.7547
276.6105, 104.9582
277.0927, 104.4330
277.5748, 103.6666
278.0569, 103.3498
278.5390, 103.5633
279.0211, 103.5703
279.5032, 103.0661
279.9854, 102.1245
280.4675, 101.3276
280.9496, 100.6621
281.4317, 100.1876
281.9138, 100.0121
282.3959, 100.1446
282.8781, 100.3487
283.3602, 100.5881
283.8423, 100.8506
284.3244, 101.0496
284.8065, 101.1684
285.2886, 101.3334
285.7708, 101.6814
286.2529, 102.2032
286.7350, 102.7792
287.2171, 103.5268
287.6992, 104.2134
288.1813, 103.9001
288.6635, 102.5181
289.1456, 101.3722
289.6277, 101.9026
290.1098, 103.7923
290.5919, 104.8220
291.0740, 104.4516
291.5562, 103.3548
292.0383, 102.7968
292.5204, 102.7536
293.0025, 102.8237
293.4846, 102.6285
293.9667, 102.3132
294.4489, 102.5044
294.9310, 103.4399
295.4131, 104.4693
295.8952, 104.3890
296.3773, 103.3893
296.8594, 102.6858
297.3416, 103.3865
297.8237, 104.8351
298.3058, 105.4017
298.7879, 104.8535
299.2700, 104.0533
299.7521, 104.1111
300.2343, 104.7874
300.7164, 105.3139
301.1985, 105.0463
301.6806, 104.4943
302.1627, 104.5890
302.6448, 105.4047
303.1270, 106.1917
303.6091, 106.0949
304.0912, 105.4653
304.5733, 105.0297
305.0554, 105.3629
305.5375, 105.8893
306.0197, 105.8388
306.5018, 105.2494
306.9839, 104.8033
307.4660, 105.3101
307.9481, 106.2087
308.4302, 106.6861
308.9124, 106.1763
309.3945, 105.4703
309.8766, 105.1954
310.3587, 105.2954
310.8408, 105.4883
311.3229, 105.5379
311.8051, 105.6263
312.2872, 105.9786
312.7693, 106.8691
313.2514, 107.6603
313.7335, 107.9085
314.2156, 107.7483
314.6978, 107.5792
315.1799, 107.6568
315.6620, 107.7507
316.1441, 107.6521
316.6262, 107.2065
317.1083, 106.8938
317.5905, 107.0492
318.0726, 107.4585
318.5547, 107.7512
319.0368, 107.6174
319.5189, 107.4757
320.0010, 107.4510
320.4832, 107.4977
320.9653, 107.9617
321.4474, 109.6790
321.9295, 111.6214
322.4116, 112.5862
322.8937, 111.5493
323.3759, 110.2398
323.8580, 109.1054
324.3401, 108.1863
324.8222, 107.2710
325.3043, 105.4867
325.7864, 104.1487
326.2686, 104.2708
326.7507, 108.2899
327.2328, 111.1833
327.7149, 111.7881
328.1970, 110.3254
328.6791, 109.3637
329.1613, 109.1233
329.6434, 109.2461
330.1255, 109.5843
330.6076, 110.7542
331.0897, 111.2331
331.5718, 110.6439
332.0540, 109.3543
332.5361, 108.4006
333.0182, 107.8280
333.5003, 107.5210
333.9824, 107.4829
334.4645, 107.8419
334.9467, 108.0466
335.4288, 107.9133
335.9109, 107.7563
336.3930, 108.1752
336.8751, 109.5143
337.3572, 110.6251
337.8394, 111.0830
338.3215, 110.8454
338.8036, 110.9984
339.2857, 111.8931
339.7678, 112.5665
340.2499, 111.5806
340.7320, 108.5148
341.2141, 106.4360
341.6963, 106.2600
342.1784, 107.5907
342.6605, 108.7688
343.1426, 109.8525
343.6247, 110.4622
344.1068, 109.9983
344.5890, 108.5274
345.0711, 107.4815
345.5532, 107.1575
346.0353, 107.2549
346.5174, 107.2018
346.9995, 106.9992
347.4817, 106.7463
347.9638, 106.4321
348.4459, 106.1055
348.9280, 106.0176
349.4101, 106.2495
349.8922, 106.4565
350.3744, 105.9572
350.8565, 104.9762
351.3386, 104.3799
351.8207, 104.8499
352.3028, 105.8783
352.7849, 106.7138
353.2671, 107.3540
353.7492, 107.7708
354.2313, 107.7947
354.7134, 107.6007
355.1955, 107.4963
355.6776, 107.6273
356.1598, 107.8524
356.6419, 108.0589
357.1240, 108.2500
357.6061, 108.4401
358.0882, 108.7494
358.5703, 109.0113
359.0525, 109.0267
359.5346, 108.6344
360.0167, 108.2304
360.4988, 107.8903
360.9809, 107.7041
361.4630, 107.8783
361.9452, 108.9202
362.4273, 110.0268
362.9094, 110.7447
363.3915, 110.9726
363.8736, 111.0412
364.3557, 110.8641
364.8379, 110.6469
365.3200, 110.6318
365.8021, 111.2475
366.2842, 111.7037
366.7663, 111.5833
367.2484, 110.8732
367.7306, 110.6168
368.2127, 111.2650
368.6948, 112.2026
369.1769, 113.0292
369.6590, 114.1761
370.1411, 114.6567
370.6233, 114.0662
371.1054, 112.7219
371.5875, 111.8250
372.0696, 111.5979
372.5517, 111.5591
373.0338, 111.5235
373.5160, 111.4907
373.9981, 111.4706
374.4802, 111.5092
374.9623, 111.5226
375.4444, 111.2495
375.9265, 110.3678
376.4087, 110.1194
376.8908, 111.1004
377.3729, 113.2556
377.8550, 114.7263
378.3371, 115.3561
378.8192, 115.6846
379.3014, 116.4057
379.7835, 117.5767
380.2656, 117.8467
380.7477, 116.5680
381.2298, 114.5929
381.7119, 114.3250
382.1941, 115.8019
382.6762, 117.2502
383.1583, 117.0658
383.6404, 115.7763
384.1225, 115.5809
384.6046, 116.8641
385.0868, 118.6247
385.5689, 119.8819
386.0510, 120.6128
386.5331, 120.7630
387.0152, 119.4623
387.4973, 117.9193
387.9795, 118.1511
388.4616, 120.1755
388.9437, 122.3521
389.4258, 123.4525
389.9079, 123.8990
390.3900, 124.2215
390.8722, 124.1593
391.3543, 124.5380
391.8364, 126.2604
392.3185, 129.0071
392.8006, 131.6536
393.2827, 132.6169
393.7649, 133.9515
394.2470, 136.9557
394.7291, 141.7382
395.2112, 148.4855
395.6933, 155.0214
396.1754, 164.0299
396.6576, 179.5275
397.1397, 204.0661
397.6218, 233.7237
398.1039, 270.2631
398.5860, 314.7953
399.0681, 352.3688
399.5503, 382.3153
400.0324, 404.3051
400.5145, 417.7760
400.9966, 415.0038
401.4787, 414.7003
401.9608, 418.2950
402.4430, 425.2812
402.9251, 433.7538
403.4072, 443.8363
403.8893, 455.2712
404.3714, 467.8082
404.8535, 481.4394
405.3357, 496.4291
405.8178, 512.4568
406.2999, 530.0172
406.7820, 549.6929
407.2641, 571.4874
407.7462, 595.1009
408.2284, 619.3246
408.7105, 645.0633
409.1926, 677.6934
409.6747, 716.6122
410.1568, 766.7493
410.6389, 828.6982
411.1211, 903.7642
411.6032, 1004.681
412.0853, 1138.253
412.5674, 1290.115
413.0495, 1445.981
413.5316, 1606.529
414.0138, 1770.356
414.4959, 1933.298
414.9780, 2102.649
415.4601, 2324.451
415.9422, 2611.655
416.4243, 2807.221
416.9065, 2789.331
417.3886, 2597.317
417.8707, 2286.335
418.3528, 1741.683
418.8349, 1211.105
419.3170, 841.5553
419.7992, 614.1857
420.2813, 455.7546
420.7634, 360.3703
421.2455, 299.3397
421.7276, 255.7279
422.2097, 230.8507
422.6919, 212.3631
423.1740, 199.5025
423.6561, 190.5072
424.1382, 182.3672
424.6203, 173.9635
425.1024, 167.2803
425.5846, 163.3565
426.0667, 162.3797
426.5488, 160.7879
427.0309, 158.1208
427.5130, 155.2247
427.9951, 152.6629
428.4773, 150.5152
428.9594, 148.5286
429.4415, 146.6784
429.9236, 144.9900
430.4057, 143.4910
430.8878, 142.1808
431.3700, 141.0999
431.8521, 140.3670
432.3342, 139.9829
432.8163, 139.2082
433.2984, 137.8751
433.7805, 136.7368
434.2627, 137.0519
434.7448, 138.6219
435.2269, 139.3423
435.7090, 138.2870
436.1911, 136.4808
436.6732, 136.1084
437.1554, 137.0142
437.6375, 137.9771
438.1196, 138.0858
438.6017, 137.7473
439.0838, 137.6268
439.5659, 137.8237
440.0480, 138.1067
440.5302, 138.3612
441.0123, 138.5571
441.4944, 138.6440
441.9765, 138.3326
442.4586, 138.1302
442.9407, 138.6108
443.4229, 139.6448
443.9050, 140.1819
444.3871, 139.0234
444.8692, 137.7231
445.3513, 137.3527
445.8334, 138.6671
446.3156, 139.8680
446.7977, 140.6486
447.2798, 141.1086
447.7619, 141.4125
448.2440, 141.5395
448.7261, 141.5405
449.2083, 141.4170
449.6904, 141.1669
450.1725, 140.7733
450.6546, 139.9098
451.1367, 139.3133
451.6188, 139.7170
452.1010, 141.6111
452.5831, 142.7490
453.0652, 142.6120
453.5473, 141.9405
454.0294, 142.6387
454.5115, 144.9137
454.9937, 146.9018
455.4758, 147.5356
455.9579, 147.1029
456.4400, 147.3552
456.9221, 148.3631
457.4042, 149.4028
457.8864, 149.6604
458.3685, 149.3719
458.8506, 149.1796
459.3327, 149.0954
459.8148, 149.4238
460.2969, 150.8595
460.7791, 153.0985
461.2612, 155.0909
461.7433, 155.9638
462.2254, 156.5217
462.7075, 157.4660
463.1896, 158.8976
463.6718, 160.3682
464.1539, 161.5815
464.6360, 162.7392
465.1181, 164.0218
465.6002, 165.0535
466.0823, 166.6770
466.5645, 169.6074
467.0466, 173.4202
467.5287, 176.4867
468.0108, 177.7930
468.4929, 179.0717
468.9750, 180.9483
469.4572, 183.5733
469.9393, 186.1909
470.4214, 188.6657
470.9035, 191.2330
471.3856, 194.1326
471.8677, 197.3790
472.3499, 200.9109
472.8320, 204.7295
473.3141, 208.8764
473.7962, 213.4556
474.2783, 218.4216
474.7604, 224.1533
475.2426, 230.7790
475.7247, 238.3666
476.2068, 247.1821
476.6889, 257.3486
477.1710, 268.2769
477.6531, 278.6908
478.1353, 289.2891
478.6174, 301.9701
479.0995, 317.2812
479.5816, 335.0961
480.0637, 355.8846
480.5458, 379.1584
481.0280, 402.8044
481.5101, 426.2579
481.9922, 449.2864
482.4743, 471.2820
482.9564, 492.1365
483.4385, 513.0109
483.9207, 534.7477
484.4028, 556.3885
484.8849, 576.9169
485.3670, 593.5182
485.8491, 611.6007
486.3312, 632.4564
486.8134, 655.7482
487.2955, 679.7065
487.7776, 702.8431
488.2597, 727.7410
488.7418, 755.4191
489.2239, 785.7267
489.7061, 818.0284
490.1882, 851.5054
490.6703, 888.2965
491.1524, 931.9955
491.6345, 983.7199
492.1166, 1036.105
492.5988, 1087.122
493.0809, 1139.764
493.5630, 1202.096
494.0451, 1274.356
494.5272, 1347.620
495.0093, 1420.922
495.4915, 1491.367
495.9736, 1554.028
496.4557, 1608.563
496.9378, 1653.496
497.4199, 1691.084
497.9020, 1716.864
498.3842, 1723.724
498.8663, 1711.868
499.3484, 1677.478
499.8305, 1613.188
500.3126, 1524.241
500.7947, 1424.315
501.2769, 1307.780
501.7590, 1189.311
502.2411, 1073.262
502.7232, 957.6168
503.2053, 853.7122
503.6874, 767.3817
504.1696, 691.5406
504.6517, 622.2253
505.1338, 557.8391
505.6159, 503.1295
506.0980, 460.5047
506.5801, 427.1383
507.0623, 397.0946
507.5444, 370.3138
508.0265, 345.9130
508.5086, 323.2702
508.9907, 302.4728
509.4728, 284.4975
509.9550, 269.5442
510.4371, 256.2650
510.9192, 243.4992
511.4013, 231.5000
511.8834, 221.6904
512.3655, 214.5030
512.8477, 208.5820
513.3298, 202.7794
513.8119, 197.0296
514.2940, 191.1730
514.7761, 184.2482
515.2582, 177.8807
515.7404, 173.5679
516.2225, 171.0846
516.7046, 168.6875
517.1867, 165.3339
517.6688, 161.9908
518.1509, 159.3011
518.6331, 157.5325
519.1152, 155.9663
519.5973, 154.5902
520.0794, 153.3276
520.5615, 152.1123
521.0436, 151.0610
521.5258, 149.8322
522.0079, 148.1749
522.4900, 146.2766
522.9721, 145.2109
523.4542, 145.3432
523.9363, 145.2911
524.4185, 144.1800
524.9006, 142.0139
525.3827, 140.2116
525.8648, 138.7499
526.3469, 137.7187
526.8290, 137.5206
527.3112, 137.9072
527.7933, 137.8554
528.2754, 136.9241
528.7575, 135.8262
529.2396, 135.3733
529.7217, 135.4449
530.2039, 135.6899
530.6860, 136.0465
531.1681, 136.4175
531.6502, 136.7602
532.1323, 137.0702
532.6144, 137.2943
533.0966, 137.3857
533.5787, 137.3996
534.0608, 137.4102
534.5429, 137.8500
535.0250, 137.5758
535.5071, 135.7101
535.9893, 133.3794
536.4714, 132.3620
536.9535, 133.6615
537.4356, 134.3175
537.9177, 133.5207
538.3998, 131.5181
538.8820, 129.7670
539.3641, 128.2450
539.8462, 127.1620
540.3283, 126.8871
540.8104, 127.2823
541.2925, 127.2789
541.7747, 126.7727
542.2568, 126.2725
542.7389, 126.5645
543.2210, 127.2767
543.7031, 127.4864
544.1852, 126.6925
544.6674, 125.7048
545.1495, 125.3763
545.6316, 125.4476
546.1137, 125.2701
546.5958, 124.0867
547.0779, 122.9727
547.5601, 122.5064
548.0422, 122.7307
548.5243, 123.1816
549.0064, 124.1715
549.4885, 125.0639
549.9706, 125.4434
550.4528, 124.9507
550.9349, 124.5898
551.4170, 124.2265
551.8991, 124.0905
552.3812, 124.7446
552.8633, 126.5780
553.3455, 127.5491
553.8276, 126.9146
554.3097, 125.2211
554.7918, 124.2495
555.2739, 124.0154
555.7560, 123.8423
556.2382, 122.9908
556.7203, 121.9722
557.2024, 122.1068
557.6845, 123.4816
558.1666, 125.0056
558.6487, 125.7880
559.1309, 126.1726
559.6130, 126.5830
560.0951, 127.1636
560.5772, 127.7178
561.0593, 128.2378
561.5414, 128.6556
562.0236, 128.8450
562.5057, 128.3554
562.9878, 128.0724
563.4699, 128.3745
563.9520, 129.1880
564.4341, 129.7781
564.9163, 130.1943
565.3984, 130.3125
565.8805, 130.0034
566.3626, 129.1693
566.8447, 128.4259
567.3268, 127.6978
567.8090, 127.2350
568.2911, 127.6349
568.7732, 128.7477
569.2553, 129.1176
569.7374, 128.2498
570.2195, 126.9314
570.7017, 126.0828
571.1838, 125.6655
571.6659, 125.5661
572.1480, 125.9444
572.6301, 126.4553
573.1122, 126.9318
573.5944, 127.3399
574.0765, 127.4199
574.5586, 126.9115
575.0407, 126.1515
575.5228, 125.2108
576.0049, 123.7670
576.4871, 123.1200
576.9692, 124.0597
577.4513, 125.3926
577.9334, 125.9868
578.4155, 125.4434
578.8976, 125.0741
579.3798, 125.0242
579.8619, 125.2411
580.3440, 125.7251
580.8261, 126.5179
581.3082, 127.0246
581.7903, 126.7770
582.2725, 126.1188
582.7546, 125.9953
583.2367, 126.3926
583.7188, 127.1998
584.2009, 128.8114
584.6830, 130.5776
585.1652, 131.4025
585.6473, 130.9490
586.1294, 130.9291
586.6115, 132.3328
587.0936, 134.6989
587.5757, 137.5275
588.0578, 139.8357
588.5399, 143.6041
589.0220, 149.0188
589.5042, 156.1969
589.9863, 164.9707
590.4684, 172.6474
590.9505, 186.2114
591.4326, 208.4754
591.9147, 238.5771
592.3969, 270.2842
592.8790, 304.8307
593.3611, 335.6974
593.8432, 358.9268
594.3253, 374.6413
594.8074, 384.1903
595.2896, 387.0981
595.7717, 389.2144
596.2538, 395.3759
596.7359, 404.9699
597.2180, 417.1198
597.7001, 431.7083
598.1823, 448.0000
598.6644, 464.9509
599.1465, 483.3116
599.6286, 504.4571
600.1107, 525.5717
600.5928, 552.6136
601.0750, 585.0927
601.5571, 624.2308
602.0392, 677.2643
602.5213, 745.9763
603.0034, 827.0985
603.4855, 922.3002
603.9677, 1034.144
604.4498, 1133.151
604.9319, 1216.935
605.4140, 1297.734
605.8961, 1378.373
606.3782, 1462.436
606.8604, 1570.182
607.3425, 1707.952
607.8246, 1856.676
608.3067, 2049.691
608.7888, 2232.751
609.2709, 2282.535
609.7531, 2109.772
610.2352, 1844.040
610.7173, 1507.518
611.1994, 1139.432
611.6815, 843.3956
612.1636, 672.6928
612.6458, 557.4156
613.1279, 479.3097
613.6100, 439.6023
614.0921, 409.9166
614.5742, 392.3321
615.0563, 381.6146
615.5385, 375.4172
616.0206, 374.0316
616.5027, 375.1519
616.9848, 378.6794
617.4669, 384.9781
617.9490, 394.4417
618.4312, 406.9753
618.9133, 421.2786
619.3954, 436.1373
619.8775, 455.6497
620.3596, 484.2068
620.8417, 521.3851
621.3239, 565.4153
621.8060, 622.2736
622.2881, 680.5758
622.7702, 734.0671
623.2523, 783.5930
623.7344, 832.9059
624.2166, 878.2794
624.6987, 928.2725
625.1808, 985.8276
625.6629, 1051.259
626.1450, 1125.128
626.6271, 1226.879
627.1093, 1306.586
627.5914, 1336.434
628.0735, 1317.448
628.5556, 1220.848
629.0377, 1032.374
629.5198, 817.3870
630.0020, 637.4921
630.4841, 491.9574
630.9662, 380.3530
631.4483, 307.4044
631.9304, 257.7919
632.4125, 222.8887
632.8947, 200.0176
633.3768, 182.9517
633.8589, 172.1132
634.3410, 163.9785
634.8231, 157.6222
635.3052, 152.9012
635.7874, 149.2550
636.2695, 147.7016
636.7516, 146.0034
637.2337, 143.1817
637.7158, 139.1062
638.1979, 136.4589
638.6801, 135.5834
639.1622, 135.0923
639.6443, 133.7815
640.1264, 131.7972
640.6085, 130.4143
641.0906, 129.8006
641.5728, 129.3985
642.0549, 128.4997
642.5370, 127.4104
643.0191, 126.7150
643.5012, 126.7418
643.9833, 126.8581
644.4655, 126.7377
644.9476, 126.4226
645.4297, 125.9783
645.9118, 124.9801
646.3939, 124.3496
646.8760, 124.5612
647.3582, 125.3681
647.8403, 125.8102
648.3224, 125.6384
648.8045, 125.5978
649.2866, 125.9149
649.7687, 126.5948
650.2509, 127.7445
650.7330, 129.4100
651.2151, 131.1600
651.6972, 132.3281
652.1793, 133.4052
652.6614, 135.7322
653.1436, 139.4578
653.6257, 143.2562
654.1078, 145.1840
654.5899, 146.9994
655.0720, 150.5641
655.5541, 156.1372
656.0363, 163.8612
656.5184, 173.3475
657.0005, 185.0806
657.4826, 199.7731
657.9647, 216.3125
658.4468, 237.5712
658.9290, 265.1655
659.4111, 296.9618
659.8932, 329.1468
660.3753, 362.3339
660.8574, 390.5779
661.3395, 410.8360
661.8217, 425.2081
662.3038, 437.3227
662.7859, 447.6084
663.2680, 459.0373
663.7501, 473.5466
664.2322, 490.0215
664.7144, 506.4725
665.1965, 522.9979
665.6786, 544.3525
666.1607, 572.1906
666.6428, 605.7711
667.1249, 643.6769
667.6071, 682.8602
668.0892, 735.7047
668.5713, 801.5463
669.0534, 882.4178
669.5355, 981.3970
670.0176, 1101.157
670.4998, 1224.707
670.9819, 1352.150
671.4640, 1478.777
671.9461, 1595.234
672.4282, 1703.265
672.9103, 1818.824
673.3925, 1950.541
673.8746, 2085.019
674.3567, 2234.184
674.8388, 2373.867
675.3209, 2450.554
675.8030, 2473.541
676.2852, 2396.649
676.7673, 2159.571
677.2494, 1787.480
677.7315, 1442.982
678.2136, 1111.107
678.6957, 833.7521
679.1779, 632.7248
679.6600, 504.0479
680.1421, 407.7173
680.6242, 344.7932
681.1063, 300.0206
681.5884, 265.9412
682.0706, 240.9362
682.5527, 221.0777
683.0348, 205.9827
683.5169, 194.0775
683.9990, 184.6618
684.4811, 177.0829
684.9633, 170.5676
685.4454, 165.1744
685.9275, 160.3652
686.4096, 155.8748
686.8917, 151.8711
687.3738, 148.5652
687.8560, 146.5450
688.3381, 144.0979
688.8202, 140.7348
689.3023, 137.2389
689.7844, 135.0415
690.2665, 134.2190
690.7487, 133.3279
691.2308, 131.8380
691.7129, 130.3117
692.1950, 129.8272
692.6771, 130.1634
693.1592, 130.5074
693.6414, 130.7531
694.1235, 130.6103
694.6056, 129.5229
695.0877, 127.7618
695.5698, 126.4204
696.0519, 126.2688
696.5341, 126.1963
697.0162, 125.6670
697.4983, 124.6917
697.9804, 124.1787
698.4625, 124.2429
698.9446, 124.5434
699.4268, 125.1257
699.9089, 125.9407
700.3910, 125.6320
700.8731, 124.1106
701.3552, 122.5973
701.8373, 122.1998
702.3195, 122.5260
702.8016, 123.0210
703.2837, 123.6663
703.7658, 124.0505
704.2479, 123.8885
704.7300, 123.3591
705.2122, 122.5854
705.6943, 120.9876
706.1764, 120.1778
706.6585, 120.7190
707.1406, 121.7545
707.6227, 122.3081
708.1049, 122.3179
708.5870, 122.0457
709.0691, 121.4260
709.5512, 120.7293
710.0333, 120.2950
710.5154, 120.1659
710.9976, 120.6333
711.4797, 122.2254
711.9618, 123.8735
712.4439, 124.5918
712.9260, 124.4901
713.4081, 123.8553
713.8903, 121.9607
714.3724, 120.4075
714.8545, 119.8727
715.3366, 120.2630
715.8187, 120.7809
716.3008, 121.6146
716.7830, 122.2500
717.2651, 122.4864
717.7472, 122.3669
718.2293, 122.2178
718.7114, 122.0394
719.1935, 121.8328
719.6757, 121.5094
720.1578, 121.1859
720.6399, 121.2267
721.1220, 121.6018
721.6041, 121.6886
722.0862, 120.5666
722.5684, 119.3616
723.0505, 119.0271
723.5326, 119.9205
724.0147, 120.4610
724.4968, 120.2861
724.9789, 119.7987
725.4611, 119.1040
725.9432, 117.9409
726.4253, 117.7509
726.9074, 118.7834
727.3895, 120.0730
727.8716, 120.5424
728.3538, 120.3743
728.8359, 120.2797
729.3180, 120.3896
729.8001, 120.5235
730.2822, 120.6041
730.7643, 120.5779
731.2465, 120.3363
731.7286, 119.4385
732.2107, 118.9639
732.6928, 119.5140
733.1749, 120.5614
733.6570, 121.3001
734.1392, 121.6502
734.6213, 121.8147
735.1034, 121.7212
735.5855, 121.5606
736.0676, 121.8133
736.5497, 122.4422
737.0319, 122.9050
737.5140, 123.0455
737.9961, 122.8885
738.4782, 122.0959
738.9603, 121.0149
739.4424, 120.5383
739.9246, 121.9626
740.4067, 123.1910
740.8888, 123.0813
741.3709, 121.9016
741.8530, 120.9642
742.3351, 120.0752
742.8173, 119.8725
743.2994, 120.7841
743.7815, 122.5314
744.2636, 123.5054
744.7457, 123.6482
745.2278, 123.8166
745.7100, 124.9520
746.1921, 126.2654
746.6742, 125.8974
747.1563, 124.0772
747.6384, 122.4393
748.1205, 121.6391
748.6027, 121.5807
749.0848, 122.6860
749.5669, 125.0231
750.0490, 126.1511
750.5311, 125.1162
751.0132, 123.5450
751.4954, 121.9382
751.9775, 120.2239
752.4596, 119.6397
752.9417, 120.3577
753.4238, 121.3339
753.9059, 121.8078
754.3881, 121.9080
754.8702, 122.0100
755.3523, 122.1443
755.8344, 122.0646
756.3165, 121.1168
756.7986, 120.1671
757.2808, 120.0694
757.7629, 121.1969
758.2450, 122.2423
758.7271, 123.2937
759.2092, 123.9527
759.6913, 123.7949
760.1735, 122.4687
760.6556, 121.8579
761.1377, 122.1400
761.6198, 122.7128
762.1019, 122.7730
762.5840, 122.5662
763.0662, 123.0415
763.5483, 124.5069
764.0304, 125.8196
764.5125, 126.0897
764.9946, 125.6188
765.4767, 124.6813
765.9589, 122.7574
766.4410, 121.3932
766.9231, 120.8873
767.4052, 121.0368
767.8873, 121.8181
768.3694, 123.5167
768.8516, 124.6327
769.3337, 124.8765
769.8158, 124.7932
770.2979, 125.2807
770.7800, 126.1426
771.2621, 126.6467
771.7443, 126.5270
772.2264, 126.1797
772.7085, 125.7487
773.1906, 125.3634
773.6727, 125.2170
774.1548, 125.9934
774.6370, 126.2177
775.1191, 125.0226
775.6012, 123.4246
776.0833, 123.2481
776.5654, 125.0418
777.0475, 125.8617
777.5297, 124.9069
778.0118, 123.1871
778.4939, 122.4107
778.9760, 122.4233
779.4581, 122.6606
779.9402, 122.9754
780.4224, 123.3534
780.9045, 123.9517
781.3866, 124.5731
781.8687, 124.8423
782.3508, 124.4459
782.8329, 123.9181
783.3151, 123.2638
783.7972, 122.5877
784.2793, 122.1301
784.7614, 121.9267
785.2435, 121.7383
785.7256, 121.4022
786.2077, 121.1797
786.6898, 121.9473
787.1719, 123.3703
787.6541, 124.1802
788.1362, 123.3125
788.6183, 122.1541
789.1004, 121.7352
789.5825, 121.7464
790.0646, 121.4220
790.5468, 119.8021
791.0289, 118.8267
791.5110, 119.1521
791.9931, 120.2995
792.4752, 120.6541
792.9573, 120.0861
793.4395, 119.9907
793.9216, 121.2673
794.4037, 122.8691
794.8858, 122.3475
795.3679, 120.3716
795.8500, 119.0939
796.3322, 120.2069
796.8143, 121.6670
797.2964, 122.6414
797.7785, 123.0778
798.2606, 122.7582
798.7427, 120.7516
799.2249, 119.4542
799.7070, 119.7289
800.1891, 120.9823
800.6712, 120.9974
801.1533, 119.7526
801.6354, 119.0253
802.1176, 120.0214
802.5997, 121.5119
803.0818, 121.5499
803.5639, 120.5315
804.0460, 119.6607
804.5281, 119.4718
805.0103, 119.5606
805.4924, 119.8512
805.9745, 120.2980
806.4566, 120.6793
806.9387, 120.8074
807.4208, 121.3202
807.9030, 122.6528
808.3851, 124.3204
808.8672, 124.7492
809.3493, 124.0437
809.8314, 123.1475
810.3135, 122.1473
810.7957, 121.5070
811.2778, 122.0029
811.7599, 123.2734
812.2420, 124.3052
812.7241, 124.8017
813.2062, 124.9314
813.6884, 124.5670
814.1705, 123.8899
814.6526, 123.4695
815.1347, 123.3590
815.6168, 123.2705
816.0989, 123.0797
816.5811, 122.8932
817.0632, 122.9073
817.5453, 123.1271
818.0274, 123.5679
818.5095, 124.5239
818.9916, 125.4290
819.4738, 125.8999
819.9559, 126.0307
820.4380, 126.0670
820.9201, 126.0886
821.4022, 125.9416
821.8843, 125.4042
822.3665, 124.7836
822.8486, 124.9757
823.3307, 125.9999
823.8128, 127.1947
824.2949, 128.5754
824.7770, 129.6653
825.2592, 129.4778
825.7413, 128.4619
826.2234, 127.6871
826.7055, 127.6188
827.1876, 127.8516
827.6697, 128.4648
828.1519, 129.2354
828.6340, 129.6660
829.1161, 129.5994
829.5982, 129.5492
830.0803, 129.6062
830.5624, 129.7295
831.0446, 129.7606
831.5267, 129.7589
832.0088, 130.0122
832.4909, 130.5400
832.9730, 131.4994
833.4551, 133.4533
833.9373, 135.8281
834.4194, 137.6917
834.9015, 138.2785
835.3836, 139.0592
835.8657, 140.6468
836.3478, 142.2286
836.8300, 142.3475
837.3121, 140.8103
837.7942, 139.6647
838.2763, 139.2412
838.7584, 139.3425
839.2405, 140.2448
839.7227, 141.3746
840.2048, 141.3845
840.6869, 139.0902
841.1690, 137.4352
841.6511, 138.7129
842.1332, 140.9576
842.6154, 141.7413
843.0975, 140.1435
843.5796, 138.9968
844.0617, 138.6074
844.5438, 138.3237
845.0259, 136.9623
845.5081, 134.9015
845.9902, 134.3148
846.4723, 135.7443
846.9544, 137.2534
847.4365, 137.0004
847.9186, 136.0021
848.4008, 135.3654
848.8829, 135.4138
849.3650, 135.5029
849.8471, 135.8877
850.3292, 135.9500
850.8113, 134.8464
851.2935, 132.2825
851.7756, 131.9369
852.2577, 134.2024
852.7398, 136.5806
853.2219, 136.5653
853.7040, 135.2747
854.1862, 134.2907
854.6683, 133.7902
855.1504, 133.8829
855.6325, 135.9547
856.1146, 137.5465
856.5967, 136.6039
857.0789, 132.6808
857.5610, 130.7325
858.0431, 131.2505
858.5252, 132.2876
859.0073, 132.7339
859.4894, 132.6678
859.9716, 132.1164
860.4537, 131.1657
860.9358, 130.7083
861.4179, 131.9151
861.9000, 133.3163
862.3821, 133.9029
862.8643, 133.6467
863.3464, 133.2301
863.8285, 132.7113
864.3106, 132.0717
864.7927, 131.2251
865.2748, 130.2704
865.7570, 129.7316
866.2391, 129.5868
866.7212, 129.5283
867.2033, 129.3716
867.6854, 129.2383
868.1675, 129.3435
868.6497, 129.5825
869.1318, 129.6542
869.6139, 129.3319
870.0960, 128.9670
870.5781, 128.5445
871.0602, 128.1743
871.5424, 128.2494
872.0245, 128.8488
872.5066, 129.0713
872.9887, 128.5552
873.4708, 127.7925
873.9529, 127.4558
874.4351, 127.4551
874.9172, 127.6191
875.3993, 128.1720
875.8814, 128.4559
876.3635, 128.1038
876.8456, 127.3871
877.3278, 126.6092
877.8099, 125.4876
878.2920, 125.2644
878.7741, 126.2476
879.2562, 127.6636
879.7383, 128.7722
880.2205, 129.5180
880.7026, 129.6327
881.1847, 128.9664
881.6668, 128.2694
882.1489, 128.0306
882.6310, 127.9965
883.1132, 127.9138
883.5953, 127.6421
884.0774, 127.7335
884.5595, 128.4339
885.0416, 129.0289
885.5237, 128.9003
886.0059, 128.1581
886.4880, 127.3153
886.9701, 126.4080
887.4522, 125.9303
887.9343, 126.5587
888.4164, 127.5497
888.8986, 128.4469
889.3807, 129.2055
889.8628, 129.3090
890.3449, 128.0684
890.8270, 127.0959
891.3091, 127.1037
891.7913, 127.8689
892.2734, 128.1592
892.7555, 127.9980
893.2376, 127.9273
893.7197, 128.7142
894.2018, 129.3335
894.6840, 128.1276
895.1661, 125.8528
895.6482, 124.6271
896.1303, 126.3101
896.6124, 127.5807
897.0945, 127.5314
897.5767, 126.7995
898.0588, 126.7632
898.5409, 127.4472
899.0230, 128.1351
899.5051, 128.7118
899.9872, 129.1033
900.4694, 129.2524
900.9515, 129.1493
901.4336, 128.7174
901.9157, 127.5378
902.3978, 126.8274
902.8799, 127.0112
903.3621, 127.7625
903.8442, 129.0845
904.3263, 131.2826
904.8084, 131.9768
905.2905, 130.8529
905.7726, 129.4374
906.2548, 129.2922
906.7369, 129.7994
907.2190, 129.8998
907.7011, 129.4685
908.1832, 129.2392
908.6653, 129.8386
909.1475, 130.4604
909.6296, 130.5951
910.1117, 130.2536
910.5938, 130.2403
911.0759, 130.6042
911.5580, 131.0449
912.0402, 131.4045
912.5223, 131.7282
913.0044, 132.1169
913.4865, 132.5519
913.9686, 132.9450
914.4507, 133.0143
914.9329, 133.2889
915.4150, 134.4356
915.8971, 135.8924
916.3792, 136.0957
916.8613, 134.6059
917.3434, 133.6622
917.8256, 133.8308
918.3077, 134.5747
918.7898, 135.3463
919.2719, 135.9774
919.7540, 136.0045
920.2361, 135.0294
920.7183, 134.0688
921.2004, 133.5547
921.6825, 133.3191
922.1646, 133.1673
922.6467, 133.0691
923.1288, 133.1074
923.6110, 133.2536
924.0931, 133.6421
924.5752, 134.6416
925.0573, 135.9117
925.5394, 136.5625
926.0215, 136.5476
926.5037, 136.6511
926.9858, 137.7574
927.4679, 138.7274
927.9500, 138.7400
928.4321, 137.8694
928.9142, 136.9527
929.3964, 135.7801
929.8785, 135.4065
930.3606, 136.7282
930.8427, 138.7962
931.3248, 139.3047
931.8069, 138.6755
932.2891, 138.2886
932.7712, 139.1896
933.2533, 140.0019
933.7354, 140.0316
934.2175, 139.6246
934.6996, 139.4761
935.1818, 139.6697
935.6639, 139.8042
936.1460, 139.7746
936.6281, 139.8352
937.1102, 140.4591
937.5923, 141.4048
938.0745, 142.2052
938.5566, 142.8334
939.0387, 143.0188
939.5208, 142.1839
940.0029, 141.1900
940.4850, 140.5268
940.9672, 140.0986
941.4493, 141.0652
941.9314, 143.7752
942.4135, 146.1872
942.8956, 146.4342
943.3777, 145.6145
943.8599, 146.1429
944.3420, 147.7315
944.8241, 148.7810
945.3062, 147.8165
945.7883, 146.9025
946.2704, 146.9857
946.7526, 147.7487
947.2347, 148.5000
947.7168, 149.3382
948.1989, 149.3787
948.6810, 148.0340
949.1631, 146.6318
949.6453, 147.4409
950.1274, 149.5116
950.6095, 151.0321
951.0916, 151.1770
951.5737, 151.4933
952.0558, 152.7383
952.5380, 154.1069
953.0201, 154.9750
953.5022, 155.2888
953.9843, 155.4532
954.4664, 155.4579
954.9485, 155.4529
955.4307, 155.1901
955.9128, 155.2070
956.3949, 156.5783
956.8770, 159.1884
957.3591, 161.1606
957.8412, 161.3871
958.3234, 161.4062
958.8055, 161.5863
959.2876, 161.9737
959.7697, 162.9677
960.2518, 164.5486
960.7339, 165.4854
961.2161, 164.9179
961.6982, 164.2871
962.1803, 165.1300
962.6624, 166.9560
963.1445, 169.0090
963.6266, 171.1909
964.1088, 173.5334
964.5909, 176.5058
965.0730, 179.0478
965.5551, 179.6204
966.0372, 178.5176
966.5193, 178.5627
967.0015, 179.9597
967.4836, 181.5419
967.9657, 182.3181
968.4478, 182.9400
968.9299, 183.9149
969.4120, 185.2867
969.8942, 186.8436
970.3763, 188.9683
970.8584, 190.4039
971.3405, 190.3749
971.8226, 189.6347
972.3047, 190.3426
972.7869, 192.2153
973.2690, 194.0907
973.7511, 195.3819
974.2332, 196.7089
974.7153, 198.7465
975.1974, 200.8901
975.6796, 202.2259
976.1617, 202.1687
976.6438, 202.9126
977.1259, 204.5990
977.6080, 206.8905
978.0901, 209.7915
978.5723, 212.9026
979.0544, 215.2707
979.5365, 216.8139
980.0186, 218.6758
980.5007, 222.0970
980.9828, 225.2271
981.4650, 226.6753
981.9471, 226.9161
982.4291, 229.5562
982.9113, 234.8513
983.3934, 239.4295
983.8755, 240.9477
984.3576, 242.6055
984.8397, 250.2248
985.3218, 260.8660
985.8040, 268.9077
986.2861, 269.9677
986.7682, 272.0152
987.2503, 275.8262
987.7324, 281.1423
988.2145, 288.1811
988.6967, 296.8345
989.1788, 303.8378
989.6609, 308.9252
990.1430, 315.1801
990.6251, 325.3201
991.1072, 337.6003
991.5894, 350.8044
992.0715, 364.7326
992.5536, 379.3782
993.0357, 394.4935
993.5178, 410.5800
993.9999, 426.9083
994.4821, 445.0066
994.9642, 468.5602
995.4463, 496.8889
995.9284, 528.3430
996.4105, 561.0624
996.8926, 598.4821
997.3748, 642.9162
997.8569, 692.8011
998.3390, 745.9794
998.8211, 800.3261
999.3032, 864.6478
999.7853, 937.4977
1000.267, 1022.547
1000.750, 1113.405
1001.232, 1221.659
1001.714, 1360.912
1002.196, 1532.367
1002.678, 1748.243
1003.160, 2030.722
1003.642, 2336.396
1004.124, 2661.311
1004.607, 2992.107
1005.089, 3281.808
1005.571, 3533.621
1006.053, 3761.803
1006.535, 3966.667
1007.017, 4168.882
1007.499, 4384.021
1007.981, 4615.142
1008.463, 4867.839
1008.946, 5135.951
1009.428, 5441.563
1009.910, 5778.483
1010.392, 6173.037
1010.874, 6620.381
1011.356, 7140.538
1011.838, 7770.341
1012.320, 8513.517
1012.802, 9413.697
1013.285, 10497.16
1013.767, 11736.19
1014.249, 13157.50
1014.731, 14714.30
1015.213, 16324.44
1015.695, 18044.16
1016.177, 19554.67
1016.659, 20886.04
1017.142, 21650.79
1017.624, 21360.38
1018.106, 20195.62
1018.588, 18245.96
1019.070, 15386.10
1019.552, 12674.39
1020.034, 10194.35
1020.516, 8081.131
1020.998, 6428.144
1021.481, 5193.906
1021.963, 4235.269
1022.445, 3531.727
1022.927, 2974.575
1023.409, 2549.804
1023.891, 2207.656
1024.373, 1934.611
1024.855, 1717.584
1025.338, 1533.990
1025.820, 1388.254
1026.302, 1258.711
1026.784, 1144.753
1027.266, 1044.729
1027.748, 957.8724
1028.230, 883.6217
1028.712, 820.9170
1029.194, 769.7647
1029.677, 722.9473
1030.159, 678.1002
1030.641, 636.8560
1031.123, 599.3963
1031.605, 565.5011
1032.087, 534.3794
1032.569, 506.2660
1033.051, 480.9786
1033.534, 458.8640
1034.016, 439.1906
1034.498, 421.7253
1034.980, 405.8306
1035.462, 390.9991
1035.944, 377.0090
1036.426, 364.0871
1036.908, 352.2913
1037.391, 341.4838
1037.873, 332.5279
1038.355, 324.3225
1038.837, 313.4833
1039.319, 300.7233
1039.801, 289.6876
1040.283, 282.5955
1040.765, 276.9841
1041.247, 273.1082
1041.729, 269.5070
1042.212, 263.1369
1042.694, 253.9520
1043.176, 246.9261
1043.658, 242.8389
1044.140, 239.7406
1044.622, 235.7556
1045.104, 231.7974
1045.586, 229.0538
1046.069, 227.7304
1046.551, 225.2065
1047.033, 220.9731
1047.515, 216.5580
1047.997, 212.2825
1048.479, 208.4914
1048.961, 206.7273
1049.443, 206.0327
1049.926, 203.7853
1050.408, 197.6208
1050.890, 192.4062
1051.372, 190.3951
1051.854, 189.6176
1052.336, 188.7464
1052.818, 187.7982
1053.300, 186.1653
1053.782, 183.8395
1054.265, 181.4333
1054.747, 179.2318
1055.229, 177.2704
1055.711, 175.7932
1056.193, 174.5840
1056.675, 172.7627
1057.157, 169.7025
1057.639, 167.6462
1058.121, 167.2254
1058.604, 167.2019
1059.086, 165.8086
1059.568, 163.5699
1060.050, 161.2297
1060.532, 158.8049
1061.014, 157.4915
1061.496, 159.2494
1061.978, 160.6149
1062.461, 159.8462
1062.943, 157.5197
1063.425, 156.5766
1063.907, 156.8401
1064.389, 156.5362
1064.871, 154.5513
1065.353, 152.5623
1065.835, 151.8736
1066.318, 151.9227
1066.800, 152.0633
1067.282, 152.5805
1067.764, 151.8768
1068.246, 149.6563
1068.728, 147.6349
1069.210, 147.6328
1069.692, 148.3823
1070.174, 147.5105
1070.656, 145.4965
1071.139, 144.3484
1071.621, 145.9046
1072.103, 146.7367
1072.585, 145.9607
1073.067, 144.6527
1073.549, 144.6654
1074.031, 145.6136
1074.513, 145.6353
1074.996, 144.4268
1075.478, 143.3984
1075.960, 143.5468
1076.442, 144.0874
1076.924, 144.6579
1077.406, 145.2098
1077.888, 145.4820
1078.370, 145.4731
1078.853, 145.2396
1079.335, 144.6992
1079.817, 144.1763
1080.299, 144.0492
1080.781, 144.1496
1081.263, 144.2316
1081.745, 144.1363
1082.227, 144.4605
1082.709, 145.4996
1083.192, 146.1940
1083.674, 145.2507
1084.156, 143.6907
1084.638, 144.5683
1085.120, 147.1798
1085.602, 149.1278
1086.084, 149.1032
1086.566, 148.6663
1087.048, 147.7753
1087.531, 147.0775
1088.013, 147.6390
1088.495, 149.2959
1088.977, 149.8248
1089.459, 149.0786
1089.941, 148.8581
1090.423, 151.0143
1090.905, 153.5954
1091.387, 155.3616
1091.870, 156.4422
1092.352, 157.2990
1092.834, 157.7199
1093.316, 159.4436
1093.798, 162.9329
1094.280, 167.5911
1094.762, 172.7338
1095.244, 178.6184
1095.727, 185.3773
1096.209, 192.8250
1096.691, 202.8035
1097.173, 216.1409
1097.655, 229.7766
1098.137, 242.1116
1098.619, 254.0332
1099.101, 268.2444
1099.583, 283.6319
1100.066, 297.9508
1100.548, 309.6542
1101.030, 321.5522
1101.512, 333.8310
1101.994, 346.9898
1102.476, 361.4493
1102.958, 377.0891
1103.440, 393.3587
1103.922, 410.4038
1104.405, 430.2518
1104.887, 453.0674
1105.369, 480.3498
1105.851, 512.3196
1106.333, 550.2907
1106.815, 595.5850
1107.297, 648.4442
1107.779, 707.8397
1108.262, 774.8047
1108.744, 842.6595
1109.226, 914.9659
1109.708, 978.8613
1110.190, 1025.169
1110.672, 1051.673
1111.154, 1052.945
1111.636, 1023.880
1112.119, 986.1249
1112.601, 942.2163
1113.083, 897.0216
1113.565, 852.5518
1114.047, 812.9377
1114.529, 785.8850
1115.011, 772.7213
1115.493, 769.4896
1115.975, 777.0822
1116.458, 791.4277
1116.940, 812.5914
1117.422, 838.5427
1117.904, 863.5128
1118.386, 887.5309
1118.868, 911.6717
1119.350, 934.4136
1119.832, 960.6976
1120.314, 991.0267
1120.797, 1027.419
1121.279, 1070.715
1121.761, 1120.945
1122.243, 1180.317
1122.725, 1249.003
1123.207, 1329.621
1123.689, 1413.666
1124.171, 1520.652
1124.654, 1661.826
1125.136, 1837.730
1125.618, 2040.292
1126.100, 2268.419
1126.582, 2537.680
1127.064, 2852.954
1127.546, 3172.945
1128.028, 3515.691
1128.510, 3804.105
1128.993, 3989.875
1129.475, 4050.844
1129.957, 3911.902
1130.439, 3528.999
1130.921, 3076.073
1131.403, 2558.026
1131.885, 2050.805
1132.367, 1635.203
1132.849, 1305.791
1133.332, 1047.975
1133.814, 860.6476
1134.296, 714.9816
1134.778, 617.0018
1135.260, 540.2179
1135.742, 479.6205
1136.224, 432.6427
1136.706, 394.7604
1137.189, 364.8162
1137.671, 339.5419
1138.153, 318.0998
1138.635, 300.7084
1139.117, 290.3307
1139.599, 281.4478
1140.081, 271.1990
1140.563, 260.4362
1141.046, 252.7243
1141.528, 247.6913
1142.010, 243.0397
1142.492, 237.4730
1142.974, 232.8577
1143.456, 229.8861
1143.938, 228.6833
1144.420, 229.5738
1144.902, 232.6632
1145.385, 234.1857
1145.867, 234.3410
1146.349, 237.8033
1146.831, 248.4594
1147.313, 262.4043
1147.795, 278.6849
1148.277, 295.5154
1148.759, 310.2096
1149.241, 322.4659
1149.724, 333.5010
1150.206, 343.2823
1150.688, 352.5577
1151.170, 360.2008
1151.652, 368.7944
1152.134, 381.4286
1152.616, 397.2077
1153.098, 411.7491
1153.581, 423.4823
1154.063, 438.0471
1154.545, 455.8087
1155.027, 477.9862
1155.509, 503.8536
1155.991, 535.6025
1156.473, 575.5857
1156.955, 624.0228
1157.438, 681.6594
1157.920, 748.7367
1158.402, 824.4088
1158.884, 912.0461
1159.366, 997.9499
1159.848, 1076.330
1160.330, 1132.394
1160.812, 1140.341
1161.294, 1094.921
1161.776, 1010.319
1162.259, 867.0897
1162.741, 725.6213
1163.223, 602.0236
1163.705, 497.4760
1164.187, 416.7405
1164.669, 357.1436
1165.151, 311.6605
1165.633, 280.6360
1166.116, 256.4074
1166.598, 238.7552
1167.080, 224.4275
1167.562, 211.9495
1168.044, 201.4349
1168.526, 193.6428
1169.008, 188.2255
1169.490, 183.9423
1169.973, 181.0665
1170.455, 177.7475
1170.937, 172.5174
1171.419, 167.5212
1171.901, 164.4228
1172.383, 162.9620
1172.865, 160.5042
1173.347, 157.3908
1173.829, 155.3228
1174.312, 156.3908
1174.794, 157.2138
1175.276, 156.1247
1175.758, 154.3553
1176.240, 152.9407
1176.722, 151.8839
1177.204, 151.1245
1177.686, 150.6524
1178.168, 150.3544
1178.651, 150.3390
1179.133, 150.2905
1179.615, 150.1592
1180.097, 149.8258
1180.579, 149.0351
1181.061, 147.7893
1181.543, 146.5964
1182.025, 145.4837
1182.508, 144.5781
1182.990, 144.0830
1183.472, 143.7101
1183.954, 143.1595
1184.436, 142.6399
1184.918, 142.7413
1185.400, 143.5181
1185.882, 143.6224
1186.365, 142.7899
1186.847, 142.4447
1187.329, 145.0073
1187.811, 147.4358
1188.293, 146.6224
1188.775, 143.5792
1189.257, 142.4699
1189.739, 143.4748
1190.221, 143.8807
1190.703, 143.0429
1191.186, 142.2030
1191.668, 142.9501
1192.150, 143.9044
1192.632, 143.5800
1193.114, 142.1490
1193.596, 141.7244
1194.078, 142.4244
1194.560, 142.9877
1195.043, 143.0823
1195.525, 142.8666
1196.007, 142.0668
1196.489, 141.3335
1196.971, 141.5006
1197.453, 142.6012
1197.935, 143.2259
1198.417, 143.3857
1198.900, 142.8616
1199.382, 141.2350
1199.864, 139.7666
1200.346, 140.0560
1200.828, 141.0798
1201.310, 141.5975
1201.792, 141.4141
1202.274, 141.9621
1202.756, 143.4079
1203.239, 144.0762
1203.721, 142.8067
1204.203, 141.1580
1204.685, 140.9149
1205.167, 141.3060
1205.649, 141.2386
1206.131, 140.4513
1206.613, 140.0854
1207.095, 140.1426
1207.578, 140.5439
1208.060, 141.2966
1208.542, 142.3052
1209.024, 143.9115
1209.506, 145.5247
1209.988, 145.9834
1210.470, 144.7384
1210.952, 144.6387
1211.435, 145.8418
1211.917, 146.9135
1212.399, 146.5143
1212.881, 145.9594
1213.363, 147.1357
1213.845, 148.9702
1214.327, 149.3956
1214.809, 147.7629
1215.292, 146.6245
1215.774, 146.0175
1216.256, 145.7809
1216.738, 146.0318
1217.220, 146.3912
1217.702, 146.3900
1218.184, 146.2527
1218.666, 146.5393
1219.148, 147.5338
1219.630, 147.8132
1220.113, 147.2650
1220.595, 146.5109
1221.077, 146.0903
1221.559, 145.6520
1222.041, 144.8458
1222.523, 143.7773
1223.005, 142.6976
1223.487, 141.5735
1223.970, 140.5589
1224.452, 139.6210
1224.934, 139.2761
1225.416, 140.5625
1225.898, 142.0418
1226.380, 142.2575
1226.862, 141.7165
1227.344, 142.0997
1227.827, 143.7058
1228.309, 144.2708
1228.791, 143.5669
1229.273, 142.2775
1229.755, 139.7845
1230.237, 138.0298
1230.719, 139.4552
1231.201, 142.7350
1231.683, 143.9822
1232.166, 143.0228
1232.648, 141.7951
1233.130, 140.4821
1233.612, 139.4769
1234.094, 139.0860
1234.576, 139.1291
1235.058, 139.9209
1235.540, 140.9361
1236.022, 140.6761
1236.505, 139.1044
1236.987, 138.7283
1237.469, 139.9402
1237.951, 141.1091
1238.433, 140.9497
1238.915, 140.3609
1239.397, 139.8481
1239.879, 139.3682
1240.362, 138.7051
1240.844, 137.8899
1241.326, 137.2005
1241.808, 136.6524
1242.290, 136.7089
1242.772, 138.8894
1243.254, 140.4047
1243.736, 139.2161
1244.219, 136.6985
1244.701, 136.2749
1245.183, 137.5909
1245.665, 138.2406
1246.147, 137.7733
1246.629, 137.2338
1247.111, 137.0687
1247.593, 137.1566
1248.075, 137.5581
1248.557, 138.0414
1249.040, 137.9634
1249.522, 137.4900
1250.004, 137.3566
1250.486, 137.7142
1250.968, 137.9070
1251.450, 137.1272
1251.932, 136.8277
1252.414, 137.7600
1252.897, 139.1545
1253.379, 139.2483
1253.861, 138.4695
1254.343, 137.9001
1254.825, 137.7246
1255.307, 137.7271
1255.789, 138.1623
1256.271, 138.2480
1256.754, 137.6346
1257.236, 136.7330
1257.718, 136.2122
1258.200, 136.0072
1258.682, 136.0563
1259.164, 136.3672
1259.646, 136.6474
1260.128, 136.8721
1260.610, 137.0116
1261.093, 137.0367
1261.575, 137.0163
1262.057, 137.0096
1262.539, 137.0497
1263.021, 137.3334
1263.503, 137.9212
1263.985, 137.6399
1264.467, 136.0753
1264.949, 135.0036
1265.432, 135.0079
1265.914, 135.5146
1266.396, 136.2180
1266.878, 136.7368
1267.360, 136.4919
1267.842, 135.4159
1268.324, 134.5311
1268.806, 133.7816
1269.289, 133.8020
1269.771, 134.9991
1270.253, 136.1862
1270.735, 135.9018
1271.217, 135.2850
1271.699, 135.7818
1272.181, 137.0647
1272.663, 136.4026
1273.146, 133.8541
1273.628, 132.7096
1274.110, 134.1415
1274.592, 135.7245
1275.074, 135.5851
1275.556, 134.9960
1276.038, 134.7236
1276.520, 134.7670
1277.002, 135.3714
1277.484, 136.3430
1277.967, 136.3952
1278.449, 135.0391
1278.931, 133.7878
1279.413, 133.1022
1279.895, 133.2171
1280.377, 134.5818
1280.859, 136.4474
1281.341, 136.7165
1281.823, 135.8932
1282.306, 135.4149
1282.788, 135.5978
1283.270, 136.0659
1283.752, 137.3563
1284.234, 137.7867
1284.716, 136.4528
1285.198, 134.5412
1285.680, 134.3857
1286.163, 135.1522
1286.645, 135.2450
1287.127, 134.3320
1287.609, 133.8857
1288.091, 134.0903
1288.573, 134.6356
1289.055, 135.5650
1289.537, 136.4190
1290.020, 136.4603
1290.502, 136.1387
1290.984, 135.9822
1291.466, 136.0405
##END=



