##NAMES=Anhydrite
##RRUFFID=R040061
##IDEAL CHEMISTRY=CaS^6+^O_4_
##LOCALITY=Chester County, Pennsylvania, USA
##OWNER=RRUFF
##SOURCE=University of Arizona Mineral Museum
##DESCRIPTION=Pale purple fractured single crystal
##STATUS=The identification of this mineral has been confirmed by X-ray diffraction and chemical analysis
##URL=rruff.info/R040061
##MEASURED CHEMISTRY=Ca_0.98_S_1.01_O_4_
129.7241, 637.7051
130.2062, 681.2192
130.6884, 709.1437
131.1705, 732.1995
131.6526, 755.8055
132.1347, 780.0081
132.6168, 801.3397
133.0989, 815.6813
133.5811, 822.6214
134.0632, 822.2999
134.5453, 809.8836
135.0274, 795.0469
135.5095, 783.3468
135.9916, 776.0499
136.4738, 771.4891
136.9559, 767.0878
137.4380, 760.1323
137.9201, 759.5802
138.4022, 765.1166
138.8843, 776.5778
139.3665, 794.2640
139.8486, 818.0894
140.3307, 847.2969
140.8128, 880.4607
141.2949, 919.6224
141.7770, 960.4228
142.2592, 1000.954
142.7413, 1043.594
143.2234, 1091.137
143.7055, 1144.405
144.1876, 1202.565
144.6697, 1265.471
145.1519, 1341.439
145.6340, 1407.563
146.1161, 1458.246
146.5982, 1497.951
147.0803, 1532.351
147.5624, 1563.548
148.0446, 1591.465
148.5267, 1615.180
149.0088, 1631.755
149.4909, 1650.075
149.9730, 1684.094
150.4551, 1721.108
150.9372, 1734.118
151.4194, 1709.289
151.9015, 1657.996
152.3836, 1608.195
152.8657, 1555.366
153.3478, 1510.353
153.8299, 1479.370
154.3121, 1459.884
154.7942, 1444.508
155.2763, 1429.459
155.7584, 1417.656
156.2405, 1415.324
156.7226, 1423.521
157.2048, 1437.923
157.6869, 1459.505
158.1690, 1486.572
158.6511, 1511.027
159.1332, 1524.669
159.6153, 1536.552
160.0975, 1566.663
160.5796, 1625.117
161.0617, 1686.653
161.5438, 1730.348
162.0259, 1759.087
162.5080, 1797.472
162.9902, 1857.210
163.4723, 1935.659
163.9544, 2021.143
164.4365, 2108.091
164.9186, 2208.781
165.4007, 2331.132
165.8829, 2475.172
166.3650, 2642.768
166.8471, 2867.265
167.3292, 3099.489
167.8113, 3266.812
168.2934, 3376.862
168.7756, 3400.000
169.2577, 3278.270
169.7398, 3008.025
170.2219, 2722.774
170.7040, 2461.065
171.1861, 2234.100
171.6683, 2056.610
172.1504, 1940.590
172.6325, 1862.926
173.1146, 1806.307
173.5967, 1771.976
174.0788, 1744.592
174.5610, 1717.870
175.0431, 1693.751
175.5252, 1675.250
176.0073, 1664.025
176.4894, 1656.923
176.9715, 1650.910
177.4537, 1646.124
177.9358, 1641.280
178.4179, 1632.256
178.9000, 1624.209
179.3821, 1624.421
179.8642, 1638.316
180.3464, 1655.371
180.8285, 1661.842
181.3106, 1656.205
181.7927, 1648.177
182.2748, 1638.411
182.7569, 1629.775
183.2391, 1626.265
183.7212, 1630.746
184.2033, 1637.566
184.6854, 1638.544
185.1675, 1632.256
185.6496, 1626.940
186.1318, 1624.032
186.6139, 1624.786
187.0960, 1632.244
187.5781, 1649.651
188.0602, 1669.221
188.5423, 1680.752
189.0245, 1683.202
189.5066, 1681.809
189.9887, 1675.152
190.4708, 1667.058
190.9529, 1660.474
191.4350, 1655.815
191.9172, 1654.044
192.3993, 1658.032
192.8814, 1669.629
193.3635, 1678.785
193.8456, 1680.075
194.3277, 1677.906
194.8099, 1675.887
195.2920, 1675.195
195.7741, 1674.273
196.2562, 1669.257
196.7383, 1658.028
197.2204, 1652.571
197.7026, 1661.942
198.1847, 1676.864
198.6668, 1691.397
199.1489, 1704.891
199.6310, 1714.733
200.1131, 1716.302
200.5953, 1707.993
201.0774, 1699.946
201.5595, 1695.768
202.0416, 1693.082
202.5237, 1689.941
203.0058, 1685.625
203.4880, 1682.210
203.9701, 1682.354
204.4522, 1686.407
204.9343, 1691.602
205.4164, 1697.756
205.8985, 1704.433
206.3807, 1712.197
206.8628, 1721.493
207.3449, 1729.031
207.8270, 1729.624
208.3091, 1722.261
208.7912, 1717.914
209.2734, 1726.153
209.7555, 1733.875
210.2376, 1728.113
210.7197, 1706.357
211.2018, 1684.996
211.6839, 1683.685
212.1661, 1703.522
212.6482, 1716.296
213.1303, 1708.150
213.6124, 1696.493
214.0945, 1695.357
214.5766, 1706.037
215.0588, 1718.011
215.5409, 1719.800
216.0230, 1711.751
216.5051, 1710.450
216.9872, 1722.951
217.4693, 1739.859
217.9515, 1754.704
218.4336, 1767.159
218.9157, 1778.608
219.3978, 1790.474
219.8799, 1802.545
220.3620, 1812.679
220.8442, 1820.793
221.3263, 1826.354
221.8084, 1824.900
222.2905, 1818.059
222.7726, 1819.682
223.2547, 1846.039
223.7369, 1891.255
224.2190, 1922.574
224.7011, 1928.446
225.1832, 1931.323
225.6653, 1947.598
226.1474, 1975.413
226.6296, 2006.942
227.1117, 2039.666
227.5938, 2072.834
228.0759, 2103.846
228.5580, 2130.624
229.0401, 2158.671
229.5223, 2194.778
230.0044, 2235.917
230.4865, 2272.257
230.9686, 2300.886
231.4507, 2321.625
231.9328, 2332.957
232.4150, 2332.763
232.8971, 2328.688
233.3792, 2330.715
233.8613, 2333.342
234.3434, 2322.832
234.8255, 2289.587
235.3077, 2242.800
235.7898, 2191.661
236.2719, 2133.940
236.7540, 2083.932
237.2361, 2055.573
237.7182, 2040.936
238.2004, 2024.634
238.6825, 2003.021
239.1646, 1979.067
239.6467, 1954.914
240.1288, 1930.397
240.6109, 1908.453
241.0931, 1890.780
241.5752, 1876.970
242.0573, 1865.282
242.5394, 1854.400
243.0215, 1847.011
243.5036, 1847.968
243.9858, 1856.034
244.4679, 1860.880
244.9500, 1857.178
245.4321, 1847.440
245.9142, 1838.099
246.3963, 1828.590
246.8785, 1820.516
247.3606, 1815.442
247.8427, 1812.652
248.3248, 1809.543
248.8069, 1804.730
249.2890, 1799.700
249.7712, 1797.305
250.2533, 1797.755
250.7354, 1799.372
251.2175, 1805.158
251.6996, 1811.191
252.1817, 1808.044
252.6639, 1791.124
253.1460, 1770.712
253.6281, 1764.126
254.1102, 1774.316
254.5923, 1782.866
255.0744, 1786.784
255.5566, 1787.210
256.0387, 1783.426
256.5208, 1775.199
257.0029, 1768.819
257.4850, 1772.661
257.9671, 1790.140
258.4492, 1803.680
258.9314, 1813.404
259.4135, 1818.574
259.8956, 1815.870
260.3777, 1806.104
260.8598, 1797.217
261.3419, 1796.631
261.8241, 1805.482
262.3062, 1813.703
262.7883, 1821.080
263.2704, 1828.048
263.7525, 1835.870
264.2346, 1843.773
264.7168, 1849.043
265.1989, 1849.253
265.6810, 1844.781
266.1631, 1843.754
266.6452, 1851.637
267.1273, 1856.561
267.6095, 1853.579
268.0916, 1845.323
268.5737, 1836.290
269.0558, 1828.792
269.5379, 1822.859
270.0201, 1818.805
270.5022, 1820.685
270.9843, 1819.751
271.4664, 1811.380
271.9485, 1801.369
272.4306, 1796.431
272.9128, 1799.169
273.3949, 1806.886
273.8770, 1814.415
274.3591, 1823.456
274.8412, 1829.005
275.3233, 1830.992
275.8055, 1829.858
276.2876, 1823.602
276.7697, 1812.849
277.2518, 1803.256
277.7339, 1803.679
278.2160, 1819.156
278.6982, 1828.047
279.1803, 1822.732
279.6624, 1817.295
280.1445, 1821.692
280.6266, 1833.588
281.1087, 1841.063
281.5909, 1829.446
282.0730, 1798.605
282.5551, 1784.032
283.0372, 1798.670
283.5193, 1815.787
284.0014, 1828.387
284.4836, 1835.462
284.9657, 1835.661
285.4478, 1826.613
285.9299, 1810.803
286.4120, 1794.647
286.8941, 1773.188
287.3763, 1762.605
287.8584, 1777.813
288.3405, 1804.144
288.8226, 1824.422
289.3047, 1833.067
289.7868, 1832.694
290.2690, 1823.366
290.7511, 1803.336
291.2332, 1789.248
291.7153, 1792.765
292.1974, 1802.143
292.6795, 1804.270
293.1617, 1796.438
293.6438, 1787.318
294.1259, 1783.559
294.6080, 1784.387
295.0901, 1785.548
295.5722, 1786.228
296.0544, 1786.474
296.5365, 1785.611
297.0186, 1783.426
297.5007, 1783.466
297.9828, 1788.939
298.4649, 1797.029
298.9471, 1802.904
299.4292, 1805.700
299.9113, 1807.158
300.3934, 1808.071
300.8755, 1808.573
301.3576, 1811.934
301.8398, 1823.656
302.3219, 1834.713
302.8040, 1835.825
303.2861, 1827.827
303.7682, 1820.111
304.2503, 1819.243
304.7325, 1824.501
305.2146, 1828.004
305.6967, 1829.783
306.1788, 1830.109
306.6609, 1830.218
307.1430, 1828.881
307.6252, 1821.637
308.1073, 1805.474
308.5894, 1786.462
309.0715, 1781.422
309.5536, 1810.091
310.0357, 1828.501
310.5179, 1829.398
311.0000, 1822.581
311.4821, 1816.379
311.9642, 1813.304
312.4463, 1812.596
312.9284, 1813.603
313.4106, 1817.910
313.8927, 1819.428
314.3748, 1818.764
314.8569, 1815.359
315.3390, 1806.983
315.8211, 1795.042
316.3033, 1783.978
316.7854, 1777.385
317.2675, 1775.193
317.7496, 1775.046
318.2317, 1778.728
318.7138, 1782.477
319.1960, 1785.794
319.6781, 1788.282
320.1602, 1788.856
320.6423, 1786.145
321.1244, 1782.772
321.6065, 1786.355
322.0887, 1800.942
322.5708, 1810.322
323.0529, 1804.119
323.5350, 1793.134
324.0171, 1785.657
324.4992, 1783.351
324.9814, 1785.309
325.4635, 1793.099
325.9456, 1806.129
326.4277, 1814.888
326.9098, 1815.949
327.3919, 1813.734
327.8741, 1812.724
328.3562, 1812.824
328.8383, 1812.143
329.3204, 1807.230
329.8025, 1801.781
330.2846, 1804.519
330.7668, 1817.631
331.2489, 1828.578
331.7310, 1825.524
332.2131, 1810.423
332.6952, 1798.438
333.1773, 1790.170
333.6595, 1785.695
334.1416, 1787.021
334.6237, 1792.816
335.1058, 1797.959
335.5879, 1799.555
336.0700, 1798.905
336.5522, 1800.641
337.0343, 1812.776
337.5164, 1816.421
337.9985, 1798.478
338.4806, 1774.349
338.9627, 1764.153
339.4449, 1773.424
339.9270, 1790.130
340.4091, 1796.571
340.8912, 1787.526
341.3733, 1781.621
341.8554, 1778.624
342.3376, 1778.375
342.8197, 1782.513
343.3018, 1789.689
343.7839, 1796.063
344.2660, 1798.366
344.7481, 1796.845
345.2303, 1795.707
345.7124, 1795.063
346.1945, 1794.701
346.6766, 1794.802
347.1587, 1795.055
347.6408, 1794.800
348.1230, 1793.577
348.6051, 1792.571
349.0872, 1794.196
349.5693, 1799.123
350.0514, 1803.726
350.5335, 1807.322
351.0157, 1810.111
351.4978, 1812.679
351.9799, 1815.048
352.4620, 1815.427
352.9441, 1811.215
353.4262, 1803.728
353.9084, 1798.244
354.3905, 1796.081
354.8726, 1794.275
355.3547, 1788.331
355.8368, 1780.051
356.3189, 1776.524
356.8011, 1785.167
357.2832, 1795.137
357.7653, 1794.243
358.2474, 1783.722
358.7295, 1775.586
359.2116, 1776.875
359.6938, 1784.971
360.1759, 1790.639
360.6580, 1795.596
361.1401, 1796.318
361.6222, 1787.762
362.1043, 1775.865
362.5865, 1769.201
363.0686, 1770.161
363.5507, 1774.234
364.0328, 1774.910
364.5149, 1770.240
364.9970, 1767.931
365.4792, 1768.132
365.9613, 1770.155
366.4434, 1775.136
366.9255, 1781.811
367.4076, 1786.938
367.8897, 1788.005
368.3719, 1785.547
368.8540, 1783.573
369.3361, 1784.178
369.8182, 1781.972
370.3003, 1771.769
370.7824, 1760.205
371.2646, 1754.840
371.7467, 1758.388
372.2288, 1766.289
372.7109, 1772.683
373.1930, 1777.355
373.6751, 1783.587
374.1573, 1792.686
374.6394, 1802.828
375.1215, 1815.225
375.6036, 1828.799
376.0857, 1835.500
376.5678, 1826.515
377.0500, 1809.396
377.5321, 1797.652
378.0142, 1792.275
378.4963, 1789.389
378.9784, 1786.840
379.4605, 1784.885
379.9427, 1784.194
380.4248, 1787.694
380.9069, 1789.269
381.3890, 1783.470
381.8711, 1773.786
382.3532, 1768.106
382.8354, 1769.508
383.3175, 1774.430
383.7996, 1776.895
384.2817, 1775.895
384.7638, 1774.284
385.2459, 1771.072
385.7281, 1768.046
386.2102, 1765.020
386.6923, 1762.964
387.1744, 1765.463
387.6565, 1776.994
388.1386, 1796.242
388.6208, 1803.294
389.1029, 1784.709
389.5850, 1770.721
390.0671, 1770.490
390.5492, 1777.018
391.0313, 1781.888
391.5135, 1782.038
391.9956, 1780.707
392.4777, 1783.438
392.9598, 1791.014
393.4419, 1793.958
393.9240, 1785.834
394.4062, 1777.710
394.8883, 1780.089
395.3704, 1791.225
395.8525, 1798.770
396.3346, 1792.789
396.8167, 1781.048
397.2989, 1776.225
397.7810, 1779.022
398.2631, 1785.220
398.7452, 1794.988
399.2273, 1805.480
399.7094, 1807.681
400.1916, 1794.952
400.6737, 1783.304
401.1558, 1779.380
401.6379, 1780.367
402.1200, 1782.185
402.6021, 1783.644
403.0843, 1784.838
403.5664, 1786.047
404.0485, 1787.930
404.5306, 1787.499
405.0127, 1782.476
405.4948, 1777.649
405.9770, 1775.905
406.4591, 1776.422
406.9412, 1776.856
407.4233, 1775.826
407.9054, 1773.451
408.3875, 1769.813
408.8697, 1763.213
409.3518, 1758.839
409.8339, 1754.646
410.3160, 1754.747
410.7981, 1765.431
411.2802, 1787.267
411.7624, 1808.733
412.2445, 1817.261
412.7266, 1815.775
413.2087, 1820.117
413.6908, 1832.498
414.1729, 1849.094
414.6551, 1871.144
415.1372, 1895.508
415.6193, 1913.775
416.1014, 1926.189
416.5835, 1930.107
417.0656, 1920.686
417.5478, 1900.527
418.0299, 1877.048
418.5120, 1851.793
418.9941, 1828.354
419.4762, 1813.945
419.9583, 1814.146
420.4405, 1811.893
420.9226, 1802.038
421.4047, 1792.982
421.8868, 1793.038
422.3689, 1800.828
422.8510, 1808.075
423.3332, 1808.416
423.8153, 1802.253
424.2974, 1792.513
424.7795, 1773.082
425.2616, 1759.195
425.7437, 1758.141
426.2259, 1761.435
426.7080, 1759.610
427.1901, 1750.068
427.6722, 1739.723
428.1543, 1736.606
428.6364, 1740.223
429.1186, 1742.875
429.6007, 1743.277
430.0828, 1743.262
430.5649, 1744.169
431.0470, 1745.791
431.5291, 1747.594
432.0113, 1750.388
432.4934, 1752.560
432.9755, 1751.443
433.4576, 1748.068
433.9397, 1747.443
434.4218, 1752.398
434.9040, 1759.647
435.3861, 1762.279
435.8682, 1757.547
436.3503, 1754.080
436.8324, 1754.128
437.3145, 1754.272
437.7967, 1750.885
438.2788, 1744.645
438.7609, 1739.572
439.2430, 1738.882
439.7251, 1742.063
440.2072, 1744.921
440.6894, 1746.204
441.1715, 1749.173
441.6536, 1758.319
442.1357, 1767.160
442.6178, 1768.349
443.0999, 1760.255
443.5821, 1749.827
444.0642, 1741.935
444.5463, 1736.919
445.0284, 1739.181
445.5105, 1753.530
445.9926, 1765.379
446.4748, 1758.699
446.9569, 1740.345
447.4390, 1728.827
447.9211, 1732.663
448.4032, 1739.156
448.8853, 1739.151
449.3675, 1735.294
449.8496, 1735.576
450.3317, 1743.508
450.8138, 1752.330
451.2959, 1750.235
451.7780, 1729.053
452.2602, 1719.623
452.7423, 1732.384
453.2244, 1746.695
453.7065, 1751.220
454.1886, 1747.601
454.6707, 1742.691
455.1529, 1740.761
455.6350, 1740.160
456.1171, 1734.746
456.5992, 1720.023
457.0813, 1712.605
457.5634, 1724.041
458.0455, 1738.661
458.5276, 1745.477
459.0098, 1743.906
459.4919, 1740.988
459.9740, 1740.347
460.4561, 1741.528
460.9382, 1743.756
461.4203, 1747.034
461.9025, 1751.332
462.3846, 1758.364
462.8667, 1765.809
463.3488, 1765.756
463.8309, 1751.881
464.3130, 1741.044
464.7952, 1739.285
465.2773, 1742.474
465.7594, 1747.020
466.2415, 1751.702
466.7236, 1754.759
467.2057, 1753.973
467.6879, 1749.134
468.1700, 1746.552
468.6521, 1746.872
469.1342, 1748.940
469.6163, 1755.169
470.0984, 1761.867
470.5806, 1763.945
471.0627, 1759.573
471.5448, 1753.559
472.0269, 1751.532
472.5090, 1753.200
472.9911, 1755.372
473.4733, 1759.188
473.9554, 1760.607
474.4375, 1751.782
474.9196, 1737.151
475.4017, 1730.985
475.8839, 1741.384
476.3660, 1755.797
476.8481, 1768.717
477.3302, 1779.245
477.8123, 1783.814
478.2944, 1780.833
478.7766, 1775.775
479.2587, 1776.909
479.7408, 1785.589
480.2229, 1796.589
480.7050, 1811.815
481.1871, 1827.169
481.6693, 1840.752
482.1514, 1852.948
482.6335, 1864.645
483.1156, 1876.141
483.5977, 1887.806
484.0798, 1899.051
484.5620, 1908.821
485.0441, 1925.595
485.5262, 1955.596
486.0083, 1988.446
486.4904, 2013.242
486.9725, 2031.651
487.4547, 2055.591
487.9368, 2089.940
488.4189, 2131.497
488.9010, 2175.094
489.3831, 2221.883
489.8652, 2278.728
490.3474, 2349.485
490.8295, 2430.173
491.3116, 2514.310
491.7937, 2604.050
492.2758, 2692.794
492.7579, 2772.764
493.2401, 2858.110
493.7222, 2960.722
494.2043, 3077.348
494.6864, 3198.754
495.1685, 3319.999
495.6506, 3440.149
496.1328, 3559.446
496.6149, 3683.726
497.0970, 3790.722
497.5791, 3884.204
498.0612, 3949.688
498.5433, 3980.715
499.0255, 3976.066
499.5076, 3925.483
499.9897, 3807.849
500.4718, 3651.247
500.9539, 3482.547
501.4360, 3305.260
501.9182, 3130.598
502.4003, 2963.108
502.8824, 2805.282
503.3645, 2663.039
503.8466, 2537.714
504.3287, 2428.429
504.8109, 2340.733
505.2930, 2265.184
505.7751, 2195.019
506.2572, 2130.681
506.7393, 2075.052
507.2214, 2031.122
507.7036, 1996.990
508.1857, 1968.805
508.6678, 1948.812
509.1499, 1927.036
509.6320, 1897.497
510.1141, 1867.957
510.5963, 1845.331
511.0784, 1829.574
511.5605, 1814.703
512.0426, 1795.192
512.5247, 1776.859
513.0068, 1768.992
513.4890, 1770.209
513.9711, 1769.559
514.4532, 1761.430
514.9353, 1748.463
515.4174, 1736.955
515.8995, 1727.300
516.3817, 1718.483
516.8638, 1711.125
517.3459, 1704.075
517.8280, 1694.254
518.3101, 1683.985
518.7922, 1680.574
519.2744, 1690.234
519.7565, 1705.605
520.2386, 1708.193
520.7207, 1695.473
521.2028, 1684.474
521.6849, 1680.280
522.1671, 1678.176
522.6492, 1671.592
523.1313, 1661.387
523.6134, 1657.873
524.0955, 1671.047
524.5776, 1686.953
525.0598, 1694.006
525.5419, 1693.060
526.0240, 1687.564
526.5061, 1678.518
526.9882, 1668.970
527.4703, 1664.862
527.9525, 1669.414
528.4346, 1671.084
528.9167, 1667.990
529.3988, 1664.312
529.8809, 1662.322
530.3630, 1661.145
530.8452, 1658.045
531.3273, 1650.970
531.8094, 1644.513
532.2915, 1648.180
532.7736, 1661.378
533.2557, 1665.968
533.7379, 1655.309
534.2200, 1641.453
534.7021, 1635.014
535.1842, 1635.186
535.6663, 1637.400
536.1484, 1643.784
536.6306, 1649.357
537.1127, 1651.479
537.5948, 1651.043
538.0769, 1648.988
538.5590, 1645.747
539.0411, 1642.770
539.5233, 1641.991
540.0054, 1643.642
540.4875, 1645.031
540.9696, 1645.702
541.4517, 1646.739
541.9338, 1649.802
542.4160, 1652.872
542.8981, 1653.301
543.3802, 1650.272
543.8623, 1645.727
544.3444, 1641.018
544.8265, 1636.004
545.3087, 1629.300
545.7908, 1620.519
546.2729, 1614.982
546.7550, 1618.319
547.2371, 1627.677
547.7192, 1627.466
548.2014, 1603.627
548.6835, 1589.929
549.1656, 1597.219
549.6477, 1611.865
550.1298, 1624.660
550.6119, 1633.209
551.0941, 1636.637
551.5762, 1633.264
552.0583, 1625.008
552.5404, 1617.870
553.0225, 1611.293
553.5046, 1608.493
553.9868, 1612.698
554.4689, 1619.378
554.9510, 1624.062
555.4331, 1626.737
555.9152, 1627.095
556.3973, 1624.651
556.8795, 1620.155
557.3616, 1611.881
557.8437, 1601.935
558.3258, 1596.988
558.8079, 1600.211
559.2900, 1607.008
559.7722, 1608.354
560.2543, 1600.078
560.7364, 1599.264
561.2185, 1614.421
561.7006, 1628.685
562.1827, 1638.071
562.6649, 1641.762
563.1470, 1637.805
563.6291, 1623.899
564.1112, 1608.242
564.5933, 1598.351
565.0754, 1593.299
565.5576, 1590.617
566.0397, 1590.098
566.5218, 1590.361
567.0039, 1590.934
567.4860, 1591.509
567.9681, 1588.636
568.4503, 1575.010
568.9324, 1567.879
569.4145, 1579.027
569.8966, 1592.468
570.3787, 1589.974
570.8608, 1572.145
571.3430, 1556.198
571.8251, 1557.442
572.3072, 1570.716
572.7893, 1579.188
573.2714, 1582.414
573.7535, 1583.158
574.2357, 1582.186
574.7178, 1579.125
575.1999, 1572.109
575.6820, 1560.858
576.1641, 1553.747
576.6462, 1555.189
577.1284, 1559.223
577.6105, 1562.645
578.0926, 1565.127
578.5747, 1566.287
579.0568, 1565.985
579.5389, 1565.328
580.0211, 1567.247
580.5032, 1573.541
580.9853, 1571.126
581.4674, 1549.242
581.9495, 1533.093
582.4316, 1537.507
582.9138, 1552.164
583.3959, 1561.450
583.8780, 1561.108
584.3601, 1558.814
584.8422, 1560.260
585.3243, 1562.740
585.8065, 1561.053
586.2886, 1554.956
586.7707, 1548.432
587.2528, 1543.974
587.7349, 1541.533
588.2170, 1541.082
588.6992, 1544.377
589.1813, 1546.773
589.6634, 1546.121
590.1455, 1546.269
590.6276, 1551.141
591.1097, 1559.030
591.5919, 1564.431
592.0740, 1563.775
592.5561, 1560.522
593.0382, 1560.773
593.5203, 1563.134
594.0024, 1557.269
594.4846, 1538.287
594.9667, 1521.929
595.4488, 1526.536
595.9309, 1552.581
596.4130, 1564.219
596.8951, 1549.101
597.3773, 1536.762
597.8594, 1536.393
598.3415, 1541.178
598.8236, 1543.800
599.3057, 1543.186
599.7878, 1543.264
600.2700, 1549.306
600.7521, 1557.997
601.2342, 1556.549
601.7163, 1543.409
602.1984, 1536.677
602.6805, 1545.740
603.1627, 1560.884
603.6448, 1567.521
604.1269, 1564.601
604.6090, 1564.286
605.0911, 1570.995
605.5732, 1577.369
606.0554, 1580.049
606.5375, 1579.339
607.0196, 1574.118
607.5017, 1564.485
607.9838, 1557.224
608.4659, 1564.210
608.9481, 1584.682
609.4302, 1593.495
609.9123, 1586.449
610.3944, 1578.447
610.8765, 1573.841
611.3586, 1574.129
611.8408, 1582.892
612.3229, 1603.623
612.8050, 1619.568
613.2871, 1618.828
613.7692, 1616.911
614.2513, 1627.960
614.7335, 1649.736
615.2156, 1671.087
615.6977, 1686.300
616.1798, 1703.224
616.6619, 1737.101
617.1440, 1790.069
617.6262, 1843.273
618.1083, 1886.510
618.5904, 1943.753
619.0725, 2032.104
619.5546, 2142.020
620.0367, 2257.938
620.5189, 2374.825
621.0010, 2504.202
621.4831, 2649.068
621.9652, 2810.718
622.4473, 2983.061
622.9294, 3170.105
623.4116, 3383.326
623.8937, 3626.293
624.3758, 3914.634
624.8579, 4296.125
625.3400, 4781.319
625.8221, 5325.083
626.3043, 6088.005
626.7864, 6715.002
627.2685, 7093.548
627.7506, 7187.307
628.2327, 6883.928
628.7148, 5997.423
629.1970, 5012.782
629.6791, 4114.871
630.1612, 3341.163
630.6433, 2770.186
631.1254, 2399.884
631.6075, 2153.612
632.0897, 1982.975
632.5718, 1875.992
633.0539, 1791.216
633.5360, 1732.071
634.0181, 1686.263
634.5002, 1660.256
634.9824, 1640.027
635.4645, 1617.566
635.9466, 1594.033
636.4287, 1573.488
636.9108, 1555.291
637.3929, 1543.103
637.8751, 1544.805
638.3572, 1552.318
638.8393, 1551.102
639.3214, 1539.326
639.8035, 1524.921
640.2856, 1513.750
640.7678, 1505.814
641.2499, 1501.453
641.7320, 1502.912
642.2141, 1502.534
642.6962, 1497.942
643.1783, 1492.221
643.6605, 1486.371
644.1426, 1480.924
644.6247, 1477.649
645.1068, 1480.173
645.5889, 1481.021
646.0710, 1472.948
646.5532, 1460.485
647.0353, 1450.605
647.5174, 1444.848
647.9995, 1442.968
648.4816, 1445.503
648.9637, 1451.010
649.4459, 1451.988
649.9280, 1445.755
650.4101, 1441.999
650.8922, 1444.879
651.3743, 1448.384
651.8564, 1446.651
652.3386, 1441.628
652.8207, 1441.500
653.3028, 1455.168
653.7849, 1466.023
654.2670, 1457.701
654.7491, 1442.364
655.2313, 1440.946
655.7134, 1455.440
656.1955, 1470.679
656.6776, 1474.421
657.1597, 1469.241
657.6418, 1464.765
658.1240, 1460.353
658.6061, 1458.841
659.0882, 1461.783
659.5703, 1466.716
660.0524, 1472.341
660.5345, 1478.437
661.0167, 1484.026
661.4988, 1489.177
661.9809, 1493.492
662.4630, 1491.953
662.9451, 1492.044
663.4272, 1504.582
663.9094, 1529.807
664.3915, 1558.879
664.8736, 1584.376
665.3557, 1611.416
665.8378, 1654.514
666.3199, 1715.059
666.8021, 1782.711
667.2842, 1854.717
667.7663, 1935.005
668.2484, 2025.715
668.7305, 2126.984
669.2126, 2240.022
669.6948, 2353.539
670.1769, 2494.179
670.6590, 2669.833
671.1411, 2876.278
671.6232, 3107.694
672.1053, 3366.202
672.5875, 3663.163
673.0696, 4008.898
673.5517, 4386.768
674.0338, 4808.690
674.5159, 5273.037
674.9980, 5585.448
675.4802, 5746.097
675.9623, 5667.422
676.4444, 5219.692
676.9265, 4485.650
677.4086, 3806.478
677.8907, 3120.895
678.3729, 2579.651
678.8550, 2247.686
679.3371, 2026.301
679.8192, 1874.813
680.3013, 1771.640
680.7834, 1693.836
681.2656, 1631.729
681.7477, 1582.426
682.2298, 1545.383
682.7119, 1518.625
683.1940, 1494.041
683.6761, 1470.752
684.1583, 1452.630
684.6404, 1442.072
685.1225, 1438.018
685.6046, 1438.458
686.0867, 1450.925
686.5688, 1451.682
687.0510, 1431.892
687.5331, 1410.832
688.0152, 1393.940
688.4973, 1382.394
688.9794, 1378.534
689.4615, 1383.611
689.9437, 1388.344
690.4258, 1384.093
690.9079, 1375.832
691.3900, 1371.528
691.8721, 1371.182
692.3542, 1371.607
692.8364, 1371.359
693.3185, 1371.411
693.8006, 1373.694
694.2827, 1378.893
694.7648, 1381.687
695.2469, 1380.922
695.7291, 1379.437
696.2112, 1377.711
696.6933, 1376.047
697.1754, 1374.487
697.6575, 1373.029
698.1396, 1372.950
698.6218, 1377.547
699.1039, 1381.126
699.5860, 1377.654
700.0681, 1370.163
700.5502, 1365.518
701.0323, 1365.313
701.5145, 1364.258
701.9966, 1356.364
702.4787, 1343.083
702.9608, 1331.653
703.4429, 1321.508
703.9250, 1316.586
704.4072, 1320.306
704.8893, 1326.434
705.3714, 1328.060
705.8535, 1325.543
706.3356, 1325.619
706.8177, 1331.982
707.2999, 1336.643
707.7820, 1336.619
708.2641, 1334.300
708.7462, 1332.110
709.2283, 1330.053
709.7104, 1325.944
710.1926, 1316.680
710.6747, 1308.547
711.1568, 1313.979
711.6389, 1329.614
712.1210, 1338.950
712.6031, 1339.051
713.0853, 1335.333
713.5674, 1330.775
714.0495, 1326.285
714.5316, 1325.515
715.0137, 1331.984
715.4958, 1335.568
715.9780, 1334.154
716.4601, 1331.833
716.9422, 1329.705
717.4243, 1328.251
717.9064, 1328.286
718.3885, 1330.276
718.8707, 1332.530
719.3528, 1334.386
719.8349, 1335.733
720.3170, 1335.800
720.7991, 1335.157
721.2813, 1335.968
721.7634, 1339.181
722.2455, 1343.097
722.7276, 1346.587
723.2097, 1349.679
723.6918, 1342.931
724.1740, 1321.291
724.6561, 1305.458
725.1382, 1304.851
725.6203, 1312.499
726.1024, 1321.243
726.5845, 1331.610
727.0667, 1335.271
727.5488, 1328.606
728.0309, 1318.585
728.5130, 1301.985
728.9951, 1287.005
729.4772, 1284.185
729.9594, 1293.539
730.4415, 1305.926
730.9236, 1316.755
731.4057, 1324.924
731.8878, 1328.669
732.3699, 1328.198
732.8521, 1322.737
733.3342, 1311.801
733.8163, 1304.036
734.2984, 1307.630
734.7805, 1318.681
735.2626, 1319.577
735.7448, 1304.210
736.2269, 1292.116
736.7090, 1285.980
737.1911, 1282.127
737.6732, 1279.116
738.1553, 1276.984
738.6375, 1275.640
739.1196, 1274.504
739.6017, 1276.105
740.0838, 1285.689
740.5659, 1295.203
741.0480, 1295.462
741.5302, 1289.315
742.0123, 1284.900
742.4944, 1285.367
742.9765, 1287.788
743.4586, 1290.144
743.9407, 1291.678
744.4229, 1285.343
744.9050, 1269.881
745.3871, 1260.644
745.8692, 1259.658
746.3513, 1276.431
746.8334, 1333.231
747.3156, 1436.600
747.7977, 1479.705
748.2798, 1412.388
748.7619, 1351.922
749.2440, 1315.290
749.7261, 1294.014
750.2083, 1286.098
750.6904, 1287.340
751.1725, 1284.833
751.6546, 1268.716
752.1367, 1255.111
752.6188, 1260.679
753.1010, 1274.721
753.5831, 1280.487
754.0652, 1276.966
754.5473, 1271.154
755.0294, 1266.861
755.5115, 1264.872
755.9937, 1268.087
756.4758, 1276.703
756.9579, 1280.923
757.4400, 1278.957
757.9221, 1277.281
758.4042, 1280.261
758.8864, 1284.331
759.3685, 1282.859
759.8506, 1274.074
760.3327, 1266.135
760.8148, 1255.560
761.2969, 1249.959
761.7791, 1256.537
762.2612, 1266.667
762.7433, 1270.327
763.2254, 1266.799
763.7075, 1263.680
764.1896, 1266.076
764.6718, 1269.930
765.1539, 1271.177
765.6360, 1270.750
766.1181, 1271.209
766.6002, 1272.666
767.0823, 1271.769
767.5645, 1265.539
768.0466, 1256.968
768.5287, 1255.866
769.0108, 1263.818
769.4929, 1260.335
769.9750, 1235.316
770.4572, 1221.199
770.9393, 1246.513
771.4214, 1290.414
771.9035, 1301.746
772.3856, 1264.081
772.8677, 1242.694
773.3499, 1252.378
773.8320, 1265.013
774.3141, 1270.378
774.7962, 1270.879
775.2783, 1269.644
775.7604, 1267.499
776.2426, 1265.550
776.7247, 1264.265
777.2068, 1263.650
777.6889, 1263.961
778.1710, 1264.887
778.6531, 1265.155
779.1353, 1264.842
779.6174, 1266.759
780.0995, 1273.709
780.5816, 1282.832
781.0637, 1285.436
781.5458, 1280.942
782.0280, 1280.043
782.5101, 1285.379
782.9922, 1289.952
783.4743, 1289.024
783.9564, 1284.616
784.4385, 1281.797
784.9207, 1281.837
785.4028, 1280.246
785.8849, 1275.246
786.3670, 1270.678
786.8491, 1267.773
787.3312, 1266.200
787.8134, 1266.737
788.2955, 1269.078
788.7776, 1268.090
789.2597, 1256.917
789.7418, 1245.798
790.2239, 1243.862
790.7061, 1247.275
791.1882, 1249.631
791.6703, 1249.920
792.1524, 1250.440
792.6345, 1252.739
793.1166, 1256.464
793.5988, 1262.611
794.0809, 1270.463
794.5630, 1271.042
795.0451, 1262.436
795.5272, 1253.879
796.0093, 1250.291
796.4915, 1250.467
796.9736, 1252.520
797.4557, 1258.011
797.9378, 1259.120
798.4199, 1253.542
798.9020, 1246.569
799.3842, 1235.879
799.8663, 1227.212
800.3484, 1227.889
800.8305, 1237.542
801.3126, 1245.974
801.7947, 1251.044
802.2769, 1253.609
802.7590, 1254.058
803.2411, 1252.202
803.7232, 1246.099
804.2053, 1237.379
804.6874, 1231.049
805.1696, 1229.913
805.6517, 1231.379
806.1338, 1231.077
806.6159, 1231.320
807.0980, 1241.563
807.5801, 1260.367
808.0623, 1270.171
808.5444, 1262.983
809.0265, 1247.643
809.5086, 1235.525
809.9907, 1226.652
810.4728, 1223.117
810.9550, 1226.917
811.4371, 1229.253
811.9192, 1226.929
812.4013, 1223.629
812.8834, 1222.634
813.3655, 1223.773
813.8477, 1225.358
814.3298, 1228.830
814.8119, 1230.638
815.2940, 1229.811
815.7761, 1227.843
816.2582, 1223.421
816.7404, 1219.214
817.2225, 1221.058
817.7046, 1231.257
818.1867, 1239.557
818.6688, 1237.690
819.1509, 1233.358
819.6331, 1234.927
820.1152, 1239.438
820.5973, 1239.996
821.0794, 1235.192
821.5615, 1228.836
822.0436, 1223.658
822.5258, 1219.613
823.0079, 1216.575
823.4900, 1214.574
823.9721, 1214.551
824.4542, 1216.791
824.9363, 1217.204
825.4185, 1212.880
825.9006, 1205.595
826.3827, 1199.378
826.8648, 1194.332
827.3469, 1189.479
827.8290, 1182.134
828.3111, 1180.326
828.7932, 1190.080
829.2753, 1204.589
829.7574, 1216.943
830.2396, 1227.146
830.7217, 1232.009
831.2038, 1228.062
831.6859, 1223.051
832.1680, 1219.622
832.6501, 1215.294
833.1323, 1204.428
833.6144, 1191.123
834.0965, 1187.650
834.5786, 1201.355
835.0607, 1213.419
835.5428, 1208.591
836.0250, 1197.549
836.5071, 1190.404
836.9892, 1187.715
837.4713, 1189.892
837.9534, 1196.419
838.4355, 1201.521
838.9177, 1198.500
839.3998, 1190.976
839.8819, 1188.156
840.3640, 1189.375
840.8461, 1189.593
841.3282, 1187.794
841.8104, 1185.686
842.2925, 1184.490
842.7746, 1183.918
843.2567, 1182.779
843.7388, 1180.249
844.2209, 1181.786
844.7031, 1190.910
845.1852, 1196.251
845.6673, 1190.102
846.1494, 1180.340
846.6315, 1177.905
847.1136, 1183.602
847.5958, 1188.984
848.0779, 1197.654
848.5600, 1201.099
849.0421, 1194.587
849.5242, 1184.884
850.0063, 1174.975
850.4885, 1166.408
850.9706, 1162.171
851.4527, 1163.795
851.9348, 1167.435
852.4169, 1175.297
852.8990, 1180.768
853.3812, 1174.240
853.8633, 1162.312
854.3454, 1158.755
854.8275, 1166.297
855.3096, 1173.983
855.7917, 1172.557
856.2739, 1167.116
856.7560, 1164.726
857.2381, 1164.774
857.7202, 1165.767
858.2023, 1167.377
858.6844, 1170.170
859.1666, 1174.948
859.6487, 1178.005
860.1308, 1169.870
860.6129, 1151.251
861.0950, 1142.234
861.5771, 1144.094
862.0593, 1149.308
862.5414, 1156.668
863.0235, 1161.597
863.5056, 1157.615
863.9877, 1145.680
864.4698, 1140.682
864.9520, 1146.985
865.4341, 1150.524
865.9162, 1146.020
866.3983, 1142.886
866.8804, 1150.614
867.3625, 1162.656
867.8447, 1165.564
868.3268, 1156.330
868.8089, 1148.071
869.2910, 1141.250
869.7731, 1137.018
870.2552, 1136.456
870.7374, 1138.300
871.2195, 1143.417
871.7016, 1150.216
872.1837, 1151.648
872.6658, 1142.013
873.1479, 1131.586
873.6301, 1125.838
874.1122, 1122.810
874.5943, 1120.916
875.0764, 1119.761
875.5585, 1118.647
876.0406, 1117.402
876.5228, 1117.890
877.0049, 1123.289
877.4870, 1130.553
877.9691, 1136.113
878.4512, 1139.249
878.9333, 1137.020
879.4155, 1129.327
879.8976, 1119.438
880.3797, 1108.962
880.8618, 1101.214
881.3439, 1106.094
881.8260, 1121.797
882.3082, 1126.686
882.7903, 1119.018
883.2724, 1112.328
883.7545, 1111.930
884.2366, 1115.389
884.7188, 1120.604
885.2009, 1127.080
885.6830, 1128.327
886.1651, 1122.992
886.6472, 1115.999
887.1293, 1104.249
887.6115, 1098.146
888.0936, 1107.818
888.5757, 1125.919
889.0578, 1135.223
889.5399, 1132.964
890.0220, 1130.697
890.5042, 1127.538
890.9863, 1125.466
891.4684, 1126.745
891.9505, 1127.982
892.4326, 1125.089
892.9147, 1119.051
893.3969, 1115.625
893.8790, 1118.470
894.3611, 1119.539
894.8432, 1114.783
895.3253, 1109.157
895.8074, 1106.277
896.2896, 1104.900
896.7717, 1102.320
897.2538, 1098.077
897.7359, 1094.714
898.2180, 1094.207
898.7001, 1094.527
899.1823, 1093.327
899.6644, 1092.416
900.1465, 1096.080
900.6286, 1102.660
901.1107, 1104.622
901.5928, 1098.133
902.0750, 1090.758
902.5571, 1090.854
903.0392, 1095.081
903.5213, 1098.374
904.0034, 1100.401
904.4855, 1099.901
904.9677, 1097.041
905.4498, 1096.223
905.9319, 1101.600
906.4140, 1109.486
906.8961, 1111.541
907.3782, 1108.819
907.8604, 1108.759
908.3425, 1111.895
908.8246, 1112.010
909.3067, 1106.152
909.7888, 1098.260
910.2709, 1093.211
910.7531, 1090.731
911.2352, 1088.304
911.7173, 1085.712
912.1994, 1085.184
912.6815, 1088.114
913.1636, 1089.529
913.6458, 1085.491
914.1279, 1078.726
914.6100, 1074.947
915.0921, 1074.027
915.5742, 1077.433
916.0563, 1090.045
916.5385, 1097.099
917.0206, 1092.661
917.5027, 1083.452
917.9848, 1073.964
918.4669, 1064.618
918.9490, 1057.817
919.4312, 1050.773
919.9133, 1051.028
920.3954, 1067.202
920.8775, 1080.755
921.3596, 1082.521
921.8417, 1078.745
922.3239, 1076.117
922.8060, 1075.151
923.2881, 1075.542
923.7702, 1080.482
924.2523, 1082.303
924.7344, 1072.795
925.2166, 1065.187
925.6987, 1073.586
926.1808, 1089.455
926.6629, 1095.179
927.1450, 1086.593
927.6271, 1078.173
928.1093, 1075.845
928.5914, 1076.168
929.0735, 1078.014
929.5556, 1080.650
930.0377, 1084.222
930.5198, 1087.826
931.0020, 1088.934
931.4841, 1086.232
931.9662, 1082.978
932.4483, 1082.189
932.9304, 1081.598
933.4125, 1079.383
933.8947, 1075.285
934.3768, 1066.123
934.8589, 1053.670
935.3410, 1049.531
935.8231, 1063.241
936.3052, 1080.130
936.7874, 1082.624
937.2695, 1076.080
937.7516, 1067.452
938.2337, 1059.045
938.7158, 1056.786
939.1979, 1061.980
939.6801, 1067.691
940.1622, 1067.208
940.6443, 1064.024
941.1264, 1065.785
941.6085, 1070.783
942.0906, 1072.926
942.5728, 1071.602
943.0549, 1067.187
943.5370, 1059.759
944.0191, 1053.328
944.5012, 1053.063
944.9833, 1057.910
945.4655, 1066.436
945.9476, 1077.739
946.4297, 1075.589
946.9118, 1056.804
947.3939, 1043.246
947.8760, 1049.082
948.3582, 1063.111
948.8403, 1065.755
949.3224, 1057.365
949.8045, 1047.952
950.2866, 1036.605
950.7687, 1035.250
951.2509, 1049.072
951.7330, 1061.480
952.2151, 1058.005
952.6972, 1046.781
953.1793, 1051.935
953.6614, 1078.884
954.1436, 1088.256
954.6257, 1075.233
955.1078, 1061.833
955.5899, 1054.498
956.0720, 1050.040
956.5541, 1044.699
957.0363, 1040.047
957.5184, 1044.071
958.0005, 1060.441
958.4826, 1075.044
958.9647, 1090.794
959.4468, 1097.143
959.9290, 1084.708
960.4111, 1067.438
960.8932, 1062.372
961.3753, 1068.399
961.8574, 1069.552
962.3395, 1061.896
962.8217, 1057.082
963.3038, 1054.163
963.7859, 1056.725
964.2680, 1073.262
964.7501, 1091.447
965.2322, 1090.235
965.7144, 1067.930
966.1965, 1061.365
966.6786, 1090.212
967.1607, 1105.673
967.6428, 1095.411
968.1249, 1079.621
968.6071, 1064.459
969.0892, 1052.775
969.5713, 1049.764
970.0534, 1056.439
970.5355, 1064.311
971.0176, 1077.378
971.4998, 1085.197
971.9819, 1079.085
972.4640, 1073.462
972.9461, 1083.221
973.4282, 1098.946
973.9103, 1098.565
974.3925, 1075.830
974.8746, 1062.316
975.3567, 1069.475
975.8388, 1077.949
976.3209, 1081.562
976.8030, 1084.195
977.2852, 1090.306
977.7673, 1097.935
978.2494, 1101.001
978.7315, 1096.952
979.2136, 1095.550
979.6957, 1104.358
980.1779, 1109.682
980.6600, 1100.408
981.1421, 1089.330
981.6242, 1090.036
982.1063, 1099.624
982.5884, 1106.261
983.0706, 1107.024
983.5527, 1106.226
984.0348, 1104.218
984.5169, 1102.120
984.9990, 1097.735
985.4811, 1095.590
985.9633, 1102.308
986.4454, 1115.800
986.9275, 1127.362
987.4096, 1135.190
987.8917, 1139.047
988.3738, 1137.255
988.8560, 1133.274
989.3381, 1122.694
989.8202, 1115.419
990.3023, 1129.102
990.7844, 1158.453
991.2665, 1173.355
991.7487, 1155.531
992.2308, 1146.164
992.7129, 1170.638
993.1950, 1200.533
993.6771, 1215.985
994.1592, 1226.017
994.6414, 1243.898
995.1235, 1269.950
995.6056, 1295.443
996.0877, 1316.872
996.5698, 1338.678
997.0519, 1359.457
997.5341, 1384.752
998.0162, 1423.601
998.4983, 1466.262
998.9804, 1500.574
999.4625, 1525.085
999.9446, 1544.800
1000.427, 1559.925
1000.909, 1574.071
1001.391, 1587.136
1001.873, 1601.762
1002.355, 1613.310
1002.837, 1631.403
1003.319, 1669.760
1003.802, 1729.014
1004.284, 1798.869
1004.766, 1872.019
1005.248, 1961.367
1005.730, 2067.735
1006.212, 2198.056
1006.694, 2349.742
1007.176, 2532.762
1007.659, 2750.950
1008.141, 3010.552
1008.623, 3334.834
1009.105, 3720.009
1009.587, 4194.559
1010.069, 4756.225
1010.551, 5427.551
1011.033, 6208.559
1011.515, 7116.554
1011.998, 8167.272
1012.480, 9364.232
1012.962, 10718.12
1013.444, 12182.61
1013.926, 13895.85
1014.408, 16017.92
1014.890, 18311.53
1015.372, 21008.14
1015.854, 23545.39
1016.337, 25397.53
1016.819, 26383.79
1017.301, 26011.69
1017.783, 23727.72
1018.265, 20831.47
1018.747, 17214.63
1019.229, 13765.12
1019.711, 10955.53
1020.194, 8724.037
1020.676, 7034.455
1021.158, 5832.591
1021.640, 4899.922
1022.122, 4241.279
1022.604, 3715.960
1023.086, 3321.308
1023.568, 3005.119
1024.051, 2756.153
1024.533, 2553.110
1025.015, 2378.545
1025.497, 2228.348
1025.979, 2096.649
1026.461, 1983.768
1026.943, 1884.785
1027.425, 1796.525
1027.907, 1722.828
1028.390, 1673.624
1028.872, 1634.147
1029.354, 1587.797
1029.836, 1535.355
1030.318, 1487.810
1030.800, 1447.029
1031.282, 1410.874
1031.764, 1379.117
1032.246, 1351.747
1032.729, 1332.932
1033.211, 1315.594
1033.693, 1291.096
1034.175, 1261.609
1034.657, 1237.735
1035.139, 1221.236
1035.621, 1208.278
1036.103, 1198.092
1036.586, 1191.960
1037.068, 1195.424
1037.550, 1198.675
1038.032, 1193.077
1038.514, 1180.069
1038.996, 1164.741
1039.478, 1144.957
1039.960, 1128.583
1040.443, 1115.555
1040.925, 1106.118
1041.407, 1103.156
1041.889, 1100.604
1042.371, 1093.565
1042.853, 1083.571
1043.335, 1074.638
1043.817, 1067.045
1044.299, 1059.073
1044.781, 1049.678
1045.264, 1041.815
1045.746, 1033.787
1046.228, 1032.266
1046.710, 1047.011
1047.192, 1066.436
1047.674, 1064.310
1048.156, 1037.511
1048.638, 1023.465
1049.121, 1026.387
1049.603, 1028.363
1050.085, 1026.113
1050.567, 1022.799
1051.049, 1020.141
1051.531, 1017.633
1052.013, 1013.724
1052.495, 1008.729
1052.978, 1012.493
1053.460, 1027.758
1053.942, 1030.010
1054.424, 1013.650
1054.906, 997.7367
1055.388, 991.7030
1055.870, 991.4783
1056.352, 992.4728
1056.834, 994.1375
1057.317, 992.8102
1057.799, 988.6693
1058.281, 989.2620
1058.763, 995.3861
1059.245, 1001.235
1059.727, 1004.581
1060.209, 1004.189
1060.691, 998.4085
1061.173, 988.6887
1061.656, 975.7805
1062.138, 961.9874
1062.620, 961.2411
1063.102, 972.2491
1063.584, 980.6619
1064.066, 981.8739
1064.548, 978.1371
1065.030, 969.9753
1065.513, 962.3901
1065.995, 966.9193
1066.477, 976.6841
1066.959, 973.4259
1067.441, 961.2327
1067.923, 955.7119
1068.405, 959.4316
1068.887, 964.8320
1069.370, 968.1812
1069.852, 966.9084
1070.334, 951.8784
1070.816, 935.7487
1071.298, 938.1290
1071.780, 950.7219
1072.262, 959.5504
1072.744, 962.3346
1073.226, 960.7659
1073.708, 955.2185
1074.191, 950.2257
1074.673, 949.2459
1075.155, 949.7919
1075.637, 952.6758
1076.119, 953.8064
1076.601, 944.0436
1077.083, 929.6636
1077.565, 928.0587
1078.047, 943.5555
1078.530, 954.2941
1079.012, 944.8175
1079.494, 937.0735
1079.976, 943.9131
1080.458, 952.6216
1080.940, 953.6977
1081.422, 950.1227
1081.904, 946.5245
1082.387, 943.6343
1082.869, 943.2847
1083.351, 946.5648
1083.833, 951.2695
1084.315, 959.8583
1084.797, 966.5259
1085.279, 967.1943
1085.761, 965.7531
1086.244, 966.7866
1086.726, 969.6161
1087.208, 970.7151
1087.690, 971.7477
1088.172, 966.3984
1088.654, 949.8835
1089.136, 936.1786
1089.618, 928.1954
1090.100, 926.1153
1090.583, 932.1970
1091.065, 941.9376
1091.547, 943.5331
1092.029, 936.0129
1092.511, 935.7088
1092.993, 944.4193
1093.475, 947.9432
1093.957, 942.5162
1094.439, 939.9385
1094.922, 947.5936
1095.404, 957.3501
1095.886, 956.9272
1096.368, 949.3809
1096.850, 950.4399
1097.332, 958.2249
1097.814, 954.4282
1098.296, 938.7480
1098.779, 928.7939
1099.261, 931.0726
1099.743, 938.4112
1100.225, 945.5918
1100.707, 950.8094
1101.189, 947.7501
1101.671, 941.9539
1102.153, 948.7879
1102.635, 962.8549
1103.118, 963.9145
1103.600, 951.1490
1104.082, 947.0002
1104.564, 965.4474
1105.046, 985.8722
1105.528, 988.8589
1106.010, 986.5439
1106.492, 990.0912
1106.974, 996.6642
1107.457, 1000.762
1107.939, 1003.822
1108.421, 1012.916
1108.903, 1030.565
1109.385, 1044.333
1109.867, 1045.544
1110.349, 1046.390
1110.831, 1051.342
1111.314, 1058.688
1111.796, 1065.293
1112.278, 1074.265
1112.760, 1092.632
1113.242, 1120.308
1113.724, 1142.931
1114.206, 1155.745
1114.688, 1168.996
1115.171, 1180.918
1115.653, 1196.313
1116.135, 1214.558
1116.617, 1239.480
1117.099, 1274.158
1117.581, 1318.851
1118.063, 1374.194
1118.545, 1439.393
1119.027, 1518.794
1119.510, 1610.694
1119.992, 1725.229
1120.474, 1862.653
1120.956, 2031.650
1121.438, 2233.277
1121.920, 2483.334
1122.402, 2802.671
1122.884, 3189.663
1123.366, 3632.970
1123.849, 4140.086
1124.331, 4754.711
1124.813, 5482.456
1125.295, 6317.701
1125.777, 7254.076
1126.259, 8296.124
1126.741, 9471.349
1127.223, 10655.38
1127.706, 11895.49
1128.188, 12883.69
1128.670, 13180.41
1129.152, 12813.72
1129.634, 11730.69
1130.116, 10092.14
1130.598, 8370.948
1131.080, 6724.842
1131.563, 5317.904
1132.045, 4254.886
1132.527, 3439.676
1133.009, 2880.185
1133.491, 2479.320
1133.973, 2189.531
1134.455, 1977.141
1134.937, 1803.393
1135.419, 1662.677
1135.901, 1551.299
1136.384, 1483.434
1136.866, 1422.552
1137.348, 1359.858
1137.830, 1310.571
1138.312, 1287.095
1138.794, 1271.996
1139.276, 1249.920
1139.758, 1221.991
1140.241, 1190.122
1140.723, 1151.398
1141.205, 1129.977
1141.687, 1129.529
1142.169, 1121.636
1142.651, 1099.312
1143.133, 1078.630
1143.615, 1068.998
1144.098, 1064.796
1144.580, 1058.370
1145.062, 1051.501
1145.544, 1050.815
1146.026, 1054.515
1146.508, 1055.710
1146.990, 1054.648
1147.472, 1055.017
1147.954, 1057.975
1148.437, 1062.918
1148.919, 1069.408
1149.401, 1077.881
1149.883, 1087.727
1150.365, 1100.731
1150.847, 1118.441
1151.329, 1140.733
1151.811, 1163.571
1152.293, 1191.540
1152.776, 1236.933
1153.258, 1303.270
1153.740, 1382.344
1154.222, 1461.135
1154.704, 1567.722
1155.186, 1716.183
1155.668, 1888.170
1156.150, 2066.616
1156.633, 2267.852
1157.115, 2508.939
1157.597, 2788.221
1158.079, 3103.145
1158.561, 3488.111
1159.043, 3807.283
1159.525, 4087.996
1160.007, 4198.999
1160.490, 4104.453
1160.972, 3836.732
1161.454, 3394.006
1161.936, 2876.303
1162.418, 2421.042
1162.900, 2034.633
1163.382, 1761.367
1163.864, 1585.450
1164.346, 1448.212
1164.828, 1340.568
1165.311, 1256.414
1165.793, 1192.795
1166.275, 1147.204
1166.757, 1121.100
1167.239, 1100.838
1167.721, 1071.004
1168.203, 1042.007
1168.685, 1025.907
1169.168, 1016.838
1169.650, 1007.564
1170.132, 997.5501
1170.614, 988.0891
1171.096, 979.3319
1171.578, 973.8033
1172.060, 977.6040
1172.542, 976.6679
1173.025, 962.0153
1173.507, 949.0959
1173.989, 949.0095
1174.471, 950.0524
1174.953, 938.3774
1175.435, 918.9070
1175.917, 909.8734
1176.399, 913.2454
1176.881, 913.3840
1177.364, 909.8096
1177.846, 906.6971
1178.328, 904.8549
1178.810, 903.2491
1179.292, 901.3392
1179.774, 899.7036
1180.256, 899.1422
1180.738, 899.1390
1181.220, 898.9484
1181.703, 898.3373
1182.185, 896.8898
1182.667, 894.5218
1183.149, 889.9219
1183.631, 884.0077
1184.113, 881.4282
1184.595, 884.3500
1185.077, 890.3074
1185.560, 901.3083
1186.042, 910.4379
1186.524, 915.4111
1187.006, 915.1936
1187.488, 903.5170
1187.970, 888.9839
1188.452, 888.4806
1188.934, 901.6254
1189.417, 903.0723
1189.899, 883.9290
1190.381, 872.3903
1190.863, 868.7101
1191.345, 873.9843
1191.827, 892.4817
1192.309, 905.6597
1192.791, 899.4954
1193.273, 887.0412
1193.755, 889.7661
1194.238, 902.9630
1194.720, 907.3381
1195.202, 904.8488
1195.684, 905.2819
1196.166, 907.5687
1196.648, 899.3758
1197.130, 880.4622
1197.612, 873.0765
1198.095, 892.6385
1198.577, 914.2767
1199.059, 916.9316
1199.541, 913.4996
1200.023, 915.6191
1200.505, 916.2264
1200.987, 902.0091
1201.469, 882.5958
1201.952, 880.5700
1202.434, 897.7578
1202.916, 904.2559
1203.398, 885.5204
1203.880, 875.5822
1204.362, 880.9643
1204.844, 882.1431
1205.326, 870.8301
1205.808, 860.8072
1206.291, 861.8906
1206.773, 870.3236
1207.255, 881.4107
1207.737, 893.3738
1208.219, 894.7706
1208.701, 888.1570
1209.183, 888.1512
1209.665, 894.7493
1210.147, 900.8464
1210.630, 904.3699
1211.112, 906.8591
1211.594, 909.0339
1212.076, 911.5108
1212.558, 917.3539
1213.040, 920.8381
1213.522, 916.1702
1214.004, 907.6417
1214.487, 895.8061
1214.969, 885.3960
1215.451, 885.8612
1215.933, 897.3470
1216.415, 905.2920
1216.897, 906.2338
1217.379, 908.1097
1217.861, 912.6911
1218.344, 913.4832
1218.826, 906.8640
1219.308, 902.7685
1219.790, 908.3963
1220.272, 916.6824
1220.754, 917.3331
1221.236, 912.1176
1221.718, 906.3627
1222.200, 900.1292
1222.682, 892.1000
1223.165, 883.9387
1223.647, 883.6299
1224.129, 890.4512
1224.611, 891.4504
1225.093, 880.0061
1225.575, 867.9336
1226.057, 859.4806
1226.539, 857.5413
1227.022, 871.4677
1227.504, 884.6199
1227.986, 882.0543
1228.468, 871.9163
1228.950, 865.6524
1229.432, 863.2816
1229.914, 862.2703
1230.396, 863.3389
1230.879, 862.1776
1231.361, 857.7537
1231.843, 856.8077
1232.325, 861.2159
1232.807, 861.6425
1233.289, 853.3698
1233.771, 845.3633
1234.253, 847.5198
1234.735, 852.7000
1235.218, 847.5558
1235.700, 837.3300
1236.182, 829.5680
1236.664, 825.1563
1237.146, 825.3046
1237.628, 829.4143
1238.110, 837.3227
1238.592, 848.7109
1239.074, 853.9363
1239.557, 845.5336
1240.039, 836.7271
1240.521, 825.4615
1241.003, 821.5208
1241.485, 833.7704
1241.967, 846.9088
1242.449, 849.3813
1242.931, 845.0954
1243.414, 840.9012
1243.896, 836.9222
1244.378, 832.5756
1244.860, 828.6010
1245.342, 837.4189
1245.824, 856.7365
1246.306, 864.1736
1246.788, 855.6167
1247.271, 846.8752
1247.753, 846.6165
1248.235, 849.7505
1248.717, 855.6743
1249.199, 858.7451
1249.681, 853.3505
1250.163, 844.4502
1250.645, 833.6954
1251.127, 824.1017
1251.609, 818.1122
1252.092, 816.7593
1252.574, 824.9490
1253.056, 847.7699
1253.538, 854.8859
1254.020, 841.4478
1254.502, 832.3187
1254.984, 831.2194
1255.466, 835.2538
1255.949, 843.6270
1256.431, 847.1410
1256.913, 836.3713
1257.395, 821.8488
1257.877, 819.7703
1258.359, 824.5919
1258.841, 828.7415
1259.323, 832.4930
1259.806, 838.1400
1260.288, 843.7233
1260.770, 843.8561
1261.252, 838.1785
1261.734, 833.5585
1262.216, 830.9086
1262.698, 831.2192
##END=



