##NAMES=Ankerite
##RRUFFID=R050181
##IDEAL CHEMISTRY=CaFe^2+^(CO_3_)_2_
##LOCALITY=Cerro Sapo, Cochabamba Department, Bolivia
##OWNER=RRUFF
##SOURCE=Marcus Origlieri
##DESCRIPTION=White coarsely crystalline massive
##STATUS=The identification of this mineral has been confirmed by X-ray diffraction and chemical analysis
##URL=rruff.info/R050181
##MEASURED CHEMISTRY=Ca_1.00_(Fe^2+^_0.60_Mg_0.35_Mn^2+^_0.05_)_Î£=1_(CO_3_)_2_ ; C not measured but estimated by difference and stoichiometry
114.1789, 35.34623
114.6611, 35.47711
115.1432, 35.40919
115.6253, 35.23557
116.1074, 35.15871
116.5895, 35.30074
117.0716, 35.56131
117.5538, 35.69077
118.0359, 35.62873
118.5180, 35.54536
119.0001, 35.54171
119.4822, 35.61750
119.9643, 35.76797
120.4465, 36.02971
120.9286, 36.35736
121.4107, 36.73233
121.8928, 37.21425
122.3749, 37.67488
122.8570, 37.83268
123.3392, 37.49915
123.8213, 37.20190
124.3034, 37.10677
124.7855, 37.15874
125.2676, 37.28889
125.7497, 37.46101
126.2319, 37.67509
126.7140, 37.92439
127.1961, 38.27510
127.6782, 38.60327
128.1603, 38.84055
128.6424, 39.02339
129.1246, 39.24591
129.6067, 39.61092
130.0888, 40.17063
130.5709, 40.58718
131.0530, 40.86084
131.5351, 41.03323
132.0173, 41.07975
132.4994, 41.01675
132.9815, 40.93684
133.4636, 40.92752
133.9457, 40.94539
134.4278, 41.26490
134.9100, 42.15000
135.3921, 43.25601
135.8742, 44.14717
136.3563, 44.67641
136.8384, 45.08286
137.3205, 45.75265
137.8027, 46.69556
138.2848, 47.60485
138.7669, 48.28864
139.2490, 48.81529
139.7311, 49.45485
140.2132, 50.29472
140.6953, 51.28822
141.1775, 52.38392
141.6596, 53.59332
142.1417, 54.81163
142.6238, 55.91303
143.1059, 56.87758
143.5880, 57.89225
144.0702, 58.92832
144.5523, 60.07929
145.0344, 61.46132
145.5165, 63.11113
145.9986, 64.89378
146.4807, 66.56658
146.9629, 68.10288
147.4450, 69.57558
147.9271, 71.01093
148.4092, 72.40392
148.8913, 73.73084
149.3734, 74.98367
149.8556, 76.18722
150.3377, 77.43838
150.8198, 78.90420
151.3019, 80.24725
151.7840, 81.38378
152.2661, 82.38150
152.7483, 83.32419
153.2304, 84.25632
153.7125, 85.19138
154.1946, 86.25031
154.6767, 87.50014
155.1588, 88.77428
155.6410, 90.01209
156.1231, 91.21713
156.6052, 92.40628
157.0873, 93.57446
157.5694, 94.72842
158.0515, 95.95434
158.5337, 97.41190
159.0158, 98.82780
159.4979, 99.91830
159.9800, 100.6569
160.4621, 101.3676
160.9442, 102.2881
161.4264, 103.3913
161.9085, 104.6081
162.3906, 106.2057
162.8727, 107.8330
163.3548, 108.8923
163.8369, 109.2475
164.3191, 109.2707
164.8012, 109.3205
165.2833, 109.2838
165.7654, 108.8603
166.2475, 107.9476
166.7296, 106.5409
167.2118, 104.5195
167.6939, 101.5685
168.1760, 98.32030
168.6581, 95.09885
169.1402, 91.88167
169.6223, 88.50753
170.1045, 84.79096
170.5866, 80.67724
171.0687, 76.84702
171.5508, 73.45839
172.0329, 70.24101
172.5150, 67.06911
172.9971, 63.96471
173.4793, 61.02200
173.9614, 58.33654
174.4435, 55.91316
174.9256, 53.77678
175.4077, 51.95735
175.8898, 50.31669
176.3720, 48.82602
176.8541, 47.45631
177.3362, 46.14976
177.8183, 44.82485
178.3004, 43.34339
178.7825, 42.20488
179.2647, 41.66623
179.7468, 41.29165
180.2289, 40.69963
180.7110, 39.80156
181.1931, 38.79271
181.6752, 37.96289
182.1574, 37.33784
182.6395, 36.83018
183.1216, 36.54424
183.6037, 36.33664
184.0858, 36.01009
184.5679, 35.49384
185.0501, 34.89475
185.5322, 34.37066
186.0143, 33.91166
186.4964, 33.51434
186.9785, 33.14859
187.4606, 32.84409
187.9428, 32.71193
188.4249, 32.88921
188.9070, 33.09136
189.3891, 32.92122
189.8712, 32.35552
190.3533, 31.81459
190.8355, 31.61582
191.3176, 31.71328
191.7997, 31.71736
192.2818, 31.41276
192.7639, 31.09078
193.2460, 31.03497
193.7282, 31.26499
194.2103, 31.50942
194.6924, 31.49210
195.1745, 31.18193
195.6566, 30.91051
196.1387, 30.73738
196.6209, 30.63162
197.1030, 30.60464
197.5851, 30.65265
198.0672, 30.72215
198.5493, 30.75185
199.0314, 30.74188
199.5136, 30.68832
199.9957, 30.53154
200.4778, 30.37439
200.9599, 30.26953
201.4420, 30.23364
201.9241, 30.26624
202.4063, 30.39330
202.8884, 30.76364
203.3705, 30.92364
203.8526, 30.66631
204.3347, 30.34619
204.8168, 30.24483
205.2990, 30.44049
205.7811, 30.79522
206.2632, 31.05779
206.7453, 31.19252
207.2274, 31.26656
207.7095, 31.28580
208.1917, 31.24710
208.6738, 31.12292
209.1559, 30.90743
209.6380, 30.65755
210.1201, 30.48760
210.6022, 30.42454
211.0844, 30.41170
211.5665, 30.49510
212.0486, 30.61138
212.5307, 30.66969
213.0128, 30.63441
213.4949, 30.57355
213.9771, 30.64215
214.4592, 30.91540
214.9413, 31.13942
215.4234, 31.24613
215.9055, 31.28125
216.3876, 31.30832
216.8698, 31.34402
217.3519, 31.39547
217.8340, 31.50286
218.3161, 31.70373
218.7982, 31.81570
219.2803, 31.69993
219.7625, 31.45227
220.2446, 31.29483
220.7267, 31.31291
221.2088, 31.41913
221.6909, 31.49225
222.1730, 31.53489
222.6552, 31.54801
223.1373, 31.43617
223.6194, 31.27305
224.1015, 31.34843
224.5836, 31.84035
225.0657, 32.47375
225.5479, 32.97817
226.0300, 33.35892
226.5121, 33.56712
226.9942, 33.44410
227.4763, 33.05566
227.9584, 32.87334
228.4406, 33.11698
228.9227, 33.48005
229.4048, 33.69526
229.8869, 33.76664
230.3690, 33.84712
230.8511, 34.06061
231.3333, 34.40430
231.8154, 34.76416
232.2975, 35.11571
232.7796, 35.49293
233.2617, 35.93138
233.7438, 36.42226
234.2259, 36.91117
234.7081, 37.32249
235.1902, 37.64479
235.6723, 38.06385
236.1544, 38.74836
236.6365, 39.40552
237.1186, 39.85692
237.6008, 40.13543
238.0829, 40.41360
238.5650, 40.86232
239.0471, 41.50541
239.5292, 42.14070
240.0113, 42.79073
240.4935, 43.41240
240.9756, 43.96478
241.4577, 44.46790
241.9398, 44.97694
242.4219, 45.52522
242.9040, 46.09113
243.3862, 46.85015
243.8683, 48.01427
244.3504, 49.17590
244.8325, 50.15741
245.3146, 50.98860
245.7967, 51.80483
246.2789, 52.70810
246.7610, 53.69652
247.2431, 54.83833
247.7252, 56.27829
248.2073, 57.72558
248.6894, 59.01937
249.1716, 60.21743
249.6537, 61.46782
250.1358, 62.89333
250.6179, 64.50170
251.1000, 66.22443
251.5821, 68.15942
252.0643, 70.10159
252.5464, 71.92119
253.0285, 73.68061
253.5106, 75.53460
253.9927, 77.61876
254.4748, 79.92307
254.9570, 82.24155
255.4391, 84.51216
255.9212, 86.86030
256.4033, 89.40565
256.8854, 92.06770
257.3675, 94.64146
257.8496, 96.95570
258.3318, 99.05473
258.8139, 101.5699
259.2960, 104.8783
259.7781, 108.0956
260.2602, 110.8627
260.7423, 113.3131
261.2245, 115.7994
261.7066, 118.5133
262.1887, 121.4134
262.6708, 124.2570
263.1529, 126.9392
263.6350, 129.7098
264.1172, 132.7712
264.5993, 135.9832
265.0814, 139.0597
265.5635, 141.8398
266.0456, 144.4248
266.5277, 147.1243
267.0099, 150.0455
267.4920, 152.9035
267.9741, 155.5769
268.4562, 158.1265
268.9383, 160.6975
269.4204, 163.3738
269.9026, 166.0215
270.3847, 168.2965
270.8668, 170.0884
271.3489, 171.9222
271.8310, 174.2102
272.3131, 176.6086
272.7953, 178.3849
273.2774, 179.1966
273.7595, 179.6212
274.2416, 180.7143
274.7237, 182.5848
275.2058, 184.0873
275.6880, 184.7207
276.1701, 184.7996
276.6522, 184.9245
277.1343, 185.3019
277.6164, 185.5158
278.0985, 184.8822
278.5807, 183.5050
279.0628, 182.0586
279.5449, 180.7924
280.0270, 179.5549
280.5091, 178.1224
280.9912, 176.4748
281.4734, 174.5962
281.9555, 172.4790
282.4376, 170.1245
282.9197, 167.4263
283.4018, 164.1699
283.8839, 160.6322
284.3661, 157.1564
284.8482, 153.7719
285.3303, 150.4322
285.8124, 147.1481
286.2945, 143.8967
286.7766, 140.6243
287.2588, 137.3979
287.7409, 134.1133
288.2230, 130.6100
288.7051, 126.8757
289.1872, 123.2076
289.6693, 119.8468
290.1515, 116.6644
290.6336, 113.5143
291.1157, 110.4139
291.5978, 107.2658
292.0799, 103.9146
292.5620, 100.3513
293.0442, 96.87174
293.5263, 93.62302
294.0084, 90.54800
294.4905, 87.58237
294.9726, 84.74759
295.4547, 81.91835
295.9369, 78.88672
296.4190, 75.68877
296.9011, 72.82307
297.3832, 70.57548
297.8653, 68.66039
298.3474, 66.76302
298.8296, 64.89162
299.3117, 62.92894
299.7938, 60.66716
300.2759, 58.19588
300.7580, 56.02907
301.2401, 54.32749
301.7223, 52.90693
302.2044, 51.64763
302.6865, 50.52248
303.1686, 49.33519
303.6507, 47.81958
304.1328, 46.13656
304.6150, 44.85643
305.0971, 44.18242
305.5792, 43.63446
306.0613, 42.85598
306.5434, 41.91185
307.0255, 40.97540
307.5077, 40.13688
307.9898, 39.35196
308.4719, 38.50284
308.9540, 37.54181
309.4361, 36.66519
309.9182, 36.05584
310.4003, 35.60363
310.8824, 35.15300
311.3646, 34.65599
311.8467, 34.14022
312.3288, 33.64437
312.8109, 33.16604
313.2930, 32.71466
313.7751, 32.28988
314.2573, 31.90141
314.7394, 31.57053
315.2215, 31.31528
315.7036, 31.08355
316.1857, 30.81009
316.6678, 30.49597
317.1500, 30.25047
317.6321, 30.22310
318.1142, 30.18045
318.5963, 29.82725
319.0784, 29.11984
319.5605, 28.47679
320.0427, 28.27303
320.5248, 28.42881
321.0069, 28.46384
321.4890, 28.22851
321.9711, 27.93296
322.4532, 27.77941
322.9354, 27.74474
323.4175, 27.68855
323.8996, 27.53576
324.3817, 27.30719
324.8638, 27.05090
325.3459, 26.75563
325.8281, 26.46730
326.3102, 26.21624
326.7923, 25.99830
327.2744, 25.80802
327.7565, 25.60069
328.2386, 25.44231
328.7208, 25.49637
329.2029, 25.81623
329.6850, 26.03868
330.1671, 25.86835
330.6492, 25.49931
331.1313, 25.21719
331.6135, 25.12409
332.0956, 25.04362
332.5777, 24.74269
333.0598, 24.23466
333.5419, 23.88472
334.0240, 23.93839
334.5062, 24.14060
334.9883, 24.13561
335.4704, 23.88487
335.9525, 23.59279
336.4346, 23.39215
336.9167, 23.25829
337.3989, 23.07972
337.8810, 22.77617
338.3631, 22.51929
338.8452, 22.58846
339.3273, 22.94390
339.8094, 23.11058
340.2916, 22.73281
340.7737, 22.09107
341.2558, 21.67276
341.7379, 21.54829
342.2200, 21.55417
342.7021, 21.63085
343.1843, 21.74158
343.6664, 21.76412
344.1485, 21.65081
344.6306, 21.45519
345.1127, 21.18978
345.5948, 20.85828
346.0770, 20.58579
346.5591, 20.46701
347.0412, 20.45013
347.5233, 20.38020
348.0054, 20.21782
348.4875, 20.06293
348.9697, 20.01108
349.4518, 20.02244
349.9339, 19.94092
350.4160, 19.66611
350.8981, 19.34637
351.3802, 19.26272
351.8624, 19.45098
352.3445, 19.60748
352.8266, 19.64714
353.3087, 19.59414
353.7908, 19.45009
354.2729, 19.20328
354.7551, 18.97877
355.2372, 18.92670
355.7193, 19.05262
356.2014, 19.16825
356.6835, 19.31886
357.1656, 19.40918
357.6478, 19.30643
358.1299, 19.03058
358.6120, 18.78984
359.0941, 18.73634
359.5762, 18.84606
360.0583, 18.92124
360.5405, 18.97803
361.0226, 18.98871
361.5047, 18.94882
361.9868, 18.85453
362.4689, 18.66023
362.9510, 18.32198
363.4332, 17.95725
363.9153, 17.88218
364.3974, 18.33453
364.8795, 18.59168
365.3616, 18.38132
365.8438, 18.01640
366.3259, 17.86371
366.8080, 17.99743
367.2901, 18.19343
367.7722, 18.16843
368.2543, 17.83338
368.7365, 17.66196
369.2186, 17.77127
369.7007, 17.92974
370.1828, 18.05104
370.6649, 18.10779
371.1470, 18.04691
371.6291, 17.80549
372.1112, 17.41191
372.5934, 17.22176
373.0755, 17.46923
373.5576, 17.63622
374.0397, 17.54522
374.5218, 17.32563
375.0039, 17.16430
375.4861, 17.14065
375.9682, 17.19930
376.4503, 17.22351
376.9324, 17.23109
377.4145, 17.16617
377.8966, 16.94914
378.3788, 16.72248
378.8609, 16.56712
379.3430, 16.50644
379.8251, 16.54851
380.3072, 16.73501
380.7893, 17.11340
381.2715, 17.29367
381.7536, 17.06909
382.2357, 16.85193
382.7178, 16.79677
383.1999, 16.85128
383.6820, 16.89077
384.1642, 16.83714
384.6463, 16.71430
385.1284, 16.60769
385.6105, 16.46661
386.0926, 16.43648
386.5747, 16.65305
387.0569, 16.91768
387.5390, 17.02961
388.0211, 16.93316
388.5032, 16.75022
388.9853, 16.64789
389.4674, 16.64504
389.9496, 16.61870
390.4317, 16.48207
390.9138, 16.38391
391.3959, 16.45452
391.8780, 16.64923
392.3601, 16.78761
392.8423, 16.70684
393.3244, 16.45525
393.8065, 16.26958
394.2886, 16.17365
394.7707, 16.10040
395.2528, 16.04089
395.7350, 15.97594
396.2171, 15.86132
396.6992, 15.64658
397.1813, 15.45437
397.6634, 15.45178
398.1455, 15.64525
398.6277, 15.88648
399.1098, 16.21029
399.5919, 16.48739
400.0740, 16.58858
400.5561, 16.50718
401.0382, 16.33046
401.5204, 16.00644
402.0025, 15.62856
402.4846, 15.46089
402.9667, 15.58214
403.4488, 15.76375
403.9309, 15.80157
404.4131, 15.73312
404.8952, 15.68668
405.3773, 15.68486
405.8594, 15.71408
406.3415, 15.78491
406.8236, 15.88780
407.3058, 15.96260
407.7879, 15.98843
408.2700, 15.95643
408.7521, 15.82030
409.2342, 15.46733
409.7163, 15.26520
410.1985, 15.47162
410.6806, 15.85002
411.1627, 16.04181
411.6448, 15.96013
412.1269, 15.78785
412.6090, 15.74990
413.0912, 15.89384
413.5733, 15.90389
414.0554, 15.61232
414.5375, 15.34193
415.0196, 15.32153
415.5017, 15.49385
415.9839, 15.64772
416.4660, 15.64925
416.9481, 15.52997
417.4302, 15.44021
417.9123, 15.36151
418.3944, 15.33798
418.8766, 15.42439
419.3587, 15.54235
419.8408, 15.62197
420.3229, 15.64110
420.8050, 15.60702
421.2871, 15.51511
421.7693, 15.32667
422.2514, 15.22624
422.7335, 15.32028
423.2156, 15.39407
423.6977, 15.32550
424.1798, 15.16385
424.6620, 15.03980
425.1441, 15.04536
425.6262, 15.14141
426.1083, 15.17129
426.5904, 15.07477
427.0725, 15.02923
427.5547, 15.10515
428.0368, 15.22609
428.5189, 15.34211
429.0010, 15.43912
429.4831, 15.49031
429.9652, 15.42953
430.4474, 15.25659
430.9295, 15.18658
431.4116, 15.35227
431.8937, 15.47639
432.3758, 15.31558
432.8579, 14.97381
433.3400, 14.74678
433.8221, 14.83789
434.3043, 15.07205
434.7864, 15.15837
435.2685, 15.08305
435.7506, 15.02086
436.2327, 15.05749
436.7148, 15.14974
437.1970, 15.22589
437.6791, 15.28283
438.1612, 15.32935
438.6433, 15.39314
439.1254, 15.44671
439.6075, 15.41219
440.0897, 15.26190
440.5718, 15.10307
441.0539, 15.06393
441.5360, 15.14438
442.0181, 15.14616
442.5002, 14.95345
442.9824, 14.77360
443.4645, 14.76794
443.9466, 14.89306
444.4287, 14.99731
444.9108, 14.99988
445.3929, 14.94458
445.8751, 14.95205
446.3572, 15.11163
446.8393, 15.19748
447.3214, 15.14319
447.8035, 15.04641
448.2856, 14.98604
448.7678, 14.97526
449.2499, 14.98496
449.7320, 14.98278
450.2141, 14.96547
450.6962, 15.00369
451.1783, 15.17418
451.6605, 15.31804
452.1426, 15.42404
452.6247, 15.47185
453.1068, 15.41228
453.5889, 15.22341
454.0710, 14.99501
454.5532, 14.90379
455.0353, 14.99504
455.5174, 15.06360
455.9995, 15.07366
456.4816, 15.06398
456.9637, 15.03714
457.4459, 15.00324
457.9280, 14.99367
458.4101, 15.06691
458.8922, 15.17319
459.3743, 15.12559
459.8564, 14.85994
460.3386, 14.64739
460.8207, 14.62514
461.3028, 14.72688
461.7849, 14.93370
462.2670, 15.30246
462.7491, 15.54434
463.2313, 15.28871
463.7134, 14.72749
464.1955, 14.50471
464.6776, 14.82863
465.1597, 15.25418
465.6418, 15.30470
466.1240, 15.01864
466.6061, 14.80585
467.0882, 14.75836
467.5703, 14.75973
468.0524, 14.69729
468.5345, 14.60791
469.0167, 14.63711
469.4988, 14.87199
469.9809, 15.21692
470.4630, 15.45469
470.9451, 15.58271
471.4272, 15.59601
471.9094, 15.38862
472.3915, 15.14054
472.8736, 14.98087
473.3557, 14.92599
473.8378, 14.94748
474.3199, 15.03587
474.8021, 15.18150
475.2842, 15.22477
475.7663, 14.98738
476.2484, 14.86928
476.7305, 15.06357
477.2126, 15.34283
477.6948, 15.44911
478.1769, 15.31148
478.6590, 15.08370
479.1411, 14.94852
479.6232, 14.91015
480.1053, 14.91312
480.5875, 14.96889
481.0696, 15.05263
481.5517, 15.21504
482.0338, 15.38945
482.5159, 15.42392
482.9980, 15.18740
483.4802, 14.87439
483.9623, 14.77702
484.4444, 14.89589
484.9265, 15.00707
485.4086, 15.04199
485.8907, 15.03330
486.3729, 15.01721
486.8550, 14.99270
487.3371, 14.98300
487.8192, 14.99944
488.3013, 15.03303
488.7834, 15.07891
489.2656, 15.13509
489.7477, 15.18447
490.2298, 15.21159
490.7119, 15.22524
491.1940, 15.26930
491.6761, 15.38974
492.1583, 15.47427
492.6404, 15.49119
493.1225, 15.46764
493.6046, 15.43294
494.0867, 15.39316
494.5688, 15.33125
495.0509, 15.21525
495.5331, 15.03232
496.0152, 14.97136
496.4973, 15.14459
496.9794, 15.32036
497.4615, 15.48239
497.9436, 15.60161
498.4258, 15.63097
498.9079, 15.55315
499.3900, 15.43006
499.8721, 15.33815
500.3542, 15.27295
500.8363, 15.28395
501.3185, 15.48681
501.8006, 15.64244
502.2827, 15.54447
502.7648, 15.29356
503.2469, 15.16104
503.7290, 15.33333
504.2112, 15.61392
504.6933, 15.73339
505.1754, 15.69599
505.6575, 15.61551
506.1396, 15.48067
506.6217, 15.38366
507.1039, 15.51556
507.5860, 15.90429
508.0681, 16.14669
508.5502, 16.01902
509.0323, 15.77193
509.5144, 15.65600
509.9966, 15.67364
510.4787, 15.70625
510.9608, 15.67923
511.4429, 15.61097
511.9250, 15.57645
512.4072, 15.58461
512.8893, 15.61521
513.3714, 15.71766
513.8535, 15.80893
514.3356, 15.76197
514.8177, 15.60056
515.2999, 15.52125
515.7820, 15.74254
516.2641, 16.22572
516.7462, 16.44203
517.2283, 16.20019
517.7104, 15.96558
518.1926, 15.82827
518.6747, 15.76455
519.1568, 15.76963
519.6389, 15.83988
520.1210, 15.91493
520.6031, 15.95312
521.0853, 15.95070
521.5674, 15.85434
522.0495, 15.59345
522.5316, 15.39715
523.0137, 15.50308
523.4958, 15.77516
523.9780, 15.94975
524.4601, 15.93625
524.9421, 15.90134
525.4243, 15.96719
525.9064, 16.09240
526.3885, 16.18792
526.8706, 16.23295
527.3527, 16.22288
527.8348, 16.14040
528.3170, 15.97253
528.7991, 15.84852
529.2812, 15.74756
529.7633, 15.70835
530.2454, 15.81415
530.7275, 15.97619
531.2097, 16.02467
531.6918, 15.89708
532.1739, 15.72657
532.6560, 15.75469
533.1381, 16.08077
533.6202, 16.26377
534.1024, 16.19014
534.5845, 16.07726
535.0666, 15.95603
535.5487, 15.85999
536.0308, 15.84939
536.5129, 15.97062
536.9951, 16.13273
537.4772, 16.19984
537.9593, 16.17031
538.4414, 16.11408
538.9235, 16.01919
539.4056, 15.93901
539.8878, 15.93812
540.3699, 16.00142
540.8520, 16.04512
541.3341, 16.02163
541.8162, 15.98884
542.2983, 16.01608
542.7805, 16.08221
543.2626, 16.08207
543.7447, 15.95447
544.2268, 15.81665
544.7089, 15.89027
545.1910, 16.33697
545.6732, 16.56007
546.1553, 16.37560
546.6374, 16.14305
547.1195, 16.07848
547.6016, 16.13202
548.0837, 16.14645
548.5659, 16.03469
549.0480, 15.85319
549.5301, 15.71888
550.0122, 15.62073
550.4943, 15.60417
550.9764, 15.75556
551.4586, 15.92310
551.9407, 16.03495
552.4228, 16.09900
552.9049, 16.15479
553.3870, 16.22624
553.8691, 16.29578
554.3513, 16.34892
554.8334, 16.38481
555.3155, 16.34588
555.7976, 16.16332
556.2797, 15.96675
556.7618, 15.96382
557.2440, 16.14998
557.7261, 16.28530
558.2082, 16.34542
558.6903, 16.32110
559.1724, 16.12929
559.6545, 15.84126
560.1367, 15.67646
560.6188, 15.74752
561.1009, 15.92860
561.5830, 15.95525
562.0651, 15.72132
562.5472, 15.57102
563.0294, 15.50383
563.5115, 15.50706
563.9936, 15.65344
564.4757, 15.85837
564.9578, 15.93700
565.4399, 15.77576
565.9221, 15.51605
566.4042, 15.41701
566.8863, 15.49410
567.3684, 15.61540
567.8505, 15.80975
568.3326, 15.98009
568.8148, 16.06135
569.2969, 16.06207
569.7790, 16.01234
570.2611, 15.87306
570.7432, 15.73116
571.2253, 15.67845
571.7075, 15.69186
572.1896, 15.68651
572.6717, 15.63140
573.1538, 15.56391
573.6359, 15.53895
574.1180, 15.57421
574.6002, 15.55945
575.0823, 15.43629
575.5644, 15.32839
576.0465, 15.28649
576.5286, 15.29669
577.0107, 15.34615
577.4929, 15.42717
577.9750, 15.49965
578.4571, 15.50420
578.9392, 15.43624
579.4213, 15.32438
579.9034, 15.07742
580.3856, 14.90868
580.8677, 14.99838
581.3498, 15.19641
581.8319, 15.23417
582.3140, 14.98027
582.7961, 14.73774
583.2783, 14.83360
583.7604, 15.16186
584.2425, 15.39704
584.7246, 15.48358
585.2067, 15.46755
585.6888, 15.36604
586.1710, 15.18742
586.6531, 15.01675
587.1352, 14.80110
587.6173, 14.65871
588.0994, 14.67265
588.5815, 14.75143
589.0637, 14.77497
589.5458, 14.73118
590.0279, 14.72104
590.5100, 14.86158
590.9921, 15.12843
591.4742, 15.22444
591.9564, 15.05087
592.4385, 14.86906
592.9206, 14.69716
593.4027, 14.57053
593.8848, 14.53309
594.3669, 14.58458
594.8491, 14.66642
595.3312, 14.78435
595.8133, 14.89147
596.2954, 14.85834
596.7775, 14.67818
597.2596, 14.53378
597.7418, 14.50967
598.2239, 14.57240
598.7060, 14.67345
599.1881, 14.83329
599.6702, 14.94592
600.1523, 14.96079
600.6345, 14.95203
601.1166, 14.99720
601.5987, 15.06691
602.0808, 15.05658
602.5629, 14.90640
603.0450, 14.69901
603.5272, 14.62217
604.0093, 14.74063
604.4914, 14.79248
604.9735, 14.68506
605.4556, 14.58689
605.9377, 14.56884
606.4199, 14.61418
606.9020, 14.68897
607.3841, 14.79380
607.8662, 14.88833
608.3483, 14.95677
608.8304, 14.98411
609.3126, 14.86873
609.7947, 14.55802
610.2768, 14.25898
610.7589, 14.15624
611.2410, 14.23957
611.7231, 14.33005
612.2053, 14.50089
612.6874, 14.58933
613.1695, 14.48070
613.6516, 14.30006
614.1337, 14.17613
614.6158, 14.13774
615.0980, 14.16210
615.5801, 14.23796
616.0622, 14.35626
616.5443, 14.45958
617.0264, 14.56660
617.5085, 14.61767
617.9907, 14.51267
618.4728, 14.40834
618.9549, 14.47542
619.4370, 14.69610
619.9191, 14.82365
620.4012, 14.64039
620.8834, 14.34028
621.3655, 14.18530
621.8476, 14.16478
622.3297, 14.18623
622.8118, 14.22152
623.2939, 14.26220
623.7761, 14.29486
624.2582, 14.31536
624.7403, 14.34547
625.2224, 14.40008
625.7045, 14.44849
626.1866, 14.46572
626.6688, 14.47132
627.1509, 14.50527
627.6330, 14.57846
628.1151, 14.64647
628.5972, 14.65448
629.0793, 14.60259
629.5615, 14.50633
630.0436, 14.32880
630.5257, 14.18216
631.0078, 14.12954
631.4899, 14.13616
631.9720, 14.17519
632.4542, 14.25198
632.9363, 14.31315
633.4184, 14.31551
633.9005, 14.29681
634.3826, 14.33005
634.8647, 14.40270
635.3469, 14.38865
635.8290, 14.19442
636.3111, 13.93714
636.7932, 13.92165
637.2753, 14.33194
637.7574, 14.60764
638.2396, 14.71900
638.7217, 14.74389
639.2038, 14.68326
639.6859, 14.57171
640.1680, 14.45097
640.6501, 14.33078
641.1323, 14.25748
641.6144, 14.33692
642.0965, 14.53965
642.5786, 14.61841
643.0607, 14.50324
643.5428, 14.39955
644.0250, 14.49317
644.5071, 14.70801
644.9892, 14.76565
645.4713, 14.57698
645.9534, 14.39037
646.4355, 14.21422
646.9177, 14.11475
647.3998, 14.20860
647.8819, 14.45838
648.3640, 14.69373
648.8461, 14.80352
649.3282, 14.81264
649.8103, 14.77909
650.2924, 14.67459
650.7745, 14.61891
651.2567, 14.68097
651.7388, 14.74007
652.2209, 14.72406
652.7030, 14.65293
653.1851, 14.57796
653.6672, 14.50058
654.1494, 14.45183
654.6315, 14.47807
655.1136, 14.55006
655.5957, 14.58584
656.0778, 14.57060
656.5599, 14.59115
657.0421, 14.74395
657.5242, 14.99142
658.0063, 15.06507
658.4884, 14.77225
658.9705, 14.55675
659.4526, 14.45809
659.9348, 14.43134
660.4169, 14.47243
660.8990, 14.55644
661.3811, 14.62404
661.8632, 14.63366
662.3453, 14.62154
662.8275, 14.64741
663.3096, 14.71051
663.7917, 14.79624
664.2738, 14.91437
664.7559, 15.02475
665.2380, 15.10654
665.7202, 15.15174
666.2023, 15.12302
666.6844, 14.88734
667.1665, 14.74056
667.6486, 14.87051
668.1307, 15.08136
668.6129, 15.16125
669.0950, 15.08910
669.5771, 14.94582
670.0592, 14.77144
670.5413, 14.61295
671.0234, 14.65502
671.5056, 14.97696
671.9877, 15.20635
672.4698, 15.22375
672.9519, 15.18711
673.4340, 15.21009
673.9161, 15.27517
674.3983, 15.32080
674.8804, 15.31172
675.3625, 15.30566
675.8446, 15.35950
676.3267, 15.43742
676.8088, 15.45400
677.2910, 15.40255
677.7731, 15.38782
678.2552, 15.50441
678.7373, 15.72388
679.2194, 15.89026
679.7015, 15.99586
680.1837, 16.05963
680.6658, 16.03383
681.1479, 16.01432
681.6300, 16.07965
682.1121, 16.20273
682.5942, 16.29421
683.0764, 16.30785
683.5585, 16.28870
684.0406, 16.27272
684.5227, 16.26332
685.0048, 16.27419
685.4869, 16.30830
685.9691, 16.34972
686.4512, 16.37341
686.9333, 16.39567
687.4154, 16.51402
687.8975, 16.81860
688.3796, 17.09663
688.8618, 17.35320
689.3439, 17.56793
689.8260, 17.70556
690.3081, 17.78815
690.7902, 17.86888
691.2723, 17.97009
691.7545, 18.09968
692.2366, 18.26291
692.7187, 18.46201
693.2008, 18.74030
693.6829, 19.13249
694.1650, 19.47380
694.6472, 19.58799
695.1293, 19.56469
695.6114, 19.77445
696.0935, 20.31647
696.5756, 20.88957
697.0577, 21.45056
697.5399, 22.02444
698.0220, 22.66209
698.5041, 23.32709
698.9862, 23.89822
699.4683, 24.30315
699.9504, 24.69916
700.4326, 25.38095
700.9147, 26.34592
701.3968, 27.18562
701.8789, 27.80764
702.3610, 28.46140
702.8431, 29.29448
703.3253, 30.26295
703.8074, 31.24713
704.2895, 32.22751
704.7716, 33.27865
705.2537, 34.47300
705.7358, 35.70412
706.2180, 36.89264
706.7001, 38.04793
707.1822, 39.18699
707.6643, 40.32435
708.1464, 41.44923
708.6285, 42.54836
709.1107, 43.61926
709.5928, 44.66887
710.0749, 45.68428
710.5570, 46.70725
711.0391, 47.69857
711.5212, 48.74065
712.0034, 50.00413
712.4855, 51.53074
712.9676, 52.90184
713.4497, 53.93070
713.9318, 54.79762
714.4139, 55.67682
714.8961, 56.50747
715.3782, 57.05559
715.8603, 57.25917
716.3424, 57.48452
716.8245, 58.26824
717.3066, 59.59319
717.7888, 60.31244
718.2709, 60.22284
718.7530, 59.97774
719.2351, 59.81443
719.7172, 59.55179
720.1993, 59.07275
720.6815, 58.36280
721.1636, 57.33216
721.6457, 55.78904
722.1278, 54.07284
722.6099, 52.38044
723.0920, 50.71202
723.5742, 49.08647
724.0563, 47.50114
724.5384, 45.84981
725.0205, 44.01400
725.5026, 42.02950
725.9847, 40.11245
726.4669, 38.23933
726.9490, 36.48157
727.4311, 34.88015
727.9132, 33.35947
728.3953, 31.82440
728.8774, 30.31907
729.3596, 28.96313
729.8417, 27.76474
730.3238, 26.75969
730.8059, 26.09839
731.2880, 25.58061
731.7701, 24.88593
732.2523, 24.01126
732.7344, 23.21044
733.2165, 22.66744
733.6986, 22.25454
734.1807, 21.60194
734.6628, 20.59345
735.1450, 19.80618
735.6271, 19.31729
736.1092, 19.00975
736.5913, 18.98408
737.0734, 19.03450
737.5555, 18.78922
738.0377, 18.11766
738.5198, 17.50431
739.0019, 17.25550
739.4840, 17.12279
739.9661, 16.82540
740.4482, 16.40676
740.9304, 16.04956
741.4125, 15.83315
741.8946, 15.72603
742.3767, 15.70020
742.8588, 15.76137
743.3409, 15.78840
743.8231, 15.80729
744.3052, 15.73863
744.7873, 15.44687
745.2694, 15.12594
745.7515, 14.98015
746.2336, 15.00904
746.7158, 15.02262
747.1979, 14.93647
747.6800, 14.84317
748.1621, 14.84328
748.6442, 14.86668
749.1263, 14.76269
749.6085, 14.51976
750.0906, 14.29743
750.5727, 14.24125
751.0548, 14.30588
751.5369, 14.30060
752.0190, 14.19292
752.5012, 14.16698
752.9833, 14.32934
753.4654, 14.48241
753.9475, 14.45249
754.4296, 14.29900
754.9117, 14.16650
755.3939, 14.06025
755.8760, 13.99890
756.3581, 13.99919
756.8402, 14.03999
757.3223, 14.14573
757.8044, 14.27405
758.2866, 14.29389
758.7687, 14.13717
759.2508, 13.94731
759.7329, 13.99340
760.2150, 14.26613
760.6971, 14.32547
761.1793, 14.09528
761.6614, 13.86179
762.1435, 13.73650
762.6256, 13.69557
763.1077, 13.72099
763.5898, 13.82228
764.0720, 13.88945
764.5541, 13.87895
765.0362, 13.86525
765.5183, 13.87754
766.0004, 13.91117
766.4825, 13.98153
766.9647, 14.07527
767.4468, 14.11540
767.9289, 14.01653
768.4110, 13.84758
768.8931, 13.77397
769.3752, 13.79274
769.8574, 13.80365
770.3395, 13.78393
770.8216, 13.75213
771.3037, 13.70656
771.7858, 13.66118
772.2679, 13.70079
772.7500, 13.93332
773.2321, 14.09058
773.7142, 14.13582
774.1964, 14.12030
774.6785, 14.06294
775.1606, 13.97251
775.6427, 13.83879
776.1248, 13.65147
776.6069, 13.51098
777.0891, 13.55144
777.5712, 13.69750
778.0533, 13.80065
778.5354, 13.84880
779.0175, 13.80014
779.4996, 13.61730
779.9818, 13.42361
780.4639, 13.40267
780.9460, 13.57222
781.4281, 13.74557
781.9102, 13.96282
782.3923, 14.12743
782.8745, 14.20143
783.3566, 14.23235
783.8387, 14.24215
784.3208, 14.24302
784.8029, 14.27537
785.2850, 14.41519
785.7672, 14.50837
786.2493, 14.36534
786.7314, 14.11510
787.2135, 13.97789
787.6956, 13.98030
788.1777, 14.05159
788.6599, 14.15141
789.1420, 14.26047
789.6241, 14.33496
790.1062, 14.37238
790.5883, 14.38575
791.0704, 14.36064
791.5526, 14.33802
792.0347, 14.35382
792.5168, 14.37558
792.9989, 14.35338
793.4810, 14.28009
793.9631, 14.20864
794.4453, 14.14104
794.9274, 14.09088
795.4095, 14.07124
795.8916, 14.07266
796.3737, 14.07668
796.8558, 14.08223
797.3380, 14.11489
797.8201, 14.21567
798.3022, 14.33044
798.7843, 14.29173
799.2664, 14.10634
799.7485, 14.04313
800.2307, 14.18544
800.7128, 14.32643
801.1949, 14.29418
801.6770, 14.14284
802.1591, 14.08198
802.6412, 14.15837
803.1234, 14.24801
803.6055, 14.38727
804.0876, 14.50095
804.5697, 14.57821
805.0518, 14.59516
805.5339, 14.46430
806.0161, 14.17114
806.4982, 13.98826
806.9803, 14.21103
807.4624, 14.59088
807.9445, 14.80997
808.4266, 14.87869
808.9088, 14.83227
809.3909, 14.68469
809.8730, 14.55493
810.3551, 14.57151
810.8372, 14.69965
811.3193, 14.71334
811.8015, 14.55788
812.2836, 14.44332
812.7657, 14.37778
813.2478, 14.38615
813.7299, 14.56410
814.2120, 14.80942
814.6942, 14.88868
815.1763, 14.71843
815.6584, 14.55674
816.1405, 14.45864
816.6226, 14.42898
817.1047, 14.50538
817.5869, 14.64488
818.0690, 14.79645
818.5511, 14.93263
819.0332, 14.97662
819.5153, 14.79606
819.9974, 14.48878
820.4796, 14.36864
820.9617, 14.43158
821.4438, 14.49222
821.9259, 14.50768
822.4080, 14.48547
822.8901, 14.41475
823.3723, 14.31332
823.8544, 14.29439
824.3365, 14.40222
824.8186, 14.52424
825.3007, 14.70910
825.7828, 14.85391
826.2650, 14.87134
826.7471, 14.82475
827.2292, 14.81795
827.7113, 14.87574
828.1934, 14.96652
828.6755, 15.14789
829.1577, 15.29306
829.6398, 15.21475
830.1219, 14.99316
830.6040, 14.83101
831.0861, 14.78612
831.5682, 14.80345
832.0504, 14.84375
832.5325, 14.89034
833.0146, 14.86080
833.4967, 14.73682
833.9788, 14.69131
834.4609, 14.79010
834.9431, 14.88402
835.4252, 14.84632
835.9073, 14.73245
836.3894, 14.72013
836.8715, 14.86985
837.3536, 14.95335
837.8358, 14.93717
838.3179, 14.86723
838.8000, 14.71722
839.2821, 14.55178
839.7642, 14.43423
840.2463, 14.38437
840.7285, 14.42528
841.2106, 14.64964
841.6927, 14.89778
842.1748, 14.96898
842.6569, 14.90658
843.1390, 14.79901
843.6212, 14.67284
844.1033, 14.59923
844.5854, 14.63512
845.0675, 14.73194
845.5496, 14.75857
846.0317, 14.69450
846.5139, 14.68605
846.9960, 14.75413
847.4781, 14.84780
847.9602, 14.99137
848.4423, 15.11450
848.9244, 15.09778
849.4066, 14.93369
849.8887, 14.78726
850.3708, 14.64040
850.8529, 14.55906
851.3350, 14.59979
851.8171, 14.69356
852.2993, 14.79482
852.7814, 14.88451
853.2635, 14.93222
853.7456, 14.91211
854.2277, 14.88751
854.7098, 14.97186
855.1920, 15.08582
855.6741, 15.02452
856.1562, 14.80085
856.6383, 14.59704
857.1204, 14.49009
857.6025, 14.46523
858.0847, 14.51389
858.5668, 14.63298
859.0489, 14.72463
859.5310, 14.78004
860.0131, 14.83463
860.4952, 14.89390
860.9774, 14.95822
861.4595, 15.05183
861.9416, 15.15293
862.4237, 15.17161
862.9058, 15.02836
863.3879, 14.94828
863.8701, 15.04956
864.3522, 15.14786
864.8343, 15.11512
865.3164, 15.00268
865.7985, 14.87592
866.2806, 14.76173
866.7628, 14.73736
867.2449, 14.96061
867.7270, 15.23206
868.2091, 15.23600
868.6912, 15.07261
869.1733, 15.01087
869.6555, 15.10388
870.1376, 15.31375
870.6197, 15.64316
871.1018, 15.95023
871.5839, 15.81724
872.0660, 15.16916
872.5482, 14.80760
873.0303, 14.87245
873.5124, 14.92266
873.9945, 14.73562
874.4766, 14.46248
874.9587, 14.34367
875.4409, 14.40385
875.9230, 14.32977
876.4051, 13.96998
876.8872, 13.67700
877.3693, 13.54603
877.8514, 13.49949
878.3336, 13.52356
878.8157, 13.57389
879.2978, 13.54069
879.7799, 13.35747
880.2620, 13.23085
880.7441, 13.38933
881.2263, 13.62354
881.7084, 13.69955
882.1905, 13.62911
882.6726, 13.44812
883.1547, 13.18584
883.6368, 12.97283
884.1190, 12.93474
884.6011, 13.03545
885.0832, 13.23071
885.5653, 13.51743
886.0474, 13.54326
886.5295, 13.20065
887.0117, 12.87102
887.4938, 12.81008
887.9759, 12.90062
888.4580, 12.87596
888.9401, 12.69022
889.4222, 12.56660
889.9044, 12.52504
890.3865, 12.52255
890.8686, 12.57749
891.3507, 12.64358
891.8328, 12.68997
892.3149, 12.71192
892.7971, 12.69947
893.2792, 12.63460
893.7613, 12.56167
894.2434, 12.45884
894.7255, 12.38974
895.2076, 12.48389
895.6897, 12.64415
896.1718, 12.63049
896.6539, 12.37422
897.1360, 12.09120
897.6182, 11.98159
898.1003, 11.97649
898.5824, 11.96981
899.0645, 11.95752
899.5466, 11.91637
900.0287, 11.84343
900.5109, 11.76959
900.9930, 11.71183
901.4751, 11.68839
901.9572, 11.78994
902.4393, 12.06395
902.9214, 12.04445
903.4036, 11.56795
903.8857, 11.24832
904.3678, 11.41020
904.8499, 11.74289
905.3320, 11.86968
905.8141, 11.79002
906.2963, 11.75015
906.7784, 11.81358
907.2605, 11.82460
907.7426, 11.69736
908.2247, 11.57771
908.7068, 11.59634
909.1890, 11.67698
909.6711, 11.65267
910.1532, 11.47712
910.6353, 11.33632
911.1174, 11.33946
911.5995, 11.39544
912.0817, 11.49315
912.5638, 11.56391
913.0459, 11.46431
913.5280, 11.21271
914.0101, 10.99108
914.4922, 10.90886
914.9744, 10.92069
915.4565, 11.00148
915.9386, 11.11896
916.4207, 11.14945
916.9028, 11.09522
917.3849, 11.08803
917.8671, 11.18350
918.3492, 11.28744
918.8313, 11.29118
919.3134, 11.20571
919.7955, 11.09669
920.2776, 10.94050
920.7598, 10.86792
921.2419, 10.91773
921.7240, 11.01717
922.2061, 11.16685
922.6882, 11.31060
923.1703, 11.31018
923.6525, 11.09748
924.1346, 11.00106
924.6167, 11.10347
925.0988, 11.21494
925.5809, 11.34501
926.0630, 11.41562
926.5452, 11.31522
927.0273, 11.09545
927.5094, 10.93048
927.9915, 10.86385
928.4736, 10.86963
928.9557, 10.97578
929.4379, 11.11253
929.9200, 11.27340
930.4021, 11.39902
930.8842, 11.34782
931.3663, 11.12196
931.8484, 10.94889
932.3306, 11.02324
932.8127, 11.18296
933.2948, 11.20066
933.7769, 11.12290
934.2590, 11.07785
934.7411, 11.06988
935.2233, 11.00026
935.7054, 10.81974
936.1875, 10.64024
936.6696, 10.62951
937.1517, 10.75721
937.6339, 10.78513
938.1160, 10.69600
938.5981, 10.70488
939.0802, 10.89337
939.5623, 11.04986
940.0444, 11.01253
940.5266, 10.84472
941.0087, 10.70104
941.4908, 10.54806
941.9729, 10.54769
942.4550, 10.84841
942.9371, 11.07767
943.4193, 11.10042
943.9014, 11.02639
944.3835, 10.90596
944.8656, 10.76065
945.3477, 10.68632
945.8298, 10.74234
946.3120, 10.78020
946.7941, 10.72386
947.2762, 10.68772
947.7583, 10.79852
948.2404, 10.94294
948.7225, 10.93538
949.2047, 10.76341
949.6868, 10.60184
950.1689, 10.51014
950.6510, 10.49700
951.1331, 10.65075
951.6152, 10.83330
952.0974, 10.82866
952.5795, 10.69023
953.0616, 10.63926
953.5437, 10.75531
954.0258, 10.88358
954.5079, 10.83682
954.9901, 10.72012
955.4722, 10.78153
955.9543, 10.95938
956.4364, 11.00105
956.9185, 10.87289
957.4006, 10.73524
957.8828, 10.68475
958.3649, 10.68484
958.8470, 10.68071
959.3291, 10.67139
959.8112, 10.61637
960.2933, 10.50163
960.7755, 10.47533
961.2576, 10.60524
961.7397, 10.73051
962.2218, 10.70117
962.7039, 10.57272
963.1860, 10.54905
963.6682, 10.68540
964.1503, 10.76350
964.6324, 10.79616
965.1145, 10.74283
965.5966, 10.46653
966.0787, 10.20219
966.5609, 10.25709
967.0430, 10.57606
967.5251, 10.78307
968.0072, 10.78336
968.4893, 10.79580
968.9714, 10.90329
969.4536, 10.96095
969.9357, 10.82818
970.4178, 10.63694
970.8999, 10.59795
971.3820, 10.71605
971.8641, 10.74953
972.3463, 10.49453
972.8284, 10.29143
973.3105, 10.34011
973.7926, 10.48295
974.2747, 10.61657
974.7568, 10.71239
975.2390, 10.72229
975.7211, 10.64183
976.2032, 10.60499
976.6853, 10.76742
977.1674, 10.96098
977.6495, 11.03041
978.1317, 10.99197
978.6138, 10.80264
979.0959, 10.52490
979.5780, 10.39335
980.0601, 10.51500
980.5422, 10.71175
981.0244, 10.78423
981.5065, 10.77697
981.9886, 10.80489
982.4707, 10.85485
982.9528, 10.85981
983.4349, 10.80960
983.9171, 10.74194
984.3992, 10.67516
984.8813, 10.64133
985.3634, 10.71404
985.8455, 10.88377
986.3276, 11.02487
986.8098, 11.14125
987.2919, 11.13991
987.7740, 10.96647
988.2561, 10.82215
988.7382, 10.84922
989.2203, 11.04827
989.7025, 11.49214
990.1846, 12.34051
990.6667, 12.56854
991.1488, 11.90431
991.6309, 11.32381
992.1130, 11.15233
992.5952, 11.12700
993.0773, 11.00684
993.5594, 10.82925
994.0415, 10.76561
994.5236, 10.87979
995.0057, 10.97516
995.4879, 11.01758
995.9700, 11.08467
996.4521, 11.28166
996.9342, 11.45306
997.4163, 11.37179
997.8984, 11.10464
998.3806, 11.05577
998.8627, 11.49038
999.3448, 11.72401
999.8269, 11.46254
1000.309, 11.17743
1000.791, 11.08472
1001.273, 11.12106
1001.755, 11.21263
1002.237, 11.34550
1002.720, 11.50781
1003.202, 11.70040
1003.684, 11.91428
1004.166, 12.28908
1004.648, 12.54413
1005.130, 12.20756
1005.612, 11.71366
1006.094, 11.92402
1006.577, 12.85076
1007.059, 13.43229
1007.541, 12.92863
1008.023, 12.25402
1008.505, 12.06819
1008.987, 12.12701
1009.469, 12.22327
1009.951, 12.29687
1010.433, 12.25107
1010.916, 12.08336
1011.398, 11.96629
1011.880, 12.03816
1012.362, 12.19407
1012.844, 12.33232
1013.326, 12.45228
1013.808, 12.54218
1014.290, 12.61167
1014.773, 12.70073
1015.255, 12.81923
1015.737, 12.92432
1016.219, 12.97762
1016.701, 12.99121
1017.183, 12.94080
1017.665, 12.87445
1018.147, 13.01114
1018.629, 13.32536
1019.112, 13.47175
1019.594, 13.31598
1020.076, 13.15282
1020.558, 13.32280
1021.040, 13.68020
1021.522, 13.77872
1022.004, 13.65104
1022.486, 13.59925
1022.968, 13.65550
1023.451, 13.71646
1023.933, 13.73270
1024.415, 13.78064
1024.897, 13.97100
1025.379, 14.25329
1025.861, 14.35087
1026.343, 14.24841
1026.825, 14.24260
1027.307, 14.35134
1027.790, 14.72166
1028.272, 15.52509
1028.754, 16.23941
1029.236, 16.13251
1029.718, 15.34029
1030.200, 14.92989
1030.682, 14.97806
1031.164, 15.05376
1031.647, 15.11772
1032.129, 15.20336
1032.611, 15.33975
1033.093, 15.48075
1033.575, 15.55562
1034.057, 15.57373
1034.539, 15.67728
1035.021, 15.91706
1035.504, 16.10246
1035.986, 16.18612
1036.468, 16.27976
1036.950, 16.46231
1037.432, 16.64885
1037.914, 16.72389
1038.396, 16.69230
1038.878, 16.65576
1039.360, 16.56681
1039.843, 16.56963
1040.325, 16.78831
1040.807, 16.93422
1041.289, 16.75408
1041.771, 16.53361
1042.253, 16.66555
1042.735, 17.12842
1043.217, 17.48120
1043.699, 17.67962
1044.182, 17.84121
1044.664, 17.96218
1045.146, 18.05701
1045.628, 18.16115
1046.110, 18.22191
1046.592, 18.09241
1047.074, 17.81821
1047.556, 17.82751
1048.039, 18.48945
1048.521, 18.88083
1049.003, 18.66351
1049.485, 18.45100
1049.967, 18.51418
1050.449, 18.72368
1050.931, 18.96184
1051.413, 19.21035
1051.896, 19.42373
1052.378, 19.56808
1052.860, 19.72996
1053.342, 19.89155
1053.824, 20.11278
1054.306, 20.48230
1054.788, 20.88022
1055.270, 21.14394
1055.752, 21.30985
1056.234, 21.59402
1056.717, 22.09913
1057.199, 22.56644
1057.681, 22.79715
1058.163, 23.12820
1058.645, 23.87968
1059.127, 24.70576
1059.609, 25.18907
1060.091, 25.40544
1060.574, 25.71652
1061.056, 26.20319
1061.538, 26.80148
1062.020, 27.56605
1062.502, 28.34919
1062.984, 29.09783
1063.466, 29.81336
1063.948, 30.42844
1064.431, 31.02337
1064.913, 31.81961
1065.395, 32.88482
1065.877, 34.04158
1066.359, 35.25242
1066.841, 36.48985
1067.323, 37.66544
1067.805, 38.91924
1068.287, 40.44573
1068.770, 42.16011
1069.252, 43.75431
1069.734, 45.12903
1070.216, 46.88143
1070.698, 49.39571
1071.180, 52.19161
1071.662, 54.70498
1072.144, 57.67527
1072.626, 61.79638
1073.109, 66.92756
1073.591, 72.50605
1074.073, 78.42590
1074.555, 85.72715
1075.037, 94.78851
1075.519, 105.4691
1076.001, 117.7084
1076.483, 131.4913
1076.966, 147.0785
1077.448, 164.0521
1077.930, 182.0610
1078.412, 200.9032
1078.894, 219.9511
1079.376, 239.4346
1079.858, 258.2866
1080.340, 275.8101
1080.822, 292.6848
1081.305, 308.9694
1081.787, 325.2094
1082.269, 341.9628
1082.751, 359.4610
1083.233, 378.2904
1083.715, 398.7447
1084.197, 420.2005
1084.679, 442.3018
1085.161, 465.2591
1085.644, 489.8435
1086.126, 514.7952
1086.608, 538.9728
1087.090, 562.1444
1087.572, 584.3741
1088.054, 606.2471
1088.536, 625.0739
1089.018, 641.5829
1089.500, 652.6377
1089.983, 658.0475
1090.465, 655.6068
1090.947, 642.7476
1091.429, 620.1353
1091.911, 589.5782
1092.393, 551.1017
1092.875, 507.9052
1093.357, 457.7854
1093.840, 407.4349
1094.322, 357.6363
1094.804, 310.5965
1095.286, 267.3910
1095.768, 228.4886
1096.250, 194.6524
1096.732, 165.7528
1097.214, 141.0136
1097.697, 120.7569
1098.179, 103.7477
1098.661, 90.19727
1099.143, 78.94779
1099.625, 69.72717
1100.107, 62.05318
1100.589, 55.51721
1101.071, 50.00632
1101.553, 45.18209
1102.036, 41.00068
1102.518, 37.50155
1103.000, 35.02108
1103.482, 32.87648
1103.964, 30.74561
1104.446, 28.73008
1104.928, 26.90384
1105.410, 25.30366
1105.892, 24.04721
1106.375, 23.27658
1106.857, 22.48575
1107.339, 21.53204
1107.821, 20.60676
1108.303, 19.79420
1108.785, 19.02713
1109.267, 18.16574
1109.749, 17.32267
1110.232, 16.84045
1110.714, 16.84759
1111.196, 16.65235
1111.678, 16.01440
1112.160, 15.41483
1112.642, 14.94166
1113.124, 14.55035
1113.606, 14.24717
1114.089, 13.99288
1114.571, 13.73544
1115.053, 13.47566
1115.535, 13.16824
1116.017, 12.73357
1116.499, 12.37817
1116.981, 12.10888
1117.463, 11.92737
1117.945, 11.87652
1118.427, 11.87561
1118.910, 11.85022
1119.392, 11.79876
1119.874, 11.71475
1120.356, 11.62241
1120.838, 11.42012
1121.320, 10.94406
1121.802, 10.70557
1122.284, 11.01887
1122.767, 11.32770
1123.249, 11.17137
1123.731, 10.72098
1124.213, 10.39014
1124.695, 10.19035
1125.177, 10.00199
1125.659, 9.794966
1126.141, 9.725909
1126.624, 9.891943
1127.106, 9.984406
1127.588, 9.809123
1128.070, 9.512590
1128.552, 9.278086
1129.034, 9.121492
1129.516, 9.247862
1129.998, 9.728164
1130.480, 9.860782
1130.963, 9.535113
1131.445, 9.219666
1131.927, 9.087523
1132.409, 9.049449
1132.891, 9.031916
1133.373, 9.018250
1133.855, 8.942786
1134.337, 8.813814
1134.819, 8.811365
1135.302, 8.934697
1135.784, 8.973799
1136.266, 8.879908
1136.748, 8.733520
1137.230, 8.578308
1137.712, 8.456656
1138.194, 8.445085
1138.676, 8.512240
1139.159, 8.541387
1139.641, 8.549225
1140.123, 8.634730
1140.605, 8.791551
1141.087, 8.909136
1141.569, 8.940730
1142.051, 8.856433
1142.533, 8.580790
1143.016, 8.284876
1143.498, 8.263732
1143.980, 8.420592
1144.462, 8.616362
1144.944, 8.791565
1145.426, 8.805500
1145.908, 8.652250
1146.390, 8.466634
1146.872, 8.316148
1147.354, 8.224819
1147.837, 8.261947
1148.319, 8.328957
1148.801, 8.316909
1149.283, 8.251046
1149.765, 8.163845
1150.247, 8.066059
1150.729, 7.944955
1151.211, 7.802165
1151.694, 7.754467
1152.176, 7.995114
1152.658, 8.181429
1153.140, 8.016436
1153.622, 7.773574
1154.104, 7.639045
1154.586, 7.630412
1155.068, 7.818979
1155.551, 8.145241
1156.033, 8.306326
1156.515, 8.155927
1156.997, 7.999351
1157.479, 7.918261
1157.961, 7.876374
1158.443, 7.850486
1158.925, 7.862168
1159.407, 7.995438
1159.890, 8.163392
1160.372, 8.141994
1160.854, 7.882086
1161.336, 7.725219
1161.818, 7.777955
1162.300, 7.815126
1162.782, 7.788553
1163.264, 7.769590
1163.746, 7.814184
1164.229, 7.856652
1164.711, 7.799089
1165.193, 7.672433
1165.675, 7.654058
1166.157, 7.787555
1166.639, 7.889418
1167.121, 7.955877
1167.603, 7.997671
1168.086, 8.005824
1168.568, 8.028304
1169.050, 8.109415
1169.532, 8.193815
1170.014, 8.168805
1170.496, 8.053687
1170.978, 8.085827
1171.460, 8.271163
1171.943, 8.281312
1172.425, 8.075900
1172.907, 7.934304
1173.389, 7.967164
1173.871, 8.012487
1174.353, 7.912146
1174.835, 7.770576
1175.317, 7.843890
1175.799, 8.045689
1176.281, 8.055141
1176.764, 7.918455
1177.246, 7.841763
1177.728, 7.862598
1178.210, 7.946225
1178.692, 8.074569
1179.174, 8.167457
1179.656, 8.136391
1180.138, 8.037897
1180.621, 7.878258
1181.103, 7.742909
1181.585, 7.783685
1182.067, 7.944211
1182.549, 8.109529
1183.031, 8.237420
1183.513, 8.269720
1183.995, 8.146177
1184.478, 8.045072
1184.960, 8.084313
1185.442, 8.164321
1185.924, 8.259307
1186.406, 8.327344
1186.888, 8.321300
1187.370, 8.258492
1187.852, 8.175348
1188.334, 8.076868
1188.817, 7.994154
1189.299, 7.949809
1189.781, 7.897649
1190.263, 7.800744
1190.745, 7.730198
1191.227, 7.693059
1191.709, 7.721380
1192.191, 7.894914
1192.673, 8.150152
1193.156, 8.261516
1193.638, 8.205951
1194.120, 8.113413
1194.602, 7.954522
1195.084, 7.857004
1195.566, 7.856593
1196.048, 7.877769
1196.530, 7.887438
1197.013, 7.871625
1197.495, 7.794144
1197.977, 7.700846
1198.459, 7.826559
1198.941, 8.141084
1199.423, 8.176360
1199.905, 7.936074
1200.387, 7.731652
1200.870, 7.647133
1201.352, 7.677693
1201.834, 7.825772
1202.316, 7.982560
1202.798, 8.029340
1203.280, 7.979864
1203.762, 7.780549
1204.244, 7.545264
1204.726, 7.529532
1205.208, 7.672494
1205.691, 7.724330
1206.173, 7.646890
1206.655, 7.650471
1207.137, 7.878997
1207.619, 8.091170
1208.101, 8.155642
1208.583, 8.105647
1209.065, 7.836679
1209.547, 7.574011
1210.030, 7.579766
1210.512, 7.778416
1210.994, 7.990786
1211.476, 8.187882
1211.958, 8.292695
1212.440, 8.258012
1212.922, 8.178550
1213.404, 8.010966
1213.887, 7.874372
1214.369, 7.826282
1214.851, 7.808363
1215.333, 7.749134
1215.815, 7.698370
1216.297, 7.805537
1216.779, 8.093762
1217.261, 8.189198
1217.744, 8.047032
1218.226, 7.945698
1218.708, 7.919913
1219.190, 7.967129
1219.672, 8.099483
1220.154, 8.183299
1220.636, 8.077871
1221.118, 7.879327
1221.600, 7.796465
1222.083, 7.797542
1222.565, 7.749322
1223.047, 7.675112
1223.529, 7.668155
1224.011, 7.740364
1224.493, 7.901802
1224.975, 8.142437
1225.457, 8.270070
1225.939, 8.076858
1226.422, 7.825154
1226.904, 7.744169
1227.386, 7.757050
1227.868, 7.837582
1228.350, 7.924079
1228.832, 7.931258
1229.314, 7.870152
1229.796, 7.792803
1230.279, 7.701303
1230.761, 7.699812
1231.243, 7.922868
1231.725, 8.084365
1232.207, 8.054804
1232.689, 8.014113
1233.171, 8.066811
1233.653, 8.145138
1234.135, 8.173939
1234.618, 8.174398
1235.100, 8.229795
1235.582, 8.361609
1236.064, 8.386594
1236.546, 8.270105
1237.028, 8.246348
1237.510, 8.372025
1237.992, 8.442338
1238.474, 8.358127
1238.957, 8.233540
1239.439, 8.178554
1239.921, 8.187444
1240.403, 8.264153
1240.885, 8.390407
1241.367, 8.550538
1241.849, 8.702313
1242.331, 8.693640
1242.814, 8.543927
1243.296, 8.409619
1243.778, 8.354265
1244.260, 8.388941
1244.742, 8.576511
1245.224, 8.756271
1245.706, 8.835334
1246.188, 8.826046
1246.671, 8.663217
1247.153, 8.475042
1247.635, 8.425646
1248.117, 8.484906
1248.599, 8.523428
1249.081, 8.516758
1249.563, 8.547141
1250.045, 8.682070
1250.527, 8.757101
1251.010, 8.716528
1251.492, 8.686691
1251.974, 8.705874
1252.456, 8.773555
1252.938, 8.907655
1253.420, 9.060428
1253.902, 9.122057
1254.384, 9.097215
1254.866, 9.045517
1255.349, 8.970640
1255.831, 8.944216
1256.313, 8.972988
1256.795, 9.037642
1257.277, 9.130084
1257.759, 9.248907
1258.241, 9.399460
1258.723, 9.534558
1259.206, 9.617347
1259.688, 9.633276
1260.170, 9.473954
1260.652, 9.299332
1261.134, 9.374063
1261.616, 9.609686
1262.098, 9.785112
1262.580, 9.857920
1263.063, 9.887022
1263.545, 9.875630
1264.027, 9.859938
1264.509, 9.856783
1264.991, 9.840672
1265.473, 9.809095
1265.955, 9.751073
1266.437, 9.606779
1266.919, 9.488875
1267.401, 9.579912
1267.884, 9.834979
1268.366, 9.977134
1268.848, 9.996397
1269.330, 9.971591
1269.812, 9.899654
1270.294, 9.946165
1270.776, 10.14195
1271.258, 10.28441
1271.741, 10.27163
1272.223, 10.18503
1272.705, 10.08589
1273.187, 10.01037
1273.669, 10.02918
1274.151, 10.09561
1274.633, 10.19163
1275.115, 10.25042
1275.598, 10.09144
1276.080, 9.801840
1276.562, 9.701188
1277.044, 9.872329
1277.526, 10.00820
1278.008, 9.982618
1278.490, 9.927546
##END=



