##NAMES=Ankinovichite
##RRUFFID=R060671
##IDEAL CHEMISTRY=Ni^2+^Al_4_(V^5+^O_3_)_2_(OH)_12_&#183;2H_2_O
##LOCALITY=Kara-Chagyr Mountain, Fergana, Fergana Valley, Osh Oblast, Kyrgyzstan
##OWNER=RRUFF
##SOURCE=Michael Scott
##DESCRIPTION=Aggregates of pale green thin pseudohexagonal plates
##STATUS=The identification of this mineral has been confirmed only by single crystal X-ray diffraction.
##URL=rruff.info/R060671
134.540, 16703.080
135.022, 17141.039
135.504, 17610.699
135.986, 18068.670
136.469, 18509.779
136.951, 18960.529
137.433, 19437.689
137.915, 19939.561
138.397, 20447.199
138.879, 20969.930
139.361, 21493.980
139.843, 21979.119
140.326, 22420.980
140.808, 22844.869
141.290, 23276.801
141.772, 23724.420
142.254, 24149.449
142.736, 24546.480
143.218, 24918.311
143.700, 25257.539
144.182, 25579.131
144.665, 25851.570
145.147, 26044.490
145.629, 26169.529
146.111, 26196.170
146.593, 26116.080
147.075, 25923.301
147.557, 25644.721
148.039, 25283.230
148.521, 24836.039
149.004, 24289.289
149.486, 23523.680
149.968, 22785.449
150.450, 22127.570
150.932, 21566.090
151.414, 21063.650
151.896, 20612.580
152.378, 20222.090
152.861, 19911.330
153.343, 19707.330
153.825, 19561.279
154.307, 19455.400
154.789, 19396.609
155.271, 19366.160
155.753, 19363.391
156.235, 19388.240
156.717, 19438.570
157.200, 19527.980
157.682, 19634.859
158.164, 19745.789
158.646, 19872.740
159.128, 19987.369
159.610, 20076.369
160.092, 20140.801
160.574, 20202.250
161.057, 20273.699
161.539, 20341.289
162.021, 20392.109
162.503, 20405.539
162.985, 20412.971
163.467, 20437.260
163.949, 20480.779
164.431, 20498.689
164.913, 20446.211
165.396, 20359.910
165.878, 20289.859
166.360, 20284.650
166.842, 20285.480
167.324, 20249.811
167.806, 20168.770
168.288, 20079.199
168.770, 20006.510
169.253, 19943.051
169.735, 19871.920
170.217, 19768.000
170.699, 19661.430
171.181, 19585.920
171.663, 19556.750
172.145, 19534.711
172.627, 19477.859
173.109, 19397.381
173.592, 19329.650
174.074, 19299.811
174.556, 19295.449
175.038, 19300.971
175.520, 19317.650
176.002, 19335.730
176.484, 19346.240
176.966, 19348.850
177.449, 19342.420
177.931, 19315.980
178.413, 19280.090
178.895, 19256.869
179.377, 19259.561
179.859, 19273.189
180.341, 19274.279
180.823, 19262.859
181.305, 19248.279
181.788, 19237.141
182.270, 19229.279
182.752, 19223.961
183.234, 19222.480
183.716, 19222.859
184.198, 19221.850
184.680, 19219.631
185.162, 19213.090
185.645, 19199.311
186.127, 19178.311
186.609, 19149.869
187.091, 19106.939
187.573, 19054.859
188.055, 19020.070
188.537, 19006.381
189.019, 18995.631
189.501, 18957.641
189.984, 18893.619
190.466, 18834.500
190.948, 18806.070
191.430, 18801.471
191.912, 18769.260
192.394, 18702.430
192.876, 18617.279
193.358, 18540.670
193.840, 18473.340
194.323, 18408.211
194.805, 18335.461
195.287, 18256.359
195.769, 18204.340
196.251, 18188.359
196.733, 18193.980
197.215, 18182.391
197.697, 18149.930
198.180, 18125.301
198.662, 18129.891
199.144, 18165.221
199.626, 18205.160
200.108, 18246.189
200.590, 18290.131
201.072, 18338.920
201.554, 18389.881
202.036, 18455.500
202.519, 18547.920
203.001, 18669.330
203.483, 18796.840
203.965, 18922.420
204.447, 19050.510
204.929, 19204.119
205.411, 19385.211
205.893, 19586.641
206.376, 19804.990
206.858, 20042.619
207.340, 20282.170
207.822, 20511.561
208.304, 20734.500
208.786, 21008.100
209.268, 21339.340
209.750, 21704.289
210.232, 22077.350
210.714, 22450.320
211.197, 22849.600
211.679, 23278.680
212.161, 23738.000
212.643, 24247.150
213.125, 24817.471
213.607, 25417.301
214.089, 26013.650
214.572, 26600.381
215.054, 27203.750
215.536, 27828.340
216.018, 28479.369
216.500, 29131.619
216.982, 29794.471
217.464, 30438.670
217.946, 31029.881
218.428, 31550.270
218.911, 32040.199
219.393, 32515.070
219.875, 32975.250
220.357, 33396.301
220.839, 33795.398
221.321, 34141.828
221.803, 34402.711
222.285, 34583.270
222.767, 34665.980
223.250, 34640.859
223.732, 34498.672
224.214, 34281.191
224.696, 33965.051
225.178, 33587.711
225.660, 33205.180
226.142, 32823.551
226.624, 32431.580
227.107, 32012.730
227.589, 31506.359
228.071, 31130.760
228.553, 30919.670
229.035, 30824.400
229.517, 30726.811
229.999, 30607.039
230.481, 30511.260
230.963, 30455.990
231.445, 30433.410
231.928, 30468.891
232.410, 30570.551
232.892, 30729.869
233.374, 30918.240
233.856, 31145.170
234.338, 31388.289
234.820, 31640.211
235.303, 31898.150
235.785, 32169.000
236.267, 32454.430
236.749, 32754.439
237.231, 33064.789
237.713, 33407.398
238.195, 33726.352
238.677, 33992.309
239.159, 34193.289
239.641, 34364.891
240.124, 34495.551
240.606, 34598.211
241.088, 34739.941
241.570, 34995.109
242.052, 35188.719
242.534, 35216.359
243.016, 35008.020
243.498, 34778.320
243.981, 34545.461
244.463, 34299.500
244.945, 33995.141
245.427, 33609.551
245.909, 33191.410
246.391, 32767.369
246.873, 32355.500
247.355, 31893.221
247.837, 31352.189
248.320, 30752.350
248.802, 30198.230
249.284, 29717.539
249.766, 29254.150
250.248, 28768.359
250.730, 28237.551
251.212, 27739.619
251.694, 27290.689
252.176, 26885.330
252.659, 26467.369
253.141, 26020.391
253.623, 25585.750
254.105, 25188.740
254.587, 24855.980
255.069, 24508.439
255.551, 24135.891
256.033, 23744.449
256.516, 23345.830
256.998, 22930.990
257.480, 22518.619
257.962, 22118.240
258.444, 21718.641
258.926, 21348.391
259.408, 21007.439
259.890, 20693.789
260.372, 20407.789
260.855, 20144.820
261.337, 19910.721
261.819, 19713.381
262.301, 19562.000
262.783, 19413.900
263.265, 19260.051
263.747, 19105.439
264.229, 18968.689
264.711, 18854.770
265.194, 18751.590
265.676, 18651.551
266.158, 18554.529
266.640, 18467.020
267.122, 18394.211
267.604, 18331.811
268.086, 18261.100
268.569, 18175.840
269.051, 18095.410
269.533, 18034.240
270.015, 17996.100
270.497, 17962.730
270.979, 17935.240
271.461, 17910.689
271.943, 17874.529
272.425, 17821.119
272.908, 17772.920
273.390, 17745.820
273.872, 17741.510
274.354, 17752.189
274.836, 17786.131
275.318, 17830.340
275.800, 17834.891
276.282, 17789.090
276.764, 17741.590
277.247, 17732.551
277.729, 17768.000
278.211, 17777.891
278.693, 17748.949
279.175, 17693.619
279.657, 17644.020
280.139, 17599.471
280.621, 17562.949
281.103, 17536.650
281.586, 17520.461
282.068, 17512.141
282.550, 17512.750
283.032, 17519.461
283.514, 17524.301
283.996, 17526.561
284.478, 17534.609
284.960, 17554.320
285.443, 17585.650
285.925, 17623.980
286.407, 17670.670
286.889, 17721.359
287.371, 17765.650
287.853, 17803.510
288.335, 17844.350
288.817, 17886.820
289.299, 17934.289
289.782, 18010.721
290.264, 18121.090
290.746, 18250.900
291.228, 18381.930
291.710, 18513.391
292.192, 18635.840
292.674, 18739.369
293.156, 18828.170
293.638, 18909.160
294.121, 18975.949
294.603, 19054.730
295.085, 19195.631
295.567, 19389.680
296.049, 19581.580
296.531, 19741.039
297.013, 19875.840
297.496, 19994.811
297.978, 20091.619
298.460, 20197.670
298.942, 20354.779
299.424, 20552.820
299.906, 20754.439
300.388, 20938.330
300.870, 21112.949
301.352, 21281.490
301.835, 21440.279
302.317, 21614.699
302.799, 21871.881
303.281, 22166.820
303.763, 22398.801
304.245, 22473.311
304.727, 22476.990
305.209, 22499.910
305.691, 22545.211
306.174, 22617.609
306.656, 22738.230
307.138, 22888.141
307.620, 23033.980
308.102, 23142.240
308.584, 23255.400
309.066, 23415.789
309.548, 23627.211
310.030, 23849.850
310.513, 24068.689
310.995, 24283.980
311.477, 24492.461
311.959, 24660.490
312.441, 24847.391
312.923, 25100.449
313.405, 25417.680
313.887, 25733.150
314.370, 26028.760
314.852, 26305.551
315.334, 26565.910
315.816, 26790.410
316.298, 27016.510
316.780, 27284.869
317.262, 27582.990
317.744, 27832.070
318.226, 28009.641
318.709, 28120.029
319.191, 28164.949
319.673, 28112.510
320.155, 28031.480
320.637, 27949.801
321.119, 27858.100
321.601, 27715.820
322.083, 27473.590
322.565, 27205.199
323.048, 26951.199
323.530, 26730.480
324.012, 26504.770
324.494, 26241.770
324.976, 25965.631
325.458, 25747.570
325.940, 25637.221
326.422, 25553.020
326.905, 25458.650
327.387, 25321.551
327.869, 25226.990
328.351, 25192.109
328.833, 25198.961
329.315, 25211.820
329.797, 25204.721
330.279, 25231.850
330.762, 25316.260
331.244, 25482.520
331.726, 25634.900
332.208, 25762.141
332.690, 25882.900
333.172, 26024.811
333.654, 26187.920
334.136, 26371.279
334.618, 26582.939
335.100, 26826.070
335.583, 27053.779
336.065, 27260.830
336.547, 27459.061
337.029, 27661.680
337.511, 27865.301
337.993, 28087.400
338.475, 28345.609
338.957, 28631.381
339.440, 28857.400
339.922, 29010.619
340.404, 29134.301
340.886, 29278.131
341.368, 29447.039
341.850, 29578.289
342.332, 29659.500
342.814, 29693.260
343.297, 29681.779
343.779, 29624.840
344.261, 29529.250
344.743, 29396.141
345.225, 29227.480
345.707, 29031.131
346.189, 28800.029
346.671, 28552.340
347.153, 28309.211
347.635, 28071.350
348.118, 27836.561
348.600, 27580.721
349.082, 27322.971
349.564, 27122.020
350.046, 26986.740
350.528, 26890.631
351.010, 26789.480
351.492, 26693.080
351.975, 26637.779
352.457, 26664.340
352.939, 26736.910
353.421, 26800.881
353.903, 26850.170
354.385, 26913.350
354.867, 27004.391
355.349, 27128.561
355.832, 27295.471
356.314, 27550.381
356.796, 27824.359
357.278, 28052.061
357.760, 28233.980
358.242, 28416.510
358.724, 28621.939
359.206, 28847.320
359.688, 29089.270
360.171, 29360.490
360.653, 29635.189
361.135, 29913.029
361.617, 30190.330
362.099, 30435.500
362.581, 30631.109
363.063, 30795.400
363.545, 30942.080
364.027, 31098.461
364.510, 31203.631
364.992, 31244.189
365.474, 31222.939
365.956, 31147.920
366.438, 30993.070
366.920, 30808.391
367.402, 30616.961
367.884, 30441.580
368.366, 30218.811
368.849, 29920.859
369.331, 29577.900
369.813, 29243.369
370.295, 28928.971
370.777, 28610.350
371.259, 28274.020
371.741, 27913.900
372.224, 27584.689
372.706, 27293.189
373.188, 27024.641
373.670, 26766.240
374.152, 26520.420
374.634, 26278.539
375.116, 26043.400
375.598, 25812.520
376.080, 25563.730
376.562, 25282.779
377.045, 25021.961
377.527, 24858.641
378.009, 24812.131
378.491, 24659.580
378.973, 24333.539
379.455, 23911.711
379.937, 23627.580
380.419, 23489.859
380.902, 23356.971
381.384, 23123.109
381.866, 22808.051
382.348, 22522.131
382.830, 22278.650
383.312, 22058.840
383.794, 21839.061
384.276, 21622.721
384.759, 21421.539
385.241, 21247.939
385.723, 21091.711
386.205, 20937.820
386.687, 20784.289
387.169, 20644.029
387.651, 20547.141
388.133, 20471.270
388.615, 20374.449
389.098, 20208.150
389.580, 20037.301
390.062, 19926.230
390.544, 19866.961
391.026, 19813.270
391.508, 19742.789
391.990, 19663.910
392.472, 19583.471
392.954, 19504.119
393.437, 19424.840
393.919, 19340.750
394.401, 19257.340
394.883, 19184.820
395.365, 19124.570
395.847, 19078.990
396.329, 19050.250
396.811, 19041.619
397.293, 19041.539
397.776, 19055.461
398.258, 19074.609
398.740, 19086.289
399.222, 19095.920
399.704, 19090.160
400.186, 19056.529
400.668, 18989.000
401.151, 18951.619
401.633, 18961.221
402.115, 18986.391
402.597, 19000.840
403.079, 19000.211
403.561, 18999.119
404.043, 18999.080
404.525, 19000.369
405.007, 19005.180
405.490, 19016.461
405.972, 19024.051
406.454, 19018.670
406.936, 18998.711
407.418, 18988.350
407.900, 18992.000
408.382, 19000.650
408.864, 18998.369
409.346, 18985.051
409.828, 18967.789
410.311, 18943.801
410.793, 18918.090
411.275, 18914.600
411.757, 18936.320
412.239, 18955.109
412.721, 18937.529
413.203, 18893.580
413.685, 18850.900
414.168, 18813.369
414.650, 18785.920
415.132, 18775.070
415.614, 18780.109
416.096, 18798.000
416.578, 18858.721
417.060, 18917.260
417.542, 18916.039
418.025, 18815.020
418.507, 18714.510
418.989, 18678.289
419.471, 18683.529
419.953, 18682.551
420.435, 18654.471
420.917, 18618.260
421.399, 18580.359
421.881, 18539.760
422.364, 18510.131
422.846, 18500.561
423.328, 18501.410
423.810, 18503.260
424.292, 18511.240
424.774, 18513.920
425.256, 18509.949
425.738, 18499.430
426.220, 18482.340
426.703, 18448.689
427.185, 18419.160
427.667, 18406.039
428.149, 18414.699
428.631, 18426.660
429.113, 18445.170
429.595, 18463.590
430.077, 18463.551
430.560, 18437.990
431.042, 18420.869
431.524, 18428.461
432.006, 18459.730
432.488, 18490.881
432.970, 18522.881
433.452, 18551.061
433.934, 18573.199
434.417, 18588.350
434.899, 18589.770
435.381, 18570.869
435.863, 18542.080
436.345, 18518.850
436.827, 18501.801
437.309, 18495.270
437.791, 18504.029
438.273, 18524.789
438.755, 18554.961
439.238, 18597.000
439.720, 18638.061
440.202, 18665.641
440.684, 18684.350
441.166, 18703.561
441.648, 18723.619
442.130, 18747.730
442.612, 18784.689
443.095, 18835.561
443.577, 18868.230
444.059, 18848.320
444.541, 18817.131
445.023, 18809.320
445.505, 18856.330
445.987, 18900.131
446.469, 18925.199
446.952, 18938.160
447.434, 18965.141
447.916, 19007.920
448.398, 19064.311
448.880, 19136.811
449.362, 19238.359
449.844, 19319.721
450.326, 19378.391
450.808, 19419.109
451.290, 19442.189
451.773, 19437.840
452.255, 19448.090
452.737, 19482.650
453.219, 19540.270
453.701, 19616.699
454.183, 19711.430
454.665, 19824.750
455.147, 19984.561
455.630, 20175.150
456.112, 20296.631
456.594, 20323.340
457.076, 20302.230
457.558, 20285.301
458.040, 20275.301
458.522, 20283.230
459.004, 20319.961
459.487, 20375.580
459.969, 20451.080
460.451, 20546.520
460.933, 20618.039
461.415, 20611.420
461.897, 20569.551
462.379, 20542.109
462.861, 20545.520
463.343, 20566.051
463.826, 20600.369
464.308, 20647.260
464.790, 20703.500
465.272, 20803.250
465.754, 20883.551
466.236, 20913.631
466.718, 20880.391
467.200, 20824.721
467.682, 20729.340
468.165, 20621.881
468.647, 20531.840
469.129, 20460.730
469.611, 20405.750
470.093, 20370.660
470.575, 20352.650
471.057, 20322.430
471.539, 20267.980
472.022, 20228.070
472.504, 20242.891
472.986, 20318.689
473.468, 20345.020
473.950, 20299.230
474.432, 20233.080
474.914, 20229.570
475.396, 20285.109
475.878, 20360.641
476.361, 20482.279
476.843, 20601.051
477.325, 20582.180
477.807, 20431.449
478.289, 20284.730
478.771, 20264.641
479.253, 20312.330
479.735, 20341.789
480.217, 20321.461
480.700, 20299.109
481.182, 20303.699
481.664, 20330.490
482.146, 20369.471
482.628, 20415.400
483.110, 20471.641
483.592, 20543.119
484.074, 20632.100
484.556, 20714.891
485.039, 20785.311
485.521, 20846.020
486.003, 20899.590
486.485, 20945.141
486.967, 20983.301
487.449, 20997.881
487.931, 21005.430
488.414, 21069.660
488.896, 21220.609
489.378, 21367.779
489.860, 21466.320
490.342, 21510.340
490.824, 21587.131
491.306, 21700.900
491.788, 21838.980
492.270, 22010.580
492.753, 22208.539
493.235, 22353.400
493.717, 22402.980
494.199, 22408.660
494.681, 22454.039
495.163, 22536.010
495.645, 22639.090
496.127, 22764.500
496.609, 22899.961
497.092, 23021.619
497.574, 23124.131
498.056, 23236.279
498.538, 23385.359
499.020, 23553.160
499.502, 23713.230
499.984, 23846.561
500.466, 23984.340
500.948, 24159.650
501.431, 24360.150
501.913, 24503.850
502.395, 24507.061
502.877, 24505.801
503.359, 24566.520
503.841, 24717.971
504.323, 24858.051
504.805, 24987.010
505.288, 25102.029
505.770, 25198.750
506.252, 25271.270
506.734, 25343.240
507.216, 25419.580
507.698, 25499.029
508.180, 25582.689
508.662, 25673.779
509.145, 25745.789
509.627, 25774.029
510.109, 25766.711
510.591, 25762.721
511.073, 25768.250
511.555, 25763.000
512.037, 25725.990
512.519, 25660.420
513.001, 25574.189
513.484, 25452.770
513.966, 25326.350
514.448, 25225.449
514.930, 25144.211
515.412, 25054.619
515.894, 24930.199
516.376, 24799.990
516.858, 24690.551
517.341, 24621.400
517.823, 24521.381
518.305, 24354.160
518.787, 24154.990
519.269, 23968.211
519.751, 23796.270
520.233, 23635.869
520.715, 23503.580
521.197, 23388.080
521.680, 23218.160
522.162, 22963.609
522.644, 22719.311
523.126, 22547.199
523.608, 22452.080
524.090, 22342.961
524.572, 22213.471
525.054, 22082.699
525.536, 21967.461
526.019, 21867.580
526.501, 21783.770
526.983, 21726.270
527.465, 21675.080
527.947, 21595.811
528.429, 21494.869
528.911, 21396.570
529.393, 21320.789
529.875, 21252.990
530.358, 21178.199
530.840, 21093.580
531.322, 21014.670
531.804, 20949.369
532.286, 20893.910
532.768, 20846.221
533.250, 20815.150
533.732, 20780.561
534.214, 20734.029
534.697, 20680.750
535.179, 20638.080
535.661, 20610.760
536.143, 20588.930
536.625, 20570.910
537.107, 20557.350
537.589, 20539.689
538.071, 20515.250
538.554, 20493.051
539.036, 20489.801
539.518, 20504.789
540.000, 20494.561
540.482, 20441.820
540.964, 20376.109
541.446, 20346.711
541.928, 20349.350
542.411, 20362.000
542.893, 20385.490
543.375, 20405.500
543.857, 20397.289
544.339, 20361.141
544.821, 20330.320
545.303, 20328.320
545.785, 20338.811
546.268, 20347.100
546.750, 20350.270
547.232, 20350.680
547.714, 20340.000
548.196, 20328.750
548.678, 20335.939
549.160, 20384.420
549.642, 20427.410
550.124, 20455.500
550.606, 20469.289
551.089, 20478.131
551.571, 20480.131
552.053, 20481.141
552.535, 20484.920
553.017, 20491.619
553.499, 20497.180
553.981, 20499.961
554.463, 20505.680
554.945, 20517.570
555.428, 20537.750
555.910, 20578.461
556.392, 20660.891
556.874, 20748.119
557.356, 20783.561
557.838, 20778.490
558.320, 20780.740
558.802, 20823.660
559.284, 20881.279
559.767, 20931.051
560.249, 20966.539
560.731, 21019.230
561.213, 21120.820
561.695, 21233.240
562.177, 21322.859
562.659, 21349.961
563.141, 21398.770
563.624, 21482.711
564.106, 21588.230
564.588, 21685.270
565.070, 21772.930
565.552, 21849.840
566.034, 21907.461
566.516, 21949.350
566.998, 22026.789
567.481, 22143.590
567.963, 22268.510
568.445, 22377.391
568.927, 22473.609
569.409, 22571.080
569.891, 22669.920
570.373, 22774.301
570.855, 22889.631
571.338, 23013.471
571.820, 23136.311
572.302, 23250.080
572.784, 23368.260
573.266, 23508.420
573.748, 23663.039
574.230, 23802.570
574.712, 23889.820
575.194, 23981.670
575.677, 24109.051
576.159, 24286.539
576.641, 24451.631
577.123, 24595.939
577.605, 24738.740
578.087, 24894.830
578.569, 25063.010
579.051, 25260.789
579.533, 25501.109
580.016, 25759.801
580.498, 25976.939
580.980, 26154.740
581.462, 26349.961
581.944, 26585.051
582.426, 26856.189
582.908, 27161.430
583.390, 27495.789
583.872, 27833.539
584.355, 28144.971
584.837, 28453.801
585.319, 28792.279
585.801, 29173.029
586.283, 29549.359
586.765, 29889.180
587.247, 30216.660
587.729, 30565.881
588.211, 30978.580
588.694, 31370.029
589.176, 31717.080
589.658, 32034.490
590.140, 32379.260
590.622, 32777.109
591.104, 33149.809
591.586, 33467.219
592.068, 33731.148
592.551, 33935.211
593.033, 34074.289
593.515, 34186.172
593.997, 34340.641
594.479, 34499.000
594.961, 34524.539
595.443, 34379.270
595.925, 34165.898
596.407, 33974.672
596.890, 33790.160
597.372, 33586.961
597.854, 33372.738
598.336, 33118.480
598.818, 32793.840
599.300, 32411.730
599.782, 32027.920
600.265, 31670.090
600.747, 31293.180
601.229, 30867.689
601.711, 30372.961
602.193, 29949.471
602.675, 29626.570
603.157, 29338.289
603.639, 29032.260
604.121, 28710.961
604.604, 28367.160
605.086, 27988.971
605.568, 27610.920
606.050, 27281.859
606.532, 26996.949
607.014, 26724.510
607.496, 26451.551
607.978, 26185.119
608.460, 25939.090
608.943, 25709.600
609.425, 25491.061
609.907, 25277.770
610.389, 25072.949
610.871, 24878.830
611.353, 24696.189
611.835, 24520.270
612.317, 24344.961
612.799, 24178.961
613.282, 24026.301
613.764, 23890.770
614.246, 23764.609
614.728, 23649.471
615.210, 23542.580
615.692, 23437.650
616.174, 23332.949
616.656, 23244.381
617.138, 23185.980
617.621, 23138.971
618.103, 23047.119
618.585, 22918.631
619.067, 22806.961
619.549, 22754.061
620.031, 22730.410
620.513, 22701.461
620.995, 22664.660
621.477, 22640.490
621.960, 22650.471
622.442, 22670.529
622.924, 22683.100
623.406, 22695.180
623.888, 22681.150
624.370, 22619.750
624.852, 22539.689
625.334, 22477.480
625.817, 22440.340
626.299, 22402.189
626.781, 22352.961
627.263, 22302.689
627.745, 22289.900
628.227, 22316.170
628.709, 22334.721
629.191, 22312.561
629.674, 22267.170
630.156, 22242.180
630.638, 22236.279
631.120, 22229.641
631.602, 22203.520
632.084, 22172.330
632.566, 22149.260
633.048, 22135.939
633.531, 22133.590
634.013, 22139.250
634.495, 22157.789
634.977, 22195.471
635.459, 22294.600
635.941, 22353.330
636.423, 22350.520
636.905, 22308.740
637.387, 22281.039
637.870, 22270.789
638.352, 22258.939
638.834, 22236.340
639.316, 22207.850
639.798, 22186.641
640.280, 22172.961
640.762, 22173.619
641.244, 22205.820
641.726, 22250.270
642.209, 22282.051
642.691, 22299.811
643.173, 22303.221
643.655, 22279.961
644.137, 22249.910
644.619, 22230.850
645.101, 22233.391
645.583, 22236.490
646.065, 22242.650
646.548, 22245.410
647.030, 22232.930
647.512, 22190.330
647.994, 22166.990
648.476, 22179.830
648.958, 22211.789
649.440, 22210.461
649.922, 22174.410
650.404, 22130.551
650.887, 22083.789
651.369, 22040.061
651.851, 22017.900
652.333, 22015.051
652.815, 22007.600
653.297, 21972.811
653.779, 21930.461
654.261, 21905.539
654.744, 21911.471
655.226, 21889.010
655.708, 21785.449
656.190, 21664.670
656.672, 21587.170
657.154, 21584.850
657.636, 21571.699
658.118, 21537.369
658.601, 21496.260
659.083, 21474.551
659.565, 21473.520
660.047, 21478.770
660.529, 21492.170
661.011, 21503.410
661.493, 21488.471
661.975, 21450.340
662.458, 21403.740
662.940, 21350.221
663.422, 21378.990
663.904, 21387.785
664.386, 21377.678
664.868, 21292.057
665.350, 21303.943
665.832, 21276.756
666.314, 21247.965
666.797, 21273.580
667.279, 21198.939
667.761, 21218.359
668.243, 21183.080
668.725, 21167.500
669.207, 21173.490
669.689, 21181.570
670.171, 21188.510
670.653, 21196.650
671.135, 21223.410
671.618, 21258.910
672.100, 21255.961
672.582, 21173.180
673.064, 21078.529
673.546, 21051.760
674.028, 21072.090
674.510, 21079.449
674.992, 21021.471
675.474, 20971.480
675.957, 20974.301
676.439, 21030.619
676.921, 21064.750
677.403, 21073.350
677.885, 21060.480
678.367, 21016.260
678.849, 20932.270
679.331, 20905.830
679.814, 20946.131
680.296, 21007.119
680.778, 21051.600
681.260, 21079.930
681.742, 21087.289
682.224, 21067.391
682.706, 21050.789
683.188, 21072.131
683.670, 21113.680
684.153, 21149.520
684.635, 21172.240
685.117, 21187.109
685.599, 21192.279
686.081, 21191.551
686.563, 21192.750
687.045, 21198.859
687.528, 21204.730
688.010, 21209.801
688.492, 21214.590
688.974, 21217.480
689.456, 21216.891
689.938, 21227.631
690.420, 21266.900
690.902, 21321.369
691.384, 21350.779
691.867, 21355.721
692.349, 21351.740
692.831, 21336.420
693.313, 21324.551
693.795, 21336.211
694.277, 21378.141
694.759, 21407.250
695.241, 21394.340
695.723, 21371.680
696.206, 21366.760
696.688, 21399.381
697.170, 21411.170
697.652, 21391.830
698.134, 21365.320
698.616, 21371.070
699.098, 21411.131
699.580, 21418.859
700.062, 21369.551
700.545, 21308.010
701.027, 21305.510
701.509, 21346.930
701.991, 21389.760
702.473, 21426.051
702.955, 21447.539
703.437, 21433.811
703.919, 21397.980
704.402, 21383.750
704.884, 21429.990
705.366, 21471.070
705.848, 21481.100
706.330, 21462.160
706.812, 21453.391
707.294, 21452.400
707.776, 21467.359
708.258, 21515.320
708.741, 21590.320
709.223, 21629.980
709.705, 21633.961
710.187, 21620.881
710.669, 21587.609
711.151, 21555.131
711.633, 21557.631
712.115, 21607.109
712.597, 21656.289
713.080, 21678.359
713.562, 21690.279
714.044, 21707.961
714.526, 21726.381
715.008, 21761.961
715.490, 21818.990
715.972, 21888.520
716.455, 21958.830
716.937, 22031.279
717.419, 22095.859
717.901, 22148.461
718.383, 22196.539
718.865, 22253.420
719.347, 22317.680
719.829, 22388.180
720.311, 22469.180
720.794, 22551.449
721.276, 22622.410
721.758, 22687.400
722.240, 22761.400
722.722, 22850.381
723.204, 22949.650
723.686, 23056.199
724.168, 23171.109
724.651, 23307.770
725.133, 23480.641
725.615, 23640.141
726.097, 23747.910
726.579, 23811.730
727.061, 23911.529
727.543, 24048.141
728.025, 24192.990
728.507, 24327.340
728.990, 24454.430
729.472, 24579.061
729.954, 24703.779
730.436, 24814.100
730.918, 24900.811
731.400, 24972.561
731.882, 25038.410
732.364, 25115.609
732.846, 25154.471
733.328, 25141.369
733.811, 25103.301
734.293, 25067.480
734.775, 25033.830
735.257, 25010.750
735.739, 25010.461
736.221, 24990.900
736.703, 24867.119
737.185, 24674.170
737.667, 24506.779
738.150, 24414.619
738.632, 24337.039
739.114, 24238.740
739.596, 24126.090
740.078, 24011.500
740.560, 23897.410
741.042, 23783.619
741.524, 23667.650
742.007, 23552.029
742.489, 23447.520
742.971, 23355.061
743.453, 23269.109
743.935, 23182.980
744.417, 23102.580
744.899, 23057.080
745.381, 23041.180
745.864, 23013.949
746.346, 22926.881
746.828, 22830.930
747.310, 22785.381
747.792, 22787.480
748.274, 22770.789
748.756, 22709.270
749.238, 22625.270
749.721, 22524.039
750.203, 22401.090
750.685, 22307.160
751.167, 22249.961
751.649, 22206.141
752.131, 22166.529
752.613, 22128.689
753.095, 22056.779
753.577, 21943.910
754.060, 21851.721
754.542, 21856.369
755.024, 21903.039
755.506, 21917.961
755.988, 21878.740
756.470, 21835.820
756.952, 21811.939
757.434, 21791.471
757.916, 21758.170
758.399, 21699.580
758.881, 21653.119
759.363, 21626.471
759.845, 21604.311
760.327, 21562.740
760.809, 21504.131
761.291, 21456.711
761.773, 21428.230
762.255, 21412.939
762.738, 21411.561
763.220, 21417.801
763.702, 21418.750
764.184, 21410.730
764.666, 21395.680
765.148, 21357.359
765.630, 21314.480
766.112, 21309.801
766.594, 21377.740
767.077, 21421.510
767.559, 21408.510
768.041, 21368.641
768.523, 21396.090
769.005, 21489.270
769.487, 21561.199
769.969, 21571.551
770.451, 21546.939
770.934, 21517.260
771.416, 21485.939
771.898, 21464.760
772.380, 21466.670
772.862, 21473.900
773.344, 21483.711
773.826, 21494.070
774.308, 21488.939
774.791, 21458.859
775.273, 21429.439
775.755, 21407.090
776.237, 21393.289
776.719, 21400.779
777.201, 21430.660
777.683, 21461.721
778.165, 21481.471
778.648, 21493.930
779.130, 21489.400
779.612, 21473.211
780.094, 21499.029
780.576, 21674.189
781.058, 21834.830
781.540, 21872.609
782.022, 21757.490
782.504, 21652.551
782.987, 21539.180
783.469, 21467.500
783.951, 21489.109
784.433, 21602.141
784.915, 21653.471
785.397, 21640.131
785.879, 21605.551
786.361, 21573.240
786.843, 21548.920
787.326, 21541.551
787.808, 21552.689
788.290, 21577.539
788.772, 21611.971
789.254, 21660.580
789.736, 21736.090
790.218, 21874.430
790.700, 21929.061
791.182, 21868.221
791.665, 21775.400
792.147, 21719.090
792.629, 21697.570
793.111, 21696.609
793.593, 21716.490
794.075, 21742.420
794.557, 21777.189
795.039, 21801.939
795.521, 21782.400
796.004, 21694.160
796.486, 21618.150
796.968, 21587.430
797.450, 21582.869
797.932, 21585.080
798.414, 21592.820
798.896, 21614.551
799.378, 21662.100
799.860, 21703.609
800.343, 21677.131
800.825, 21601.779
801.307, 21596.811
801.789, 21704.520
802.271, 21808.619
802.753, 21774.189
803.235, 21674.320
803.718, 21605.320
804.200, 21605.391
804.682, 21619.400
805.164, 21657.699
805.646, 21692.221
806.128, 21685.230
806.610, 21620.131
807.092, 21577.369
807.574, 21570.410
808.057, 21579.680
808.539, 21572.881
809.021, 21557.369
809.503, 21558.859
809.985, 21589.539
810.467, 21628.529
810.949, 21665.279
811.431, 21698.340
811.914, 21725.420
812.396, 21725.320
812.878, 21748.199
813.360, 21818.150
813.842, 21898.660
814.324, 21926.320
814.806, 21895.949
815.288, 21864.529
815.770, 21838.580
816.253, 21828.650
816.735, 21862.939
817.217, 21924.740
817.699, 21976.480
818.181, 22004.430
818.663, 22019.500
819.145, 22020.850
819.627, 22014.660
820.109, 22010.760
820.592, 21996.930
821.074, 22012.109
821.556, 22072.010
822.038, 22151.670
822.520, 22201.600
823.002, 22224.029
823.484, 22246.180
823.966, 22281.570
824.448, 22307.150
824.931, 22283.150
825.413, 22232.250
825.895, 22196.699
826.377, 22185.279
826.859, 22196.750
827.341, 22251.721
827.823, 22322.131
828.305, 22362.160
828.787, 22366.551
829.270, 22357.391
829.752, 22332.869
830.234, 22307.430
830.716, 22326.131
831.198, 22368.250
831.680, 22356.311
832.162, 22218.699
832.644, 22091.910
833.127, 22087.859
833.609, 22155.631
834.091, 22208.420
834.573, 22217.039
835.055, 22225.439
835.537, 22236.301
836.019, 22249.801
836.501, 22270.400
836.984, 22298.461
837.466, 22309.721
837.948, 22293.830
838.430, 22268.930
838.912, 22244.279
839.394, 22229.689
839.876, 22244.910
840.358, 22328.891
840.841, 22401.680
841.323, 22415.199
841.805, 22409.119
842.287, 22450.320
842.769, 22571.859
843.251, 22642.221
843.733, 22629.330
844.215, 22584.699
844.697, 22583.939
845.180, 22622.471
845.662, 22689.551
846.144, 22803.289
846.626, 22894.240
847.108, 22888.391
847.590, 22833.340
848.072, 22793.971
848.554, 22764.539
849.036, 22786.641
849.519, 22894.289
850.001, 23021.680
850.483, 23073.561
850.965, 23049.039
851.447, 23038.980
851.929, 23060.170
852.411, 23092.990
852.893, 23116.961
853.375, 23137.289
853.858, 23161.689
854.340, 23190.939
854.822, 23227.369
855.304, 23274.750
855.786, 23328.711
856.268, 23386.221
856.750, 23453.980
857.232, 23496.820
857.714, 23503.631
858.197, 23508.811
858.679, 23550.670
859.161, 23623.430
859.643, 23719.279
860.125, 23839.961
860.607, 23952.061
861.089, 24044.029
861.571, 24108.689
862.054, 24133.289
862.536, 24067.369
863.018, 24076.449
863.500, 24193.391
863.982, 24337.131
864.464, 24437.131
864.946, 24497.240
865.428, 24544.590
865.911, 24580.199
866.393, 24614.301
866.875, 24652.141
867.357, 24695.600
867.839, 24748.461
868.321, 24813.740
868.803, 24873.801
869.285, 24912.520
869.767, 24955.949
870.250, 25022.961
870.732, 25117.510
871.214, 25182.000
871.696, 25211.369
872.178, 25251.561
872.660, 25351.830
873.142, 25480.270
873.624, 25587.381
874.106, 25670.131
874.589, 25742.000
875.071, 25799.779
875.553, 25855.930
876.035, 25903.039
876.517, 25942.199
876.999, 26063.289
877.481, 26303.891
877.963, 26505.400
878.445, 26556.080
878.928, 26511.971
879.410, 26545.170
879.892, 26646.410
880.374, 26762.289
880.856, 26867.391
881.338, 26973.119
881.820, 27090.461
882.302, 27216.779
882.784, 27330.410
883.267, 27402.619
883.749, 27513.189
884.231, 27694.471
884.713, 27923.391
885.195, 28133.240
885.677, 28324.039
886.159, 28510.801
886.641, 28693.039
887.124, 28878.770
887.606, 29072.211
888.088, 29275.221
888.570, 29488.381
889.052, 29714.350
889.534, 29951.240
890.016, 30202.100
890.498, 30460.830
890.981, 30721.170
891.463, 30983.311
891.945, 31272.221
892.427, 31595.730
892.909, 31933.141
893.391, 32248.230
893.873, 32561.971
894.355, 32914.371
894.838, 33382.699
895.320, 33781.148
895.802, 34030.238
896.284, 34220.828
896.766, 34439.078
897.248, 34686.621
897.730, 34941.910
898.212, 35201.789
898.694, 35457.469
899.177, 35695.070
899.659, 35920.781
900.141, 36132.891
900.623, 36329.121
901.105, 36548.211
901.587, 36874.391
902.069, 37177.570
902.551, 37376.859
903.033, 37460.078
903.516, 37497.738
903.998, 37477.980
904.480, 37463.051
904.962, 37528.828
905.444, 37624.570
905.926, 37621.461
906.408, 37524.820
906.890, 37446.871
907.372, 37488.500
907.855, 37531.211
908.337, 37499.262
908.819, 37397.641
909.301, 37319.781
909.783, 37271.699
910.265, 37227.262
910.747, 37176.391
911.229, 37121.789
911.711, 37072.910
912.194, 37026.371
912.676, 36967.270
913.158, 36847.090
913.640, 36754.602
914.122, 36755.719
914.604, 36818.641
915.086, 36851.711
915.568, 36824.539
916.051, 36835.520
916.533, 36904.852
917.015, 37017.910
917.497, 37140.898
917.979, 37286.109
918.461, 37500.371
918.943, 37815.680
919.425, 38156.879
919.907, 38443.641
920.390, 38744.102
920.872, 39139.738
921.354, 39668.500
921.836, 40235.719
922.318, 40840.379
922.800, 41489.551
923.282, 42187.398
923.764, 42940.191
924.247, 43731.262
924.729, 44563.539
925.211, 45476.340
925.693, 46506.371
926.175, 47620.480
926.657, 48801.340
927.139, 50047.609
927.621, 51400.461
928.104, 52867.309
928.586, 54364.500
929.068, 55821.141
929.550, 57265.801
930.032, 58902.410
930.514, 60701.340
930.996, 62539.289
931.478, 64305.391
931.960, 66115.539
932.443, 68098.039
932.925, 70217.258
933.407, 72410.617
933.889, 74741.688
934.371, 76956.680
934.853, 78960.406
935.335, 80843.133
935.817, 82765.180
936.299, 84699.594
936.782, 86431.281
937.264, 87955.156
937.746, 89168.867
938.228, 90077.539
938.710, 90608.852
939.192, 90629.508
939.674, 90098.328
940.156, 89141.797
940.638, 87750.906
941.121, 85971.938
941.603, 83761.492
942.085, 81182.609
942.567, 78401.102
943.049, 75462.156
943.531, 72499.008
944.013, 69565.703
944.495, 66722.203
944.977, 64010.039
945.460, 61408.199
945.942, 59015.961
946.424, 56855.879
946.906, 54839.609
947.388, 52879.199
947.870, 51020.879
948.352, 49453.129
948.834, 48141.059
949.317, 46912.109
949.799, 45623.898
950.281, 44417.980
950.763, 43385.309
951.245, 42509.191
951.727, 41726.922
952.209, 41050.012
952.691, 40428.391
953.174, 39854.961
953.656, 39324.391
954.138, 38827.230
954.620, 38372.859
955.102, 37981.680
955.584, 37665.891
956.066, 37396.520
956.548, 37161.039
957.031, 36965.230
957.513, 36817.109
957.995, 36732.379
958.477, 36638.590
958.959, 36529.809
959.441, 36435.531
959.923, 36387.910
960.405, 36370.570
960.887, 36348.801
961.370, 36321.289
961.852, 36303.801
962.334, 36292.500
962.816, 36304.172
963.298, 36352.879
963.780, 36431.629
964.262, 36510.930
964.744, 36592.090
965.226, 36666.480
965.709, 36731.270
966.191, 36787.398
966.673, 36846.879
967.155, 36898.648
967.637, 36917.641
968.119, 36904.039
968.601, 36845.020
969.083, 36714.629
969.565, 36555.738
970.048, 36430.551
970.530, 36347.660
971.012, 36151.879
971.494, 35819.949
971.976, 35433.609
972.458, 35078.641
972.940, 34709.590
973.422, 34240.371
973.904, 33645.570
974.387, 33107.270
974.869, 32681.920
975.351, 32281.211
975.833, 31872.770
976.315, 31453.131
976.797, 31006.670
977.279, 30543.150
977.761, 30116.980
978.244, 29785.039
978.726, 29486.770
979.208, 29171.131
979.690, 28851.189
980.172, 28558.070
980.654, 28321.240
981.136, 28069.840
981.618, 27784.510
982.101, 27498.801
982.583, 27272.770
983.065, 27091.480
983.547, 26906.119
984.029, 26706.330
984.511, 26504.449
984.993, 26283.480
985.475, 26079.211
985.957, 25933.520
986.440, 25859.600
986.922, 25755.980
987.404, 25616.859
987.886, 25468.301
988.368, 25314.400
988.850, 25168.850
989.332, 25076.369
989.814, 25025.189
990.296, 24962.520
990.779, 24844.539
991.261, 24732.631
991.743, 24663.051
992.225, 24611.400
992.707, 24518.170
993.189, 24376.109
993.671, 24270.670
994.153, 24225.600
994.635, 24199.551
995.118, 24146.490
995.600, 24079.150
996.082, 24014.551
996.564, 23954.221
997.046, 23901.141
997.528, 23849.680
998.010, 23812.840
998.492, 23805.400
998.974, 23824.490
999.457, 23829.320
999.939, 23820.029
1000.421, 23801.240
1000.903, 23762.830
1001.385, 23727.221
1001.867, 23715.150
1002.349, 23721.609
1002.831, 23724.740
1003.314, 23726.221
1003.796, 23714.461
1004.278, 23680.990
1004.760, 23644.199
1005.242, 23644.480
1005.724, 23666.289
1006.206, 23662.070
1006.688, 23608.840
1007.171, 23569.189
1007.653, 23588.170
1008.135, 23622.869
1008.617, 23635.369
1009.099, 23619.750
1009.581, 23635.461
1010.063, 23688.529
1010.545, 23727.400
1011.027, 23691.520
1011.510, 23636.449
1011.992, 23654.561
1012.474, 23725.840
1012.956, 23761.510
1013.438, 23682.539
1013.920, 23630.939
1014.402, 23644.330
1014.884, 23691.760
1015.367, 23725.439
1015.849, 23743.189
1016.331, 23716.961
1016.813, 23626.381
1017.295, 23555.580
1017.777, 23605.270
1018.259, 23690.090
1018.741, 23727.641
1019.223, 23700.900
1019.706, 23665.430
1020.188, 23613.369
1020.670, 23576.910
1021.152, 23588.330
1021.634, 23626.250
1022.116, 23632.881
1022.598, 23615.730
1023.080, 23605.061
1023.563, 23639.939
1024.045, 23653.250
1024.527, 23598.801
1025.009, 23519.199
1025.491, 23499.119
1025.973, 23542.881
1026.455, 23527.910
1026.937, 23424.391
1027.419, 23314.699
1027.901, 23290.420
1028.384, 23303.891
1028.866, 23303.910
1029.348, 23281.471
1029.830, 23259.000
1030.312, 23239.119
1030.794, 23220.730
1031.276, 23205.500
1031.758, 23191.510
1032.241, 23171.689
1032.723, 23146.770
1033.205, 23117.631
1033.687, 23082.510
1034.169, 23046.240
1034.651, 22998.900
1035.133, 22957.529
1035.615, 22953.381
1036.098, 22999.029
1036.580, 23004.510
1037.062, 22954.711
1037.544, 22905.949
1038.026, 22934.131
1038.508, 22985.590
1038.990, 22983.461
1039.472, 22919.340
1039.954, 22874.949
1040.437, 22883.400
1040.919, 22892.580
1041.401, 22890.270
1041.883, 22874.850
1042.365, 22833.381
1042.847, 22771.740
1043.329, 22713.869
1043.811, 22659.699
1044.293, 22629.840
1044.776, 22654.561
1045.258, 22701.689
1045.740, 22734.520
1046.222, 22754.520
1046.704, 22747.881
1047.186, 22709.789
1047.668, 22668.779
1048.150, 22641.551
1048.633, 22628.619
1049.115, 22633.910
1049.597, 22655.770
1050.079, 22684.350
1050.561, 22756.570
1051.043, 22778.189
1051.525, 22707.750
1052.007, 22597.051
1052.490, 22554.109
1052.972, 22567.400
1053.454, 22577.711
1053.936, 22568.400
1054.418, 22565.221
1054.900, 22590.789
1055.382, 22625.680
1055.864, 22655.240
1056.346, 22679.070
1056.828, 22675.600
1057.311, 22632.039
1057.793, 22548.547
1058.275, 22612.660
1058.757, 22640.947
1059.239, 22635.324
1059.721, 22494.246
1060.203, 22528.082
1060.685, 22491.816
1061.168, 22452.646
1061.650, 22511.102
1062.132, 22389.725
1062.614, 22446.631
1063.096, 22432.373
1063.578, 22450.682
1064.060, 22398.459
1064.542, 22368.027
1065.025, 22408.107
1065.507, 22330.689
1065.989, 22273.570
1066.471, 22283.160
1066.953, 22278.520
1067.435, 22255.830
1067.917, 22261.359
1068.399, 22323.561
1068.881, 22391.711
1069.364, 22407.230
1069.846, 22387.840
1070.328, 22356.131
1070.810, 22298.561
1071.292, 22273.650
1071.774, 22294.080
1072.256, 22322.760
1072.738, 22334.381
1073.220, 22331.561
1073.703, 22318.711
1074.185, 22298.539
1074.667, 22286.609
1075.149, 22295.369
1075.631, 22308.699
1076.113, 22329.590
1076.595, 22347.051
1077.077, 22336.279
1077.559, 22297.381
1078.042, 22280.711
1078.524, 22295.439
1079.006, 22317.039
1079.488, 22342.211
1079.970, 22350.850
1080.452, 22313.189
1080.934, 22224.311
1081.416, 22172.881
1081.899, 22169.170
1082.381, 22168.711
1082.863, 22150.230
1083.345, 22131.850
1083.827, 22143.900
1084.309, 22180.410
1084.791, 22234.740
1085.273, 22334.631
1085.755, 22384.779
1086.238, 22338.199
1086.720, 22278.230
1087.202, 22269.859
1087.684, 22305.699
1088.166, 22327.900
1088.648, 22336.369
1089.130, 22334.480
1089.612, 22307.609
1090.094, 22289.051
1090.577, 22307.990
1091.059, 22345.699
1091.541, 22362.260
1092.023, 22355.061
1092.505, 22345.830
1092.987, 22335.711
1093.469, 22335.439
1093.951, 22374.561
1094.434, 22416.439
1094.916, 22412.029
1095.398, 22354.430
1095.880, 22328.270
1096.362, 22344.730
1096.844, 22376.850
1097.326, 22424.301
1097.808, 22469.760
1098.291, 22467.109
1098.773, 22437.350
1099.255, 22432.510
1099.737, 22487.301
1100.219, 22517.881
1100.701, 22478.779
1101.183, 22435.910
1101.665, 22438.430
1102.147, 22479.490
1102.630, 22479.119
1103.112, 22441.961
1103.594, 22403.750
1104.076, 22373.689
1104.558, 22360.090
1105.040, 22384.000
1105.522, 22420.910
1106.004, 22424.080
1106.486, 22385.170
1106.969, 22376.131
1107.451, 22407.391
1107.933, 22431.350
1108.415, 22378.359
1108.897, 22314.600
1109.379, 22322.051
1109.861, 22397.289
1110.343, 22425.730
1110.826, 22383.100
1111.308, 22347.869
1111.790, 22342.990
1112.272, 22350.051
1112.754, 22334.881
1113.236, 22311.830
1113.718, 22309.660
1114.200, 22339.730
1114.682, 22365.730
1115.165, 22384.311
1115.647, 22388.711
1116.129, 22365.160
1116.611, 22326.570
1117.093, 22342.480
1117.575, 22396.090
1118.057, 22414.240
1118.539, 22311.811
1119.021, 22240.850
1119.504, 22304.520
1119.986, 22403.939
1120.468, 22447.619
1120.950, 22433.689
1121.432, 22386.789
1121.914, 22308.520
1122.396, 22248.400
1122.878, 22249.490
1123.361, 22275.711
1123.843, 22313.760
1124.325, 22354.859
1124.807, 22376.240
1125.289, 22376.279
1125.771, 22359.170
1126.253, 22321.520
1126.735, 22283.869
1127.218, 22256.910
1127.700, 22249.420
1128.182, 22277.830
1128.664, 22343.350
1129.146, 22410.730
1129.628, 22489.270
1130.110, 22531.971
1130.592, 22511.260
1131.074, 22466.029
1131.557, 22473.920
1132.039, 22511.311
1132.521, 22525.859
1133.003, 22496.029
1133.485, 22478.369
1133.967, 22496.340
1134.449, 22516.090
1134.931, 22522.641
1135.413, 22517.119
1135.896, 22493.070
1136.378, 22458.070
1136.860, 22441.631
1137.342, 22492.289
1137.824, 22518.990
1138.306, 22453.689
1138.788, 22372.789
1139.270, 22346.061
1139.752, 22373.051
1140.235, 22423.689
1140.717, 22493.990
1141.199, 22537.900
1141.681, 22495.471
1142.163, 22443.801
1142.645, 22433.100
1143.127, 22449.381
1143.609, 22458.561
1144.092, 22460.869
1144.574, 22459.211
1145.056, 22455.199
1145.538, 22443.180
1146.020, 22411.689
1146.502, 22375.539
1146.984, 22346.920
1147.466, 22328.350
1147.948, 22324.109
1148.431, 22338.930
1148.913, 22352.619
1149.395, 22362.039
1149.877, 22361.881
1150.359, 22315.510
1150.841, 22268.420
1151.323, 22296.010
1151.805, 22434.551
1152.287, 22509.539
1152.770, 22484.881
1153.252, 22458.520
1153.734, 22477.811
1154.216, 22519.150
1154.698, 22534.721
1155.180, 22533.100
1155.662, 22533.730
1156.144, 22553.070
1156.627, 22550.980
1157.109, 22503.910
1157.591, 22469.160
1158.073, 22505.439
1158.555, 22585.900
1159.037, 22605.109
1159.519, 22575.930
1160.001, 22550.980
1160.484, 22562.211
1160.966, 22569.529
1161.448, 22557.109
1161.930, 22541.789
1162.412, 22548.020
1162.894, 22569.721
1163.376, 22563.221
1163.858, 22528.090
1164.340, 22494.391
1164.823, 22487.529
1165.305, 22477.660
1165.787, 22439.980
1166.269, 22398.070
1166.751, 22399.500
1167.233, 22441.770
1167.715, 22487.551
1168.197, 22533.840
1168.679, 22558.170
1169.162, 22518.779
1169.644, 22474.580
1170.126, 22466.020
1170.608, 22485.869
1171.090, 22516.631
1171.572, 22557.869
1172.054, 22576.080
1172.536, 22556.090
1173.019, 22532.779
1173.501, 22531.270
1173.983, 22544.369
1174.465, 22570.141
1174.947, 22607.211
1175.429, 22637.391
1175.911, 22661.289
1176.393, 22667.760
1176.875, 22638.699
1177.358, 22616.750
1177.840, 22667.170
1178.322, 22742.080
1178.804, 22773.051
1179.286, 22740.561
1179.768, 22738.930
1180.250, 22774.240
1180.732, 22800.039
1181.214, 22772.740
1181.697, 22736.109
1182.179, 22745.279
1182.661, 22782.641
1183.143, 22814.420
1183.625, 22832.439
1184.107, 22851.029
1184.589, 22870.789
1185.071, 22887.711
1185.554, 22902.410
1186.036, 22909.830
1186.518, 22897.010
1187.000, 22870.279
1187.482, 22851.779
1187.964, 22851.109
1188.446, 22844.449
1188.928, 22825.801
1189.411, 22814.570
1189.893, 22850.520
1190.375, 22897.600
1190.857, 22888.699
1191.339, 22830.340
1191.821, 22790.391
1192.303, 22788.410
1192.785, 22794.029
1193.267, 22804.359
1193.750, 22814.939
1194.232, 22817.211
1194.714, 22816.330
1195.196, 22826.949
1195.678, 22849.980
1196.160, 22849.520
1196.642, 22789.619
1197.124, 22761.449
1197.606, 22802.471
1198.089, 22861.949
1198.571, 22833.279
1199.053, 22762.029
1199.535, 22746.580
1200.017, 22816.990
1200.499, 22843.740
1200.981, 22763.811
1201.463, 22705.539
1201.945, 22727.199
1202.428, 22788.301
1202.910, 22806.660
1203.392, 22794.811
1203.874, 22778.410
1204.356, 22759.430
1204.838, 22752.289
1205.320, 22764.561
1205.802, 22779.039
1206.285, 22787.500
1206.767, 22791.461
1207.249, 22791.850
1207.731, 22791.260
1208.213, 22797.189
1208.695, 22819.061
1209.177, 22831.900
1209.659, 22828.609
1210.141, 22822.010
1210.624, 22816.760
1211.106, 22815.971
1211.588, 22842.119
1212.070, 22881.631
1212.552, 22893.230
1213.034, 22806.180
1213.516, 22775.330
1213.998, 22852.551
1214.480, 22928.461
1214.963, 22891.020
1215.445, 22783.490
1215.927, 22745.570
1216.409, 22763.699
1216.891, 22774.830
1217.373, 22738.971
1217.855, 22716.350
1218.337, 22717.100
1218.820, 22731.439
1219.302, 22759.449
1219.784, 22790.779
1220.266, 22793.660
1220.748, 22770.439
1221.230, 22740.891
1221.712, 22694.650
1222.194, 22670.439
1222.677, 22680.820
1223.159, 22703.039
1223.641, 22711.301
1224.123, 22708.150
1224.605, 22695.051
1225.087, 22673.881
1225.569, 22663.250
1226.051, 22665.221
1226.533, 22688.439
1227.016, 22741.480
1227.498, 22804.221
1227.980, 22858.230
1228.462, 22896.641
1228.944, 22895.230
1229.426, 22853.480
1229.908, 22823.529
1230.390, 22834.410
1230.872, 22835.020
1231.355, 22808.350
1231.837, 22777.289
1232.319, 22780.051
1232.801, 22805.551
1233.283, 22837.670
1233.765, 22874.680
1234.247, 22897.730
1234.729, 22894.641
1235.212, 22894.289
1235.694, 22905.770
1236.176, 22921.490
1236.658, 22932.010
1237.140, 22935.910
1237.622, 22926.490
1238.104, 22899.340
1238.586, 22892.199
1239.068, 22921.221
1239.551, 22936.381
1240.033, 22917.230
1240.515, 22881.721
1240.997, 22844.551
1241.479, 22817.471
1241.961, 22813.471
1242.443, 22831.609
1242.925, 22926.029
1243.407, 23143.311
1243.890, 23277.250
1244.372, 23212.580
1244.854, 23067.199
1245.336, 22995.320
1245.818, 22970.529
1246.300, 22959.131
1246.782, 22956.730
1247.264, 22959.051
1247.747, 22965.340
1248.229, 22977.811
1248.711, 23009.270
1249.193, 23028.711
1249.675, 22976.381
1250.157, 22898.039
1250.639, 22862.109
1251.121, 22883.850
1251.604, 22913.840
1252.086, 22957.570
1252.568, 22968.180
1253.050, 22893.061
1253.532, 22814.221
1254.014, 22827.789
1254.496, 22883.820
1254.978, 22909.961
1255.460, 22895.180
1255.943, 22906.090
1256.425, 22943.270
1256.907, 22967.830
1257.389, 22956.699
1257.871, 22925.689
1258.353, 22861.020
1258.835, 22799.119
1259.317, 22789.250
1259.799, 22838.189
1260.281, 22871.180
1260.764, 22889.090
1261.246, 22901.061
1261.728, 22872.711
1262.210, 22887.580
1262.692, 23085.711
1263.174, 23285.119
1263.656, 23269.420
1264.138, 23045.551
1264.621, 22890.270
1265.103, 22803.369
1265.585, 22758.119
1266.067, 22759.609
1266.549, 22776.711
1267.031, 22804.881
1267.513, 22836.141
1267.995, 22862.930
1268.478, 22885.631
1268.960, 22908.301
1269.442, 22931.789
1269.924, 22963.010
1270.406, 23021.311
1270.888, 23062.070
1271.370, 23069.760
1271.852, 23066.221
1272.334, 23070.180
1272.817, 23080.010
1273.299, 23094.461
1273.781, 23111.580
1274.263, 23124.930
1274.745, 23158.539
1275.227, 23138.721
1275.709, 23034.840
1276.191, 22936.180
1276.673, 22945.789
1277.156, 23010.400
1277.638, 23037.910
1278.120, 23033.141
1278.602, 23027.170
1279.084, 23029.760
1279.566, 23024.801
1280.048, 23009.721
1280.530, 22993.961
1281.013, 22983.580
1281.495, 22978.881
1281.977, 22980.779
1282.459, 22988.039
1282.941, 22999.070
1283.423, 23018.070
1283.905, 23016.859
1284.387, 22991.070
1284.870, 22964.020
1285.352, 22946.350
1285.834, 22943.711
1286.316, 22969.080
1286.798, 23011.250
1287.280, 23045.949
1287.762, 23073.619
1288.244, 23085.221
1288.726, 23080.250
1289.208, 23073.619
##END=



