##NAMES=Annabergite
##RRUFFID=R050462
##IDEAL CHEMISTRY=Ni^2+^_3_(As^5+^O_4_)_2_&#183;8H_2_O
##LOCALITY=Plaka mine, Laurium, Attica, Greece
##OWNER=RRUFF
##SOURCE=University of Arizona Mineral Museum
##DESCRIPTION=Green bladed crystals
##STATUS=The identification of this mineral has been confirmed by X-ray diffraction and chemical analysis
##URL=rruff.info/R050462
##MEASURED CHEMISTRY=(Ni_2.97_Zn_0.03_)_Σ=3_(As_1.00_O_4_)_2_·8H_2_O; lighter vein: (Ni_2.95_Zn_0.05_)_Σ=3_(As_1.00_O_4_)_2_·8H_2_O
93.78320, 129.8474
94.26532, 129.6124
94.74744, 130.0960
95.22955, 130.9771
95.71167, 132.2057
96.19379, 133.0181
96.67590, 133.7340
97.15802, 134.0698
97.64014, 133.8619
98.12225, 133.2807
98.60437, 132.6218
99.08649, 132.0155
99.56860, 131.4272
100.0507, 130.7453
100.5328, 129.7016
101.0150, 128.7095
101.4971, 128.1071
101.9792, 127.9024
102.4613, 127.8391
102.9434, 128.0283
103.4255, 128.1888
103.9077, 128.0281
104.3898, 127.3845
104.8719, 126.5895
105.3540, 126.3676
105.8361, 127.1524
106.3182, 127.7549
106.8004, 127.8827
107.2825, 127.7106
107.7646, 127.3897
108.2467, 126.9772
108.7288, 126.4981
109.2109, 126.3660
109.6931, 127.0064
110.1752, 127.5542
110.6573, 127.6520
111.1394, 127.4290
111.6215, 127.2856
112.1036, 127.5983
112.5858, 128.4590
113.0679, 129.0692
113.5500, 129.2137
114.0321, 129.2774
114.5142, 129.5588
114.9964, 130.1044
115.4785, 130.7091
115.9606, 131.1046
116.4427, 131.3027
116.9248, 131.5653
117.4069, 131.9280
117.8891, 132.3960
118.3712, 133.0369
118.8533, 134.0043
119.3354, 134.9114
119.8175, 135.4865
120.2996, 135.7423
120.7818, 135.6728
121.2639, 135.2232
121.7460, 134.3850
122.2281, 133.3884
122.7102, 132.0202
123.1923, 130.6642
123.6745, 129.4838
124.1566, 128.5166
124.6387, 127.7750
125.1208, 127.2865
125.6029, 127.1259
126.0850, 127.0910
126.5672, 127.2953
127.0493, 127.5204
127.5314, 127.5518
128.0135, 127.3097
128.4956, 126.9203
128.9777, 126.7346
129.4599, 127.0222
129.9420, 127.2312
130.4241, 127.2338
130.9062, 127.1484
131.3883, 127.1367
131.8705, 127.2799
132.3526, 127.5808
132.8347, 128.0501
133.3168, 128.8628
133.7989, 129.6330
134.2810, 130.1723
134.7632, 130.5139
135.2453, 130.8366
135.7274, 131.2546
136.2095, 131.7477
136.6916, 132.2198
137.1737, 132.6083
137.6559, 133.0106
138.1380, 133.5758
138.6201, 134.3511
139.1022, 135.0666
139.5843, 135.5190
140.0664, 135.8075
140.5486, 136.0412
141.0307, 136.2465
141.5128, 136.4318
141.9949, 136.6266
142.4770, 136.8743
142.9591, 137.0606
143.4413, 137.0103
143.9234, 136.8720
144.4055, 136.9234
144.8876, 137.4105
145.3697, 138.3351
145.8518, 139.1635
146.3340, 139.8660
146.8161, 140.4857
147.2982, 141.0142
147.7803, 141.4638
148.2624, 141.8517
148.7445, 142.1777
149.2267, 142.3812
149.7088, 142.7850
150.1909, 143.3788
150.6730, 144.1239
151.1551, 145.0660
151.6372, 146.1821
152.1194, 147.3352
152.6015, 148.3779
153.0836, 149.2977
153.5657, 150.0548
154.0478, 150.4848
154.5299, 150.8311
155.0121, 151.3307
155.4942, 152.0443
155.9763, 152.8879
156.4584, 153.7884
156.9405, 154.7660
157.4227, 155.6363
157.9048, 156.4774
158.3869, 157.1709
158.8690, 157.4629
159.3511, 157.2655
159.8332, 156.6345
160.3154, 155.6231
160.7975, 154.2287
161.2796, 152.7808
161.7617, 151.3909
162.2438, 150.0667
162.7259, 149.0225
163.2081, 148.4767
163.6902, 148.1118
164.1723, 147.7238
164.6544, 147.2879
165.1365, 146.8135
165.6186, 146.2756
166.1008, 145.6409
166.5829, 145.1088
167.0650, 144.8786
167.5471, 144.6545
168.0292, 144.2224
168.5113, 143.5366
168.9935, 142.7583
169.4756, 142.1817
169.9577, 142.0170
170.4398, 141.6397
170.9219, 140.7756
171.4040, 139.8389
171.8862, 139.1839
172.3683, 138.9391
172.8504, 138.9651
173.3325, 138.9334
173.8146, 138.9117
174.2967, 138.7287
174.7789, 138.1344
175.2610, 137.4554
175.7431, 137.1117
176.2252, 137.3007
176.7073, 137.8511
177.1894, 138.1999
177.6716, 138.3097
178.1537, 138.2972
178.6358, 138.0569
179.1179, 137.7122
179.6000, 137.4793
180.0821, 137.4462
180.5643, 137.6303
181.0464, 138.0966
181.5285, 139.1884
182.0106, 140.0340
182.4927, 139.9776
182.9749, 139.2247
183.4570, 138.7271
183.9391, 139.0531
184.4212, 139.8726
184.9033, 140.4046
185.3854, 140.5384
185.8676, 140.5499
186.3497, 140.6729
186.8318, 140.9126
187.3139, 141.0824
187.7960, 140.9824
188.2781, 140.8210
188.7603, 140.8591
189.2424, 141.2157
189.7245, 141.6290
190.2066, 141.7346
190.6887, 141.4512
191.1708, 141.1503
191.6530, 140.8015
192.1351, 140.5661
192.6172, 140.6361
193.0993, 141.1045
193.5814, 141.8057
194.0635, 142.4090
194.5457, 142.8598
195.0278, 143.3151
195.5099, 143.7981
195.9920, 144.3049
196.4741, 144.8294
196.9562, 145.3684
197.4384, 145.9276
197.9205, 146.5322
198.4026, 147.2197
198.8847, 147.9021
199.3668, 148.5577
199.8489, 149.2055
200.3311, 149.8610
200.8132, 150.5313
201.2953, 151.2249
201.7774, 151.9675
202.2595, 152.7153
202.7416, 153.5736
203.2238, 154.7426
203.7059, 155.9931
204.1880, 157.0023
204.6701, 157.5836
205.1522, 157.8333
205.6344, 158.1740
206.1165, 158.6307
206.5986, 159.1414
207.0807, 159.8383
207.5628, 160.5739
208.0449, 161.0384
208.5271, 161.0284
209.0092, 160.6887
209.4913, 160.6187
209.9734, 160.9682
210.4555, 161.3416
210.9376, 161.6344
211.4198, 161.8482
211.9019, 161.9684
212.3840, 161.9432
212.8661, 161.8583
213.3482, 161.9647
213.8303, 162.4308
214.3125, 162.8090
214.7946, 162.7727
215.2767, 162.3927
215.7588, 162.0494
216.2409, 161.8993
216.7230, 161.9013
217.2052, 161.9825
217.6873, 162.2464
218.1694, 162.3640
218.6515, 161.9541
219.1336, 161.0397
219.6157, 160.2981
220.0979, 160.2141
220.5800, 160.2764
221.0621, 159.8598
221.5442, 158.7981
222.0263, 157.6678
222.5084, 157.0655
222.9906, 157.0350
223.4727, 157.0286
223.9548, 156.9707
224.4369, 156.8124
224.9190, 156.4934
225.4011, 155.9957
225.8833, 155.4060
226.3654, 154.8415
226.8475, 154.3387
227.3296, 153.6923
227.8117, 152.6285
228.2938, 151.5544
228.7760, 150.7483
229.2581, 150.2593
229.7402, 149.9254
230.2223, 149.5367
230.7044, 149.0659
231.1866, 148.6239
231.6687, 148.1792
232.1508, 147.7945
232.6329, 147.5164
233.1150, 147.3508
233.5971, 147.2684
234.0793, 147.2612
234.5614, 147.4386
235.0435, 147.4094
235.5256, 146.8852
236.0077, 146.3865
236.4898, 146.2862
236.9720, 146.6221
237.4541, 147.1232
237.9362, 147.3960
238.4183, 147.2127
238.9004, 147.3721
239.3825, 148.0958
239.8647, 148.9268
240.3468, 149.5854
240.8289, 150.0301
241.3110, 150.3793
241.7931, 150.7918
242.2752, 151.3250
242.7574, 151.7341
243.2395, 151.9526
243.7216, 152.1158
244.2037, 152.3432
244.6858, 152.6303
245.1679, 152.8462
245.6501, 152.8298
246.1322, 152.4966
246.6143, 152.2587
247.0964, 152.2337
247.5785, 152.2047
248.0606, 152.1006
248.5428, 151.8838
249.0249, 151.4309
249.5070, 150.5693
249.9891, 149.2032
250.4712, 148.1052
250.9533, 147.4596
251.4355, 146.9192
251.9176, 146.2102
252.3997, 145.3392
252.8818, 144.5425
253.3639, 144.0414
253.8460, 143.8486
254.3282, 143.5903
254.8103, 143.0841
255.2924, 142.6558
255.7745, 142.5905
256.2566, 142.8661
256.7387, 143.1936
257.2209, 143.3912
257.7030, 143.4577
258.1851, 143.4860
258.6672, 143.3417
259.1493, 143.2665
259.6314, 143.4888
260.1136, 143.9777
260.5957, 144.4472
261.0778, 144.7437
261.5599, 144.8824
262.0420, 144.9785
262.5241, 145.0290
263.0063, 145.0406
263.4884, 144.8691
263.9705, 144.5683
264.4526, 144.6757
264.9347, 145.7581
265.4168, 147.1999
265.8990, 147.8062
266.3811, 147.2769
266.8632, 146.5463
267.3453, 146.3253
267.8275, 146.5407
268.3096, 146.5908
268.7917, 146.1546
269.2738, 145.5433
269.7559, 145.1404
270.2380, 144.9501
270.7202, 144.9790
271.2023, 145.3451
271.6844, 145.9922
272.1665, 146.5274
272.6486, 146.7709
273.1307, 146.9547
273.6129, 147.3769
274.0950, 148.0362
274.5771, 148.5696
275.0592, 148.6905
275.5413, 148.4590
276.0234, 148.1850
276.5056, 147.7411
276.9877, 147.5152
277.4698, 147.8414
277.9519, 148.6357
278.4340, 149.4749
278.9161, 150.2242
279.3983, 150.8393
279.8804, 151.0882
280.3625, 150.7423
280.8446, 150.3521
281.3267, 150.3000
281.8088, 150.4664
282.2910, 150.5671
282.7731, 150.3691
283.2552, 149.9914
283.7373, 149.8766
284.2194, 150.2336
284.7015, 150.4540
285.1837, 150.1477
285.6658, 149.5604
286.1479, 149.0718
286.6300, 148.9236
287.1121, 148.9118
287.5942, 148.5439
288.0764, 147.6736
288.5585, 146.7832
289.0406, 146.0535
289.5227, 145.3970
290.0048, 144.7227
290.4869, 143.9817
290.9691, 143.2453
291.4512, 142.6192
291.9333, 142.1025
292.4154, 141.7108
292.8975, 141.6273
293.3796, 141.5657
293.8618, 141.2538
294.3439, 140.6234
294.8260, 139.9447
295.3081, 139.6319
295.7902, 139.8062
296.2723, 139.7715
296.7545, 139.1661
297.2366, 138.4900
297.7187, 138.0339
298.2008, 137.8172
298.6829, 137.6551
299.1650, 137.3216
299.6472, 136.7781
300.1293, 136.4136
300.6114, 136.4931
301.0935, 136.5435
301.5756, 136.2439
302.0577, 135.6996
302.5399, 135.2945
303.0220, 135.4370
303.5041, 136.0907
303.9862, 136.4060
304.4683, 136.0756
304.9504, 135.7440
305.4326, 135.6598
305.9147, 135.7434
306.3968, 135.8411
306.8789, 135.8799
307.3610, 135.8510
307.8431, 135.6938
308.3253, 135.2632
308.8074, 134.9387
309.2895, 134.8220
309.7716, 134.8533
310.2537, 134.9929
310.7358, 135.2387
311.2180, 135.5086
311.7001, 135.5989
312.1822, 135.4006
312.6643, 135.2616
313.1464, 135.3360
313.6285, 135.4367
314.1107, 135.3539
314.5928, 135.0410
315.0749, 134.7323
315.5570, 134.8318
316.0392, 135.5136
316.5213, 135.9624
317.0034, 135.8372
317.4855, 135.6581
317.9676, 135.7273
318.4497, 136.0534
318.9319, 136.4294
319.4140, 136.6917
319.8961, 136.8503
320.3782, 136.7961
320.8603, 136.1006
321.3424, 135.6016
321.8246, 135.8150
322.3067, 136.5055
322.7888, 137.0612
323.2709, 136.9824
323.7530, 136.3726
324.2351, 136.0299
324.7173, 136.3016
325.1994, 136.3450
325.6815, 135.6712
326.1636, 134.6934
326.6457, 133.9937
327.1278, 133.8814
327.6100, 134.1496
328.0921, 134.3173
328.5742, 134.3815
329.0563, 134.3401
329.5384, 134.1384
330.0205, 133.8753
330.5027, 133.5930
330.9848, 133.3041
331.4669, 133.1059
331.9490, 133.2038
332.4311, 133.7112
332.9132, 134.0163
333.3954, 133.9179
333.8775, 133.6685
334.3596, 133.3409
334.8417, 132.9659
335.3238, 132.6107
335.8059, 132.3145
336.2881, 132.0758
336.7702, 131.9717
337.2523, 132.0566
337.7344, 132.2328
338.2165, 132.5287
338.6986, 132.8775
339.1808, 133.1338
339.6629, 133.1779
340.1450, 133.0684
340.6271, 133.0127
341.1092, 132.9781
341.5913, 133.0690
342.0735, 133.5210
342.5556, 134.0384
343.0377, 134.1975
343.5198, 133.7621
344.0019, 133.1486
344.4840, 133.0973
344.9662, 133.7668
345.4483, 134.2980
345.9304, 134.2671
346.4125, 134.0945
346.8946, 134.0824
347.3767, 134.2782
347.8589, 134.4813
348.3410, 134.4475
348.8231, 134.1858
349.3052, 134.0814
349.7873, 134.2913
350.2694, 134.5585
350.7516, 134.6969
351.2337, 134.7305
351.7158, 134.7737
352.1979, 134.9487
352.6800, 135.1899
353.1621, 135.2516
353.6443, 135.0441
354.1264, 134.8536
354.6085, 134.8808
355.0906, 135.0283
355.5727, 135.1520
356.0548, 135.2051
356.5370, 135.2147
357.0191, 135.2050
357.5012, 135.1733
357.9833, 135.1566
358.4654, 135.1429
358.9475, 135.1740
359.4297, 135.3118
359.9118, 135.5814
360.3939, 135.8660
360.8760, 136.1213
361.3581, 136.3315
361.8402, 136.3822
362.3224, 136.1269
362.8045, 135.8948
363.2866, 136.0714
363.7687, 136.6131
364.2508, 137.1575
364.7329, 137.6456
365.2151, 138.0224
365.6972, 138.1805
366.1793, 138.0960
366.6614, 137.8742
367.1436, 137.4186
367.6257, 136.8836
368.1078, 136.7531
368.5899, 137.4686
369.0720, 138.2961
369.5541, 138.5724
370.0363, 138.3792
370.5184, 138.2720
371.0005, 138.5766
371.4826, 139.0638
371.9647, 139.1995
372.4468, 138.8615
372.9290, 138.5292
373.4111, 138.3942
373.8932, 138.3884
374.3753, 138.3733
374.8574, 138.3025
375.3395, 138.2835
375.8217, 138.5125
376.3038, 139.0385
376.7859, 139.3457
377.2680, 139.1481
377.7501, 138.8732
378.2322, 138.9503
378.7144, 139.3648
379.1965, 139.7264
379.6786, 139.7153
380.1607, 139.3770
380.6428, 139.2618
381.1249, 139.4749
381.6071, 139.7575
382.0892, 140.0779
382.5713, 140.3982
383.0534, 140.6547
383.5355, 140.8218
384.0176, 140.9128
384.4998, 140.9555
384.9819, 140.9338
385.4640, 140.8854
385.9461, 140.7028
386.4282, 140.5617
386.9103, 140.6068
387.3925, 140.8602
387.8746, 141.2959
388.3567, 141.9459
388.8388, 142.9166
389.3209, 143.2979
389.8030, 142.6360
390.2852, 141.9520
390.7673, 141.5136
391.2494, 141.3595
391.7315, 141.5625
392.2136, 142.2003
392.6957, 143.0823
393.1779, 143.4475
393.6600, 142.7741
394.1421, 142.3008
394.6242, 142.2168
395.1063, 142.3202
395.5884, 142.4536
396.0706, 142.5677
396.5527, 142.6748
397.0348, 142.7908
397.5169, 142.9144
397.9990, 143.0479
398.4811, 143.2517
398.9633, 143.4076
399.4454, 143.4702
399.9275, 143.4441
400.4096, 143.3624
400.8917, 143.2685
401.3738, 143.1261
401.8560, 142.7444
402.3381, 141.9550
402.8202, 141.2491
403.3023, 140.7010
403.7844, 140.3315
404.2665, 140.2417
404.7487, 140.4828
405.2308, 140.7467
405.7129, 140.5930
406.1950, 139.9917
406.6771, 139.5216
407.1592, 139.2492
407.6414, 139.1938
408.1235, 139.5673
408.6056, 140.2430
409.0877, 140.5710
409.5698, 139.7928
410.0519, 138.4581
410.5341, 137.9232
411.0162, 138.3703
411.4983, 139.0478
411.9804, 139.7330
412.4625, 140.2905
412.9446, 140.4303
413.4268, 139.9183
413.9089, 139.2971
414.3910, 139.0099
414.8731, 138.9955
415.3553, 138.9583
415.8374, 138.7977
416.3195, 138.5866
416.8016, 138.3932
417.2837, 138.1985
417.7658, 138.1615
418.2480, 138.3963
418.7301, 138.7728
419.2122, 139.1663
419.6943, 139.5594
420.1764, 139.9403
420.6585, 140.2991
421.1407, 140.6353
421.6228, 140.9474
422.1049, 141.2413
422.5870, 141.5102
423.0691, 141.6879
423.5512, 141.8483
424.0334, 142.1597
424.5155, 142.6949
424.9976, 143.3089
425.4797, 143.7176
425.9618, 143.7272
426.4439, 143.9221
426.9261, 144.3971
427.4082, 144.9785
427.8903, 145.5486
428.3724, 146.1055
428.8545, 146.7357
429.3366, 147.5493
429.8188, 148.5273
430.3009, 149.1357
430.7830, 148.6861
431.2651, 148.6329
431.7472, 149.3901
432.2293, 150.5990
432.7115, 151.9118
433.1936, 153.1839
433.6757, 154.2867
434.1578, 154.9340
434.6399, 154.9574
435.1220, 155.1119
435.6042, 155.4513
436.0863, 155.9329
436.5684, 156.6893
437.0505, 157.6006
437.5326, 158.3116
438.0147, 158.4500
438.4969, 158.2352
438.9790, 158.5070
439.4611, 159.4876
439.9432, 160.3924
440.4253, 160.8988
440.9074, 161.1664
441.3896, 161.3346
441.8717, 161.4342
442.3538, 161.4370
442.8359, 161.2563
443.3180, 160.9312
443.8001, 160.7310
444.2823, 160.8004
444.7644, 160.8332
445.2465, 160.4961
445.7286, 159.8563
446.2107, 159.1694
446.6928, 158.4444
447.1750, 157.7432
447.6571, 157.0896
448.1392, 156.4990
448.6213, 156.1295
449.1034, 156.1911
449.5855, 156.4197
450.0677, 156.0316
450.5498, 154.7702
451.0319, 153.5665
451.5140, 152.4983
451.9961, 151.6869
452.4782, 151.4434
452.9604, 151.7752
453.4425, 152.1369
453.9246, 151.9661
454.4067, 151.2128
454.8888, 150.4245
455.3709, 149.3038
455.8531, 148.4757
456.3352, 148.4339
456.8173, 148.7851
457.2994, 148.8339
457.7815, 148.2566
458.2636, 147.3603
458.7458, 146.7890
459.2279, 146.6824
459.7100, 146.6241
460.1921, 146.7248
460.6742, 146.7610
461.1563, 146.5213
461.6385, 146.0726
462.1206, 145.6980
462.6027, 145.6639
463.0848, 145.8735
463.5669, 145.8000
464.0491, 145.2922
464.5312, 144.8036
465.0133, 144.5611
465.4954, 144.3751
465.9775, 144.0392
466.4597, 143.4963
466.9418, 142.9050
467.4239, 142.4024
467.9060, 141.9789
468.3881, 141.5630
468.8702, 141.1347
469.3524, 140.7299
469.8345, 140.4789
470.3166, 140.2946
470.7987, 139.8936
471.2808, 139.0828
471.7629, 138.1245
472.2451, 137.0803
472.7272, 136.0337
473.2093, 135.4914
473.6914, 135.8088
474.1735, 136.4821
474.6556, 136.4874
475.1378, 135.6415
475.6199, 134.8749
476.1020, 134.3418
476.5841, 133.9309
477.0662, 133.5345
477.5483, 133.1534
478.0305, 132.8768
478.5126, 132.8060
478.9947, 132.8913
479.4768, 132.7044
479.9589, 131.8419
480.4410, 131.1936
480.9232, 130.9309
481.4053, 130.9056
481.8874, 131.0327
482.3695, 131.2598
482.8516, 131.4600
483.3337, 131.4624
483.8159, 131.2389
484.2980, 131.0599
484.7801, 131.0138
485.2622, 130.9100
485.7443, 130.5994
486.2264, 130.2097
486.7086, 129.9567
487.1907, 129.9476
487.6728, 130.0461
488.1549, 130.0624
488.6370, 129.9924
489.1191, 129.9009
489.6013, 129.7867
490.0834, 129.6722
490.5655, 129.5699
491.0476, 129.4815
491.5297, 129.4183
492.0118, 129.4214
492.4940, 129.4322
492.9761, 129.3504
493.4582, 129.1814
493.9403, 129.0719
494.4224, 129.1370
494.9045, 129.2730
495.3867, 129.1826
495.8688, 128.7252
496.3509, 128.4279
496.8330, 128.6046
497.3151, 128.8904
497.7972, 128.8426
498.2794, 128.4445
498.7615, 128.0338
499.2436, 127.9024
499.7257, 128.0346
500.2078, 128.1479
500.6899, 128.3630
501.1721, 128.4100
501.6542, 128.0679
502.1363, 127.6234
502.6184, 127.3854
503.1005, 127.4325
503.5826, 127.6241
504.0648, 127.8211
504.5469, 128.0358
505.0290, 128.1367
505.5111, 128.0830
505.9932, 127.9589
506.4753, 127.7347
506.9575, 127.4844
507.4396, 127.3326
507.9217, 127.3430
508.4038, 127.4047
508.8859, 127.3587
509.3680, 127.2147
509.8502, 127.1636
510.3323, 127.2941
510.8144, 127.4520
511.2965, 127.4855
511.7786, 127.4117
512.2607, 127.3071
512.7429, 127.1009
513.2250, 126.9416
513.7071, 127.0612
514.1892, 127.3699
514.6713, 127.4209
515.1534, 126.9451
515.6356, 126.3218
516.1177, 126.3491
516.5998, 127.5719
517.0819, 128.2166
517.5640, 127.8842
518.0461, 127.2517
518.5283, 126.6447
519.0104, 126.1467
519.4925, 125.8110
519.9746, 125.6703
520.4567, 125.7219
520.9388, 125.9926
521.4210, 126.7367
521.9031, 127.2150
522.3852, 127.1581
522.8673, 126.9800
523.3494, 126.9910
523.8315, 127.1885
524.3137, 127.3528
524.7958, 127.3250
525.2779, 127.1290
525.7600, 126.7906
526.2421, 126.2270
526.7242, 125.8368
527.2064, 125.9356
527.6885, 126.2349
528.1706, 126.3691
528.6527, 126.2910
529.1348, 126.1727
529.6169, 126.0685
530.0991, 125.9931
530.5812, 125.9960
531.0633, 126.0814
531.5454, 126.1261
532.0275, 125.9956
532.5096, 125.7466
532.9918, 125.7804
533.4739, 126.4411
533.9560, 126.8973
534.4381, 126.8790
534.9202, 126.6254
535.4023, 126.3635
535.8845, 126.1525
536.3666, 125.9556
536.8487, 125.7109
537.3308, 125.4184
537.8129, 125.4064
538.2951, 126.1236
538.7772, 126.5241
539.2593, 126.1135
539.7415, 125.4176
540.2236, 124.9771
540.7057, 124.9344
541.1878, 125.0978
541.6699, 125.3886
542.1520, 125.7603
542.6342, 125.8113
543.1163, 125.3246
543.5984, 124.9837
544.0805, 125.4792
544.5626, 126.3781
545.0447, 126.8605
545.5269, 126.6739
546.0090, 126.3349
546.4911, 126.1113
546.9732, 125.9510
547.4553, 125.7138
547.9374, 125.3667
548.4196, 125.1152
548.9017, 125.1903
549.3838, 125.6028
549.8659, 125.8368
550.3480, 125.7840
550.8301, 125.7172
551.3123, 125.6743
551.7944, 125.6753
552.2765, 125.7919
552.7586, 126.0197
553.2407, 126.1861
553.7228, 126.0078
554.2050, 125.4455
554.6871, 125.2985
555.1692, 126.0481
555.6513, 126.5239
556.1334, 126.0220
556.6155, 125.1492
557.0977, 124.7291
557.5798, 125.0217
558.0619, 125.4483
558.5440, 125.4118
559.0261, 125.0658
559.5082, 125.0616
559.9904, 125.5798
560.4725, 126.0152
560.9546, 125.8165
561.4367, 125.1217
561.9188, 124.7032
562.4009, 124.7408
562.8831, 124.8388
563.3652, 124.8712
563.8473, 124.8683
564.3294, 124.8227
564.8115, 124.7532
565.2936, 124.8183
565.7758, 125.2258
566.2579, 125.9797
566.7400, 126.3548
567.2221, 126.0085
567.7042, 125.6766
568.1863, 125.4877
568.6685, 125.3679
569.1506, 125.2088
569.6327, 125.0001
570.1148, 124.8740
570.5969, 125.0984
571.0790, 125.5700
571.5612, 125.5387
572.0433, 124.7727
572.5254, 124.1532
573.0075, 124.3288
573.4896, 124.8401
573.9717, 124.9715
574.4539, 124.5598
574.9360, 124.1653
575.4181, 124.0682
575.9002, 124.1393
576.3823, 124.1828
576.8644, 124.1859
577.3466, 124.3073
577.8287, 124.7112
578.3108, 125.2869
578.7929, 125.4859
579.2750, 124.9464
579.7571, 124.4923
580.2393, 124.0510
580.7214, 123.7933
581.2035, 123.9969
581.6856, 124.5578
582.1677, 125.0186
582.6498, 125.0137
583.1320, 124.6682
583.6141, 124.4022
584.0962, 124.2230
584.5783, 124.0918
585.0604, 123.9667
585.5425, 123.9155
586.0247, 124.0277
586.5068, 124.2915
586.9889, 124.5420
587.4710, 124.7879
587.9531, 124.9323
588.4352, 124.7954
588.9174, 124.4246
589.3995, 124.0856
589.8816, 123.8891
590.3637, 123.7938
590.8458, 123.7149
591.3279, 123.5928
591.8101, 123.6860
592.2922, 124.2711
592.7743, 124.7950
593.2564, 124.8481
593.7385, 124.6392
594.2206, 124.6446
594.7028, 125.0840
595.1849, 125.6325
595.6670, 125.6816
596.1491, 125.1378
596.6312, 124.8074
597.1133, 124.9380
597.5955, 125.0293
598.0776, 124.7109
598.5597, 124.1868
599.0418, 123.8469
599.5239, 123.8188
600.0060, 123.9383
600.4882, 124.1660
600.9703, 124.4331
601.4524, 124.5432
601.9345, 124.4529
602.4166, 124.3411
602.8987, 124.3810
603.3809, 124.5538
603.8630, 124.5814
604.3451, 124.2231
604.8272, 124.0470
605.3093, 124.2946
605.7914, 124.6872
606.2736, 124.9974
606.7557, 125.1675
607.2378, 125.1986
607.7199, 125.0506
608.2020, 124.7823
608.6841, 124.7160
609.1663, 124.9516
609.6484, 125.1023
610.1305, 125.0100
610.6126, 124.8142
611.0947, 124.5988
611.5768, 124.3748
612.0590, 124.2173
612.5411, 124.1793
613.0232, 124.2090
613.5053, 124.2615
613.9874, 124.3323
614.4695, 124.4236
614.9517, 124.5481
615.4338, 124.6432
615.9159, 124.5941
616.3980, 124.3298
616.8801, 124.1649
617.3622, 124.2081
617.8444, 124.2209
618.3265, 124.0163
618.8086, 123.7400
619.2907, 123.6320
619.7728, 123.7778
620.2549, 124.0489
620.7371, 124.3490
621.2192, 124.6684
621.7013, 124.7469
622.1834, 124.4864
622.6655, 124.1751
623.1476, 123.8494
623.6298, 123.6248
624.1119, 123.7689
624.5940, 124.4802
625.0761, 125.0180
625.5582, 124.9398
626.0403, 124.5582
626.5225, 124.1682
627.0046, 123.8415
627.4867, 123.7309
627.9688, 123.9668
628.4509, 124.4114
628.9330, 124.6116
629.4152, 124.4309
629.8973, 124.2473
630.3794, 123.9791
630.8615, 123.7973
631.3436, 123.9275
631.8257, 124.2188
632.3079, 124.2604
632.7900, 123.7713
633.2721, 123.1769
633.7542, 123.1603
634.2363, 123.6467
634.7184, 123.9330
635.2006, 123.8414
635.6827, 123.6566
636.1648, 123.6046
636.6469, 123.6776
637.1291, 123.7715
637.6112, 124.0243
638.0933, 124.1278
638.5754, 123.7883
639.0576, 123.3527
639.5397, 123.1918
640.0218, 123.3681
640.5039, 123.7959
640.9860, 124.4695
641.4681, 125.2765
641.9503, 125.6578
642.4324, 125.4872
642.9145, 125.2037
643.3966, 124.7186
643.8787, 124.2912
644.3608, 124.1557
644.8430, 124.2602
645.3251, 124.3141
645.8072, 124.1530
646.2893, 123.9284
646.7714, 123.7659
647.2535, 123.6666
647.7357, 123.6487
648.2178, 123.7217
648.6999, 123.8363
649.1820, 123.9657
649.6641, 124.1227
650.1462, 124.0403
650.6284, 123.3393
651.1105, 122.8847
651.5926, 122.9998
652.0747, 123.3535
652.5568, 123.6330
653.0389, 123.7857
653.5211, 123.9235
654.0032, 124.1530
654.4853, 124.4274
654.9674, 124.6164
655.4495, 124.7155
655.9316, 124.7603
656.4138, 124.7192
656.8959, 124.6815
657.3780, 124.7836
657.8601, 125.0186
658.3422, 125.2445
658.8243, 125.6120
659.3065, 125.7902
659.7886, 125.3963
660.2707, 124.7562
660.7528, 124.4136
661.2349, 124.5196
661.7170, 124.8112
662.1992, 125.0145
662.6813, 125.1305
663.1634, 125.1768
663.6455, 125.1185
664.1276, 125.0587
664.6097, 125.0520
665.0919, 125.0427
665.5740, 124.9659
666.0561, 124.8206
666.5382, 124.6985
667.0203, 124.6107
667.5024, 124.5874
667.9846, 124.7319
668.4667, 124.9778
668.9488, 125.0570
669.4309, 124.8586
669.9130, 124.6481
670.3951, 124.8256
670.8773, 125.4860
671.3594, 125.7645
671.8415, 125.3689
672.3236, 124.9247
672.8057, 124.4670
673.2878, 124.0817
673.7700, 123.8565
674.2521, 123.8033
674.7342, 123.8564
675.2163, 124.0211
675.6984, 124.2394
676.1805, 124.4609
676.6627, 124.6761
677.1448, 124.5591
677.6269, 123.8570
678.1090, 123.0794
678.5911, 122.9712
679.0732, 123.6872
679.5554, 124.2380
680.0375, 124.7145
680.5196, 124.9302
681.0017, 124.6587
681.4838, 124.1610
681.9659, 123.6922
682.4481, 123.3452
682.9302, 123.1988
683.4123, 123.4642
683.8944, 123.9663
684.3765, 123.8955
684.8586, 123.1198
685.3408, 122.5792
685.8229, 122.7354
686.3050, 123.1059
686.7871, 122.9857
687.2692, 122.3931
687.7513, 122.1277
688.2335, 122.6471
688.7156, 123.1630
689.1977, 123.2183
689.6798, 123.0051
690.1619, 122.7984
690.6440, 122.6850
691.1262, 122.6754
691.6083, 122.8177
692.0904, 123.0703
692.5725, 123.0997
693.0546, 122.7972
693.5367, 122.5921
694.0189, 122.6380
694.5010, 122.8027
694.9831, 123.0557
695.4652, 123.3588
695.9473, 123.4340
696.4294, 122.9889
696.9116, 122.5010
697.3937, 122.3118
697.8758, 122.3076
698.3579, 122.2857
698.8400, 122.1960
699.3221, 122.0810
699.8043, 121.9767
700.2864, 121.8851
700.7685, 121.8204
701.2506, 121.7659
701.7327, 121.7712
702.2148, 121.8570
702.6970, 121.9963
703.1791, 122.2470
703.6612, 122.5501
704.1433, 122.6913
704.6254, 122.4901
705.1075, 122.2332
705.5897, 122.1390
706.0718, 122.1655
706.5539, 122.2825
707.0360, 122.4681
707.5181, 122.5225
708.0002, 122.2418
708.4824, 121.7367
708.9645, 121.5722
709.4466, 121.9339
709.9287, 122.2869
710.4108, 122.7837
710.8929, 123.0769
711.3751, 122.7862
711.8572, 122.1429
712.3393, 121.7510
712.8214, 121.8970
713.3035, 122.1607
713.7856, 122.1738
714.2678, 122.0392
714.7499, 121.9989
715.2320, 122.0772
715.7141, 122.1001
716.1962, 121.9434
716.6783, 121.6679
717.1605, 121.4439
717.6426, 121.2057
718.1247, 121.1554
718.6068, 121.4747
719.0889, 121.7818
719.5710, 121.9416
720.0532, 121.9612
720.5353, 121.8214
721.0174, 121.4886
721.4995, 121.2461
721.9816, 121.4441
722.4637, 121.8506
722.9459, 121.9794
723.4280, 121.8188
723.9101, 121.6541
724.3922, 121.6188
724.8743, 121.6815
725.3564, 121.8052
725.8386, 122.0675
726.3207, 122.1069
726.8028, 121.6491
727.2849, 121.2921
727.7670, 121.2485
728.2491, 121.3895
728.7313, 121.5966
729.2134, 121.8356
729.6955, 122.0064
730.1776, 121.9998
730.6597, 121.9038
731.1418, 121.8666
731.6240, 121.8740
732.1061, 121.2881
732.5882, 121.9082
733.0703, 122.2666
733.5524, 122.3774
734.0345, 121.4987
734.5167, 121.8977
734.9988, 121.7846
735.4809, 121.6506
735.9631, 122.2294
736.4452, 121.4946
736.9273, 122.0621
737.4094, 122.1098
737.8915, 122.3953
738.3737, 122.1657
738.8558, 122.0952
739.3379, 122.5401
739.8200, 122.6996
740.3021, 122.4107
740.7842, 122.7114
741.2664, 121.9586
741.7485, 122.1303
742.2306, 122.7008
742.7127, 122.4378
743.1948, 122.7479
743.6769, 122.8397
744.1591, 121.9396
744.6412, 122.7646
745.1233, 122.8435
745.6054, 122.1564
746.0875, 122.5197
746.5696, 122.0490
747.0518, 121.5982
747.5339, 121.7116
748.0160, 122.0912
748.4981, 122.2283
748.9802, 122.1081
749.4623, 121.9475
749.9445, 121.8490
750.4266, 121.8153
750.9087, 121.8622
751.3908, 122.0216
751.8729, 122.1088
752.3550, 122.0050
752.8372, 121.9899
753.3193, 122.2493
753.8014, 122.5793
754.2835, 122.7519
754.7656, 122.7425
755.2477, 122.6931
755.7299, 122.6100
756.2120, 122.5678
756.6941, 122.7294
757.1762, 122.9766
757.6583, 122.9536
758.1404, 122.5859
758.6226, 122.2703
759.1047, 122.4371
759.5868, 122.9874
760.0689, 123.2064
760.5510, 122.8999
761.0331, 122.7847
761.5153, 123.1734
761.9974, 123.6143
762.4795, 123.7239
762.9616, 123.6163
763.4437, 123.6808
763.9258, 124.1577
764.4080, 124.5292
764.8901, 124.3157
765.3722, 124.0107
765.8543, 124.3002
766.3364, 125.0777
766.8185, 125.6934
767.3007, 125.7859
767.7828, 125.6361
768.2649, 125.8092
768.7470, 126.3295
769.2291, 126.3470
769.7112, 125.4849
770.1934, 125.0509
770.6755, 125.9699
771.1576, 127.4970
771.6397, 128.3353
772.1218, 128.3923
772.6039, 128.5440
773.0861, 129.1131
773.5682, 129.6143
774.0503, 129.6128
774.5324, 129.4670
775.0145, 129.7385
775.4966, 130.5039
775.9788, 131.3389
776.4609, 131.8569
776.9430, 132.2320
777.4251, 132.8791
777.9072, 133.7965
778.3893, 134.8999
778.8715, 136.2561
779.3536, 137.4754
779.8357, 138.1165
780.3178, 138.3111
780.7999, 138.9506
781.2820, 140.2058
781.7642, 141.6570
782.2463, 143.3517
782.7284, 145.1792
783.2105, 147.1897
783.6926, 149.2478
784.1747, 151.0285
784.6569, 152.3906
785.1390, 153.8612
785.6211, 156.0299
786.1032, 158.5927
786.5853, 160.9150
787.0674, 163.0081
787.5496, 165.3314
788.0317, 168.0886
788.5138, 170.9557
788.9959, 173.4324
789.4780, 175.4733
789.9601, 177.7768
790.4423, 180.4534
790.9244, 183.2225
791.4065, 186.1783
791.8886, 189.0816
792.3707, 191.6218
792.8528, 193.9011
793.3350, 196.5655
793.8171, 200.2471
794.2992, 203.8218
794.7813, 206.5814
795.2634, 208.8362
795.7455, 210.9756
796.2277, 213.0618
796.7098, 215.0432
797.1919, 216.9023
797.6740, 218.6053
798.1561, 220.1090
798.6382, 221.4148
799.1204, 222.4558
799.6025, 223.2353
800.0846, 223.7108
800.5667, 223.6741
801.0488, 223.4516
801.5309, 223.8420
802.0131, 225.1082
802.4952, 225.3064
802.9773, 223.5567
803.4594, 221.5212
803.9415, 220.0151
804.4236, 218.5572
804.9058, 216.4932
805.3879, 213.7924
805.8700, 210.9881
806.3521, 208.4699
806.8342, 206.0039
807.3163, 203.2752
807.7985, 200.3076
808.2806, 197.1685
808.7627, 193.8699
809.2448, 190.5008
809.7269, 187.0961
810.2090, 183.6717
810.6912, 180.2637
811.1733, 176.7343
811.6554, 173.5271
812.1375, 170.7336
812.6196, 168.1646
813.1017, 165.9497
813.5839, 163.8244
814.0660, 161.3634
814.5481, 158.4855
815.0302, 155.9016
815.5123, 154.0054
815.9944, 152.4402
816.4766, 150.9695
816.9587, 149.6023
817.4408, 148.4789
817.9229, 147.5800
818.4050, 146.5810
818.8871, 145.1384
819.3693, 143.5409
819.8514, 142.6801
820.3335, 142.6037
820.8156, 142.1064
821.2977, 140.8825
821.7798, 139.5815
822.2620, 138.5867
822.7441, 137.8442
823.2262, 137.2226
823.7083, 136.8648
824.1904, 136.2871
824.6725, 135.1510
825.1547, 134.1483
825.6368, 133.7912
826.1189, 133.6589
826.6010, 133.0706
827.0831, 131.9535
827.5652, 131.0494
828.0474, 131.1248
828.5295, 131.4422
829.0116, 131.0377
829.4937, 130.1708
829.9758, 129.4508
830.4579, 129.0250
830.9401, 128.9078
831.4222, 129.1551
831.9043, 129.5930
832.3864, 129.6912
832.8685, 129.3984
833.3506, 128.9897
833.8328, 128.3533
834.3149, 127.8524
834.7971, 127.7523
835.2792, 127.8865
835.7613, 127.9204
836.2434, 127.7981
836.7255, 127.8851
837.2076, 128.4681
837.6898, 129.0142
838.1719, 129.2540
838.6540, 129.3173
839.1361, 129.3379
839.6182, 129.3596
840.1003, 129.4048
840.5825, 129.4354
841.0646, 129.5900
841.5467, 130.2102
842.0288, 131.1107
842.5109, 131.6193
842.9930, 131.6644
843.4752, 131.7147
843.9573, 132.0406
844.4394, 132.6022
844.9215, 133.3339
845.4036, 134.2825
845.8857, 135.1896
846.3679, 136.1472
846.8500, 136.9011
847.3321, 137.1310
847.8142, 137.2675
848.2963, 137.8517
848.7784, 138.8542
849.2606, 139.6136
849.7427, 139.6060
850.2248, 139.8288
850.7069, 140.8369
851.1890, 142.1469
851.6711, 143.3849
852.1533, 144.4591
852.6354, 145.3076
853.1175, 145.8850
853.5996, 146.3521
854.0817, 146.9372
854.5638, 147.5516
855.0460, 147.8840
855.5281, 147.9551
856.0102, 148.1275
856.4923, 148.5495
856.9744, 149.1098
857.4565, 149.6884
857.9387, 150.2808
858.4208, 150.7251
858.9029, 151.0373
859.3850, 151.1563
859.8671, 151.0195
860.3492, 150.7355
860.8314, 150.3154
861.3135, 149.8176
861.7956, 149.4194
862.2777, 149.2563
862.7598, 148.9158
863.2419, 148.1745
863.7241, 147.3426
864.2062, 146.5517
864.6883, 145.8478
865.1704, 145.3061
865.6525, 144.9263
866.1346, 144.5311
866.6168, 144.0110
867.0989, 143.3647
867.5810, 142.6471
868.0631, 141.8042
868.5452, 140.5599
869.0273, 138.8812
869.5095, 137.2517
869.9916, 136.0161
870.4737, 135.0883
870.9558, 134.2931
871.4379, 133.6778
871.9200, 132.8882
872.4022, 131.8352
872.8843, 130.7746
873.3664, 129.8006
873.8485, 128.8898
874.3306, 128.0123
874.8127, 127.1619
875.2949, 126.4082
875.7770, 125.8103
876.2591, 125.2432
876.7412, 124.6947
877.2233, 124.1496
877.7054, 123.6008
878.1876, 123.0487
878.6697, 122.5013
879.1518, 121.9799
879.6339, 121.3966
880.1160, 120.6085
880.5981, 119.7645
881.0803, 119.0136
881.5624, 118.3919
882.0445, 117.9826
882.5266, 117.8053
883.0087, 117.7108
883.4908, 117.5480
883.9730, 117.3378
884.4551, 117.1580
884.9372, 117.0075
885.4193, 116.9460
885.9014, 117.0394
886.3835, 117.0207
886.8657, 116.6782
887.3478, 116.1063
887.8299, 115.5226
888.3120, 114.7258
888.7941, 114.4655
889.2762, 115.3505
889.7584, 116.0265
890.2405, 116.0529
890.7226, 115.7043
891.2047, 115.1178
891.6868, 114.3787
892.1689, 113.9097
892.6511, 114.0308
893.1332, 114.2071
893.6153, 114.2256
894.0974, 114.1215
894.5795, 113.8629
895.0616, 113.5212
895.5438, 113.2538
896.0259, 113.1237
896.5080, 113.1076
896.9901, 113.2867
897.4722, 113.5228
897.9543, 113.4481
898.4365, 113.1099
898.9186, 112.7881
899.4007, 112.5607
899.8828, 112.4084
900.3649, 112.3124
900.8470, 112.2788
901.3292, 112.3490
901.8113, 112.5557
902.2934, 112.7081
902.7755, 112.8148
903.2576, 112.8091
903.7397, 112.5768
904.2219, 112.2747
904.7040, 112.1626
905.1861, 112.2666
905.6682, 112.3788
906.1503, 112.6383
906.6324, 112.7207
907.1146, 112.4641
907.5967, 112.0740
908.0788, 111.5510
908.5609, 111.0503
909.0430, 111.0145
909.5251, 111.7451
910.0073, 112.2844
910.4894, 111.8392
910.9715, 111.1337
911.4536, 110.8498
911.9357, 110.8928
912.4178, 110.9990
912.9000, 111.0871
913.3821, 111.1796
913.8642, 111.3058
914.3463, 111.4303
914.8284, 111.4826
915.3105, 111.4739
915.7927, 111.4471
916.2748, 111.4096
916.7569, 111.3757
917.2390, 111.3476
917.7211, 111.3663
918.2032, 111.5445
918.6854, 111.8983
919.1675, 111.9284
919.6496, 111.5312
920.1317, 111.1101
920.6138, 110.6467
921.0959, 110.3756
921.5781, 110.6517
922.0602, 111.3074
922.5423, 111.5033
923.0244, 110.8936
923.5065, 110.4901
923.9886, 110.4502
924.4708, 110.4895
924.9529, 110.5013
925.4350, 110.5105
925.9171, 110.5741
926.3992, 110.6891
926.8813, 110.7598
927.3635, 110.8149
927.8456, 110.7369
928.3277, 110.2777
928.8098, 109.7791
929.2919, 109.6594
929.7740, 109.8476
930.2562, 110.0517
930.7383, 110.1524
931.2204, 110.1762
931.7025, 110.0938
932.1846, 109.9811
932.6667, 110.0114
933.1489, 110.1409
933.6310, 109.5441
934.1132, 110.2705
934.5953, 110.6493
935.0774, 110.6992
935.5595, 109.4348
936.0416, 109.8675
936.5237, 109.6200
937.0059, 109.3447
937.4880, 110.0162
937.9701, 108.9430
938.4522, 109.5995
938.9343, 109.5655
939.4164, 109.8476
939.8986, 109.4453
940.3807, 109.2544
940.8628, 109.7480
941.3449, 109.8626
941.8270, 109.3816
942.3091, 109.6837
942.7913, 108.5866
943.2734, 108.7173
943.7555, 109.3778
944.2376, 108.9312
944.7197, 109.2459
945.2018, 109.2706
945.6840, 107.9777
946.1661, 108.9762
946.6482, 108.9838
947.1303, 107.9739
947.6124, 108.8939
948.0945, 108.0242
948.5767, 107.7934
949.0588, 108.0433
949.5409, 107.7920
950.0230, 108.3309
950.5051, 108.1086
950.9872, 108.1356
951.4694, 108.2967
951.9515, 108.2340
952.4336, 108.0499
952.9157, 107.7893
953.3978, 107.5199
953.8799, 107.3134
954.3621, 107.1820
954.8442, 107.2273
955.3263, 107.4101
955.8084, 107.3994
956.2905, 107.0638
956.7726, 106.7087
957.2548, 106.7057
957.7369, 106.9527
958.2190, 106.9794
958.7011, 106.7725
959.1832, 106.5963
959.6653, 106.4709
960.1475, 106.5017
960.6296, 106.8302
961.1117, 107.1889
961.5938, 107.0293
962.0759, 106.2545
962.5580, 105.9260
963.0402, 106.3299
963.5223, 106.5743
964.0044, 106.3701
964.4865, 106.0680
964.9686, 105.8730
965.4507, 105.7951
965.9329, 105.8867
966.4150, 106.2869
966.8971, 106.4788
967.3792, 106.2195
967.8613, 106.0016
968.3434, 106.1110
968.8256, 106.2681
969.3077, 106.1416
969.7898, 105.7816
970.2719, 105.5321
970.7540, 105.5308
971.2361, 105.5520
971.7183, 105.4680
972.2004, 105.4036
972.6825, 105.4624
973.1646, 105.6068
973.6467, 105.8264
974.1288, 106.0815
974.6110, 106.1751
975.0931, 105.9382
975.5752, 105.5857
976.0573, 105.2651
976.5394, 104.9862
977.0215, 104.7308
977.5037, 104.5306
977.9858, 104.5141
978.4679, 104.7131
978.9500, 104.9207
979.4321, 104.9199
979.9142, 104.8069
980.3964, 104.7669
980.8785, 104.7815
981.3606, 104.8038
981.8427, 104.8188
982.3248, 104.7417
982.8069, 104.5179
983.2891, 104.3225
983.7712, 104.4886
984.2533, 104.9267
984.7354, 104.8765
985.2175, 104.3154
985.6996, 104.1286
986.1818, 104.5603
986.6639, 105.0344
987.1460, 105.1609
987.6281, 105.0239
988.1102, 104.7856
988.5923, 104.4188
989.0745, 104.1301
989.5566, 103.8802
990.0387, 103.8362
990.5208, 104.1197
991.0029, 104.5007
991.4850, 104.8486
991.9672, 105.1117
992.4493, 105.0747
992.9314, 104.5733
993.4135, 104.1629
993.8956, 103.7829
994.3777, 103.5791
994.8599, 103.7431
995.3420, 103.9890
995.8241, 104.0786
996.3062, 104.0163
996.7883, 103.8490
997.2704, 103.3799
997.7526, 103.1653
998.2347, 103.5359
998.7168, 103.8875
999.1989, 103.8402
999.6810, 103.6536
1000.163, 103.6692
1000.645, 103.8963
1001.127, 104.1051
1001.609, 104.2902
1002.092, 104.3439
1002.574, 104.1771
1003.056, 103.9070
1003.538, 103.4866
1004.020, 103.0904
1004.502, 103.0551
1004.984, 103.3982
1005.466, 103.6689
1005.949, 103.6243
1006.431, 103.4336
1006.913, 103.0077
1007.395, 102.6608
1007.877, 102.9895
1008.359, 103.6770
1008.841, 103.8345
1009.323, 103.2373
1009.805, 102.6038
1010.288, 102.5348
1010.770, 102.6666
1011.252, 102.4862
1011.734, 102.2236
1012.216, 102.4269
1012.698, 102.9838
1013.180, 103.2521
1013.662, 102.9778
1014.145, 102.5633
1014.627, 102.4192
1015.109, 102.4136
1015.591, 102.2372
1016.073, 101.9767
1016.555, 101.9706
1017.037, 102.2200
1017.519, 102.3696
1018.001, 102.2381
1018.484, 102.0596
1018.966, 102.1878
1019.448, 102.4976
1019.930, 102.4659
1020.412, 102.1460
1020.894, 102.0535
1021.376, 102.2747
1021.858, 102.5824
1022.341, 102.8673
1022.823, 103.0231
1023.305, 102.8270
1023.787, 102.3308
1024.269, 102.0473
1024.751, 101.9847
1025.233, 101.9823
1025.715, 102.0197
1026.198, 102.0341
1026.680, 101.9762
1027.162, 101.8992
1027.644, 101.8909
1028.126, 101.9504
1028.608, 102.2012
1029.090, 102.7428
1029.572, 102.9645
1030.054, 102.6461
1030.536, 102.2489
1031.019, 102.0861
1031.501, 102.0553
1031.983, 101.9361
1032.465, 101.7179
1032.947, 101.4672
1033.429, 101.0737
1033.911, 100.9508
1034.393, 101.3065
1034.876, 101.7531
1035.358, 102.0906
1035.840, 102.2689
1036.322, 102.1244
1036.804, 101.5322
1037.286, 101.2332
1037.768, 101.5312
1038.250, 101.5625
1038.733, 100.8943
1039.215, 100.2058
1039.697, 99.95198
1040.179, 100.0491
1040.661, 100.3353
1041.143, 100.9428
1041.625, 101.2527
1042.107, 100.9923
1042.589, 100.8099
1043.072, 100.8590
1043.554, 100.9999
1044.036, 101.2735
1044.518, 101.5396
1045.000, 101.4039
1045.482, 100.6884
1045.964, 100.2496
1046.446, 100.1905
1046.928, 100.3540
1047.411, 101.1152
1047.893, 101.6995
1048.375, 101.2826
1048.857, 100.3064
1049.339, 99.88136
1049.821, 100.2317
1050.303, 100.5012
1050.785, 100.5766
1051.268, 100.5303
1051.750, 100.2972
1052.232, 100.0300
1052.714, 99.79380
1053.196, 99.62973
1053.678, 99.65603
1054.160, 99.94005
1054.642, 100.0559
1055.125, 99.64848
1055.607, 99.39088
1056.089, 99.73812
1056.571, 100.1481
1057.053, 100.1528
1057.535, 99.87621
1058.017, 99.59457
1058.499, 99.33615
1058.981, 99.32137
1059.464, 99.97742
1059.946, 100.4230
1060.428, 100.0829
1060.910, 99.58062
1061.392, 99.41422
1061.874, 99.51053
1062.356, 99.67294
1062.838, 99.86983
1063.320, 99.92366
1063.803, 99.59123
1064.285, 99.33565
1064.767, 99.51187
1065.249, 99.71666
1065.731, 99.44429
1066.213, 98.99143
1066.695, 99.06426
1067.177, 99.78805
1067.660, 100.3080
1068.142, 100.1292
1068.624, 99.87437
1069.106, 99.75779
1069.588, 99.75658
1070.070, 99.99368
1070.552, 100.2710
1071.034, 100.1851
1071.516, 99.69076
1071.999, 99.30923
1072.481, 99.40792
1072.963, 99.46592
1073.445, 99.13645
1073.927, 98.76713
1074.409, 98.62849
1074.891, 98.66042
1075.373, 98.77988
1075.855, 98.94707
1076.338, 99.00711
1076.820, 98.77018
1077.302, 98.62605
1077.784, 98.85416
1078.266, 99.15759
1078.748, 99.40537
1079.230, 99.51985
1079.712, 99.32926
1080.195, 98.87998
1080.677, 98.55654
1081.159, 98.54638
1081.641, 98.59474
1082.123, 98.58598
1082.605, 98.58939
1083.087, 98.73166
1083.569, 98.86980
1084.052, 98.77065
1084.534, 98.46312
1085.016, 98.20789
1085.498, 98.08327
1085.980, 98.04577
1086.462, 98.12559
1086.944, 98.23070
1087.426, 98.35281
1087.908, 98.43053
1088.391, 98.36412
1088.873, 98.18951
1089.355, 98.03615
1089.837, 97.91981
1090.319, 97.92385
1090.801, 98.27056
1091.283, 98.52355
1091.765, 98.28218
1092.248, 97.95234
1092.730, 98.05596
1093.212, 98.41931
1093.694, 98.46160
1094.176, 98.00967
1094.658, 97.56639
1095.140, 97.17935
1095.622, 97.00481
1096.104, 97.26196
1096.587, 97.62621
1097.069, 97.94651
1097.551, 98.11117
1098.033, 97.84769
1098.515, 97.08652
1098.997, 96.60658
1099.479, 96.87502
1099.961, 97.12592
1100.443, 97.11184
1100.926, 96.98070
1101.408, 96.67862
1101.890, 96.41150
1102.372, 96.59146
1102.854, 97.22533
1103.336, 97.59415
1103.818, 97.35156
1104.300, 97.10640
1104.783, 96.93676
1105.265, 96.85811
1105.747, 96.93999
1106.229, 97.07651
1106.711, 97.18448
1107.193, 97.23720
1107.675, 97.10282
1108.157, 96.52182
1108.640, 96.22205
1109.122, 96.51860
1109.604, 96.83223
1110.086, 96.93406
1110.568, 96.95222
1111.050, 96.98409
1111.532, 97.04080
1112.014, 97.17314
1112.496, 97.51472
1112.979, 97.57067
1113.461, 97.08504
1113.943, 96.63605
1114.425, 96.35617
1114.907, 96.16264
1115.389, 95.97039
1115.871, 95.83366
1116.353, 95.91181
1116.835, 96.27456
1117.318, 96.42819
1117.800, 96.13445
1118.282, 96.08990
1118.764, 96.66849
1119.246, 97.09964
1119.728, 96.88781
1120.210, 96.34541
1120.692, 95.90604
1121.175, 95.57021
1121.657, 95.43126
1122.139, 95.55964
1122.621, 95.68858
1123.103, 95.78686
1123.585, 95.93037
1124.067, 96.23672
1124.549, 96.41945
1125.031, 96.08803
1125.514, 95.39647
1125.996, 95.08896
1126.478, 95.23494
1126.960, 95.40779
1127.442, 95.62823
1127.924, 95.69673
1128.406, 95.50576
1128.888, 95.35005
1129.370, 95.49419
1129.853, 95.76717
1130.335, 95.71673
1130.817, 95.34436
1131.299, 95.37767
1131.781, 95.84733
1132.263, 96.02367
1132.745, 95.74266
1133.227, 95.51811
1133.710, 95.66383
1134.192, 95.88015
1134.674, 95.67107
1135.156, 95.20791
1135.638, 95.30046
1136.120, 95.84976
1136.602, 96.04293
1137.084, 95.81907
1137.567, 95.61691
1138.049, 95.60881
1138.531, 95.63393
1139.013, 95.52825
1139.495, 95.38377
1139.977, 95.35928
1140.459, 95.44813
1140.941, 95.69130
1141.423, 96.03139
1141.906, 96.29708
1142.388, 96.42642
1142.870, 96.31922
1143.352, 95.87048
1143.834, 95.45142
1144.316, 95.65972
1144.798, 96.05751
1145.280, 95.91019
1145.762, 95.46460
1146.245, 95.22788
1146.727, 95.23370
1147.209, 95.28577
1147.691, 95.30712
1148.173, 95.31733
1148.655, 95.32127
1149.137, 95.33321
1149.619, 95.36192
1150.102, 95.40926
1150.584, 95.49343
1151.066, 95.59178
1151.548, 95.68121
1152.030, 95.74553
1152.512, 95.71375
1152.994, 95.49148
1153.476, 95.29712
1153.958, 95.36876
1154.441, 95.35867
1154.923, 94.80690
1155.405, 94.19878
1155.887, 94.17537
1156.369, 94.64358
1156.851, 95.07415
1157.333, 95.39468
1157.815, 95.57034
1158.297, 95.51833
1158.780, 95.42240
1159.262, 95.32688
1159.744, 95.22201
1160.226, 95.08327
1160.708, 94.93693
1161.190, 94.82321
1161.672, 94.74216
1162.154, 94.71877
1162.637, 94.77698
1163.119, 94.85038
1163.601, 94.95932
1164.083, 95.03925
1164.565, 95.06340
1165.047, 95.04158
1165.529, 94.94759
1166.011, 94.83371
1166.494, 94.95888
1166.976, 95.43886
1167.458, 95.52390
1167.940, 95.10561
1168.422, 94.87448
1168.904, 95.05659
1169.386, 95.09982
1169.868, 94.60021
1170.350, 93.90697
1170.833, 93.59023
1171.315, 93.60387
1171.797, 93.70498
1172.279, 93.89082
1172.761, 94.19148
1173.243, 94.58565
1173.725, 94.74100
1174.207, 94.53590
1174.689, 94.24929
1175.172, 94.10036
1175.654, 94.12349
1176.136, 94.55361
1176.618, 95.12132
1177.100, 95.09940
1177.582, 94.68673
1178.064, 94.54734
1178.546, 94.75330
1179.029, 94.91579
1179.511, 94.84504
1179.993, 94.68398
1180.475, 94.50111
1180.957, 94.34274
1181.439, 94.26088
1181.921, 94.22444
1182.403, 94.18504
1182.885, 94.16010
1183.368, 94.24528
1183.850, 94.43383
1184.332, 94.45722
1184.814, 94.06004
1185.296, 93.74464
1185.778, 93.78596
1186.260, 93.88954
1186.742, 93.88486
1187.225, 93.84391
1187.707, 93.80107
1188.189, 93.80120
1188.671, 94.01191
1189.153, 94.57410
1189.635, 94.85845
1190.117, 94.72294
1190.599, 94.45932
1191.082, 93.99110
1191.564, 93.56738
1192.046, 93.27074
1192.528, 93.15977
1193.010, 93.39613
1193.492, 93.90309
1193.974, 93.96053
1194.456, 93.39402
1194.938, 93.40871
1195.421, 94.23303
1195.903, 94.54488
1196.385, 93.87118
1196.867, 93.16250
1197.349, 93.13284
1197.831, 93.46785
1198.313, 93.66776
1198.795, 93.71531
1199.277, 93.39063
1199.760, 92.81374
1200.242, 92.72633
1200.724, 93.11874
1201.206, 93.25005
1201.688, 92.87012
1202.170, 92.58485
1202.652, 92.97598
1203.134, 93.49210
1203.617, 93.35343
1204.099, 92.96634
1204.581, 92.96468
1205.063, 93.13635
1205.545, 92.92149
1206.027, 92.40931
1206.509, 92.23924
1206.991, 92.66238
1207.474, 93.16145
1207.956, 93.63919
1208.438, 93.88928
1208.920, 93.64220
1209.402, 93.28757
1209.884, 93.08355
1210.366, 93.00587
1210.848, 93.02070
1211.330, 93.10872
1211.813, 93.13718
1212.295, 92.91720
1212.777, 93.00810
1213.259, 93.92578
1213.741, 94.30820
1214.223, 93.48975
1214.705, 92.55005
1215.187, 92.19523
1215.669, 92.23680
1216.152, 92.35605
1216.634, 92.55064
1217.116, 92.82143
1217.598, 93.19485
1218.080, 93.25550
1218.562, 92.94445
1219.044, 92.73763
1219.526, 92.80504
1220.009, 92.86121
1220.491, 92.66879
1220.973, 92.35609
1221.455, 92.06622
1221.937, 91.86460
1222.419, 92.00866
1222.901, 92.35921
1223.383, 92.56948
1223.865, 92.59771
1224.348, 92.48736
1224.830, 92.26775
1225.312, 92.07513
1225.794, 91.97741
1226.276, 91.98259
1226.758, 92.21685
1227.240, 92.43250
1227.722, 92.39378
1228.204, 92.20903
1228.687, 91.96962
1229.169, 91.73589
1229.651, 91.63457
1230.133, 91.70193
1230.615, 91.82671
1231.097, 92.17383
1231.579, 92.30147
1232.061, 91.84165
1232.544, 91.51183
1233.026, 91.74561
1233.508, 92.14221
1233.990, 92.26649
1234.472, 92.16917
1234.954, 92.06491
1235.436, 91.97185
1235.918, 91.68708
1236.401, 91.16766
1236.883, 90.95247
1237.365, 91.16438
1237.847, 91.41967
1238.329, 91.51867
1238.811, 91.51702
1239.293, 91.44875
1239.775, 91.37734
1240.257, 91.45483
1240.740, 91.62352
1241.222, 91.84721
1241.704, 92.01793
1242.186, 91.77023
1242.668, 91.16797
1243.150, 90.76477
1243.632, 90.80275
1244.114, 91.02733
1244.596, 91.41995
1245.079, 91.75397
1245.561, 91.90076
1246.043, 91.91201
1246.525, 91.74650
1247.007, 91.52731
1247.489, 91.41618
1247.971, 91.41933
1248.453, 91.49138
1248.936, 91.79554
1249.418, 91.72105
1249.900, 90.90720
1250.382, 90.41676
1250.864, 90.56224
1251.346, 90.86903
1251.828, 91.12036
1252.310, 91.27934
1252.792, 91.27450
1253.275, 91.16148
1253.757, 91.19752
1254.239, 91.36267
1254.721, 91.40379
1255.203, 91.31458
1255.685, 91.08981
1256.167, 90.10822
1256.649, 90.70019
1257.131, 91.03043
1257.614, 91.11300
1258.096, 90.20615
1258.578, 90.57694
1259.060, 90.43571
1259.542, 90.27350
1260.024, 90.82412
1260.506, 90.06117
1260.988, 90.60049
1261.471, 90.61996
1261.953, 90.87735
1262.435, 90.61956
1262.917, 90.52090
1263.399, 90.93758
1263.881, 91.06891
1264.363, 90.75181
1264.845, 91.02433
1265.328, 90.24338
1265.810, 90.38686
1266.292, 90.92919
1266.774, 90.63800
1267.256, 90.91994
1267.738, 90.98360
1268.220, 90.05526
1268.702, 90.85210
1269.184, 90.90285
1269.667, 90.18754
1270.149, 90.92526
1270.631, 90.31557
1271.113, 90.18682
1271.595, 90.42002
1272.077, 90.27590
1272.559, 90.72666
1273.041, 90.60433
1273.523, 90.43080
1274.006, 90.48071
1274.488, 89.89744
1274.970, 90.48887
1275.452, 90.27788
1275.934, 90.46575
1276.416, 90.74403
1276.898, 90.33006
1277.380, 90.64896
1277.863, 89.83134
1278.345, 90.45688
1278.827, 90.48194
1279.309, 90.46559
1279.791, 90.23546
1280.273, 89.95786
1280.755, 90.05319
1281.237, 90.51318
1281.719, 90.56857
1282.202, 90.17600
1282.684, 89.99886
1283.166, 90.10145
1283.648, 90.20768
1284.130, 90.22964
1284.612, 90.29567
1285.094, 90.50844
1285.576, 90.67506
1286.059, 90.48171
1286.541, 90.15146
1287.023, 89.96008
1287.505, 89.92812
##END=



