##NAMES=Anorthite
##RRUFFID=R060221
##IDEAL CHEMISTRY=CaAl_2_Si_2_O_8_
##LOCALITY=Pinacate lavafield, Sonora, Mexico
##OWNER=RRUFF
##SOURCE=Rock Currier
##DESCRIPTION=Light tan transparent fragment
##STATUS=The identification of this mineral has been confirmed by X-ray diffraction and chemical analysis
##URL=rruff.info/R060221
##MEASURED CHEMISTRY=(Ca_0.65_Na_0.34_K_0.01_)(Al_1.66_Fe^3+^_0.01_)Si_2.33_O_8_
92.07813, 57.06570
92.56024, 57.27438
93.04236, 56.98731
93.52448, 56.38628
94.00659, 56.14332
94.48871, 57.09679
94.97083, 58.71637
95.45294, 59.52304
95.93506, 59.17541
96.41718, 58.29686
96.89929, 57.98358
97.38141, 58.24592
97.86353, 58.52766
98.34564, 58.25952
98.82776, 57.48781
99.30988, 57.16532
99.79199, 57.46320
100.2741, 58.31156
100.7562, 59.75429
101.2383, 62.16689
101.7205, 64.13384
102.2026, 64.04179
102.6847, 61.20359
103.1668, 58.98389
103.6489, 58.28036
104.1310, 59.14385
104.6132, 59.41623
105.0953, 58.79840
105.5774, 57.86852
106.0595, 57.37841
106.5416, 57.69381
107.0237, 57.87843
107.5059, 57.62676
107.9880, 56.70255
108.4701, 56.07542
108.9522, 55.70695
109.4343, 55.63936
109.9164, 55.94789
110.3986, 56.92142
110.8807, 58.02671
111.3628, 59.15803
111.8449, 60.56490
112.3270, 61.56907
112.8091, 61.71869
113.2913, 61.38123
113.7734, 61.58838
114.2555, 62.96741
114.7376, 64.63673
115.2197, 66.10696
115.7018, 66.85432
116.1840, 67.90447
116.6661, 69.70816
117.1482, 72.12415
117.6303, 74.40826
118.1124, 75.87886
118.5945, 77.30853
119.0767, 79.34351
119.5588, 81.79904
120.0409, 85.23605
120.5230, 90.01840
121.0051, 96.10023
121.4872, 103.1100
121.9694, 111.2294
122.4515, 120.0145
122.9336, 128.8884
123.4157, 136.3763
123.8978, 144.4433
124.3799, 154.8663
124.8621, 167.7647
125.3442, 182.3498
125.8263, 198.2953
126.3084, 215.4474
126.7905, 233.5087
127.2726, 252.4533
127.7548, 272.0349
128.2369, 292.0058
128.7190, 312.5565
129.2011, 332.6682
129.6832, 351.2096
130.1653, 368.1049
130.6474, 383.9369
131.1296, 398.5227
131.6117, 412.1123
132.0938, 425.9234
132.5759, 439.8485
133.0580, 454.5239
133.5401, 470.6120
134.0223, 488.1572
134.5044, 507.6913
134.9865, 529.6021
135.4686, 554.1000
135.9507, 580.5293
136.4328, 609.3550
136.9150, 640.2674
137.3971, 671.6468
137.8792, 703.6399
138.3613, 736.1774
138.8434, 769.9705
139.3255, 805.4084
139.8077, 838.6601
140.2898, 869.3446
140.7719, 897.2852
141.2540, 923.3945
141.7361, 947.2808
142.2182, 969.5107
142.7004, 990.4631
143.1825, 1009.641
143.6646, 1028.386
144.1467, 1046.556
144.6288, 1064.384
145.1109, 1081.684
145.5931, 1097.924
146.0752, 1114.178
146.5573, 1132.016
147.0394, 1151.470
147.5215, 1172.343
148.0036, 1194.204
148.4858, 1217.382
148.9679, 1241.528
149.4500, 1266.287
149.9321, 1292.200
150.4142, 1319.522
150.8963, 1349.435
151.3785, 1380.148
151.8606, 1410.831
152.3427, 1442.008
152.8248, 1473.162
153.3069, 1504.625
153.7890, 1536.143
154.2712, 1562.488
154.7533, 1577.482
155.2354, 1590.503
155.7175, 1601.977
156.1996, 1610.485
156.6817, 1619.790
157.1639, 1630.925
157.6460, 1643.208
158.1281, 1654.939
158.6102, 1665.131
159.0923, 1675.152
159.5744, 1685.687
160.0566, 1696.568
160.5387, 1708.184
161.0208, 1720.258
161.5029, 1733.028
161.9850, 1747.195
162.4671, 1763.364
162.9493, 1780.812
163.4314, 1799.020
163.9135, 1817.461
164.3956, 1837.201
164.8777, 1858.602
165.3598, 1881.701
165.8420, 1906.737
166.3241, 1934.046
166.8062, 1963.156
167.2883, 1993.664
167.7704, 2025.862
168.2525, 2058.911
168.7346, 2092.430
169.2168, 2126.484
169.6989, 2161.677
170.1810, 2199.552
170.6631, 2238.386
171.1452, 2276.269
171.6273, 2311.540
172.1095, 2345.938
172.5916, 2381.321
173.0737, 2417.604
173.5558, 2453.614
174.0379, 2489.827
174.5201, 2524.931
175.0022, 2557.444
175.4843, 2586.077
175.9664, 2612.466
176.4485, 2638.099
176.9306, 2663.194
177.4128, 2686.138
177.8949, 2705.914
178.3770, 2722.436
178.8591, 2735.968
179.3412, 2746.494
179.8233, 2754.101
180.3055, 2759.729
180.7876, 2763.594
181.2697, 2763.154
181.7518, 2754.453
182.2339, 2739.138
182.7160, 2722.106
183.1982, 2706.784
183.6803, 2691.214
184.1624, 2670.704
184.6445, 2645.058
185.1266, 2616.556
185.6087, 2587.180
186.0909, 2556.804
186.5730, 2526.327
187.0551, 2495.720
187.5372, 2465.213
188.0193, 2434.228
188.5014, 2402.577
188.9836, 2371.503
189.4657, 2341.313
189.9478, 2312.279
190.4299, 2284.719
190.9120, 2259.299
191.3941, 2235.861
191.8763, 2212.687
192.3584, 2189.469
192.8405, 2167.620
193.3226, 2148.887
193.8047, 2133.369
194.2868, 2118.747
194.7690, 2104.263
195.2511, 2089.920
195.7332, 2074.489
196.2153, 2057.746
196.6974, 2040.473
197.1795, 2024.273
197.6617, 2009.066
198.1438, 1995.142
198.6259, 1983.433
199.1080, 1973.992
199.5901, 1962.569
200.0722, 1948.651
200.5544, 1933.470
201.0365, 1919.427
201.5186, 1906.538
202.0007, 1894.055
202.4828, 1882.007
202.9649, 1870.508
203.4471, 1857.530
203.9292, 1842.530
204.4113, 1826.407
204.8934, 1810.655
205.3755, 1795.414
205.8576, 1780.485
206.3398, 1765.897
206.8219, 1751.722
207.3040, 1737.318
207.7861, 1722.805
208.2682, 1708.135
208.7503, 1693.112
209.2325, 1677.634
209.7146, 1662.649
210.1967, 1648.894
210.6788, 1636.803
211.1609, 1623.790
211.6430, 1609.353
212.1252, 1594.301
212.6073, 1580.782
213.0894, 1569.375
213.5715, 1558.151
214.0536, 1546.315
214.5357, 1533.732
215.0179, 1520.797
215.5000, 1507.114
215.9821, 1493.231
216.4642, 1480.535
216.9463, 1469.797
217.4284, 1458.784
217.9105, 1446.036
218.3927, 1430.564
218.8748, 1417.083
219.3569, 1406.032
219.8390, 1396.734
220.3211, 1387.704
220.8032, 1379.489
221.2854, 1370.419
221.7675, 1359.053
222.2496, 1343.771
222.7317, 1331.620
223.2138, 1323.313
223.6959, 1317.790
224.1781, 1312.789
224.6602, 1308.955
225.1423, 1304.544
225.6244, 1298.755
226.1065, 1290.722
226.5886, 1283.604
227.0708, 1277.303
227.5529, 1271.903
228.0350, 1267.604
228.5171, 1264.730
228.9992, 1262.346
229.4813, 1260.132
229.9635, 1258.115
230.4456, 1256.213
230.9277, 1254.434
231.4098, 1252.801
231.8919, 1251.286
232.3740, 1249.684
232.8562, 1248.572
233.3383, 1248.198
233.8204, 1248.730
234.3025, 1249.474
234.7846, 1250.426
235.2667, 1251.604
235.7489, 1252.961
236.2310, 1254.191
236.7131, 1256.108
237.1952, 1259.177
237.6773, 1263.764
238.1594, 1267.979
238.6416, 1271.390
239.1237, 1274.709
239.6058, 1279.122
240.0879, 1285.263
240.5700, 1291.573
241.0521, 1297.631
241.5343, 1303.340
242.0164, 1308.871
242.4985, 1313.714
242.9806, 1318.703
243.4627, 1325.179
243.9448, 1333.990
244.4270, 1342.769
244.9091, 1350.683
245.3912, 1357.418
245.8733, 1365.090
246.3554, 1374.371
246.8375, 1384.068
247.3197, 1392.452
247.8018, 1398.360
248.2839, 1405.064
248.7660, 1413.827
249.2481, 1425.164
249.7302, 1434.644
250.2124, 1441.238
250.6945, 1447.046
251.1766, 1454.732
251.6587, 1465.541
252.1408, 1475.844
252.6229, 1484.628
253.1051, 1491.834
253.5872, 1499.737
254.0693, 1508.730
254.5514, 1518.140
255.0335, 1527.340
255.5156, 1536.208
255.9978, 1544.876
256.4799, 1553.131
256.9620, 1561.007
257.4441, 1569.817
257.9262, 1579.782
258.4083, 1590.331
258.8904, 1600.808
259.3726, 1611.196
259.8547, 1621.753
260.3368, 1632.621
260.8189, 1643.791
261.3010, 1654.043
261.7831, 1663.077
262.2653, 1671.650
262.7474, 1679.996
263.2295, 1687.716
263.7116, 1696.744
264.1937, 1708.150
264.6758, 1721.188
265.1580, 1731.879
265.6401, 1739.061
266.1222, 1745.986
266.6043, 1755.145
267.0864, 1767.570
267.5685, 1778.770
268.0507, 1788.039
268.5328, 1795.925
269.0149, 1804.832
269.4970, 1815.578
269.9791, 1825.669
270.4612, 1833.553
270.9434, 1838.607
271.4255, 1844.132
271.9076, 1850.246
272.3897, 1857.063
272.8718, 1865.271
273.3539, 1875.350
273.8361, 1885.159
274.3182, 1893.642
274.8003, 1900.701
275.2824, 1906.655
275.7645, 1911.063
276.2466, 1914.787
276.7288, 1919.791
277.2109, 1926.402
277.6930, 1932.550
278.1751, 1937.043
278.6572, 1939.835
279.1393, 1942.737
279.6215, 1946.029
280.1036, 1948.960
280.5857, 1950.180
281.0678, 1949.572
281.5499, 1948.696
282.0320, 1948.690
282.5142, 1949.355
282.9963, 1947.243
283.4784, 1941.798
283.9605, 1935.312
284.4426, 1931.155
284.9247, 1929.398
285.4069, 1926.189
285.8890, 1919.815
286.3711, 1910.928
286.8532, 1902.619
287.3353, 1895.066
287.8174, 1887.012
288.2996, 1877.472
288.7817, 1866.415
289.2638, 1853.765
289.7459, 1839.035
290.2280, 1822.972
290.7101, 1807.184
291.1923, 1791.627
291.6744, 1776.096
292.1565, 1760.166
292.6386, 1743.908
293.1207, 1727.709
293.6028, 1711.510
294.0850, 1695.511
294.5671, 1679.465
295.0492, 1663.354
295.5313, 1647.082
296.0134, 1630.660
296.4955, 1614.100
296.9777, 1597.559
297.4598, 1581.133
297.9419, 1564.891
298.4240, 1548.950
298.9061, 1533.488
299.3882, 1519.019
299.8704, 1506.432
300.3525, 1495.069
300.8346, 1483.414
301.3167, 1471.414
301.7988, 1459.150
302.2809, 1446.149
302.7631, 1432.850
303.2452, 1420.095
303.7273, 1408.278
304.2094, 1397.380
304.6915, 1387.775
305.1736, 1379.451
305.6558, 1371.692
306.1379, 1364.314
306.6200, 1356.985
307.1021, 1349.118
307.5842, 1339.210
308.0663, 1329.333
308.5485, 1321.649
309.0306, 1316.121
309.5127, 1310.693
309.9948, 1303.547
310.4769, 1295.756
310.9590, 1288.739
311.4412, 1283.372
311.9233, 1278.403
312.4054, 1272.863
312.8875, 1266.859
313.3696, 1261.192
313.8517, 1256.991
314.3339, 1253.065
314.8160, 1248.217
315.2981, 1241.302
315.7802, 1234.898
316.2623, 1230.802
316.7444, 1228.328
317.2266, 1225.535
317.7087, 1220.251
318.1908, 1215.385
318.6729, 1213.293
319.1550, 1216.027
319.6371, 1216.941
320.1193, 1212.189
320.6014, 1204.416
321.0835, 1197.881
321.5656, 1194.305
322.0477, 1191.813
322.5298, 1189.845
323.0120, 1188.493
323.4941, 1186.777
323.9762, 1183.928
324.4583, 1180.807
324.9404, 1178.352
325.4225, 1177.090
325.9047, 1176.125
326.3868, 1175.380
326.8689, 1174.864
327.3510, 1174.290
327.8331, 1173.506
328.3152, 1172.775
328.7974, 1172.283
329.2795, 1172.611
329.7616, 1172.504
330.2437, 1171.592
330.7258, 1170.070
331.2079, 1169.014
331.6901, 1168.540
332.1722, 1168.392
332.6543, 1168.416
333.1364, 1168.364
333.6185, 1168.960
334.1006, 1170.730
334.5828, 1172.970
335.0649, 1173.978
335.5470, 1173.358
336.0291, 1172.171
336.5112, 1170.625
336.9933, 1168.487
337.4755, 1167.242
337.9576, 1167.245
338.4397, 1167.762
338.9218, 1167.825
339.4039, 1167.380
339.8860, 1166.671
340.3681, 1165.598
340.8503, 1164.228
341.3324, 1163.777
341.8145, 1164.625
342.2966, 1165.332
342.7787, 1164.285
343.2608, 1161.393
343.7430, 1158.937
344.2251, 1157.539
344.7072, 1156.755
345.1893, 1155.099
345.6714, 1152.453
346.1535, 1150.223
346.6357, 1149.744
347.1178, 1150.700
347.5999, 1151.178
348.0820, 1150.929
348.5641, 1150.223
349.0462, 1149.235
349.5284, 1148.037
350.0105, 1147.157
350.4926, 1147.339
350.9747, 1147.968
351.4568, 1147.342
351.9389, 1145.248
352.4211, 1143.330
352.9032, 1144.077
353.3853, 1146.381
353.8674, 1147.540
354.3495, 1145.520
354.8316, 1142.434
355.3138, 1140.672
355.7959, 1140.161
356.2780, 1140.098
356.7601, 1140.514
357.2422, 1140.864
357.7243, 1140.255
358.2065, 1137.402
358.6886, 1135.163
359.1707, 1136.481
359.6528, 1140.213
360.1349, 1142.904
360.6170, 1141.967
361.0992, 1139.941
361.5813, 1138.578
362.0634, 1138.271
362.5455, 1138.203
363.0276, 1138.191
363.5097, 1138.170
363.9919, 1138.044
364.4740, 1137.307
364.9561, 1136.874
365.4382, 1137.271
365.9203, 1138.605
366.4024, 1139.665
366.8846, 1140.104
367.3667, 1140.243
367.8488, 1140.344
368.3309, 1140.343
368.8130, 1140.426
369.2951, 1140.894
369.7773, 1141.613
370.2594, 1141.604
370.7415, 1139.527
371.2236, 1137.984
371.7057, 1138.271
372.1878, 1141.908
372.6700, 1144.484
373.1521, 1145.670
373.6342, 1145.927
374.1163, 1146.026
374.5984, 1145.651
375.0805, 1145.709
375.5627, 1146.492
376.0448, 1148.026
376.5269, 1150.079
377.0090, 1152.977
377.4911, 1155.829
377.9732, 1157.561
378.4554, 1157.957
378.9375, 1158.486
379.4196, 1159.411
379.9017, 1160.708
380.3838, 1162.417
380.8659, 1164.565
381.3481, 1166.839
381.8302, 1168.882
382.3123, 1170.781
382.7944, 1173.208
383.2765, 1176.386
383.7586, 1179.814
384.2408, 1182.870
384.7229, 1185.556
385.2050, 1188.012
385.6871, 1189.817
386.1692, 1191.528
386.6513, 1194.542
387.1335, 1198.921
387.6156, 1203.406
388.0977, 1206.664
388.5798, 1209.176
389.0619, 1211.878
389.5440, 1215.062
390.0262, 1218.528
390.5083, 1221.911
390.9904, 1225.361
391.4725, 1229.482
391.9546, 1235.556
392.4367, 1241.907
392.9189, 1247.151
393.4010, 1250.832
393.8831, 1253.765
394.3652, 1255.666
394.8473, 1257.153
395.3294, 1259.268
395.8116, 1262.736
396.2937, 1266.562
396.7758, 1270.425
397.2579, 1274.318
397.7400, 1278.134
398.2221, 1282.458
398.7043, 1286.342
399.1864, 1288.994
399.6685, 1288.456
400.1506, 1288.869
400.6327, 1291.187
401.1148, 1294.936
401.5970, 1297.913
402.0791, 1299.934
402.5612, 1301.354
403.0433, 1302.155
403.5254, 1301.755
404.0075, 1302.562
404.4897, 1305.430
404.9718, 1308.814
405.4539, 1310.065
405.9360, 1308.346
406.4181, 1307.248
406.9002, 1308.072
407.3824, 1310.545
407.8645, 1312.087
408.3466, 1312.611
408.8287, 1312.506
409.3108, 1312.134
409.7929, 1311.462
410.2751, 1310.045
410.7572, 1307.607
411.2393, 1304.656
411.7214, 1302.372
412.2035, 1300.625
412.6856, 1298.403
413.1678, 1294.418
413.6499, 1289.655
414.1320, 1286.481
414.6141, 1285.110
415.0962, 1283.996
415.5783, 1281.559
416.0605, 1278.368
416.5426, 1275.424
417.0247, 1273.060
417.5068, 1271.141
417.9889, 1269.763
418.4710, 1268.815
418.9532, 1267.735
419.4353, 1265.668
419.9174, 1263.657
420.3995, 1262.674
420.8816, 1263.287
421.3637, 1263.790
421.8459, 1263.082
422.3280, 1261.903
422.8101, 1261.384
423.2922, 1262.751
423.7743, 1263.887
424.2564, 1263.917
424.7386, 1262.720
425.2207, 1261.897
425.7028, 1261.815
426.1849, 1262.033
426.6670, 1262.313
427.1491, 1263.160
427.6313, 1263.273
428.1134, 1261.951
428.5955, 1260.014
429.0776, 1259.859
429.5597, 1262.526
430.0418, 1264.923
430.5240, 1265.406
431.0061, 1263.666
431.4882, 1264.590
431.9703, 1269.061
432.4524, 1274.238
432.9345, 1276.612
433.4167, 1276.084
433.8988, 1275.929
434.3809, 1276.838
434.8630, 1278.621
435.3451, 1280.939
435.8272, 1283.780
436.3094, 1286.935
436.7915, 1290.351
437.2736, 1293.988
437.7557, 1297.852
438.2378, 1302.065
438.7199, 1305.907
439.2020, 1308.441
439.6841, 1310.080
440.1663, 1311.668
440.6484, 1313.619
441.1305, 1315.626
441.6126, 1317.643
442.0947, 1319.588
442.5768, 1320.885
443.0590, 1320.855
443.5411, 1320.270
444.0232, 1319.733
444.5053, 1319.464
444.9874, 1318.983
445.4695, 1317.422
445.9517, 1315.682
446.4338, 1315.208
446.9159, 1317.635
447.3980, 1320.007
447.8801, 1321.186
448.3622, 1321.036
448.8444, 1322.015
449.3265, 1325.091
449.8086, 1328.472
450.2907, 1331.016
450.7728, 1332.548
451.2549, 1333.684
451.7371, 1334.263
452.2192, 1334.599
452.7013, 1335.254
453.1834, 1336.116
453.6655, 1337.738
454.1476, 1340.496
454.6298, 1344.280
455.1119, 1347.972
455.5940, 1351.461
456.0761, 1355.245
456.5582, 1359.635
457.0403, 1364.655
457.5225, 1370.516
458.0046, 1377.301
458.4867, 1384.607
458.9688, 1391.693
459.4509, 1398.674
459.9330, 1405.755
460.4152, 1412.932
460.8973, 1420.449
461.3794, 1428.575
461.8615, 1437.438
462.3436, 1446.537
462.8257, 1455.744
463.3079, 1465.049
463.7900, 1474.413
464.2721, 1483.324
464.7542, 1493.064
465.2363, 1504.583
465.7184, 1517.391
466.2006, 1530.078
466.6827, 1541.622
467.1648, 1553.589
467.6469, 1566.571
468.1290, 1580.803
468.6111, 1595.210
469.0933, 1609.360
469.5754, 1624.059
470.0575, 1640.414
470.5396, 1659.729
471.0217, 1677.907
471.5038, 1693.969
471.9860, 1708.818
472.4681, 1725.952
472.9502, 1745.912
473.4323, 1766.419
473.9144, 1786.139
474.3965, 1805.181
474.8787, 1824.852
475.3608, 1845.250
475.8429, 1865.441
476.3250, 1883.374
476.8071, 1899.648
477.2892, 1917.637
477.7714, 1938.814
478.2535, 1960.856
478.7356, 1981.074
479.2177, 1999.425
479.6998, 2015.260
480.1819, 2027.164
480.6641, 2037.226
481.1462, 2047.759
481.6283, 2059.137
482.1104, 2069.095
482.5925, 2076.000
483.0746, 2080.992
483.5568, 2085.260
484.0389, 2089.784
484.5210, 2092.910
485.0031, 2094.039
485.4852, 2093.394
485.9673, 2091.700
486.4495, 2087.724
486.9316, 2083.952
487.4137, 2081.317
487.8958, 2080.106
488.3779, 2078.281
488.8600, 2074.684
489.3422, 2071.581
489.8243, 2071.036
490.3064, 2073.459
490.7885, 2076.791
491.2706, 2080.424
491.7527, 2085.072
492.2349, 2092.875
492.7170, 2103.897
493.1991, 2116.576
493.6812, 2129.377
494.1633, 2142.992
494.6454, 2161.044
495.1276, 2183.510
495.6097, 2208.329
496.0918, 2232.850
496.5739, 2258.396
497.0560, 2286.579
497.5381, 2318.200
498.0203, 2352.685
498.5024, 2391.340
498.9845, 2432.632
499.4666, 2474.188
499.9487, 2513.472
500.4308, 2553.426
500.9130, 2596.327
501.3951, 2642.060
501.8772, 2687.419
502.3593, 2732.175
502.8414, 2775.167
503.3235, 2816.163
503.8057, 2856.047
504.2878, 2892.008
504.7699, 2923.977
505.2520, 2952.035
505.7341, 2976.557
506.2162, 2998.692
506.6984, 3014.823
507.1805, 3023.502
507.6626, 3025.018
508.1447, 3022.429
508.6268, 3015.928
509.1089, 3004.491
509.5911, 2987.060
510.0732, 2963.805
510.5553, 2936.659
511.0374, 2905.833
511.5195, 2870.987
512.0016, 2831.011
512.4838, 2786.372
512.9659, 2739.625
513.4480, 2690.026
513.9301, 2639.211
514.4122, 2588.137
514.8943, 2537.075
515.3765, 2487.117
515.8586, 2440.278
516.3407, 2393.652
516.8228, 2344.946
517.3049, 2292.915
517.7870, 2242.517
518.2692, 2196.201
518.7513, 2152.431
519.2334, 2109.933
519.7155, 2067.341
520.1976, 2027.364
520.6797, 1991.617
521.1619, 1958.739
521.6440, 1924.897
522.1261, 1888.725
522.6082, 1854.699
523.0903, 1824.828
523.5724, 1799.191
524.0546, 1773.541
524.5367, 1747.820
525.0188, 1722.855
525.5009, 1699.057
525.9830, 1676.347
526.4651, 1655.031
526.9473, 1635.037
527.4294, 1616.228
527.9115, 1598.956
528.3936, 1583.009
528.8757, 1567.350
529.3578, 1551.484
529.8400, 1535.876
530.3221, 1520.766
530.8042, 1506.347
531.2863, 1492.994
531.7684, 1481.261
532.2505, 1470.576
532.7327, 1460.782
533.2148, 1452.111
533.6969, 1443.487
534.1790, 1434.406
534.6611, 1425.377
535.1432, 1417.137
535.6254, 1409.275
536.1075, 1402.738
536.5896, 1398.264
537.0717, 1395.198
537.5538, 1391.340
538.0359, 1386.048
538.5181, 1381.441
539.0002, 1378.523
539.4823, 1377.280
539.9644, 1375.885
540.4465, 1374.238
540.9286, 1372.961
541.4108, 1372.711
541.8929, 1373.343
542.3750, 1374.141
542.8571, 1374.819
543.3392, 1376.071
543.8214, 1378.880
544.3035, 1382.920
544.7856, 1387.484
545.2677, 1393.152
545.7498, 1398.498
546.2319, 1401.835
546.7141, 1403.572
547.1962, 1406.178
547.6783, 1410.948
548.1604, 1416.625
548.6425, 1422.740
549.1246, 1429.467
549.6068, 1435.797
550.0889, 1440.493
550.5710, 1445.463
551.0531, 1452.764
551.5352, 1464.509
552.0173, 1473.930
552.4995, 1479.309
552.9816, 1482.449
553.4637, 1487.902
553.9458, 1495.989
554.4279, 1504.206
554.9100, 1511.572
555.3922, 1518.247
555.8743, 1524.681
556.3564, 1530.828
556.8385, 1537.239
557.3206, 1545.192
557.8027, 1553.444
558.2849, 1559.874
558.7670, 1563.966
559.2491, 1567.200
559.7312, 1570.527
560.2133, 1573.709
560.6954, 1576.411
561.1776, 1578.868
561.6597, 1580.406
562.1418, 1581.244
562.6239, 1581.059
563.1060, 1578.714
563.5881, 1572.728
564.0703, 1565.840
564.5524, 1558.873
565.0345, 1551.973
565.5166, 1543.799
565.9987, 1533.863
566.4808, 1523.471
566.9630, 1513.495
567.4451, 1504.027
567.9272, 1494.294
568.4093, 1483.990
568.8914, 1473.866
569.3735, 1464.804
569.8557, 1456.777
570.3378, 1449.319
570.8199, 1443.117
571.3020, 1436.599
571.7841, 1426.952
572.2662, 1415.071
572.7484, 1404.307
573.2305, 1397.145
573.7126, 1391.134
574.1947, 1384.584
574.6768, 1377.387
575.1589, 1369.956
575.6411, 1361.240
576.1232, 1353.214
576.6053, 1347.484
577.0874, 1346.239
577.5695, 1343.815
578.0516, 1339.495
578.5338, 1334.485
579.0159, 1330.475
579.4980, 1327.725
579.9801, 1325.323
580.4622, 1323.253
580.9443, 1321.288
581.4265, 1318.742
581.9086, 1315.622
582.3907, 1312.334
582.8728, 1308.478
583.3549, 1304.760
583.8370, 1303.085
584.3192, 1303.434
584.8013, 1303.444
585.2834, 1300.463
585.7655, 1296.601
586.2476, 1294.314
586.7297, 1294.525
587.2118, 1295.077
587.6939, 1295.964
588.1760, 1296.349
588.6581, 1295.166
589.1403, 1289.846
589.6224, 1285.756
590.1045, 1283.900
590.5866, 1283.795
591.0687, 1283.978
591.5508, 1284.729
592.0330, 1285.110
592.5151, 1284.715
592.9972, 1283.597
593.4793, 1282.266
593.9614, 1280.681
594.4435, 1279.235
594.9257, 1278.258
595.4078, 1277.693
595.8899, 1277.406
596.3720, 1277.452
596.8541, 1277.418
597.3362, 1276.842
597.8184, 1275.965
598.3005, 1275.108
598.7826, 1274.077
599.2647, 1273.531
599.7468, 1273.916
600.2289, 1275.000
600.7111, 1276.273
601.1932, 1278.293
601.6753, 1279.728
602.1574, 1280.086
602.6395, 1279.414
603.1216, 1278.437
603.6038, 1276.631
604.0859, 1275.408
604.5680, 1275.896
605.0501, 1278.274
605.5322, 1278.980
606.0143, 1277.673
606.4965, 1276.210
606.9786, 1276.953
607.4607, 1279.184
607.9428, 1280.470
608.4249, 1280.166
608.9070, 1279.389
609.3892, 1279.309
609.8713, 1279.601
610.3534, 1279.643
610.8355, 1278.503
611.3176, 1277.742
611.7997, 1278.683
612.2819, 1280.736
612.7640, 1281.692
613.2461, 1279.433
613.7282, 1277.656
614.2103, 1277.951
614.6924, 1280.476
615.1746, 1281.402
615.6567, 1279.882
616.1388, 1278.334
616.6209, 1278.791
617.1030, 1281.350
617.5851, 1282.176
618.0673, 1280.729
618.5494, 1279.180
619.0315, 1280.880
619.5136, 1284.639
619.9957, 1286.868
620.4778, 1286.167
620.9600, 1284.743
621.4421, 1284.694
621.9242, 1285.464
622.4063, 1285.912
622.8884, 1284.751
623.3705, 1283.991
623.8527, 1284.616
624.3348, 1286.447
624.8169, 1288.193
625.2990, 1289.703
625.7811, 1291.078
626.2632, 1292.422
626.7454, 1293.775
627.2275, 1294.363
627.7096, 1293.990
628.1917, 1293.380
628.6738, 1293.020
629.1559, 1292.928
629.6381, 1293.150
630.1202, 1293.697
630.6023, 1294.658
631.0844, 1296.748
631.5665, 1299.285
632.0486, 1300.779
632.5308, 1300.450
633.0129, 1299.555
633.4950, 1298.746
633.9771, 1298.012
634.4592, 1297.313
634.9413, 1295.950
635.4235, 1295.308
635.9056, 1296.535
636.3877, 1299.149
636.8698, 1299.896
637.3519, 1297.359
637.8340, 1295.195
638.3162, 1295.022
638.7983, 1296.788
639.2804, 1298.307
639.7625, 1299.595
640.2446, 1300.549
640.7267, 1301.028
641.2089, 1301.096
641.6910, 1300.690
642.1731, 1299.692
642.6552, 1299.276
643.1373, 1301.605
643.6194, 1304.826
644.1016, 1306.340
644.5837, 1304.563
645.0658, 1302.517
645.5479, 1301.234
646.0300, 1300.582
646.5121, 1300.381
646.9943, 1300.980
647.4764, 1301.601
647.9585, 1302.067
648.4406, 1302.481
648.9227, 1303.327
649.4048, 1304.769
649.8870, 1305.971
650.3691, 1306.396
650.8512, 1306.314
651.3333, 1307.133
651.8154, 1308.822
652.2975, 1310.366
652.7797, 1310.650
653.2618, 1310.500
653.7439, 1311.413
654.2260, 1313.554
654.7081, 1315.184
655.1902, 1314.611
655.6724, 1313.446
656.1545, 1313.033
656.6366, 1313.704
657.1187, 1315.038
657.6008, 1318.105
658.0829, 1321.161
658.5651, 1322.127
659.0472, 1319.741
659.5293, 1318.732
660.0114, 1320.085
660.4935, 1322.643
660.9756, 1324.122
661.4578, 1324.549
661.9399, 1324.662
662.4220, 1324.332
662.9041, 1324.232
663.3862, 1325.799
663.8683, 1328.645
664.3505, 1331.256
664.8326, 1332.638
665.3147, 1333.598
665.7968, 1334.679
666.2789, 1335.900
666.7610, 1336.898
667.2432, 1337.021
667.7253, 1337.418
668.2074, 1338.621
668.6895, 1340.712
669.1716, 1343.273
669.6537, 1346.434
670.1359, 1349.830
670.6180, 1353.563
671.1001, 1357.541
671.5822, 1359.709
672.0643, 1359.606
672.5464, 1358.947
673.0286, 1359.746
673.5107, 1361.502
673.9928, 1363.134
674.4749, 1364.069
674.9570, 1365.360
675.4391, 1368.470
675.9213, 1372.256
676.4034, 1374.829
676.8855, 1373.923
677.3676, 1373.665
677.8497, 1375.347
678.3318, 1378.324
678.8140, 1380.936
679.2961, 1383.317
679.7782, 1384.980
680.2603, 1385.486
680.7424, 1385.199
681.2245, 1385.827
681.7067, 1387.382
682.1888, 1389.301
682.6709, 1391.750
683.1530, 1394.149
683.6351, 1395.348
684.1172, 1395.357
684.5994, 1395.370
685.0815, 1395.939
685.5636, 1396.936
686.0457, 1398.482
686.5278, 1400.907
687.0099, 1402.560
687.4921, 1401.829
687.9742, 1401.169
688.4563, 1402.430
688.9384, 1406.372
689.4205, 1409.981
689.9026, 1413.357
690.3848, 1415.982
690.8669, 1416.775
691.3490, 1415.964
691.8311, 1415.481
692.3132, 1415.773
692.7953, 1416.465
693.2775, 1417.405
693.7596, 1418.382
694.2417, 1418.981
694.7238, 1418.615
695.2059, 1418.259
695.6880, 1418.376
696.1702, 1418.844
696.6523, 1419.319
697.1344, 1419.846
697.6165, 1420.306
698.0986, 1420.810
698.5807, 1421.260
699.0629, 1420.939
699.5450, 1419.667
700.0271, 1418.460
700.5092, 1417.776
700.9913, 1417.539
701.4734, 1417.641
701.9556, 1418.049
702.4377, 1418.283
702.9198, 1417.943
703.4019, 1417.293
703.8840, 1416.513
704.3661, 1415.610
704.8483, 1414.892
705.3304, 1414.448
705.8125, 1414.253
706.2946, 1414.363
706.7767, 1414.992
707.2589, 1415.330
707.7410, 1415.452
708.2231, 1415.184
708.7052, 1414.117
709.1873, 1412.219
709.6694, 1410.954
710.1516, 1410.488
710.6337, 1410.569
711.1158, 1411.157
711.5979, 1412.023
712.0800, 1412.634
712.5621, 1412.742
713.0443, 1412.805
713.5264, 1413.222
714.0085, 1413.762
714.4906, 1414.084
714.9727, 1413.261
715.4548, 1413.302
715.9370, 1415.329
716.4191, 1418.132
716.9012, 1418.848
717.3833, 1416.754
717.8654, 1415.278
718.3475, 1415.543
718.8297, 1416.891
719.3118, 1417.598
719.7939, 1417.750
720.2760, 1417.978
720.7581, 1418.822
721.2402, 1419.744
721.7224, 1420.103
722.2045, 1419.983
722.6866, 1419.816
723.1687, 1419.243
723.6508, 1419.146
724.1329, 1420.299
724.6151, 1422.717
725.0972, 1424.108
725.5793, 1423.740
726.0614, 1423.584
726.5435, 1425.075
727.0256, 1428.073
727.5078, 1428.679
727.9899, 1426.711
728.4720, 1424.868
728.9541, 1425.562
729.4362, 1427.775
729.9183, 1429.886
730.4005, 1431.739
730.8826, 1433.100
731.3647, 1433.299
731.8468, 1433.273
732.3289, 1433.926
732.8110, 1436.070
733.2932, 1436.960
733.7753, 1434.883
734.2574, 1432.969
734.7395, 1434.294
735.2216, 1439.660
735.7037, 1443.510
736.1859, 1445.438
736.6680, 1446.058
737.1501, 1445.136
737.6322, 1443.494
738.1143, 1444.010
738.5964, 1447.940
739.0786, 1452.217
739.5607, 1454.154
740.0428, 1454.912
740.5249, 1456.071
741.0070, 1458.867
741.4891, 1461.137
741.9713, 1461.799
742.4534, 1461.977
742.9355, 1463.515
743.4176, 1467.179
743.8997, 1469.635
744.3818, 1469.865
744.8640, 1469.067
745.3461, 1469.705
745.8282, 1471.597
746.3103, 1473.571
746.7924, 1475.064
747.2745, 1476.564
747.7567, 1478.632
748.2388, 1481.113
748.7209, 1483.577
749.2030, 1486.608
749.6851, 1488.858
750.1672, 1489.151
750.6494, 1488.191
751.1315, 1488.715
751.6136, 1491.561
752.0957, 1494.014
752.5778, 1495.176
753.0599, 1495.310
753.5421, 1495.033
754.0242, 1494.429
754.5063, 1494.762
754.9884, 1496.885
755.4705, 1500.275
755.9526, 1505.144
756.4348, 1511.023
756.9169, 1515.324
757.3990, 1515.237
757.8811, 1514.715
758.3632, 1515.643
758.8453, 1518.115
759.3275, 1520.857
759.8096, 1524.099
760.2917, 1527.119
760.7738, 1529.566
761.2559, 1531.446
761.7380, 1533.028
762.2202, 1534.281
762.7023, 1536.170
763.1844, 1539.755
763.6665, 1544.278
764.1486, 1549.135
764.6307, 1554.226
765.1129, 1558.081
765.5950, 1559.412
766.0771, 1559.699
766.5592, 1559.785
767.0413, 1559.739
767.5234, 1559.380
768.0056, 1558.133
768.4877, 1557.475
768.9698, 1558.522
769.4519, 1561.245
769.9340, 1564.663
770.4161, 1568.915
770.8983, 1572.114
771.3804, 1571.674
771.8625, 1569.455
772.3446, 1568.394
772.8267, 1568.986
773.3088, 1569.496
773.7910, 1568.465
774.2731, 1567.395
774.7552, 1567.587
775.2373, 1569.919
775.7194, 1571.328
776.2015, 1571.739
776.6837, 1571.298
777.1658, 1569.610
777.6479, 1566.735
778.1300, 1565.461
778.6121, 1566.115
779.0942, 1567.425
779.5764, 1569.152
780.0585, 1570.337
780.5406, 1569.230
781.0227, 1564.983
781.5048, 1560.696
781.9869, 1557.335
782.4691, 1554.889
782.9512, 1553.451
783.4332, 1553.368
783.9153, 1553.528
784.3975, 1554.180
784.8796, 1554.640
785.3617, 1553.959
785.8438, 1552.242
786.3259, 1550.714
786.8080, 1549.469
787.2902, 1548.685
787.7723, 1549.641
788.2544, 1550.775
788.7365, 1549.472
789.2186, 1543.788
789.7007, 1539.216
790.1829, 1538.869
790.6650, 1539.954
791.1471, 1539.542
791.6292, 1536.855
792.1113, 1534.381
792.5934, 1532.184
793.0756, 1530.229
793.5577, 1528.505
794.0398, 1526.985
794.5219, 1525.432
795.0040, 1523.782
795.4861, 1522.125
795.9683, 1520.494
796.4504, 1518.886
796.9325, 1517.319
797.4146, 1516.094
797.8967, 1514.346
798.3788, 1511.080
798.8610, 1507.605
799.3431, 1505.507
799.8252, 1505.566
800.3073, 1503.869
800.7894, 1499.623
801.2715, 1494.743
801.7537, 1491.901
802.2358, 1490.537
802.7179, 1488.600
803.2000, 1485.538
803.6821, 1482.367
804.1642, 1480.121
804.6464, 1478.101
805.1285, 1475.384
805.6106, 1470.415
806.0927, 1467.132
806.5748, 1467.168
807.0569, 1467.853
807.5391, 1465.914
808.0212, 1460.795
808.5033, 1457.912
808.9854, 1458.296
809.4675, 1459.356
809.9496, 1457.521
810.4318, 1453.988
810.9139, 1451.477
811.3960, 1450.871
811.8781, 1450.319
812.3602, 1448.583
812.8423, 1446.427
813.3245, 1444.664
813.8066, 1443.069
814.2887, 1442.504
814.7708, 1443.597
815.2529, 1444.826
815.7350, 1444.094
816.2172, 1441.545
816.6993, 1440.346
817.1814, 1441.049
817.6635, 1442.187
818.1456, 1442.295
818.6277, 1441.866
819.1099, 1441.666
819.5920, 1442.110
820.0741, 1442.035
820.5562, 1440.311
821.0383, 1438.411
821.5204, 1437.604
822.0026, 1438.274
822.4847, 1438.922
822.9668, 1439.424
823.4489, 1440.154
823.9310, 1442.074
824.4131, 1444.557
824.8953, 1445.031
825.3774, 1442.947
825.8595, 1441.016
826.3416, 1441.743
826.8237, 1443.364
827.3058, 1444.145
827.7880, 1443.361
828.2701, 1443.156
828.7522, 1444.292
829.2343, 1445.468
829.7164, 1445.557
830.1985, 1444.438
830.6807, 1444.555
831.1628, 1446.137
831.6449, 1447.696
832.1270, 1447.568
832.6091, 1446.633
833.0912, 1446.301
833.5734, 1446.744
834.0555, 1447.331
834.5376, 1447.780
835.0197, 1448.219
835.5018, 1448.800
835.9839, 1449.590
836.4661, 1449.843
836.9482, 1449.323
837.4303, 1448.769
837.9124, 1448.363
838.3945, 1448.283
838.8766, 1449.951
839.3588, 1453.304
839.8409, 1456.151
840.3230, 1456.865
840.8051, 1456.437
841.2872, 1454.906
841.7693, 1452.361
842.2515, 1452.173
842.7336, 1458.015
843.2157, 1462.913
843.6978, 1463.859
844.1799, 1461.222
844.6620, 1459.783
845.1442, 1459.552
845.6263, 1460.301
846.1084, 1463.130
846.5905, 1466.208
847.0726, 1466.167
847.5547, 1463.542
848.0369, 1460.982
848.5190, 1458.938
849.0011, 1458.031
849.4832, 1459.005
849.9653, 1461.510
850.4474, 1463.829
850.9296, 1466.245
851.4117, 1467.669
851.8938, 1467.495
852.3759, 1466.302
852.8580, 1465.194
853.3401, 1464.320
853.8223, 1464.361
854.3044, 1466.916
854.7865, 1469.307
855.2686, 1469.207
855.7507, 1467.565
856.2328, 1466.717
856.7150, 1467.403
857.1971, 1468.528
857.6792, 1470.086
858.1613, 1471.870
858.6434, 1473.461
859.1255, 1474.845
859.6077, 1476.146
860.0898, 1477.375
860.5719, 1478.474
861.0540, 1479.140
861.5361, 1479.657
862.0182, 1480.545
862.5004, 1482.448
862.9825, 1483.968
863.4646, 1484.593
863.9467, 1484.723
864.4288, 1484.663
864.9109, 1484.297
865.3931, 1484.455
865.8752, 1485.420
866.3573, 1486.250
866.8394, 1485.617
867.3215, 1484.067
867.8036, 1482.510
868.2858, 1480.937
868.7679, 1480.460
869.2500, 1482.092
869.7321, 1484.842
870.2142, 1488.162
870.6964, 1492.803
871.1785, 1495.176
871.6606, 1494.621
872.1427, 1493.351
872.6248, 1493.103
873.1069, 1493.644
873.5891, 1493.955
874.0712, 1493.995
874.5533, 1494.221
875.0354, 1495.232
875.5175, 1496.347
875.9996, 1496.788
876.4818, 1496.443
876.9639, 1497.119
877.4460, 1499.843
877.9281, 1502.142
878.4102, 1502.816
878.8923, 1502.148
879.3745, 1501.814
879.8566, 1501.822
880.3387, 1502.352
880.8208, 1504.096
881.3029, 1505.987
881.7850, 1507.034
882.2672, 1507.325
882.7493, 1507.152
883.2314, 1505.229
883.7135, 1504.682
884.1956, 1507.074
884.6777, 1510.983
885.1599, 1512.223
885.6420, 1510.599
886.1241, 1509.625
886.6062, 1510.303
887.0883, 1512.121
887.5704, 1515.335
888.0526, 1518.946
888.5347, 1520.969
889.0168, 1518.688
889.4989, 1517.731
889.9810, 1521.382
890.4631, 1526.289
890.9453, 1528.574
891.4274, 1527.451
891.9095, 1527.196
892.3916, 1528.316
892.8737, 1529.745
893.3558, 1530.081
893.8380, 1529.875
894.3201, 1530.287
894.8022, 1531.568
895.2843, 1533.071
895.7664, 1534.658
896.2485, 1536.234
896.7307, 1537.651
897.2128, 1538.794
897.6949, 1540.788
898.1770, 1544.043
898.6591, 1546.812
899.1412, 1547.428
899.6234, 1546.702
900.1055, 1547.008
900.5876, 1548.295
901.0697, 1549.984
901.5518, 1552.276
902.0339, 1554.318
902.5161, 1555.173
902.9982, 1555.079
903.4803, 1556.184
903.9624, 1558.901
904.4445, 1561.909
904.9266, 1564.956
905.4088, 1567.859
905.8909, 1570.068
906.3730, 1571.697
906.8551, 1573.230
907.3372, 1574.940
907.8193, 1576.517
908.3015, 1577.327
908.7836, 1577.972
909.2657, 1579.570
909.7478, 1583.486
910.2299, 1585.940
910.7120, 1586.331
911.1942, 1585.773
911.6763, 1585.233
912.1584, 1584.919
912.6405, 1586.293
913.1226, 1589.831
913.6047, 1592.995
914.0869, 1593.369
914.5690, 1592.689
915.0511, 1592.535
915.5332, 1593.299
916.0153, 1593.905
916.4974, 1594.122
916.9796, 1594.518
917.4617, 1595.469
917.9438, 1596.915
918.4259, 1598.574
918.9080, 1600.403
919.3901, 1601.944
919.8723, 1603.064
920.3544, 1603.623
920.8365, 1602.831
921.3186, 1601.145
921.8007, 1601.174
922.2828, 1605.043
922.7650, 1607.654
923.2471, 1607.421
923.7292, 1605.495
924.2113, 1604.748
924.6934, 1605.013
925.1755, 1604.968
925.6577, 1603.767
926.1398, 1602.960
926.6219, 1604.300
927.1040, 1606.734
927.5861, 1608.780
928.0682, 1609.738
928.5504, 1610.863
929.0325, 1612.351
929.5146, 1613.694
929.9967, 1614.294
930.4788, 1614.222
930.9609, 1613.854
931.4431, 1613.182
931.9252, 1613.228
932.4073, 1615.947
932.8894, 1618.931
933.3715, 1619.762
933.8536, 1618.020
934.3358, 1617.438
934.8179, 1619.308
935.3000, 1620.596
935.7821, 1619.716
936.2642, 1617.338
936.7463, 1616.256
937.2285, 1616.321
937.7106, 1616.528
938.1927, 1616.562
938.6748, 1616.327
939.1569, 1615.347
939.6390, 1614.075
940.1212, 1613.611
940.6033, 1615.182
941.0854, 1615.506
941.5675, 1613.888
942.0496, 1611.400
942.5317, 1609.513
943.0139, 1608.174
943.4960, 1607.178
943.9781, 1606.465
944.4602, 1606.139
944.9423, 1605.606
945.4244, 1605.936
945.9066, 1608.545
946.3887, 1614.741
946.8708, 1618.593
947.3529, 1619.283
947.8350, 1619.593
948.3171, 1621.281
948.7993, 1623.986
949.2814, 1626.696
949.7635, 1629.291
950.2456, 1631.033
950.7277, 1630.305
951.2098, 1629.727
951.6920, 1630.754
952.1741, 1633.221
952.6562, 1636.340
953.1383, 1640.737
953.6204, 1643.841
954.1025, 1644.719
954.5847, 1644.836
955.0668, 1647.314
955.5489, 1651.003
956.0310, 1652.376
956.5131, 1649.266
956.9952, 1647.701
957.4774, 1652.994
957.9595, 1659.794
958.4416, 1663.169
958.9237, 1662.160
959.4058, 1661.673
959.8879, 1661.613
960.3701, 1662.566
960.8522, 1666.195
961.3343, 1670.723
961.8164, 1671.751
962.2985, 1669.850
962.7806, 1669.080
963.2628, 1672.290
963.7449, 1675.954
964.2270, 1678.818
964.7091, 1681.039
965.1912, 1683.038
965.6733, 1684.795
966.1555, 1686.474
966.6376, 1688.171
967.1197, 1689.723
967.6018, 1690.381
968.0839, 1690.912
968.5660, 1692.623
969.0482, 1696.433
969.5303, 1700.235
970.0124, 1703.928
970.4945, 1707.255
970.9766, 1709.992
971.4587, 1712.102
971.9409, 1714.107
972.4230, 1715.984
972.9051, 1718.090
973.3872, 1720.519
973.8693, 1723.395
974.3514, 1727.336
974.8336, 1732.006
975.3157, 1735.358
975.7978, 1735.679
976.2799, 1736.694
976.7620, 1739.547
977.2441, 1743.332
977.7263, 1745.609
978.2084, 1746.787
978.6905, 1749.143
979.1726, 1754.005
979.6547, 1758.491
980.1368, 1760.725
980.6190, 1761.306
981.1010, 1760.591
981.5831, 1757.551
982.0652, 1756.621
982.5474, 1758.335
983.0295, 1760.699
983.5116, 1762.182
983.9937, 1763.068
984.4758, 1764.256
984.9579, 1765.670
985.4401, 1766.605
985.9222, 1765.901
986.4043, 1765.386
986.8864, 1766.089
987.3685, 1767.636
987.8506, 1769.168
988.3328, 1770.760
988.8149, 1771.613
989.2970, 1771.309
989.7791, 1770.808
990.2612, 1772.043
990.7433, 1773.774
991.2255, 1773.678
991.7076, 1770.201
992.1897, 1767.977
992.6718, 1768.923
993.1539, 1770.617
993.6360, 1771.877
994.1182, 1772.686
994.6003, 1772.169
995.0824, 1770.320
995.5645, 1768.196
996.0466, 1765.612
996.5287, 1763.727
997.0109, 1764.121
997.4930, 1766.151
997.9751, 1767.460
998.4572, 1767.543
998.9393, 1767.282
999.4214, 1766.702
999.9036, 1766.073
1000.386, 1765.920
1000.868, 1766.109
1001.350, 1766.177
1001.832, 1766.032
1002.314, 1765.845
1002.796, 1766.210
1003.278, 1766.201
1003.760, 1764.771
1004.243, 1761.754
1004.725, 1760.062
1005.207, 1759.733
1005.689, 1760.374
1006.171, 1762.441
1006.653, 1764.800
1007.135, 1765.426
1007.617, 1764.834
1008.100, 1764.463
1008.582, 1765.176
1009.064, 1765.693
1009.546, 1765.711
1010.028, 1765.453
1010.510, 1765.295
1010.992, 1765.212
1011.474, 1764.484
1011.956, 1762.984
1012.439, 1761.608
1012.921, 1761.375
1013.403, 1761.475
1013.885, 1761.159
1014.367, 1760.374
1014.849, 1759.874
1015.331, 1759.555
1015.813, 1759.974
1016.296, 1761.668
1016.778, 1763.910
1017.260, 1764.913
1017.742, 1764.985
1018.224, 1765.007
1018.706, 1764.788
1019.188, 1765.372
1019.670, 1767.489
1020.152, 1770.382
1020.635, 1773.517
1021.117, 1777.144
1021.599, 1778.991
1022.081, 1778.904
1022.563, 1778.223
1023.045, 1777.925
1023.527, 1777.698
1024.009, 1777.021
1024.492, 1776.019
1024.974, 1775.526
1025.456, 1776.686
1025.938, 1776.921
1026.420, 1775.350
1026.902, 1773.085
1027.384, 1772.039
1027.866, 1772.167
1028.349, 1773.688
1028.831, 1777.227
1029.313, 1779.553
1029.795, 1777.060
1030.277, 1773.686
1030.759, 1772.785
1031.241, 1774.594
1031.723, 1776.566
1032.205, 1778.872
1032.688, 1780.361
1033.170, 1779.943
1033.652, 1778.690
1034.134, 1777.516
1034.616, 1776.831
1035.098, 1777.633
1035.580, 1782.841
1036.062, 1785.817
1036.544, 1784.686
1037.027, 1782.347
1037.509, 1782.563
1037.991, 1784.888
1038.473, 1786.250
1038.955, 1786.382
1039.437, 1785.889
1039.919, 1784.791
1040.401, 1783.594
1040.884, 1782.307
1041.366, 1781.137
1041.848, 1781.688
1042.330, 1784.676
1042.812, 1786.131
1043.294, 1784.330
1043.776, 1781.703
1044.258, 1782.176
1044.740, 1784.240
1045.223, 1785.162
1045.705, 1783.684
1046.187, 1782.850
1046.669, 1783.942
1047.151, 1784.895
1047.633, 1783.677
1048.115, 1780.883
1048.597, 1782.230
1049.079, 1787.194
1049.562, 1791.422
1050.044, 1791.854
1050.526, 1791.220
1051.008, 1790.804
1051.490, 1790.529
1051.972, 1790.073
1052.454, 1789.015
1052.936, 1789.702
1053.419, 1792.831
1053.901, 1795.635
1054.383, 1794.193
1054.865, 1791.066
1055.347, 1790.054
1055.829, 1791.507
1056.311, 1792.324
1056.793, 1791.632
1057.276, 1790.302
1057.758, 1788.408
1058.240, 1786.218
1058.722, 1784.159
1059.204, 1782.410
1059.686, 1781.909
1060.168, 1783.644
1060.650, 1784.720
1061.132, 1782.797
1061.615, 1779.774
1062.097, 1777.263
1062.579, 1775.278
1063.061, 1774.097
1063.543, 1773.750
1064.025, 1773.853
1064.507, 1774.930
1064.989, 1775.750
1065.471, 1774.057
1065.954, 1770.928
1066.436, 1769.048
1066.918, 1770.778
1067.400, 1771.115
1067.882, 1769.294
1068.364, 1766.771
1068.846, 1764.682
1069.328, 1763.350
1069.811, 1764.234
1070.293, 1767.336
1070.775, 1770.458
1071.257, 1773.625
1071.739, 1775.169
1072.221, 1773.735
1072.703, 1770.355
1073.185, 1768.014
1073.667, 1766.744
1074.150, 1766.370
1074.632, 1766.979
1075.114, 1768.080
1075.596, 1769.904
1076.078, 1771.568
1076.560, 1772.055
1077.042, 1771.066
1077.524, 1769.753
1078.006, 1767.955
1078.489, 1766.435
1078.971, 1765.449
1079.453, 1765.138
1079.935, 1766.525
1080.417, 1768.770
1080.899, 1769.841
1081.381, 1768.590
1081.863, 1766.513
1082.345, 1763.091
1082.828, 1759.945
1083.310, 1758.827
1083.792, 1759.492
1084.274, 1760.421
1084.756, 1761.525
1085.238, 1762.434
1085.720, 1763.471
1086.202, 1763.689
1086.685, 1761.640
1087.167, 1758.565
1087.649, 1757.441
1088.131, 1758.446
1088.613, 1759.914
1089.095, 1761.739
1089.577, 1763.016
1090.059, 1762.516
1090.542, 1761.148
1091.024, 1759.748
1091.506, 1758.396
1091.988, 1757.217
1092.470, 1755.912
1092.952, 1755.575
1093.434, 1756.914
1093.916, 1758.989
1094.398, 1760.394
1094.880, 1761.042
1095.363, 1760.539
1095.845, 1758.017
1096.327, 1756.410
1096.809, 1757.589
1097.291, 1758.422
1097.773, 1756.564
1098.255, 1752.523
1098.737, 1750.002
1099.220, 1748.952
1099.702, 1749.022
1100.184, 1751.381
1100.666, 1753.330
1101.148, 1753.753
1101.630, 1752.832
1102.112, 1750.666
1102.594, 1746.983
1103.077, 1744.419
1103.559, 1743.167
1104.041, 1742.229
1104.523, 1740.450
1105.005, 1738.867
1105.487, 1738.444
1105.969, 1739.108
1106.451, 1740.455
1106.933, 1743.552
1107.416, 1743.615
1107.898, 1738.863
1108.380, 1733.431
1108.862, 1733.171
1109.344, 1735.682
1109.826, 1737.047
1110.308, 1736.609
1110.790, 1736.404
1111.272, 1737.117
1111.755, 1737.866
1112.237, 1738.537
1112.719, 1738.933
1113.201, 1738.462
1113.683, 1737.293
1114.165, 1735.757
1114.647, 1733.515
1115.129, 1732.266
1115.612, 1734.243
1116.094, 1736.162
1116.576, 1735.569
1117.058, 1732.671
1117.540, 1730.899
1118.022, 1730.231
1118.504, 1730.596
1118.986, 1733.161
1119.469, 1735.184
1119.951, 1733.943
1120.433, 1731.393
1120.915, 1730.563
1121.397, 1732.227
1121.879, 1732.296
1122.361, 1730.570
1122.843, 1728.523
1123.325, 1727.436
1123.807, 1726.537
1124.290, 1724.558
1124.772, 1722.045
1125.254, 1721.156
1125.736, 1723.305
1126.218, 1723.701
1126.700, 1721.223
1127.182, 1718.729
1127.664, 1720.205
1128.147, 1723.579
1128.629, 1725.453
1129.111, 1725.585
1129.593, 1725.090
1130.075, 1723.831
1130.557, 1722.486
1131.039, 1720.987
1131.521, 1719.746
1132.004, 1719.306
1132.486, 1719.781
1132.968, 1722.061
1133.450, 1726.763
1133.932, 1729.874
1134.414, 1728.342
1134.896, 1726.145
1135.378, 1725.039
1135.860, 1724.842
1136.343, 1724.971
1136.825, 1725.318
1137.307, 1725.045
1137.789, 1723.355
1138.271, 1722.276
1138.753, 1723.367
1139.235, 1725.419
1139.717, 1727.584
1140.199, 1729.873
1140.682, 1730.044
1141.164, 1728.115
1141.646, 1726.604
1142.128, 1727.591
1142.610, 1728.662
1143.092, 1727.195
1143.574, 1724.865
1144.056, 1724.372
1144.539, 1726.752
1145.021, 1727.446
1145.503, 1726.292
1145.985, 1724.710
1146.467, 1723.457
1146.949, 1722.626
1147.431, 1722.305
1147.913, 1722.482
1148.396, 1723.226
1148.878, 1725.132
1149.360, 1725.933
1149.842, 1725.224
1150.324, 1724.065
1150.806, 1723.404
1151.288, 1723.087
1151.770, 1723.003
1152.252, 1723.096
1152.734, 1723.046
1153.217, 1722.569
1153.699, 1722.365
1154.181, 1722.692
1154.663, 1723.069
1155.145, 1722.591
1155.627, 1721.707
1156.109, 1721.525
1156.591, 1722.196
1157.074, 1722.416
1157.556, 1721.379
1158.038, 1720.259
1158.520, 1719.398
1159.002, 1718.610
1159.484, 1717.044
1159.966, 1715.224
1160.448, 1715.059
1160.931, 1717.342
1161.413, 1719.170
1161.895, 1718.794
1162.377, 1718.106
1162.859, 1718.130
1163.341, 1718.461
1163.823, 1716.881
1164.305, 1713.979
1164.787, 1712.741
1165.270, 1714.860
1165.752, 1716.961
1166.234, 1717.200
1166.716, 1716.800
1167.198, 1716.528
1167.680, 1716.407
1168.162, 1716.893
1168.644, 1717.890
1169.126, 1718.434
1169.609, 1718.107
1170.091, 1717.181
1170.573, 1714.347
1171.055, 1712.048
1171.537, 1713.327
1172.019, 1718.719
1172.501, 1720.950
1172.983, 1720.026
1173.466, 1718.142
1173.948, 1715.431
1174.430, 1713.502
1174.912, 1714.417
1175.394, 1712.886
1175.876, 1712.978
1176.358, 1713.727
1176.840, 1713.666
1177.323, 1716.613
1177.805, 1718.540
1178.287, 1714.927
1178.769, 1710.375
1179.251, 1708.907
1179.733, 1709.569
1180.215, 1709.219
1180.697, 1707.116
1181.179, 1707.812
1181.661, 1712.054
1182.144, 1716.389
1182.626, 1718.766
1183.108, 1718.944
1183.590, 1714.877
1184.072, 1708.129
1184.554, 1705.832
1185.036, 1709.501
1185.518, 1712.280
1186.001, 1713.227
1186.483, 1712.733
1186.965, 1709.240
1187.447, 1705.932
1187.929, 1707.615
1188.411, 1713.825
1188.893, 1715.720
1189.375, 1711.673
1189.858, 1707.897
1190.340, 1705.637
1190.822, 1704.505
1191.304, 1704.144
1191.786, 1704.526
1192.268, 1706.161
1192.750, 1709.116
1193.232, 1709.844
1193.714, 1707.367
1194.197, 1705.556
1194.679, 1705.730
1195.161, 1706.583
1195.643, 1705.968
1196.125, 1706.977
1196.607, 1705.619
1197.089, 1708.269
1197.571, 1709.945
1198.053, 1710.390
1198.536, 1710.173
1199.018, 1709.371
1199.500, 1708.298
1199.982, 1707.241
1200.464, 1706.352
1200.946, 1706.007
1201.428, 1706.623
1201.910, 1706.177
1202.393, 1704.010
1202.875, 1702.811
1203.357, 1704.411
1203.839, 1706.893
1204.321, 1706.546
1204.803, 1704.961
1205.285, 1705.051
1205.767, 1708.532
1206.250, 1710.392
1206.732, 1710.225
1207.214, 1709.145
1207.696, 1707.081
1208.178, 1705.148
1208.660, 1706.049
1209.142, 1708.374
1209.624, 1709.397
1210.106, 1707.255
1210.589, 1706.326
1211.071, 1706.797
1211.553, 1708.111
1212.035, 1710.990
1212.517, 1713.680
1212.999, 1712.383
1213.481, 1708.827
1213.963, 1706.693
1214.445, 1707.903
1214.928, 1709.086
1215.410, 1710.439
1215.892, 1711.231
1216.374, 1710.424
1216.856, 1709.035
1217.338, 1708.705
1217.820, 1709.105
1218.302, 1709.361
1218.785, 1707.643
1219.267, 1709.612
1219.749, 1716.688
1220.231, 1722.881
1220.713, 1722.724
1221.195, 1719.205
1221.677, 1715.406
1222.159, 1712.000
1222.641, 1710.825
1223.124, 1713.648
1223.606, 1715.073
1224.088, 1714.561
1224.570, 1713.866
1225.052, 1714.902
1225.534, 1716.420
1226.016, 1716.439
1226.498, 1715.508
1226.980, 1715.837
1227.463, 1718.629
1227.945, 1719.677
1228.427, 1718.438
1228.909, 1716.417
1229.391, 1714.756
1229.873, 1713.251
1230.355, 1711.538
1230.837, 1709.786
1231.320, 1708.516
1231.802, 1707.498
1232.284, 1708.074
1232.766, 1710.652
1233.248, 1713.209
1233.730, 1713.682
1234.212, 1713.307
1234.694, 1713.404
1235.177, 1713.774
1235.659, 1713.370
1236.141, 1712.100
1236.623, 1710.199
1237.105, 1707.441
1237.587, 1706.156
1238.069, 1710.011
1238.551, 1714.949
1239.033, 1717.250
1239.516, 1717.392
1239.998, 1718.118
1240.480, 1719.467
1240.962, 1720.568
1241.444, 1721.242
1241.926, 1721.806
1242.408, 1722.302
1242.890, 1722.962
1243.372, 1724.354
1243.855, 1725.969
1244.337, 1726.197
1244.819, 1724.977
1245.301, 1724.603
1245.783, 1725.518
1246.265, 1726.109
1246.747, 1724.926
1247.229, 1723.272
1247.712, 1721.752
1248.194, 1720.565
1248.676, 1720.278
1249.158, 1720.847
1249.640, 1720.998
1250.122, 1720.527
1250.604, 1720.439
1251.086, 1722.043
1251.568, 1723.492
1252.051, 1723.606
1252.533, 1723.047
1253.015, 1723.383
1253.497, 1724.396
1253.979, 1725.013
1254.461, 1725.020
1254.943, 1724.982
1255.425, 1725.031
1255.907, 1725.265
1256.390, 1725.749
1256.872, 1726.354
1257.354, 1726.635
1257.836, 1726.846
1258.318, 1728.333
1258.800, 1731.355
1259.282, 1732.875
1259.764, 1729.934
1260.247, 1727.488
1260.729, 1726.755
1261.211, 1727.421
1261.693, 1729.813
1262.175, 1732.910
1262.657, 1734.536
1263.139, 1734.386
1263.621, 1733.017
1264.104, 1729.085
1264.586, 1726.967
1265.068, 1728.249
1265.550, 1730.456
1266.032, 1729.178
1266.514, 1730.729
1266.996, 1731.569
1267.478, 1731.175
1267.960, 1733.335
1268.443, 1732.571
1268.925, 1732.830
1269.407, 1735.497
1269.889, 1737.959
1270.371, 1736.238
1270.853, 1733.108
1271.335, 1731.796
1271.817, 1732.502
1272.299, 1732.906
1272.782, 1732.930
1273.264, 1733.054
1273.746, 1733.427
1274.228, 1733.682
1274.710, 1732.908
1275.192, 1732.318
1275.674, 1733.612
1276.156, 1736.070
1276.639, 1736.296
1277.121, 1734.271
1277.603, 1732.489
1278.085, 1731.322
1278.567, 1731.815
1279.049, 1737.129
1279.531, 1741.927
1280.013, 1742.542
1280.495, 1740.456
1280.978, 1739.013
1281.460, 1738.204
1281.942, 1737.914
1282.424, 1738.112
1282.906, 1739.065
1283.388, 1742.674
1283.870, 1744.709
1284.352, 1742.941
1284.834, 1739.635
1285.317, 1739.491
1285.799, 1741.422
1286.281, 1742.470
1286.763, 1742.257
1287.245, 1742.163
1287.727, 1742.811
1288.209, 1743.371
1288.691, 1743.646
1289.173, 1743.827
1289.656, 1744.109
1290.138, 1744.535
1290.620, 1745.408
1291.102, 1746.676
1291.584, 1747.127
1292.066, 1746.824
1292.548, 1745.007
1293.030, 1741.044
1293.513, 1737.656
1293.995, 1738.085
1294.477, 1740.504
1294.959, 1743.894
1295.441, 1747.619
1295.923, 1748.996
1296.405, 1747.720
1296.887, 1746.805
1297.370, 1746.680
1297.852, 1747.183
1298.334, 1749.175
1298.816, 1751.003
1299.298, 1750.525
1299.780, 1751.718
1300.262, 1752.319
1300.744, 1751.865
1301.226, 1753.141
1301.708, 1752.741
1302.191, 1752.310
1302.673, 1752.599
1303.155, 1752.514
1303.637, 1750.767
1304.119, 1746.588
##END=



