##NAMES=Anorthite
##RRUFFID=R060193
##IDEAL CHEMISTRY=CaAl_2_Si_2_O_8_
##LOCALITY=Mexico
##OWNER=RRUFF
##SOURCE=Bill Barker
##DESCRIPTION=Tan colored translucent fragment
##STATUS=The identification of this mineral has been confirmed by X-ray diffraction and chemical analysis
##URL=rruff.info/R060193
##MEASURED CHEMISTRY=(Ca_0.58_Na_0.39_K_0.02_)Al_1.60_Si_2.40_O_8_
91.82715, 854.5311
92.30927, 835.5120
92.79138, 839.2924
93.27350, 859.2637
93.75562, 878.0036
94.23773, 890.5215
94.71985, 898.8163
95.20197, 904.8114
95.68408, 909.3621
96.16620, 912.5255
96.64832, 914.9886
97.13043, 917.0488
97.61255, 918.7883
98.09467, 920.4435
98.57678, 919.8230
99.05890, 921.1086
99.54102, 916.7952
100.0231, 911.9243
100.5052, 908.1330
100.9874, 906.0676
101.4695, 905.4131
101.9516, 905.2424
102.4337, 905.7076
102.9158, 906.4066
103.3979, 906.9399
103.8801, 907.5742
104.3622, 909.0162
104.8443, 912.0275
105.3264, 916.9247
105.8085, 919.1368
106.2906, 917.0829
106.7728, 913.9838
107.2549, 911.1539
107.7370, 908.8613
108.2191, 907.3834
108.7012, 907.4366
109.1833, 909.1422
109.6655, 909.9285
110.1476, 908.1255
110.6297, 905.5145
111.1118, 905.0594
111.5939, 907.9929
112.0760, 911.8527
112.5582, 914.3566
113.0403, 915.6007
113.5224, 915.6104
114.0045, 913.9675
114.4866, 910.7372
114.9688, 907.4941
115.4509, 904.3832
115.9330, 901.4760
116.4151, 898.8252
116.8972, 896.4464
117.3793, 894.2112
117.8615, 891.8192
118.3436, 888.8818
118.8257, 886.8256
119.3078, 885.9967
119.7899, 885.8082
120.2720, 885.9947
120.7542, 886.4297
121.2363, 886.8949
121.7184, 886.7708
122.2005, 885.6791
122.6826, 884.2900
123.1647, 882.5266
123.6468, 880.4993
124.1290, 878.3546
124.6111, 876.1473
125.0932, 873.8812
125.5753, 871.6022
126.0574, 868.6729
126.5395, 866.3188
127.0217, 865.2043
127.5038, 865.1976
127.9859, 865.6702
128.4680, 866.5412
128.9501, 867.5206
129.4323, 867.3701
129.9144, 864.9886
130.3965, 862.0185
130.8786, 860.0623
131.3607, 859.2292
131.8428, 859.1658
132.3250, 860.2211
132.8071, 861.8558
133.2892, 863.0709
133.7713, 862.9130
134.2534, 861.9234
134.7355, 862.0189
135.2177, 863.6984
135.6998, 865.9083
136.1819, 868.5316
136.6640, 871.2607
137.1461, 873.3546
137.6282, 873.7535
138.1104, 872.1479
138.5925, 872.2849
139.0746, 876.7888
139.5567, 880.9084
140.0388, 882.0919
140.5209, 880.7343
141.0031, 879.3592
141.4852, 881.1198
141.9673, 887.7664
142.4494, 893.1226
142.9315, 896.4003
143.4136, 899.1829
143.8958, 902.6074
144.3779, 906.9100
144.8600, 911.4996
145.3421, 915.4050
145.8242, 918.1209
146.3063, 921.0648
146.7885, 924.9366
147.2706, 928.8724
147.7527, 931.7907
148.2348, 933.2787
148.7169, 933.7538
149.1990, 933.9337
149.6812, 933.8402
150.1633, 933.5534
150.6454, 933.2664
151.1275, 932.8401
151.6096, 931.7454
152.0917, 929.4084
152.5739, 926.6407
153.0560, 924.9056
153.5381, 924.6472
154.0202, 924.0353
154.5023, 921.2756
154.9844, 916.2791
155.4665, 911.4045
155.9487, 907.6072
156.4308, 904.3132
156.9129, 901.0770
157.3950, 897.7637
157.8771, 894.6379
158.3592, 892.0963
158.8414, 890.2766
159.3235, 888.7653
159.8056, 888.1183
160.2877, 887.3987
160.7698, 885.4537
161.2519, 881.6973
161.7341, 877.0825
162.2162, 874.5068
162.6983, 875.8975
163.1804, 876.8905
163.6625, 876.8499
164.1446, 876.0831
164.6268, 874.7976
165.1089, 873.0367
165.5910, 871.0534
166.0731, 870.4994
166.5552, 873.0383
167.0373, 875.1887
167.5195, 876.1439
168.0016, 876.2021
168.4837, 876.0246
168.9658, 876.0328
169.4479, 876.2010
169.9300, 876.1559
170.4122, 874.4249
170.8943, 873.8787
171.3764, 875.9160
171.8585, 880.3441
172.3406, 886.3425
172.8227, 894.0714
173.3049, 902.9708
173.7870, 909.3030
174.2691, 911.2026
174.7512, 911.8928
175.2333, 913.9543
175.7154, 917.5172
176.1976, 921.2463
176.6797, 923.8879
177.1618, 925.9655
177.6439, 928.6913
178.1260, 932.8141
178.6081, 937.5490
179.0903, 941.6922
179.5724, 944.9806
180.0545, 948.4027
180.5366, 953.3472
181.0187, 958.7747
181.5008, 962.8143
181.9830, 963.7505
182.4651, 962.7895
182.9472, 963.8346
183.4293, 968.1052
183.9114, 972.6199
184.3935, 976.4482
184.8757, 979.5660
185.3578, 981.9015
185.8399, 983.1320
186.3220, 983.4222
186.8041, 984.4941
187.2862, 986.8763
187.7684, 989.5898
188.2505, 992.6287
188.7326, 995.7790
189.2147, 998.6560
189.6968, 1000.846
190.1789, 1002.307
190.6611, 1004.475
191.1432, 1008.088
191.6253, 1011.696
192.1074, 1015.083
192.5895, 1018.087
193.0716, 1020.478
193.5538, 1021.974
194.0359, 1022.439
194.5180, 1023.127
195.0001, 1023.911
195.4822, 1024.958
195.9643, 1026.671
196.4465, 1028.846
196.9286, 1030.736
197.4107, 1031.644
197.8928, 1031.429
198.3749, 1030.867
198.8570, 1030.151
199.3392, 1028.992
199.8213, 1027.379
200.3034, 1025.251
200.7855, 1022.168
201.2676, 1017.315
201.7497, 1010.592
202.2319, 1005.136
202.7140, 1002.519
203.1961, 1000.371
203.6782, 996.3621
204.1603, 990.1839
204.6424, 983.3358
205.1246, 977.0026
205.6067, 971.0637
206.0888, 965.0524
206.5709, 958.3033
207.0530, 951.6533
207.5351, 946.4308
208.0173, 942.9647
208.4994, 939.9424
208.9815, 936.6806
209.4636, 933.1148
209.9457, 928.9593
210.4278, 923.6624
210.9100, 917.7422
211.3921, 912.3037
211.8742, 907.4508
212.3563, 902.9647
212.8384, 898.6469
213.3205, 894.5510
213.8027, 890.8212
214.2848, 887.7028
214.7669, 885.0012
215.2490, 882.0671
215.7311, 878.7468
216.2132, 875.3996
216.6954, 872.0938
217.1775, 868.8781
217.6596, 865.7950
218.1417, 862.7981
218.6238, 859.9554
219.1059, 857.7324
219.5881, 856.5342
220.0702, 855.5419
220.5523, 854.6807
221.0344, 853.8280
221.5165, 852.7790
221.9986, 851.3577
222.4808, 849.6301
222.9629, 848.1970
223.4450, 847.0937
223.9271, 846.3176
224.4092, 845.9671
224.8913, 845.9320
225.3735, 846.0317
225.8556, 846.1404
226.3377, 846.2734
226.8198, 846.6412
227.3019, 847.3458
227.7840, 848.1807
228.2662, 849.3937
228.7483, 850.6844
229.2304, 851.4843
229.7125, 851.3783
230.1946, 850.4850
230.6767, 850.1298
231.1589, 849.6562
231.6410, 850.3514
232.1231, 853.5808
232.6052, 858.1950
233.0873, 862.0190
233.5694, 863.6949
234.0516, 863.5121
234.5337, 863.4872
235.0158, 863.2256
235.4979, 863.5084
235.9800, 865.1025
236.4621, 867.4338
236.9443, 869.1813
237.4264, 869.4891
237.9085, 868.7978
238.3906, 869.1550
238.8727, 870.5514
239.3548, 872.7310
239.8370, 876.2990
240.3191, 880.6504
240.8012, 884.1400
241.2833, 885.7139
241.7654, 886.1766
242.2475, 887.9494
242.7297, 891.5344
243.2118, 895.3369
243.6939, 898.9825
244.1760, 902.3453
244.6581, 904.9014
245.1402, 906.1030
245.6224, 906.7639
246.1045, 908.6118
246.5866, 912.0314
247.0687, 915.4000
247.5508, 917.7601
248.0329, 919.3588
248.5151, 921.0529
248.9972, 922.9598
249.4793, 925.3487
249.9614, 928.8459
250.4435, 933.7564
250.9256, 937.9070
251.4078, 939.4323
251.8899, 938.9744
252.3720, 939.4088
252.8541, 941.5582
253.3362, 944.8001
253.8183, 948.7781
254.3005, 953.4990
254.7826, 957.3339
255.2647, 958.4689
255.7468, 957.5519
256.2289, 958.0630
256.7110, 961.5812
257.1931, 965.3694
257.6753, 966.9840
258.1574, 966.7178
258.6395, 966.4391
259.1216, 967.4443
259.6037, 969.4977
260.0858, 971.2338
260.5680, 972.1112
261.0501, 973.2650
261.5322, 975.6702
262.0143, 978.9510
262.4964, 981.9633
262.9785, 983.8635
263.4607, 984.8195
263.9428, 985.9323
264.4249, 987.6459
264.9070, 988.8158
265.3891, 988.4044
265.8712, 987.1346
266.3534, 986.4955
266.8355, 987.6448
267.3176, 990.0873
267.7997, 991.6395
268.2818, 991.5746
268.7639, 991.7069
269.2461, 992.9861
269.7282, 994.7979
270.2103, 996.2998
270.6924, 997.1209
271.1745, 997.2551
271.6566, 996.4053
272.1388, 993.1082
272.6209, 991.4281
273.1030, 993.4456
273.5851, 997.0139
274.0672, 999.6107
274.5493, 1000.054
275.0315, 999.2365
275.5136, 999.4643
275.9957, 1001.719
276.4778, 1003.147
276.9599, 1002.911
277.4420, 1001.948
277.9242, 1001.028
278.4063, 1000.428
278.8884, 1000.081
279.3705, 999.8915
279.8526, 999.9897
280.3347, 999.9836
280.8169, 999.8170
281.2990, 999.5718
281.7811, 999.4770
282.2632, 999.5262
282.7453, 999.2888
283.2274, 998.0435
283.7096, 995.3327
284.1917, 992.7306
284.6738, 990.0712
285.1559, 987.6578
285.6380, 986.0709
286.1201, 985.1429
286.6023, 983.8275
287.0844, 980.5975
287.5665, 974.5216
288.0486, 970.3573
288.5307, 970.2219
289.0128, 969.9480
289.4950, 967.7047
289.9771, 963.5320
290.4592, 958.3892
290.9413, 952.9823
291.4234, 947.2391
291.9055, 942.3257
292.3877, 938.7789
292.8698, 935.4968
293.3519, 932.1922
293.8340, 928.8787
294.3161, 925.7110
294.7982, 922.8444
295.2804, 920.2186
295.7625, 917.1804
296.2446, 912.8211
296.7267, 909.0196
297.2088, 906.6373
297.6909, 904.9470
298.1731, 902.9705
298.6552, 900.1964
299.1373, 896.6719
299.6194, 892.5455
300.1015, 886.1915
300.5836, 881.2913
301.0658, 879.3030
301.5479, 878.4564
302.0300, 876.6296
302.5121, 873.0273
302.9942, 868.7546
303.4763, 866.1426
303.9585, 867.1556
304.4406, 866.9301
304.9227, 864.2645
305.4048, 861.1537
305.8869, 859.3265
306.3690, 859.1168
306.8512, 859.4631
307.3333, 858.8537
307.8154, 856.7128
308.2975, 855.1293
308.7796, 854.5313
309.2617, 854.0383
309.7439, 853.0670
310.2260, 851.6304
310.7081, 850.0793
311.1902, 848.6400
311.6723, 847.1115
312.1544, 847.2285
312.6366, 851.1264
313.1187, 854.3384
313.6008, 854.5805
314.0829, 852.6271
314.5650, 850.6246
315.0471, 850.1296
315.5293, 851.0267
316.0114, 851.8159
316.4935, 852.7529
316.9756, 853.2984
317.4577, 852.8836
317.9398, 852.0951
318.4220, 851.8682
318.9041, 852.6984
319.3862, 854.2030
319.8683, 855.1732
320.3504, 854.9810
320.8326, 854.9975
321.3147, 855.1811
321.7968, 855.6500
322.2789, 856.6918
322.7610, 858.3457
323.2431, 860.1398
323.7253, 861.1838
324.2074, 860.6509
324.6895, 861.0289
325.1716, 863.1896
325.6537, 865.4899
326.1358, 866.4835
326.6180, 866.2131
327.1001, 866.1179
327.5822, 867.9329
328.0643, 872.3011
328.5464, 875.2643
329.0285, 875.9889
329.5107, 876.3212
329.9928, 876.6553
330.4749, 877.2190
330.9570, 878.3772
331.4391, 880.5081
331.9212, 883.4990
332.4034, 885.6526
332.8855, 886.5368
333.3676, 887.0120
333.8497, 887.0866
334.3318, 886.8816
334.8139, 886.3852
335.2961, 885.5734
335.7782, 884.7696
336.2603, 884.9670
336.7424, 886.9098
337.2245, 888.8251
337.7066, 891.1108
338.1888, 893.0322
338.6709, 893.8552
339.1530, 893.4203
339.6351, 892.2175
340.1172, 890.9774
340.5993, 889.8541
341.0815, 888.2816
341.5636, 884.9815
342.0457, 882.3460
342.5278, 882.1520
343.0099, 884.0930
343.4920, 886.4117
343.9742, 887.5529
344.4563, 887.4822
344.9384, 886.8826
345.4205, 885.2733
345.9026, 883.5624
346.3847, 881.9271
346.8669, 880.3624
347.3490, 878.7178
347.8311, 876.8251
348.3132, 874.9437
348.7953, 874.2850
349.2774, 876.2535
349.7596, 877.2241
350.2417, 875.9582
350.7238, 873.7793
351.2059, 871.9268
351.6880, 870.8260
352.1701, 870.2089
352.6523, 869.6790
353.1344, 869.2606
353.6165, 868.8555
354.0986, 868.5610
354.5807, 868.1935
355.0628, 867.4161
355.5450, 866.3364
356.0271, 865.5942
356.5092, 866.2023
356.9913, 868.2508
357.4734, 868.9518
357.9555, 867.2696
358.4377, 865.2989
358.9198, 863.7770
359.4019, 862.6384
359.8840, 861.6791
360.3661, 860.8080
360.8482, 860.0189
361.3304, 859.2545
361.8125, 858.4442
362.2946, 857.8400
362.7767, 857.8447
363.2588, 857.9431
363.7409, 857.5578
364.2231, 856.4808
364.7052, 855.1039
365.1873, 853.7724
365.6694, 852.4266
366.1515, 851.6196
366.6336, 851.5886
367.1158, 852.1000
367.5979, 853.1801
368.0800, 854.7651
368.5621, 856.2530
369.0442, 857.1091
369.5263, 857.4658
370.0085, 858.1182
370.4906, 859.6824
370.9727, 860.4784
371.4548, 858.6406
371.9369, 855.2390
372.4190, 852.6605
372.9012, 852.1602
373.3833, 852.7528
373.8654, 853.1132
374.3475, 853.2369
374.8296, 853.1393
375.3117, 852.4480
375.7939, 851.7345
376.2760, 851.9948
376.7581, 853.7781
377.2402, 855.3345
377.7223, 854.9201
378.2044, 853.0603
378.6866, 852.1448
379.1687, 853.1273
379.6508, 854.7758
380.1329, 855.7662
380.6150, 856.1561
381.0971, 855.7142
381.5793, 853.2291
382.0614, 850.3234
382.5435, 849.5436
383.0256, 851.2460
383.5077, 853.4623
383.9898, 854.7217
384.4720, 855.1262
384.9541, 855.7533
385.4362, 857.0319
385.9183, 858.1768
386.4004, 858.6224
386.8825, 858.5140
387.3647, 858.3459
387.8468, 858.3280
388.3289, 858.4323
388.8110, 858.6207
389.2931, 859.0250
389.7752, 859.2333
390.2574, 858.7073
390.7395, 858.1420
391.2216, 858.4259
391.7037, 859.7408
392.1858, 861.6004
392.6679, 863.5001
393.1501, 865.4819
393.6322, 867.2393
394.1143, 868.9002
394.5964, 870.2533
395.0785, 870.8454
395.5606, 870.9736
396.0428, 871.5195
396.5249, 873.1242
397.0070, 875.5022
397.4891, 877.1649
397.9712, 877.2342
398.4533, 877.6178
398.9355, 878.7006
399.4176, 880.1144
399.8997, 881.3500
400.3818, 882.2819
400.8639, 883.3692
401.3460, 885.4636
401.8282, 889.3778
402.3103, 891.9854
402.7924, 892.2418
403.2745, 892.3290
403.7566, 893.4664
404.2387, 895.4369
404.7209, 897.3241
405.2030, 898.4847
405.6851, 898.9391
406.1672, 898.7899
406.6493, 898.1715
407.1314, 896.6508
407.6136, 893.4575
408.0957, 889.7127
408.5778, 886.7712
409.0599, 885.1325
409.5420, 883.8469
410.0241, 881.2920
410.5063, 877.1028
410.9884, 873.6818
411.4705, 872.2074
411.9526, 870.9320
412.4347, 868.9119
412.9168, 866.1924
413.3990, 863.2844
413.8811, 860.3862
414.3632, 857.5757
414.8453, 855.1721
415.3274, 853.2692
415.8095, 851.5488
416.2917, 849.8672
416.7738, 848.2518
417.2559, 846.7050
417.7380, 845.1163
418.2201, 843.8339
418.7022, 843.5018
419.1844, 843.9783
419.6665, 843.8445
420.1486, 842.4480
420.6307, 840.5742
421.1128, 839.3713
421.5949, 838.8351
422.0771, 837.8183
422.5592, 834.7062
423.0413, 831.4041
423.5234, 831.3253
424.0055, 834.8519
424.4876, 837.7206
424.9698, 836.4039
425.4519, 831.5266
425.9340, 828.0496
426.4161, 826.7781
426.8982, 825.9998
427.3803, 824.9617
427.8625, 823.8687
428.3446, 823.1547
428.8267, 822.9802
429.3088, 823.2560
429.7909, 823.9153
430.2730, 825.4883
430.7552, 826.1622
431.2373, 825.3609
431.7194, 824.0847
432.2015, 822.9880
432.6836, 822.1247
433.1657, 821.1675
433.6479, 819.7563
434.1300, 818.0075
434.6121, 817.4861
435.0942, 819.9528
435.5763, 821.6261
436.0584, 820.9881
436.5406, 819.6345
437.0227, 819.6369
437.5048, 821.6477
437.9869, 824.3301
438.4690, 825.5062
438.9511, 824.5834
439.4333, 824.0734
439.9154, 823.9982
440.3975, 824.3761
440.8796, 825.6080
441.3617, 827.3484
441.8438, 828.7757
442.3260, 829.3861
442.8081, 829.2635
443.2902, 828.4567
443.7723, 826.4224
444.2544, 825.0770
444.7365, 825.8484
445.2187, 827.1959
445.7008, 827.4677
446.1829, 826.2507
446.6650, 825.4075
447.1471, 827.5120
447.6292, 831.7628
448.1114, 833.3112
448.5935, 830.2352
449.0756, 826.7358
449.5577, 826.7145
450.0398, 829.1810
450.5219, 831.3942
451.0041, 832.5744
451.4862, 833.2294
451.9683, 834.0101
452.4504, 834.8038
452.9325, 834.5961
453.4146, 832.4558
453.8968, 829.6438
454.3789, 829.0787
454.8610, 831.1641
455.3431, 833.5422
455.8252, 836.0068
456.3073, 838.3273
456.7895, 840.0856
457.2716, 841.3002
457.7537, 842.6678
458.2358, 844.8651
458.7179, 847.8991
459.2000, 850.4752
459.6822, 852.5514
460.1643, 854.3110
460.6464, 855.5150
461.1285, 856.5289
461.6106, 857.8154
462.0927, 859.5506
462.5748, 861.6174
463.0569, 863.8598
463.5391, 866.3615
464.0212, 868.7683
464.5033, 870.6990
464.9854, 872.8824
465.4675, 875.6620
465.9496, 878.9939
466.4318, 882.7088
466.9139, 886.7596
467.3960, 891.0506
467.8781, 895.2626
468.3602, 899.2916
468.8423, 903.5622
469.3245, 908.4352
469.8066, 913.4869
470.2887, 918.0959
470.7708, 922.2160
471.2529, 927.0723
471.7350, 934.1815
472.2172, 942.9025
472.6993, 950.6233
473.1814, 956.9059
473.6635, 962.8138
474.1456, 968.8338
474.6277, 975.0600
475.1099, 981.6921
475.5920, 988.8278
476.0741, 996.2344
476.5562, 1004.103
477.0383, 1012.105
477.5204, 1019.377
478.0026, 1025.499
478.4847, 1031.073
478.9668, 1036.804
479.4489, 1042.699
479.9310, 1048.891
480.4131, 1056.504
480.8953, 1063.469
481.3774, 1068.732
481.8595, 1072.126
482.3416, 1073.150
482.8237, 1071.239
483.3058, 1067.607
483.7880, 1066.475
484.2701, 1071.251
484.7522, 1073.643
485.2343, 1071.845
485.7164, 1068.781
486.1985, 1066.430
486.6807, 1065.127
487.1628, 1064.425
487.6449, 1064.173
488.1270, 1064.248
488.6091, 1062.716
489.0912, 1057.488
489.5734, 1054.037
490.0555, 1054.771
490.5376, 1057.530
491.0197, 1059.722
491.5018, 1060.565
491.9839, 1061.892
492.4661, 1065.743
492.9482, 1071.913
493.4303, 1078.307
493.9124, 1084.162
494.3945, 1091.124
494.8766, 1101.249
495.3588, 1113.549
495.8409, 1125.407
496.3230, 1135.246
496.8051, 1145.331
497.2872, 1157.641
497.7693, 1171.766
498.2515, 1186.250
498.7336, 1200.498
499.2157, 1214.935
499.6978, 1230.442
500.1799, 1247.349
500.6620, 1264.159
501.1442, 1281.047
501.6263, 1297.605
502.1084, 1314.217
502.5905, 1330.369
503.0726, 1344.768
503.5547, 1356.540
504.0369, 1366.262
504.5190, 1376.083
505.0011, 1387.860
505.4832, 1396.654
505.9653, 1400.842
506.4474, 1403.327
506.9296, 1407.211
507.4117, 1411.928
507.8938, 1413.633
508.3759, 1408.519
508.8580, 1397.660
509.3401, 1387.721
509.8223, 1379.561
510.3044, 1370.339
510.7865, 1359.449
511.2686, 1346.782
511.7507, 1332.036
512.2328, 1315.103
512.7150, 1296.466
513.1971, 1275.407
513.6792, 1252.906
514.1613, 1231.843
514.6434, 1212.876
515.1255, 1193.599
515.6077, 1171.464
516.0898, 1147.471
516.5719, 1126.105
517.0540, 1109.318
517.5361, 1093.096
518.0182, 1075.283
518.5004, 1056.931
518.9825, 1039.665
519.4646, 1023.870
519.9467, 1009.587
520.4288, 997.0124
520.9109, 986.4543
521.3931, 975.4305
521.8752, 963.2598
522.3573, 951.2999
522.8394, 939.5272
523.3215, 928.4453
523.8036, 918.9991
524.2858, 911.5915
524.7679, 905.0704
525.2500, 897.6014
525.7321, 888.8668
526.2142, 880.8152
526.6964, 873.4830
527.1785, 867.0430
527.6606, 861.9144
528.1427, 857.6915
528.6248, 853.4764
529.1069, 848.8493
529.5891, 844.1385
530.0712, 839.6047
530.5533, 835.2821
531.0354, 831.9285
531.5175, 830.2330
531.9996, 828.8391
532.4818, 825.9622
532.9639, 821.7538
533.4460, 817.5604
533.9281, 813.0773
534.4102, 809.1965
534.8923, 807.1990
535.3745, 806.4775
535.8566, 804.6152
536.3387, 800.2930
536.8208, 795.3268
537.3029, 793.6312
537.7850, 797.8535
538.2672, 799.8754
538.7493, 798.2100
539.2314, 795.8778
539.7135, 794.0458
540.1956, 793.0192
540.6777, 793.1176
541.1599, 794.6698
541.6420, 796.9518
542.1241, 798.0342
542.6062, 797.5058
543.0883, 797.1067
543.5704, 796.9109
544.0526, 797.1514
544.5347, 798.4444
545.0168, 800.4765
545.4989, 801.7826
545.9810, 800.6754
546.4631, 798.9091
546.9453, 799.3738
547.4274, 802.0179
547.9095, 805.2071
548.3916, 808.6535
548.8737, 811.8354
549.3558, 813.4641
549.8380, 813.2352
550.3201, 813.7628
550.8022, 815.9626
551.2843, 818.7579
551.7664, 821.3259
552.2485, 823.6839
552.7307, 826.2418
553.2128, 829.2819
553.6949, 832.5177
554.1770, 835.1287
554.6591, 836.5677
555.1412, 838.3464
555.6234, 840.7620
556.1055, 843.2589
556.5876, 845.4429
557.0697, 847.4154
557.5518, 849.5852
558.0339, 852.3075
558.5161, 855.2431
558.9982, 857.6130
559.4803, 859.3610
559.9624, 860.8546
560.4445, 862.2668
560.9266, 863.3505
561.4088, 863.7765
561.8909, 863.6058
562.3730, 863.5362
562.8551, 864.8207
563.3372, 865.6386
563.8193, 863.5134
564.3015, 858.9318
564.7836, 854.5896
565.2657, 851.6891
565.7478, 849.5809
566.2299, 847.0616
566.7120, 843.9125
567.1942, 840.8600
567.6763, 838.1798
568.1584, 835.3543
568.6405, 832.4227
569.1226, 829.0709
569.6047, 824.3668
570.0869, 817.7621
570.5690, 810.5219
571.0511, 805.4650
571.5332, 803.1218
572.0153, 800.7667
572.4974, 798.0722
572.9796, 795.3967
573.4617, 792.9484
573.9438, 790.6653
574.4259, 788.4029
574.9080, 786.1910
575.3901, 783.8500
575.8723, 780.9335
576.3544, 777.6166
576.8365, 775.0176
577.3186, 773.7032
577.8007, 772.3886
578.2828, 769.1718
578.7650, 763.9027
579.2471, 760.8686
579.7292, 762.1752
580.2113, 763.6473
580.6934, 763.4392
581.1755, 762.0250
581.6577, 760.1754
582.1398, 758.1920
582.6219, 756.1472
583.1040, 754.1015
583.5861, 752.0012
584.0682, 750.3328
584.5504, 749.2281
585.0325, 748.4193
585.5146, 748.6777
585.9967, 748.8264
586.4788, 746.7914
586.9609, 741.8438
587.4431, 737.3975
587.9252, 737.7289
588.4073, 741.3934
588.8894, 742.3975
589.3715, 739.6171
589.8536, 736.7750
590.3358, 736.5574
590.8179, 738.1456
591.3000, 738.5367
591.7821, 737.0238
592.2642, 735.6087
592.7463, 735.1516
593.2285, 734.9753
593.7106, 734.2643
594.1927, 732.9916
594.6748, 731.6698
595.1569, 730.6834
595.6390, 730.0253
596.1212, 729.6706
596.6033, 729.6966
597.0854, 729.9095
597.5675, 730.6089
598.0496, 731.2119
598.5317, 731.3126
599.0139, 730.9136
599.4960, 730.2033
599.9781, 728.9698
600.4602, 727.7549
600.9423, 728.2297
601.4244, 730.4337
601.9066, 730.5248
602.3887, 726.1505
602.8708, 720.6338
603.3529, 718.7392
603.8350, 720.3945
604.3171, 722.1030
604.7993, 724.2207
605.2814, 725.4641
605.7635, 724.1443
606.2456, 721.4561
606.7277, 720.0908
607.2098, 721.0492
607.6920, 722.8848
608.1741, 723.4361
608.6562, 722.4987
609.1383, 721.3741
609.6204, 719.3224
610.1025, 717.9736
610.5847, 718.3692
611.0668, 719.5473
611.5489, 720.1588
612.0310, 719.8092
612.5131, 719.3427
612.9952, 719.9063
613.4774, 720.9791
613.9595, 720.5839
614.4416, 718.3240
614.9237, 716.2861
615.4058, 715.9122
615.8879, 716.6523
616.3701, 716.6559
616.8522, 715.3299
617.3343, 714.5472
617.8164, 714.9054
618.2985, 715.7900
618.7806, 717.0646
619.2628, 718.4040
619.7449, 718.9320
620.2270, 718.0121
620.7091, 716.2047
621.1912, 715.1561
621.6733, 715.1966
622.1555, 715.0000
622.6376, 714.2040
623.1197, 713.3205
623.6018, 712.3563
624.0839, 711.5312
624.5660, 711.4622
625.0482, 712.8001
625.5303, 714.3253
626.0124, 714.8089
626.4945, 714.4561
626.9766, 713.8324
627.4587, 713.0176
627.9409, 712.3721
628.4230, 712.2273
628.9051, 712.5834
629.3872, 713.2214
629.8693, 714.9063
630.3514, 715.8602
630.8336, 715.1264
631.3157, 713.8339
631.7978, 713.0492
632.2799, 712.9582
632.7620, 713.2656
633.2441, 713.9024
633.7263, 714.6312
634.2084, 714.4125
634.6905, 713.0246
635.1726, 711.5029
635.6547, 709.5790
636.1368, 708.1991
636.6190, 708.6772
637.1011, 710.8482
637.5832, 712.3493
638.0653, 712.0824
638.5474, 711.1893
639.0295, 710.2689
639.5117, 709.4979
639.9938, 709.3408
640.4759, 709.9592
640.9580, 710.8637
641.4401, 711.4427
641.9222, 711.6794
642.4044, 711.7487
642.8865, 711.4994
643.3686, 711.2486
643.8507, 710.8229
644.3328, 710.5559
644.8149, 710.9811
645.2971, 712.1205
645.7792, 713.1433
646.2613, 713.2450
646.7434, 712.7520
647.2255, 712.3962
647.7076, 712.1854
648.1898, 712.3124
648.6719, 713.1088
649.1540, 713.9501
649.6361, 713.5605
650.1182, 711.5458
650.6003, 710.4041
651.0825, 711.1055
651.5646, 711.9535
652.0467, 712.0494
652.5288, 711.5825
653.0109, 710.8990
653.4930, 710.1533
653.9752, 709.5460
654.4573, 709.4482
654.9394, 709.8790
655.4215, 710.0074
655.9036, 709.8132
656.3857, 709.3588
656.8679, 708.2236
657.3500, 707.0645
657.8321, 706.7185
658.3142, 707.3483
658.7963, 708.0189
659.2784, 708.5392
659.7606, 708.7370
660.2427, 707.9634
660.7248, 706.5822
661.2069, 706.2244
661.6890, 707.7433
662.1711, 710.0339
662.6533, 711.1165
663.1354, 710.7186
663.6175, 710.0789
664.0996, 709.1371
664.5817, 708.0040
665.0638, 706.0969
665.5460, 704.2684
666.0281, 703.8787
666.5102, 705.3039
666.9923, 706.9484
667.4744, 707.5479
667.9565, 707.3365
668.4387, 706.5652
668.9208, 705.2428
669.4029, 704.6873
669.8850, 705.7007
670.3671, 707.7270
670.8492, 709.7509
671.3314, 712.2321
671.8135, 713.4013
672.2956, 712.2121
672.7777, 710.7153
673.2598, 709.7141
673.7419, 709.2428
674.2241, 709.3281
674.7062, 709.9611
675.1883, 710.6562
675.6704, 710.6407
676.1525, 710.0367
676.6346, 710.1823
677.1168, 711.3724
677.5989, 712.4080
678.0810, 712.5291
678.5631, 712.2509
679.0452, 712.6289
679.5273, 713.9180
680.0095, 714.5458
680.4916, 713.2244
680.9737, 711.9039
681.4558, 712.4235
681.9379, 714.0999
682.4200, 715.0770
682.9022, 714.6101
683.3843, 713.7209
683.8664, 713.9377
684.3485, 715.3552
684.8306, 716.5107
685.3127, 717.6204
685.7949, 718.0671
686.2770, 717.0367
686.7591, 715.5164
687.2412, 714.4736
687.7233, 714.0126
688.2054, 713.9836
688.6876, 714.9674
689.1697, 715.8771
689.6518, 715.1726
690.1339, 713.3483
690.6160, 712.0515
691.0981, 711.9335
691.5803, 712.8213
692.0624, 714.7913
692.5445, 718.2186
693.0266, 719.4135
693.5087, 716.7158
693.9908, 713.9725
694.4730, 711.5654
694.9551, 709.9813
695.4372, 710.1119
695.9193, 711.9360
696.4014, 713.4979
696.8835, 713.3913
697.3657, 712.5527
697.8478, 712.1405
698.3299, 712.1214
698.8120, 712.2946
699.2941, 712.6296
699.7762, 712.7916
700.2584, 712.2675
700.7405, 710.9615
701.2226, 710.2122
701.7047, 710.5897
702.1868, 710.8416
702.6689, 710.4512
703.1511, 710.0413
703.6332, 710.3098
704.1153, 711.2355
704.5974, 712.1413
705.0795, 712.5667
705.5616, 712.7284
706.0438, 712.8758
706.5259, 713.0309
707.0080, 713.4147
707.4901, 714.1360
707.9722, 714.8318
708.4543, 715.0959
708.9365, 714.9368
709.4186, 714.9337
709.9007, 715.3046
710.3828, 715.5268
710.8649, 715.5143
711.3470, 715.3262
711.8292, 714.7829
712.3113, 714.0762
712.7934, 713.9166
713.2755, 715.0124
713.7576, 716.2908
714.2397, 716.0091
714.7219, 714.3522
715.2040, 712.3605
715.6861, 710.0538
716.1682, 708.4319
716.6503, 708.4766
717.1324, 709.8940
717.6146, 711.0425
718.0967, 711.8138
718.5788, 712.4965
719.0609, 713.7136
719.5430, 714.3386
720.0251, 712.9482
720.5073, 710.3363
720.9894, 708.6409
721.4715, 708.9713
721.9536, 709.8967
722.4357, 709.0947
722.9178, 707.0499
723.4000, 706.8953
723.8821, 709.1832
724.3642, 711.8142
724.8463, 713.8317
725.3284, 715.1230
725.8105, 715.2620
726.2927, 713.7558
726.7748, 712.3643
727.2569, 710.6545
727.7390, 709.5983
728.2211, 710.2031
728.7032, 711.6863
729.1854, 712.8017
729.6675, 713.1315
730.1496, 712.9985
730.6317, 712.3680
731.1138, 711.5440
731.5959, 711.7879
732.0781, 713.1856
732.5602, 714.7855
733.0423, 716.4207
733.5244, 717.7258
734.0065, 718.1223
734.4886, 717.4596
734.9708, 716.6790
735.4529, 714.8859
735.9350, 714.0370
736.4171, 715.6783
736.8992, 718.1034
737.3813, 719.4955
737.8635, 719.5572
738.3456, 719.0032
738.8277, 718.0638
739.3098, 717.1528
739.7919, 717.3367
740.2740, 718.5250
740.7562, 719.1956
741.2383, 718.8022
741.7204, 718.5062
742.2025, 719.5317
742.6846, 721.7029
743.1667, 723.0819
743.6489, 723.2391
744.1310, 723.2755
744.6131, 723.3643
745.0952, 723.3287
745.5773, 722.5536
746.0594, 721.5593
746.5416, 721.8433
747.0237, 724.3329
747.5058, 727.1910
747.9879, 727.9700
748.4700, 727.2143
748.9521, 726.9036
749.4343, 727.2518
749.9164, 727.8666
750.3985, 728.6356
750.8806, 729.3459
751.3627, 729.4711
751.8448, 728.5655
752.3270, 728.2186
752.8091, 729.1722
753.2912, 729.8019
753.7733, 728.8449
754.2554, 727.4739
754.7375, 727.5614
755.2197, 729.4226
755.7018, 731.0256
756.1839, 730.3024
756.6660, 728.6635
757.1481, 728.6813
757.6302, 730.0635
758.1124, 730.8934
758.5945, 730.5024
759.0766, 729.8939
759.5587, 730.2501
760.0408, 731.5433
760.5229, 732.3397
761.0051, 732.2548
761.4872, 732.2526
761.9693, 732.2130
762.4514, 732.5055
762.9335, 733.8441
763.4156, 735.7833
763.8978, 736.8068
764.3799, 735.9205
764.8620, 734.7839
765.3441, 734.5878
765.8262, 735.1335
766.3083, 736.4629
766.7905, 738.3594
767.2726, 739.4871
767.7547, 738.9977
768.2368, 737.4125
768.7189, 735.7230
769.2010, 733.4708
769.6832, 732.9064
770.1653, 735.5967
770.6474, 737.7720
771.1295, 737.0042
771.6116, 735.2524
772.0938, 735.2029
772.5759, 737.2782
773.0580, 738.8381
773.5401, 738.4926
774.0222, 737.5967
774.5043, 737.2061
774.9865, 737.1042
775.4686, 736.7659
775.9507, 736.0595
776.4328, 735.1702
776.9149, 734.1444
777.3970, 733.1818
777.8792, 733.4621
778.3613, 735.3885
778.8434, 736.3206
779.3255, 735.2698
779.8076, 733.7288
780.2897, 733.0036
780.7719, 732.8609
781.2540, 732.3135
781.7361, 730.7629
782.2182, 729.6902
782.7003, 729.6224
783.1824, 730.0152
783.6646, 730.7651
784.1467, 731.5598
784.6288, 731.7834
785.1109, 731.1622
785.5930, 730.1956
786.0751, 729.4664
786.5573, 728.9051
787.0394, 728.0777
787.5215, 726.9434
788.0036, 726.4530
788.4857, 727.2198
788.9678, 728.3463
789.4500, 728.4835
789.9321, 727.4657
790.4142, 726.8026
790.8963, 726.9750
791.3784, 726.8621
791.8605, 726.0950
792.3427, 725.0468
792.8248, 724.0264
793.3069, 723.0408
793.7890, 721.9384
794.2711, 720.6959
794.7532, 719.2165
795.2354, 717.1573
795.7175, 714.8457
796.1996, 713.1563
796.6817, 712.1110
797.1638, 710.7401
797.6459, 708.3705
798.1281, 705.6445
798.6102, 704.2578
799.0923, 704.8475
799.5744, 703.9987
800.0565, 700.6425
800.5386, 697.5482
801.0208, 696.5275
801.5029, 696.0917
801.9850, 694.3559
802.4671, 691.1552
802.9492, 688.5463
803.4313, 687.4609
803.9135, 686.7676
804.3956, 686.0799
804.8777, 685.2145
805.3598, 683.8357
805.8419, 681.9805
806.3240, 680.0964
806.8062, 678.5139
807.2883, 677.1475
807.7704, 675.6520
808.2525, 674.0612
808.7346, 673.5906
809.2167, 674.7418
809.6989, 675.5008
810.1810, 674.3391
810.6631, 671.9988
811.1452, 670.5538
811.6273, 670.5639
812.1094, 670.2145
812.5916, 669.4944
813.0737, 668.4388
813.5558, 666.5983
814.0379, 664.6733
814.5200, 663.6306
815.0021, 663.5919
815.4843, 663.7445
815.9664, 663.5509
816.4485, 663.3281
816.9306, 663.7798
817.4127, 664.4542
817.8948, 664.0633
818.3770, 662.3887
818.8591, 660.2518
819.3412, 658.1599
819.8233, 656.4805
820.3054, 656.8762
820.7875, 660.2818
821.2697, 661.2998
821.7518, 657.8087
822.2339, 654.7248
822.7160, 655.9971
823.1981, 659.0126
823.6802, 658.6135
824.1624, 653.5424
824.6445, 650.5830
825.1266, 653.0037
825.6087, 655.8099
826.0908, 656.2677
826.5729, 655.3963
827.0551, 654.8102
827.5372, 654.7756
828.0193, 654.4519
828.5014, 653.0092
828.9835, 651.2200
829.4656, 650.3145
829.9478, 650.2136
830.4299, 650.7381
830.9120, 651.8757
831.3941, 652.7988
831.8762, 652.9666
832.3583, 652.4576
832.8404, 651.4059
833.3225, 649.4360
833.8046, 647.9770
834.2867, 647.0979
834.7689, 646.6615
835.2510, 646.7590
835.7331, 647.1588
836.2152, 647.5125
836.6973, 647.8033
837.1794, 648.5803
837.6616, 651.2256
838.1437, 653.1011
838.6258, 651.8347
839.1079, 649.2330
839.5900, 647.6834
840.0721, 647.4361
840.5543, 647.5149
841.0364, 647.3236
841.5185, 647.0437
842.0006, 647.0239
842.4827, 647.2094
842.9648, 647.1198
843.4470, 646.6600
843.9291, 646.7543
844.4112, 648.1693
844.8933, 649.6826
845.3754, 649.0416
845.8575, 645.6965
846.3397, 643.6672
846.8218, 643.9815
847.3039, 644.2379
847.7860, 643.7783
848.2681, 643.2358
848.7502, 643.1640
849.2324, 643.4985
849.7145, 643.7793
850.1966, 643.5566
850.6787, 643.8289
851.1608, 646.2175
851.6429, 648.6683
852.1251, 648.4041
852.6072, 646.0589
853.0893, 644.2217
853.5714, 643.9988
854.0535, 644.0530
854.5356, 642.1709
855.0178, 642.5757
855.4999, 638.9366
855.9820, 641.7543
856.4641, 643.2719
856.9462, 641.9937
857.4283, 639.8994
857.9105, 638.8427
858.3926, 638.7347
858.8747, 638.8498
859.3568, 639.5308
859.8389, 639.8375
860.3210, 639.6117
860.8032, 639.1322
861.2853, 637.8024
861.7674, 636.5726
862.2495, 637.3384
862.7316, 640.6836
863.2137, 643.4714
863.6959, 644.3832
864.1780, 644.2582
864.6601, 643.1397
865.1422, 641.6714
865.6243, 641.0440
866.1064, 641.3057
866.5886, 641.2123
867.0707, 639.6481
867.5528, 637.7296
868.0349, 637.8240
868.5170, 639.5471
868.9991, 640.4808
869.4813, 640.3182
869.9634, 639.7609
870.4455, 639.1000
870.9276, 638.5162
871.4097, 638.3922
871.8918, 638.8562
872.3740, 638.9150
872.8561, 638.2242
873.3382, 637.7045
873.8203, 637.1912
874.3024, 637.2831
874.7845, 639.4567
875.2667, 642.8905
875.7488, 643.8113
876.2309, 640.1722
876.7130, 636.2430
877.1951, 632.7325
877.6772, 630.2167
878.1594, 629.3177
878.6415, 629.8071
879.1236, 631.4833
879.6057, 634.1793
880.0878, 636.6747
880.5699, 637.9237
881.0521, 638.1712
881.5342, 637.1898
882.0163, 635.5154
882.4984, 635.4962
882.9805, 637.6412
883.4626, 640.6406
883.9448, 643.6947
884.4269, 646.2589
884.9090, 646.3277
885.3911, 643.2141
885.8732, 641.7113
886.3553, 642.8556
886.8375, 643.7722
887.3196, 643.2496
887.8017, 641.6950
888.2838, 639.1859
888.7659, 635.4931
889.2480, 633.8209
889.7302, 636.1355
890.2123, 637.9686
890.6944, 637.7291
891.1765, 637.0121
891.6586, 637.0452
892.1407, 637.7391
892.6229, 638.5162
893.1050, 639.2020
893.5871, 639.8743
894.0692, 641.1866
894.5513, 642.0616
895.0334, 640.5582
895.5156, 637.6898
895.9977, 636.0795
896.4798, 636.3907
896.9619, 637.1786
897.4440, 637.1956
897.9261, 636.7433
898.4083, 636.3390
898.8904, 636.0457
899.3725, 636.9286
899.8546, 639.2962
900.3367, 641.0800
900.8188, 640.8602
901.3010, 639.8251
901.7831, 640.4293
902.2652, 643.1514
902.7473, 644.3998
903.2294, 643.1248
903.7115, 642.2216
904.1937, 642.7488
904.6758, 643.6849
905.1579, 644.2342
905.6400, 644.4644
906.1221, 644.6270
906.6042, 644.2164
907.0864, 644.7385
907.5685, 648.3397
908.0506, 651.2407
908.5327, 650.0764
909.0148, 646.7803
909.4969, 644.4102
909.9791, 643.7334
910.4612, 643.9662
910.9433, 644.8486
911.4254, 646.1371
911.9075, 648.1942
912.3896, 650.2626
912.8718, 650.5099
913.3539, 649.0190
913.8360, 647.5139
914.3181, 646.9374
914.8002, 647.2358
915.2823, 648.9271
915.7645, 651.6319
916.2466, 652.3463
916.7287, 650.9611
917.2108, 648.9445
917.6929, 646.4720
918.1750, 644.8168
918.6572, 645.5615
919.1393, 648.0906
919.6214, 648.7086
920.1035, 646.3669
920.5856, 644.6403
921.0677, 643.5963
921.5499, 643.3653
922.0320, 644.8026
922.5141, 646.6787
922.9962, 647.2409
923.4783, 646.3610
923.9604, 645.7015
924.4426, 645.5465
924.9247, 645.5639
925.4068, 645.4203
925.8889, 645.5897
926.3710, 647.0391
926.8531, 649.0916
927.3353, 649.9297
927.8174, 648.8593
928.2995, 647.2711
928.7816, 645.6844
929.2637, 644.4075
929.7458, 643.8472
930.2280, 643.8305
930.7101, 644.0082
931.1922, 644.2870
931.6743, 644.6467
932.1564, 644.9890
932.6385, 645.6707
933.1207, 648.2588
933.6028, 651.8160
934.0849, 651.4066
934.5670, 646.8556
935.0491, 643.5633
935.5313, 643.8959
936.0134, 645.9950
936.4955, 647.7701
936.9776, 649.1677
937.4597, 649.5887
937.9418, 648.8574
938.4240, 647.7969
938.9061, 646.0621
939.3882, 645.0605
939.8703, 646.1851
940.3524, 648.3123
940.8345, 648.9167
941.3167, 647.5113
941.7988, 646.4244
942.2809, 645.3707
942.7630, 644.9936
943.2451, 645.5604
943.7272, 646.7542
944.2094, 649.3619
944.6915, 652.3879
945.1736, 652.3795
945.6557, 646.8609
946.1378, 643.0168
946.6199, 644.7832
947.1021, 647.7523
947.5842, 649.3364
948.0663, 649.8020
948.5484, 649.5239
949.0305, 648.7975
949.5126, 648.5597
949.9948, 649.7702
950.4769, 650.8810
950.9590, 649.8101
951.4411, 647.9362
951.9232, 647.6686
952.4053, 648.7894
952.8875, 649.6300
953.3696, 649.5778
953.8517, 649.5875
954.3338, 650.8165
954.8159, 652.7341
955.2980, 654.1082
955.7802, 654.9086
956.2623, 654.5982
956.7444, 653.0811
957.2265, 652.1255
957.7086, 652.8084
958.1907, 654.5298
958.6729, 656.3938
959.1550, 658.4232
959.6371, 659.4473
960.1192, 659.2690
960.6013, 658.7736
961.0834, 657.7803
961.5656, 657.4705
962.0477, 659.3417
962.5298, 662.4332
963.0119, 663.3027
963.4940, 660.6492
963.9761, 659.0784
964.4583, 659.3562
964.9404, 659.7131
965.4225, 659.1459
965.9046, 658.7742
966.3867, 659.9647
966.8688, 662.4345
967.3510, 664.3139
967.8331, 665.1843
968.3152, 665.7766
968.7973, 666.2742
969.2794, 666.5031
969.7615, 666.4318
970.2437, 665.9875
970.7258, 664.4735
971.2079, 662.1188
971.6900, 661.5143
972.1721, 665.6501
972.6542, 669.3871
973.1364, 668.6038
973.6185, 666.3898
974.1006, 665.9487
974.5827, 667.1119
975.0648, 668.9698
975.5469, 671.0977
976.0291, 672.2067
976.5112, 670.2813
976.9933, 667.6218
977.4754, 667.4563
977.9575, 668.9572
978.4396, 670.8006
978.9218, 672.4756
979.4039, 672.5436
979.8860, 670.2607
980.3681, 667.8928
980.8502, 669.1324
981.3323, 672.6109
981.8145, 672.8911
982.2966, 670.4564
982.7787, 669.5745
983.2608, 671.1804
983.7429, 672.8851
984.2250, 673.1141
984.7072, 672.2343
985.1893, 670.8111
985.6714, 668.8187
986.1535, 667.2155
986.6356, 666.0660
987.1177, 664.7628
987.5999, 662.8459
988.0820, 661.6395
988.5641, 662.4962
989.0462, 664.7679
989.5283, 666.2871
990.0104, 667.0231
990.4926, 667.0285
990.9747, 665.8772
991.4568, 664.8183
991.9389, 664.4804
992.4210, 664.1508
992.9031, 662.7208
993.3853, 660.5311
993.8674, 659.9322
994.3495, 662.8792
994.8316, 664.1092
995.3137, 662.3653
995.7958, 660.2805
996.2780, 658.4994
996.7601, 657.1949
997.2422, 656.9495
997.7243, 657.5344
998.2064, 657.0157
998.6885, 653.2952
999.1707, 651.1956
999.6528, 653.4329
1000.135, 656.0847
1000.617, 656.5825
1001.099, 655.9077
1001.581, 655.8099
1002.063, 656.4311
1002.545, 656.3776
1003.028, 654.5175
1003.510, 652.6501
1003.992, 651.7692
1004.474, 651.3206
1004.956, 650.8029
1005.438, 650.3010
1005.920, 650.1927
1006.402, 650.5100
1006.885, 650.5992
1007.367, 649.5871
1007.849, 648.7714
1008.331, 649.9471
1008.813, 651.7295
1009.295, 652.2267
1009.777, 651.4868
1010.259, 650.0195
1010.741, 648.1264
1011.224, 646.9147
1011.706, 647.9284
1012.188, 649.5599
1012.670, 649.0621
1013.152, 647.3698
1013.634, 646.5588
1014.116, 646.8146
1014.598, 647.7037
1015.081, 649.0106
1015.563, 650.1929
1016.045, 650.5311
1016.527, 651.3432
1017.009, 650.8607
1017.491, 651.7104
1017.973, 651.7819
1018.455, 650.9597
1018.937, 649.8871
1019.420, 648.8637
1019.902, 648.2037
1020.384, 648.6415
1020.866, 649.6952
1021.348, 648.5032
1021.830, 645.1985
1022.312, 643.9122
1022.794, 645.4229
1023.276, 647.1036
1023.759, 647.4968
1024.241, 647.1627
1024.723, 646.9201
1025.205, 646.7770
1025.687, 647.0368
1026.169, 647.8567
1026.651, 647.4470
1027.133, 645.0255
1027.616, 643.4997
1028.098, 644.7675
1028.580, 647.7179
1029.062, 650.6550
1029.544, 653.6500
1030.026, 653.8375
1030.508, 649.9326
1030.990, 647.9867
1031.473, 649.9186
1031.955, 652.0692
1032.437, 652.2968
1032.919, 651.0950
1033.401, 649.0866
1033.883, 645.9972
1034.365, 645.0793
1034.847, 647.5002
1035.329, 649.5160
1035.812, 650.4474
1036.294, 650.9018
1036.776, 651.1385
1037.258, 651.2307
1037.740, 651.4355
1038.222, 651.9220
1038.704, 651.3232
1039.186, 648.2016
1039.668, 646.3418
1040.151, 647.0170
1040.633, 648.3366
1041.115, 649.6884
1041.597, 650.6966
1042.079, 650.4062
1042.561, 648.5051
1043.043, 647.3932
1043.525, 647.6732
1044.008, 647.9661
1044.490, 648.3606
1044.972, 648.3859
1045.454, 647.3811
1045.936, 645.9571
1046.418, 644.9907
1046.900, 644.4481
1047.382, 645.3228
1047.865, 649.3902
1048.347, 652.5429
1048.829, 653.6379
1049.311, 653.7647
1049.793, 653.1573
1050.275, 652.2844
1050.757, 652.0702
1051.239, 652.6688
1051.721, 652.3544
1052.203, 649.4082
1052.686, 647.4427
1053.168, 648.5557
1053.650, 649.8964
1054.132, 648.9980
1054.614, 647.2234
1055.096, 647.1731
1055.578, 649.1520
1056.060, 650.6592
1056.543, 650.7139
1057.025, 650.6572
1057.507, 650.8550
1057.989, 651.1490
1058.471, 651.5808
1058.953, 651.9562
1059.435, 651.8605
1059.917, 651.2938
1060.400, 651.0736
1060.882, 652.2592
1061.364, 652.7327
1061.846, 650.7833
1062.328, 648.8280
1062.810, 649.0891
1063.292, 650.2612
1063.774, 649.8866
1064.256, 647.9200
1064.739, 647.1103
1065.221, 649.1262
1065.703, 651.2409
1066.185, 652.9347
1066.667, 653.7147
1067.149, 652.4080
1067.631, 650.4271
1068.113, 650.1681
1068.595, 651.4902
1069.078, 651.4528
1069.560, 647.8570
1070.042, 645.3313
1070.524, 647.3541
1071.006, 649.6682
1071.488, 648.9157
1071.970, 646.8370
1072.452, 645.7805
1072.935, 645.9584
1073.417, 646.5774
1073.899, 647.6370
1074.381, 648.2924
1074.863, 647.8457
1075.345, 647.1886
1075.827, 646.7626
1076.309, 646.5861
1076.792, 646.9826
1077.274, 647.6193
1077.756, 647.1670
1078.238, 644.7790
1078.720, 643.3502
1079.202, 644.9684
1079.684, 647.1312
1080.166, 648.5141
1080.648, 649.4158
1081.130, 650.1805
1081.613, 650.8487
1082.095, 651.4780
1082.577, 652.1403
1083.059, 652.2131
1083.541, 651.0959
1084.023, 649.7045
1084.505, 647.8682
1084.987, 646.5839
1085.469, 647.1817
1085.952, 649.0167
1086.434, 650.5699
1086.916, 651.4864
1087.398, 652.2592
1087.880, 653.6710
1088.362, 654.2415
1088.844, 651.8792
1089.326, 649.6479
1089.809, 651.0559
1090.291, 654.1680
1090.773, 654.9573
1091.255, 652.8964
1091.737, 651.6382
1092.219, 653.0441
1092.701, 654.7411
1093.183, 656.9884
1093.666, 658.0036
1094.148, 655.2211
1094.630, 651.0836
1095.112, 649.1146
1095.594, 649.5427
1096.076, 650.4288
1096.558, 651.6584
1097.040, 652.4034
1097.522, 652.2875
1098.005, 651.7406
1098.487, 650.3000
1098.969, 649.0705
1099.451, 649.7981
1099.933, 651.9733
1100.415, 652.9871
1100.897, 651.8358
1101.379, 650.8408
1101.861, 650.3134
1102.344, 650.4027
1102.826, 651.4215
1103.308, 652.8676
1103.790, 654.8029
1104.272, 656.6974
1104.754, 657.1130
1105.236, 655.5123
1105.718, 654.3170
1106.201, 654.0233
1106.683, 654.0919
1107.165, 654.1752
1107.647, 654.7595
1108.129, 656.6339
1108.611, 659.0778
1109.093, 660.8775
1109.575, 661.9666
1110.057, 662.2757
1110.540, 661.3047
1111.022, 660.2821
1111.504, 659.4214
1111.986, 658.5081
1112.468, 656.9936
1112.950, 655.6245
1113.432, 655.5956
1113.914, 656.8104
1114.396, 657.5560
1114.879, 656.9863
1115.361, 657.4182
1115.843, 659.7224
1116.325, 661.8136
1116.807, 662.9465
1117.289, 663.6140
1117.771, 664.1339
1118.253, 664.6036
1118.736, 665.4925
1119.218, 667.3067
1119.700, 667.8479
1120.182, 666.6839
1120.664, 664.9859
1121.146, 661.8983
1121.628, 660.4745
1122.110, 663.7040
1122.593, 669.2350
1123.075, 672.1071
1123.557, 672.1484
1124.039, 672.2929
1124.521, 672.6250
1125.003, 672.7265
1125.485, 672.4814
1125.967, 672.0237
1126.449, 671.0900
1126.932, 670.8647
1127.414, 673.2637
1127.896, 677.7049
1128.378, 680.2394
1128.860, 680.7038
1129.342, 680.6652
1129.824, 680.1146
1130.306, 680.1664
1130.788, 681.2666
1131.271, 682.8458
1131.753, 684.4483
1132.235, 685.9249
1132.717, 686.9561
1133.199, 687.5213
1133.681, 686.8859
1134.163, 685.1334
1134.645, 684.8898
1135.128, 686.7477
1135.610, 689.2731
1136.092, 691.6343
1136.574, 693.6488
1137.056, 695.0849
1137.538, 695.9660
1138.020, 695.8613
1138.502, 695.2449
1138.984, 696.3644
1139.467, 699.2845
1139.949, 702.7045
1140.431, 706.0135
1140.913, 708.0706
1141.395, 707.2938
1141.877, 705.5986
1142.359, 706.1835
1142.841, 708.1165
1143.323, 709.5855
1143.806, 710.6262
1144.288, 711.6271
1144.770, 712.8129
1145.252, 714.7533
1145.734, 717.8862
1146.216, 721.3422
1146.698, 725.1483
1147.180, 728.0357
1147.663, 727.8668
1148.145, 726.1438
1148.627, 724.7830
1149.109, 724.3066
1149.591, 725.2352
1150.073, 727.7703
1150.555, 730.3365
1151.037, 731.7864
1151.520, 733.2401
1152.002, 735.4358
1152.484, 737.9609
1152.966, 740.5710
1153.448, 743.1277
1153.930, 745.6184
1154.412, 747.9567
1154.894, 749.5643
1155.376, 749.8419
1155.859, 750.1953
1156.341, 750.8785
1156.823, 751.9471
1157.305, 753.8878
1157.787, 755.8668
1158.269, 756.8582
1158.751, 757.1826
1159.233, 758.0804
1159.715, 759.9397
1160.198, 761.2538
1160.680, 761.0328
1161.162, 761.5707
1161.644, 763.4873
1162.126, 765.9941
1162.608, 769.2511
1163.090, 772.3171
1163.572, 773.6422
1164.055, 773.3221
1164.537, 773.2653
1165.019, 773.1221
1165.501, 774.4808
1165.983, 777.9127
1166.465, 781.3773
1166.947, 784.2852
1167.429, 786.6176
1167.911, 788.3384
1168.394, 789.5163
1168.876, 790.1844
1169.358, 790.3422
1169.840, 791.2902
1170.322, 793.0435
1170.804, 794.5026
1171.286, 795.4593
1171.768, 796.8035
1172.250, 799.0274
1172.733, 801.4862
1173.215, 803.2806
1173.697, 804.8975
1174.179, 808.4619
1174.661, 812.7626
1175.143, 812.6063
1175.625, 809.0224
1176.107, 808.2341
1176.590, 811.6083
1177.072, 815.0179
1177.554, 815.7623
1178.036, 815.7308
1178.518, 816.8920
1179.000, 818.6298
1179.482, 820.1139
1179.964, 821.6094
1180.447, 824.1229
1180.929, 827.0702
1181.411, 828.4786
1181.893, 827.7762
1182.375, 826.5711
1182.857, 825.3962
1183.339, 824.4774
1183.821, 823.8962
1184.303, 823.6639
1184.786, 823.6116
1185.268, 824.0175
1185.750, 825.7342
1186.232, 828.3757
1186.714, 829.7242
1187.196, 828.5798
1187.678, 828.4485
1188.160, 830.5623
1188.642, 832.8759
1189.125, 835.2406
1189.607, 837.1055
1190.089, 837.9374
1190.571, 838.1635
1191.053, 838.6403
1191.535, 839.3598
1192.017, 838.7150
1192.499, 835.6960
1192.982, 834.5469
1193.464, 836.1839
1193.946, 837.7758
1194.428, 838.4561
1194.910, 838.2347
1195.392, 836.8824
1195.874, 835.1832
1196.356, 835.1453
1196.839, 836.6198
1197.321, 837.5634
1197.803, 837.9963
1198.285, 838.6702
1198.767, 839.5607
1199.249, 838.4181
1199.731, 834.2830
1200.213, 830.5145
1200.695, 830.6105
1201.177, 832.7600
1201.660, 834.5574
1202.142, 835.8879
1202.624, 836.5043
1203.106, 836.4915
1203.588, 835.9581
1204.070, 835.0364
1204.552, 834.0293
1205.034, 833.0560
1205.517, 832.2706
1205.999, 832.1083
1206.481, 831.8014
1206.963, 830.4783
1207.445, 829.0504
1207.927, 828.0185
1208.409, 827.7147
1208.891, 829.2286
1209.374, 832.2636
1209.856, 833.3764
1210.338, 830.2107
1210.820, 828.4133
1211.302, 830.1074
1211.784, 831.6282
1212.266, 831.6371
1212.748, 831.1290
1213.230, 830.8895
1213.713, 830.4966
1214.195, 828.8077
1214.677, 828.9550
1215.159, 828.8709
1215.641, 828.1555
1216.123, 829.6788
1216.605, 829.0687
1217.087, 829.5482
1217.569, 832.5841
1218.052, 834.8417
1218.534, 833.2210
1219.016, 829.7674
1219.498, 828.4182
1219.980, 828.8799
1220.462, 830.3195
1220.944, 832.3842
1221.426, 833.4565
1221.909, 833.5408
1222.391, 833.8520
1222.873, 834.8477
1223.355, 836.1578
1223.837, 837.7075
1224.319, 838.9374
1224.801, 839.2894
1225.283, 838.9955
1225.766, 837.2531
1226.248, 835.7134
1226.730, 837.7848
1227.212, 842.2021
1227.694, 843.7556
1228.176, 840.7840
1228.658, 839.4086
1229.140, 843.5511
1229.622, 846.7870
1230.104, 846.3790
1230.587, 845.5017
1231.069, 845.6542
1231.551, 846.4987
1232.033, 847.9567
1232.515, 849.6748
1232.997, 850.0602
1233.479, 852.1491
1233.961, 854.1851
1234.444, 854.9464
1234.926, 858.4147
1235.408, 858.5416
1235.890, 859.1057
1236.372, 862.1035
1236.854, 865.4872
1237.336, 867.0058
1237.818, 867.1033
1238.301, 866.3322
1238.783, 865.2152
1239.265, 865.9789
1239.747, 868.2809
1240.229, 870.5701
1240.711, 872.5400
1241.193, 874.4905
1241.675, 876.5546
1242.157, 878.5538
1242.640, 880.4633
1243.122, 882.0845
1243.604, 882.8158
1244.086, 883.6114
1244.568, 885.4689
1245.050, 887.9957
1245.532, 890.5556
1246.014, 893.1325
1246.496, 896.0952
1246.979, 899.7515
1247.461, 902.6344
1247.943, 904.1593
1248.425, 905.4297
1248.907, 907.1801
1249.389, 907.8870
1249.871, 905.7949
1250.353, 903.8000
1250.836, 905.2493
1251.318, 909.2678
1251.800, 912.9686
1252.282, 916.4287
1252.764, 917.7855
1253.246, 916.9725
1253.728, 917.9421
1254.210, 921.3394
1254.693, 925.3676
1255.175, 929.1962
1255.657, 932.7416
1256.139, 936.0636
1256.621, 938.6309
1257.103, 938.3832
1257.585, 937.7516
1258.067, 941.2864
1258.549, 947.1193
1259.031, 951.9160
1259.514, 955.2891
1259.996, 957.9684
1260.478, 960.1766
1260.960, 961.9534
1261.442, 963.3034
1261.924, 964.2473
1262.406, 963.9807
1262.888, 964.2780
1263.371, 966.0247
1263.853, 968.8674
1264.335, 973.2903
1264.817, 978.1371
1265.299, 980.4001
1265.781, 979.8854
1266.263, 980.0071
1266.745, 980.6213
1267.228, 983.0181
1267.710, 987.6898
1268.192, 990.8312
1268.674, 991.0016
1269.156, 991.3018
1269.638, 994.3004
1270.120, 998.0209
1270.602, 998.5560
1271.084, 1001.900
1271.567, 1001.168
1272.049, 1006.486
1272.531, 1010.293
1273.013, 1012.426
1273.495, 1013.526
1273.977, 1013.911
1274.459, 1014.038
1274.941, 1013.686
1275.423, 1014.695
1275.906, 1019.339
1276.388, 1023.730
1276.870, 1025.625
1277.352, 1026.960
1277.834, 1029.153
1278.316, 1031.862
1278.798, 1034.474
1279.280, 1037.025
1279.763, 1039.693
1280.245, 1042.657
1280.727, 1044.457
1281.209, 1044.834
1281.691, 1046.349
1282.173, 1049.533
1282.655, 1053.682
1283.137, 1058.526
1283.620, 1063.179
1284.102, 1066.738
1284.584, 1068.954
1285.066, 1069.536
##END=



