##NAMES=Anorpiment
##RRUFFID=R110016
##IDEAL CHEMISTRY=As^3+^_2_S^2-^_3_
##LOCALITY=Palomo mine, Huancavelica Department, Peru
##OWNER=RRUFF
##SOURCE=Bob Jenkins
##DESCRIPTION=Platy transparent olive green crystals coating botryoidal yellow orpiment. Co-type specimen.
##STATUS=The identification of this mineral is confirmed by single-crystal X-ray diffraction and chemical analysis.
##URL=rruff.info/R110016
##MEASURED CHEMISTRY=As_1.96_S_3.04_
139.7290, 14.33121
140.2111, 15.63174
140.6932, 18.69423
141.1753, 22.13284
141.6575, 24.59410
142.1396, 25.84913
142.6217, 26.78455
143.1038, 27.41773
143.5859, 27.71382
144.0681, 28.50982
144.5502, 29.62766
145.0323, 31.40584
145.5144, 34.36283
145.9965, 39.17387
146.4786, 44.10947
146.9608, 48.69366
147.4429, 52.94863
147.9250, 57.00837
148.4071, 60.23473
148.8892, 63.51287
149.3713, 68.09636
149.8535, 75.46584
150.3356, 82.74130
150.8177, 89.03016
151.2998, 93.43797
151.7819, 98.78010
152.2640, 105.0449
152.7462, 112.2659
153.2283, 120.3898
153.7104, 128.6444
154.1925, 138.4303
154.6746, 150.4204
155.1567, 165.9061
155.6389, 181.1264
156.1210, 194.5911
156.6031, 207.4532
157.0852, 222.6758
157.5673, 244.2945
158.0495, 265.9214
158.5316, 284.7260
159.0137, 300.2515
159.4958, 312.6035
159.9779, 320.3828
160.4600, 324.7452
160.9422, 329.4667
161.4243, 335.1907
161.9064, 342.0568
162.3885, 350.1747
162.8706, 360.4956
163.3527, 371.1262
163.8349, 380.5508
164.3170, 389.3388
164.7991, 400.2109
165.2812, 414.1943
165.7633, 430.9467
166.2454, 450.2035
166.7276, 473.3585
167.2097, 497.6508
167.6918, 520.9741
168.1739, 543.5215
168.6560, 568.6260
169.1381, 596.1211
169.6203, 627.5996
170.1024, 660.7234
170.5845, 701.3614
171.0666, 745.9696
171.5487, 788.5587
172.0309, 829.3285
172.5130, 874.2128
172.9951, 925.3796
173.4772, 983.3826
173.9593, 1049.482
174.4414, 1122.098
174.9236, 1203.497
175.4057, 1300.372
175.8878, 1413.733
176.3699, 1522.816
176.8520, 1636.589
177.3341, 1735.801
177.8163, 1777.521
178.2984, 1731.655
178.7805, 1623.031
179.2626, 1471.092
179.7447, 1275.266
180.2268, 1079.377
180.7090, 921.8978
181.1911, 800.3782
181.6732, 710.9148
182.1553, 659.2902
182.6374, 637.2706
183.1195, 631.4194
183.6017, 642.1252
184.0838, 663.3475
184.5659, 690.6828
185.0480, 723.3467
185.5301, 758.9591
186.0123, 797.7815
186.4944, 838.7413
186.9765, 880.8604
187.4586, 927.5638
187.9407, 964.4567
188.4228, 968.7092
188.9050, 942.4601
189.3871, 905.9863
189.8692, 860.8307
190.3513, 811.5118
190.8334, 781.3840
191.3155, 773.3820
191.7977, 780.1734
192.2798, 795.9816
192.7619, 820.8063
193.2440, 839.2072
193.7261, 847.2382
194.2082, 844.1327
194.6904, 818.6811
195.1725, 767.5781
195.6546, 699.6605
196.1367, 628.0721
196.6188, 551.4659
197.1009, 483.2945
197.5831, 431.5183
198.0652, 395.5862
198.5473, 367.5864
199.0294, 347.9212
199.5115, 334.6252
199.9937, 324.2252
200.4758, 316.9395
200.9579, 311.7302
201.4400, 308.9974
201.9221, 309.0337
202.4042, 307.1335
202.8864, 302.3627
203.3685, 296.1884
203.8506, 292.1479
204.3327, 290.6303
204.8148, 289.7806
205.2969, 288.7563
205.7791, 287.5812
206.2612, 286.0167
206.7433, 283.9176
207.2254, 281.5220
207.7075, 279.4807
208.1896, 277.9091
208.6718, 276.3412
209.1539, 274.3023
209.6360, 271.5319
210.1181, 269.7548
210.6002, 269.2724
211.0823, 269.7224
211.5645, 270.1599
212.0466, 270.6515
212.5287, 270.9930
213.0108, 271.1094
213.4929, 271.0427
213.9750, 270.5118
214.4572, 269.0897
214.9393, 267.3614
215.4214, 267.2718
215.9035, 269.6575
216.3856, 271.9788
216.8678, 272.7111
217.3499, 271.2969
217.8320, 270.1596
218.3141, 269.5025
218.7962, 269.1618
219.2783, 268.5832
219.7605, 267.5178
220.2426, 266.6584
220.7247, 266.4916
221.2068, 267.4294
221.6889, 267.8153
222.1710, 267.2592
222.6532, 266.1823
223.1353, 265.9918
223.6174, 267.1470
224.0995, 268.4265
224.5816, 269.1215
225.0637, 268.7397
225.5459, 269.1331
226.0280, 270.8193
226.5101, 273.2214
226.9922, 274.3347
227.4743, 273.0849
227.9564, 272.2502
228.4386, 273.4161
228.9207, 277.8809
229.4028, 281.0927
229.8849, 282.5624
230.3670, 282.8441
230.8492, 283.5522
231.3313, 284.9717
231.8134, 286.3734
232.2955, 287.3503
232.7776, 287.3781
233.2597, 288.2378
233.7419, 290.4080
234.2240, 293.2981
234.7061, 295.2844
235.1882, 296.0334
235.6703, 296.4022
236.1524, 296.6732
236.6346, 296.5602
237.1167, 297.0630
237.5988, 298.5058
238.0809, 300.4455
238.5630, 301.9088
239.0451, 302.9231
239.5273, 303.3897
240.0094, 303.1179
240.4915, 301.5326
240.9736, 300.7383
241.4557, 301.1391
241.9378, 302.1350
242.4200, 302.4370
242.9021, 301.5784
243.3842, 300.7433
243.8663, 300.3269
244.3484, 300.3039
244.8306, 300.8400
245.3127, 302.3418
245.7948, 304.1833
246.2769, 305.1183
246.7590, 304.5405
247.2411, 304.0732
247.7233, 304.2722
248.2054, 305.2588
248.6875, 306.5333
249.1696, 308.3925
249.6517, 310.3348
250.1338, 311.4113
250.6160, 310.9351
251.0981, 310.8417
251.5802, 311.8307
252.0623, 314.1557
252.5444, 316.2874
253.0265, 318.1640
253.5087, 319.8870
253.9908, 321.5919
254.4729, 323.4213
254.9550, 324.9802
255.4371, 326.1954
255.9192, 327.0740
256.4014, 327.4046
256.8835, 326.8042
257.3656, 326.0353
257.8477, 326.0108
258.3298, 326.8867
258.8120, 328.1866
259.2941, 329.9948
259.7762, 332.3854
260.2583, 334.0725
260.7404, 334.9177
261.2225, 335.2415
261.7047, 335.2018
262.1868, 334.3077
262.6689, 334.3920
263.1510, 336.2945
263.6331, 339.9133
264.1152, 341.9175
264.5974, 341.4484
265.0795, 340.6693
265.5616, 341.8916
266.0437, 345.9488
266.5258, 349.3142
267.0079, 351.2617
267.4901, 351.9449
267.9722, 352.4347
268.4543, 352.5700
268.9364, 352.8644
269.4185, 353.8842
269.9006, 355.8912
270.3828, 357.4734
270.8649, 358.3092
271.3470, 358.5744
271.8291, 359.0434
272.3112, 359.6413
272.7933, 360.6356
273.2755, 362.3746
273.7576, 365.0058
274.2397, 367.2887
274.7218, 368.9850
275.2039, 370.2659
275.6860, 371.5544
276.1682, 372.7784
276.6503, 374.3272
277.1324, 376.3797
277.6145, 378.9025
278.0966, 382.2802
278.5787, 386.7825
279.0609, 391.8747
279.5430, 396.2900
280.0251, 399.8472
280.5072, 403.7971
280.9893, 408.9633
281.4715, 415.3011
281.9536, 421.8593
282.4357, 428.7958
282.9178, 435.5604
283.3999, 440.9635
283.8820, 444.9214
284.3642, 448.9102
284.8463, 453.3358
285.3284, 458.2651
285.8105, 464.6636
286.2926, 472.9761
286.7747, 481.3952
287.2569, 487.1396
287.7390, 490.2955
288.2211, 493.3380
288.7032, 497.3269
289.1853, 502.0226
289.6674, 506.3552
290.1496, 510.2886
290.6317, 514.2549
291.1138, 518.9158
291.5959, 524.1730
292.0780, 529.0821
292.5602, 532.9036
293.0423, 536.3771
293.5244, 541.5046
294.0065, 548.3094
294.4886, 555.8600
294.9707, 563.8748
295.4529, 572.1331
295.9350, 579.5554
296.4171, 585.4567
296.8992, 590.8754
297.3813, 597.4999
297.8634, 605.2534
298.3456, 613.7071
298.8277, 622.2281
299.3098, 631.1428
299.7919, 640.8737
300.2740, 650.8075
300.7561, 662.7491
301.2383, 678.6172
301.7204, 698.3696
302.2025, 720.8401
302.6846, 744.9281
303.1667, 771.4929
303.6488, 801.9495
304.1310, 835.7384
304.6131, 874.9908
305.0952, 921.5597
305.5773, 974.9501
306.0594, 1033.569
306.5415, 1096.879
307.0237, 1165.167
307.5058, 1240.836
307.9879, 1324.340
308.4700, 1410.514
308.9521, 1496.339
309.4343, 1582.356
309.9164, 1671.364
310.3985, 1764.531
310.8806, 1862.071
311.3627, 1963.529
311.8448, 2069.737
312.3270, 2181.803
312.8091, 2293.573
313.2912, 2413.920
313.7733, 2553.328
314.2554, 2702.292
314.7375, 2882.610
315.2197, 3096.539
315.7018, 3348.175
316.1839, 3655.492
316.6660, 4014.132
317.1481, 4440.432
317.6302, 4944.237
318.1124, 5559.543
318.5945, 6215.256
319.0766, 6923.814
319.5587, 7664.203
320.0408, 8374.087
320.5229, 9053.826
321.0051, 9683.789
321.4872, 10257.23
321.9693, 10774.87
322.4514, 11220.17
322.9335, 11578.62
323.4156, 11863.03
323.8978, 12098.06
324.3799, 12237.70
324.8620, 12372.42
325.3441, 12528.04
325.8262, 12696.62
326.3083, 12912.29
326.7905, 13141.87
327.2726, 13432.68
327.7547, 13838.94
328.2368, 14272.79
328.7189, 14918.08
329.2010, 15828.87
329.6832, 17007.10
330.1653, 18333.33
330.6474, 19886.72
331.1295, 21529.49
331.6116, 23171.89
332.0938, 24831.35
332.5759, 26480.90
333.0580, 28206.99
333.5401, 29962.23
334.0222, 31343.03
334.5043, 32661.03
334.9865, 33196.25
335.4686, 32489.19
335.9507, 30304.49
336.4328, 27417.93
336.9149, 23547.99
337.3970, 19109.97
337.8792, 15297.92
338.3613, 12062.73
338.8434, 9425.646
339.3255, 7435.124
339.8076, 6137.797
340.2898, 5112.043
340.7719, 4382.950
341.2540, 3865.591
341.7361, 3444.558
342.2182, 3132.357
342.7003, 2864.545
343.1825, 2628.077
343.6646, 2419.879
344.1467, 2234.097
344.6288, 2068.606
345.1109, 1927.999
345.5930, 1816.675
346.0752, 1734.959
346.5573, 1671.566
347.0394, 1625.365
347.5215, 1593.894
348.0036, 1571.869
348.4857, 1559.365
348.9679, 1554.145
349.4500, 1559.651
349.9321, 1571.463
350.4142, 1579.194
350.8963, 1584.594
351.3784, 1577.202
351.8606, 1543.666
352.3427, 1485.930
352.8248, 1409.729
353.3069, 1304.894
353.7890, 1189.478
354.2711, 1083.737
354.7533, 989.1001
355.2354, 908.4406
355.7175, 846.2422
356.1996, 800.4924
356.6817, 767.6896
357.1638, 750.5595
357.6460, 742.8115
358.1281, 740.3480
358.6102, 743.0214
359.0923, 750.3660
359.5744, 763.8557
360.0565, 781.1041
360.5387, 799.9090
361.0208, 820.8141
361.5029, 841.8058
361.9850, 863.4526
362.4671, 884.6964
362.9492, 901.9325
363.4314, 910.1719
363.9135, 916.7930
364.3956, 925.4964
364.8777, 936.4544
365.3598, 950.4961
365.8419, 965.4193
366.3241, 983.9987
366.8062, 1010.367
367.2883, 1042.512
367.7704, 1084.978
368.2526, 1138.410
368.7347, 1202.756
369.2168, 1280.048
369.6989, 1367.564
370.1810, 1469.718
370.6631, 1591.608
371.1453, 1741.616
371.6274, 1899.528
372.1095, 2066.102
372.5916, 2240.930
373.0737, 2415.119
373.5558, 2589.613
374.0380, 2764.217
374.5201, 2945.802
375.0022, 3144.353
375.4843, 3317.814
375.9664, 3485.773
376.4485, 3609.473
376.9307, 3613.792
377.4128, 3491.951
377.8949, 3277.343
378.3770, 2952.157
378.8591, 2525.717
379.3412, 2149.116
379.8234, 1823.323
380.3055, 1555.046
380.7876, 1366.533
381.2697, 1253.725
381.7518, 1175.448
382.2339, 1128.763
382.7161, 1103.464
383.1982, 1077.857
383.6803, 1052.138
384.1624, 1025.403
384.6445, 993.4459
385.1266, 960.2825
385.6088, 936.0124
386.0909, 922.6171
386.5730, 916.9753
387.0551, 916.4085
387.5372, 920.9095
388.0193, 930.5793
388.5015, 956.6249
388.9836, 981.8496
389.4657, 991.0941
389.9478, 983.7197
390.4299, 954.5501
390.9120, 889.8112
391.3942, 804.3182
391.8763, 717.0306
392.3584, 624.0197
392.8405, 540.7374
393.3226, 476.0592
393.8047, 428.2706
394.2869, 389.5431
394.7690, 359.6808
395.2511, 335.9821
395.7332, 317.1135
396.2154, 303.9945
396.6975, 293.3614
397.1796, 284.7761
397.6617, 278.1124
398.1438, 273.1784
398.6259, 272.2360
399.1081, 270.7256
399.5902, 266.8914
400.0723, 260.1521
400.5544, 255.0499
401.0365, 252.3194
401.5186, 250.6658
402.0008, 249.1465
402.4829, 248.0979
402.9650, 246.4915
403.4471, 243.9848
403.9292, 240.8248
404.4113, 238.0197
404.8935, 235.3936
405.3756, 233.4761
405.8577, 232.8992
406.3398, 233.9946
406.8219, 233.9152
407.3040, 232.3999
407.7862, 230.1562
408.2683, 228.1247
408.7504, 226.3151
409.2325, 224.4765
409.7146, 222.4091
410.1967, 220.2920
410.6789, 218.4586
411.1610, 216.8971
411.6431, 215.9545
412.1252, 216.4981
412.6073, 217.9459
413.0894, 218.5150
413.5716, 217.5778
414.0537, 216.2525
414.5358, 216.0497
415.0179, 216.6445
415.5000, 216.9720
415.9821, 216.0630
416.4643, 214.7950
416.9464, 214.2307
417.4285, 214.5056
417.9106, 214.5423
418.3927, 213.5101
418.8748, 211.8832
419.3570, 210.2450
419.8391, 208.4889
420.3212, 207.0356
420.8033, 206.0564
421.2854, 205.5278
421.7675, 205.3020
422.2497, 205.6807
422.7318, 206.0959
423.2139, 206.2890
423.6960, 206.3527
424.1781, 205.9374
424.6602, 204.3601
425.1424, 202.4576
425.6245, 201.4990
426.1066, 202.5960
426.5887, 203.2486
427.0709, 202.8964
427.5530, 201.5388
428.0351, 199.8924
428.5172, 197.6080
428.9993, 195.4825
429.4814, 194.1636
429.9636, 193.8919
430.4457, 193.5670
430.9278, 193.2868
431.4099, 192.7191
431.8920, 190.7625
432.3741, 187.1434
432.8563, 184.1420
433.3384, 183.3179
433.8205, 184.2108
434.3026, 183.1834
434.7847, 179.9270
435.2668, 177.1613
435.7490, 179.0662
436.2311, 184.0811
436.7132, 186.3018
437.1953, 182.9736
437.6774, 177.8565
438.1595, 175.7364
438.6417, 176.2028
439.1238, 177.5577
439.6059, 180.0390
440.0880, 182.2447
440.5701, 182.3147
441.0522, 179.7565
441.5344, 177.1423
442.0165, 176.0992
442.4986, 175.9287
442.9807, 175.7846
443.4628, 175.0746
443.9449, 174.6442
444.4271, 174.9998
444.9092, 176.0020
445.3913, 176.8498
445.8734, 177.6980
446.3555, 178.0548
446.8376, 177.5214
447.3198, 175.0719
447.8019, 173.7428
448.2840, 174.4785
448.7661, 175.9956
449.2482, 176.4593
449.7303, 175.0570
450.2125, 173.9765
450.6946, 173.7222
451.1767, 174.2445
451.6588, 174.8280
452.1409, 175.5269
452.6230, 176.1749
453.1052, 176.9055
453.5873, 177.8245
454.0694, 177.1863
454.5515, 174.3666
455.0337, 170.9622
455.5158, 169.9901
455.9979, 171.2749
456.4800, 172.3545
456.9621, 171.9669
457.4442, 170.7118
457.9264, 170.1667
458.4085, 170.2983
458.8906, 170.1059
459.3727, 168.3137
459.8548, 165.7770
460.3369, 163.8961
460.8191, 163.0237
461.3012, 162.6973
461.7833, 162.9929
462.2654, 163.5450
462.7475, 163.5926
463.2296, 161.8740
463.7118, 160.3253
464.1939, 160.2532
464.6760, 161.7518
465.1581, 163.0588
465.6402, 163.9760
466.1223, 164.2787
466.6045, 163.7867
467.0866, 160.8925
467.5687, 159.1650
468.0508, 159.3915
468.5329, 160.8403
469.0150, 161.9273
469.4972, 162.5647
469.9793, 162.9624
470.4614, 163.2351
470.9435, 163.4052
471.4256, 162.9607
471.9077, 161.7325
472.3899, 160.2329
472.8720, 158.8041
473.3541, 157.4020
473.8362, 156.4364
474.3183, 155.9727
474.8004, 155.9397
475.2826, 156.2197
475.7647, 156.8110
476.2468, 157.6986
476.7289, 159.7103
477.2110, 161.8521
477.6931, 161.3374
478.1753, 158.1605
478.6574, 155.0166
479.1395, 154.1685
479.6216, 154.7592
480.1037, 155.5682
480.5858, 156.3580
481.0680, 157.1646
481.5501, 158.4436
482.0322, 159.7522
482.5143, 160.1465
482.9964, 158.2794
483.4786, 156.2621
483.9607, 155.1163
484.4428, 154.9733
484.9249, 154.9142
485.4070, 154.6231
485.8892, 154.4476
486.3713, 154.6621
486.8534, 155.9658
487.3355, 156.5956
487.8176, 156.0711
488.2997, 154.9945
488.7819, 154.7300
489.2640, 155.7444
489.7461, 156.4715
490.2282, 156.1020
490.7103, 154.7675
491.1924, 155.1683
491.6746, 157.7535
492.1567, 160.2259
492.6388, 160.1361
493.1209, 157.8256
493.6030, 156.4097
494.0851, 156.4370
494.5673, 157.0617
495.0494, 157.2458
495.5315, 157.0282
496.0136, 156.5453
496.4957, 155.4973
496.9778, 154.4339
497.4600, 153.9534
497.9421, 154.0334
498.4242, 154.3734
498.9063, 154.9834
499.3884, 155.6670
499.8705, 156.3607
500.3527, 157.3116
500.8348, 157.6016
501.3169, 156.0406
501.7990, 153.8509
502.2811, 152.7496
502.7632, 153.9959
503.2454, 155.3523
503.7275, 156.5733
504.2096, 157.6089
504.6917, 157.8954
505.1738, 156.9751
505.6559, 155.9295
506.1381, 155.2291
506.6202, 154.7753
507.1023, 155.3109
507.5844, 157.3635
508.0665, 159.4613
508.5486, 159.1485
509.0308, 156.3500
509.5129, 154.3280
509.9950, 154.0184
510.4771, 154.8863
510.9592, 156.2570
511.4413, 158.0088
511.9235, 159.0774
512.4056, 158.1396
512.8877, 156.3328
513.3698, 155.3638
513.8519, 155.3916
514.3340, 155.7406
514.8162, 156.4047
515.2983, 156.9287
515.7804, 156.7448
516.2625, 155.2176
516.7446, 153.5493
517.2267, 152.0927
517.7089, 150.8571
518.1910, 149.8818
518.6731, 149.5107
519.1552, 149.0876
519.6373, 148.1810
520.1194, 146.6512
520.6016, 146.0682
521.0837, 147.1371
521.5658, 148.3700
522.0479, 148.6571
522.5300, 147.7316
523.0121, 146.7927
523.4943, 145.8720
523.9764, 145.0345
524.4585, 144.4054
524.9406, 143.9969
525.4227, 143.7030
525.9048, 143.5733
526.3870, 143.4924
526.8691, 143.2154
527.3513, 142.7361
527.8334, 141.9962
528.3155, 140.5224
528.7976, 138.9110
529.2797, 138.1034
529.7618, 138.2972
530.2440, 138.7375
530.7261, 139.1908
531.2082, 139.4787
531.6903, 139.3650
532.1724, 138.2957
532.6545, 137.3185
533.1367, 136.7029
533.6188, 136.4320
534.1009, 136.4127
534.5830, 137.0425
535.0651, 137.5318
535.5472, 137.6650
536.0294, 137.4498
536.5115, 136.7093
536.9936, 134.8897
537.4757, 133.3189
537.9578, 133.4187
538.4399, 135.6110
538.9221, 136.7097
539.4042, 136.1679
539.8863, 134.8089
540.3684, 133.9567
540.8505, 133.5946
541.3326, 133.5372
541.8148, 133.8008
542.2969, 134.2649
542.7790, 135.0282
543.2611, 135.9750
543.7432, 136.2295
544.2253, 133.9483
544.7075, 131.3380
545.1896, 131.1518
545.6717, 134.2977
546.1538, 136.7970
546.6359, 136.0298
547.1180, 133.8840
547.6002, 132.3717
548.0823, 132.7919
548.5644, 132.9219
549.0465, 131.8797
549.5286, 130.2362
550.0107, 129.7146
550.4929, 131.2254
550.9750, 132.4643
551.4571, 132.4475
551.9392, 131.1638
552.4213, 131.3840
552.9034, 133.7344
553.3856, 135.6381
553.8677, 134.2721
554.3498, 130.0150
554.8319, 127.6540
555.3140, 127.9262
555.7961, 129.1906
556.2783, 129.5423
556.7604, 129.1717
557.2425, 128.5837
557.7246, 127.7707
558.2067, 127.0238
558.6888, 126.6356
559.1710, 126.5580
559.6531, 126.6362
560.1352, 127.0266
560.6173, 127.3689
561.0994, 127.4114
561.5815, 127.0997
562.0637, 126.8069
562.5458, 126.8348
563.0279, 126.7533
563.5100, 126.2140
563.9921, 124.5652
564.4742, 123.6295
564.9564, 123.6789
565.4385, 124.2719
565.9206, 124.8202
566.4027, 125.4359
566.8848, 125.3580
567.3669, 124.1276
567.8491, 122.1717
568.3312, 120.8137
568.8133, 120.0493
569.2954, 119.6927
569.7775, 120.2165
570.2596, 120.9068
570.7418, 120.1656
571.2239, 117.8502
571.7060, 115.5998
572.1881, 114.3768
572.6702, 114.0185
573.1523, 114.4539
573.6345, 116.2989
574.1166, 117.7779
574.5987, 118.2751
575.0808, 117.9623
575.5629, 117.1208
576.0450, 114.6407
576.5272, 112.9665
577.0093, 112.8133
577.4914, 113.9453
577.9735, 114.9306
578.4556, 116.0056
578.9377, 116.4231
579.4199, 115.4531
579.9020, 113.0658
580.3841, 111.8940
580.8662, 112.0867
581.3483, 112.7046
581.8304, 112.8879
582.3126, 112.7280
582.7947, 112.5467
583.2768, 112.4188
583.7589, 112.2367
584.2410, 111.7719
584.7231, 111.1767
585.2053, 110.7521
585.6874, 110.8761
586.1696, 110.9685
586.6517, 110.5000
587.1338, 109.6599
587.6159, 109.3013
588.0980, 110.2260
588.5801, 111.1575
589.0623, 111.5798
589.5444, 111.4640
590.0265, 110.9738
590.5086, 109.7375
590.9907, 108.6035
591.4728, 108.4135
591.9550, 109.4214
592.4371, 109.5844
592.9192, 108.4476
593.4013, 107.1621
593.8834, 107.8786
594.3655, 110.2060
594.8477, 111.5802
595.3298, 110.6618
595.8119, 109.0304
596.2940, 108.8412
596.7761, 109.7649
597.2582, 110.6881
597.7404, 111.1543
598.2225, 111.3062
598.7046, 111.0271
599.1867, 110.3290
599.6688, 110.0661
600.1509, 110.8368
600.6331, 111.8682
601.1152, 112.7145
601.5973, 113.4473
602.0794, 113.7657
602.5615, 113.4226
603.0436, 112.8987
603.5258, 112.7356
604.0079, 112.9784
604.4900, 113.3899
604.9721, 114.0425
605.4542, 114.6824
605.9363, 114.6267
606.4185, 113.9681
606.9006, 113.5213
607.3827, 113.8018
607.8648, 114.4248
608.3469, 114.8239
608.8290, 115.0464
609.3112, 115.3350
609.7933, 115.9767
610.2754, 116.6421
610.7575, 116.9178
611.2396, 116.6330
611.7217, 116.9624
612.2039, 119.2338
612.6860, 121.6040
613.1681, 122.6193
613.6502, 120.9228
614.1323, 120.1826
614.6144, 120.7168
615.0966, 121.9710
615.5787, 123.2968
616.0608, 124.7534
616.5429, 125.7866
617.0250, 126.0553
617.5071, 126.0712
617.9893, 127.0715
618.4714, 128.9656
618.9535, 130.9756
619.4356, 132.7177
619.9177, 134.3726
620.3998, 136.2231
620.8820, 138.2457
621.3641, 140.1888
621.8462, 142.1201
622.3283, 143.8037
622.8104, 144.7303
623.2925, 144.3020
623.7747, 145.3321
624.2568, 149.1866
624.7389, 154.1806
625.2210, 158.9929
625.7031, 163.5697
626.1852, 168.0216
626.6674, 172.0630
627.1495, 176.2500
627.6316, 181.8064
628.1137, 188.8141
628.5958, 195.0168
629.0779, 199.1960
629.5601, 202.8517
630.0422, 208.9980
630.5243, 217.2918
631.0064, 226.3672
631.4885, 235.6802
631.9706, 245.2655
632.4528, 255.4028
632.9349, 265.9449
633.4170, 276.1850
633.8991, 285.1100
634.3812, 294.1478
634.8633, 304.5450
635.3455, 317.1668
635.8276, 328.3403
636.3097, 336.9258
636.7918, 345.0048
637.2739, 354.7423
637.7560, 367.0412
638.2382, 376.7713
638.7203, 382.8630
639.2024, 387.3517
639.6845, 393.8592
640.1666, 401.9970
640.6487, 408.4352
641.1309, 412.1996
641.6130, 413.8366
642.0951, 413.7305
642.5772, 412.0451
643.0594, 409.2405
643.5415, 404.6562
644.0236, 399.7784
644.5057, 395.5143
644.9879, 391.7970
645.4700, 387.8805
645.9521, 383.9987
646.4342, 379.4504
646.9163, 373.9490
647.3984, 367.3986
647.8806, 360.1319
648.3627, 351.5637
648.8448, 343.2845
649.3269, 336.9718
649.8090, 332.6228
650.2911, 326.4559
650.7733, 317.7469
651.2554, 308.7897
651.7375, 302.0910
652.2196, 297.1901
652.7017, 292.9966
653.1838, 289.5740
653.6660, 286.0301
654.1481, 281.2202
654.6302, 275.8929
655.1123, 271.3050
655.5944, 268.8242
656.0765, 266.1805
656.5587, 261.7998
657.0408, 256.4510
657.5229, 253.8123
658.0050, 255.8495
658.4871, 257.2867
658.9692, 255.9289
659.4514, 252.1255
659.9335, 249.7563
660.4156, 248.8965
660.8977, 248.8816
661.3798, 249.5146
661.8619, 250.6143
662.3441, 251.7853
662.8262, 253.0114
663.3083, 254.1075
663.7904, 254.7227
664.2725, 255.2300
664.7546, 256.0164
665.2368, 257.1433
665.7189, 258.6219
666.2010, 260.9560
666.6831, 263.4384
667.1652, 265.2277
667.6473, 265.8151
668.1295, 266.5662
668.6116, 267.7764
669.0937, 269.0670
669.5758, 269.6104
670.0579, 269.3374
670.5400, 269.0128
671.0222, 268.8361
671.5043, 268.7645
671.9864, 268.7274
672.4685, 268.7160
672.9506, 268.6999
673.4327, 268.8000
673.9149, 268.7802
674.3970, 268.1032
674.8791, 266.9330
675.3612, 266.4751
675.8433, 268.1070
676.3254, 269.8112
676.8076, 270.4433
677.2897, 269.7403
677.7718, 269.2845
678.2539, 269.1972
678.7360, 269.2069
679.2181, 269.1953
679.7003, 269.1907
680.1824, 268.8741
680.6645, 268.1932
681.1466, 267.3994
681.6287, 266.5512
682.1108, 265.8041
682.5930, 265.8177
683.0751, 267.0325
683.5572, 267.9188
684.0393, 266.9387
684.5214, 264.8758
685.0035, 262.8534
685.4857, 260.3915
685.9678, 258.9653
686.4499, 259.6821
686.9320, 261.6173
687.4141, 262.7342
687.8962, 262.7925
688.3784, 262.4485
688.8605, 261.7780
689.3426, 260.8379
689.8247, 259.6985
690.3068, 258.3346
690.7889, 257.2628
691.2711, 256.6898
691.7532, 256.5948
692.2353, 257.1921
692.7174, 258.3584
693.1995, 259.3481
693.6816, 259.1901
694.1638, 259.0635
694.6459, 260.1078
695.1280, 262.4674
695.6101, 264.2976
696.0922, 264.6760
696.5743, 264.7874
697.0565, 265.1362
697.5386, 265.5319
698.0207, 267.2324
698.5028, 270.8424
698.9849, 274.4840
699.4670, 275.9275
699.9492, 275.4735
700.4313, 276.5884
700.9135, 279.9200
701.3956, 283.3288
701.8777, 284.2366
702.3598, 283.6731
702.8419, 283.4638
703.3240, 284.5081
703.8062, 285.1560
704.2883, 284.1471
704.7704, 282.3195
705.2525, 280.9185
705.7346, 280.4180
706.2167, 280.0106
706.6989, 279.6336
707.1810, 279.3039
707.6631, 279.3674
708.1452, 280.1368
708.6273, 279.3660
709.1094, 275.8737
709.5916, 270.9290
710.0737, 267.3262
710.5558, 264.9247
711.0379, 262.8253
711.5200, 260.5437
712.0021, 258.3637
712.4843, 256.6541
712.9664, 255.2895
713.4485, 253.6134
713.9306, 251.2446
714.4127, 248.6405
714.8948, 245.9687
715.3770, 243.2096
715.8591, 240.5080
716.3412, 237.7434
716.8233, 235.2845
717.3054, 233.5211
717.7875, 232.4015
718.2697, 230.8292
718.7518, 228.7520
719.2339, 226.7790
719.7160, 225.5248
720.1981, 224.6865
720.6802, 223.7859
721.1624, 222.7726
721.6445, 221.7146
722.1266, 220.9637
722.6087, 220.0107
723.0908, 218.3509
723.5729, 215.3564
724.0551, 212.8231
724.5372, 210.9171
725.0193, 209.4291
725.5014, 208.3496
725.9835, 207.8613
726.4656, 206.5336
726.9478, 203.9725
727.4299, 201.1542
727.9120, 199.7688
728.3941, 199.3143
728.8762, 198.2428
729.3583, 195.9986
729.8405, 193.2769
730.3226, 189.9639
730.8047, 186.6958
731.2868, 184.6235
731.7689, 185.5784
732.2510, 185.9954
732.7332, 184.8967
733.2153, 182.7857
733.6974, 180.4463
734.1795, 177.5720
734.6616, 175.3630
735.1437, 174.2089
735.6259, 173.8478
736.1080, 173.8506
736.5901, 174.1544
737.0722, 174.1999
737.5543, 173.4591
738.0364, 172.5174
738.5186, 171.8531
739.0007, 171.5364
739.4828, 171.7956
739.9649, 173.5529
740.4470, 175.1199
740.9291, 175.4227
741.4113, 174.5746
741.8934, 174.6691
742.3755, 176.0757
742.8576, 177.7868
743.3397, 179.5484
743.8218, 181.3070
744.3040, 182.6061
744.7861, 183.4334
745.2682, 183.9354
745.7503, 183.9160
746.2324, 183.7571
746.7145, 184.1230
747.1967, 185.0088
747.6788, 185.9550
748.1609, 187.0490
748.6430, 187.8525
749.1251, 188.0883
749.6072, 187.6810
750.0894, 186.8943
750.5715, 185.8910
751.0536, 184.3430
751.5357, 181.6748
752.0178, 177.6441
752.4999, 175.5800
752.9821, 175.7415
753.4642, 176.1128
753.9463, 174.8720
754.4284, 172.4504
754.9105, 169.4549
755.3926, 165.8349
755.8748, 162.7143
756.3569, 161.3183
756.8390, 160.4184
757.3211, 158.8799
757.8032, 156.2648
758.2853, 153.5345
758.7675, 150.3216
759.2496, 147.4531
759.7318, 145.8985
760.2139, 145.9428
760.6960, 145.0429
761.1781, 142.7650
761.6602, 140.3814
762.1423, 139.5595
762.6245, 139.8314
763.1066, 140.1076
763.5887, 140.1870
764.0708, 140.1095
764.5529, 139.7731
765.0350, 139.3481
765.5172, 139.0358
765.9993, 138.6622
766.4814, 138.7187
766.9635, 139.3420
767.4456, 140.2974
767.9277, 141.4301
768.4099, 142.8764
768.8920, 143.5435
769.3741, 143.0831
769.8562, 142.2219
770.3383, 141.6972
770.8204, 141.6344
771.3026, 142.5580
771.7847, 145.4838
772.2668, 147.8260
772.7489, 146.9445
773.2310, 144.5644
773.7131, 143.4038
774.1953, 145.8908
774.6774, 147.2071
775.1595, 146.4237
775.6416, 144.4665
776.1237, 142.8250
776.6058, 141.4311
777.0880, 141.0787
777.5701, 142.4477
778.0522, 144.0472
778.5343, 142.9418
779.0164, 139.9397
779.4985, 137.3876
779.9807, 136.6007
780.4628, 136.1318
780.9449, 135.2026
781.4270, 133.9480
781.9091, 132.6279
782.3912, 131.6963
782.8734, 130.1208
783.3555, 127.1931
783.8376, 123.7963
784.3197, 122.5498
784.8018, 123.6900
785.2839, 123.9653
785.7661, 122.0816
786.2482, 119.2201
786.7303, 117.1328
787.2124, 115.7076
787.6945, 114.5677
788.1766, 113.8124
788.6588, 113.0286
789.1409, 111.7611
789.6230, 110.2849
790.1051, 109.3678
790.5872, 109.3270
791.0693, 109.5045
791.5515, 109.9996
792.0336, 110.5121
792.5157, 109.8910
792.9978, 108.1290
793.4799, 106.8610
793.9620, 106.7843
794.4442, 107.4063
794.9263, 108.4641
795.4084, 109.6498
795.8905, 110.1235
796.3726, 109.0606
796.8547, 107.6772
797.3369, 106.1349
797.8190, 104.6533
798.3011, 103.9269
798.7832, 104.4881
799.2653, 104.6574
799.7474, 103.6867
800.2296, 102.3067
800.7117, 103.0865
801.1938, 105.7717
801.6759, 107.5527
802.1580, 106.7052
802.6401, 104.9591
803.1223, 104.2786
803.6044, 104.2964
804.0865, 104.0637
804.5686, 102.8361
805.0507, 101.7368
805.5328, 101.1469
806.0150, 100.9469
806.4971, 100.7859
806.9792, 100.5210
807.4613, 100.8405
807.9434, 102.2413
808.4255, 104.0036
808.9077, 104.2880
809.3898, 103.3986
809.8719, 102.7075
810.3540, 102.9628
810.8361, 103.4964
811.3182, 103.9601
811.8004, 104.2897
812.2825, 104.3473
812.7646, 104.0158
813.2467, 103.4697
813.7288, 102.4976
814.2109, 101.4319
814.6931, 101.2463
815.1752, 102.0492
815.6573, 102.7411
816.1394, 103.0068
816.6215, 103.0073
817.1037, 102.9004
817.5858, 102.7442
818.0679, 102.6887
818.5500, 102.8765
819.0322, 103.0938
819.5143, 103.2397
819.9964, 103.3377
820.4785, 103.4453
820.9606, 103.6917
821.4427, 103.6976
821.9249, 103.3341
822.4070, 102.7712
822.8891, 102.2779
823.3712, 101.8714
823.8533, 101.7608
824.3354, 102.0612
824.8176, 102.5605
825.2997, 103.2241
825.7818, 103.8745
826.2639, 104.1933
826.7460, 103.7275
827.2281, 103.3483
827.7103, 103.4989
828.1924, 103.7279
828.6745, 103.3607
829.1566, 102.1947
829.6387, 101.1827
830.1208, 100.3571
830.6030, 99.99411
831.0851, 101.1949
831.5672, 103.2130
832.0493, 103.7210
832.5314, 101.3513
833.0135, 99.33819
833.4957, 100.6503
833.9778, 103.2593
834.4599, 104.8066
834.9420, 103.5648
835.4241, 103.1027
835.9063, 104.0260
836.3884, 105.0164
836.8705, 104.1051
837.3526, 101.3750
837.8347, 100.0259
838.3168, 100.6176
838.7990, 101.6259
839.2811, 101.2325
839.7632, 100.3375
840.2453, 100.2861
840.7274, 101.6459
841.2095, 102.7953
841.6917, 103.1071
842.1738, 103.0358
842.6559, 102.9524
843.1380, 102.9031
843.6201, 102.6455
844.1022, 102.1331
844.5844, 101.5729
845.0665, 101.1302
845.5486, 100.7955
846.0307, 100.5240
846.5128, 100.3083
846.9949, 100.2664
847.4771, 100.7782
847.9592, 101.2807
848.4413, 101.2644
848.9234, 100.5300
849.4055, 100.0841
849.8876, 100.1248
850.3698, 100.1806
850.8519, 99.75105
851.3340, 98.94604
851.8161, 99.62622
852.2982, 101.7768
852.7803, 103.5019
853.2625, 103.1608
853.7446, 101.8372
854.2267, 100.2926
854.7088, 98.67560
855.1909, 97.89638
855.6730, 98.94951
856.1552, 100.2089
856.6373, 101.1677
857.1194, 101.8159
857.6015, 102.0036
858.0836, 101.6601
858.5657, 101.4212
859.0479, 101.7758
859.5300, 102.2974
860.0121, 101.9236
860.4942, 100.9454
860.9763, 100.3869
861.4584, 101.3702
861.9406, 102.2764
862.4227, 102.2100
862.9048, 101.4395
863.3869, 100.9605
863.8690, 100.7391
864.3511, 100.9653
864.8333, 101.9486
865.3154, 103.0694
865.7975, 102.7933
866.2796, 101.4415
866.7617, 100.4132
867.2438, 100.2324
867.7260, 100.4551
868.2081, 101.1049
868.6902, 101.8272
869.1723, 102.0850
869.6544, 101.0844
870.1365, 100.6212
870.6187, 101.1059
871.1008, 101.8015
871.5829, 101.5354
872.0650, 100.3744
872.5471, 99.72467
873.0292, 99.86567
873.5114, 100.1981
873.9935, 99.96555
874.4756, 99.62121
874.9577, 99.86530
875.4399, 101.1876
875.9220, 101.9549
876.4041, 101.2372
876.8862, 100.2621
877.3683, 99.74913
877.8505, 99.71722
878.3326, 100.2108
878.8147, 101.3456
879.2968, 102.1483
879.7789, 101.3879
880.2610, 99.89147
880.7432, 99.06284
881.2253, 98.97052
881.7074, 98.78426
882.1895, 97.82475
882.6716, 96.92802
883.1537, 96.48790
883.6359, 96.50117
884.1180, 97.19808
884.6001, 98.89143
885.0822, 99.93600
885.5643, 99.00944
886.0464, 97.19515
886.5286, 97.28114
887.0107, 98.88364
887.4928, 100.4306
887.9749, 101.2584
888.4570, 101.6130
888.9391, 101.4811
889.4213, 100.9526
889.9034, 100.2760
890.3855, 99.20595
890.8676, 98.65827
891.3497, 98.99595
891.8318, 99.69050
892.3140, 99.71306
892.7961, 99.21188
893.2782, 98.76347
893.7603, 98.54280
894.2424, 98.42171
894.7245, 98.30184
895.2067, 98.23158
895.6888, 98.27663
896.1709, 98.74615
896.6530, 98.76410
897.1351, 97.98543
897.6172, 97.29677
898.0994, 97.91721
898.5815, 99.59850
899.0636, 100.3765
899.5457, 100.0137
900.0278, 99.60927
900.5099, 100.3372
900.9921, 101.2604
901.4742, 101.5113
901.9563, 100.9260
902.4384, 100.0936
902.9205, 98.66830
903.4026, 97.64735
903.8848, 97.61072
904.3669, 98.43461
904.8490, 99.21217
905.3311, 99.92742
905.8132, 100.2843
906.2953, 99.74693
906.7775, 99.04096
907.2596, 99.07922
907.7417, 99.59801
908.2238, 99.64491
908.7059, 98.44352
909.1880, 97.34094
909.6702, 96.43976
910.1523, 95.90932
910.6344, 96.38520
911.1165, 97.84086
911.5986, 98.96841
912.0807, 99.36465
912.5629, 99.41634
913.0450, 99.55865
913.5271, 99.64952
914.0092, 99.42673
914.4913, 98.30161
914.9734, 97.84206
915.4556, 98.82433
915.9377, 100.0306
916.4198, 100.3702
916.9019, 99.80271
917.3840, 98.86949
917.8661, 97.50422
918.3483, 96.64790
918.8304, 97.65158
919.3125, 99.36348
919.7946, 100.4661
920.2767, 100.8125
920.7589, 100.6951
921.2410, 99.48543
921.7231, 98.59599
922.2052, 98.77852
922.6873, 99.84213
923.1694, 99.91597
923.6516, 98.96243
924.1337, 98.32329
924.6158, 99.06485
925.0979, 100.1444
925.5800, 100.0295
926.0621, 99.14590
926.5443, 98.55595
927.0264, 98.86587
927.5085, 99.21446
927.9906, 99.45644
928.4727, 99.61669
928.9548, 99.71450
929.4370, 99.74685
929.9191, 99.79205
930.4012, 99.84222
930.8833, 100.0021
931.3654, 100.6587
931.8475, 101.3809
932.3297, 101.4873
932.8118, 100.5961
933.2939, 100.0188
933.7761, 100.5063
934.2582, 100.9403
934.7403, 100.5215
935.2224, 99.21090
935.7045, 98.69385
936.1866, 98.98754
936.6688, 99.46957
937.1509, 99.80988
937.6330, 100.0281
938.1151, 100.1206
938.5972, 100.1053
939.0793, 100.0579
939.5615, 100.3346
940.0436, 100.1225
940.5257, 98.95993
941.0078, 97.33765
941.4899, 96.70453
941.9720, 97.02242
942.4542, 97.23689
942.9363, 96.94345
943.4184, 96.69427
943.9005, 97.26103
944.3826, 98.18096
944.8647, 98.81153
945.3469, 98.77603
945.8290, 98.86159
946.3111, 99.22046
946.7932, 99.60295
947.2753, 99.95669
947.7574, 100.2473
948.2396, 99.35693
948.7217, 97.23677
949.2038, 95.67870
949.6859, 96.64460
950.1680, 98.38033
950.6501, 99.48262
951.1323, 99.86566
951.6144, 99.80064
952.0965, 99.00336
952.5786, 98.33127
953.0607, 97.97694
953.5428, 97.97094
954.0250, 98.73640
954.5071, 100.0671
954.9892, 100.6739
955.4713, 99.52695
955.9534, 98.39464
956.4355, 98.86511
956.9177, 100.0862
957.3998, 100.8363
957.8819, 100.9506
958.3640, 100.5142
958.8461, 99.21017
959.3282, 97.99582
959.8104, 98.12341
960.2925, 99.19417
960.7746, 99.91481
961.2567, 100.1789
961.7388, 100.1198
962.2209, 99.47078
962.7031, 98.82901
963.1852, 98.72128
963.6673, 99.11812
964.1494, 98.95634
964.6315, 97.80803
965.1136, 97.70134
965.5958, 100.0327
966.0779, 103.1753
966.5600, 103.5380
967.0421, 101.9229
967.5242, 100.4955
968.0063, 100.1392
968.4885, 100.0613
968.9706, 99.93488
969.4527, 99.95198
969.9348, 100.4564
970.4169, 101.6845
970.8990, 102.1925
971.3812, 101.8550
971.8633, 101.0455
972.3454, 99.47872
972.8275, 97.99879
973.3096, 98.22315
973.7917, 100.2593
974.2739, 101.7314
974.7560, 101.4577
975.2381, 100.7772
975.7202, 100.0126
976.2023, 99.27777
976.6844, 99.21045
977.1666, 99.80360
977.6487, 100.5353
978.1308, 101.4669
978.6129, 102.0054
979.0950, 100.8152
979.5771, 98.99985
980.0593, 98.36109
980.5414, 100.8150
981.0235, 102.3307
981.5056, 102.5198
981.9877, 102.0856
982.4698, 101.5278
982.9520, 100.9255
983.4341, 100.9195
983.9162, 101.5406
984.3983, 102.0640
984.8804, 101.8057
985.3625, 101.3898
985.8447, 101.3015
986.3268, 101.5430
986.8089, 101.6017
987.2910, 101.4111
987.7731, 101.2260
988.2552, 101.1433
988.7374, 101.0953
989.2195, 100.7857
989.7016, 100.4040
990.1837, 100.4750
990.6658, 101.3879
991.1479, 102.3548
991.6301, 103.4753
992.1122, 104.1890
992.5944, 103.7980
993.0765, 101.9343
993.5586, 101.1699
994.0407, 101.6537
994.5228, 102.2318
995.0049, 101.7564
995.4871, 100.9347
995.9692, 100.6999
996.4513, 101.0292
996.9334, 101.4464
997.4155, 102.3071
997.8976, 102.5284
998.3798, 101.4485
998.8619, 99.86165
999.3440, 99.93510
999.8261, 101.4643
1000.308, 102.4212
1000.790, 102.1203
1001.272, 101.6534
1001.755, 101.9357
1002.237, 102.5394
1002.719, 103.0374
1003.201, 103.4239
1003.683, 103.5085
1004.165, 103.2148
1004.647, 102.8152
1005.129, 102.4328
1005.612, 102.0912
1006.094, 101.7745
1006.576, 101.5305
1007.058, 101.5664
1007.540, 102.3971
1008.022, 103.0794
1008.504, 103.2841
1008.986, 103.0707
1009.468, 102.2866
1009.951, 100.7506
1010.433, 100.3272
1010.915, 101.4885
1011.397, 102.9062
1011.879, 103.1217
1012.361, 102.6836
1012.843, 102.1446
1013.325, 101.5371
1013.807, 101.3221
1014.290, 101.9675
1014.772, 102.4052
1015.254, 101.9952
1015.736, 101.0606
1016.218, 101.1202
1016.700, 101.9770
1017.182, 102.4787
1017.664, 101.7778
1018.147, 100.9971
1018.629, 100.8245
1019.111, 101.0418
1019.593, 101.3017
1020.075, 101.5498
1020.557, 101.9857
1021.039, 102.6771
1021.521, 103.3214
1022.003, 103.6266
1022.486, 103.6888
1022.968, 103.7856
1023.450, 103.8857
1023.932, 103.4816
1024.414, 101.4925
1024.896, 100.0194
1025.378, 99.87849
1025.860, 100.6326
1026.343, 100.9983
1026.825, 101.0175
1027.307, 101.4424
1027.789, 102.6438
1028.271, 103.7640
1028.753, 104.0618
1029.235, 103.8435
1029.717, 103.3563
1030.199, 102.4270
1030.682, 102.0743
1031.164, 102.5442
1031.646, 102.8911
1032.128, 102.2598
1032.610, 101.1712
1033.092, 101.0650
1033.574, 101.7217
1034.056, 102.3377
1034.539, 102.2923
1035.021, 102.4704
1035.503, 103.5411
1035.985, 104.7262
1036.467, 104.8319
1036.949, 103.8193
1037.431, 103.2918
1037.913, 103.4586
1038.396, 103.8001
1038.878, 104.0885
1039.360, 104.1624
1039.842, 103.8022
1040.324, 102.9907
1040.806, 102.1548
1041.288, 101.0959
1041.770, 100.5499
1042.252, 100.8708
1042.734, 101.6603
1043.217, 102.4525
1043.699, 103.0220
1044.181, 102.6644
1044.663, 100.5888
1045.145, 98.93356
1045.627, 98.55443
1046.109, 98.91631
1046.591, 99.74386
1047.074, 101.0615
1047.556, 102.3476
1048.038, 103.6137
1048.520, 104.3215
1049.002, 103.3788
1049.484, 102.3685
1049.966, 103.2152
1050.448, 105.0963
1050.931, 105.5260
1051.413, 103.2308
1051.895, 101.9495
1052.377, 102.3875
1052.859, 103.2023
1053.341, 102.3342
1053.823, 100.7005
1054.305, 100.5739
1054.787, 102.2208
1055.270, 103.6152
1055.752, 103.7730
1056.234, 103.5402
1056.716, 103.2347
1057.198, 102.8652
1057.680, 102.3451
1058.162, 101.7093
1058.644, 101.5643
1059.126, 102.2652
1059.609, 103.1090
1060.091, 103.7066
1060.573, 103.9618
1061.055, 103.6671
1061.537, 102.6216
1062.019, 101.7595
1062.501, 101.0243
1062.983, 100.6871
1063.466, 101.2922
1063.948, 102.2251
1064.430, 102.1198
1064.912, 101.3490
1065.394, 101.0276
1065.876, 102.0417
1066.358, 102.9353
1066.840, 103.4652
1067.323, 103.7722
1067.805, 104.1548
1068.287, 104.5229
1068.769, 103.8777
1069.251, 102.1510
1069.733, 101.0676
1070.215, 102.6506
1070.697, 104.5468
1071.179, 105.0821
1071.661, 104.5496
1072.144, 104.3925
1072.626, 104.7432
1073.108, 104.4469
1073.590, 102.9736
1074.072, 101.4706
1074.554, 101.4788
1075.036, 102.3083
1075.518, 103.2186
1076.001, 104.2844
1076.483, 104.2720
1076.965, 102.3923
1077.447, 100.9650
1077.929, 101.4550
1078.411, 103.1062
1078.893, 103.7512
1079.375, 103.6507
1079.858, 103.6527
1080.340, 104.2389
1080.822, 104.7908
1081.304, 105.0776
1081.786, 105.2435
1082.268, 105.4999
1082.750, 105.8563
1083.232, 105.4394
1083.714, 104.2361
1084.197, 103.1610
1084.679, 102.8656
1085.161, 102.9518
1085.643, 103.3894
1086.125, 103.9555
1086.607, 103.9588
1087.089, 103.1501
1087.571, 102.6636
1088.054, 102.7179
1088.536, 102.9323
1089.018, 102.8889
1089.500, 102.7017
1089.982, 102.4643
1090.464, 102.1844
1090.946, 102.1764
1091.428, 102.6479
1091.911, 103.1853
1092.393, 103.8118
1092.875, 104.2635
1093.357, 103.4240
1093.839, 101.8641
1094.321, 101.5429
1094.803, 103.5284
1095.285, 105.0936
1095.767, 104.2713
1096.250, 103.1926
1096.732, 103.4066
1097.214, 104.8148
1097.696, 105.3809
1098.178, 105.1384
1098.660, 104.7527
1099.142, 104.4461
1099.624, 104.2706
1100.106, 104.4648
1100.589, 104.7373
1101.071, 104.5656
1101.553, 103.6281
1102.035, 103.3689
1102.517, 103.9339
1102.999, 104.4997
1103.481, 104.2369
1103.963, 103.6547
1104.446, 103.2898
1104.928, 103.1916
1105.410, 103.4888
1105.892, 104.8740
1106.374, 105.4088
1106.856, 104.4898
1107.338, 103.3049
1107.820, 103.7027
1108.302, 105.0368
1108.785, 105.7947
1109.267, 105.7956
1109.749, 105.4788
1110.231, 104.7180
1110.713, 104.0332
1111.195, 103.5856
1111.677, 103.3547
1112.159, 103.3923
1112.641, 103.6289
1113.124, 103.5751
1113.606, 103.0238
1114.088, 102.5336
1114.570, 102.6320
1115.052, 102.8201
1115.534, 102.6465
1116.016, 102.1352
1116.498, 101.7914
1116.981, 101.5978
1117.463, 102.1528
1117.945, 104.4878
1118.427, 106.4491
1118.909, 104.9973
1119.391, 102.1817
1119.873, 101.0074
1120.355, 102.3773
1120.838, 103.6683
1121.320, 104.9641
1121.802, 105.8130
1122.284, 105.7152
1122.766, 105.0940
1123.248, 104.2518
1123.730, 103.4304
1124.212, 103.2572
1124.694, 104.9995
1125.177, 105.6732
1125.659, 104.6284
1126.141, 103.3592
1126.623, 103.6590
1127.105, 104.9264
1127.587, 105.6991
1128.069, 105.8982
1128.551, 105.6064
1129.033, 104.1981
1129.516, 103.1364
1129.998, 102.8190
1130.480, 103.0329
1130.962, 103.5992
1131.444, 104.4074
1131.926, 104.8563
1132.408, 104.8469
1132.890, 104.8304
1133.373, 105.2763
1133.855, 105.5982
1134.337, 105.2835
1134.819, 104.6226
1135.301, 104.8459
1135.783, 105.9020
1136.265, 106.2670
1136.747, 105.4379
1137.229, 104.2676
1137.712, 103.1286
1138.194, 102.2391
1138.676, 101.7890
1139.158, 101.7602
1139.640, 102.3799
1140.122, 103.7637
1140.604, 104.6863
1141.086, 104.4942
1141.569, 103.9219
1142.051, 103.3922
1142.533, 103.1895
1143.015, 103.9007
1143.497, 106.2819
1143.979, 106.9723
1144.461, 105.5760
1144.943, 104.0189
1145.426, 103.4548
1145.908, 103.4792
1146.390, 103.5802
1146.872, 103.7637
1147.354, 104.0454
1147.836, 104.8888
1148.318, 104.9859
1148.800, 103.9787
1149.282, 103.0005
1149.765, 103.1439
1150.247, 103.9668
1150.729, 104.6555
1151.211, 105.1449
1151.693, 105.2816
1152.175, 104.6215
1152.657, 104.1126
1153.139, 103.7908
1153.621, 103.8447
1154.104, 104.9816
1154.586, 106.6467
1155.068, 106.6676
1155.550, 105.0703
1156.032, 103.7356
1156.514, 103.4569
1156.996, 103.8177
1157.478, 104.9762
1157.961, 106.3196
1158.443, 106.6264
1158.925, 106.0879
1159.407, 105.8820
1159.889, 106.1897
1160.371, 106.1609
1160.853, 104.8182
1161.335, 103.4780
1161.818, 102.6937
1162.300, 102.4570
1162.782, 103.0401
1163.264, 104.3319
1163.746, 104.8951
1164.228, 104.2880
1164.710, 103.7321
1165.192, 104.5235
1165.674, 105.3386
1166.156, 104.9418
1166.639, 103.6286
1167.121, 103.4854
1167.603, 104.5050
1168.085, 105.0985
1168.567, 104.5605
1169.049, 104.0573
1169.531, 104.9965
1170.013, 106.1898
1170.496, 106.3206
1170.978, 105.3550
1171.460, 104.6842
1171.942, 104.3047
1172.424, 104.2097
1172.906, 104.5045
1173.388, 104.8929
1173.870, 105.1431
1174.353, 105.2720
1174.835, 105.2650
1175.317, 105.0819
1175.799, 105.0800
1176.281, 105.2942
1176.763, 105.4167
1177.245, 105.2416
1177.727, 104.9230
1178.209, 104.4988
1178.692, 104.1010
1179.174, 103.9517
1179.656, 104.0209
1180.138, 104.5476
1180.620, 105.6390
1181.102, 106.6566
1181.584, 107.2355
1182.066, 107.4075
1182.548, 107.0336
1183.031, 106.3111
1183.513, 105.6746
1183.995, 105.0792
1184.477, 104.9501
1184.959, 105.4803
1185.441, 105.7859
1185.923, 104.6332
1186.405, 103.0920
1186.888, 102.7784
1187.370, 103.4052
1187.852, 103.8339
1188.334, 103.8104
1188.816, 103.5864
1189.298, 103.0385
1189.780, 102.7777
1190.262, 103.7957
1190.745, 105.3014
1191.227, 106.2861
1191.709, 106.6623
1192.191, 106.2906
1192.673, 104.5644
1193.155, 103.2090
1193.637, 102.4008
1194.119, 102.1583
1194.601, 102.8916
1195.084, 103.9965
1195.566, 104.2014
1196.048, 103.5854
1196.530, 104.0739
1197.012, 107.3695
1197.494, 108.9284
1197.976, 107.4200
1198.458, 105.0011
1198.941, 104.8285
1199.423, 105.7988
1199.905, 106.0130
1200.387, 105.2866
1200.869, 104.7350
1201.351, 104.5850
1201.833, 104.6021
1202.315, 104.7413
1202.797, 105.0045
1203.280, 105.6625
1203.762, 106.3355
1204.244, 106.1720
1204.726, 104.9915
1205.208, 104.3677
1205.690, 104.7874
1206.172, 105.3422
1206.654, 105.8764
1207.136, 106.2094
1207.619, 105.8009
1208.101, 105.0537
1208.583, 104.6900
1209.065, 104.8800
1209.547, 105.0958
1210.029, 105.2425
1210.511, 105.4314
1210.993, 105.7264
1211.476, 106.0493
1211.958, 106.1681
1212.440, 106.2487
1212.922, 106.6733
1213.404, 107.6620
1213.886, 108.1777
1214.368, 107.9588
1214.850, 107.6938
1215.333, 107.7400
1215.815, 107.7995
1216.297, 107.0875
1216.779, 106.0660
1217.261, 105.6360
1217.743, 106.2147
1218.225, 106.4721
1218.707, 106.2646
1219.189, 105.8223
1219.672, 105.1286
1220.154, 104.4168
1220.636, 104.1555
1221.118, 104.1716
1221.600, 104.0823
1222.082, 103.5200
1222.564, 103.9926
1223.046, 106.0481
1223.528, 107.6406
1224.011, 107.5005
1224.493, 106.5209
1224.975, 105.9755
1225.457, 105.7770
1225.939, 105.7955
1226.421, 106.1660
1226.903, 106.2601
1227.385, 105.9583
1227.868, 105.7994
1228.350, 106.2038
1228.832, 106.7887
1229.314, 106.9228
1229.796, 106.8313
1230.278, 106.9356
1230.760, 107.5692
1231.242, 107.4889
1231.724, 106.4565
1232.207, 105.8680
1232.689, 107.1573
1233.171, 108.6960
1233.653, 108.0143
1234.135, 106.2433
1234.617, 105.2874
1235.099, 105.4955
1235.581, 106.2657
1236.063, 107.7270
1236.546, 108.8263
1237.028, 108.7629
1237.510, 108.1542
1237.992, 107.3556
1238.474, 106.5708
1238.956, 106.1392
1239.438, 106.0244
1239.920, 106.5939
1240.403, 107.9243
1240.885, 108.7502
1241.367, 107.7199
1241.849, 106.3870
1242.331, 106.0721
1242.813, 106.3508
1243.295, 106.5963
1243.777, 106.7840
1244.260, 106.8911
1244.742, 106.9181
1245.224, 107.0788
1245.706, 107.5989
1246.188, 108.2011
1246.670, 109.0027
1247.152, 109.5817
1247.634, 109.3467
1248.116, 108.2186
1248.599, 107.2846
1249.081, 106.5735
1249.563, 106.3417
1250.045, 107.3899
1250.527, 108.2139
1251.009, 107.5920
1251.491, 106.6500
1251.973, 106.6606
1252.455, 107.5607
1252.938, 107.7369
1253.420, 107.2581
1253.902, 106.8110
1254.384, 106.9371
1254.866, 106.9424
1255.348, 106.3747
1255.830, 105.7818
1256.313, 105.6637
1256.795, 105.9616
1257.277, 106.5643
1257.759, 107.3074
1258.241, 107.3944
1258.723, 105.4203
1259.205, 104.2613
1259.687, 104.6464
1260.169, 105.6491
1260.651, 106.5677
1261.134, 107.4340
1261.616, 108.5094
1262.098, 109.6363
1262.580, 110.3028
1263.062, 110.1490
1263.544, 109.6908
1264.026, 108.8532
1264.508, 108.0346
1264.991, 107.6385
1265.473, 107.4612
1265.955, 107.0463
1266.437, 106.5208
1266.919, 106.2311
1267.401, 106.4609
1267.883, 106.4949
1268.365, 106.1722
1268.848, 106.2457
1269.330, 108.0355
1269.812, 109.9699
1270.294, 109.5543
1270.776, 107.8259
1271.258, 107.1801
1271.740, 108.3612
1272.222, 108.6344
1272.704, 107.8201
1273.187, 107.4236
1273.669, 109.2459
1274.151, 111.1870
1274.633, 111.1701
1275.115, 110.1344
1275.597, 109.5879
1276.079, 109.5976
1276.561, 110.0950
1277.043, 111.0496
1277.526, 111.5777
1278.008, 110.7982
1278.490, 109.8238
1278.972, 109.5395
1279.454, 109.2099
1279.936, 107.7721
1280.418, 105.3294
1280.900, 104.5770
1281.383, 105.3162
1281.865, 106.2404
1282.347, 106.8525
1282.829, 107.3418
1283.311, 107.7955
1283.793, 108.1150
1284.275, 108.1208
1284.757, 107.9354
1285.240, 108.1282
1285.722, 108.5884
1286.204, 108.9569
1286.686, 109.1746
1287.168, 109.1155
1287.650, 108.6746
1288.132, 108.2163
1288.614, 107.8266
1289.096, 107.7160
1289.578, 108.8038
1290.061, 110.3917
1290.543, 110.9909
1291.025, 109.5584
1291.507, 108.7551
1291.989, 108.6902
1292.471, 108.7399
1292.953, 108.5585
1293.435, 108.2904
1293.918, 107.8403
1294.400, 107.5454
1294.882, 108.2081
1295.364, 107.5531
1295.846, 109.8915
1296.328, 107.4883
1296.810, 105.8901
1297.292, 106.8698
1297.775, 108.4344
1298.257, 109.6647
1298.739, 110.2431
1299.221, 109.8149
1299.703, 108.5034
1300.185, 107.2945
1300.667, 106.3011
1301.149, 106.3252
1301.631, 108.2041
1302.114, 109.6723
1302.596, 110.1243
##END=



