##NAMES=Anorthite
##RRUFFID=R070510
##IDEAL CHEMISTRY=CaAl_2_Si_2_O_8_
##LOCALITY=Larvik, Vestfold, Norway
##OWNER=RRUFF
##SOURCE=James Shigley
##DESCRIPTION=Colorless to white vitreous crystals. Variety bytownite.
##STATUS=The identification of this mineral is confirmed by single-crystal X-ray diffraction and chemical analysis.
##URL=rruff.info/R070510
##MEASURED CHEMISTRY=Na_0.20_Ca_0.80_(Al_1.80_Si_2.20_)_Î£=4_O_8_
164.7905, 8730.250
165.2726, 8731.994
165.7547, 8749.249
166.2368, 8766.213
166.7189, 8781.209
167.2011, 8799.454
167.6832, 8830.011
168.1653, 8865.710
168.6474, 8889.562
169.1295, 8886.462
169.6116, 8857.599
170.0938, 8863.355
170.5759, 8950.775
171.0580, 9020.934
171.5401, 9032.995
172.0222, 9003.217
172.5043, 8971.224
172.9865, 8965.166
173.4686, 8984.841
173.9507, 9007.436
174.4328, 9044.236
174.9149, 9071.669
175.3970, 9077.857
175.8792, 9067.129
176.3613, 9050.149
176.8434, 9033.070
177.3255, 9015.550
177.8076, 9012.216
178.2897, 9032.538
178.7719, 9053.783
179.2540, 9071.949
179.7361, 9084.485
180.2182, 9085.101
180.7003, 9066.580
181.1824, 9028.839
181.6646, 9015.525
182.1467, 9043.813
182.6288, 9073.228
183.1109, 9092.551
183.5930, 9100.558
184.0751, 9096.091
184.5573, 9075.906
185.0394, 9040.767
185.5215, 9021.411
186.0036, 9020.684
186.4857, 9028.384
186.9678, 9044.688
187.4500, 9066.652
187.9321, 9088.125
188.4142, 9105.732
188.8963, 9119.188
189.3784, 9123.751
189.8605, 9105.168
190.3427, 9093.694
190.8248, 9104.496
191.3069, 9132.521
191.7890, 9164.517
192.2711, 9193.414
192.7532, 9218.424
193.2353, 9230.636
193.7175, 9215.442
194.1996, 9205.416
194.6817, 9215.856
195.1638, 9241.824
195.6459, 9271.401
196.1280, 9299.425
196.6102, 9324.188
197.0923, 9330.118
197.5744, 9308.948
198.0565, 9282.910
198.5386, 9256.415
199.0207, 9230.820
199.5029, 9209.620
199.9850, 9195.757
200.4671, 9187.009
200.9492, 9168.843
201.4313, 9140.673
201.9134, 9106.723
202.3956, 9065.266
202.8777, 9019.005
203.3598, 8972.841
203.8419, 8929.460
204.3240, 8888.133
204.8061, 8846.056
205.2883, 8804.301
205.7704, 8760.219
206.2525, 8709.824
206.7346, 8656.795
207.2167, 8608.179
207.6988, 8567.814
208.1810, 8533.170
208.6631, 8497.229
209.1452, 8454.564
209.6273, 8417.092
210.1094, 8387.386
210.5915, 8364.226
211.0737, 8345.781
211.5558, 8331.367
212.0379, 8321.162
212.5200, 8316.452
213.0021, 8322.326
213.4842, 8325.504
213.9664, 8330.733
214.4485, 8330.304
214.9306, 8308.646
215.4127, 8258.811
215.8948, 8198.344
216.3769, 8162.915
216.8590, 8168.164
217.3412, 8170.638
217.8233, 8162.254
218.3054, 8150.812
218.7875, 8144.976
219.2696, 8147.362
219.7517, 8155.774
220.2339, 8167.613
220.7160, 8189.623
221.1981, 8200.558
221.6802, 8188.581
222.1623, 8171.137
222.6444, 8164.598
223.1266, 8172.732
223.6087, 8190.162
224.0908, 8210.609
224.5729, 8237.227
225.0550, 8258.606
225.5371, 8273.854
226.0193, 8284.754
226.5014, 8289.109
226.9835, 8288.018
227.4656, 8290.630
227.9477, 8307.974
228.4298, 8345.292
228.9120, 8378.204
229.3941, 8407.943
229.8762, 8432.985
230.3583, 8450.776
230.8404, 8462.095
231.3225, 8470.809
231.8047, 8479.736
232.2868, 8488.110
232.7689, 8503.291
233.2510, 8519.841
233.7331, 8546.291
234.2152, 8594.928
234.6974, 8659.326
235.1795, 8717.775
235.6616, 8752.193
236.1437, 8762.043
236.6258, 8785.216
237.1079, 8827.728
237.5900, 8875.130
238.0722, 8922.058
238.5543, 8970.243
239.0364, 9026.779
239.5185, 9098.590
240.0006, 9181.188
240.4827, 9239.001
240.9649, 9233.455
241.4470, 9246.506
241.9291, 9310.125
242.4112, 9398.576
242.8933, 9469.888
243.3754, 9501.544
243.8576, 9508.520
244.3397, 9545.161
244.8218, 9657.124
245.3039, 9743.014
245.7860, 9782.711
246.2681, 9798.159
246.7503, 9814.021
247.2324, 9840.003
247.7145, 9867.375
248.1966, 9874.836
248.6787, 9834.855
249.1608, 9821.656
249.6430, 9856.841
250.1251, 9905.701
250.6072, 9943.681
251.0893, 9963.621
251.5714, 9969.425
252.0535, 9965.157
252.5357, 9945.874
253.0178, 9928.387
253.4999, 9910.406
253.9820, 9895.921
254.4641, 9889.796
254.9462, 9891.066
255.4284, 9892.903
255.9105, 9888.974
256.3926, 9879.593
256.8747, 9862.679
257.3568, 9829.590
257.8389, 9796.221
258.3210, 9762.936
258.8032, 9733.578
259.2853, 9716.915
259.7674, 9724.297
260.2495, 9754.196
260.7316, 9772.668
261.2137, 9777.813
261.6959, 9772.357
262.1780, 9749.114
262.6601, 9717.487
263.1422, 9694.513
263.6243, 9691.981
264.1064, 9703.880
264.5886, 9710.826
265.0707, 9713.232
265.5528, 9709.499
266.0349, 9691.507
266.5170, 9670.575
266.9991, 9664.029
267.4813, 9684.506
267.9634, 9708.238
268.4455, 9686.426
268.9276, 9602.703
269.4097, 9540.037
269.8918, 9549.090
270.3740, 9581.117
270.8561, 9599.195
271.3382, 9595.370
271.8203, 9579.301
272.3024, 9557.009
272.7845, 9528.441
273.2667, 9502.357
273.7488, 9478.715
274.2309, 9460.896
274.7130, 9453.120
275.1951, 9455.692
275.6772, 9459.105
276.1594, 9457.865
276.6415, 9452.653
277.1236, 9445.174
277.6057, 9433.876
278.0878, 9423.878
278.5699, 9422.546
279.0521, 9428.236
279.5342, 9430.050
280.0163, 9418.233
280.4984, 9402.366
280.9805, 9398.771
281.4626, 9410.228
281.9448, 9424.612
282.4269, 9435.475
282.9090, 9441.782
283.3911, 9439.158
283.8732, 9416.478
284.3553, 9392.435
284.8375, 9388.912
285.3196, 9402.790
285.8017, 9404.759
286.2838, 9375.021
286.7659, 9320.203
287.2480, 9270.612
287.7302, 9231.710
288.2123, 9191.699
288.6944, 9147.581
289.1765, 9098.631
289.6586, 9043.082
290.1407, 8979.801
290.6229, 8910.525
291.1050, 8837.924
291.5871, 8749.809
292.0692, 8679.535
292.5513, 8650.058
293.0334, 8632.414
293.5155, 8589.070
293.9977, 8511.802
294.4798, 8427.428
294.9619, 8375.162
295.4440, 8374.679
295.9261, 8349.312
296.4082, 8280.950
296.8904, 8204.349
297.3725, 8141.059
297.8546, 8091.887
298.3367, 8046.308
298.8188, 7995.750
299.3009, 7939.526
299.7831, 7882.944
300.2652, 7818.983
300.7473, 7761.896
301.2294, 7716.778
301.7115, 7681.488
302.1936, 7653.302
302.6758, 7631.569
303.1579, 7613.618
303.6400, 7588.001
304.1221, 7544.550
304.6042, 7509.749
305.0863, 7496.136
305.5685, 7488.298
306.0506, 7469.604
306.5327, 7434.707
307.0148, 7394.451
307.4969, 7364.213
307.9790, 7344.925
308.4612, 7333.205
308.9433, 7338.529
309.4254, 7344.304
309.9075, 7341.089
310.3896, 7328.430
310.8717, 7312.254
311.3539, 7296.115
311.8360, 7280.259
312.3181, 7267.176
312.8002, 7257.454
313.2823, 7250.057
313.7644, 7241.595
314.2466, 7234.303
314.7287, 7234.467
315.2108, 7252.302
315.6929, 7276.293
316.1750, 7284.161
316.6571, 7273.338
317.1393, 7260.245
317.6214, 7252.312
318.1035, 7248.306
318.5856, 7245.494
319.0677, 7240.298
319.5498, 7241.202
320.0320, 7258.575
320.5141, 7288.910
320.9962, 7317.908
321.4783, 7343.628
321.9604, 7360.675
322.4425, 7353.366
322.9247, 7311.563
323.4068, 7287.694
323.8889, 7315.739
324.3710, 7363.064
324.8531, 7385.124
325.3352, 7372.792
325.8174, 7343.951
326.2995, 7314.811
326.7816, 7284.104
327.2637, 7264.916
327.7458, 7268.114
328.2279, 7273.058
328.7101, 7268.135
329.1922, 7253.969
329.6743, 7234.965
330.1564, 7212.740
330.6385, 7189.031
331.1206, 7178.574
331.6028, 7203.326
332.0849, 7215.537
332.5670, 7195.784
333.0491, 7163.533
333.5312, 7142.297
334.0133, 7141.402
334.4955, 7154.122
334.9776, 7169.924
335.4597, 7196.029
335.9418, 7208.565
336.4239, 7199.896
336.9060, 7184.285
337.3882, 7168.713
337.8703, 7154.617
338.3524, 7141.158
338.8345, 7123.932
339.3166, 7102.923
339.7987, 7100.838
340.2808, 7133.309
340.7629, 7164.455
341.2451, 7181.992
341.7272, 7186.886
342.2093, 7179.553
342.6914, 7153.403
343.1735, 7122.238
343.6556, 7115.535
344.1378, 7138.632
344.6199, 7153.211
345.1020, 7133.088
345.5841, 7101.686
346.0662, 7089.903
346.5483, 7105.642
347.0305, 7121.629
347.5126, 7118.881
347.9947, 7101.771
348.4768, 7082.512
348.9589, 7062.192
349.4410, 7045.013
349.9232, 7040.005
350.4053, 7047.514
350.8874, 7045.657
351.3695, 7023.250
351.8516, 6994.859
352.3337, 6974.590
352.8159, 6962.513
353.2980, 6947.502
353.7801, 6918.676
354.2622, 6878.931
354.7443, 6863.750
355.2264, 6904.030
355.7086, 6928.326
356.1907, 6898.655
356.6728, 6844.615
357.1549, 6812.324
357.6370, 6819.933
358.1191, 6850.067
358.6013, 6869.177
359.0834, 6870.676
359.5655, 6872.469
360.0476, 6872.877
360.5297, 6874.744
361.0118, 6880.091
361.4940, 6888.827
361.9761, 6899.674
362.4582, 6912.888
362.9403, 6928.124
363.4224, 6935.672
363.9045, 6926.726
364.3867, 6921.837
364.8688, 6933.062
365.3509, 6951.068
365.8330, 6962.226
366.3151, 6960.288
366.7972, 6950.490
367.2794, 6939.884
367.7615, 6928.393
368.2436, 6916.280
368.7257, 6901.790
369.2078, 6888.195
369.6899, 6879.734
370.1721, 6877.036
370.6542, 6872.683
371.1363, 6863.759
371.6184, 6850.305
372.1005, 6829.195
372.5826, 6798.158
373.0648, 6772.146
373.5469, 6766.203
374.0290, 6779.262
374.5111, 6788.720
374.9932, 6793.115
375.4753, 6794.281
375.9575, 6791.765
376.4396, 6786.796
376.9217, 6783.148
377.4038, 6783.119
377.8859, 6783.963
378.3680, 6778.459
378.8502, 6752.089
379.3323, 6739.336
379.8144, 6750.345
380.2965, 6769.024
380.7786, 6781.012
381.2607, 6784.921
381.7429, 6790.115
382.2250, 6808.652
382.7071, 6842.691
383.1892, 6860.477
383.6713, 6841.222
384.1534, 6827.076
384.6355, 6835.848
385.1176, 6856.400
385.5998, 6868.351
386.0819, 6859.819
386.5640, 6845.149
387.0461, 6854.042
387.5282, 6892.253
388.0103, 6924.098
388.4925, 6935.937
388.9746, 6940.747
389.4567, 6943.417
389.9388, 6944.516
390.4209, 6962.315
390.9030, 7025.747
391.3852, 7110.835
391.8673, 7160.605
392.3494, 7164.806
392.8315, 7159.500
393.3136, 7168.627
393.7957, 7191.735
394.2779, 7221.205
394.7600, 7261.815
395.2421, 7304.199
395.7242, 7346.075
396.2063, 7385.927
396.6884, 7418.041
397.1706, 7439.110
397.6527, 7458.125
398.1348, 7492.701
398.6169, 7557.660
399.0990, 7610.540
399.5811, 7650.912
400.0633, 7680.457
400.5454, 7696.062
401.0275, 7700.580
401.5096, 7703.404
401.9917, 7712.773
402.4738, 7727.327
402.9560, 7734.371
403.4381, 7734.136
403.9202, 7724.661
404.4023, 7700.626
404.8844, 7670.304
405.3665, 7643.070
405.8487, 7621.919
406.3308, 7601.089
406.8129, 7573.618
407.2950, 7539.637
407.7771, 7502.745
408.2592, 7457.768
408.7414, 7418.347
409.2235, 7399.486
409.7056, 7396.819
410.1877, 7390.186
410.6698, 7371.400
411.1519, 7346.214
411.6341, 7321.928
412.1162, 7298.086
412.5983, 7266.542
413.0804, 7219.164
413.5625, 7164.525
414.0446, 7130.293
414.5268, 7126.793
415.0089, 7120.771
415.4910, 7107.613
415.9731, 7088.008
416.4552, 7056.141
416.9373, 7014.041
417.4195, 6980.212
417.9016, 6974.585
418.3837, 6999.141
418.8658, 7024.364
419.3479, 7057.536
419.8300, 7083.375
420.3122, 7094.027
420.7943, 7096.222
421.2764, 7098.688
421.7585, 7104.959
422.2406, 7114.535
422.7227, 7130.023
423.2049, 7154.274
423.6870, 7164.677
424.1691, 7146.828
424.6512, 7124.186
425.1333, 7116.343
425.6154, 7120.497
426.0976, 7118.031
426.5797, 7092.650
427.0618, 7058.717
427.5439, 7039.112
428.0260, 7034.260
428.5081, 7030.253
428.9902, 7019.846
429.4724, 7004.920
429.9545, 6991.063
430.4366, 6978.519
430.9187, 6966.090
431.4008, 6951.145
431.8829, 6937.077
432.3651, 6933.254
432.8472, 6939.168
433.3293, 6935.175
433.8114, 6896.454
434.2935, 6817.662
434.7756, 6779.748
435.2578, 6821.372
435.7399, 6861.120
436.2220, 6878.799
436.7041, 6882.514
437.1862, 6883.707
437.6683, 6886.812
438.1505, 6892.501
438.6326, 6903.999
439.1147, 6922.825
439.5968, 6934.646
440.0789, 6939.135
440.5610, 6933.570
441.0432, 6905.747
441.5253, 6864.322
442.0074, 6843.135
442.4895, 6879.711
442.9716, 6930.526
443.4537, 6934.304
443.9359, 6894.890
444.4180, 6861.661
444.9001, 6858.448
445.3822, 6873.430
445.8643, 6882.315
446.3464, 6888.676
446.8286, 6881.955
447.3107, 6842.773
447.7928, 6801.082
448.2749, 6788.697
448.7570, 6804.750
449.2391, 6824.683
449.7213, 6829.623
450.2034, 6820.343
450.6855, 6804.410
451.1676, 6764.508
451.6497, 6742.345
452.1318, 6756.566
452.6140, 6784.086
453.0961, 6802.296
453.5782, 6805.812
454.0603, 6805.111
454.5424, 6809.120
455.0245, 6817.900
455.5067, 6833.276
455.9888, 6859.480
456.4709, 6884.042
456.9530, 6895.023
457.4351, 6898.689
457.9172, 6907.418
458.3994, 6925.175
458.8815, 6946.323
459.3636, 6976.442
459.8457, 7006.708
460.3278, 7009.029
460.8099, 6971.948
461.2921, 6926.584
461.7742, 6916.209
462.2563, 6953.563
462.7384, 6973.008
463.2205, 6947.091
463.7026, 6931.577
464.1848, 6965.479
464.6669, 7028.357
465.1490, 7077.563
465.6311, 7090.365
466.1132, 7084.018
466.5953, 7096.983
467.0775, 7137.398
467.5596, 7169.055
468.0417, 7170.813
468.5238, 7177.039
469.0059, 7212.451
469.4880, 7271.716
469.9702, 7328.397
470.4523, 7364.821
470.9344, 7392.819
471.4165, 7433.082
471.8986, 7485.107
472.3807, 7533.221
472.8629, 7567.681
473.3449, 7597.090
473.8271, 7639.291
474.3092, 7696.771
474.7913, 7755.097
475.2734, 7812.829
475.7555, 7869.749
476.2376, 7923.165
476.7198, 7974.581
477.2019, 8029.934
477.6840, 8093.349
478.1661, 8164.090
478.6482, 8239.992
479.1303, 8324.289
479.6125, 8408.293
480.0946, 8490.998
480.5767, 8572.445
481.0588, 8657.084
481.5409, 8742.652
482.0230, 8814.945
482.5052, 8852.183
482.9873, 8866.595
483.4694, 8906.555
483.9515, 8980.895
484.4336, 9042.061
484.9157, 9065.066
485.3979, 9057.388
485.8800, 9038.403
486.3621, 9002.069
486.8442, 8968.967
487.3263, 8950.458
487.8084, 8937.972
488.2906, 8923.067
488.7727, 8903.594
489.2548, 8875.717
489.7369, 8834.618
490.2190, 8781.578
490.7011, 8736.080
491.1833, 8679.108
491.6654, 8654.855
492.1475, 8693.182
492.6296, 8753.111
493.1117, 8788.392
493.5938, 8792.462
494.0760, 8803.591
494.5581, 8863.813
495.0402, 8966.375
495.5223, 9066.815
496.0044, 9160.333
496.4865, 9261.098
496.9687, 9379.379
497.4508, 9509.113
497.9329, 9638.462
498.4150, 9764.488
498.8971, 9895.259
499.3792, 10040.81
499.8614, 10190.84
500.3435, 10335.17
500.8256, 10470.40
501.3077, 10583.40
501.7898, 10660.98
502.2719, 10703.48
502.7541, 10741.38
503.2362, 10798.13
503.7183, 10820.80
504.2004, 10790.90
504.6825, 10728.00
505.1646, 10647.82
505.6468, 10555.45
506.1289, 10457.17
506.6110, 10362.82
507.0931, 10269.67
507.5752, 10154.51
508.0573, 10012.48
508.5395, 9861.088
509.0216, 9698.332
509.5037, 9535.953
509.9858, 9400.578
510.4679, 9306.872
510.9500, 9210.909
511.4322, 9084.736
511.9143, 8947.275
512.3964, 8825.613
512.8785, 8723.916
513.3606, 8634.240
513.8427, 8552.840
514.3248, 8478.067
514.8069, 8388.775
515.2891, 8260.975
515.7712, 8149.331
516.2533, 8069.146
516.7354, 8001.952
517.2175, 7931.823
517.6996, 7855.957
518.1818, 7779.090
518.6639, 7707.214
519.1460, 7638.531
519.6281, 7559.363
520.1102, 7463.807
520.5923, 7386.400
521.0745, 7356.069
521.5566, 7348.727
522.0387, 7313.648
522.5208, 7238.969
523.0029, 7172.048
523.4850, 7132.142
523.9672, 7105.266
524.4493, 7072.060
524.9314, 7034.394
525.4135, 7014.832
525.8956, 7032.810
526.3777, 7075.303
526.8599, 7085.329
527.3420, 7043.027
527.8241, 7002.278
528.3062, 6971.625
528.7883, 6942.058
529.2704, 6906.970
529.7526, 6866.477
530.2347, 6825.126
530.7168, 6783.143
531.1989, 6743.368
531.6810, 6710.950
532.1631, 6685.922
532.6453, 6667.341
533.1274, 6658.471
533.6095, 6651.001
534.0916, 6629.446
534.5737, 6590.071
535.0558, 6556.164
535.5380, 6531.175
536.0201, 6511.365
536.5022, 6493.932
536.9843, 6479.631
537.4664, 6473.577
537.9485, 6478.798
538.4307, 6485.003
538.9128, 6468.234
539.3949, 6419.958
539.8770, 6385.493
540.3591, 6374.082
540.8412, 6371.070
541.3234, 6372.978
541.8055, 6376.531
542.2876, 6373.795
542.7697, 6359.163
543.2518, 6342.098
543.7339, 6332.557
544.2161, 6327.340
544.6982, 6315.865
545.1803, 6295.080
545.6624, 6273.659
546.1445, 6260.493
546.6266, 6255.794
547.1088, 6255.653
547.5909, 6262.515
548.0730, 6270.410
548.5551, 6282.556
549.0372, 6292.520
549.5193, 6290.004
550.0015, 6273.876
550.4836, 6258.152
550.9657, 6259.604
551.4478, 6274.879
551.9299, 6282.066
552.4120, 6278.281
552.8942, 6276.111
553.3763, 6284.246
553.8584, 6296.718
554.3405, 6300.720
554.8226, 6291.586
555.3047, 6288.456
555.7869, 6312.082
556.2690, 6334.400
556.7511, 6317.834
557.2332, 6270.278
557.7153, 6235.717
558.1974, 6243.143
558.6796, 6276.403
559.1617, 6287.029
559.6438, 6266.981
560.1259, 6244.603
560.6080, 6213.496
561.0901, 6188.943
561.5723, 6183.095
562.0544, 6191.392
562.5365, 6198.354
563.0186, 6198.555
563.5007, 6193.278
563.9828, 6182.132
564.4650, 6166.376
564.9471, 6151.476
565.4292, 6139.435
565.9113, 6125.015
566.3934, 6100.988
566.8755, 6065.692
567.3577, 6039.086
567.8398, 6028.017
568.3219, 6016.174
568.8040, 5995.173
569.2861, 5972.961
569.7682, 5961.321
570.2504, 5961.986
570.7325, 5962.546
571.2146, 5951.344
571.6967, 5929.682
572.1788, 5899.442
572.6609, 5855.792
573.1431, 5827.612
573.6252, 5838.483
574.1073, 5866.541
574.5894, 5868.812
575.0715, 5838.960
575.5536, 5809.490
576.0358, 5785.809
576.5179, 5766.570
577.0000, 5748.818
577.4821, 5734.522
577.9642, 5731.970
578.4464, 5746.435
578.9285, 5766.151
579.4106, 5763.069
579.8927, 5728.999
580.3748, 5711.625
580.8569, 5730.884
581.3391, 5747.477
581.8212, 5730.426
582.3033, 5695.237
582.7854, 5678.000
583.2675, 5695.039
583.7496, 5717.800
584.2318, 5727.310
584.7139, 5729.132
585.1959, 5735.471
585.6780, 5747.670
586.1602, 5753.539
586.6423, 5741.208
587.1244, 5713.670
587.6065, 5694.293
588.0886, 5685.672
588.5707, 5681.517
589.0529, 5686.678
589.5350, 5691.346
590.0171, 5684.797
590.4992, 5669.402
590.9813, 5659.751
591.4634, 5666.285
591.9456, 5681.652
592.4277, 5702.652
592.9098, 5726.000
593.3919, 5725.870
593.8740, 5689.540
594.3561, 5645.551
594.8383, 5629.700
595.3204, 5646.200
595.8025, 5659.263
596.2846, 5672.218
596.7667, 5678.321
597.2488, 5665.251
597.7310, 5649.223
598.2131, 5654.610
598.6952, 5684.723
599.1773, 5712.347
599.6594, 5709.127
600.1415, 5682.635
600.6237, 5656.968
601.1058, 5630.848
601.5879, 5621.260
602.0700, 5646.507
602.5521, 5681.907
603.0342, 5678.708
603.5164, 5625.979
603.9985, 5586.750
604.4806, 5569.569
604.9627, 5565.824
605.4448, 5576.998
605.9269, 5596.371
606.4091, 5614.954
606.8912, 5628.859
607.3733, 5635.315
607.8554, 5626.447
608.3375, 5602.895
608.8196, 5588.244
609.3018, 5585.286
609.7839, 5586.774
610.2660, 5589.994
610.7481, 5594.739
611.2302, 5600.939
611.7123, 5610.244
612.1945, 5616.628
612.6766, 5614.990
613.1587, 5612.207
613.6408, 5616.790
614.1229, 5626.155
614.6050, 5629.233
615.0872, 5619.304
615.5693, 5605.170
616.0514, 5606.883
616.5335, 5628.130
617.0156, 5639.072
617.4977, 5631.758
617.9799, 5621.528
618.4620, 5619.975
618.9441, 5621.901
619.4262, 5615.477
619.9083, 5591.234
620.3904, 5574.515
620.8726, 5582.979
621.3547, 5602.089
621.8368, 5614.265
622.3189, 5618.518
622.8010, 5624.055
623.2831, 5637.798
623.7653, 5654.270
624.2474, 5655.657
624.7295, 5634.666
625.2116, 5624.271
625.6937, 5638.002
626.1758, 5652.211
626.6580, 5652.830
627.1401, 5642.857
627.6222, 5629.537
628.1043, 5608.725
628.5864, 5594.989
629.0685, 5606.279
629.5507, 5626.136
630.0328, 5626.869
630.5149, 5606.580
630.9970, 5584.623
631.4791, 5575.668
631.9612, 5576.187
632.4434, 5573.438
632.9255, 5569.180
633.4076, 5556.604
633.8897, 5518.017
634.3718, 5487.011
634.8539, 5492.809
635.3361, 5523.857
635.8182, 5541.831
636.3003, 5527.084
636.7824, 5508.893
637.2645, 5505.376
637.7466, 5512.427
638.2288, 5528.643
638.7109, 5551.084
639.1930, 5562.392
639.6751, 5546.216
640.1572, 5510.557
640.6393, 5493.612
641.1215, 5503.457
641.6036, 5512.279
642.0857, 5516.737
642.5678, 5518.358
643.0499, 5518.468
643.5320, 5516.593
644.0142, 5510.664
644.4963, 5495.619
644.9784, 5482.617
645.4605, 5482.614
645.9426, 5488.704
646.4247, 5487.831
646.9069, 5478.616
647.3890, 5470.706
647.8711, 5472.382
648.3532, 5480.871
648.8353, 5484.300
649.3174, 5483.055
649.7996, 5475.529
650.2817, 5452.469
650.7638, 5431.749
651.2459, 5428.567
651.7280, 5437.611
652.2101, 5440.338
652.6923, 5424.473
653.1744, 5411.678
653.6565, 5420.867
654.1386, 5439.131
654.6207, 5445.366
655.1028, 5437.863
655.5850, 5431.252
656.0671, 5437.271
656.5492, 5450.901
657.0313, 5454.266
657.5134, 5444.104
657.9955, 5434.597
658.4777, 5426.493
658.9598, 5420.952
659.4419, 5418.734
659.9240, 5419.491
660.4061, 5422.189
660.8882, 5426.467
661.3704, 5432.883
661.8525, 5438.773
662.3346, 5448.590
662.8167, 5473.785
663.2988, 5510.500
663.7809, 5538.244
664.2631, 5542.809
664.7452, 5531.395
665.2273, 5518.336
665.7094, 5501.367
666.1915, 5500.148
666.6736, 5529.180
667.1558, 5554.456
667.6379, 5539.525
668.1200, 5504.050
668.6021, 5498.568
669.0842, 5545.096
669.5663, 5586.697
670.0485, 5600.274
670.5306, 5604.379
671.0127, 5617.203
671.4948, 5636.515
671.9769, 5648.191
672.4590, 5643.717
672.9412, 5635.198
673.4233, 5643.715
673.9054, 5668.873
674.3875, 5697.730
674.8696, 5733.757
675.3517, 5758.840
675.8338, 5757.117
676.3159, 5738.872
676.7980, 5732.922
677.2802, 5748.316
677.7623, 5752.622
678.2444, 5726.760
678.7265, 5702.548
679.2086, 5702.323
679.6907, 5718.706
680.1729, 5738.774
680.6550, 5757.767
681.1371, 5764.229
681.6192, 5732.950
682.1013, 5677.979
682.5834, 5653.832
683.0656, 5664.812
683.5477, 5682.909
684.0298, 5696.807
684.5119, 5706.874
684.9940, 5714.697
685.4761, 5723.780
685.9583, 5717.768
686.4404, 5682.685
686.9225, 5649.616
687.4046, 5633.396
687.8867, 5623.555
688.3688, 5603.863
688.8510, 5571.679
689.3331, 5544.115
689.8152, 5537.781
690.2973, 5540.930
690.7794, 5536.152
691.2615, 5524.213
691.7437, 5509.004
692.2258, 5491.353
692.7079, 5477.129
693.1900, 5474.977
693.6721, 5485.428
694.1542, 5485.861
694.6364, 5476.689
695.1185, 5456.551
695.6006, 5408.038
696.0827, 5361.915
696.5648, 5346.978
697.0469, 5360.759
697.5291, 5373.791
698.0112, 5374.407
698.4933, 5371.247
698.9754, 5374.590
699.4575, 5376.793
699.9396, 5355.925
700.4218, 5313.479
700.9039, 5287.817
701.3860, 5314.845
701.8681, 5373.130
702.3502, 5389.249
702.8323, 5354.526
703.3145, 5324.742
703.7966, 5305.610
704.2787, 5298.370
704.7608, 5313.803
705.2429, 5342.582
705.7250, 5350.739
706.2072, 5318.167
706.6893, 5296.081
707.1714, 5307.075
707.6535, 5324.760
708.1356, 5328.677
708.6177, 5320.182
709.0999, 5307.984
709.5820, 5295.558
710.0641, 5284.899
710.5462, 5279.159
711.0283, 5277.419
711.5104, 5277.483
711.9926, 5279.550
712.4747, 5273.309
712.9568, 5248.456
713.4389, 5221.386
713.9210, 5227.294
714.4031, 5285.794
714.8853, 5313.674
715.3674, 5284.813
715.8495, 5257.207
716.3316, 5246.877
716.8137, 5249.078
717.2958, 5260.686
717.7780, 5280.411
718.2601, 5296.083
718.7422, 5301.391
719.2243, 5298.821
719.7064, 5291.040
720.1885, 5277.581
720.6707, 5251.899
721.1528, 5213.572
721.6349, 5183.377
722.1170, 5185.278
722.5991, 5212.994
723.0812, 5221.702
723.5634, 5203.329
724.0455, 5195.063
724.5276, 5212.901
725.0097, 5233.633
725.4918, 5232.892
725.9739, 5216.974
726.4561, 5211.788
726.9382, 5231.430
727.4203, 5246.131
727.9024, 5242.038
728.3845, 5233.560
728.8666, 5232.456
729.3488, 5238.796
729.8309, 5249.732
730.3130, 5265.130
730.7951, 5276.351
731.2772, 5263.104
731.7593, 5235.795
732.2415, 5238.922
732.7236, 5276.899
733.2057, 5311.976
733.6878, 5323.771
734.1699, 5322.339
734.6520, 5327.453
735.1342, 5342.475
735.6163, 5351.255
736.0984, 5342.270
736.5805, 5341.162
737.0626, 5366.086
737.5447, 5396.004
738.0269, 5404.474
738.5090, 5389.384
738.9911, 5379.282
739.4732, 5387.925
739.9553, 5404.345
740.4374, 5421.859
740.9196, 5440.352
741.4017, 5464.829
741.8838, 5493.431
742.3659, 5509.030
742.8480, 5494.268
743.3301, 5460.813
743.8123, 5443.320
744.2944, 5442.842
744.7765, 5436.785
745.2586, 5418.931
745.7407, 5402.082
746.2228, 5398.575
746.7050, 5403.451
747.1871, 5395.493
747.6692, 5358.365
748.1513, 5335.548
748.6334, 5337.535
749.1155, 5345.022
749.5977, 5349.865
750.0798, 5352.075
750.5619, 5354.318
751.0440, 5357.667
751.5261, 5355.415
752.0082, 5336.241
752.4904, 5312.989
752.9725, 5302.686
753.4546, 5303.839
753.9367, 5311.645
754.4188, 5323.935
754.9009, 5330.543
755.3831, 5316.023
755.8652, 5284.710
756.3473, 5278.312
756.8294, 5304.814
757.3115, 5322.155
757.7936, 5315.459
758.2758, 5302.453
758.7579, 5299.939
759.2400, 5306.340
759.7221, 5307.877
760.2042, 5294.817
760.6863, 5290.089
761.1685, 5300.813
761.6506, 5318.410
762.1327, 5343.838
762.6148, 5369.803
763.0969, 5381.283
763.5790, 5371.635
764.0612, 5352.680
764.5433, 5331.412
765.0253, 5309.619
765.5074, 5289.095
765.9896, 5270.823
766.4717, 5259.450
766.9538, 5257.153
767.4359, 5255.856
767.9180, 5242.893
768.4001, 5218.707
768.8823, 5205.450
769.3644, 5205.962
769.8465, 5208.848
770.3286, 5213.186
770.8107, 5216.019
771.2928, 5215.898
771.7750, 5212.282
772.2571, 5199.403
772.7392, 5162.352
773.2213, 5135.600
773.7034, 5136.932
774.1855, 5143.025
774.6677, 5131.770
775.1498, 5109.151
775.6319, 5095.959
776.1140, 5101.735
776.5961, 5112.868
777.0782, 5125.402
777.5604, 5131.226
778.0425, 5105.998
778.5246, 5057.541
779.0067, 5029.646
779.4888, 5041.194
779.9709, 5065.604
780.4531, 5065.741
780.9352, 5043.157
781.4173, 5031.763
781.8994, 5036.239
782.3815, 5032.832
782.8636, 5008.467
783.3458, 4983.095
783.8279, 4980.121
784.3100, 4997.561
784.7921, 5001.629
785.2742, 4979.846
785.7563, 4962.380
786.2385, 4956.181
786.7206, 4953.414
787.2027, 4947.653
787.6848, 4940.885
788.1669, 4939.167
788.6490, 4945.172
789.1312, 4952.745
789.6133, 4959.281
790.0954, 4963.646
790.5775, 4963.162
791.0596, 4959.191
791.5417, 4954.598
792.0239, 4950.728
792.5060, 4951.676
792.9881, 4964.605
793.4702, 4985.696
793.9523, 4996.622
794.4344, 4997.083
794.9166, 4990.118
795.3987, 4974.585
795.8808, 4957.372
796.3629, 4944.365
796.8450, 4934.838
797.3271, 4924.309
797.8093, 4910.231
798.2914, 4899.416
798.7735, 4890.492
799.2556, 4886.170
799.7377, 4887.754
800.2198, 4894.770
800.7020, 4909.375
801.1841, 4934.157
801.6662, 4948.747
802.1483, 4940.137
802.6304, 4922.196
803.1125, 4898.098
803.5947, 4875.191
804.0768, 4868.519
804.5589, 4878.539
805.0410, 4885.753
805.5231, 4872.219
806.0052, 4850.621
806.4874, 4845.519
806.9695, 4853.528
807.4516, 4859.472
807.9337, 4860.827
808.4158, 4853.234
808.8979, 4832.209
809.3801, 4804.690
809.8622, 4788.212
810.3443, 4786.227
810.8264, 4779.763
811.3085, 4761.242
811.7906, 4753.324
812.2728, 4774.776
812.7549, 4804.837
813.2370, 4814.645
813.7191, 4803.589
814.2012, 4795.039
814.6833, 4796.057
815.1655, 4793.391
815.6476, 4773.967
816.1297, 4756.164
816.6118, 4763.251
817.0939, 4787.504
817.5760, 4798.732
818.0582, 4781.253
818.5403, 4758.746
819.0224, 4749.228
819.5045, 4746.387
819.9866, 4741.486
820.4688, 4735.221
820.9509, 4732.721
821.4330, 4735.894
821.9151, 4741.255
822.3972, 4745.673
822.8793, 4748.705
823.3615, 4749.018
823.8436, 4746.632
824.3257, 4736.363
824.8078, 4714.680
825.2899, 4696.903
825.7720, 4698.202
826.2542, 4713.139
826.7363, 4714.673
827.2184, 4688.712
827.7005, 4684.521
828.1826, 4730.375
828.6647, 4764.933
829.1469, 4741.814
829.6290, 4697.191
830.1111, 4687.418
830.5932, 4721.237
831.0753, 4742.445
831.5574, 4725.917
832.0396, 4711.896
832.5217, 4726.997
833.0038, 4747.872
833.4859, 4747.158
833.9680, 4725.313
834.4501, 4699.884
834.9323, 4674.166
835.4144, 4660.074
835.8965, 4678.470
836.3786, 4710.137
836.8607, 4726.367
837.3428, 4726.863
837.8250, 4721.226
838.3071, 4713.721
838.7892, 4707.102
839.2713, 4706.347
839.7534, 4709.363
840.2355, 4704.222
840.7177, 4691.081
841.1998, 4687.025
841.6819, 4697.817
842.1640, 4709.974
842.6461, 4709.946
843.1282, 4702.500
843.6104, 4712.388
844.0925, 4754.519
844.5746, 4768.853
845.0567, 4733.583
845.5388, 4698.019
846.0209, 4686.690
846.5031, 4690.430
846.9852, 4694.239
847.4673, 4697.601
847.9494, 4704.376
848.4315, 4722.254
848.9136, 4734.398
849.3958, 4736.424
849.8779, 4729.354
850.3600, 4707.956
850.8421, 4678.001
851.3242, 4658.922
851.8063, 4661.797
852.2885, 4667.456
852.7706, 4659.042
853.2527, 4650.721
853.7348, 4666.150
854.2169, 4693.764
854.6990, 4701.849
855.1811, 4680.924
855.6632, 4653.300
856.1453, 4637.427
856.6274, 4631.058
857.1096, 4632.512
857.5917, 4639.895
858.0738, 4646.172
858.5559, 4649.745
859.0380, 4648.337
859.5201, 4639.618
860.0023, 4627.817
860.4844, 4622.081
860.9665, 4622.557
861.4486, 4628.590
861.9307, 4642.449
862.4128, 4651.988
862.8950, 4651.841
863.3771, 4645.717
863.8592, 4636.059
864.3413, 4622.894
864.8234, 4622.343
865.3055, 4651.675
865.7877, 4664.696
866.2698, 4638.515
866.7519, 4611.565
867.2340, 4610.726
867.7161, 4623.624
868.1982, 4620.613
868.6804, 4591.312
869.1625, 4575.359
869.6446, 4596.497
870.1267, 4615.667
870.6088, 4608.434
871.0909, 4591.355
871.5731, 4583.029
872.0552, 4586.061
872.5373, 4596.823
873.0194, 4619.390
873.5015, 4638.602
873.9836, 4640.869
874.4658, 4634.679
874.9479, 4628.835
875.4300, 4624.419
875.9121, 4620.532
876.3942, 4616.887
876.8763, 4614.805
877.3585, 4617.362
877.8406, 4621.590
878.3227, 4619.772
878.8048, 4613.922
879.2869, 4612.608
879.7690, 4617.404
880.2512, 4624.082
880.7333, 4630.229
881.2154, 4633.910
881.6975, 4628.118
882.1796, 4613.007
882.6617, 4611.996
883.1439, 4629.294
883.6260, 4634.492
884.1081, 4611.396
884.5902, 4584.992
885.0723, 4586.643
885.5544, 4614.072
886.0366, 4633.584
886.5187, 4644.199
887.0008, 4649.194
887.4829, 4646.661
887.9650, 4641.592
888.4471, 4632.611
888.9293, 4624.716
889.4114, 4631.415
889.8935, 4659.523
890.3756, 4673.313
890.8577, 4662.129
891.3398, 4648.544
891.8220, 4629.812
892.3041, 4618.664
892.7862, 4635.459
893.2683, 4670.869
893.7504, 4685.871
894.2325, 4655.542
894.7147, 4639.437
895.1968, 4680.734
895.6789, 4724.173
896.1610, 4724.475
896.6431, 4700.565
897.1252, 4686.966
897.6074, 4690.162
898.0895, 4692.349
898.5716, 4678.883
899.0537, 4665.055
899.5358, 4667.402
900.0179, 4676.614
900.5001, 4678.002
900.9822, 4672.645
901.4643, 4670.317
901.9464, 4675.334
902.4285, 4684.114
902.9106, 4696.722
903.3928, 4708.480
903.8749, 4707.132
904.3570, 4696.146
904.8391, 4687.035
905.3212, 4683.091
905.8033, 4690.058
906.2855, 4714.453
906.7676, 4742.101
907.2497, 4738.169
907.7318, 4707.327
908.2139, 4700.126
908.6960, 4720.075
909.1782, 4728.344
909.6603, 4708.021
910.1424, 4687.066
910.6245, 4698.091
911.1066, 4734.592
911.5887, 4757.589
912.0709, 4765.609
912.5530, 4766.309
913.0351, 4757.756
913.5172, 4749.426
913.9993, 4745.937
914.4814, 4746.492
914.9636, 4752.268
915.4457, 4765.874
915.9278, 4757.969
916.4099, 4698.675
916.8920, 4672.773
917.3741, 4728.072
917.8563, 4786.416
918.3384, 4787.009
918.8205, 4749.207
919.3026, 4724.000
919.7847, 4715.934
920.2668, 4709.322
920.7490, 4705.023
921.2311, 4699.789
921.7132, 4688.736
922.1953, 4679.052
922.6774, 4679.778
923.1595, 4688.938
923.6417, 4694.880
924.1238, 4692.692
924.6059, 4691.551
925.0880, 4693.380
925.5701, 4698.073
926.0522, 4712.391
926.5344, 4726.062
927.0165, 4721.184
927.4986, 4696.881
927.9807, 4675.239
928.4628, 4662.840
928.9449, 4661.138
929.4271, 4677.208
929.9092, 4699.671
930.3913, 4720.850
930.8734, 4736.811
931.3555, 4740.210
931.8376, 4729.112
932.3198, 4716.634
932.8019, 4705.347
933.2840, 4704.273
933.7661, 4739.668
934.2482, 4784.834
934.7303, 4787.712
935.2125, 4751.015
935.6946, 4716.188
936.1767, 4703.233
936.6588, 4703.655
937.1409, 4714.132
937.6230, 4728.161
938.1052, 4735.070
938.5873, 4734.286
939.0694, 4719.734
939.5515, 4693.337
940.0336, 4678.013
940.5157, 4691.451
940.9979, 4715.181
941.4800, 4713.653
941.9621, 4696.004
942.4442, 4701.457
942.9263, 4728.611
943.4084, 4750.683
943.8906, 4759.004
944.3726, 4756.745
944.8547, 4744.858
945.3369, 4728.496
945.8190, 4721.806
946.3011, 4724.436
946.7832, 4732.063
947.2653, 4744.582
947.7474, 4756.146
948.2296, 4764.621
948.7117, 4769.077
949.1938, 4768.078
949.6759, 4762.296
950.1580, 4752.493
950.6401, 4736.322
951.1223, 4740.646
951.6044, 4773.061
952.0865, 4807.293
952.5686, 4832.743
953.0507, 4844.267
953.5328, 4829.600
954.0150, 4789.021
954.4971, 4776.544
954.9792, 4801.785
955.4613, 4821.435
955.9434, 4827.067
956.4255, 4829.470
956.9077, 4837.728
957.3898, 4844.333
957.8719, 4830.581
958.3540, 4789.952
958.8361, 4776.421
959.3182, 4809.921
959.8004, 4826.731
960.2825, 4800.494
960.7646, 4772.546
961.2467, 4774.515
961.7288, 4796.825
962.2109, 4810.002
962.6931, 4812.935
963.1752, 4847.074
963.6573, 4869.389
964.1394, 4880.514
964.6215, 4846.936
965.1036, 4871.082
965.5858, 4872.097
966.0679, 4872.161
966.5500, 4904.432
967.0321, 4877.356
967.5142, 4909.117
967.9963, 4917.390
968.4785, 4936.415
968.9606, 4932.161
969.4427, 4935.097
969.9248, 4901.641
970.4069, 4907.128
970.8890, 4908.531
971.3712, 4899.391
971.8533, 4897.532
972.3354, 4914.412
972.8175, 4927.752
973.2996, 4920.552
973.7817, 4909.907
974.2639, 4917.707
974.7460, 4941.979
975.2281, 4959.761
975.7102, 4963.031
976.1923, 4966.672
976.6744, 4979.549
977.1566, 4986.895
977.6387, 4973.685
978.1208, 4954.518
978.6029, 4949.210
979.0850, 4958.348
979.5671, 4966.850
980.0493, 4969.997
980.5314, 4973.790
981.0135, 4986.424
981.4956, 4993.405
981.9777, 4981.417
982.4598, 4960.016
982.9420, 4942.131
983.4241, 4929.649
983.9062, 4920.638
984.3883, 4919.950
984.8704, 4915.160
985.3525, 4893.641
985.8347, 4874.667
986.3168, 4875.924
986.7989, 4887.804
987.2810, 4894.882
987.7631, 4894.535
988.2452, 4890.231
988.7274, 4883.791
989.2095, 4872.874
989.6916, 4842.756
990.1737, 4820.762
990.6558, 4842.726
991.1379, 4883.301
991.6201, 4895.757
992.1022, 4871.959
992.5843, 4840.976
993.0664, 4804.110
993.5485, 4776.153
994.0306, 4761.692
994.5128, 4761.331
994.9949, 4787.979
995.4770, 4824.662
995.9591, 4838.581
996.4412, 4823.583
996.9233, 4810.544
997.4055, 4818.080
997.8876, 4824.019
998.3697, 4809.016
998.8518, 4794.688
999.3339, 4806.817
999.8160, 4832.458
1000.298, 4843.940
1000.780, 4835.336
1001.262, 4821.608
1001.745, 4796.569
1002.227, 4784.038
1002.709, 4809.616
1003.191, 4841.650
1003.673, 4851.753
1004.155, 4845.321
1004.637, 4834.917
1005.119, 4823.679
1005.601, 4819.669
1006.084, 4837.605
1006.566, 4849.356
1007.048, 4830.073
1007.530, 4807.458
1008.012, 4808.234
1008.494, 4824.532
1008.976, 4837.874
1009.458, 4844.203
1009.940, 4850.179
1010.423, 4865.638
1010.905, 4872.501
1011.387, 4848.639
1011.869, 4824.674
1012.351, 4832.440
1012.833, 4858.347
1013.315, 4873.815
1013.797, 4873.274
1014.280, 4870.205
1014.762, 4865.595
1015.244, 4865.176
1015.726, 4877.585
1016.208, 4889.389
1016.690, 4889.554
1017.172, 4881.044
1017.654, 4866.967
1018.136, 4848.636
1018.619, 4841.004
1019.101, 4858.293
1019.583, 4874.949
1020.065, 4879.928
1020.547, 4881.997
1021.029, 4888.879
1021.511, 4896.904
1021.993, 4900.826
1022.476, 4899.602
1022.958, 4889.924
1023.440, 4853.803
1023.922, 4833.095
1024.404, 4854.695
1024.886, 4880.974
1025.368, 4883.418
1025.850, 4876.726
1026.332, 4888.761
1026.815, 4920.209
1027.297, 4935.700
1027.779, 4906.860
1028.261, 4891.976
1028.743, 4921.009
1029.225, 4948.493
1029.707, 4945.008
1030.189, 4927.406
1030.672, 4917.336
1031.154, 4916.029
1031.636, 4916.604
1032.118, 4919.907
1032.600, 4922.196
1033.082, 4918.264
1033.564, 4918.733
1034.046, 4931.691
1034.528, 4949.365
1035.010, 4964.916
1035.493, 4977.542
1035.975, 4984.250
1036.457, 4979.749
1036.939, 4978.246
1037.421, 4986.704
1037.903, 4990.208
1038.385, 4974.302
1038.867, 4958.449
1039.350, 4961.346
1039.832, 4980.478
1040.314, 5004.240
1040.796, 5043.232
1041.278, 5061.767
1041.760, 5045.347
1042.242, 5032.198
1042.724, 5034.768
1043.207, 5042.666
1043.689, 5046.092
1044.171, 5048.289
1044.653, 5060.609
1045.135, 5087.195
1045.617, 5108.625
1046.099, 5126.958
1046.581, 5133.981
1047.063, 5120.680
1047.546, 5110.082
1048.028, 5121.852
1048.510, 5145.102
1048.992, 5152.941
1049.474, 5142.336
1049.956, 5150.626
1050.438, 5184.917
1050.920, 5206.422
1051.402, 5203.351
1051.885, 5203.706
1052.367, 5228.525
1052.849, 5257.347
1053.331, 5250.313
1053.813, 5211.455
1054.295, 5210.976
1054.777, 5252.311
1055.259, 5286.969
1055.742, 5307.813
1056.224, 5321.295
1056.706, 5330.406
1057.188, 5335.821
1057.670, 5338.494
1058.152, 5338.103
1058.634, 5328.466
1059.116, 5311.958
1059.599, 5318.470
1060.081, 5349.699
1060.563, 5380.419
1061.045, 5400.777
1061.527, 5415.264
1062.009, 5428.186
1062.491, 5438.768
1062.973, 5441.411
1063.455, 5440.698
1063.938, 5453.589
1064.420, 5479.034
1064.902, 5507.253
1065.384, 5534.923
1065.866, 5562.259
1066.348, 5589.573
1066.830, 5616.002
1067.312, 5640.174
1067.794, 5662.857
1068.277, 5684.936
1068.759, 5706.430
1069.241, 5730.955
1069.723, 5755.841
1070.205, 5764.243
1070.687, 5744.401
1071.169, 5728.054
1071.651, 5744.066
1072.134, 5778.108
1072.616, 5826.427
1073.098, 5875.596
1073.580, 5905.556
1074.062, 5918.042
1074.544, 5923.989
1075.026, 5926.693
1075.508, 5934.899
1075.990, 5960.167
1076.473, 5984.708
1076.955, 5995.899
1077.437, 6002.255
1077.919, 6004.251
1078.401, 6010.787
1078.883, 6046.765
1079.365, 6114.444
1079.847, 6151.469
1080.329, 6099.597
1080.812, 6069.800
1081.294, 6111.407
1081.776, 6166.438
1082.258, 6208.537
1082.740, 6238.527
1083.222, 6256.981
1083.704, 6265.389
1084.186, 6274.598
1084.668, 6286.004
1085.151, 6297.234
1085.633, 6303.171
1086.115, 6315.809
1086.597, 6341.564
1087.079, 6372.539
1087.561, 6404.312
1088.043, 6434.815
1088.525, 6457.147
1089.008, 6469.148
1089.490, 6482.802
1089.972, 6498.586
1090.454, 6513.364
1090.936, 6523.387
1091.418, 6542.669
1091.900, 6583.398
1092.382, 6630.729
1092.865, 6658.330
1093.347, 6668.172
1093.829, 6685.605
1094.311, 6711.299
1094.793, 6722.902
1095.275, 6717.158
1095.757, 6718.375
1096.239, 6737.623
1096.721, 6759.000
1097.203, 6762.352
1097.686, 6762.131
1098.168, 6808.107
1098.650, 6879.837
1099.132, 6885.118
1099.614, 6836.921
1100.096, 6826.930
1100.578, 6875.344
1101.060, 6927.706
1101.543, 6948.225
1102.025, 6955.163
1102.507, 6963.428
1102.989, 6976.795
1103.471, 7010.205
1103.953, 7048.355
1104.435, 7061.568
1104.917, 7051.057
1105.400, 7034.068
1105.882, 7016.342
1106.364, 7011.696
1106.846, 7037.773
1107.328, 7069.116
1107.810, 7095.882
1108.292, 7113.946
1108.774, 7105.406
1109.256, 7091.647
1109.739, 7120.995
1110.221, 7196.495
1110.703, 7243.589
1111.185, 7216.049
1111.667, 7198.683
1112.149, 7222.937
1112.631, 7244.604
1113.113, 7233.086
1113.595, 7215.618
1114.078, 7224.327
1114.560, 7252.706
1115.042, 7273.526
1115.524, 7281.248
1116.006, 7300.823
1116.488, 7344.400
1116.970, 7370.897
1117.452, 7369.609
1117.935, 7351.252
1118.417, 7378.929
1118.899, 7379.103
1119.381, 7375.967
1119.863, 7369.801
1120.345, 7345.631
1120.827, 7349.230
1121.309, 7344.465
1121.792, 7341.250
1122.274, 7354.404
1122.756, 7343.006
1123.238, 7359.878
1123.720, 7368.224
1124.202, 7383.350
1124.684, 7390.042
1125.166, 7401.923
1125.648, 7426.180
1126.130, 7446.652
1126.613, 7358.721
1127.095, 7346.473
1127.577, 7346.425
1128.059, 7371.821
1128.541, 7390.262
1129.023, 7363.667
1129.505, 7326.758
1129.987, 7305.973
1130.470, 7299.652
1130.952, 7313.781
1131.434, 7337.023
1131.916, 7344.436
1132.398, 7331.820
1132.880, 7323.095
1133.362, 7338.432
1133.844, 7340.777
1134.327, 7304.461
1134.809, 7269.064
1135.291, 7256.436
1135.773, 7255.345
1136.255, 7256.155
1136.737, 7257.263
1137.219, 7254.021
1137.701, 7246.190
1138.183, 7234.372
1138.666, 7212.972
1139.148, 7202.486
1139.630, 7212.317
1140.112, 7219.941
1140.594, 7211.189
1141.076, 7195.374
1141.558, 7184.860
1142.040, 7180.378
1142.522, 7189.884
1143.005, 7212.406
1143.487, 7221.940
1143.969, 7217.189
1144.451, 7210.979
1144.933, 7207.787
1145.415, 7213.429
1145.897, 7234.045
1146.379, 7255.995
1146.862, 7258.014
1147.344, 7249.453
1147.826, 7245.086
1148.308, 7243.927
1148.790, 7243.005
1149.272, 7242.266
1149.754, 7246.433
1150.236, 7256.601
1150.719, 7253.896
1151.201, 7207.000
1151.683, 7171.015
1152.165, 7187.821
1152.647, 7215.142
1153.129, 7223.151
1153.611, 7219.562
1154.093, 7216.269
1154.575, 7214.250
1155.057, 7211.171
1155.540, 7202.568
1156.022, 7203.773
1156.504, 7221.906
1156.986, 7238.114
1157.468, 7247.277
1157.950, 7254.975
1158.432, 7261.894
1158.914, 7274.324
1159.397, 7306.533
1159.879, 7353.142
1160.361, 7363.752
1160.843, 7336.956
1161.325, 7334.447
1161.807, 7360.987
1162.289, 7399.177
1162.771, 7442.911
1163.254, 7471.736
1163.736, 7468.319
1164.218, 7456.370
1164.700, 7470.939
1165.182, 7500.647
1165.664, 7530.586
1166.146, 7556.888
1166.628, 7566.859
1167.110, 7567.704
1167.593, 7585.930
1168.075, 7628.126
1168.557, 7666.052
1169.039, 7684.967
1169.521, 7695.090
1170.003, 7683.957
1170.485, 7685.599
1170.967, 7733.612
1171.449, 7798.766
1171.932, 7851.007
1172.414, 7889.128
1172.896, 7916.329
1173.378, 7930.435
1173.860, 7942.723
1174.342, 7946.019
1174.824, 7966.651
1175.306, 8019.973
1175.788, 8059.327
1176.271, 8057.252
1176.753, 8045.122
1177.235, 8057.563
1177.717, 8091.894
1178.199, 8148.241
1178.681, 8220.740
1179.163, 8255.682
1179.645, 8259.762
1180.128, 8294.831
1180.610, 8364.688
1181.092, 8393.505
1181.574, 8341.568
1182.056, 8295.251
1182.538, 8349.331
1183.020, 8436.477
1183.502, 8495.640
1183.984, 8540.035
1184.467, 8583.200
1184.949, 8623.826
1185.431, 8657.979
1185.913, 8684.880
1186.395, 8703.270
1186.877, 8707.256
1187.359, 8719.299
1187.841, 8750.438
1188.323, 8780.794
##END=



