##NAMES=Anorthite
##RRUFFID=R060193
##IDEAL CHEMISTRY=CaAl_2_Si_2_O_8_
##LOCALITY=Mexico
##OWNER=RRUFF
##SOURCE=Bill Barker
##DESCRIPTION=Tan colored translucent fragment
##STATUS=The identification of this mineral has been confirmed by X-ray diffraction and chemical analysis
##URL=rruff.info/R060193
##MEASURED CHEMISTRY=(Ca_0.58_Na_0.39_K_0.02_)Al_1.60_Si_2.40_O_8_
92.07813, 79.88094
92.56024, 79.81348
93.04236, 79.89133
93.52448, 80.06892
94.00659, 80.17803
94.48871, 79.86795
94.97083, 79.40476
95.45294, 79.69467
95.93506, 81.14647
96.41718, 82.77206
96.89929, 82.54585
97.38141, 80.44494
97.86353, 78.26313
98.34564, 77.37576
98.82776, 77.73990
99.30988, 78.10632
99.79199, 78.44279
100.2741, 78.58811
100.7562, 77.60195
101.2383, 75.00764
101.7205, 72.60167
102.2026, 72.19499
102.6847, 74.32545
103.1668, 76.41663
103.6489, 78.00706
104.1310, 79.07994
104.6132, 79.92038
105.0953, 80.86816
105.5774, 81.25130
106.0595, 80.00205
106.5416, 75.40711
107.0237, 71.78407
107.5059, 70.27278
107.9880, 71.40770
108.4701, 73.07710
108.9522, 75.96669
109.4343, 79.26325
109.9164, 81.54864
110.3986, 81.76395
110.8807, 81.81966
111.3628, 82.26984
111.8449, 83.13840
112.3270, 84.37399
112.8091, 86.22942
113.2913, 88.48983
113.7734, 90.56243
114.2555, 91.99998
114.7376, 93.48689
115.2197, 95.36913
115.7018, 97.76693
116.1840, 100.5118
116.6661, 103.2958
117.1482, 106.2621
117.6303, 110.1377
118.1124, 115.1194
118.5945, 121.2233
119.0767, 128.4008
119.5588, 137.1247
120.0409, 146.5790
120.5230, 155.9333
121.0051, 165.2208
121.4872, 176.1273
121.9694, 189.4781
122.4515, 205.0170
122.9336, 222.4665
123.4157, 241.5511
123.8978, 262.3943
124.3799, 285.4568
124.8621, 310.8667
125.3442, 337.0624
125.8263, 362.3931
126.3084, 387.4288
126.7905, 413.6788
127.2726, 443.0325
127.7548, 473.5908
128.2369, 502.0587
128.7190, 528.0616
129.2011, 552.4752
129.6832, 576.5412
130.1653, 599.9344
130.6474, 622.0480
131.1296, 640.0374
131.6117, 655.8250
132.0938, 677.3212
132.5759, 706.3348
133.0580, 739.9303
133.5401, 771.1572
134.0223, 799.9938
134.5044, 831.9503
134.9865, 871.9838
135.4686, 920.2764
135.9507, 968.4535
136.4328, 1015.552
136.9150, 1062.597
137.3971, 1112.417
137.8792, 1165.908
138.3613, 1219.755
138.8434, 1271.839
139.3255, 1321.985
139.8077, 1369.615
140.2898, 1415.230
140.7719, 1458.355
141.2540, 1498.534
141.7361, 1535.465
142.2182, 1569.233
142.7004, 1599.506
143.1825, 1624.998
143.6646, 1649.457
144.1467, 1672.242
144.6288, 1693.314
145.1109, 1718.494
145.5931, 1750.832
146.0752, 1785.006
146.5573, 1814.969
147.0394, 1836.420
147.5215, 1859.570
148.0036, 1886.228
148.4858, 1917.076
148.9679, 1950.359
149.4500, 1986.958
149.9321, 2025.807
150.4142, 2064.528
150.8963, 2103.169
151.3785, 2142.307
151.8606, 2181.367
152.3427, 2220.234
152.8248, 2260.827
153.3069, 2305.204
153.7890, 2351.282
154.2712, 2388.185
154.7533, 2407.507
155.2354, 2421.645
155.7175, 2430.324
156.1996, 2430.202
156.6817, 2430.760
157.1639, 2432.607
157.6460, 2435.930
158.1281, 2441.188
158.6102, 2449.521
159.0923, 2458.947
159.5744, 2468.651
160.0566, 2479.020
160.5387, 2488.667
161.0208, 2496.144
161.5029, 2502.411
161.9850, 2510.240
162.4671, 2518.856
162.9493, 2530.377
163.4314, 2546.395
163.9135, 2569.647
164.3956, 2594.381
164.8777, 2618.054
165.3598, 2641.169
165.8420, 2665.852
166.3241, 2692.925
166.8062, 2721.998
167.2883, 2752.823
167.7704, 2787.088
168.2525, 2821.160
168.7346, 2852.979
169.2168, 2882.771
169.6989, 2912.104
170.1810, 2939.955
170.6631, 2968.422
171.1452, 3000.263
171.6273, 3039.502
172.1095, 3079.555
172.5916, 3115.952
173.0737, 3148.792
173.5558, 3178.686
174.0379, 3205.682
174.5201, 3230.031
175.0022, 3252.606
175.4843, 3273.824
175.9664, 3293.522
176.4485, 3311.077
176.9306, 3326.673
177.4128, 3340.140
177.8949, 3352.176
178.3770, 3361.957
178.8591, 3367.937
179.3412, 3369.683
179.8233, 3367.159
180.3055, 3360.589
180.7876, 3349.980
181.2697, 3334.825
181.7518, 3312.926
182.2339, 3285.737
182.7160, 3257.056
183.1982, 3229.833
183.6803, 3202.368
184.1624, 3170.168
184.6445, 3132.913
185.1266, 3094.302
185.6087, 3058.439
186.0909, 3024.704
186.5730, 2991.750
187.0551, 2958.962
187.5372, 2926.417
188.0193, 2892.873
188.5014, 2858.059
188.9836, 2823.638
189.4657, 2790.488
189.9478, 2758.838
190.4299, 2728.285
190.9120, 2697.909
191.3941, 2668.407
191.8763, 2643.657
192.3584, 2624.547
192.8405, 2608.027
193.3226, 2588.956
193.8047, 2567.404
194.2868, 2546.689
194.7690, 2528.559
195.2511, 2512.895
195.7332, 2496.790
196.2153, 2480.259
196.6974, 2463.247
197.1795, 2446.239
197.6617, 2429.203
198.1438, 2411.954
198.6259, 2393.942
199.1080, 2375.254
199.5901, 2358.268
200.0722, 2343.482
200.5544, 2329.811
201.0365, 2315.886
201.5186, 2301.762
202.0007, 2286.480
202.4828, 2269.216
202.9649, 2249.788
203.4471, 2230.681
203.9292, 2211.763
204.4113, 2193.052
204.8934, 2174.216
205.3755, 2155.229
205.8576, 2136.833
206.3398, 2119.537
206.8219, 2103.487
207.3040, 2087.489
207.7861, 2071.798
208.2682, 2056.102
208.7503, 2039.848
209.2325, 2023.193
209.7146, 2006.072
210.1967, 1988.371
210.6788, 1969.940
211.1609, 1951.693
211.6430, 1933.461
212.1252, 1915.505
212.6073, 1898.692
213.0894, 1883.262
213.5715, 1868.531
214.0536, 1854.344
214.5357, 1840.828
215.0179, 1827.164
215.5000, 1813.014
215.9821, 1798.812
216.4642, 1785.636
216.9463, 1774.075
217.4284, 1762.473
217.9105, 1749.855
218.3927, 1735.854
218.8748, 1722.344
219.3569, 1708.976
219.8390, 1696.300
220.3211, 1685.397
220.8032, 1676.905
221.2854, 1668.912
221.7675, 1660.465
222.2496, 1651.462
222.7317, 1642.350
223.2138, 1632.083
223.6959, 1622.228
224.1781, 1616.420
224.6602, 1616.928
225.1423, 1617.561
225.6244, 1615.659
226.1065, 1610.026
226.5886, 1605.345
227.0708, 1601.753
227.5529, 1599.003
228.0350, 1596.555
228.5171, 1594.291
228.9992, 1592.486
229.4813, 1591.156
229.9635, 1590.095
230.4456, 1590.223
230.9277, 1591.928
231.4098, 1594.631
231.8919, 1597.298
232.3740, 1599.945
232.8562, 1602.527
233.3383, 1604.983
233.8204, 1607.176
234.3025, 1609.783
234.7846, 1613.274
235.2667, 1616.946
235.7489, 1619.227
236.2310, 1618.647
236.7131, 1619.067
237.1952, 1621.806
237.6773, 1627.114
238.1594, 1633.901
238.6416, 1643.240
239.1237, 1653.425
239.6058, 1661.497
240.0879, 1666.015
240.5700, 1670.899
241.0521, 1677.380
241.5343, 1685.604
242.0164, 1694.507
242.4985, 1704.268
242.9806, 1714.555
243.4627, 1725.030
243.9448, 1736.359
244.4270, 1746.627
244.9091, 1754.792
245.3912, 1760.105
245.8733, 1767.438
246.3554, 1777.741
246.8375, 1789.299
247.3197, 1799.928
247.8018, 1809.422
248.2839, 1818.301
248.7660, 1826.465
249.2481, 1833.776
249.7302, 1841.827
250.2124, 1850.770
250.6945, 1860.425
251.1766, 1870.927
251.6587, 1883.237
252.1408, 1894.542
252.6229, 1903.692
253.1051, 1910.518
253.5872, 1919.490
254.0693, 1932.045
254.5514, 1945.327
255.0335, 1956.246
255.5156, 1963.407
255.9978, 1971.006
256.4799, 1979.933
256.9620, 1990.197
257.4441, 2000.310
257.9262, 2010.470
258.4083, 2020.152
258.8904, 2028.352
259.3726, 2033.790
259.8547, 2041.117
260.3368, 2051.606
260.8189, 2064.991
261.3010, 2077.190
261.7831, 2087.791
262.2653, 2097.835
262.7474, 2107.985
263.2295, 2118.475
263.7116, 2128.709
264.1937, 2138.835
264.6758, 2148.694
265.1580, 2157.574
265.6401, 2164.598
266.1222, 2172.232
266.6043, 2182.802
267.0864, 2197.984
267.5685, 2210.246
268.0507, 2217.958
268.5328, 2222.531
269.0149, 2229.703
269.4970, 2240.740
269.9791, 2251.599
270.4612, 2259.717
270.9434, 2264.219
271.4255, 2269.946
271.9076, 2277.402
272.3897, 2286.172
272.8718, 2295.489
273.3539, 2305.574
273.8361, 2315.366
274.3182, 2324.207
274.8003, 2331.918
275.2824, 2339.765
275.7645, 2348.124
276.2466, 2356.098
276.7288, 2361.564
277.2109, 2364.019
277.6930, 2366.316
278.1751, 2369.659
278.6572, 2374.105
279.1393, 2379.272
279.6215, 2385.917
280.1036, 2391.916
280.5857, 2393.542
281.0678, 2390.471
281.5499, 2386.563
282.0320, 2383.430
282.5142, 2380.972
282.9963, 2377.705
283.4784, 2373.632
283.9605, 2368.793
284.4426, 2363.558
284.9247, 2357.951
285.4069, 2350.468
285.8890, 2339.781
286.3711, 2326.764
286.8532, 2315.543
287.3353, 2306.411
287.8174, 2297.344
288.2996, 2286.604
288.7817, 2274.187
289.2638, 2260.503
289.7459, 2245.822
290.2280, 2229.911
290.7101, 2210.750
291.1923, 2188.046
291.6744, 2165.699
292.1565, 2147.675
292.6386, 2133.025
293.1207, 2116.883
293.6028, 2097.693
294.0850, 2077.026
294.5671, 2056.971
295.0492, 2037.475
295.5313, 2017.913
296.0134, 1997.248
296.4955, 1976.195
296.9777, 1957.312
297.4598, 1941.616
297.9419, 1927.198
298.4240, 1911.191
298.9061, 1894.119
299.3882, 1878.285
299.8704, 1866.595
300.3525, 1856.972
300.8346, 1844.891
301.3167, 1829.663
301.7988, 1813.417
302.2809, 1796.969
302.7631, 1781.102
303.2452, 1767.557
303.7273, 1758.911
304.2094, 1752.579
304.6915, 1745.463
305.1736, 1737.325
305.6558, 1728.511
306.1379, 1718.623
306.6200, 1708.281
307.1021, 1698.700
307.5842, 1690.148
308.0663, 1682.609
308.5485, 1676.339
309.0306, 1671.292
309.5127, 1666.093
309.9948, 1659.571
310.4769, 1652.376
310.9590, 1645.388
311.4412, 1639.182
311.9233, 1632.872
312.4054, 1625.358
312.8875, 1616.912
313.3696, 1609.299
313.8517, 1604.018
314.3339, 1599.843
314.8160, 1595.658
315.2981, 1590.968
315.7802, 1586.727
316.2623, 1583.998
316.7444, 1582.219
317.2266, 1579.780
317.7087, 1574.898
318.1908, 1569.965
318.6729, 1566.701
319.1550, 1566.247
319.6371, 1565.081
320.1193, 1561.382
320.6014, 1556.295
321.0835, 1551.632
321.5656, 1547.559
322.0477, 1544.320
322.5298, 1542.059
323.0120, 1540.875
323.4941, 1540.079
323.9762, 1539.749
324.4583, 1539.632
324.9404, 1539.456
325.4225, 1539.716
325.9047, 1539.383
326.3868, 1537.793
326.8689, 1534.889
327.3510, 1532.980
327.8331, 1532.872
328.3152, 1533.474
328.7974, 1534.033
329.2795, 1534.328
329.7616, 1534.861
330.2437, 1535.819
330.7258, 1537.097
331.2079, 1538.136
331.6901, 1538.949
332.1722, 1539.486
332.6543, 1539.641
333.1364, 1538.722
333.6185, 1538.639
334.1006, 1539.631
334.5828, 1541.368
335.0649, 1543.237
335.5470, 1545.899
336.0291, 1547.490
336.5112, 1546.779
336.9933, 1542.870
337.4755, 1541.596
337.9576, 1544.337
338.4397, 1548.151
338.9218, 1548.805
339.4039, 1545.431
339.8860, 1542.068
340.3681, 1540.103
340.8503, 1539.343
341.3324, 1536.777
341.8145, 1531.517
342.2966, 1526.917
342.7787, 1526.665
343.2608, 1531.008
343.7430, 1534.797
344.2251, 1537.298
344.7072, 1538.398
345.1893, 1537.093
345.6714, 1533.177
346.1535, 1529.276
346.6357, 1527.505
347.1178, 1527.499
347.5999, 1526.976
348.0820, 1525.521
348.5641, 1523.835
349.0462, 1523.221
349.5284, 1523.511
350.0105, 1523.459
350.4926, 1521.985
350.9747, 1519.748
351.4568, 1518.479
351.9389, 1518.375
352.4211, 1518.045
352.9032, 1514.988
353.3853, 1510.546
353.8674, 1507.986
354.3495, 1509.966
354.8316, 1513.642
355.3138, 1516.282
355.7959, 1517.857
356.2780, 1517.963
356.7601, 1514.964
357.2422, 1510.785
357.7243, 1507.895
358.2065, 1507.350
358.6886, 1507.712
359.1707, 1508.762
359.6528, 1510.064
360.1349, 1510.307
360.6170, 1508.088
361.0992, 1505.048
361.5813, 1502.000
362.0634, 1498.646
362.5455, 1496.778
363.0276, 1498.164
363.5097, 1501.254
363.9919, 1503.754
364.4740, 1505.002
364.9561, 1505.498
365.4382, 1505.173
365.9203, 1503.947
366.4024, 1502.960
366.8846, 1501.803
367.3667, 1501.300
367.8488, 1502.123
368.3309, 1506.674
368.8130, 1509.959
369.2951, 1510.394
369.7773, 1508.571
370.2594, 1508.564
370.7415, 1512.725
371.2236, 1516.564
371.7057, 1517.957
372.1878, 1515.100
372.6700, 1513.269
373.1521, 1512.645
373.6342, 1512.978
374.1163, 1513.856
374.5984, 1515.411
375.0805, 1517.210
375.5627, 1519.039
376.0448, 1520.846
376.5269, 1523.457
377.0090, 1527.252
377.4911, 1531.188
377.9732, 1533.778
378.4554, 1534.571
378.9375, 1537.041
379.4196, 1542.928
379.9017, 1550.632
380.3838, 1553.963
380.8659, 1552.455
381.3481, 1550.066
381.8302, 1548.928
382.3123, 1549.169
382.7944, 1552.287
383.2765, 1559.317
383.7586, 1567.130
384.2408, 1570.340
384.7229, 1569.658
385.2050, 1569.609
385.6871, 1572.749
386.1692, 1577.988
386.6513, 1583.705
387.1335, 1589.841
387.6156, 1595.778
388.0977, 1600.543
388.5798, 1604.660
389.0619, 1609.191
389.5440, 1614.800
390.0262, 1620.572
390.5083, 1625.863
390.9904, 1630.703
391.4725, 1635.057
391.9546, 1638.328
392.4367, 1641.395
392.9189, 1645.135
393.4010, 1649.958
393.8831, 1654.777
394.3652, 1658.760
394.8473, 1662.392
395.3294, 1666.504
395.8116, 1671.961
396.2937, 1677.412
396.7758, 1682.245
397.2579, 1686.365
397.7400, 1690.543
398.2221, 1695.509
398.7043, 1700.251
399.1864, 1703.928
399.6685, 1705.459
400.1506, 1707.066
400.6327, 1709.050
401.1148, 1711.300
401.5970, 1713.357
402.0791, 1715.469
402.5612, 1717.066
403.0433, 1717.695
403.5254, 1716.557
404.0075, 1716.980
404.4897, 1720.250
404.9718, 1724.030
405.4539, 1724.431
405.9360, 1720.424
406.4181, 1716.358
406.9002, 1713.440
407.3824, 1711.573
407.8645, 1709.517
408.3466, 1707.216
408.8287, 1704.894
409.3108, 1702.873
409.7929, 1701.107
410.2751, 1698.798
410.7572, 1695.684
411.2393, 1692.084
411.7214, 1688.677
412.2035, 1685.397
412.6856, 1681.910
413.1678, 1678.209
413.6499, 1674.127
414.1320, 1669.008
414.6141, 1662.688
415.0962, 1656.566
415.5783, 1651.745
416.0605, 1648.067
416.5426, 1645.145
417.0247, 1643.350
417.5068, 1641.836
417.9889, 1640.176
418.4710, 1638.278
418.9532, 1635.627
419.4353, 1630.633
419.9174, 1625.536
420.3995, 1622.222
420.8816, 1621.314
421.3637, 1621.256
421.8459, 1621.897
422.3280, 1622.857
422.8101, 1623.577
423.2922, 1624.026
423.7743, 1624.052
424.2564, 1623.306
424.7386, 1621.701
425.2207, 1620.759
425.7028, 1621.474
426.1849, 1622.373
426.6670, 1622.511
427.1491, 1621.596
427.6313, 1620.427
428.1134, 1618.605
428.5955, 1616.692
429.0776, 1616.243
429.5597, 1617.759
430.0418, 1619.822
430.5240, 1622.002
431.0061, 1624.313
431.4882, 1626.502
431.9703, 1628.502
432.4524, 1630.480
432.9345, 1632.735
433.4167, 1635.264
433.8988, 1637.252
434.3809, 1637.971
434.8630, 1638.424
435.3451, 1641.697
435.8272, 1647.682
436.3094, 1653.326
436.7915, 1656.219
437.2736, 1657.294
437.7557, 1658.579
438.2378, 1660.187
438.7199, 1662.489
439.2020, 1666.435
439.6841, 1671.337
440.1663, 1675.783
440.6484, 1679.724
441.1305, 1682.590
441.6126, 1683.115
442.0947, 1681.718
442.5768, 1680.962
443.0590, 1683.727
443.5411, 1686.744
444.0232, 1687.223
444.5053, 1683.407
444.9874, 1679.719
445.4695, 1676.933
445.9517, 1675.317
446.4338, 1675.282
446.9159, 1677.998
447.3980, 1681.228
447.8801, 1684.778
448.3622, 1688.744
448.8444, 1691.292
449.3265, 1691.146
449.8086, 1690.719
450.2907, 1691.581
450.7728, 1694.196
451.2549, 1697.167
451.7371, 1700.523
452.2192, 1704.140
452.7013, 1707.630
453.1834, 1710.829
453.6655, 1714.416
454.1476, 1718.267
454.6298, 1722.505
455.1119, 1729.545
455.5940, 1739.815
456.0761, 1750.250
456.5582, 1756.735
457.0403, 1760.237
457.5225, 1765.992
458.0046, 1775.179
458.4867, 1786.566
458.9688, 1798.847
459.4509, 1811.851
459.9330, 1824.387
460.4152, 1835.093
460.8973, 1845.521
461.3794, 1857.447
461.8615, 1871.139
462.3436, 1885.491
462.8257, 1899.887
463.3079, 1914.684
463.7900, 1930.326
464.2721, 1947.946
464.7542, 1965.465
465.2363, 1981.583
465.7184, 1996.930
466.2006, 2013.282
466.6827, 2030.698
467.1648, 2049.559
467.6469, 2070.286
468.1290, 2093.588
468.6111, 2115.940
469.0933, 2136.329
469.5754, 2156.556
470.0575, 2178.492
470.5396, 2202.433
471.0217, 2227.452
471.5038, 2253.941
471.9860, 2281.493
472.4681, 2309.470
472.9502, 2338.417
473.4323, 2366.050
473.9144, 2390.002
474.3965, 2410.561
474.8787, 2434.134
475.3608, 2460.996
475.8429, 2489.067
476.3250, 2516.008
476.8071, 2541.886
477.2892, 2567.439
477.7714, 2593.283
478.2535, 2617.759
478.7356, 2637.670
479.2177, 2653.778
479.6998, 2668.901
480.1819, 2686.282
480.6641, 2702.906
481.1462, 2715.267
481.6283, 2723.074
482.1104, 2728.731
482.5925, 2734.777
483.0746, 2738.962
483.5568, 2738.956
484.0389, 2730.537
484.5210, 2721.783
485.0031, 2714.874
485.4852, 2709.374
485.9673, 2703.675
486.4495, 2697.078
486.9316, 2690.717
487.4137, 2684.571
487.8958, 2678.151
488.3779, 2674.180
488.8600, 2672.840
489.3422, 2673.615
489.8243, 2675.600
490.3064, 2677.729
490.7885, 2684.700
491.2706, 2697.809
491.7527, 2715.495
492.2349, 2734.113
492.7170, 2753.329
493.1991, 2775.552
493.6812, 2801.813
494.1633, 2831.805
494.6454, 2865.238
495.1276, 2901.895
495.6097, 2941.313
496.0918, 2982.243
496.5739, 3025.661
497.0560, 3071.709
497.5381, 3121.018
498.0203, 3173.448
498.5024, 3231.849
498.9845, 3293.545
499.4666, 3354.151
499.9487, 3409.926
500.4308, 3464.744
500.9130, 3521.453
501.3951, 3579.914
501.8772, 3636.545
502.3593, 3691.339
502.8414, 3742.499
503.3235, 3789.478
503.8057, 3832.953
504.2878, 3870.371
504.7699, 3901.280
505.2520, 3926.335
505.7341, 3946.884
506.2162, 3964.345
506.6984, 3974.356
507.1805, 3975.713
507.6626, 3968.469
508.1447, 3953.271
508.6268, 3929.907
509.1089, 3899.226
509.5911, 3860.332
510.0732, 3813.750
510.5553, 3765.906
511.0374, 3717.842
511.5195, 3666.552
512.0016, 3607.022
512.4838, 3540.602
512.9659, 3473.397
513.4480, 3406.830
513.9301, 3339.567
514.4122, 3268.881
514.8943, 3195.584
515.3765, 3123.061
515.8586, 3051.992
516.3407, 2982.964
516.8228, 2917.425
517.3049, 2855.437
517.7870, 2794.892
518.2692, 2734.240
518.7513, 2675.618
519.2334, 2621.346
519.7155, 2575.411
520.1976, 2529.309
520.6797, 2482.026
521.1619, 2434.169
521.6440, 2387.415
522.1261, 2340.600
522.6082, 2297.899
523.0903, 2261.522
523.5724, 2231.587
524.0546, 2202.063
524.5367, 2173.009
525.0188, 2144.858
525.5009, 2118.053
525.9830, 2092.372
526.4651, 2066.264
526.9473, 2038.806
527.4294, 2012.161
527.9115, 1990.427
528.3936, 1972.615
528.8757, 1955.032
529.3578, 1935.947
529.8400, 1916.507
530.3221, 1897.483
530.8042, 1879.125
531.2863, 1861.965
531.7684, 1846.598
532.2505, 1832.508
532.7327, 1819.589
533.2148, 1808.030
533.6969, 1796.973
534.1790, 1786.543
534.6611, 1776.437
535.1432, 1766.494
535.6254, 1754.815
536.1075, 1745.646
536.5896, 1740.662
537.0717, 1738.501
537.5538, 1734.452
538.0359, 1727.404
538.5181, 1721.060
539.0002, 1717.194
539.4823, 1715.773
539.9644, 1713.317
540.4465, 1709.453
540.9286, 1706.449
541.4108, 1707.001
541.8929, 1710.383
542.3750, 1713.401
542.8571, 1715.414
543.3392, 1717.133
543.8214, 1719.126
544.3035, 1721.479
544.7856, 1724.471
545.2677, 1728.993
545.7498, 1733.578
546.2319, 1736.944
546.7141, 1739.275
547.1962, 1741.747
547.6783, 1743.754
548.1604, 1746.843
548.6425, 1752.266
549.1246, 1761.153
549.6068, 1769.244
550.0889, 1775.727
550.5710, 1781.547
551.0531, 1787.637
551.5352, 1794.634
552.0173, 1800.345
552.4995, 1803.508
552.9816, 1805.839
553.4637, 1812.339
553.9458, 1823.758
554.4279, 1834.119
554.9100, 1840.263
555.3922, 1843.403
555.8743, 1848.275
556.3564, 1854.847
556.8385, 1862.138
557.3206, 1870.283
557.8027, 1878.332
558.2849, 1884.584
558.7670, 1888.525
559.2491, 1891.944
559.7312, 1896.474
560.2133, 1901.218
560.6954, 1904.938
561.1776, 1907.264
561.6597, 1908.375
562.1418, 1908.231
562.6239, 1906.876
563.1060, 1904.512
563.5881, 1901.057
564.0703, 1896.663
564.5524, 1891.518
565.0345, 1885.763
565.5166, 1877.837
565.9987, 1866.795
566.4808, 1855.173
566.9630, 1845.024
567.4451, 1836.584
567.9272, 1826.817
568.4093, 1815.015
568.8914, 1802.903
569.3735, 1793.201
569.8557, 1785.436
570.3378, 1776.796
570.8199, 1766.017
571.3020, 1754.318
571.7841, 1743.144
572.2662, 1732.472
572.7484, 1722.275
573.2305, 1711.702
573.7126, 1702.114
574.1947, 1694.765
574.6768, 1689.924
575.1589, 1684.801
575.6411, 1677.863
576.1232, 1670.836
576.6053, 1665.079
577.0874, 1662.149
577.5695, 1657.993
578.0516, 1651.694
578.5338, 1644.804
579.0159, 1639.591
579.4980, 1636.582
579.9801, 1633.619
580.4622, 1630.056
580.9443, 1626.332
581.4265, 1624.489
581.9086, 1624.525
582.3907, 1623.563
582.8728, 1618.852
583.3549, 1612.256
583.8370, 1607.612
584.3192, 1604.980
584.8013, 1603.152
585.2834, 1601.110
585.7655, 1599.418
586.2476, 1598.902
586.7297, 1600.254
587.2118, 1601.246
587.6939, 1601.078
588.1760, 1599.956
588.6581, 1598.141
589.1403, 1594.071
589.6224, 1591.236
590.1045, 1591.021
590.5866, 1592.372
591.0687, 1591.533
591.5508, 1587.244
592.0330, 1583.655
592.5151, 1582.709
592.9972, 1584.103
593.4793, 1584.104
593.9614, 1582.572
594.4435, 1580.784
594.9257, 1579.766
595.4078, 1579.335
595.8899, 1579.094
596.3720, 1579.139
596.8541, 1578.557
597.3362, 1575.143
597.8184, 1570.903
598.3005, 1568.951
598.7826, 1571.865
599.2647, 1575.228
599.7468, 1577.388
600.2289, 1578.498
600.7111, 1578.892
601.1932, 1577.827
601.6753, 1576.852
602.1574, 1576.150
602.6395, 1575.747
603.1216, 1576.433
603.6038, 1578.994
604.0859, 1581.139
604.5680, 1581.371
605.0501, 1579.502
605.5322, 1578.542
606.0143, 1578.606
606.4965, 1578.971
606.9786, 1578.924
607.4607, 1578.567
607.9428, 1578.273
608.4249, 1578.194
608.9070, 1578.015
609.3892, 1577.133
609.8713, 1575.973
610.3534, 1575.287
610.8355, 1576.434
611.3176, 1577.141
611.7997, 1575.819
612.2819, 1573.078
612.7640, 1571.184
613.2461, 1571.594
613.7282, 1571.932
614.2103, 1571.022
614.6924, 1568.724
615.1746, 1568.437
615.6567, 1571.170
616.1388, 1573.975
616.6209, 1574.562
617.1030, 1572.834
617.5851, 1572.274
618.0673, 1573.332
618.5494, 1574.347
619.0315, 1572.827
619.5136, 1569.650
619.9957, 1567.208
620.4778, 1565.932
620.9600, 1565.950
621.4421, 1568.393
621.9242, 1572.143
622.4063, 1574.888
622.8884, 1574.617
623.3705, 1574.249
623.8527, 1575.038
624.3348, 1576.819
624.8169, 1578.366
625.2990, 1579.837
625.7811, 1580.664
626.2632, 1580.380
626.7454, 1578.843
627.2275, 1578.038
627.7096, 1577.879
628.1917, 1578.688
628.6738, 1581.819
629.1559, 1586.861
629.6381, 1588.164
630.1202, 1584.633
630.6023, 1580.580
631.0844, 1581.173
631.5665, 1584.825
632.0486, 1588.180
632.5308, 1589.891
633.0129, 1591.636
633.4950, 1596.293
633.9771, 1601.595
634.4592, 1603.292
634.9413, 1594.957
635.4235, 1588.100
635.9056, 1587.471
636.3877, 1591.964
636.8698, 1593.807
637.3519, 1591.439
637.8340, 1588.842
638.3162, 1587.624
638.7983, 1587.735
639.2804, 1587.271
639.7625, 1585.853
640.2446, 1585.916
640.7267, 1591.682
641.2089, 1600.708
641.6910, 1604.069
642.1731, 1600.477
642.6552, 1595.149
643.1373, 1591.727
643.6194, 1589.934
644.1016, 1589.644
644.5837, 1592.128
645.0658, 1593.876
645.5479, 1592.298
646.0300, 1589.303
646.5121, 1588.007
646.9943, 1590.880
647.4764, 1593.050
647.9585, 1593.728
648.4406, 1593.235
648.9227, 1592.473
649.4048, 1591.057
649.8870, 1590.746
650.3691, 1592.699
650.8512, 1596.244
651.3333, 1598.823
651.8154, 1600.403
652.2975, 1600.983
652.7797, 1599.602
653.2618, 1597.617
653.7439, 1597.201
654.2260, 1598.577
654.7081, 1599.981
655.1902, 1599.854
655.6724, 1599.585
656.1545, 1600.495
656.6366, 1603.838
657.1187, 1606.375
657.6008, 1607.158
658.0829, 1607.232
658.5651, 1607.769
659.0472, 1609.348
659.5293, 1609.667
660.0114, 1607.889
660.4935, 1605.338
660.9756, 1604.873
661.4578, 1606.396
661.9399, 1607.998
662.4220, 1608.932
662.9041, 1609.603
663.3862, 1610.331
663.8683, 1611.270
664.3505, 1613.044
664.8326, 1617.904
665.3147, 1622.156
665.7968, 1622.365
666.2789, 1618.657
666.7610, 1616.538
667.2432, 1619.012
667.7253, 1621.963
668.2074, 1622.759
668.6895, 1620.081
669.1716, 1622.334
669.6537, 1631.347
670.1359, 1641.759
670.6180, 1649.524
671.1001, 1654.596
671.5822, 1657.295
672.0643, 1657.432
672.5464, 1656.186
673.0286, 1654.083
673.5107, 1651.752
673.9928, 1650.404
674.4749, 1650.161
674.9570, 1651.417
675.4391, 1655.857
675.9213, 1661.679
676.4034, 1665.910
676.8855, 1666.842
677.3676, 1666.967
677.8497, 1666.412
678.3318, 1665.471
678.8140, 1664.861
679.2961, 1664.429
679.7782, 1664.706
680.2603, 1665.945
680.7424, 1668.016
681.2245, 1670.769
681.7067, 1674.229
682.1888, 1677.111
682.6709, 1677.855
683.1530, 1677.816
683.6351, 1679.654
684.1172, 1683.319
684.5994, 1686.654
685.0815, 1688.213
685.5636, 1688.941
686.0457, 1689.623
686.5278, 1690.534
687.0099, 1690.705
687.4921, 1688.309
687.9742, 1686.313
688.4563, 1687.154
688.9384, 1692.364
689.4205, 1695.526
689.9026, 1695.961
690.3848, 1695.145
690.8669, 1694.481
691.3490, 1694.089
691.8311, 1695.479
692.3132, 1699.624
692.7953, 1703.938
693.2775, 1704.927
693.7596, 1703.835
694.2417, 1703.215
694.7238, 1704.197
695.2059, 1705.763
695.6880, 1708.492
696.1702, 1711.514
696.6523, 1712.479
697.1344, 1708.780
697.6165, 1705.842
698.0986, 1705.098
698.5807, 1706.124
699.0629, 1706.352
699.5450, 1705.484
700.0271, 1705.275
700.5092, 1707.305
700.9913, 1710.580
701.4734, 1711.304
701.9556, 1709.649
702.4377, 1707.992
702.9198, 1707.703
703.4019, 1708.465
703.8840, 1710.470
704.3661, 1713.805
704.8483, 1716.068
705.3304, 1715.292
705.8125, 1713.886
706.2946, 1713.541
706.7767, 1714.879
707.2589, 1715.689
707.7410, 1715.934
708.2231, 1715.708
708.7052, 1714.729
709.1873, 1712.950
709.6694, 1712.640
710.1516, 1714.325
710.6337, 1716.318
711.1158, 1716.039
711.5979, 1714.551
712.0800, 1714.282
712.5621, 1716.290
713.0443, 1718.722
713.5264, 1720.525
714.0085, 1721.916
714.4906, 1723.255
714.9727, 1725.266
715.4548, 1726.393
715.9370, 1725.934
716.4191, 1724.646
716.9012, 1724.163
717.3833, 1724.639
717.8654, 1725.471
718.3475, 1726.713
718.8297, 1728.023
719.3118, 1728.346
719.7939, 1727.810
720.2760, 1727.319
720.7581, 1727.341
721.2402, 1727.638
721.7224, 1727.909
722.2045, 1728.202
722.6866, 1728.766
723.1687, 1730.405
723.6508, 1731.680
724.1329, 1731.476
724.6151, 1729.755
725.0972, 1729.405
725.5793, 1731.085
726.0614, 1733.036
726.5435, 1734.451
727.0256, 1735.341
727.5078, 1735.783
727.9899, 1735.724
728.4720, 1736.070
728.9541, 1738.406
729.4362, 1741.377
729.9183, 1741.875
730.4005, 1739.485
730.8826, 1738.102
731.3647, 1741.127
731.8468, 1745.522
732.3289, 1748.955
732.8110, 1751.214
733.2932, 1751.969
733.7753, 1749.672
734.2574, 1747.399
734.7395, 1748.050
735.2216, 1752.260
735.7037, 1755.614
736.1859, 1757.784
736.6680, 1759.308
737.1501, 1760.881
737.6322, 1762.043
738.1143, 1763.376
738.5964, 1763.531
739.0786, 1763.737
739.5607, 1763.673
740.0428, 1764.457
740.5249, 1767.613
741.0070, 1778.559
741.4891, 1785.781
741.9713, 1783.951
742.4534, 1778.547
742.9355, 1777.735
743.4176, 1783.283
743.8997, 1787.830
744.3818, 1789.848
744.8640, 1790.323
745.3461, 1791.001
745.8282, 1791.874
746.3103, 1792.868
746.7924, 1793.754
747.2745, 1794.986
747.7567, 1797.553
748.2388, 1800.857
748.7209, 1803.363
749.2030, 1804.203
749.6851, 1804.500
750.1672, 1803.945
750.6494, 1803.088
751.1315, 1804.023
751.6136, 1807.400
752.0957, 1811.238
752.5778, 1815.565
753.0599, 1819.669
753.5421, 1819.866
754.0242, 1816.434
754.5063, 1814.122
754.9884, 1816.406
755.4705, 1820.875
755.9526, 1825.104
756.4348, 1828.962
756.9169, 1831.779
757.3990, 1831.494
757.8811, 1831.656
758.3632, 1834.460
758.8453, 1839.975
759.3275, 1844.463
759.8096, 1847.544
760.2917, 1850.178
760.7738, 1853.058
761.2559, 1855.984
761.7380, 1856.806
762.2202, 1855.441
762.7023, 1854.888
763.1844, 1858.097
763.6665, 1863.125
764.1486, 1867.284
764.6307, 1870.426
765.1129, 1873.281
765.5950, 1877.149
766.0771, 1880.139
766.5592, 1880.432
767.0413, 1876.903
767.5234, 1876.029
768.0056, 1879.094
768.4877, 1882.821
768.9698, 1885.131
769.4519, 1886.056
769.9340, 1886.198
770.4161, 1885.466
770.8983, 1885.139
771.3804, 1886.653
771.8625, 1889.209
772.3446, 1892.152
772.8267, 1895.585
773.3088, 1897.020
773.7910, 1892.382
774.2731, 1887.125
774.7552, 1885.811
775.2373, 1890.960
775.7194, 1894.013
776.2015, 1894.608
776.6837, 1893.600
777.1658, 1891.045
777.6479, 1887.011
778.1300, 1884.792
778.6121, 1884.774
779.0942, 1885.421
779.5764, 1885.196
780.0585, 1884.627
780.5406, 1884.795
781.0227, 1886.346
781.5048, 1886.755
781.9869, 1883.475
782.4691, 1879.337
782.9512, 1876.969
783.4332, 1877.204
783.9153, 1877.828
784.3975, 1879.385
784.8796, 1880.404
785.3617, 1878.603
785.8438, 1874.304
786.3259, 1871.587
786.8080, 1871.134
787.2902, 1871.295
787.7723, 1870.636
788.2544, 1869.370
788.7365, 1867.690
789.2186, 1865.264
789.7007, 1863.423
790.1829, 1863.092
790.6650, 1863.340
791.1471, 1863.275
791.6292, 1863.244
792.1113, 1862.015
792.5934, 1859.283
793.0756, 1855.843
793.5577, 1852.463
794.0398, 1849.179
794.5219, 1846.337
795.0040, 1844.208
795.4861, 1841.440
795.9683, 1835.297
796.4504, 1828.236
796.9325, 1823.718
797.4146, 1825.274
797.8967, 1824.326
798.3788, 1816.154
798.8610, 1805.943
799.3431, 1799.016
799.8252, 1796.019
800.3073, 1793.858
800.7894, 1792.627
801.2715, 1791.270
801.7537, 1788.419
802.2358, 1784.246
802.7179, 1778.899
803.2000, 1771.847
803.6821, 1765.982
804.1642, 1765.210
804.6464, 1766.178
805.1285, 1764.758
805.6106, 1757.471
806.0927, 1752.178
806.5748, 1751.398
807.0569, 1751.277
807.5391, 1746.748
808.0212, 1736.745
808.5033, 1731.602
808.9854, 1733.281
809.4675, 1736.820
809.9496, 1735.944
810.4318, 1732.300
810.9139, 1729.612
811.3960, 1729.085
811.8781, 1728.225
812.3602, 1725.717
812.8423, 1722.055
813.3245, 1717.690
813.8066, 1710.336
814.2887, 1706.427
814.7708, 1707.262
815.2529, 1709.750
815.7350, 1710.681
816.2172, 1710.101
816.6993, 1708.850
817.1814, 1706.877
817.6635, 1705.203
818.1456, 1705.627
818.6277, 1706.757
819.1099, 1706.294
819.5920, 1702.756
820.0741, 1700.853
820.5562, 1704.740
821.0383, 1709.290
821.5204, 1709.899
822.0026, 1704.575
822.4847, 1700.871
822.9668, 1698.868
823.4489, 1698.482
823.9310, 1700.707
824.4131, 1704.536
824.8953, 1706.186
825.3774, 1704.976
825.8595, 1703.505
826.3416, 1703.716
826.8237, 1704.646
827.3058, 1705.479
827.7880, 1706.178
828.2701, 1706.413
828.7522, 1706.034
829.2343, 1705.386
829.7164, 1704.722
830.1985, 1704.089
830.6807, 1703.272
831.1628, 1702.250
831.6449, 1701.503
832.1270, 1701.512
832.6091, 1702.098
833.0912, 1703.488
833.5734, 1705.768
834.0555, 1706.511
834.5376, 1701.429
835.0197, 1696.761
835.5018, 1697.657
835.9839, 1705.435
836.4661, 1709.205
836.9482, 1707.672
837.4303, 1705.214
837.9124, 1704.511
838.3945, 1705.349
838.8766, 1707.109
839.3588, 1709.738
839.8409, 1711.880
840.3230, 1712.183
840.8051, 1711.874
841.2872, 1711.875
841.7693, 1712.274
842.2515, 1713.094
842.7336, 1715.244
843.2157, 1716.816
843.6978, 1716.969
844.1799, 1715.803
844.6620, 1714.356
845.1442, 1712.522
845.6263, 1711.958
846.1084, 1715.052
846.5905, 1719.296
847.0726, 1720.252
847.5547, 1718.538
848.0369, 1717.223
848.5190, 1718.034
849.0011, 1719.300
849.4832, 1720.534
849.9653, 1721.648
850.4474, 1722.240
850.9296, 1722.313
851.4117, 1721.825
851.8938, 1720.276
852.3759, 1718.590
852.8580, 1720.032
853.3401, 1723.820
853.8223, 1726.320
854.3044, 1724.503
854.7865, 1722.057
855.2686, 1721.707
855.7507, 1722.664
856.2328, 1722.940
856.7150, 1720.161
857.1971, 1719.757
857.6792, 1723.690
858.1613, 1729.472
858.6434, 1731.182
859.1255, 1728.988
859.6077, 1728.596
860.0898, 1732.200
860.5719, 1736.652
861.0540, 1738.223
861.5361, 1738.086
862.0182, 1738.264
862.5004, 1740.057
862.9825, 1741.169
863.4646, 1740.447
863.9467, 1739.075
864.4288, 1738.250
864.9109, 1738.033
865.3931, 1737.890
865.8752, 1737.623
866.3573, 1737.991
866.8394, 1741.194
867.3215, 1745.493
867.8036, 1746.604
868.2858, 1743.013
868.7679, 1740.350
869.2500, 1743.432
869.7321, 1747.610
870.2142, 1748.478
870.6964, 1744.520
871.1785, 1742.181
871.6606, 1741.685
872.1427, 1742.302
872.6248, 1744.242
873.1069, 1746.885
873.5891, 1746.783
874.0712, 1743.878
874.5533, 1742.201
875.0354, 1745.771
875.5175, 1750.927
875.9996, 1755.124
876.4818, 1758.110
876.9639, 1760.076
877.4460, 1760.721
877.9281, 1760.904
878.4102, 1761.058
878.8923, 1761.054
879.3745, 1759.588
879.8566, 1756.787
880.3387, 1754.969
880.8208, 1756.831
881.3029, 1759.326
881.7850, 1758.682
882.2672, 1755.915
882.7493, 1754.511
883.2314, 1756.710
883.7135, 1759.050
884.1956, 1760.671
884.6777, 1761.944
885.1599, 1764.091
885.6420, 1767.235
886.1241, 1769.232
886.6062, 1768.858
887.0883, 1768.244
887.5704, 1771.188
888.0526, 1775.866
888.5347, 1778.768
889.0168, 1776.541
889.4989, 1775.567
889.9810, 1779.878
890.4631, 1785.166
890.9453, 1786.043
891.4274, 1780.755
891.9095, 1779.043
892.3916, 1782.194
892.8737, 1787.073
893.3558, 1790.543
893.8380, 1792.959
894.3201, 1795.082
894.8022, 1797.103
895.2843, 1798.640
895.7664, 1799.334
896.2485, 1799.649
896.7307, 1799.707
897.2128, 1799.277
897.6949, 1800.514
898.1770, 1804.037
898.6591, 1807.213
899.1412, 1807.041
899.6234, 1805.303
900.1055, 1808.096
900.5876, 1814.889
901.0697, 1821.202
901.5518, 1825.122
902.0339, 1826.859
902.5161, 1824.954
902.9982, 1820.196
903.4803, 1818.838
903.9624, 1822.165
904.4445, 1825.995
904.9266, 1829.022
905.4088, 1831.734
905.8909, 1835.875
906.3730, 1840.917
906.8551, 1844.650
907.3372, 1845.829
907.8193, 1845.957
908.3015, 1844.379
908.7836, 1842.862
909.2657, 1844.689
909.7478, 1853.747
910.2299, 1859.239
910.7120, 1859.322
911.1942, 1857.496
911.6763, 1858.552
912.1584, 1861.852
912.6405, 1863.949
913.1226, 1864.229
913.6047, 1864.057
914.0869, 1864.445
914.5690, 1864.964
915.0511, 1865.082
915.5332, 1864.433
916.0153, 1864.753
916.4974, 1866.412
916.9796, 1868.498
917.4617, 1870.811
917.9438, 1873.172
918.4259, 1873.619
918.9080, 1872.365
919.3901, 1872.270
919.8723, 1877.632
920.3544, 1882.857
920.8365, 1882.584
921.3186, 1877.812
921.8007, 1874.896
922.2828, 1875.959
922.7650, 1876.719
923.2471, 1875.674
923.7292, 1874.121
924.2113, 1876.488
924.6934, 1881.934
925.1755, 1884.292
925.6577, 1879.904
926.1398, 1875.079
926.6219, 1875.846
927.1040, 1879.395
927.5861, 1881.783
928.0682, 1881.300
928.5504, 1880.741
929.0325, 1879.783
929.5146, 1879.240
929.9967, 1880.472
930.4788, 1883.114
930.9609, 1883.936
931.4431, 1882.579
931.9252, 1881.903
932.4073, 1885.585
932.8894, 1889.950
933.3715, 1891.607
933.8536, 1890.026
934.3358, 1888.847
934.8179, 1888.351
935.3000, 1888.329
935.7821, 1888.839
936.2642, 1889.729
936.7463, 1890.333
937.2285, 1890.698
937.7106, 1891.105
938.1927, 1892.062
938.6748, 1892.758
939.1569, 1892.382
939.6390, 1891.299
940.1212, 1890.331
940.6033, 1889.399
941.0854, 1888.986
941.5675, 1889.584
942.0496, 1890.014
942.5317, 1887.680
943.0139, 1883.390
943.4960, 1881.136
943.9781, 1881.707
944.4602, 1883.567
944.9423, 1887.033
945.4244, 1890.280
945.9066, 1891.216
946.3887, 1888.306
946.8708, 1888.527
947.3529, 1893.044
947.8350, 1898.048
948.3171, 1901.118
948.7993, 1902.762
949.2814, 1905.310
949.7635, 1908.508
950.2456, 1910.660
950.7277, 1908.672
951.2098, 1907.364
951.6920, 1910.253
952.1741, 1916.245
952.6562, 1920.976
953.1383, 1924.203
953.6204, 1926.464
954.1025, 1927.498
954.5847, 1928.297
955.0668, 1931.169
955.5489, 1935.144
956.0310, 1937.375
956.5131, 1936.312
956.9952, 1935.936
957.4774, 1938.963
957.9595, 1943.197
958.4416, 1946.772
958.9237, 1949.652
959.4058, 1951.699
959.8879, 1952.655
960.3701, 1953.911
960.8522, 1957.091
961.3343, 1961.130
961.8164, 1963.231
962.2985, 1963.807
962.7806, 1965.692
963.2628, 1971.795
963.7449, 1977.697
964.2270, 1980.955
964.7091, 1982.811
965.1912, 1987.833
965.6733, 1996.661
966.1555, 2001.745
966.6376, 2000.211
967.1197, 1996.418
967.6018, 1994.414
968.0839, 1994.734
968.5660, 1998.773
969.0482, 2009.673
969.5303, 2018.072
970.0124, 2021.210
970.4945, 2022.380
970.9766, 2023.724
971.4587, 2025.236
971.9409, 2026.368
972.4230, 2027.051
972.9051, 2029.350
973.3872, 2036.964
973.8693, 2045.309
974.3514, 2049.287
974.8336, 2049.348
975.3157, 2050.093
975.7978, 2052.171
976.2799, 2055.280
976.7620, 2059.643
977.2441, 2064.722
977.7263, 2069.873
978.2084, 2074.827
978.6905, 2077.684
979.1726, 2077.423
979.6547, 2076.311
980.1368, 2075.147
980.6190, 2074.567
981.1010, 2075.632
981.5831, 2080.027
982.0652, 2081.022
982.5474, 2077.350
983.0295, 2073.784
983.5116, 2075.387
983.9937, 2079.829
984.4758, 2079.538
984.9579, 2075.088
985.4401, 2072.051
985.9222, 2075.369
986.4043, 2078.784
986.8864, 2079.013
987.3685, 2076.982
987.8506, 2075.018
988.3328, 2072.931
988.8149, 2072.402
989.2970, 2074.212
989.7791, 2076.738
990.2612, 2078.259
990.7433, 2078.825
991.2255, 2078.416
991.7076, 2076.747
992.1897, 2074.947
992.6718, 2072.811
993.1539, 2071.149
993.6360, 2070.709
994.1182, 2071.454
994.6003, 2071.488
995.0824, 2070.795
995.5645, 2069.474
996.0466, 2066.773
996.5287, 2064.124
997.0109, 2062.976
997.4930, 2062.981
997.9751, 2062.745
998.4572, 2061.830
998.9393, 2061.364
999.4214, 2062.079
999.9036, 2062.457
1000.386, 2058.764
1000.868, 2052.598
1001.350, 2049.671
1001.832, 2051.698
1002.314, 2053.558
1002.796, 2051.052
1003.278, 2047.958
1003.760, 2047.557
1004.243, 2050.131
1004.725, 2050.842
1005.207, 2049.413
1005.689, 2047.598
1006.171, 2045.941
1006.653, 2044.754
1007.135, 2045.051
1007.617, 2046.186
1008.100, 2046.484
1008.582, 2044.116
1009.064, 2042.375
1009.546, 2041.981
1010.028, 2042.378
1010.510, 2043.107
1010.992, 2044.125
1011.474, 2044.401
1011.956, 2043.803
1012.439, 2043.020
1012.921, 2043.150
1013.403, 2043.056
1013.885, 2041.119
1014.367, 2037.199
1014.849, 2035.845
1015.331, 2038.364
1015.813, 2040.565
1016.296, 2040.481
1016.778, 2039.469
1017.260, 2041.111
1017.742, 2044.498
1018.224, 2046.964
1018.706, 2046.716
1019.188, 2046.706
1019.670, 2049.708
1020.152, 2052.354
1020.635, 2050.331
1021.117, 2041.886
1021.599, 2040.456
1022.081, 2046.781
1022.563, 2053.914
1023.045, 2057.187
1023.527, 2057.581
1024.009, 2054.698
1024.492, 2049.426
1024.974, 2046.743
1025.456, 2050.686
1025.938, 2052.983
1026.420, 2051.474
1026.902, 2048.122
1027.384, 2046.316
1027.866, 2045.959
1028.349, 2047.034
1028.831, 2050.103
1029.313, 2052.074
1029.795, 2049.767
1030.277, 2046.474
1030.759, 2044.953
1031.241, 2045.386
1031.723, 2045.724
1032.205, 2045.897
1032.688, 2046.465
1033.170, 2048.218
1033.652, 2050.158
1034.134, 2050.058
1034.616, 2048.935
1035.098, 2049.330
1035.580, 2054.928
1036.062, 2058.003
1036.544, 2056.641
1037.027, 2053.622
1037.509, 2052.222
1037.991, 2052.213
1038.473, 2052.068
1038.955, 2051.637
1039.437, 2051.628
1039.919, 2052.577
1040.401, 2054.089
1040.884, 2056.679
1041.366, 2059.896
1041.848, 2060.260
1042.330, 2056.981
1042.812, 2054.520
1043.294, 2054.413
1043.776, 2055.333
1044.258, 2055.815
1044.740, 2055.780
1045.223, 2054.841
1045.705, 2052.044
1046.187, 2050.911
1046.669, 2053.202
1047.151, 2055.853
1047.633, 2056.706
1048.115, 2056.070
1048.597, 2056.726
1049.079, 2058.458
1049.562, 2059.553
1050.044, 2057.341
1050.526, 2055.811
1051.008, 2058.314
1051.490, 2062.973
1051.972, 2065.824
1052.454, 2066.613
1052.936, 2066.022
1053.419, 2063.801
1053.901, 2061.601
1054.383, 2061.495
1054.865, 2062.399
1055.347, 2063.139
1055.829, 2063.583
1056.311, 2062.895
1056.793, 2060.176
1057.276, 2057.162
1057.758, 2053.824
1058.240, 2050.998
1058.722, 2051.750
1059.204, 2055.243
1059.686, 2057.933
1060.168, 2058.987
1060.650, 2058.366
1061.132, 2053.440
1061.615, 2048.679
1062.097, 2048.909
1062.579, 2055.117
1063.061, 2056.904
1063.543, 2053.830
1064.025, 2050.531
1064.507, 2050.558
1064.989, 2051.516
1065.471, 2050.379
1065.954, 2047.813
1066.436, 2045.462
1066.918, 2043.587
1067.400, 2042.229
1067.882, 2041.478
1068.364, 2041.085
1068.846, 2040.741
1069.328, 2040.508
1069.811, 2040.901
1070.293, 2041.879
1070.775, 2042.021
1071.257, 2039.077
1071.739, 2036.705
1072.221, 2036.883
1072.703, 2038.771
1073.185, 2040.163
1073.667, 2041.026
1074.150, 2039.784
1074.632, 2035.346
1075.114, 2031.166
1075.596, 2031.448
1076.078, 2033.253
1076.560, 2033.345
1077.042, 2030.869
1077.524, 2029.536
1078.006, 2029.760
1078.489, 2029.680
1078.971, 2027.790
1079.453, 2025.412
1079.935, 2025.930
1080.417, 2028.017
1080.899, 2028.448
1081.381, 2023.707
1081.863, 2020.558
1082.345, 2020.286
1082.828, 2021.212
1083.310, 2022.070
1083.792, 2022.786
1084.274, 2022.611
1084.756, 2021.594
1085.238, 2020.702
1085.720, 2021.442
1086.202, 2021.561
1086.685, 2019.287
1087.167, 2015.547
1087.649, 2012.229
1088.131, 2009.209
1088.613, 2008.040
1089.095, 2009.230
1089.577, 2010.909
1090.059, 2011.365
1090.542, 2011.120
1091.024, 2010.672
1091.506, 2010.062
1091.988, 2009.237
1092.470, 2008.096
1092.952, 2006.950
1093.434, 2005.766
1093.916, 2004.846
1094.398, 2005.291
1094.880, 2006.366
1095.363, 2006.346
1095.845, 2004.276
1096.327, 2002.362
1096.809, 2000.904
1097.291, 2000.009
1097.773, 2000.008
1098.255, 2000.699
1098.737, 2000.799
1099.220, 2000.264
1099.702, 1998.768
1100.184, 1994.708
1100.666, 1991.276
1101.148, 1990.938
1101.630, 1991.792
1102.112, 1991.146
1102.594, 1988.874
1103.077, 1986.201
1103.559, 1983.166
1104.041, 1980.144
1104.523, 1976.869
1105.005, 1974.181
1105.487, 1972.760
1105.969, 1972.612
1106.451, 1973.710
1106.933, 1976.940
1107.416, 1978.432
1107.898, 1977.115
1108.380, 1974.874
1108.862, 1973.820
1109.344, 1973.646
1109.826, 1974.105
1110.308, 1975.203
1110.790, 1975.658
1111.272, 1974.413
1111.755, 1973.722
1112.237, 1975.007
1112.719, 1976.743
1113.201, 1974.076
1113.683, 1968.419
1114.165, 1964.440
1114.647, 1964.067
1115.129, 1963.744
1115.612, 1961.239
1116.094, 1958.834
1116.576, 1958.215
1117.058, 1959.236
1117.540, 1959.120
1118.022, 1958.018
1118.504, 1958.100
1118.986, 1962.337
1119.469, 1965.736
1119.951, 1964.263
1120.433, 1960.106
1120.915, 1956.300
1121.397, 1952.707
1121.879, 1950.734
1122.361, 1950.500
1122.843, 1951.095
1123.325, 1953.192
1123.807, 1954.720
1124.290, 1952.854
1124.772, 1948.491
1125.254, 1944.838
1125.736, 1941.976
1126.218, 1940.369
1126.700, 1940.058
1127.182, 1941.080
1127.664, 1944.465
1128.147, 1948.757
1128.629, 1951.699
1129.111, 1953.085
1129.593, 1953.020
1130.075, 1950.833
1130.557, 1947.912
1131.039, 1943.936
1131.521, 1940.184
1132.004, 1939.374
1132.486, 1940.734
1132.968, 1942.167
1133.450, 1943.308
1133.932, 1944.332
1134.414, 1945.356
1134.896, 1946.330
1135.378, 1947.566
1135.860, 1946.797
1136.343, 1947.534
1136.825, 1944.529
1137.307, 1941.836
1137.789, 1939.582
1138.271, 1939.238
1138.753, 1944.636
1139.235, 1949.975
1139.717, 1949.267
1140.199, 1942.348
1140.682, 1941.294
1141.164, 1946.010
1141.646, 1950.199
1142.128, 1950.513
1142.610, 1948.909
1143.092, 1946.303
1143.574, 1943.083
1144.056, 1939.572
1144.539, 1934.894
1145.021, 1933.691
1145.503, 1936.385
1145.985, 1939.579
1146.467, 1942.015
1146.949, 1942.577
1147.431, 1937.853
1147.913, 1930.325
1148.396, 1927.289
1148.878, 1931.803
1149.360, 1934.790
1149.842, 1935.211
1150.324, 1934.952
1150.806, 1936.922
1151.288, 1938.935
1151.770, 1936.393
1152.252, 1930.034
1152.734, 1926.990
1153.217, 1930.803
1153.699, 1934.757
1154.181, 1938.073
1154.663, 1940.262
1155.145, 1940.434
1155.627, 1939.058
1156.109, 1936.966
1156.591, 1934.265
1157.074, 1931.283
1157.556, 1926.554
1158.038, 1923.769
1158.520, 1924.833
1159.002, 1927.443
1159.484, 1925.368
1159.966, 1920.567
1160.448, 1919.675
1160.931, 1925.012
1161.413, 1929.362
1161.895, 1928.363
1162.377, 1926.695
1162.859, 1926.496
1163.341, 1927.289
1163.823, 1927.089
1164.305, 1926.118
1164.787, 1925.479
1165.270, 1925.738
1165.752, 1925.875
1166.234, 1925.358
1166.716, 1924.503
1167.198, 1923.325
1167.680, 1921.926
1168.162, 1921.922
1168.644, 1923.170
1169.126, 1924.400
1169.609, 1925.945
1170.091, 1925.921
1170.573, 1920.632
1171.055, 1914.972
1171.537, 1914.762
1172.019, 1920.722
1172.501, 1922.827
1172.983, 1921.108
1173.466, 1918.899
1173.948, 1918.158
1174.430, 1917.758
1174.912, 1917.289
1175.394, 1916.474
1175.876, 1914.418
1176.358, 1910.384
1176.840, 1911.074
1177.323, 1917.000
1177.805, 1921.753
1178.287, 1919.434
1178.769, 1914.847
1179.251, 1910.509
1179.733, 1907.397
1180.215, 1907.789
1180.697, 1912.826
1181.179, 1915.577
1181.661, 1915.238
1182.144, 1913.980
1182.626, 1913.170
1183.108, 1912.825
1183.590, 1913.317
1184.072, 1914.329
1184.554, 1914.445
1185.036, 1913.349
1185.518, 1912.455
1186.001, 1911.973
1186.483, 1911.609
1186.965, 1910.730
1187.447, 1910.013
1187.929, 1910.586
1188.411, 1912.305
1188.893, 1912.860
1189.375, 1911.984
1189.858, 1910.516
1190.340, 1908.423
1190.822, 1906.584
1191.304, 1906.082
1191.786, 1906.437
1192.268, 1907.487
1192.750, 1909.209
1193.232, 1909.257
1193.714, 1907.008
1194.197, 1904.740
1194.679, 1902.788
1195.161, 1901.937
1195.643, 1904.162
1196.125, 1907.717
1196.607, 1910.484
1197.089, 1912.144
1197.571, 1911.849
1198.053, 1908.713
1198.536, 1906.470
1199.018, 1907.009
1199.500, 1908.087
1199.982, 1905.512
1200.464, 1901.462
1200.946, 1899.480
1201.428, 1901.053
1201.910, 1901.326
1202.393, 1899.448
1202.875, 1898.559
1203.357, 1900.877
1203.839, 1903.965
1204.321, 1903.324
1204.803, 1900.678
1205.285, 1898.996
1205.767, 1899.263
1206.250, 1899.516
1206.732, 1899.724
1207.214, 1899.644
1207.696, 1898.587
1208.178, 1897.666
1208.660, 1899.152
1209.142, 1902.161
1209.624, 1905.120
1210.106, 1908.474
1210.589, 1909.652
1211.071, 1908.041
1211.553, 1906.152
1212.035, 1905.747
1212.517, 1906.003
1212.999, 1905.427
1213.481, 1904.437
1213.963, 1903.910
1214.445, 1905.083
1214.928, 1904.831
1215.410, 1902.733
1215.892, 1900.619
1216.374, 1899.142
1216.856, 1898.973
1217.338, 1902.974
1217.820, 1908.950
1218.302, 1911.401
1218.785, 1905.553
1219.267, 1903.355
1219.749, 1905.906
1220.231, 1909.268
1220.713, 1910.887
1221.195, 1910.951
1221.677, 1909.073
1222.159, 1905.908
1222.641, 1903.275
1223.124, 1901.245
1223.606, 1900.275
1224.088, 1900.382
1224.570, 1901.577
1225.052, 1905.334
1225.534, 1909.157
1226.016, 1909.264
1226.498, 1906.579
1226.980, 1904.419
1227.463, 1902.741
1227.945, 1903.222
1228.427, 1906.525
1228.909, 1909.226
1229.391, 1906.813
1229.873, 1903.040
1230.355, 1902.395
1230.837, 1904.280
1231.320, 1905.920
1231.802, 1907.368
1232.284, 1907.656
1232.766, 1906.628
1233.248, 1904.928
1233.730, 1902.110
1234.212, 1899.842
1234.694, 1900.819
1235.177, 1903.980
1235.659, 1904.588
1236.141, 1901.802
1236.623, 1900.182
1237.105, 1900.281
1237.587, 1901.771
1238.069, 1906.266
1238.551, 1910.350
1239.033, 1909.863
1239.516, 1906.176
1239.998, 1905.150
1240.480, 1906.956
1240.962, 1909.974
1241.444, 1914.145
1241.926, 1917.583
1242.408, 1918.244
1242.890, 1917.964
1243.372, 1917.943
1243.855, 1918.141
1244.337, 1918.399
1244.819, 1918.735
1245.301, 1918.668
1245.783, 1918.158
1246.265, 1917.314
1246.747, 1916.449
1247.229, 1915.175
1247.712, 1912.210
1248.194, 1909.059
1248.676, 1910.521
1249.158, 1916.074
1249.640, 1916.367
1250.122, 1909.774
1250.604, 1904.265
1251.086, 1906.448
1251.568, 1909.900
1252.051, 1911.560
1252.533, 1911.955
1253.015, 1912.199
1253.497, 1912.262
1253.979, 1912.207
1254.461, 1912.012
1254.943, 1911.372
1255.425, 1909.377
1255.907, 1907.711
1256.390, 1906.940
1256.872, 1906.918
1257.354, 1907.670
1257.836, 1908.939
1258.318, 1909.739
1258.800, 1909.923
1259.282, 1910.606
1259.764, 1913.650
1260.247, 1915.313
1260.729, 1914.041
1261.211, 1911.821
1261.693, 1912.028
1262.175, 1913.961
1262.657, 1916.682
1263.139, 1920.074
1263.621, 1921.291
1264.104, 1918.100
1264.586, 1915.607
1265.068, 1914.753
1265.550, 1915.692
1266.032, 1921.481
1266.514, 1927.809
1266.996, 1925.994
1267.478, 1915.423
1267.960, 1910.759
1268.443, 1915.160
1268.925, 1918.744
1269.407, 1919.001
1269.889, 1918.395
1270.371, 1920.643
1270.853, 1919.762
1271.335, 1922.857
1271.817, 1919.439
1272.299, 1917.467
1272.782, 1917.088
1273.264, 1917.766
1273.746, 1919.665
1274.228, 1921.145
1274.710, 1919.933
1275.192, 1918.202
1275.674, 1917.919
1276.156, 1918.818
1276.639, 1919.719
1277.121, 1920.623
1277.603, 1919.939
1278.085, 1917.081
1278.567, 1915.377
1279.049, 1919.878
1279.531, 1923.694
1280.013, 1921.609
1280.495, 1916.260
1280.978, 1914.158
1281.460, 1914.991
1281.942, 1917.289
1282.424, 1920.897
1282.906, 1923.653
1283.388, 1925.352
1283.870, 1924.364
1284.352, 1918.834
1284.834, 1912.092
1285.317, 1910.831
1285.799, 1913.781
1286.281, 1918.644
1286.763, 1925.075
1287.245, 1928.678
1287.727, 1925.642
1288.209, 1923.307
1288.691, 1923.503
1289.173, 1924.553
1289.656, 1923.368
1290.138, 1921.766
1290.620, 1923.818
1291.102, 1929.446
1291.584, 1931.181
1292.066, 1927.408
1292.548, 1922.523
1293.030, 1916.616
1293.513, 1912.841
1293.995, 1916.802
1294.477, 1923.125
1294.959, 1926.267
1295.441, 1926.312
1295.923, 1926.989
1296.405, 1928.468
1296.887, 1928.976
1297.370, 1928.213
1297.852, 1926.959
1298.334, 1925.047
1298.816, 1923.925
1299.298, 1924.459
1299.780, 1925.838
1300.262, 1928.932
1300.744, 1933.386
1301.226, 1934.248
1301.708, 1931.026
1302.191, 1928.015
1302.673, 1926.595
1303.155, 1926.545
1303.637, 1926.481
1304.119, 1925.544
##END=



