##NAMES=Anorthite
##RRUFFID=R060221
##IDEAL CHEMISTRY=CaAl_2_Si_2_O_8_
##LOCALITY=Pinacate lavafield, Sonora, Mexico
##OWNER=RRUFF
##SOURCE=Rock Currier
##DESCRIPTION=Light tan transparent fragment
##STATUS=The identification of this mineral has been confirmed by X-ray diffraction and chemical analysis
##URL=rruff.info/R060221
##MEASURED CHEMISTRY=(Ca_0.65_Na_0.34_K_0.01_)(Al_1.66_Fe^3+^_0.01_)Si_2.33_O_8_
91.82715, 734.6429
92.30927, 721.4601
92.79138, 724.2704
93.27350, 737.2598
93.75562, 748.5590
94.23773, 755.4709
94.71985, 759.4870
95.20197, 760.8090
95.68408, 759.2392
96.16620, 755.9035
96.64832, 752.4001
97.13043, 749.1774
97.61255, 745.7689
98.09467, 741.3935
98.57678, 735.7262
99.05890, 728.3962
99.54102, 721.2983
100.0231, 714.7484
100.5052, 708.8019
100.9874, 703.3736
101.4695, 698.2777
101.9516, 693.1445
102.4337, 685.6768
102.9158, 680.3701
103.3979, 679.2783
103.8801, 680.8339
104.3622, 682.1506
104.8443, 680.8939
105.3264, 676.7161
105.8085, 673.3252
106.2906, 670.7995
106.7728, 668.5845
107.2549, 666.2845
107.7370, 663.8858
108.2191, 661.7533
108.7012, 660.3871
109.1833, 659.8176
109.6655, 659.2889
110.1476, 658.2447
110.6297, 657.2793
111.1118, 657.6004
111.5939, 660.0174
112.0760, 662.5140
112.5582, 662.7176
113.0403, 660.8428
113.5224, 658.8059
114.0045, 657.7202
114.4866, 657.5450
114.9688, 657.6249
115.4509, 657.9993
115.9330, 658.4836
116.4151, 659.0880
116.8972, 659.7914
117.3793, 660.3358
117.8615, 660.2261
118.3436, 658.9123
118.8257, 658.3167
119.3078, 659.1931
119.7899, 660.4431
120.2720, 661.0830
120.7542, 660.7316
121.2363, 659.9013
121.7184, 660.0685
122.2005, 662.5787
122.6826, 664.7111
123.1647, 666.1945
123.6468, 667.2039
124.1290, 668.0039
124.6111, 668.7566
125.0932, 669.4310
125.5753, 669.7733
126.0574, 669.2226
126.5395, 668.9634
127.0217, 669.6497
127.5038, 671.1502
127.9859, 672.7308
128.4680, 673.8391
128.9501, 674.5818
129.4323, 675.6214
129.9144, 677.0969
130.3965, 678.8341
130.8786, 680.8011
131.3607, 683.0989
131.8428, 685.1561
132.3250, 686.2590
132.8071, 686.8231
133.2892, 687.5363
133.7713, 688.6324
134.2534, 690.0921
134.7355, 691.9203
135.2177, 694.4055
135.6998, 696.8751
136.1819, 698.7635
136.6640, 700.3250
137.1461, 702.1766
137.6282, 704.9112
138.1104, 708.6198
138.5925, 712.1907
139.0746, 715.8105
139.5567, 719.1271
140.0388, 721.7700
140.5209, 723.8652
141.0031, 725.9686
141.4852, 728.7561
141.9673, 732.5574
142.4494, 736.2576
142.9315, 739.9231
143.4136, 743.4583
143.8958, 746.8406
144.3779, 750.0445
144.8600, 753.0861
145.3421, 755.9706
145.8242, 758.5380
146.3063, 761.2585
146.7885, 764.6035
147.2706, 767.9793
147.7527, 770.6920
148.2348, 772.5047
148.7169, 773.5551
149.1990, 773.9630
149.6812, 773.6641
150.1633, 773.2350
150.6454, 772.9031
151.1275, 772.6089
151.6096, 772.0916
152.0917, 770.9543
152.5739, 769.8700
153.0560, 769.7739
153.5381, 770.8429
154.0202, 772.3292
154.5023, 773.9429
154.9844, 775.7170
155.4665, 776.7507
155.9487, 775.8722
156.4308, 774.4828
156.9129, 773.6111
157.3950, 773.4938
157.8771, 773.9449
158.3592, 774.7508
158.8414, 776.0060
159.3235, 777.3982
159.8056, 778.9264
160.2877, 780.4995
160.7698, 781.9469
161.2519, 783.1619
161.7341, 784.4083
162.2162, 786.4782
162.6983, 790.1629
163.1804, 793.6873
163.6625, 796.6161
164.1446, 799.3021
164.6268, 802.1698
165.1089, 805.4830
165.5910, 809.1639
166.0731, 812.8045
166.5552, 816.1549
167.0373, 819.7401
167.5195, 823.7941
168.0016, 828.1729
168.4837, 832.6219
168.9658, 836.9711
169.4479, 841.2524
169.9300, 845.4709
170.4122, 849.5606
170.8943, 853.6624
171.3764, 857.7904
171.8585, 861.9601
172.3406, 866.2872
172.8227, 870.9055
173.3049, 875.7507
173.7870, 880.3884
174.2691, 884.4260
174.7512, 888.5550
175.2333, 893.5653
175.7154, 899.5267
176.1976, 905.2765
176.6797, 909.8362
177.1618, 913.5201
177.6439, 916.9156
178.1260, 920.3102
178.6081, 923.4290
179.0903, 925.9048
179.5724, 927.6989
180.0545, 928.8904
180.5366, 929.0368
181.0187, 928.6935
181.5008, 928.7859
181.9830, 930.1663
182.4651, 932.2350
182.9472, 933.1310
183.4293, 932.5720
183.9114, 931.1072
184.3935, 928.5175
184.8757, 925.3932
185.3578, 922.7426
185.8399, 921.3766
186.3220, 921.1457
186.8041, 920.4477
187.2862, 918.6716
187.7684, 917.0493
188.2505, 916.0017
188.7326, 915.3813
189.2147, 914.8318
189.6968, 914.0436
190.1789, 912.9885
190.6611, 912.3547
191.1432, 912.4066
191.6253, 912.6053
192.1074, 912.9275
192.5895, 913.2712
193.0716, 913.4518
193.5538, 913.2823
194.0359, 912.6981
194.5180, 912.2668
195.0001, 912.3140
195.4822, 912.1852
195.9643, 911.4855
196.4465, 910.2785
196.9286, 908.9985
197.4107, 908.1844
197.8928, 907.9916
198.3749, 906.3074
198.8570, 901.8220
199.3392, 897.0010
199.8213, 893.6248
200.3034, 891.7535
200.7855, 890.0582
201.2676, 887.2912
201.7497, 883.3646
202.2319, 879.5974
202.7140, 876.2203
203.1961, 872.9135
203.6782, 869.4432
204.1603, 865.7780
204.6424, 861.8456
205.1246, 857.3019
205.6067, 852.3168
206.0888, 847.7784
206.5709, 844.1815
207.0530, 841.0057
207.5351, 837.4812
208.0173, 833.4265
208.4994, 829.4677
208.9815, 826.3394
209.4636, 823.6841
209.9457, 820.7595
210.4278, 817.1018
210.9100, 813.0016
211.3921, 809.0398
211.8742, 805.1940
212.3563, 801.6028
212.8384, 798.2308
213.3205, 795.1312
213.8027, 792.4668
214.2848, 790.5703
214.7669, 789.1639
215.2490, 787.2252
215.7311, 784.3046
216.2132, 781.5273
216.6954, 779.8088
217.1775, 778.5072
217.6596, 776.4197
218.1417, 772.4827
218.6238, 767.1629
219.1059, 763.3209
219.5881, 762.0797
220.0702, 761.0937
220.5523, 759.8582
221.0344, 758.3615
221.5165, 756.5323
221.9986, 754.1788
222.4808, 751.4680
222.9629, 749.9865
223.4450, 751.3068
223.9271, 752.2960
224.4092, 752.3958
224.8913, 751.7079
225.3735, 750.4601
225.8556, 748.7562
226.3377, 746.6458
226.8198, 744.5648
227.3019, 742.3584
227.7840, 740.3581
228.2662, 738.8132
228.7483, 737.5140
229.2304, 736.0109
229.7125, 733.9344
230.1946, 731.4257
230.6767, 730.1337
231.1589, 731.2134
231.6410, 732.1322
232.1231, 732.3357
232.6052, 731.9240
233.0873, 731.0497
233.5694, 729.7074
234.0516, 728.0703
234.5337, 727.4720
235.0158, 728.8486
235.4979, 730.0219
235.9800, 730.1127
236.4621, 729.5177
236.9443, 729.1168
237.4264, 729.3904
237.9085, 730.2375
238.3906, 731.1921
238.8727, 732.6380
239.3548, 733.7568
239.8370, 733.9958
240.3191, 733.6718
240.8012, 733.5652
241.2833, 734.0850
241.7654, 735.0511
242.2475, 735.8743
242.7297, 736.1948
243.2118, 736.9401
243.6939, 738.9508
244.1760, 741.7753
244.6581, 744.0121
245.1402, 744.9527
245.6224, 745.1171
246.1045, 745.5539
246.5866, 746.2314
247.0687, 747.1877
247.5508, 748.6006
248.0329, 750.3429
248.5151, 751.9332
248.9972, 753.0684
249.4793, 754.1793
249.9614, 756.0303
250.4435, 758.7961
250.9256, 761.1970
251.4078, 762.5029
251.8899, 762.8401
252.3720, 762.6477
252.8541, 761.4485
253.3362, 760.5320
253.8183, 761.3432
254.3005, 763.8586
254.7826, 766.6255
255.2647, 768.8128
255.7468, 770.5061
256.2289, 772.1363
256.7110, 773.7727
257.1931, 775.3531
257.6753, 776.9225
258.1574, 778.4478
258.6395, 779.7115
259.1216, 780.2664
259.6037, 780.3198
260.0858, 781.1653
260.5680, 783.6852
261.0501, 785.9562
261.5322, 786.5681
262.0143, 785.9504
262.4964, 785.4139
262.9785, 785.7289
263.4607, 786.8165
263.9428, 788.3378
264.4249, 790.8947
264.9070, 792.9717
265.3891, 793.4587
265.8712, 793.0121
266.3534, 792.9768
266.8355, 794.3651
267.3176, 796.7672
267.7997, 798.3870
268.2818, 798.6687
268.7639, 798.9816
269.2461, 800.0663
269.7282, 801.4529
270.2103, 802.4002
270.6924, 802.4172
271.1745, 801.8466
271.6566, 801.8275
272.1388, 802.6607
272.6209, 803.5719
273.1030, 804.5984
273.5851, 805.4896
274.0672, 805.8860
274.5493, 805.5936
275.0315, 804.8925
275.5136, 804.4964
275.9957, 804.6445
276.4778, 804.6455
276.9599, 804.1364
277.4420, 803.5710
277.9242, 803.4623
278.4063, 803.9862
278.8884, 804.7294
279.3705, 804.8788
279.8526, 804.0783
280.3347, 803.4382
280.8169, 803.3528
281.2990, 803.2728
281.7811, 802.7389
282.2632, 801.6641
282.7453, 800.3700
283.2274, 799.3416
283.7096, 798.7395
284.1917, 798.0084
284.6738, 797.4464
285.1559, 796.5419
285.6380, 794.7852
286.1201, 792.2420
286.6023, 789.5190
287.0844, 787.3109
287.5665, 785.7835
288.0486, 784.1575
288.5307, 782.4414
289.0128, 780.6270
289.4950, 778.6037
289.9771, 776.4420
290.4592, 774.4156
290.9413, 772.8887
291.4234, 771.9808
291.9055, 769.9969
292.3877, 765.7896
292.8698, 761.6630
293.3519, 758.1887
293.8340, 755.3824
294.3161, 753.1199
294.7982, 751.3479
295.2804, 750.0343
295.7625, 748.8377
296.2446, 748.2303
296.7267, 747.2275
297.2088, 745.4761
297.6909, 743.2447
298.1731, 740.9055
298.6552, 738.6619
299.1373, 736.5184
299.6194, 734.4997
300.1015, 732.2740
300.5836, 730.6472
301.0658, 730.1865
301.5479, 730.1555
302.0300, 729.6934
302.5121, 728.4741
302.9942, 726.9213
303.4763, 725.9453
303.9585, 726.5242
304.4406, 726.1747
304.9227, 723.8118
305.4048, 721.2408
305.8869, 720.1144
306.3690, 720.7159
306.8512, 721.8677
307.3333, 721.8604
307.8154, 719.8879
308.2975, 718.9081
308.7796, 719.6729
309.2617, 720.6432
309.7439, 720.8956
310.2260, 720.3945
310.7081, 719.6403
311.1902, 719.1306
311.6723, 718.9154
312.1544, 718.5494
312.6366, 717.5034
313.1187, 716.8381
313.6008, 717.1675
314.0829, 718.2431
314.5650, 719.4381
315.0471, 720.3135
315.5293, 720.8829
316.0114, 721.3203
316.4935, 721.6146
316.9756, 721.7899
317.4577, 721.5928
317.9398, 721.3301
318.4220, 721.3546
318.9041, 721.8306
319.3862, 722.8466
319.8683, 724.7480
320.3504, 729.5370
320.8326, 732.6014
321.3147, 732.6712
321.7968, 731.4561
322.2789, 730.5223
322.7610, 730.4102
323.2431, 730.7559
323.7253, 730.9226
324.2074, 730.5909
324.6895, 730.7429
325.1716, 731.7026
325.6537, 732.8349
326.1358, 733.7861
326.6180, 734.4749
327.1001, 734.9398
327.5822, 735.1645
328.0643, 735.0137
328.5464, 735.3506
329.0285, 736.3066
329.5107, 737.5479
329.9928, 739.3232
330.4749, 741.3088
330.9570, 742.7709
331.4391, 743.1212
331.9212, 742.4354
332.4034, 741.8275
332.8855, 740.9053
333.3676, 740.5101
333.8497, 741.4114
334.3318, 742.7936
334.8139, 743.4172
335.2961, 742.6413
335.7782, 741.0302
336.2603, 740.2696
336.7424, 741.1271
337.2245, 741.7330
337.7066, 741.7806
338.1888, 741.6370
338.6709, 741.6156
339.1530, 741.8053
339.6351, 742.1003
340.1172, 742.4569
340.5993, 743.2851
341.0815, 743.0690
341.5636, 740.4122
342.0457, 738.0099
342.5278, 737.7911
343.0099, 739.4549
343.4920, 741.0871
343.9742, 740.7268
344.4563, 738.2048
344.9384, 736.8488
345.4205, 738.0856
345.9026, 739.1624
346.3847, 739.3054
346.8669, 738.7763
347.3490, 738.1468
347.8311, 737.7742
348.3132, 737.5402
348.7953, 736.9572
349.2774, 735.7021
349.7596, 734.5811
350.2417, 733.7130
350.7238, 733.0449
351.2059, 732.6707
351.6880, 732.6072
352.1701, 732.4572
352.6523, 731.3757
353.1344, 728.7994
353.6165, 727.0352
354.0986, 726.9389
354.5807, 727.2184
355.0628, 727.1879
355.5450, 726.7869
356.0271, 726.3391
356.5092, 726.2933
356.9913, 726.6862
357.4734, 726.4597
357.9555, 725.1238
358.4377, 723.6775
358.9198, 722.3861
359.4019, 721.3082
359.8840, 720.5587
360.3661, 720.3289
360.8482, 720.3867
361.3304, 719.9496
361.8125, 718.7201
362.2946, 717.6657
362.7767, 717.5182
363.2588, 717.5271
363.7409, 716.7180
364.2231, 714.6701
364.7052, 712.5336
365.1873, 711.9479
365.6694, 713.0919
366.1515, 714.1082
366.6336, 714.6848
367.1158, 714.8773
367.5979, 714.6008
368.0800, 713.8926
368.5621, 713.1730
369.0442, 712.8398
369.5263, 712.7800
370.0085, 712.3700
370.4906, 711.2455
370.9727, 710.3564
371.4548, 710.6810
371.9369, 711.7082
372.4190, 712.2797
372.9012, 711.7341
373.3833, 710.6420
373.8654, 709.7798
374.3475, 709.1585
374.8296, 708.7196
375.3117, 708.5618
375.7939, 708.5236
376.2760, 708.3945
376.7581, 708.1984
377.2402, 707.7985
377.7223, 706.9188
378.2044, 705.6976
378.6866, 704.6934
379.1687, 703.9618
379.6508, 703.6666
380.1329, 704.2460
380.6150, 705.6678
381.0971, 706.7704
381.5793, 706.8053
382.0614, 706.4606
382.5435, 706.8643
383.0256, 708.1842
383.5077, 709.3792
383.9898, 709.5947
384.4720, 708.9050
384.9541, 708.2399
385.4362, 707.2371
385.9183, 706.6213
386.4004, 706.9127
386.8825, 707.9800
387.3647, 709.5534
387.8468, 711.7480
388.3289, 713.9681
388.8110, 714.4703
389.2931, 712.4943
389.7752, 710.8361
390.2574, 709.8752
390.7395, 709.6155
391.2216, 710.3073
391.7037, 711.9581
392.1858, 713.8307
392.6679, 715.0709
393.1501, 715.5393
393.6322, 715.9839
394.1143, 716.0685
394.5964, 716.4316
395.0785, 717.6859
395.5606, 719.5627
396.0428, 721.2128
396.5249, 722.0662
397.0070, 722.2963
397.4891, 722.8741
397.9712, 724.1247
398.4533, 725.3337
398.9355, 726.3538
399.4176, 727.3291
399.8997, 728.4874
400.3818, 729.8754
400.8639, 731.2737
401.3460, 732.3972
401.8282, 733.3707
402.3103, 733.6662
402.7924, 732.6329
403.2745, 731.6005
403.7566, 731.1693
404.2387, 731.3293
404.7209, 731.8873
405.2030, 732.8324
405.6851, 734.0167
406.1672, 734.2070
406.6493, 732.6817
407.1314, 731.1470
407.6136, 730.0520
408.0957, 729.1349
408.5778, 728.0572
409.0599, 726.6993
409.5420, 725.3171
410.0241, 724.3751
410.5063, 724.0208
410.9884, 723.3384
411.4705, 722.0929
411.9526, 720.5494
412.4347, 718.7471
412.9168, 716.7531
413.3990, 714.7657
413.8811, 712.8499
414.3632, 711.0510
414.8453, 709.5563
415.3274, 708.4261
415.8095, 707.4574
416.2917, 706.5458
416.7738, 705.7245
417.2559, 705.0258
417.7380, 704.3923
418.2201, 704.0239
418.7022, 704.3973
419.1844, 705.3912
419.6665, 705.7375
420.1486, 704.6944
420.6307, 703.3391
421.1128, 703.2985
421.5949, 704.5714
422.0771, 705.1740
422.5592, 703.6157
423.0413, 701.3196
423.5234, 700.3573
424.0055, 700.9527
424.4876, 701.7862
424.9698, 701.8762
425.4519, 701.3493
425.9340, 701.1578
426.4161, 701.7509
426.8982, 702.1934
427.3803, 701.9296
427.8625, 701.2228
428.3446, 700.5998
428.8267, 700.2502
429.3088, 700.0988
429.7909, 699.9650
430.2730, 699.5053
430.7552, 699.9983
431.2373, 702.7355
431.7194, 705.4659
432.2015, 706.2004
432.6836, 705.1653
433.1657, 704.2149
433.6479, 704.9122
434.1300, 707.0724
434.6121, 708.2263
435.0942, 706.8772
435.5763, 706.2421
436.0584, 707.2721
436.5406, 709.0887
437.0227, 710.8535
437.5048, 712.2282
437.9869, 713.0731
438.4690, 712.9839
438.9511, 711.4625
439.4333, 710.6301
439.9154, 710.7792
440.3975, 711.4059
440.8796, 712.5435
441.3617, 714.0037
441.8438, 715.4186
442.3260, 716.6169
442.8081, 717.5427
443.2902, 717.9108
443.7723, 717.5343
444.2544, 717.0707
444.7365, 716.2466
445.2187, 715.7064
445.7008, 716.3956
446.1829, 718.5826
446.6650, 720.5916
447.1471, 720.3836
447.6292, 718.4947
448.1114, 718.0839
448.5935, 720.1396
449.0756, 722.6935
449.5577, 724.2078
450.0398, 724.8959
450.5219, 725.2702
451.0041, 725.1198
451.4862, 724.9562
451.9683, 725.2022
452.4504, 725.8546
452.9325, 726.9264
453.4146, 728.5203
453.8968, 730.4213
454.3789, 732.1888
454.8610, 733.8281
455.3431, 735.3544
455.8252, 736.3666
456.3073, 737.4894
456.7895, 739.6236
457.2716, 742.7950
457.7537, 746.0267
458.2358, 748.4215
458.7179, 749.9841
459.2000, 752.1658
459.6822, 755.9445
460.1643, 759.1213
460.6464, 760.1594
461.1285, 760.5300
461.6106, 762.6400
462.0927, 767.3186
462.5748, 772.7958
463.0569, 775.8815
463.5391, 775.0400
464.0212, 775.9352
464.5033, 779.3956
464.9854, 783.6818
465.4675, 788.4984
465.9496, 793.4927
466.4318, 798.0563
466.9139, 801.7147
467.3960, 804.7823
467.8781, 808.2075
468.3602, 811.9645
468.8423, 816.1947
469.3245, 821.4017
469.8066, 826.8466
470.2887, 831.8332
470.7708, 836.2803
471.2529, 840.8963
471.7350, 846.3109
472.2172, 852.3679
472.6993, 858.3788
473.1814, 864.2457
473.6635, 870.1846
474.1456, 876.4942
474.6277, 882.9863
475.1099, 889.1660
475.5920, 894.8373
476.0741, 900.2787
476.5562, 905.7095
477.0383, 911.0377
477.5204, 916.0461
478.0026, 920.5553
478.4847, 924.9814
478.9668, 930.0164
479.4489, 935.9788
479.9310, 940.9698
480.4131, 944.7617
480.8953, 947.6508
481.3774, 949.7293
481.8595, 951.0585
482.3416, 951.6494
482.8237, 951.4520
483.3058, 950.7169
483.7880, 950.3241
484.2701, 951.2242
484.7522, 951.0552
485.2343, 949.1275
485.7164, 946.5922
486.1985, 944.1390
486.6807, 941.9462
487.1628, 940.0168
487.6449, 938.2551
488.1270, 936.7036
488.6091, 936.0177
489.0912, 936.7685
489.5734, 937.4931
490.0555, 937.3551
490.5376, 937.1298
491.0197, 937.5877
491.5018, 938.9214
491.9839, 941.1672
492.4661, 944.5812
492.9482, 949.0695
493.4303, 953.6162
493.9124, 957.8682
494.3945, 962.5695
494.8766, 968.0438
495.3588, 974.3725
495.8409, 982.0087
496.3230, 991.5925
496.8051, 1002.042
497.2872, 1012.378
497.7693, 1022.754
498.2515, 1033.961
498.7336, 1046.473
499.2157, 1059.327
499.6978, 1071.014
500.1799, 1081.168
500.6620, 1091.601
501.1442, 1102.855
501.6263, 1114.070
502.1084, 1125.205
502.5905, 1135.861
503.0726, 1145.188
503.5547, 1152.635
504.0369, 1159.720
504.5190, 1163.787
505.0011, 1169.490
505.4832, 1173.013
505.9653, 1174.386
506.4474, 1173.661
506.9296, 1170.492
507.4117, 1165.133
507.8938, 1158.556
508.3759, 1151.622
508.8580, 1144.118
509.3401, 1135.111
509.8223, 1124.432
510.3044, 1112.517
510.7865, 1098.828
511.2686, 1084.362
511.7507, 1070.078
512.2328, 1056.144
512.7150, 1042.018
513.1971, 1027.065
513.6792, 1011.578
514.1613, 996.2533
514.6434, 981.2052
515.1255, 966.0152
515.6077, 949.9283
516.0898, 933.4232
516.5719, 918.5278
517.0540, 906.0398
517.5361, 894.3597
518.0182, 883.0717
518.5004, 872.0371
518.9825, 860.8567
519.4646, 849.3912
519.9467, 838.3914
520.4288, 828.7979
520.9109, 820.8160
521.3931, 812.8158
521.8752, 804.1866
522.3573, 796.0992
522.8394, 789.3350
523.3215, 783.2819
523.8036, 776.9706
524.2858, 770.0600
524.7679, 762.9939
525.2500, 756.5399
525.7321, 750.7178
526.2142, 745.4578
526.6964, 741.2505
527.1785, 737.1346
527.6606, 732.6514
528.1427, 727.9206
528.6248, 723.1765
529.1069, 718.3944
529.5891, 713.8572
530.0712, 709.9230
530.5533, 706.5900
531.0354, 703.9294
531.5175, 702.2207
531.9996, 700.7927
532.4818, 698.7414
532.9639, 696.1378
533.4460, 693.7523
533.9281, 691.9426
534.4102, 690.2468
534.8923, 688.2075
535.3745, 685.9482
535.8566, 683.7844
536.3387, 681.8323
536.8208, 680.2956
537.3029, 679.6765
537.7850, 680.7970
538.2672, 681.1226
538.7493, 679.7281
539.2314, 678.4434
539.7135, 678.5789
540.1956, 679.7201
540.6777, 680.4977
541.1599, 680.0081
541.6420, 678.9616
542.1241, 679.2757
542.6062, 681.4208
543.0883, 683.4202
543.5704, 684.7596
544.0526, 685.9670
544.5347, 687.5078
545.0168, 689.2684
545.4989, 690.6014
545.9810, 690.5374
546.4631, 690.2061
546.9453, 691.6589
547.4274, 694.8428
547.9095, 697.7958
548.3916, 699.6703
548.8737, 700.9549
549.3558, 702.3906
549.8380, 703.9244
550.3201, 705.7592
550.8022, 708.0537
551.2843, 710.5559
551.7664, 713.0773
552.2485, 715.6180
552.7307, 718.3332
553.2128, 721.3727
553.6949, 724.4374
554.1770, 726.6562
554.6591, 727.3128
555.1412, 728.3871
555.6234, 730.3732
556.1055, 732.3477
556.5876, 733.6290
557.0697, 734.3962
557.5518, 735.3270
558.0339, 736.8936
558.5161, 738.8142
558.9982, 740.6644
559.4803, 742.6082
559.9624, 743.4332
560.4445, 742.4332
560.9266, 740.4982
561.4088, 738.4031
561.8909, 736.1723
562.3730, 733.9603
562.8551, 732.2410
563.3372, 730.2783
563.8193, 727.0720
564.3015, 722.8262
564.7836, 718.6258
565.2657, 714.9168
565.7478, 711.5958
566.2299, 708.4835
566.7120, 705.7534
567.1942, 702.8059
567.6763, 699.6912
568.1584, 696.3315
568.6405, 692.3096
569.1226, 688.0284
569.6047, 684.3519
570.0869, 681.7753
570.5690, 679.7581
571.0511, 677.2331
571.5332, 674.0682
572.0153, 670.7996
572.4974, 667.0951
572.9796, 663.7045
573.4617, 661.0513
573.9438, 659.0108
574.4259, 657.2673
574.9080, 655.7995
575.3901, 654.4209
575.8723, 652.9647
576.3544, 651.4285
576.8365, 649.7143
577.3186, 647.7300
577.8007, 645.7746
578.2828, 644.2221
578.7650, 643.0974
579.2471, 641.9335
579.7292, 640.6686
580.2113, 639.4149
580.6934, 638.0157
581.1755, 636.7176
581.6577, 636.0750
582.1398, 636.2287
582.6219, 636.4301
583.1040, 635.5363
583.5861, 633.2981
584.0682, 631.9628
584.5504, 632.4114
585.0325, 632.7218
585.5146, 632.3919
585.9967, 631.5714
586.4788, 630.3344
586.9609, 628.6693
587.4431, 627.1316
587.9252, 626.3103
588.4073, 626.0627
588.8894, 625.8544
589.3715, 625.6392
589.8536, 625.4395
590.3358, 625.3392
590.8179, 625.2433
591.3000, 624.8612
591.7821, 624.0897
592.2642, 623.2139
592.7463, 622.0610
593.2285, 620.9962
593.7106, 620.6028
594.1927, 620.8226
594.6748, 620.9353
595.1569, 620.3294
595.6390, 619.2015
596.1212, 618.6467
596.6033, 619.2487
597.0854, 619.3997
597.5675, 618.4711
598.0496, 617.4299
598.5317, 616.9883
599.0139, 617.1202
599.4960, 617.3546
599.9781, 617.4935
600.4602, 617.4763
600.9423, 617.1409
601.4244, 616.4848
601.9066, 615.7493
602.3887, 614.9296
602.8708, 614.1803
603.3529, 613.7633
603.8350, 613.6705
604.3171, 613.5823
604.7993, 613.6565
605.2814, 613.5273
605.7635, 612.6500
606.2456, 611.4333
606.7277, 610.8351
607.2098, 611.2062
607.6920, 611.9050
608.1741, 611.9313
608.6562, 611.1164
609.1383, 610.5586
609.6204, 610.6937
610.1025, 610.5812
610.5847, 609.6862
611.0668, 608.4769
611.5489, 607.5751
612.0310, 607.1552
612.5131, 606.9947
612.9952, 606.9573
613.4774, 607.0228
613.9595, 607.0966
614.4416, 607.1544
614.9237, 607.3873
615.4058, 608.1087
615.8879, 609.0170
616.3701, 609.0844
616.8522, 607.6647
617.3343, 606.8082
617.8164, 607.4035
618.2985, 608.3758
618.7806, 608.5289
619.2628, 608.0743
619.7449, 608.4006
620.2270, 610.5546
620.7091, 613.4357
621.1912, 613.6563
621.6733, 610.0888
622.1555, 607.2250
622.6376, 605.8240
623.1197, 605.0710
623.6018, 604.6108
624.0839, 604.4545
624.5660, 604.7772
625.0482, 606.0602
625.5303, 607.1896
626.0124, 606.7704
626.4945, 605.2313
626.9766, 603.9904
627.4587, 603.3635
627.9409, 603.1772
628.4230, 603.3983
628.9051, 604.0113
629.3872, 604.0526
629.8693, 602.9827
630.3514, 602.1179
630.8336, 601.9584
631.3157, 601.9938
631.7978, 601.6306
632.2799, 600.8383
632.7620, 600.0853
633.2441, 599.8392
633.7263, 599.9053
634.2084, 599.4731
634.6905, 598.3975
635.1726, 597.3660
635.6547, 596.3291
636.1368, 595.6711
636.6190, 596.0150
637.1011, 597.2625
637.5832, 598.0244
638.0653, 597.5170
638.5474, 596.6713
639.0295, 596.3107
639.5117, 596.2304
639.9938, 595.8065
640.4759, 594.8293
640.9580, 593.6815
641.4401, 592.8591
641.9222, 592.3944
642.4044, 591.9569
642.8865, 591.6633
643.3686, 591.2516
643.8507, 590.2862
644.3328, 589.3838
644.8149, 589.2901
645.2971, 590.1014
645.7792, 591.1553
646.2613, 592.0991
646.7434, 592.8461
647.2255, 593.1071
647.7076, 592.8616
648.1898, 592.5245
648.6719, 592.2938
649.1540, 592.0305
649.6361, 591.3807
650.1182, 590.1469
650.6003, 589.5482
651.0825, 590.3471
651.5646, 591.1418
652.0467, 591.2396
652.5288, 590.7338
653.0109, 589.7312
653.4930, 588.3142
653.9752, 586.9280
654.4573, 586.1871
654.9394, 586.1028
655.4215, 586.2223
655.9036, 586.7609
656.3857, 587.0792
656.8679, 586.7115
657.3500, 586.0491
657.8321, 585.3983
658.3142, 584.7421
658.7963, 584.5391
659.2784, 585.5592
659.7606, 586.7596
660.2427, 586.8375
660.7248, 585.9643
661.2069, 585.1326
661.6890, 584.8053
662.1711, 584.7835
662.6533, 584.6989
663.1354, 584.4670
663.6175, 584.4675
664.0996, 584.9197
664.5817, 585.3649
665.0638, 585.5970
665.5460, 585.7609
666.0281, 586.1873
666.5102, 586.9728
666.9923, 587.4494
667.4744, 586.4973
667.9565, 584.9228
668.4387, 584.9847
668.9208, 586.8271
669.4029, 588.4111
669.8850, 588.6787
670.3671, 588.0623
670.8492, 587.3565
671.3314, 586.2888
671.8135, 585.8983
672.2956, 586.9443
672.7777, 587.9290
673.2598, 587.8631
673.7419, 587.2393
674.2241, 586.9882
674.7062, 587.4492
675.1883, 588.1365
675.6704, 588.4371
676.1525, 588.3989
676.6346, 588.4985
677.1168, 588.7581
677.5989, 589.1205
678.0810, 589.5060
678.5631, 590.0199
679.0452, 590.8926
679.5273, 592.2362
680.0095, 593.3720
680.4916, 594.4859
680.9737, 595.0229
681.4558, 594.1301
681.9379, 592.3649
682.4200, 590.9459
682.9022, 590.3793
683.3843, 590.4109
683.8664, 590.8411
684.3485, 591.7346
684.8306, 591.9619
685.3127, 591.0076
685.7949, 590.3030
686.2770, 590.7400
686.7591, 591.5656
687.2412, 592.0269
687.7233, 592.0417
688.2054, 591.8077
688.6876, 591.1315
689.1697, 590.4562
689.6518, 590.2763
690.1339, 590.5155
690.6160, 590.9004
691.0981, 591.3273
691.5803, 591.7342
692.0624, 592.0806
692.5445, 592.4138
693.0266, 592.2425
693.5087, 591.0120
693.9908, 590.0283
694.4730, 589.9504
694.9551, 590.0752
695.4372, 589.5322
695.9193, 588.2605
696.4014, 587.2499
696.8835, 587.3278
697.3657, 587.8312
697.8478, 587.9016
698.3299, 587.5927
698.8120, 587.2768
699.2941, 587.1029
699.7762, 586.7968
700.2584, 585.8961
700.7405, 584.2830
701.2226, 583.5931
701.7047, 584.7395
702.1868, 585.7105
702.6689, 586.1041
703.1511, 586.2032
703.6332, 586.2726
704.1153, 586.3415
704.5974, 586.3035
705.0795, 586.0700
705.5616, 585.7022
706.0438, 585.0967
706.5259, 584.3611
707.0080, 584.3832
707.4901, 585.5673
707.9722, 586.7148
708.4543, 586.4749
708.9365, 584.8837
709.4186, 583.9501
709.9007, 584.1718
710.3828, 584.3408
710.8649, 584.2625
711.3470, 584.0716
711.8292, 583.8744
712.3113, 583.6791
712.7934, 583.4427
713.2755, 583.1117
713.7576, 582.7856
714.2397, 582.6943
714.7219, 582.7851
715.2040, 582.6014
715.6861, 581.9954
716.1682, 581.4282
716.6503, 581.2576
717.1324, 581.4440
717.6146, 581.7726
718.0967, 582.6032
718.5788, 583.0614
719.0609, 583.0145
719.5430, 582.6312
720.0251, 581.7842
720.5073, 580.7201
720.9894, 579.9459
721.4715, 579.7020
721.9536, 579.8210
722.4357, 580.4268
722.9178, 581.3073
723.4000, 580.8688
723.8821, 578.6628
724.3642, 577.0709
724.8463, 577.7096
725.3284, 579.7593
725.8105, 581.1996
726.2927, 582.0518
726.7748, 582.2656
727.2569, 581.3888
727.7390, 580.3230
728.2211, 579.2401
728.7032, 578.4168
729.1854, 578.4082
729.6675, 579.3505
730.1496, 580.3691
730.6317, 580.3835
731.1138, 579.7141
731.5959, 579.6223
732.0781, 580.1740
732.5602, 580.6433
733.0423, 580.6973
733.5244, 580.6067
734.0065, 580.7883
734.4886, 581.3184
734.9708, 581.6456
735.4529, 581.1905
735.9350, 581.2208
736.4171, 582.6462
736.8992, 584.5054
737.3813, 585.8380
737.8635, 586.4423
738.3456, 586.5243
738.8277, 586.0039
739.3098, 585.2971
739.7919, 585.4791
740.2740, 586.4590
740.7562, 586.7086
741.2383, 585.6813
741.7204, 584.5066
742.2025, 584.2390
742.6846, 584.7863
743.1667, 585.1641
743.6489, 584.9680
744.1310, 585.1836
744.6131, 586.5197
745.0952, 587.7984
745.5773, 587.9186
746.0594, 587.2247
746.5416, 586.8458
747.0237, 587.3482
747.5058, 588.1481
747.9879, 588.5034
748.4700, 588.5560
748.9521, 588.8452
749.4343, 589.4334
749.9164, 590.0927
750.3985, 590.7037
750.8806, 591.2850
751.3627, 591.9203
751.8448, 592.8048
752.3270, 593.1956
752.8091, 592.7947
753.2912, 592.2723
753.7733, 591.7054
754.2554, 591.2644
754.7375, 591.1988
755.2197, 591.5477
755.7018, 591.9898
756.1839, 592.3068
756.6660, 592.5610
757.1481, 592.8822
757.6302, 593.2490
758.1124, 593.4376
758.5945, 593.3436
759.0766, 593.3984
759.5587, 594.1375
760.0408, 595.5426
760.5229, 596.7344
761.0051, 597.2535
761.4872, 598.2771
761.9693, 601.1583
762.4514, 603.5499
762.9335, 603.1309
763.4156, 600.6896
763.8978, 599.2108
764.3799, 600.2543
764.8620, 601.7369
765.3441, 601.9901
765.8262, 601.4905
766.3083, 600.9855
766.7905, 600.6138
767.2726, 600.5585
767.7547, 600.9919
768.2368, 601.5067
768.7189, 600.9584
769.2010, 598.7123
769.6832, 597.8105
770.1653, 599.1841
770.6474, 600.6176
771.1295, 601.1326
771.6116, 601.1904
772.0938, 601.4287
772.5759, 601.9523
773.0580, 602.0599
773.5401, 601.0388
774.0222, 599.9091
774.5043, 599.6931
774.9865, 599.9413
775.4686, 599.6198
775.9507, 598.5084
776.4328, 597.3680
776.9149, 596.9937
777.3970, 597.1733
777.8792, 596.8998
778.3613, 596.0837
778.8434, 595.2839
779.3255, 594.5309
779.8076, 593.9735
780.2897, 593.9746
780.7719, 594.3132
781.2540, 594.0204
781.7361, 592.2153
782.2182, 591.1214
782.7003, 592.1436
783.1824, 593.3444
783.6646, 592.9997
784.1467, 591.5060
784.6288, 590.1506
785.1109, 589.4802
785.5930, 589.1568
786.0751, 588.8813
786.5573, 588.6130
787.0394, 588.0647
787.5215, 587.2064
788.0036, 586.7923
788.4857, 587.3304
788.9678, 588.0294
789.4500, 587.6669
789.9321, 586.0510
790.4142, 584.9145
790.8963, 584.8505
791.3784, 584.4748
791.8605, 583.2886
792.3427, 581.8298
792.8248, 580.5276
793.3069, 579.4063
793.7890, 578.2659
794.2711, 576.9207
794.7532, 575.6774
795.2354, 574.9113
795.7175, 574.4379
796.1996, 574.0687
796.6817, 573.6844
797.1638, 572.6121
797.6459, 570.3725
798.1281, 567.4948
798.6102, 565.1115
799.0923, 563.1711
799.5744, 562.0445
800.0565, 562.5227
800.5386, 562.5558
801.0208, 560.9225
801.5029, 558.5561
801.9850, 556.3615
802.4671, 554.3809
802.9492, 552.8171
803.4313, 552.0955
803.9135, 551.4255
804.3956, 549.9944
804.8777, 548.4735
805.3598, 548.1020
805.8419, 548.8669
806.3240, 549.4160
806.8062, 548.6946
807.2883, 547.2005
807.7704, 546.0858
808.2525, 545.3061
808.7346, 543.8041
809.2167, 541.1678
809.6989, 539.0042
810.1810, 538.5442
810.6631, 539.1833
811.1452, 539.2529
811.6273, 538.2957
812.1094, 537.8187
812.5916, 538.7067
813.0737, 539.0706
813.5558, 537.5677
814.0379, 535.3830
814.5200, 534.0140
815.0021, 533.7238
815.4843, 533.8686
815.9664, 534.1714
816.4485, 534.6183
816.9306, 535.3884
817.4127, 536.2640
817.8948, 536.8295
818.3770, 536.9485
818.8591, 536.1422
819.3412, 533.8328
819.8233, 530.7795
820.3054, 529.6572
820.7875, 531.0507
821.2697, 531.6765
821.7518, 530.9192
822.2339, 529.9354
822.7160, 529.3425
823.1981, 528.9581
823.6802, 528.4269
824.1624, 527.6570
824.6445, 527.1557
825.1266, 527.2543
825.6087, 527.4067
826.0908, 527.1158
826.5729, 526.7938
827.0551, 526.9765
827.5372, 527.7790
828.0193, 529.1754
828.5014, 531.7178
828.9835, 534.0518
829.4656, 533.3502
829.9478, 530.2695
830.4299, 527.8397
830.9120, 526.5911
831.3941, 526.2718
831.8762, 526.9280
832.3583, 527.9715
832.8404, 527.6909
833.3225, 525.2534
833.8046, 523.8756
834.2867, 524.1891
834.7689, 524.7609
835.2510, 525.1992
835.7331, 525.5311
836.2152, 525.9387
836.6973, 526.4172
837.1794, 526.2457
837.6616, 524.2628
838.1437, 522.5789
838.6258, 522.8958
839.1079, 524.0757
839.5900, 524.5233
840.0721, 524.1401
840.5543, 523.8405
841.0364, 524.2303
841.5185, 524.8739
842.0006, 525.0744
842.4827, 524.8710
842.9648, 524.4347
843.4470, 523.7543
843.9291, 523.1541
844.4112, 522.7274
844.8933, 522.6456
845.3754, 523.3212
845.8575, 524.9993
846.3397, 525.8843
846.8218, 525.6203
847.3039, 525.0219
847.7860, 523.9750
848.2681, 522.8748
848.7502, 522.0173
849.2324, 521.3971
849.7145, 520.8696
850.1966, 520.2245
850.6787, 519.9645
851.1608, 520.8648
851.6429, 521.9597
852.1251, 521.8986
852.6072, 521.0236
853.0893, 520.7672
853.5714, 521.7281
854.0535, 522.8391
854.5356, 522.5330
855.0178, 521.2231
855.4999, 521.0280
855.9820, 521.9890
856.4641, 522.2818
856.9462, 521.2391
857.4283, 519.8514
857.9105, 519.0278
858.3926, 518.7421
858.8747, 518.7813
859.3568, 519.5700
859.8389, 519.9428
860.3210, 519.5719
860.8032, 519.0693
861.2853, 518.6015
861.7674, 518.2468
862.2495, 518.1409
862.7316, 518.3262
863.2137, 518.5534
863.6959, 518.8217
864.1780, 518.9871
864.6601, 518.7984
865.1422, 518.4819
865.6243, 518.6016
866.1064, 519.1141
866.5886, 519.1046
867.0707, 517.7067
867.5528, 515.9078
868.0349, 515.6409
868.5170, 516.6746
868.9991, 517.7454
869.4813, 518.7305
869.9634, 518.9307
870.4455, 517.7963
870.9276, 516.1138
871.4097, 515.3499
871.8918, 515.6647
872.3740, 515.8107
872.8561, 515.6721
873.3382, 515.5678
873.8203, 515.5923
874.3024, 515.6823
874.7845, 515.7936
875.2667, 515.9292
875.7488, 516.1121
876.2309, 516.4468
876.7130, 516.6511
877.1951, 516.5197
877.6772, 516.3013
878.1594, 516.2537
878.6415, 516.2710
879.1236, 515.9797
879.6057, 515.2913
880.0878, 514.8361
880.5699, 515.4708
881.0521, 516.5706
881.5342, 516.9265
882.0163, 516.7154
882.4984, 516.6957
882.9805, 517.0392
883.4626, 517.3225
883.9448, 517.0981
884.4269, 516.8661
884.9090, 518.5123
885.3911, 522.7442
885.8732, 524.6480
886.3553, 523.1271
886.8375, 521.2664
887.3196, 520.4337
887.8017, 520.0507
888.2838, 519.1584
888.7659, 517.6733
889.2480, 516.7674
889.7302, 516.9769
890.2123, 517.0916
890.6944, 516.5434
891.1765, 516.0169
891.6586, 516.1346
892.1407, 516.7530
892.6229, 517.3264
893.1050, 517.6250
893.5871, 518.1065
894.0692, 519.7067
894.5513, 521.1774
895.0334, 520.5719
895.5156, 518.7079
895.9977, 517.7494
896.4798, 518.2556
896.9619, 519.1032
897.4440, 519.2775
897.9261, 519.1283
898.4083, 519.4651
898.8904, 520.2733
899.3725, 521.5645
899.8546, 523.4089
900.3367, 525.0621
900.8188, 526.1705
901.3010, 526.6194
901.7831, 526.0841
902.2652, 524.3409
902.7473, 522.9719
903.2294, 521.7806
903.7115, 521.3190
904.1937, 522.2689
904.6758, 523.5490
905.1579, 524.4346
905.6400, 524.8996
906.1221, 524.8201
906.6042, 523.7802
907.0864, 522.9466
907.5685, 522.4189
908.0506, 522.3810
908.5327, 523.2522
909.0148, 524.5758
909.4969, 525.6503
909.9791, 526.3185
910.4612, 526.9553
910.9433, 528.1483
911.4254, 529.0936
911.9075, 528.4612
912.3896, 527.1096
912.8718, 526.8895
913.3539, 527.8674
913.8360, 528.7222
914.3181, 528.6920
914.8002, 528.4509
915.2823, 529.3239
915.7645, 531.0552
916.2466, 531.6979
916.7287, 531.2001
917.2108, 530.0268
917.6929, 528.0933
918.1750, 526.5659
918.6572, 526.8102
919.1393, 528.3784
919.6214, 528.4849
920.1035, 525.8229
920.5856, 524.9682
921.0677, 527.6746
921.5499, 530.1705
922.0320, 530.5023
922.5141, 529.6657
922.9962, 528.8840
923.4783, 528.1987
923.9604, 527.3644
924.4426, 525.9045
924.9247, 524.8558
925.4068, 524.7057
925.8889, 524.9904
926.3710, 525.5917
926.8531, 526.2383
927.3353, 526.3890
927.8174, 525.8439
928.2995, 524.9688
928.7816, 523.5623
929.2637, 522.3232
929.7458, 522.2089
930.2280, 522.7964
930.7101, 523.1216
931.1922, 523.0201
931.6743, 523.0640
932.1564, 523.7557
932.6385, 524.5475
933.1207, 524.2659
933.6028, 523.2300
934.0849, 522.9563
934.5670, 523.5304
935.0491, 523.9172
935.5313, 523.6683
936.0134, 523.1174
936.4955, 522.6656
936.9776, 522.2991
937.4597, 521.8107
937.9418, 521.0887
938.4240, 520.7581
938.9061, 521.0723
939.3882, 521.4504
939.8703, 521.4124
940.3524, 521.2731
940.8345, 521.8431
941.3167, 523.5781
941.7988, 524.2909
942.2809, 523.0024
942.7630, 522.0185
943.2451, 521.8663
943.7272, 522.2263
944.2094, 523.2458
944.6915, 524.5494
945.1736, 524.8947
945.6557, 523.4305
946.1378, 522.5900
946.6199, 524.2079
947.1021, 525.7831
947.5842, 525.1223
948.0663, 523.4659
948.5484, 522.7910
949.0305, 523.3622
949.5126, 524.0426
949.9948, 524.2712
950.4769, 524.1862
950.9590, 523.7971
951.4411, 523.2551
951.9232, 522.6851
952.4053, 522.1954
952.8875, 522.1135
953.3696, 522.5432
953.8517, 523.0731
954.3338, 523.2293
954.8159, 523.1911
955.2980, 523.4830
955.7802, 524.0448
956.2623, 524.4745
956.7444, 524.7013
957.2265, 524.6755
957.7086, 524.2549
958.1907, 524.1155
958.6729, 525.7950
959.1550, 529.3765
959.6371, 530.9520
960.1192, 529.9404
960.6013, 529.3520
961.0834, 530.0441
961.5656, 531.1625
962.0477, 532.2943
962.5298, 533.1736
963.0119, 532.7893
963.4940, 530.3139
963.9761, 528.6649
964.4583, 528.1292
964.9404, 528.0543
965.4225, 528.2882
965.9046, 528.8455
966.3867, 529.9885
966.8688, 531.5536
967.3510, 532.5665
967.8331, 532.7137
968.3152, 532.6402
968.7973, 531.8860
969.2794, 531.5793
969.7615, 532.8958
970.2437, 534.8344
970.7258, 536.0396
971.2079, 536.2994
971.6900, 536.0905
972.1721, 534.8278
972.6542, 534.2570
973.1364, 536.5294
973.6185, 539.2821
974.1006, 539.6227
974.5827, 538.2134
975.0648, 536.9617
975.5469, 536.5649
976.0291, 537.3162
976.5112, 540.7541
976.9933, 544.2703
977.4754, 543.7829
977.9575, 540.7770
978.4396, 538.0930
978.9218, 536.3249
979.4039, 535.8800
979.8860, 536.9701
980.3681, 538.5831
980.8502, 539.5704
981.3323, 539.9459
981.8145, 539.5617
982.2966, 538.5169
982.7787, 537.5491
983.2608, 536.8230
983.7429, 536.3550
984.2250, 536.1398
984.7072, 536.2624
985.1893, 537.0928
985.6714, 538.6752
986.1535, 539.3326
986.6356, 538.9352
987.1177, 538.3092
987.5999, 537.6002
988.0820, 536.9413
988.5641, 536.4256
989.0462, 536.0658
989.5283, 535.9529
990.0104, 536.2502
990.4926, 536.2331
990.9747, 535.6439
991.4568, 535.2346
991.9389, 535.3615
992.4210, 535.6515
992.9031, 535.7128
993.3853, 535.5963
993.8674, 535.6500
994.3495, 536.4015
994.8316, 536.4396
995.3137, 534.9088
995.7958, 533.6528
996.2780, 533.6213
996.7601, 534.0999
997.2422, 534.3824
997.7243, 534.4245
998.2064, 534.3090
998.6885, 533.8845
999.1707, 533.5648
999.6528, 533.6021
1000.135, 533.6149
1000.617, 533.3171
1001.099, 532.8550
1001.581, 532.3958
1002.063, 531.9881
1002.545, 531.7980
1003.028, 532.3021
1003.510, 532.4374
1003.992, 531.1138
1004.474, 529.5961
1004.956, 529.0774
1005.438, 529.3255
1005.920, 529.7344
1006.402, 530.1246
1006.885, 530.5071
1007.367, 531.0511
1007.849, 531.3817
1008.331, 531.0480
1008.813, 530.3459
1009.295, 529.6285
1009.777, 528.9401
1010.259, 527.9969
1010.741, 526.7919
1011.224, 526.4344
1011.706, 528.7231
1012.188, 531.5194
1012.670, 531.1230
1013.152, 528.8462
1013.634, 527.6190
1014.116, 527.6918
1014.598, 528.3372
1015.081, 529.2120
1015.563, 529.8895
1016.045, 529.8304
1016.527, 529.2767
1017.009, 528.6894
1017.491, 528.1348
1017.973, 528.0858
1018.455, 528.5355
1018.937, 528.5316
1019.420, 527.5519
1019.902, 526.5281
1020.384, 526.7561
1020.866, 528.0128
1021.348, 529.6406
1021.830, 531.5753
1022.312, 531.4984
1022.794, 528.9006
1023.276, 526.7626
1023.759, 526.7579
1024.241, 528.1771
1024.723, 530.2326
1025.205, 532.7640
1025.687, 533.0665
1026.169, 530.8174
1026.651, 528.9156
1027.133, 527.7756
1027.616, 527.5695
1028.098, 528.6198
1028.580, 530.1622
1029.062, 530.6891
1029.544, 530.1453
1030.026, 530.9564
1030.508, 533.9271
1030.990, 535.2013
1031.473, 533.2657
1031.955, 531.5396
1032.437, 532.5809
1032.919, 534.6951
1033.401, 534.5269
1033.883, 531.7735
1034.365, 529.7626
1034.847, 528.4023
1035.329, 528.0378
1035.812, 529.2980
1036.294, 530.7189
1036.776, 531.5170
1037.258, 531.7752
1037.740, 531.5725
1038.222, 530.8046
1038.704, 530.2349
1039.186, 529.7268
1039.668, 529.6409
1040.151, 530.3625
1040.633, 531.1472
1041.115, 531.4569
1041.597, 531.5452
1042.079, 531.9337
1042.561, 532.6974
1043.043, 533.2587
1043.525, 533.3175
1044.008, 533.5811
1044.490, 534.6464
1044.972, 535.4593
1045.454, 535.1392
1045.936, 534.2201
1046.418, 533.6573
1046.900, 533.5366
1047.382, 533.5126
1047.865, 533.4802
1048.347, 533.6391
1048.829, 534.2615
1049.311, 534.8593
1049.793, 534.9864
1050.275, 534.9300
1050.757, 535.4733
1051.239, 536.7626
1051.721, 536.8054
1052.203, 533.3395
1052.686, 531.1965
1053.168, 532.9420
1053.650, 535.2404
1054.132, 535.9417
1054.614, 535.5667
1055.096, 534.9563
1055.578, 534.2460
1056.060, 534.1985
1056.543, 535.8781
1057.025, 537.0490
1057.507, 536.7526
1057.989, 535.9616
1058.471, 535.0568
1058.953, 534.2831
1059.435, 533.9916
1059.917, 534.1975
1060.400, 534.3897
1060.882, 534.5790
1061.364, 534.4880
1061.846, 533.5770
1062.328, 532.7977
1062.810, 532.8533
1063.292, 533.4926
1063.774, 534.4707
1064.256, 535.6483
1064.739, 536.4345
1065.221, 536.6248
1065.703, 536.3800
1066.185, 535.0600
1066.667, 534.0531
1067.149, 535.0414
1067.631, 536.5907
1068.113, 536.2454
1068.595, 534.1136
1069.078, 532.9167
1069.560, 534.0312
1070.042, 535.2690
1070.524, 535.9603
1071.006, 536.1089
1071.488, 535.2885
1071.970, 534.1990
1072.452, 533.6047
1072.935, 533.6366
1073.417, 534.3305
1073.899, 536.0699
1074.381, 537.3397
1074.863, 536.6619
1075.345, 536.1085
1075.827, 537.6711
1076.309, 539.7708
1076.792, 540.4438
1077.274, 539.7195
1077.756, 538.5658
1078.238, 537.1039
1078.720, 536.0926
1079.202, 536.1334
1079.684, 536.4593
1080.166, 536.6885
1080.648, 536.8678
1081.130, 536.9480
1081.613, 537.0647
1082.095, 537.6594
1082.577, 538.9417
1083.059, 539.8671
1083.541, 539.6846
1084.023, 539.3753
1084.505, 539.5936
1084.987, 539.8736
1085.469, 539.5339
1085.952, 538.9241
1086.434, 538.9976
1086.916, 539.9878
1087.398, 540.8131
1087.880, 541.0110
1088.362, 540.9589
1088.844, 540.4659
1089.326, 540.1423
1089.809, 540.3732
1090.291, 541.2117
1090.773, 543.2476
1091.255, 546.3777
1091.737, 547.7344
1092.219, 544.4385
1092.701, 541.7707
1093.183, 542.1095
1093.666, 543.4350
1094.148, 544.9006
1094.630, 546.0634
1095.112, 546.4529
1095.594, 546.0571
1096.076, 545.1623
1096.558, 543.1915
1097.040, 542.0571
1097.522, 543.0887
1098.005, 544.3341
1098.487, 544.4891
1098.969, 544.3616
1099.451, 545.0895
1099.933, 546.5011
1100.415, 547.4822
1100.897, 547.6726
1101.379, 547.7790
1101.861, 547.7555
1102.344, 547.9566
1102.826, 549.1064
1103.308, 550.0593
1103.790, 549.1992
1104.272, 547.3605
1104.754, 546.9987
1105.236, 548.7350
1105.718, 550.3089
1106.201, 551.3265
1106.683, 552.1275
1107.165, 552.7617
1107.647, 553.2676
1108.129, 553.7048
1108.611, 554.0176
1109.093, 554.0234
1109.575, 553.6790
1110.057, 553.5853
1110.540, 554.0971
1111.022, 554.4189
1111.504, 553.6213
1111.986, 553.5358
1112.468, 555.8897
1112.950, 558.9703
1113.432, 560.5566
1113.914, 560.6903
1114.396, 560.5120
1114.879, 559.4681
1115.361, 559.0773
1115.843, 560.0808
1116.325, 560.6673
1116.807, 559.4696
1117.289, 558.3884
1117.771, 559.3172
1118.253, 561.8347
1118.736, 564.4218
1119.218, 567.5333
1119.700, 569.1462
1120.182, 568.4861
1120.664, 567.9362
1121.146, 567.9119
1121.628, 568.4390
1122.110, 569.6878
1122.593, 571.3447
1123.075, 572.7536
1123.557, 573.8975
1124.039, 575.0325
1124.521, 576.1946
1125.003, 577.1543
1125.485, 577.7615
1125.967, 578.5421
1126.449, 579.8243
1126.932, 581.2798
1127.414, 582.4489
1127.896, 583.3981
1128.378, 584.6847
1128.860, 586.4093
1129.342, 587.2893
1129.824, 587.0544
1130.306, 587.5286
1130.788, 589.4766
1131.271, 591.5716
1131.753, 592.5369
1132.235, 592.8266
1132.717, 593.4808
1133.199, 594.5068
1133.681, 596.1833
1134.163, 598.4861
1134.645, 600.6164
1135.128, 602.3837
1135.610, 603.7105
1136.092, 604.5170
1136.574, 605.2225
1137.056, 606.4833
1137.538, 608.1493
1138.020, 609.8272
1138.502, 611.4678
1138.984, 612.6412
1139.467, 613.4359
1139.949, 614.6924
1140.431, 616.7422
1140.913, 619.0987
1141.395, 621.4795
1141.877, 623.5682
1142.359, 624.5709
1142.841, 625.0453
1143.323, 626.0313
1143.806, 627.5319
1144.288, 629.3635
1144.770, 631.4155
1145.252, 633.4285
1145.734, 635.1847
1146.216, 637.1274
1146.698, 640.1656
1147.180, 643.1849
1147.663, 644.7843
1148.145, 645.5363
1148.627, 646.1639
1149.109, 646.9504
1149.591, 648.1755
1150.073, 649.9427
1150.555, 652.2529
1151.037, 655.9004
1151.520, 659.1346
1152.002, 660.7828
1152.484, 661.5514
1152.966, 661.2324
1153.448, 660.9228
1153.930, 662.7418
1154.412, 666.6759
1154.894, 669.8127
1155.376, 670.5569
1155.859, 671.7867
1156.341, 674.5881
1156.823, 677.8215
1157.305, 681.4213
1157.787, 684.7725
1158.269, 687.3085
1158.751, 689.1100
1159.233, 690.4471
1159.715, 691.1683
1160.198, 692.1309
1160.680, 693.3587
1161.162, 694.8694
1161.644, 696.9016
1162.126, 698.9261
1162.608, 700.6123
1163.090, 702.1318
1163.572, 703.6414
1164.055, 705.1741
1164.537, 707.3585
1165.019, 710.5455
1165.501, 713.2586
1165.983, 715.3080
1166.465, 717.1738
1166.947, 718.9899
1167.429, 720.7653
1167.911, 722.5116
1168.394, 724.2257
1168.876, 725.9715
1169.358, 727.7468
1169.840, 729.0856
1170.322, 729.9786
1170.804, 731.0563
1171.286, 732.4401
1171.768, 734.2344
1172.250, 736.5150
1172.733, 739.0530
1173.215, 741.7448
1173.697, 744.2451
1174.179, 745.3422
1174.661, 745.5131
1175.143, 746.2994
1175.625, 747.7586
1176.107, 749.6456
1176.590, 751.8080
1177.072, 753.8464
1177.554, 755.5374
1178.036, 756.8470
1178.518, 757.3600
1179.000, 757.7709
1179.482, 759.1182
1179.964, 760.9493
1180.447, 762.6791
1180.929, 764.1162
1181.411, 764.8698
1181.893, 764.8682
1182.375, 765.3365
1182.857, 767.4529
1183.339, 769.5940
1183.821, 770.5989
1184.303, 771.5130
1184.786, 773.5162
1185.268, 775.7371
1185.750, 776.5525
1186.232, 776.2406
1186.714, 776.9946
1187.196, 779.7020
1187.678, 782.0377
1188.160, 783.5662
1188.642, 784.6957
1189.125, 785.4189
1189.607, 785.8922
1190.089, 786.1513
1190.571, 786.2711
1191.053, 786.3142
1191.535, 786.2877
1192.017, 786.6865
1192.499, 787.8022
1192.982, 788.4148
1193.464, 788.1487
1193.946, 788.4026
1194.428, 789.7840
1194.910, 791.5193
1195.392, 793.0139
1195.874, 794.1793
1196.356, 794.6830
1196.839, 794.5869
1197.321, 794.6780
1197.803, 794.9717
1198.285, 796.1091
1198.767, 798.0316
1199.249, 798.4100
1199.731, 796.2422
1200.213, 794.6884
1200.695, 797.3439
1201.177, 801.5193
1201.660, 802.8446
1202.142, 802.3971
1202.624, 801.9992
1203.106, 801.7820
1203.588, 801.6530
1204.070, 801.6114
1204.552, 801.7708
1205.034, 802.2068
1205.517, 802.6188
1205.999, 802.5447
1206.481, 802.6859
1206.963, 804.1477
1207.445, 805.5226
1207.927, 804.9402
1208.409, 803.5216
1208.891, 803.5242
1209.374, 805.0341
1209.856, 805.9391
1210.338, 804.9868
1210.820, 805.0436
1211.302, 807.6329
1211.784, 809.8512
1212.266, 810.4800
1212.748, 810.5982
1213.230, 810.5770
1213.713, 810.8170
1214.195, 812.3314
1214.677, 815.1412
1215.159, 816.5378
1215.641, 816.2120
1216.123, 815.8105
1216.605, 815.4629
1217.087, 815.1125
1217.569, 814.7166
1218.052, 814.4527
1218.534, 814.4175
1219.016, 814.8598
1219.498, 816.6725
1219.980, 819.3693
1220.462, 820.7414
1220.944, 821.0397
1221.426, 821.1390
1221.909, 821.3242
1222.391, 822.2534
1222.873, 824.1011
1223.355, 825.8660
1223.837, 826.6594
1224.319, 827.3223
1224.801, 828.4125
1225.283, 830.1234
1225.766, 833.5141
1226.248, 837.1236
1226.730, 838.2723
1227.212, 837.6495
1227.694, 838.2728
1228.176, 840.9838
1228.658, 843.9099
1229.140, 846.8660
1229.622, 849.3010
1230.104, 850.4501
1230.587, 851.7006
1231.069, 853.9535
1231.551, 856.6123
1232.033, 859.0070
1232.515, 861.2375
1232.997, 863.7156
1233.479, 866.5328
1233.961, 869.1361
1234.444, 871.5273
1234.926, 873.7275
1235.408, 875.7191
1235.890, 877.5018
1236.372, 878.9368
1236.854, 881.2025
1237.336, 885.9528
1237.818, 891.7475
1238.301, 894.7626
1238.783, 895.7032
1239.265, 897.1865
1239.747, 899.2137
1240.229, 901.0755
1240.711, 902.8571
1241.193, 905.8301
1241.675, 910.5304
1242.157, 915.1120
1242.640, 917.5522
1243.122, 919.9952
1243.604, 924.8590
1244.086, 930.1349
1244.568, 933.7997
1245.050, 936.5859
1245.532, 939.5641
1246.014, 942.8906
1246.496, 946.4941
1246.979, 950.4902
1247.461, 954.1083
1247.943, 956.5312
1248.425, 959.6516
1248.907, 964.8134
1249.389, 969.3283
1249.871, 971.6698
1250.353, 973.1204
1250.836, 974.6951
1251.318, 976.8379
1251.800, 981.7264
1252.282, 989.7158
1252.764, 994.3981
1253.246, 995.6949
1253.728, 997.5289
1254.210, 1000.598
1254.693, 1004.480
1255.175, 1008.981
1255.657, 1014.234
1256.139, 1020.792
1256.621, 1026.946
1257.103, 1029.444
1257.585, 1030.290
1258.067, 1032.570
1258.549, 1035.744
1259.031, 1038.599
1259.514, 1041.059
1259.996, 1043.281
1260.478, 1045.330
1260.960, 1048.729
1261.442, 1055.684
1261.924, 1061.815
1262.406, 1064.857
1262.888, 1067.602
1263.371, 1071.857
1263.853, 1076.244
1264.335, 1079.288
1264.817, 1081.399
1265.299, 1083.380
1265.781, 1085.146
1266.263, 1088.364
1266.745, 1093.353
1267.228, 1098.353
1267.710, 1103.321
1268.192, 1107.021
1268.674, 1108.933
1269.156, 1111.044
1269.638, 1115.010
1270.120, 1119.466
1270.602, 1121.797
1271.084, 1123.258
1271.567, 1127.266
1272.049, 1129.284
1272.531, 1132.124
1273.013, 1135.490
1273.495, 1137.937
1273.977, 1142.559
1274.459, 1146.055
1274.941, 1146.443
1275.423, 1147.498
1275.906, 1151.598
1276.388, 1156.047
1276.870, 1159.924
1277.352, 1163.304
1277.834, 1166.165
1278.316, 1168.673
1278.798, 1170.909
1279.280, 1172.990
1279.763, 1175.573
1280.245, 1178.700
1280.727, 1181.745
1281.209, 1184.742
1281.691, 1188.353
1282.173, 1192.740
1282.655, 1197.107
1283.137, 1201.072
1283.620, 1205.186
1284.102, 1210.083
1284.584, 1214.854
1285.066, 1218.235
##END=



