##NAMES=Anthophyllite
##RRUFFID=R070245
##IDEAL CHEMISTRY=[box]Mg_2_Mg_5_Si_8_O_22_(OH)_2_
##LOCALITY=Shartash, Zlatoust, Ilmen Mts, Chelyabinsk Oblast', Urals Region, Russia
##OWNER=RRUFF
##SOURCE=Michael Scott
##DESCRIPTION=Translucent to transparent grey bladed crystals with satin luster (fibrous appearance) associated with hematite
##STATUS=The identification of this mineral has been confirmed only by single crystal X-ray diffraction.
##URL=rruff.info/R070245
172.6059, 11402.89
173.0880, 11481.75
173.5701, 11568.07
174.0522, 11674.71
174.5344, 11794.64
175.0165, 11917.94
175.4986, 12044.32
175.9807, 12168.94
176.4628, 12276.08
176.9449, 12348.31
177.4271, 12436.25
177.9092, 12557.94
178.3913, 12704.28
178.8734, 12864.61
179.3555, 13038.50
179.8376, 13220.86
180.3197, 13396.99
180.8019, 13557.21
181.2840, 13729.19
181.7661, 13918.75
182.2482, 14123.85
182.7303, 14342.63
183.2124, 14576.45
183.6946, 14820.19
184.1767, 15060.37
184.6588, 15296.08
185.1409, 15526.52
185.6230, 15792.64
186.1051, 16039.90
186.5873, 16207.15
187.0694, 16264.01
187.5515, 16229.44
188.0336, 16146.15
188.5157, 15980.93
188.9978, 15823.32
189.4800, 15679.00
189.9621, 15557.12
190.4442, 15466.72
190.9263, 15413.30
191.4084, 15390.83
191.8905, 15385.54
192.3727, 15399.70
192.8548, 15429.65
193.3369, 15482.55
193.8190, 15544.27
194.3011, 15600.50
194.7832, 15645.45
195.2654, 15686.04
195.7475, 15738.00
196.2296, 15812.36
196.7117, 15877.96
197.1938, 15934.09
197.6759, 15979.91
198.1581, 16010.21
198.6402, 16023.97
199.1223, 16032.36
199.6044, 16058.74
200.0865, 16121.33
200.5686, 16164.85
201.0508, 16184.99
201.5329, 16188.18
202.0150, 16176.91
202.4971, 16152.48
202.9792, 16118.16
203.4613, 16075.66
203.9435, 16011.75
204.4256, 15971.02
204.9077, 15980.11
205.3898, 15992.27
205.8719, 15975.00
206.3540, 15922.37
206.8362, 15851.66
207.3183, 15787.43
207.8004, 15740.65
208.2825, 15672.34
208.7646, 15574.70
209.2467, 15464.42
209.7289, 15352.59
210.2110, 15239.92
210.6931, 15116.80
211.1752, 14965.48
211.6573, 14769.29
212.1395, 14610.51
212.6216, 14517.22
213.1037, 14435.15
213.5858, 14338.97
214.0679, 14228.85
214.5500, 14119.11
215.0322, 14022.53
215.5143, 13939.11
215.9964, 13871.59
216.4785, 13829.85
216.9606, 13794.24
217.4427, 13759.15
217.9249, 13723.97
218.4070, 13688.83
218.8891, 13651.88
219.3712, 13612.57
219.8533, 13591.14
220.3354, 13616.11
220.8176, 13631.82
221.2997, 13615.69
221.7818, 13578.55
222.2639, 13544.77
222.7460, 13533.18
223.2281, 13540.38
223.7103, 13530.48
224.1924, 13481.64
224.6745, 13438.51
225.1566, 13418.06
225.6387, 13407.58
226.1208, 13386.89
226.6030, 13343.58
227.0851, 13283.39
227.5672, 13230.14
228.0493, 13184.32
228.5314, 13145.70
229.0135, 13130.35
229.4957, 13116.00
229.9778, 13073.56
230.4599, 12989.12
230.9420, 12880.99
231.4241, 12794.56
231.9062, 12746.20
232.3884, 12692.78
232.8705, 12622.55
233.3526, 12549.18
233.8347, 12479.60
234.3168, 12417.09
234.7989, 12368.41
235.2811, 12349.56
235.7632, 12378.23
236.2453, 12394.84
236.7274, 12383.54
237.2095, 12367.66
237.6916, 12360.38
238.1738, 12365.13
238.6559, 12380.11
239.1380, 12402.63
239.6201, 12431.55
240.1022, 12473.08
240.5843, 12535.84
241.0665, 12604.34
241.5486, 12671.03
242.0307, 12736.27
242.5128, 12805.09
242.9949, 12875.89
243.4770, 12945.90
243.9592, 13054.95
244.4413, 13265.98
244.9234, 13458.36
245.4055, 13600.62
245.8876, 13688.64
246.3697, 13719.58
246.8519, 13676.77
247.3340, 13570.18
247.8161, 13494.40
248.2982, 13478.97
248.7803, 13455.29
249.2624, 13384.12
249.7446, 13291.85
250.2267, 13223.46
250.7088, 13207.43
251.1909, 13225.47
251.6730, 13221.89
252.1551, 13179.39
252.6373, 13150.88
253.1194, 13166.73
253.6015, 13198.24
254.0836, 13212.71
254.5657, 13195.96
255.0478, 13167.43
255.5300, 13158.02
256.0121, 13171.52
256.4942, 13190.13
256.9763, 13193.21
257.4584, 13208.94
257.9406, 13263.96
258.4227, 13364.66
258.9048, 13484.35
259.3869, 13598.83
259.8690, 13708.15
260.3511, 13816.78
260.8333, 13938.04
261.3154, 14047.51
261.7975, 14134.13
262.2796, 14196.24
262.7617, 14229.33
263.2438, 14230.18
263.7260, 14199.22
264.2081, 14138.17
264.6902, 14042.57
265.1723, 13921.48
265.6544, 13774.66
266.1365, 13608.44
266.6187, 13445.50
267.1008, 13295.47
267.5829, 13156.00
268.0650, 13021.17
268.5471, 12889.51
269.0292, 12767.46
269.5114, 12661.66
269.9935, 12569.10
270.4756, 12486.67
270.9577, 12416.29
271.4398, 12353.56
271.9219, 12290.90
272.4041, 12227.85
272.8862, 12178.56
273.3683, 12154.78
273.8504, 12148.07
274.3325, 12142.06
274.8146, 12141.74
275.2968, 12131.63
275.7789, 12084.21
276.2610, 12013.12
276.7431, 11978.75
277.2252, 12013.81
277.7073, 12080.21
278.1895, 12115.92
278.6716, 12119.39
279.1537, 12110.38
279.6358, 12080.32
280.1179, 12045.79
280.6000, 12034.67
281.0822, 12053.19
281.5643, 12094.85
282.0464, 12162.24
282.5285, 12258.78
283.0106, 12332.43
283.4927, 12355.27
283.9749, 12366.66
284.4570, 12401.46
284.9391, 12462.34
285.4212, 12535.48
285.9033, 12612.65
286.3854, 12693.11
286.8676, 12763.10
287.3497, 12792.46
287.8318, 12841.33
288.3139, 12955.27
288.7960, 13114.34
289.2781, 13260.21
289.7603, 13357.48
290.2424, 13422.38
290.7245, 13521.85
291.2066, 13662.32
291.6887, 13826.43
292.1708, 14034.03
292.6530, 14256.13
293.1351, 14460.29
293.6172, 14634.83
294.0993, 14782.83
294.5814, 14907.08
295.0635, 14990.39
295.5457, 15081.85
296.0278, 15170.78
296.5099, 15274.05
296.9920, 15410.62
297.4741, 15578.28
297.9562, 15755.46
298.4384, 15930.49
298.9205, 16116.58
299.4026, 16205.09
299.8847, 16163.65
300.3668, 16060.83
300.8489, 15899.71
301.3310, 15694.33
301.8131, 15465.32
302.2953, 15223.96
302.7774, 14971.99
303.2595, 14716.87
303.7416, 14447.43
304.2237, 14192.56
304.7058, 13947.76
305.1880, 13723.21
305.6701, 13534.18
306.1522, 13387.05
306.6343, 13262.62
307.1164, 13126.14
307.5985, 12968.95
308.0807, 12834.27
308.5628, 12746.22
309.0449, 12672.53
309.5270, 12597.68
310.0091, 12519.38
310.4912, 12443.10
310.9734, 12371.51
311.4555, 12304.89
311.9376, 12250.22
312.4197, 12218.92
312.9018, 12183.98
313.3839, 12119.25
313.8661, 12037.10
314.3482, 11970.93
314.8303, 11942.81
315.3124, 11936.73
315.7945, 11922.85
316.2766, 11898.35
316.7588, 11883.35
317.2409, 11901.85
317.7230, 11932.41
318.2051, 11935.91
318.6872, 11888.90
319.1693, 11847.48
319.6515, 11865.76
320.1336, 11929.67
320.6157, 11973.67
321.0978, 11969.13
321.5799, 11945.19
322.0620, 11950.46
322.5442, 11988.62
323.0263, 12023.58
323.5084, 12033.66
323.9905, 12039.86
324.4726, 12080.29
324.9547, 12161.18
325.4369, 12232.21
325.9190, 12237.25
326.4011, 12167.67
326.8832, 12141.90
327.3653, 12180.14
327.8474, 12241.38
328.3296, 12308.51
328.8117, 12380.09
329.2938, 12460.50
329.7759, 12555.60
330.2580, 12656.69
330.7401, 12721.01
331.2223, 12711.43
331.7044, 12711.18
332.1865, 12723.34
332.6686, 12751.49
333.1507, 12802.05
333.6328, 12876.00
334.1150, 12964.17
334.5971, 13055.56
335.0792, 13155.76
335.5613, 13242.33
336.0434, 13323.24
336.5255, 13385.42
337.0077, 13413.79
337.4898, 13415.23
337.9719, 13412.61
338.4540, 13427.81
338.9361, 13455.68
339.4182, 13448.82
339.9004, 13391.18
340.3825, 13320.08
340.8646, 13241.74
341.3467, 13159.64
341.8288, 13076.98
342.3109, 12993.92
342.7931, 12914.20
343.2752, 12846.46
343.7573, 12793.23
344.2394, 12732.48
344.7215, 12647.21
345.2036, 12561.87
345.6858, 12493.23
346.1679, 12442.25
346.6500, 12405.73
347.1321, 12389.70
347.6142, 12386.48
348.0963, 12375.88
348.5785, 12356.62
349.0606, 12327.32
349.5427, 12272.48
350.0248, 12204.76
350.5069, 12164.55
350.9890, 12186.95
351.4712, 12217.04
351.9533, 12202.40
352.4354, 12151.91
352.9175, 12112.39
353.3996, 12105.22
353.8817, 12123.30
354.3639, 12151.44
354.8460, 12195.33
355.3281, 12234.87
355.8102, 12266.76
356.2923, 12291.42
356.7744, 12306.87
357.2566, 12313.34
357.7387, 12315.75
358.2208, 12317.01
358.7029, 12312.54
359.1850, 12335.92
359.6671, 12416.55
360.1493, 12491.49
360.6314, 12530.88
361.1135, 12542.49
361.5956, 12546.43
362.0777, 12554.09
362.5598, 12564.61
363.0420, 12575.07
363.5241, 12586.99
364.0062, 12596.20
364.4883, 12589.19
364.9704, 12587.47
365.4525, 12614.82
365.9347, 12673.75
366.4168, 12739.24
366.8989, 12781.59
367.3810, 12799.54
367.8631, 12820.65
368.3452, 12845.39
368.8274, 12874.61
369.3095, 12911.72
369.7916, 12953.41
370.2737, 12991.51
370.7558, 13020.89
371.2379, 13045.67
371.7201, 13072.28
372.2022, 13100.81
372.6843, 13129.63
373.1664, 13156.61
373.6485, 13184.41
374.1306, 13213.32
374.6128, 13238.63
375.0949, 13282.03
375.5770, 13358.04
376.0591, 13459.24
376.5412, 13575.98
377.0233, 13708.49
377.5055, 13839.19
377.9876, 13946.88
378.4697, 14027.97
378.9518, 14125.53
379.4339, 14259.01
379.9160, 14391.69
380.3982, 14498.53
380.8803, 14585.45
381.3624, 14668.76
381.8445, 14756.43
382.3266, 14849.48
382.8087, 14953.54
383.2909, 15115.00
383.7730, 15222.42
384.2551, 15250.82
384.7372, 15239.90
385.2193, 15222.69
385.7014, 15203.72
386.1836, 15165.10
386.6657, 15084.63
387.1478, 14960.48
387.6299, 14834.18
388.1120, 14676.91
388.5941, 14552.45
389.0763, 14492.72
389.5584, 14475.43
390.0405, 14469.17
390.5226, 14463.57
391.0047, 14453.58
391.4868, 14430.92
391.9690, 14395.17
392.4511, 14351.98
392.9332, 14306.31
393.4153, 14249.58
393.8974, 14165.67
394.3795, 14055.04
394.8617, 13962.89
395.3438, 13938.60
395.8259, 13937.68
396.3080, 13870.27
396.7901, 13724.42
397.2722, 13592.41
397.7544, 13541.89
398.2365, 13561.42
398.7186, 13572.47
399.2007, 13552.92
399.6828, 13549.52
400.1649, 13578.57
400.6471, 13636.04
401.1292, 13721.66
401.6113, 13836.06
402.0934, 13959.46
402.5755, 14061.10
403.0576, 14121.93
403.5398, 14220.07
404.0219, 14363.64
404.5040, 14532.13
404.9861, 14703.76
405.4682, 14891.56
405.9503, 15132.09
406.4325, 15454.45
406.9146, 15832.93
407.3967, 16166.88
407.8788, 16420.20
408.3609, 16702.95
408.8430, 17094.70
409.3252, 17485.32
409.8073, 17796.07
410.2894, 18012.95
410.7715, 18157.24
411.2536, 18247.51
411.7357, 18281.12
412.2179, 18241.00
412.7000, 18126.38
413.1821, 17937.38
413.6642, 17644.19
414.1463, 17277.48
414.6284, 16895.00
415.1106, 16497.04
415.5927, 16095.92
416.0748, 15678.21
416.5569, 15261.35
417.0390, 14905.93
417.5211, 14637.75
418.0033, 14423.60
418.4854, 14215.45
418.9675, 14008.40
419.4496, 13829.91
419.9317, 13693.54
420.4138, 13577.33
420.8960, 13460.99
421.3781, 13349.99
421.8602, 13268.41
422.3423, 13234.29
422.8244, 13235.24
423.3065, 13215.98
423.7887, 13143.63
424.2708, 13103.51
424.7529, 13128.36
425.2350, 13169.65
425.7171, 13182.65
426.1992, 13164.08
426.6814, 13149.85
427.1635, 13178.14
427.6456, 13245.40
428.1277, 13308.84
428.6098, 13373.21
429.0919, 13424.05
429.5741, 13451.24
430.0562, 13461.69
430.5383, 13466.27
431.0204, 13473.95
431.5025, 13462.30
431.9846, 13412.96
432.4668, 13328.88
432.9489, 13214.04
433.4310, 13062.67
433.9131, 12904.14
434.3952, 12775.05
434.8773, 12679.80
435.3595, 12575.08
435.8416, 12453.50
436.3237, 12326.93
436.8058, 12189.65
437.2879, 12052.99
437.7701, 11942.83
438.2522, 11873.42
438.7343, 11832.88
439.2164, 11793.35
439.6985, 11766.34
440.1806, 11718.77
440.6628, 11621.29
441.1449, 11528.76
441.6270, 11481.48
442.1091, 11474.44
442.5912, 11473.82
443.0733, 11455.47
443.5555, 11423.41
444.0376, 11394.07
444.5197, 11370.48
445.0018, 11340.86
445.4839, 11285.67
445.9660, 11229.86
446.4482, 11201.41
446.9303, 11206.74
447.4124, 11216.30
447.8945, 11219.15
448.3766, 11212.03
448.8587, 11178.78
449.3409, 11114.35
449.8230, 11064.65
450.3051, 11075.88
450.7872, 11138.47
451.2693, 11154.41
451.7514, 11077.59
452.2336, 11011.54
452.7157, 11005.42
453.1978, 11025.01
453.6799, 11018.51
454.1620, 10972.24
454.6441, 10916.17
455.1263, 10889.47
455.6084, 10897.39
456.0905, 10905.04
456.5726, 10927.48
457.0547, 10933.43
457.5368, 10888.70
458.0190, 10826.91
458.5011, 10808.67
458.9832, 10866.43
459.4653, 10942.67
459.9474, 10943.87
460.4295, 10868.50
460.9117, 10825.06
461.3938, 10850.42
461.8759, 10891.54
462.3580, 10900.49
462.8401, 10882.84
463.3222, 10866.55
463.8044, 10856.96
464.2865, 10853.60
464.7686, 10861.02
465.2507, 10875.57
465.7328, 10881.66
466.2149, 10871.06
466.6971, 10854.01
467.1792, 10851.80
467.6613, 10881.36
468.1434, 10889.06
468.6255, 10864.41
469.1076, 10827.55
469.5898, 10774.81
470.0719, 10719.99
470.5540, 10698.14
471.0361, 10736.12
471.5182, 10808.62
472.0003, 10839.53
472.4825, 10812.32
472.9646, 10787.98
473.4467, 10781.13
473.9288, 10780.08
474.4109, 10777.34
474.8930, 10772.91
475.3752, 10772.08
475.8573, 10781.32
476.3394, 10794.70
476.8215, 10804.45
477.3036, 10810.37
477.7857, 10805.04
478.2679, 10780.11
478.7500, 10745.37
479.2321, 10724.22
479.7142, 10717.62
480.1963, 10719.23
480.6784, 10732.69
481.1606, 10750.64
481.6427, 10766.06
482.1248, 10778.93
482.6069, 10795.45
483.0890, 10822.64
483.5711, 10854.95
484.0533, 10860.08
484.5354, 10814.36
485.0175, 10780.06
485.4996, 10763.25
485.9817, 10761.67
486.4638, 10782.24
486.9460, 10821.24
487.4281, 10853.32
487.9102, 10848.60
488.3923, 10822.18
488.8744, 10823.24
489.3565, 10856.56
489.8387, 10891.06
490.3208, 10906.25
490.8029, 10915.74
491.2850, 10950.90
491.7671, 11027.25
492.2492, 11084.39
492.7314, 11084.69
493.2135, 11064.42
493.6956, 11064.49
494.1777, 11088.18
494.6598, 11117.82
495.1419, 11141.59
495.6241, 11158.62
496.1062, 11163.21
496.5883, 11137.68
497.0704, 11124.60
497.5525, 11139.59
498.0346, 11160.15
498.5168, 11162.72
498.9989, 11147.95
499.4810, 11140.90
499.9631, 11173.50
500.4452, 11229.95
500.9273, 11248.25
501.4095, 11222.79
501.8916, 11181.61
502.3737, 11127.79
502.8558, 11070.02
503.3379, 11021.97
503.8200, 10985.23
504.3022, 10953.33
504.7843, 10921.63
505.2664, 10894.93
505.7485, 10881.20
506.2306, 10879.66
506.7127, 10884.39
507.1949, 10894.53
507.6770, 10903.37
508.1591, 10880.72
508.6412, 10788.48
509.1233, 10720.08
509.6054, 10680.13
510.0876, 10664.62
510.5697, 10682.61
511.0518, 10725.71
511.5339, 10764.97
512.0161, 10782.02
512.4982, 10778.84
512.9803, 10753.75
513.4624, 10700.99
513.9445, 10662.59
514.4266, 10657.10
514.9088, 10670.40
515.3909, 10683.73
515.8730, 10696.86
516.3551, 10712.73
516.8372, 10741.90
517.3193, 10767.13
517.8015, 10767.50
518.2836, 10747.91
518.7657, 10730.87
519.2478, 10728.34
519.7299, 10735.56
520.2120, 10740.66
520.6942, 10736.66
521.1763, 10744.42
521.6584, 10774.96
522.1405, 10805.51
522.6226, 10826.65
523.1047, 10837.62
523.5869, 10837.38
524.0690, 10821.09
524.5511, 10802.97
525.0332, 10810.23
525.5153, 10842.67
525.9974, 10868.91
526.4796, 10881.30
526.9617, 10885.65
527.4438, 10884.09
527.9259, 10877.74
528.4080, 10878.04
528.8901, 10902.89
529.3723, 10918.71
529.8544, 10891.70
530.3365, 10843.92
530.8186, 10820.61
531.3007, 10836.74
531.7828, 10869.74
532.2650, 10887.94
532.7471, 10887.55
533.2292, 10896.81
533.7113, 10935.03
534.1934, 10960.38
534.6755, 10943.23
535.1577, 10912.43
535.6398, 10913.78
536.1219, 10964.09
536.6040, 11011.78
537.0861, 11000.48
537.5682, 10947.66
538.0504, 10911.83
538.5325, 10902.13
539.0146, 10892.25
539.4967, 10863.53
539.9788, 10819.39
540.4609, 10778.18
540.9431, 10748.58
541.4252, 10709.31
541.9073, 10638.12
542.3894, 10566.96
542.8715, 10530.72
543.3536, 10528.78
543.8358, 10534.75
544.3179, 10530.48
544.8000, 10514.34
545.2821, 10475.69
545.7642, 10403.98
546.2463, 10338.60
546.7285, 10280.24
547.2106, 10239.96
547.6926, 10244.50
548.1747, 10287.18
548.6569, 10295.79
549.1390, 10199.97
549.6211, 10081.83
550.1032, 10032.66
550.5853, 10042.83
551.0674, 10069.18
551.5496, 10098.22
552.0317, 10116.40
552.5138, 10097.32
552.9959, 10017.36
553.4780, 9980.863
553.9601, 10016.03
554.4423, 10057.70
554.9244, 10087.11
555.4065, 10103.46
555.8886, 10109.21
556.3707, 10105.27
556.8528, 10090.00
557.3350, 10044.76
557.8171, 9978.222
558.2992, 9972.514
558.7813, 10056.21
559.2634, 10133.71
559.7455, 10136.82
560.2277, 10085.16
560.7098, 10047.38
561.1919, 10027.93
561.6740, 10015.34
562.1561, 10009.60
562.6382, 10006.83
563.1204, 10001.15
563.6025, 9993.384
564.0846, 9990.854
564.5667, 9999.657
565.0488, 10016.56
565.5309, 10029.92
566.0131, 10042.16
566.4952, 10044.73
566.9773, 10028.31
567.4594, 10007.76
567.9415, 9991.828
568.4236, 9980.053
568.9058, 9967.699
569.3879, 9942.640
569.8700, 9925.174
570.3521, 9949.483
570.8342, 10000.32
571.3163, 10019.75
571.7985, 9987.415
572.2806, 9946.648
572.7627, 9953.515
573.2448, 10016.58
573.7269, 10046.01
574.2090, 10011.97
574.6912, 9982.061
575.1733, 9970.240
575.6554, 9972.795
576.1375, 9988.857
576.6196, 10016.57
577.1017, 10043.37
577.5839, 10064.56
578.0660, 10075.70
578.5481, 10050.38
579.0302, 9981.521
579.5123, 9939.598
579.9944, 9972.099
580.4766, 10036.85
580.9587, 10048.84
581.4408, 9997.317
581.9229, 9951.013
582.4050, 9915.411
582.8871, 9891.506
583.3693, 9886.254
583.8514, 9892.554
584.3335, 9897.251
584.8156, 9894.384
585.2977, 9884.055
585.7798, 9860.063
586.2620, 9819.194
586.7441, 9807.280
587.2262, 9849.135
587.7083, 9882.562
588.1904, 9850.582
588.6725, 9792.614
589.1547, 9777.539
589.6368, 9831.789
590.1189, 9882.911
590.6010, 9896.377
591.0831, 9886.974
591.5652, 9865.270
592.0474, 9837.045
592.5295, 9819.315
593.0116, 9824.520
593.4937, 9845.105
593.9758, 9855.773
594.4579, 9843.771
594.9401, 9852.103
595.4222, 9906.291
595.9043, 9961.698
596.3864, 9996.871
596.8685, 10015.36
597.3506, 10028.05
597.8328, 10036.16
598.3149, 10045.09
598.7970, 10061.22
599.2791, 10081.93
599.7612, 10097.73
600.2433, 10106.81
600.7255, 10122.95
601.2076, 10158.10
601.6897, 10210.72
602.1718, 10268.25
602.6539, 10341.75
603.1360, 10404.70
603.6182, 10448.93
604.1003, 10486.96
604.5824, 10517.48
605.0645, 10548.78
605.5466, 10606.25
606.0287, 10715.95
606.5109, 10844.52
606.9930, 10946.12
607.4751, 11022.13
607.9572, 11076.82
608.4393, 11105.43
608.9214, 11137.63
609.4036, 11208.70
609.8857, 11318.93
610.3678, 11399.58
610.8499, 11431.71
611.3320, 11461.01
611.8141, 11510.04
612.2963, 11553.79
612.7784, 11571.85
613.2605, 11558.85
613.7426, 11511.70
614.2247, 11419.10
614.7068, 11298.13
615.1890, 11189.24
615.6711, 11092.73
616.1532, 11002.85
616.6353, 10922.24
617.1174, 10840.79
617.5995, 10743.85
618.0817, 10630.78
618.5638, 10530.46
619.0459, 10438.41
619.5280, 10365.82
620.0101, 10336.88
620.4922, 10320.06
620.9744, 10271.09
621.4565, 10185.23
621.9386, 10098.29
622.4207, 10046.04
622.9028, 10016.91
623.3849, 9958.122
623.8671, 9859.057
624.3492, 9795.159
624.8313, 9806.529
625.3134, 9842.917
625.7955, 9844.071
626.2776, 9812.329
626.7598, 9783.462
627.2419, 9761.177
627.7240, 9744.176
628.2061, 9740.987
628.6882, 9739.156
629.1703, 9711.072
629.6525, 9655.926
630.1346, 9614.303
630.6167, 9632.722
631.0988, 9697.880
631.5809, 9734.938
632.0630, 9739.453
632.5452, 9732.295
633.0273, 9708.085
633.5094, 9686.035
633.9915, 9695.659
634.4736, 9734.559
634.9557, 9751.391
635.4379, 9713.713
635.9200, 9674.823
636.4021, 9663.394
636.8842, 9670.817
637.3663, 9686.026
637.8484, 9704.573
638.3306, 9720.398
638.8127, 9726.125
639.2948, 9724.071
639.7769, 9728.169
640.2590, 9739.067
640.7411, 9754.329
641.2233, 9778.169
641.7054, 9801.272
642.1875, 9810.641
642.6696, 9807.918
643.1517, 9814.210
643.6339, 9854.265
644.1160, 9882.610
644.5981, 9845.113
645.0802, 9791.279
645.5623, 9806.998
646.0444, 9903.825
646.5266, 10014.11
647.0087, 10075.69
647.4908, 10097.43
647.9729, 10119.62
648.4550, 10142.34
648.9371, 10162.77
649.4193, 10164.77
649.9014, 10181.29
650.3835, 10260.73
650.8656, 10391.25
651.3477, 10489.43
651.8298, 10505.71
652.3120, 10527.70
652.7941, 10597.52
653.2762, 10697.42
653.7583, 10803.91
654.2404, 10912.87
654.7225, 11031.71
655.2047, 11164.90
655.6868, 11314.42
656.1689, 11483.96
656.6510, 11672.85
657.1331, 11887.04
657.6152, 12129.32
658.0974, 12393.03
658.5795, 12667.75
659.0616, 12957.10
659.5437, 13277.43
660.0258, 13644.77
660.5079, 14026.45
660.9901, 14400.24
661.4722, 14789.78
661.9543, 15220.21
662.4364, 15693.13
662.9185, 16204.25
663.4006, 16752.77
663.8828, 17333.19
664.3649, 17936.08
664.8470, 18561.40
665.3291, 19205.63
665.8112, 19859.64
666.2933, 20561.76
666.7755, 21359.27
667.2576, 22229.43
667.7397, 23079.16
668.2218, 23916.61
668.7039, 24716.37
669.1860, 25493.65
669.6682, 26213.46
670.1503, 26876.04
670.6324, 27462.50
671.1145, 27944.89
671.5966, 28317.45
672.0787, 28541.20
672.5609, 28569.36
673.0430, 28402.48
673.5251, 28039.81
674.0072, 27471.42
674.4893, 26746.87
674.9714, 25865.43
675.4536, 24869.39
675.9357, 23874.96
676.4178, 22859.69
676.8999, 21884.92
677.3820, 20975.55
677.8641, 20081.61
678.3463, 19163.56
678.8284, 18254.81
679.3105, 17405.24
679.7926, 16632.29
680.2747, 15941.12
680.7568, 15361.84
681.2390, 14869.07
681.7211, 14409.63
682.2032, 13982.58
682.6853, 13583.53
683.1674, 13208.30
683.6495, 12868.33
684.1317, 12581.68
684.6138, 12358.09
685.0959, 12140.86
685.5780, 11921.16
686.0601, 11715.80
686.5422, 11533.99
687.0244, 11365.23
687.5065, 11190.59
687.9886, 11010.89
688.4707, 10863.64
688.9528, 10796.04
689.4349, 10751.69
689.9171, 10656.47
690.3992, 10530.94
690.8813, 10442.64
691.3634, 10409.15
691.8455, 10383.77
692.3276, 10316.96
692.8098, 10216.03
693.2919, 10148.08
693.7740, 10127.47
694.2561, 10108.07
694.7382, 10081.54
695.2203, 10053.56
695.7025, 10030.68
696.1846, 10009.96
696.6667, 9980.008
697.1488, 9929.819
697.6309, 9882.137
698.1130, 9856.085
698.5952, 9835.579
699.0773, 9800.276
699.5594, 9749.467
700.0415, 9692.994
700.5236, 9636.192
701.0057, 9579.658
701.4879, 9522.139
701.9700, 9462.775
702.4521, 9420.339
702.9342, 9403.683
703.4163, 9384.850
703.8984, 9339.618
704.3806, 9284.160
704.8627, 9259.865
705.3448, 9282.315
705.8269, 9288.865
706.3090, 9269.550
706.7911, 9233.479
707.2733, 9170.988
707.7554, 9100.577
708.2375, 9051.387
708.7196, 9031.890
709.2017, 9028.036
709.6838, 9031.928
710.1660, 9039.971
710.6481, 9043.421
711.1302, 9042.225
711.6123, 9036.480
712.0944, 9024.942
712.5765, 9014.464
713.0587, 9014.560
713.5408, 9025.987
714.0229, 9031.673
714.5050, 9022.433
714.9871, 9020.076
715.4692, 9042.436
715.9514, 9061.562
716.4335, 9048.164
716.9156, 9008.460
717.3977, 8977.894
717.8798, 8976.091
718.3619, 8980.383
718.8441, 8973.895
719.3262, 8960.760
719.8083, 8947.916
720.2904, 8936.197
720.7725, 8921.892
721.2546, 8901.826
721.7368, 8880.757
722.2189, 8874.967
722.7010, 8890.130
723.1831, 8878.339
723.6652, 8821.355
724.1473, 8766.282
724.6295, 8746.592
725.1116, 8743.846
725.5937, 8715.871
726.0758, 8648.562
726.5579, 8605.896
727.0400, 8604.766
727.5222, 8625.797
728.0043, 8684.518
728.4864, 8747.380
728.9685, 8753.957
729.4506, 8692.955
729.9327, 8626.609
730.4149, 8616.214
730.8970, 8638.556
731.3791, 8640.283
731.8612, 8623.757
732.3433, 8609.838
732.8254, 8603.615
733.3076, 8608.696
733.7897, 8632.115
734.2718, 8671.345
734.7539, 8694.092
735.2360, 8698.531
735.7181, 8689.119
736.2003, 8651.996
736.6824, 8615.038
737.1645, 8598.521
737.6466, 8595.878
738.1287, 8587.765
738.6108, 8568.443
739.0930, 8544.225
739.5751, 8507.098
740.0572, 8474.632
740.5393, 8477.528
741.0214, 8505.207
741.5035, 8514.752
741.9857, 8485.817
742.4678, 8449.604
742.9499, 8457.528
743.4320, 8505.006
743.9141, 8524.442
744.3962, 8509.888
744.8784, 8495.182
745.3605, 8490.813
745.8426, 8496.124
746.3247, 8510.029
746.8068, 8532.595
747.2889, 8565.351
747.7711, 8638.700
748.2532, 8682.783
748.7353, 8647.220
749.2174, 8600.997
749.6995, 8611.365
750.1816, 8672.312
750.6638, 8731.644
751.1459, 8768.689
751.6280, 8787.831
752.1101, 8783.332
752.5922, 8767.254
753.0743, 8764.565
753.5565, 8776.002
754.0386, 8783.494
754.5207, 8775.979
755.0028, 8761.922
755.4849, 8760.785
755.9670, 8775.680
756.4492, 8771.522
756.9313, 8738.568
757.4134, 8709.239
757.8955, 8695.401
758.3776, 8694.296
758.8597, 8709.080
759.3419, 8743.806
759.8240, 8751.752
760.3061, 8703.945
760.7882, 8658.921
761.2703, 8632.681
761.7524, 8624.133
762.2346, 8642.597
762.7167, 8679.651
763.1988, 8699.313
763.6809, 8674.913
764.1630, 8635.576
764.6451, 8608.775
765.1273, 8594.299
765.6094, 8598.123
766.0915, 8618.026
766.5736, 8627.863
767.0557, 8610.675
767.5378, 8577.368
768.0200, 8549.997
768.5021, 8528.362
768.9842, 8514.941
769.4663, 8512.022
769.9484, 8512.600
770.4305, 8512.977
770.9127, 8515.779
771.3948, 8528.162
771.8769, 8551.829
772.3590, 8562.457
772.8411, 8549.625
773.3232, 8532.346
773.8054, 8505.769
774.2875, 8486.469
774.7696, 8501.118
775.2517, 8542.878
775.7338, 8572.973
776.2159, 8570.152
776.6981, 8547.014
777.1802, 8497.608
777.6623, 8443.496
778.1444, 8445.956
778.6265, 8504.539
779.1086, 8555.489
779.5908, 8562.083
780.0729, 8547.366
780.5550, 8559.683
781.0371, 8605.615
781.5192, 8606.372
782.0013, 8541.285
782.4835, 8486.514
782.9656, 8477.916
783.4477, 8487.005
783.9298, 8479.907
784.4119, 8456.607
784.8940, 8424.243
785.3762, 8366.911
785.8583, 8321.613
786.3404, 8309.429
786.8225, 8304.582
787.3046, 8284.980
787.7867, 8251.814
788.2689, 8215.187
788.7510, 8174.604
789.2331, 8146.857
789.7152, 8164.396
790.1973, 8194.280
790.6794, 8175.830
791.1616, 8116.548
791.6437, 8063.029
792.1258, 8035.009
792.6079, 8035.175
793.0900, 8078.930
793.5721, 8158.244
794.0543, 8191.817
794.5364, 8176.118
795.0185, 8132.295
795.5006, 8052.002
795.9827, 7975.968
796.4648, 7946.074
796.9470, 7958.233
797.4291, 7969.386
797.9112, 7983.937
798.3933, 7990.907
798.8754, 7992.199
799.3575, 7983.423
799.8397, 7946.487
800.3218, 7902.161
800.8039, 7893.581
801.2860, 7936.474
801.7681, 7972.952
802.2502, 7977.532
802.7324, 7959.823
803.2145, 7910.391
803.6966, 7850.970
804.1787, 7821.807
804.6608, 7831.395
805.1429, 7857.797
805.6251, 7888.981
806.1072, 7916.007
806.5893, 7909.931
807.0714, 7877.397
807.5535, 7875.637
808.0356, 7916.646
808.5178, 7950.152
808.9999, 7941.898
809.4820, 7905.675
809.9641, 7874.251
810.4462, 7844.221
810.9283, 7832.519
811.4105, 7853.619
811.8926, 7869.377
812.3747, 7860.152
812.8568, 7841.436
813.3389, 7831.358
813.8210, 7830.080
814.3032, 7825.559
814.7853, 7804.384
815.2674, 7794.611
815.7495, 7820.529
816.2316, 7850.494
816.7137, 7853.605
817.1959, 7834.283
817.6780, 7815.559
818.1601, 7807.514
818.6422, 7799.952
819.1243, 7779.855
819.6064, 7756.953
820.0886, 7748.226
820.5707, 7750.911
821.0528, 7750.300
821.5349, 7741.503
822.0170, 7736.776
822.4991, 7754.174
822.9813, 7784.464
823.4634, 7783.454
823.9455, 7749.157
824.4276, 7726.229
824.9097, 7726.818
825.3918, 7727.849
825.8740, 7710.306
826.3561, 7681.132
826.8382, 7664.471
827.3203, 7668.266
827.8024, 7665.928
828.2845, 7639.471
828.7667, 7629.279
829.2488, 7679.721
829.7309, 7736.330
830.2130, 7718.146
830.6951, 7621.767
831.1772, 7567.081
831.6594, 7623.616
832.1415, 7677.333
832.6236, 7679.530
833.1057, 7654.541
833.5878, 7614.921
834.0699, 7572.432
834.5521, 7549.179
835.0342, 7555.570
835.5163, 7580.002
835.9984, 7627.107
836.4805, 7677.063
836.9626, 7692.647
837.4448, 7680.341
837.9269, 7672.186
838.4090, 7678.527
838.8911, 7680.158
839.3732, 7650.701
839.8553, 7605.679
840.3375, 7607.636
840.8196, 7657.584
841.3017, 7707.412
841.7838, 7754.282
842.2659, 7769.522
842.7480, 7724.523
843.2302, 7646.557
843.7123, 7606.170
844.1944, 7619.765
844.6765, 7615.142
845.1586, 7574.021
845.6407, 7541.970
846.1229, 7546.262
846.6050, 7558.228
847.0871, 7541.290
847.5692, 7499.527
848.0513, 7487.750
848.5334, 7544.125
849.0156, 7589.659
849.4977, 7594.896
849.9798, 7588.608
850.4619, 7593.344
850.9440, 7604.602
851.4261, 7609.837
851.9083, 7605.567
852.3904, 7590.154
852.8725, 7546.371
853.3546, 7504.392
853.8367, 7504.081
854.3188, 7527.779
854.8010, 7537.233
855.2831, 7526.008
855.7652, 7513.231
856.2473, 7513.047
856.7294, 7518.832
857.2115, 7519.863
857.6937, 7516.687
858.1758, 7513.311
858.6579, 7509.762
859.1400, 7495.250
859.6221, 7463.137
860.1042, 7428.870
860.5864, 7414.505
861.0685, 7419.570
861.5506, 7429.729
862.0327, 7447.418
862.5148, 7459.888
862.9969, 7460.748
863.4791, 7463.723
863.9612, 7485.880
864.4433, 7517.100
864.9254, 7518.715
865.4075, 7462.305
865.8896, 7435.784
866.3718, 7477.438
866.8539, 7501.868
867.3360, 7451.514
867.8181, 7386.159
868.3002, 7382.896
868.7823, 7441.107
869.2645, 7479.074
869.7466, 7459.813
870.2287, 7437.631
870.7108, 7432.455
871.1929, 7433.749
871.6750, 7431.113
872.1572, 7427.175
872.6393, 7431.862
873.1214, 7448.930
873.6035, 7463.816
874.0856, 7468.877
874.5677, 7463.958
875.0499, 7441.928
875.5320, 7411.861
876.0141, 7393.892
876.4962, 7390.087
876.9783, 7383.756
877.4604, 7360.661
877.9426, 7341.376
878.4247, 7369.514
878.9068, 7429.833
879.3889, 7466.860
879.8710, 7477.133
880.3531, 7468.506
880.8353, 7443.047
881.3174, 7416.274
881.7995, 7407.246
882.2816, 7413.079
882.7637, 7415.985
883.2458, 7415.767
883.7280, 7413.677
884.2101, 7409.259
884.6922, 7405.197
885.1743, 7403.359
885.6564, 7402.783
886.1385, 7400.229
886.6207, 7392.343
887.1028, 7398.584
887.5849, 7433.569
888.0670, 7459.024
888.5491, 7462.181
889.0313, 7454.223
889.5134, 7439.103
889.9955, 7420.237
890.4776, 7413.880
890.9597, 7435.071
891.4418, 7443.523
891.9240, 7409.743
892.4061, 7388.118
892.8882, 7431.761
893.3703, 7491.900
893.8524, 7493.212
894.3345, 7430.633
894.8167, 7379.511
895.2988, 7375.251
895.7809, 7383.642
896.2630, 7394.162
896.7451, 7402.267
897.2272, 7400.628
897.7094, 7392.833
898.1915, 7389.030
898.6736, 7392.871
899.1557, 7397.603
899.6378, 7396.130
900.1199, 7393.930
900.6021, 7409.616
901.0842, 7426.265
901.5663, 7395.251
902.0484, 7319.631
902.5305, 7260.474
903.0126, 7255.924
903.4948, 7286.421
903.9769, 7341.902
904.4590, 7406.551
904.9411, 7423.663
905.4232, 7396.386
905.9053, 7363.777
906.3875, 7338.775
906.8696, 7320.703
907.3517, 7309.291
907.8338, 7303.796
908.3159, 7301.043
908.7980, 7300.985
909.2802, 7312.256
909.7623, 7338.515
910.2444, 7353.489
910.7265, 7341.671
911.2086, 7320.813
911.6907, 7317.229
912.1729, 7330.638
912.6550, 7335.460
913.1371, 7325.231
913.6192, 7329.786
914.1013, 7369.714
914.5834, 7394.381
915.0656, 7355.522
915.5477, 7287.915
916.0298, 7274.540
916.5119, 7334.525
916.9940, 7377.329
917.4761, 7402.600
917.9583, 7411.048
918.4404, 7370.669
918.9225, 7341.310
919.4046, 7396.577
919.8867, 7504.574
920.3688, 7542.810
920.8510, 7462.289
921.3331, 7401.160
921.8152, 7383.334
922.2973, 7384.032
922.7794, 7407.093
923.2615, 7432.446
923.7437, 7430.901
924.2258, 7406.005
924.7079, 7399.013
925.1900, 7443.372
925.6721, 7472.681
926.1542, 7443.980
926.6364, 7404.573
927.1185, 7387.049
927.6006, 7388.363
928.0827, 7405.612
928.5648, 7434.820
929.0469, 7446.440
929.5291, 7416.009
930.0112, 7371.318
930.4933, 7324.842
930.9754, 7281.510
931.4575, 7240.679
931.9396, 7209.239
932.4218, 7212.601
932.9039, 7258.754
933.3860, 7292.093
933.8681, 7246.250
934.3502, 7175.622
934.8323, 7153.406
935.3145, 7159.397
935.7966, 7148.735
936.2787, 7119.945
936.7608, 7105.552
937.2429, 7123.850
937.7250, 7145.946
938.2072, 7125.802
938.6893, 7087.585
939.1714, 7094.448
939.6535, 7134.815
940.1356, 7160.636
940.6177, 7160.990
941.0999, 7145.504
941.5820, 7118.870
942.0641, 7091.610
942.5462, 7084.664
943.0283, 7094.353
943.5104, 7105.283
943.9926, 7115.792
944.4747, 7111.734
944.9568, 7088.471
945.4389, 7058.623
945.9210, 7030.741
946.4031, 7011.412
946.8853, 7028.186
947.3674, 7080.749
947.8495, 7098.002
948.3316, 7072.073
948.8137, 7048.942
949.2958, 7045.210
949.7780, 7057.711
950.2601, 7087.287
950.7422, 7127.069
951.2243, 7138.502
951.7064, 7117.597
952.1885, 7092.356
952.6707, 7062.332
953.1528, 7039.245
953.6349, 7027.037
954.1170, 7029.030
954.5991, 7056.612
955.0812, 7106.642
955.5634, 7105.984
956.0455, 7024.183
956.5276, 6988.825
957.0097, 7035.838
957.4918, 7088.421
957.9739, 7107.792
958.4561, 7105.698
958.9382, 7100.709
959.4203, 7093.140
959.9024, 7076.056
960.3845, 7031.742
960.8666, 7014.405
961.3488, 7048.111
961.8309, 7088.465
962.3130, 7110.190
962.7951, 7119.550
963.2772, 7129.816
963.7593, 7143.364
964.2415, 7144.960
964.7236, 7121.542
965.2057, 7105.172
965.6878, 7090.578
966.1699, 7094.982
966.6520, 7139.179
967.1342, 7208.353
967.6163, 7274.291
968.0984, 7346.307
968.5805, 7374.506
969.0626, 7304.338
969.5447, 7260.198
970.0269, 7295.160
970.5090, 7347.361
970.9911, 7371.298
971.4732, 7374.502
971.9553, 7379.634
972.4374, 7386.940
972.9196, 7402.835
973.4017, 7450.548
973.8838, 7478.634
974.3659, 7439.735
974.8480, 7398.046
975.3301, 7432.198
975.8123, 7510.966
976.2944, 7524.040
976.7765, 7426.908
977.2586, 7355.286
977.7407, 7357.706
978.2228, 7369.518
978.7050, 7371.458
979.1871, 7362.450
979.6692, 7336.262
980.1513, 7299.311
980.6334, 7272.355
981.1155, 7262.268
981.5977, 7254.907
982.0798, 7243.849
982.5619, 7237.123
983.0440, 7245.399
983.5261, 7255.322
984.0082, 7248.825
984.4904, 7229.921
984.9725, 7217.981
985.4546, 7215.885
985.9367, 7227.681
986.4188, 7279.637
986.9009, 7317.966
987.3831, 7304.452
987.8652, 7264.526
988.3473, 7217.300
988.8294, 7172.740
989.3115, 7152.889
989.7936, 7168.899
990.2758, 7196.606
990.7579, 7244.384
991.2400, 7280.694
991.7221, 7280.359
992.2042, 7260.054
992.6863, 7231.014
993.1685, 7201.957
993.6506, 7197.208
994.1327, 7235.574
994.6148, 7267.292
995.0969, 7263.120
995.5790, 7252.483
996.0612, 7254.175
996.5433, 7262.041
997.0254, 7265.984
997.5075, 7266.709
997.9896, 7275.313
998.4717, 7303.627
998.9539, 7315.679
999.4360, 7271.432
999.9181, 7230.205
1000.400, 7248.823
1000.882, 7285.337
1001.364, 7278.070
1001.847, 7232.387
1002.329, 7205.520
1002.811, 7226.667
1003.293, 7238.407
1003.775, 7193.024
1004.257, 7151.416
1004.739, 7172.158
1005.221, 7210.744
1005.703, 7201.272
1006.186, 7151.554
1006.668, 7126.026
1007.150, 7157.417
1007.632, 7176.576
1008.114, 7137.522
1008.596, 7091.907
1009.078, 7068.063
1009.560, 7060.514
1010.043, 7066.356
1010.525, 7080.155
1011.007, 7086.364
1011.489, 7076.225
1011.971, 7073.327
1012.453, 7104.063
1012.935, 7126.573
1013.417, 7102.580
1013.899, 7065.781
1014.382, 7061.273
1014.864, 7080.049
1015.346, 7076.172
1015.828, 7031.351
1016.310, 6988.783
1016.792, 6962.593
1017.274, 6945.817
1017.756, 6939.956
1018.239, 6937.406
1018.721, 6931.123
1019.203, 6921.446
1019.685, 6912.868
1020.167, 6908.231
1020.649, 6895.393
1021.131, 6845.343
1021.613, 6817.266
1022.095, 6867.979
1022.578, 6927.855
1023.060, 6927.138
1023.542, 6882.903
1024.024, 6846.302
1024.506, 6824.370
1024.988, 6825.657
1025.470, 6874.904
1025.952, 6918.318
1026.435, 6927.008
1026.917, 6930.046
1027.399, 6952.847
1027.881, 6987.607
1028.363, 7015.027
1028.845, 7031.904
1029.327, 7047.322
1029.809, 7064.724
1030.292, 7078.341
1030.774, 7079.065
1031.256, 7083.169
1031.738, 7095.958
1032.220, 7122.124
1032.702, 7173.553
1033.184, 7253.328
1033.666, 7324.902
1034.148, 7380.051
1034.630, 7433.017
1035.113, 7482.450
1035.595, 7534.271
1036.077, 7593.934
1036.559, 7656.677
1037.041, 7715.474
1037.523, 7770.379
1038.005, 7822.134
1038.487, 7868.113
1038.970, 7915.317
1039.452, 7975.796
1039.934, 8022.853
1040.416, 8047.012
1040.898, 8049.470
1041.380, 8026.332
1041.862, 7980.257
1042.344, 7941.049
1042.826, 7921.635
1043.309, 7880.196
1043.791, 7803.973
1044.273, 7726.724
1044.755, 7659.681
1045.237, 7596.911
1045.719, 7529.982
1046.201, 7462.218
1046.683, 7411.450
1047.166, 7389.879
1047.648, 7339.265
1048.130, 7246.280
1048.612, 7161.895
1049.094, 7100.041
1049.576, 7056.053
1050.058, 7031.022
1050.540, 7014.916
1051.022, 6976.689
1051.505, 6911.537
1051.987, 6878.276
1052.469, 6885.393
1052.951, 6867.861
1053.433, 6804.810
1053.915, 6745.551
1054.397, 6722.287
1054.879, 6724.736
1055.361, 6739.534
1055.844, 6763.766
1056.326, 6755.282
1056.808, 6714.267
1057.290, 6703.310
1057.772, 6733.373
1058.254, 6768.449
1058.736, 6790.986
1059.218, 6793.554
1059.701, 6759.541
1060.183, 6703.137
1060.665, 6667.622
1061.147, 6653.165
1061.629, 6671.928
1062.111, 6718.881
1062.593, 6745.457
1063.075, 6733.383
1063.557, 6708.868
1064.040, 6693.623
1064.522, 6688.940
1065.004, 6708.865
1065.486, 6737.199
1065.968, 6725.268
1066.450, 6683.943
1066.932, 6663.217
1067.414, 6674.337
1067.896, 6691.319
1068.379, 6699.111
1068.861, 6695.459
1069.343, 6675.804
1069.825, 6644.702
1070.307, 6596.495
1070.789, 6546.648
1071.271, 6529.765
1071.753, 6543.243
1072.236, 6550.602
1072.718, 6534.495
1073.200, 6516.762
1073.682, 6512.170
1074.164, 6513.701
1074.646, 6523.140
1075.128, 6529.635
1075.610, 6514.063
1076.093, 6485.250
1076.575, 6470.356
1077.057, 6476.953
1077.539, 6482.621
1078.021, 6483.915
1078.503, 6473.881
1078.985, 6439.346
1079.467, 6402.204
1079.949, 6373.134
1080.432, 6356.093
1080.914, 6356.026
1081.396, 6373.122
1081.878, 6399.728
1082.360, 6474.828
1082.842, 6497.527
1083.324, 6390.457
1083.806, 6302.388
1084.288, 6329.280
1084.771, 6387.029
1085.253, 6376.346
1085.735, 6314.141
1086.217, 6285.784
1086.699, 6305.827
1087.181, 6321.367
1087.663, 6330.203
1088.145, 6339.307
1088.628, 6353.038
1089.110, 6363.003
1089.592, 6364.199
1090.074, 6355.637
1090.556, 6330.808
1091.038, 6288.032
1091.520, 6283.262
1092.002, 6325.311
1092.484, 6347.724
1092.967, 6337.860
1093.449, 6318.327
1093.931, 6297.627
1094.413, 6290.292
1094.895, 6321.980
1095.377, 6373.473
1095.859, 6357.833
1096.341, 6289.217
1096.823, 6292.046
1097.306, 6366.440
1097.788, 6405.905
1098.270, 6378.483
1098.752, 6350.187
1099.234, 6374.711
1099.716, 6420.986
1100.198, 6450.958
1100.680, 6462.840
1101.163, 6436.046
1101.645, 6392.553
1102.127, 6389.988
1102.609, 6431.333
1103.091, 6484.861
1103.573, 6537.168
1104.055, 6567.432
1104.537, 6547.804
1105.020, 6509.441
1105.502, 6465.084
1105.984, 6430.750
1106.466, 6434.326
1106.948, 6460.577
1107.430, 6475.622
1107.912, 6471.840
1108.394, 6458.769
1108.876, 6436.067
1109.359, 6411.147
1109.841, 6387.151
1110.323, 6361.472
1110.805, 6324.618
1111.287, 6290.792
1111.769, 6278.020
1112.251, 6284.615
1112.733, 6298.412
1113.215, 6331.217
1113.698, 6338.655
1114.180, 6296.765
1114.662, 6265.945
1115.144, 6264.086
1115.626, 6271.010
1116.108, 6278.726
1116.590, 6280.546
1117.072, 6261.094
1117.555, 6220.173
1118.037, 6193.678
1118.519, 6182.209
1119.001, 6187.125
1119.483, 6214.188
1119.965, 6216.340
1120.447, 6169.845
1120.929, 6117.614
1121.411, 6102.984
1121.894, 6117.547
1122.376, 6155.117
1122.858, 6203.715
1123.340, 6188.103
1123.822, 6119.795
1124.304, 6073.883
1124.786, 6067.533
1125.268, 6085.804
1125.750, 6121.833
1126.233, 6151.003
1126.715, 6135.109
1127.197, 6104.515
1127.679, 6101.451
1128.161, 6112.804
1128.643, 6117.801
1129.125, 6117.414
1129.607, 6124.230
1130.090, 6139.866
1130.572, 6145.023
1131.054, 6123.017
1131.536, 6100.747
1132.018, 6096.416
1132.500, 6091.846
1132.982, 6058.999
1133.464, 6030.025
1133.947, 6062.765
1134.429, 6135.957
1134.911, 6151.116
1135.393, 6070.673
1135.875, 6021.203
1136.357, 6037.581
1136.839, 6048.795
1137.321, 6040.590
1137.803, 6027.253
1138.286, 6010.152
1138.768, 6000.995
1139.250, 6020.519
1139.732, 6064.533
1140.214, 6095.231
1140.696, 6113.026
1141.178, 6112.210
1141.660, 6090.714
1142.142, 6070.177
1142.625, 6057.680
1143.107, 6043.650
1143.589, 6018.799
1144.071, 5997.809
1144.553, 6016.779
1145.035, 6056.827
1145.517, 6051.474
1145.999, 6018.597
1146.482, 6021.004
1146.964, 6056.531
1147.446, 6075.378
1147.928, 6059.959
1148.410, 6043.681
1148.892, 6062.000
1149.374, 6070.964
1149.856, 6008.029
1150.339, 5939.132
1150.821, 5932.865
1151.303, 5963.797
1151.785, 5996.549
1152.267, 6022.733
1152.749, 6035.153
1153.231, 6025.979
1153.713, 6027.271
1154.195, 6072.752
1154.677, 6092.965
1155.160, 6045.649
1155.642, 5990.271
1156.124, 5961.371
1156.606, 5947.995
1157.088, 5933.947
1157.570, 5920.308
1158.052, 5923.519
1158.534, 5953.343
1159.017, 5949.411
1159.499, 5899.782
1159.981, 5872.378
1160.463, 5889.425
1160.945, 5916.370
1161.427, 5928.477
1161.909, 5934.619
1162.391, 5953.125
1162.874, 5976.909
1163.356, 5980.347
1163.838, 5968.849
1164.320, 5959.637
1164.802, 5953.216
1165.284, 5936.918
1165.766, 5909.573
1166.248, 5901.586
1166.730, 5949.510
1167.213, 5981.075
1167.695, 5903.892
1168.177, 5817.932
1168.659, 5813.204
1169.141, 5853.034
1169.623, 5898.462
1170.105, 5939.908
1170.587, 5970.117
1171.069, 5987.986
1171.552, 5993.291
1172.034, 5988.399
1172.516, 5966.565
1172.998, 5901.865
1173.480, 5857.283
1173.962, 5875.731
1174.444, 5902.345
1174.926, 5872.934
1175.409, 5810.894
1175.891, 5804.582
1176.373, 5860.649
1176.855, 5870.445
1177.337, 5832.508
1177.819, 5822.698
1178.301, 5853.959
1178.783, 5860.693
1179.266, 5810.761
1179.748, 5764.945
1180.230, 5794.469
1180.712, 5853.896
1181.194, 5871.906
1181.676, 5866.808
1182.158, 5864.420
1182.640, 5866.293
1183.122, 5873.939
1183.604, 5884.033
1184.087, 5884.780
1184.569, 5871.364
1185.051, 5852.395
1185.533, 5822.761
1186.015, 5800.783
1186.497, 5799.938
1186.979, 5803.173
1187.461, 5800.309
1187.944, 5793.040
1188.426, 5777.854
1188.908, 5759.786
1189.390, 5772.194
1189.872, 5829.134
1190.354, 5866.807
1190.836, 5882.911
1191.318, 5889.864
1191.801, 5889.946
1192.283, 5883.376
1192.765, 5870.017
1193.247, 5851.372
1193.729, 5825.759
1194.211, 5801.649
1194.693, 5802.916
1195.175, 5821.136
1195.657, 5836.734
1196.140, 5848.147
1196.622, 5853.935
1197.104, 5856.025
1197.586, 5867.691
1198.068, 5897.842
1198.550, 5905.461
1199.032, 5837.299
1199.514, 5775.038
1199.996, 5773.408
1200.479, 5787.401
1200.961, 5785.102
1201.443, 5772.938
1201.925, 5764.953
1202.407, 5759.848
1202.889, 5740.186
1203.371, 5686.657
1203.853, 5685.853
1204.336, 5761.147
1204.818, 5814.227
1205.300, 5825.716
1205.782, 5807.534
1206.264, 5761.007
1206.746, 5720.822
1207.228, 5733.461
1207.710, 5772.369
1208.193, 5769.224
1208.675, 5738.200
1209.157, 5713.820
1209.639, 5699.954
1210.121, 5705.766
1210.603, 5727.001
1211.085, 5741.507
1211.567, 5740.401
1212.049, 5739.395
1212.531, 5751.325
1213.014, 5761.674
1213.496, 5772.385
1213.978, 5768.214
1214.460, 5715.491
1214.942, 5658.620
1215.424, 5662.027
1215.906, 5708.474
1216.388, 5726.423
1216.871, 5708.605
1217.353, 5711.121
1217.835, 5746.773
1218.317, 5740.635
1218.799, 5673.169
1219.281, 5631.990
1219.763, 5655.102
1220.245, 5691.316
1220.728, 5693.775
1221.210, 5682.245
1221.692, 5693.779
1222.174, 5715.326
1222.656, 5713.105
1223.138, 5702.970
1223.620, 5731.432
1224.102, 5781.423
1224.584, 5783.610
1225.067, 5725.594
1225.549, 5688.576
1226.031, 5726.735
1226.513, 5752.448
1226.995, 5731.177
1227.477, 5698.300
1227.959, 5648.000
1228.441, 5615.172
1228.923, 5636.428
1229.406, 5680.042
1229.888, 5688.197
1230.370, 5666.290
1230.852, 5678.302
1231.334, 5726.529
1231.816, 5751.327
1232.298, 5749.311
1232.780, 5720.975
1233.263, 5670.676
1233.745, 5648.057
1234.227, 5682.411
1234.709, 5720.233
1235.191, 5694.999
1235.673, 5657.192
1236.155, 5668.769
1236.637, 5692.773
1237.120, 5683.802
1237.602, 5660.036
1238.084, 5651.468
1238.566, 5660.467
1239.048, 5682.905
1239.530, 5729.109
1240.012, 5740.149
1240.494, 5697.502
1240.976, 5649.251
1241.458, 5590.120
1241.941, 5554.663
1242.423, 5560.165
1242.905, 5583.521
##END=



