##NAMES=Anthophyllite
##RRUFFID=R070245
##IDEAL CHEMISTRY=[box]Mg_2_Mg_5_Si_8_O_22_(OH)_2_
##LOCALITY=Shartash, Zlatoust, Ilmen Mts, Chelyabinsk Oblast', Urals Region, Russia
##OWNER=RRUFF
##SOURCE=Michael Scott
##DESCRIPTION=Translucent to transparent grey bladed crystals with satin luster (fibrous appearance) associated with hematite
##STATUS=The identification of this mineral has been confirmed only by single crystal X-ray diffraction.
##URL=rruff.info/R070245
181.4815, 48350.76
181.9637, 48754.91
182.4458, 49177.81
182.9279, 49570.84
183.4100, 49944.01
183.8921, 50345.66
184.3742, 50818.80
184.8564, 51317.45
185.3385, 51746.29
185.8206, 52112.84
186.3027, 52363.06
186.7848, 52415.46
187.2669, 52286.38
187.7491, 52102.52
188.2312, 51864.63
188.7133, 51605.15
189.1954, 51445.48
189.6775, 51394.50
190.1596, 51409.43
190.6418, 51447.29
191.1239, 51507.98
191.6060, 51588.93
192.0881, 51700.95
192.5702, 51838.78
193.0524, 51954.76
193.5345, 52045.39
194.0166, 52122.63
194.4987, 52195.11
194.9808, 52261.32
195.4629, 52346.09
195.9451, 52478.53
196.4272, 52658.56
196.9093, 52781.48
197.3914, 52831.63
197.8735, 52844.13
198.3556, 52884.74
198.8378, 52957.00
199.3199, 53033.73
199.8020, 53102.74
200.2841, 53163.64
200.7662, 53213.93
201.2483, 53252.04
201.7305, 53280.73
202.2126, 53304.31
202.6947, 53320.55
203.1768, 53340.02
203.6589, 53376.82
204.1410, 53437.14
204.6232, 53468.43
205.1053, 53463.61
205.5874, 53427.87
206.0695, 53372.30
206.5516, 53288.05
207.0337, 53207.23
207.5159, 53161.52
207.9980, 53167.07
208.4801, 53133.20
208.9622, 53039.36
209.4443, 52897.87
209.9264, 52770.64
210.4086, 52665.34
210.8907, 52558.38
211.3728, 52427.29
211.8549, 52257.41
212.3370, 52110.45
212.8191, 51998.36
213.3013, 51918.18
213.7834, 51838.00
214.2655, 51759.39
214.7476, 51677.91
215.2297, 51580.79
215.7118, 51441.85
216.1940, 51360.07
216.6761, 51367.71
217.1582, 51459.91
217.6403, 51533.08
218.1224, 51590.23
218.6045, 51623.37
219.0867, 51614.93
219.5688, 51534.33
220.0509, 51486.52
220.5330, 51507.22
221.0151, 51598.96
221.4972, 51647.14
221.9794, 51636.09
222.4615, 51599.53
222.9436, 51566.33
223.4257, 51517.05
223.9078, 51514.58
224.3899, 51594.98
224.8721, 51771.65
225.3542, 51866.97
225.8363, 51858.24
226.3184, 51790.71
226.8005, 51712.44
227.2827, 51612.95
227.7648, 51524.04
228.2469, 51457.18
228.7290, 51416.69
229.2111, 51365.53
229.6932, 51297.68
230.1754, 51224.66
230.6575, 51160.42
231.1396, 51107.21
231.6217, 51060.00
232.1038, 51020.65
232.5859, 50993.30
233.0681, 50948.72
233.5502, 50868.95
234.0323, 50785.00
234.5144, 50741.13
234.9965, 50747.04
235.4786, 50778.36
235.9608, 50837.45
236.4429, 50937.20
236.9250, 50997.44
237.4071, 50987.66
237.8892, 50956.91
238.3713, 50988.75
238.8535, 51127.89
239.3356, 51254.06
239.8177, 51316.77
240.2998, 51282.10
240.7819, 51319.83
241.2640, 51466.77
241.7462, 51665.27
242.2283, 51812.51
242.7104, 51867.94
243.1925, 51939.08
243.6746, 52066.98
244.1567, 52274.91
244.6389, 52464.53
245.1210, 52641.18
245.6031, 52796.18
246.0852, 52909.46
246.5673, 52963.87
247.0494, 53005.47
247.5316, 53045.35
248.0137, 53075.01
248.4958, 53134.28
248.9779, 53235.74
249.4600, 53359.55
249.9421, 53470.89
250.4243, 53582.35
250.9064, 53659.93
251.3885, 53679.20
251.8706, 53607.29
252.3527, 53589.96
252.8348, 53646.10
253.3170, 53744.81
253.7991, 53822.10
254.2812, 53848.60
254.7633, 53909.05
255.2454, 54057.60
255.7275, 54346.35
256.2097, 54514.18
256.6918, 54502.36
257.1739, 54408.16
257.6560, 54410.06
258.1381, 54528.34
258.6202, 54702.55
259.1024, 54929.43
259.5845, 55234.58
260.0666, 55476.89
260.5487, 55649.09
261.0308, 55763.26
261.5129, 55846.33
261.9951, 55896.39
262.4772, 55918.46
262.9593, 55922.52
263.4414, 55921.17
263.9235, 55833.34
264.4056, 55627.78
264.8878, 55363.47
265.3699, 55136.05
265.8520, 54947.70
266.3341, 54784.48
266.8162, 54639.11
267.2983, 54512.04
267.7805, 54409.76
268.2626, 54338.84
268.7447, 54286.43
269.2268, 54235.41
269.7089, 54190.42
270.1910, 54129.73
270.6732, 54025.65
271.1553, 53866.57
271.6374, 53795.11
272.1195, 53837.19
272.6016, 53928.81
273.0837, 53963.50
273.5659, 53931.41
274.0480, 53893.70
274.5301, 53866.64
275.0122, 53849.84
275.4943, 53871.16
275.9764, 53945.52
276.4586, 54029.95
276.9407, 54049.22
277.4228, 53994.09
277.9049, 53952.18
278.3870, 53958.83
278.8691, 54012.43
279.3513, 54078.11
279.8334, 54158.16
280.3155, 54244.42
280.7976, 54331.89
281.2798, 54420.64
281.7619, 54492.21
282.2440, 54532.41
282.7261, 54546.17
283.2082, 54565.11
283.6903, 54585.05
284.1725, 54625.59
284.6546, 54726.83
285.1367, 54885.21
285.6188, 55029.48
286.1009, 55131.50
286.5830, 55198.60
287.0652, 55261.23
287.5473, 55318.98
288.0294, 55371.27
288.5115, 55402.22
288.9936, 55418.15
289.4757, 55470.05
289.9579, 55592.56
290.4400, 55759.02
290.9221, 55903.34
291.4042, 56025.34
291.8863, 56127.71
292.3684, 56185.83
292.8506, 56217.45
293.3327, 56303.13
293.8148, 56501.21
294.2969, 56750.36
294.7790, 56923.77
295.2611, 57021.94
295.7433, 57118.46
296.2254, 57293.70
296.7075, 57522.61
297.1896, 57726.46
297.6717, 57873.44
298.1538, 57996.94
298.6360, 58152.78
299.1181, 58338.54
299.6002, 58508.71
300.0823, 58644.04
300.5644, 58738.96
301.0465, 58783.41
301.5287, 58768.86
302.0108, 58710.37
302.4929, 58615.75
302.9750, 58487.38
303.4571, 58344.39
303.9392, 58173.90
304.4214, 58003.31
304.9035, 57868.05
305.3856, 57789.92
305.8677, 57732.88
306.3498, 57669.50
306.8319, 57602.99
307.3141, 57543.19
307.7962, 57491.94
308.2783, 57452.98
308.7604, 57432.54
309.2425, 57440.81
309.7246, 57449.21
310.2068, 57440.40
310.6889, 57417.53
311.1710, 57388.82
311.6531, 57344.23
312.1352, 57303.84
312.6173, 57284.83
313.0995, 57295.67
313.5816, 57311.79
314.0637, 57311.10
314.5458, 57308.43
315.0279, 57331.55
315.5100, 57432.60
315.9922, 57530.97
316.4743, 57568.50
316.9564, 57513.75
317.4385, 57501.03
317.9206, 57633.87
318.4027, 57821.81
318.8849, 57938.41
319.3670, 57875.03
319.8491, 57800.30
320.3312, 57775.11
320.8133, 57809.60
321.2954, 57859.88
321.7776, 57927.61
322.2597, 58003.19
322.7418, 58076.38
323.2239, 58166.39
323.7060, 58233.22
324.1881, 58245.11
324.6703, 58192.43
325.1524, 58201.15
325.6345, 58343.82
326.1166, 58517.29
326.5987, 58639.21
327.0808, 58626.33
327.5630, 58659.97
328.0451, 58793.67
328.5272, 59019.75
329.0093, 59168.11
329.4914, 59172.53
329.9735, 59156.18
330.4557, 59199.74
330.9378, 59341.09
331.4199, 59477.45
331.9020, 59603.67
332.3841, 59719.75
332.8662, 59823.82
333.3484, 59905.04
333.8305, 59989.14
334.3126, 60092.11
334.7947, 60218.36
335.2768, 60348.15
335.7589, 60486.36
336.2411, 60624.07
336.7232, 60748.66
337.2053, 60868.14
337.6874, 60948.15
338.1695, 60958.31
338.6516, 60887.35
339.1338, 60847.02
339.6159, 60847.43
340.0980, 60866.29
340.5801, 60864.21
341.0622, 60838.46
341.5443, 60816.55
342.0265, 60815.70
342.5086, 60832.00
342.9907, 60823.66
343.4728, 60785.73
343.9549, 60742.81
344.4370, 60736.66
344.9192, 60761.59
345.4013, 60759.92
345.8834, 60685.48
346.3655, 60577.14
346.8476, 60552.05
347.3297, 60612.53
347.8119, 60688.14
348.2940, 60701.71
348.7761, 60675.69
349.2582, 60678.44
349.7403, 60741.93
350.2225, 60830.18
350.7046, 60890.52
351.1867, 60926.84
351.6688, 60964.80
352.1509, 61025.79
352.6331, 61099.63
353.1152, 61171.17
353.5973, 61236.64
354.0794, 61299.91
354.5615, 61356.08
355.0436, 61411.10
355.5258, 61482.96
356.0079, 61570.87
356.4900, 61685.90
356.9721, 61856.50
357.4542, 62116.78
357.9363, 62331.75
358.4185, 62404.82
358.9006, 62383.55
359.3827, 62350.26
359.8648, 62287.09
360.3469, 62259.77
360.8290, 62326.24
361.3112, 62509.38
361.7933, 62653.10
362.2754, 62673.09
362.7575, 62642.22
363.2396, 62639.68
363.7217, 62708.77
364.2039, 62782.42
364.6860, 62840.94
365.1681, 62883.89
365.6502, 62936.72
366.1323, 62987.86
366.6144, 63058.69
367.0966, 63165.17
367.5787, 63389.48
368.0608, 63546.70
368.5429, 63589.96
369.0250, 63545.89
369.5071, 63550.61
369.9893, 63631.96
370.4714, 63729.35
370.9535, 63812.73
371.4356, 63866.64
371.9177, 63937.90
372.3998, 64019.41
372.8820, 64123.04
373.3641, 64285.43
373.8462, 64536.39
374.3283, 64767.26
374.8104, 64920.58
375.2925, 64987.84
375.7747, 65089.18
376.2568, 65221.87
376.7389, 65395.52
377.2210, 65644.74
377.7031, 65977.33
378.1852, 66270.80
378.6674, 66475.87
379.1495, 66613.00
379.6316, 66783.38
380.1137, 66989.36
380.5958, 67194.13
381.0779, 67357.63
381.5601, 67488.16
382.0422, 67614.49
382.5243, 67746.06
383.0064, 67876.91
383.4885, 68014.10
383.9706, 68152.68
384.4528, 68246.53
384.9349, 68266.44
385.4170, 68221.40
385.8991, 68119.82
386.3812, 67951.78
386.8633, 67760.60
387.3455, 67576.94
387.8276, 67401.01
388.3097, 67230.20
388.7918, 67017.65
389.2739, 66841.07
389.7560, 66782.05
390.2382, 66855.58
390.7203, 66939.75
391.2024, 67000.37
391.6845, 67024.81
392.1666, 66998.81
392.6487, 66881.26
393.1309, 66745.61
393.6130, 66623.88
394.0951, 66513.67
394.5772, 66386.09
395.0593, 66228.69
395.5414, 66054.66
396.0236, 65873.59
396.5057, 65640.08
396.9878, 65454.17
397.4699, 65342.04
397.9520, 65287.48
398.4341, 65240.26
398.9163, 65203.36
399.3984, 65170.64
399.8805, 65136.02
400.3626, 65086.66
400.8447, 65074.56
401.3268, 65109.60
401.8090, 65174.65
402.2911, 65249.95
402.7732, 65340.91
403.2553, 65426.26
403.7374, 65501.95
404.2195, 65567.73
404.7017, 65608.98
405.1838, 65609.60
405.6659, 65630.16
406.1480, 65742.71
406.6301, 65949.37
407.1122, 66130.62
407.5944, 66260.59
408.0765, 66357.94
408.5586, 66465.23
409.0407, 66582.60
409.5228, 66692.99
410.0049, 66801.87
410.4871, 66894.52
410.9692, 66920.66
411.4513, 66864.84
411.9334, 66784.08
412.4155, 66759.16
412.8976, 66764.10
413.3798, 66726.09
413.8619, 66561.18
414.3440, 66365.52
414.8261, 66234.05
415.3082, 66168.80
415.7903, 66139.79
416.2725, 66153.23
416.7546, 66181.65
417.2367, 66193.70
417.7188, 66159.63
418.2009, 66128.92
418.6830, 66107.62
419.1652, 66103.82
419.6473, 66148.13
420.1294, 66290.78
420.6115, 66454.79
421.0937, 66606.12
421.5758, 66752.43
422.0579, 66852.89
422.5400, 66841.47
423.0221, 66793.75
423.5042, 66834.63
423.9864, 67041.60
424.4685, 67254.41
424.9506, 67451.41
425.4327, 67632.53
425.9148, 67759.77
426.3969, 67797.64
426.8791, 67822.02
427.3612, 67903.14
427.8433, 68064.30
428.3254, 68209.29
428.8075, 68326.88
429.2896, 68417.95
429.7718, 68484.03
430.2539, 68525.77
430.7360, 68541.40
431.2181, 68528.71
431.7002, 68488.00
432.1823, 68422.38
432.6645, 68330.77
433.1466, 68217.94
433.6287, 68087.23
434.1108, 67940.88
434.5929, 67787.79
435.0750, 67613.58
435.5572, 67444.21
436.0393, 67337.29
436.5214, 67290.14
437.0035, 67245.96
437.4856, 67145.76
437.9677, 67025.75
438.4499, 66936.71
438.9320, 66894.68
439.4141, 66881.25
439.8962, 66889.66
440.3783, 66917.13
440.8604, 66956.71
441.3426, 67023.23
441.8247, 67086.96
442.3068, 67137.85
442.7889, 67180.70
443.2710, 67181.57
443.7531, 67068.98
444.2353, 66934.13
444.7174, 66875.99
445.1995, 66999.41
445.6816, 67101.86
446.1637, 67139.85
446.6458, 67119.82
447.1280, 67114.50
447.6101, 67135.63
448.0922, 67158.55
448.5743, 67167.22
449.0564, 67149.34
449.5385, 67153.31
450.0207, 67192.65
450.5028, 67243.16
450.9849, 67251.52
451.4670, 67206.94
451.9491, 67175.20
452.4312, 67188.31
452.9134, 67239.09
453.3955, 67274.52
453.8776, 67294.84
454.3597, 67297.82
454.8418, 67264.80
455.3239, 67207.84
455.8061, 67178.01
456.2882, 67187.38
456.7703, 67227.65
457.2524, 67306.25
457.7345, 67411.66
458.2166, 67498.58
458.6988, 67525.54
459.1809, 67526.27
459.6630, 67537.27
460.1451, 67564.23
460.6272, 67587.73
461.1093, 67593.09
461.5915, 67588.57
462.0736, 67584.23
462.5557, 67560.86
463.0378, 67560.30
463.5199, 67613.33
464.0020, 67711.32
464.4842, 67791.89
464.9663, 67844.27
465.4484, 67873.48
465.9305, 67878.84
466.4126, 67823.55
466.8947, 67810.72
467.3769, 67864.70
467.8590, 67950.34
468.3411, 68010.88
468.8232, 68035.79
469.3053, 68055.45
469.7874, 68076.41
470.2696, 68098.77
470.7517, 68126.24
471.2338, 68161.72
471.7159, 68193.21
472.1980, 68201.09
472.6801, 68186.57
473.1623, 68200.70
473.6444, 68257.02
474.1265, 68332.54
474.6086, 68388.83
475.0907, 68428.34
475.5728, 68466.95
476.0550, 68511.55
476.5371, 68561.29
477.0192, 68614.20
477.5013, 68670.43
477.9834, 68730.15
478.4655, 68807.35
478.9477, 68884.05
479.4298, 68934.60
479.9119, 68933.48
480.3940, 68928.07
480.8761, 68930.35
481.3582, 68945.93
481.8404, 68991.48
482.3225, 69075.08
482.8046, 69187.77
483.2867, 69349.88
483.7688, 69609.84
484.2509, 69756.02
484.7331, 69666.54
485.2152, 69508.45
485.6973, 69438.98
486.1794, 69531.02
486.6615, 69583.95
487.1436, 69545.38
487.6258, 69445.25
488.1079, 69434.75
488.5900, 69541.54
489.0721, 69662.01
489.5542, 69728.27
490.0363, 69739.73
490.5185, 69813.13
491.0006, 69968.24
491.4827, 70127.13
491.9648, 70166.44
492.4470, 70108.56
492.9291, 70073.03
493.4112, 70094.70
493.8933, 70166.27
494.3754, 70314.38
494.8575, 70522.94
495.3397, 70681.78
495.8218, 70651.70
496.3039, 70568.34
496.7860, 70593.87
497.2681, 70782.36
497.7502, 70960.98
498.2324, 71018.84
498.7145, 71017.62
499.1966, 71042.27
499.6787, 71157.98
500.1608, 71262.26
500.6429, 71319.51
501.1251, 71331.82
501.6072, 71344.63
502.0893, 71383.67
502.5714, 71404.11
503.0535, 71378.10
503.5356, 71264.60
504.0178, 71204.82
504.4999, 71214.79
504.9820, 71264.71
505.4641, 71315.77
505.9462, 71370.98
506.4283, 71409.67
506.9105, 71419.31
507.3926, 71409.02
507.8747, 71412.66
508.3568, 71430.38
508.8389, 71461.21
509.3210, 71505.58
509.8032, 71562.87
510.2853, 71641.64
510.7674, 71752.34
511.2495, 71844.16
511.7316, 71835.47
512.2137, 71770.86
512.6959, 71741.14
513.1780, 71820.86
513.6601, 71917.29
514.1422, 71953.77
514.6243, 71942.89
515.1064, 71974.05
515.5886, 72146.05
516.0707, 72326.60
516.5528, 72426.24
517.0349, 72376.21
517.5170, 72367.55
517.9991, 72438.33
518.4813, 72552.30
518.9634, 72668.42
519.4455, 72804.90
519.9276, 72910.16
520.4097, 72959.40
520.8918, 72964.72
521.3740, 73015.04
521.8561, 73119.71
522.3382, 73238.47
522.8203, 73365.28
523.3024, 73495.14
523.7845, 73544.03
524.2667, 73491.76
524.7488, 73418.18
525.2309, 73422.85
525.7130, 73488.84
526.1951, 73558.55
526.6772, 73627.83
527.1594, 73676.72
527.6415, 73655.02
528.1236, 73582.16
528.6057, 73543.19
529.0878, 73609.29
529.5699, 73713.51
530.0521, 73814.94
530.5342, 73917.01
531.0163, 73980.03
531.4984, 73945.62
531.9805, 73885.90
532.4626, 73877.44
532.9448, 73968.59
533.4269, 74066.46
533.9090, 74163.20
534.3911, 74259.38
534.8732, 74356.62
535.3553, 74468.39
535.8375, 74557.92
536.3196, 74608.02
536.8017, 74618.54
537.2838, 74608.23
537.7659, 74577.63
538.2480, 74524.04
538.7302, 74426.08
539.2123, 74293.02
539.6944, 74198.62
540.1765, 74169.65
540.6586, 74166.23
541.1407, 74126.88
541.6229, 74062.77
542.1050, 74013.31
542.5871, 74024.37
543.0692, 74043.34
543.5513, 74017.84
544.0334, 73945.72
544.5156, 73873.06
544.9977, 73814.95
545.4798, 73768.95
545.9619, 73733.65
546.4440, 73706.05
546.9261, 73693.20
547.4083, 73708.34
547.8904, 73736.54
548.3725, 73750.63
548.8546, 73744.38
549.3367, 73733.95
549.8188, 73720.22
550.3010, 73704.30
550.7831, 73699.05
551.2652, 73704.95
551.7473, 73720.09
552.2294, 73751.37
552.7115, 73795.52
553.1937, 73810.24
553.6758, 73784.69
554.1579, 73760.92
554.6400, 73797.77
555.1221, 73879.62
555.6042, 73961.50
556.0864, 74033.21
556.5685, 74093.24
557.0506, 74137.48
557.5327, 74167.82
558.0148, 74190.38
558.4969, 74212.20
558.9791, 74224.15
559.4612, 74209.36
559.9433, 74153.45
560.4254, 74138.19
560.9075, 74226.86
561.3896, 74335.30
561.8718, 74387.93
562.3539, 74328.59
562.8360, 74310.30
563.3181, 74358.09
563.8002, 74447.03
564.2823, 74522.40
564.7645, 74584.57
565.2466, 74628.05
565.7287, 74645.55
566.2108, 74641.90
566.6929, 74640.05
567.1750, 74640.21
567.6572, 74637.66
568.1393, 74608.23
568.6214, 74576.66
569.1035, 74601.07
569.5856, 74701.23
570.0677, 74814.32
570.5499, 74898.32
571.0320, 74959.73
571.5141, 75009.60
571.9962, 75047.14
572.4783, 75078.74
572.9604, 75106.02
573.4426, 75128.96
573.9247, 75147.83
574.4068, 75153.47
574.8889, 75163.16
575.3710, 75178.91
575.8531, 75194.95
576.3353, 75250.25
576.8174, 75364.84
577.2995, 75488.17
577.7816, 75582.47
578.2637, 75649.31
578.7458, 75650.23
579.2280, 75554.84
579.7101, 75436.60
580.1922, 75439.53
580.6743, 75545.18
581.1564, 75649.35
581.6385, 75707.90
582.1207, 75735.67
582.6028, 75740.73
583.0849, 75726.30
583.5670, 75717.65
584.0491, 75741.48
584.5313, 75769.51
585.0134, 75775.84
585.4955, 75745.76
585.9776, 75729.54
586.4597, 75741.10
586.9418, 75772.86
587.4240, 75817.66
587.9061, 75899.23
588.3882, 75954.05
588.8703, 75956.88
589.3524, 75933.59
589.8345, 75970.22
590.3167, 76086.44
590.7988, 76187.18
591.2809, 76225.82
591.7630, 76213.55
592.2451, 76195.63
592.7272, 76171.09
593.2094, 76164.94
593.6915, 76214.19
594.1736, 76293.32
594.6557, 76353.45
595.1378, 76383.29
595.6199, 76403.68
596.1021, 76421.08
596.5842, 76440.95
597.0663, 76471.22
597.5485, 76529.02
598.0306, 76581.94
598.5127, 76609.38
598.9948, 76620.59
599.4769, 76657.27
599.9590, 76763.48
600.4412, 76844.78
600.9233, 76854.13
601.4054, 76782.80
601.8875, 76787.88
602.3696, 76893.95
602.8517, 77016.22
603.3339, 77070.55
603.8160, 77064.43
604.2981, 77097.84
604.7802, 77191.13
605.2623, 77292.03
605.7444, 77320.62
606.2266, 77301.23
606.7087, 77297.73
607.1908, 77338.40
607.6729, 77399.11
608.1550, 77477.64
608.6371, 77563.36
609.1193, 77624.49
609.6014, 77634.54
610.0835, 77628.07
610.5656, 77611.72
611.0477, 77580.83
611.5298, 77584.76
612.0120, 77651.86
612.4941, 77726.87
612.9762, 77767.53
613.4583, 77754.46
613.9404, 77782.81
614.4225, 77872.40
614.9047, 77975.65
615.3868, 78018.86
615.8689, 78006.96
616.3510, 77999.12
616.8331, 78010.08
617.3152, 78037.21
617.7974, 78095.36
618.2795, 78171.35
618.7616, 78217.31
619.2437, 78147.55
619.7258, 78081.65
620.2079, 78132.55
620.6901, 78304.29
621.1722, 78442.47
621.6543, 78481.09
622.1364, 78477.55
622.6185, 78462.31
623.1006, 78410.25
623.5828, 78411.27
624.0649, 78499.99
624.5470, 78610.05
625.0291, 78650.26
625.5112, 78599.59
625.9933, 78594.43
626.4755, 78667.53
626.9576, 78787.85
627.4397, 78906.48
627.9218, 79020.41
628.4039, 79106.59
628.8860, 79137.08
629.3682, 79142.06
629.8503, 79148.41
630.3324, 79159.92
630.8145, 79203.80
631.2966, 79351.33
631.7787, 79497.74
632.2609, 79553.20
632.7430, 79472.37
633.2251, 79435.59
633.7072, 79510.98
634.1893, 79624.40
634.6714, 79716.76
635.1536, 79784.12
635.6357, 79837.04
636.1178, 79868.48
636.5999, 79893.31
637.0820, 79938.85
637.5641, 80005.46
638.0463, 80080.41
638.5284, 80164.28
639.0105, 80250.38
639.4926, 80321.77
639.9747, 80382.34
640.4568, 80452.19
640.9390, 80585.87
641.4211, 80707.86
641.9032, 80712.77
642.3853, 80593.70
642.8674, 80545.40
643.3495, 80676.08
643.8317, 80884.53
644.3138, 81113.00
644.7959, 81426.37
645.2780, 81611.24
645.7601, 81601.41
646.2422, 81521.09
646.7244, 81508.95
647.2065, 81569.30
647.6886, 81684.67
648.1707, 81873.32
648.6528, 82083.89
649.1349, 82192.54
649.6171, 82216.22
650.0992, 82278.08
650.5813, 82457.23
651.0634, 82692.38
651.5455, 82916.90
652.0276, 83133.72
652.5098, 83347.70
652.9919, 83553.47
653.4740, 83763.95
653.9561, 83981.52
654.4382, 84201.94
654.9203, 84457.66
655.4025, 84740.32
655.8846, 85069.75
656.3667, 85456.45
656.8488, 85902.54
657.3309, 86407.70
657.8130, 86982.84
658.2952, 87602.60
658.7773, 88214.53
659.2594, 88830.05
659.7415, 89526.66
660.2236, 90338.35
660.7057, 91222.27
661.1879, 92111.87
661.6700, 93016.55
662.1521, 93952.93
662.6342, 94913.49
663.1163, 95921.85
663.5984, 96984.45
664.0806, 98104.20
664.5627, 99304.74
665.0448, 100648.4
665.5269, 102008.3
666.0090, 103318.5
666.4911, 104549.2
666.9733, 105886.4
667.4554, 107393.9
667.9375, 108881.0
668.4196, 110177.3
668.9017, 111292.9
669.3839, 112433.4
669.8660, 113647.3
670.3481, 114728.4
670.8302, 115509.9
671.3123, 115966.3
671.7944, 116034.5
672.2766, 115644.5
672.7587, 114939.7
673.2408, 113933.7
673.7229, 112689.0
674.2050, 111309.6
674.6871, 109765.3
675.1693, 108152.1
675.6514, 106460.4
676.1335, 104699.0
676.6156, 102924.1
677.0977, 101080.1
677.5798, 99358.42
678.0620, 97872.91
678.5441, 96597.69
679.0262, 95413.20
679.5083, 94309.76
679.9904, 93294.65
680.4725, 92370.67
680.9547, 91539.34
681.4368, 90804.50
681.9189, 90179.65
682.4010, 89591.34
682.8831, 88980.69
683.3652, 88392.59
683.8474, 87878.93
684.3295, 87449.09
684.8116, 87097.73
685.2937, 86881.93
685.7758, 86717.42
686.2579, 86493.27
686.7401, 86173.45
687.2222, 85893.16
687.7043, 85675.77
688.1864, 85515.09
688.6685, 85410.56
689.1506, 85359.13
689.6328, 85312.46
690.1149, 85247.62
690.5970, 85175.16
691.0791, 85094.66
691.5612, 85014.04
692.0433, 84975.01
692.5255, 85053.51
693.0076, 85136.59
693.4897, 85137.31
693.9718, 85039.30
694.4539, 84987.09
694.9360, 85057.99
695.4182, 85125.96
695.9003, 85123.19
696.3824, 85035.65
696.8645, 84931.70
697.3466, 84805.01
697.8287, 84678.46
698.3109, 84585.63
698.7930, 84517.77
699.2751, 84422.72
699.7572, 84284.80
700.2393, 84146.38
700.7214, 84055.05
701.2036, 83993.27
701.6857, 83931.34
702.1678, 83835.50
702.6499, 83764.77
703.1320, 83762.91
703.6141, 83801.92
704.0963, 83810.82
704.5784, 83769.80
705.0605, 83723.93
705.5426, 83685.63
706.0247, 83649.38
706.5068, 83578.51
706.9890, 83464.16
707.4711, 83385.99
707.9532, 83413.30
708.4353, 83501.22
708.9174, 83527.23
709.3995, 83497.35
709.8817, 83468.84
710.3638, 83472.85
710.8459, 83501.13
711.3280, 83554.20
711.8101, 83636.39
712.2922, 83705.54
712.7744, 83756.36
713.2565, 83785.09
713.7386, 83787.92
714.2207, 83746.97
714.7028, 83727.52
715.1849, 83735.34
715.6671, 83754.30
716.1492, 83765.83
716.6313, 83770.88
717.1134, 83783.48
717.5955, 83807.66
718.0776, 83834.22
718.5598, 83860.38
719.0419, 83879.33
719.5240, 83877.34
720.0061, 83835.04
720.4882, 83788.48
720.9703, 83760.73
721.4525, 83740.11
721.9346, 83699.63
722.4167, 83601.95
722.8988, 83527.61
723.3809, 83494.84
723.8630, 83496.18
724.3452, 83507.87
724.8273, 83533.02
725.3094, 83545.41
725.7915, 83521.18
726.2736, 83479.32
726.7557, 83471.89
727.2379, 83495.45
727.7200, 83523.17
728.2021, 83537.52
728.6842, 83548.71
729.1663, 83565.05
729.6484, 83587.27
730.1306, 83611.59
730.6127, 83643.13
731.0948, 83671.25
731.5769, 83691.34
732.0590, 83704.21
732.5411, 83705.14
733.0233, 83691.64
733.5054, 83671.77
733.9875, 83646.47
734.4696, 83618.61
734.9517, 83611.23
735.4338, 83627.70
735.9160, 83658.94
736.3981, 83714.64
736.8802, 83773.21
737.3623, 83796.89
737.8444, 83741.57
738.3266, 83716.64
738.8087, 83792.51
739.2908, 83914.10
739.7729, 84000.62
740.2551, 84038.48
740.7372, 84061.87
741.2193, 84075.94
741.7014, 84076.48
742.1835, 84028.16
742.6656, 83930.10
743.1478, 83921.69
743.6299, 84099.05
744.1120, 84325.42
744.5941, 84370.22
745.0762, 84279.01
745.5583, 84194.72
746.0405, 84173.13
746.5226, 84192.20
747.0047, 84262.11
747.4868, 84370.74
747.9689, 84450.65
748.4510, 84463.72
748.9332, 84484.74
749.4153, 84535.31
749.8974, 84614.21
750.3795, 84715.34
750.8616, 84841.74
751.3438, 84963.28
751.8259, 85063.14
752.3080, 85143.09
752.7901, 85202.20
753.2722, 85241.67
753.7543, 85288.07
754.2365, 85363.55
754.7186, 85450.21
755.2007, 85540.70
755.6828, 85641.38
756.1649, 85705.25
756.6470, 85712.09
757.1292, 85691.47
757.6113, 85650.16
758.0934, 85571.27
758.5755, 85551.11
759.0576, 85596.43
759.5397, 85677.66
760.0219, 85770.63
760.5040, 85874.78
760.9861, 85992.20
761.4682, 86127.52
761.9503, 86246.28
762.4324, 86321.73
762.9146, 86365.59
763.3967, 86393.20
763.8788, 86422.63
764.3609, 86411.98
764.8430, 86325.61
765.3251, 86211.88
765.8073, 86122.90
766.2894, 86063.80
766.7715, 86011.34
767.2536, 85965.39
767.7357, 85919.84
768.2178, 85852.84
768.7000, 85774.13
769.1821, 85728.91
769.6642, 85749.90
770.1463, 85778.98
770.6284, 85763.04
771.1105, 85719.45
771.5927, 85681.80
772.0748, 85660.26
772.5569, 85645.77
773.0390, 85628.90
773.5211, 85618.70
774.0032, 85651.42
774.4854, 85751.12
774.9675, 85798.01
775.4496, 85732.94
775.9317, 85612.59
776.4138, 85578.55
776.8959, 85620.71
777.3781, 85682.38
777.8602, 85770.30
778.3423, 85835.80
778.8244, 85816.55
779.3065, 85733.72
779.7886, 85677.78
780.2708, 85727.25
780.7529, 85752.27
781.2350, 85686.12
781.7171, 85546.23
782.1992, 85513.34
782.6813, 85618.52
783.1635, 85707.88
783.6456, 85687.39
784.1277, 85593.01
784.6098, 85542.95
785.0919, 85533.54
785.5740, 85525.37
786.0562, 85465.72
786.5383, 85415.99
787.0204, 85448.58
787.5025, 85566.44
787.9846, 85641.57
788.4667, 85606.80
788.9489, 85556.73
789.4310, 85522.14
789.9131, 85502.05
790.3952, 85531.94
790.8773, 85623.63
791.3594, 85709.06
791.8416, 85744.47
792.3237, 85733.00
792.8058, 85657.65
793.2879, 85518.95
793.7700, 85417.37
794.2521, 85458.91
794.7343, 85542.29
795.2164, 85584.07
795.6985, 85565.05
796.1806, 85544.30
796.6627, 85490.80
797.1448, 85477.79
797.6270, 85583.22
798.1091, 85838.73
798.5912, 85938.16
799.0733, 85860.04
799.5554, 85734.73
800.0375, 85671.33
800.5197, 85656.32
801.0018, 85671.49
801.4839, 85717.76
801.9660, 85765.30
802.4481, 85820.50
802.9302, 85853.94
803.4124, 85834.17
803.8945, 85710.07
804.3766, 85639.33
804.8587, 85638.56
805.3408, 85669.32
805.8229, 85697.84
806.3051, 85724.19
806.7872, 85766.32
807.2693, 85827.99
807.7514, 85892.52
808.2335, 85950.08
808.7156, 85997.32
809.1978, 86026.67
809.6799, 86031.45
810.1620, 86035.76
810.6441, 86049.30
811.1262, 86067.38
811.6083, 86083.26
812.0905, 86081.29
812.5726, 86121.39
813.0547, 86229.55
813.5368, 86331.23
814.0189, 86316.23
814.5010, 86207.49
814.9832, 86141.25
815.4653, 86143.48
815.9474, 86171.73
816.4295, 86203.02
816.9116, 86230.36
817.3937, 86241.77
817.8759, 86211.57
818.3580, 86210.42
818.8401, 86308.47
819.3222, 86404.72
819.8043, 86388.62
820.2864, 86222.37
820.7686, 86117.93
821.2507, 86098.24
821.7328, 86133.06
822.2149, 86228.07
822.6970, 86344.11
823.1791, 86363.23
823.6613, 86220.27
824.1434, 86106.73
824.6255, 86190.82
825.1076, 86355.71
825.5897, 86470.25
826.0718, 86464.90
826.5540, 86475.69
827.0361, 86511.15
827.5182, 86553.97
828.0003, 86595.55
828.4824, 86635.05
828.9645, 86611.27
829.4467, 86500.55
829.9288, 86386.48
830.4109, 86364.12
830.8930, 86401.51
831.3751, 86456.36
831.8572, 86541.01
832.3394, 86587.69
832.8215, 86514.99
833.3036, 86424.53
833.7857, 86434.84
834.2678, 86598.06
834.7499, 86704.61
835.2321, 86727.84
835.7142, 86723.83
836.1963, 86772.50
836.6784, 86855.09
837.1605, 86898.25
837.6426, 86882.74
838.1248, 86849.46
838.6069, 86815.02
839.0890, 86787.29
839.5711, 86777.27
840.0532, 86808.64
840.5353, 86816.44
841.0175, 86778.66
841.4996, 86735.29
841.9817, 86724.41
842.4638, 86746.15
842.9459, 86799.16
843.4280, 86888.79
843.9102, 86981.26
844.3923, 87053.14
844.8744, 87098.67
845.3565, 87102.00
845.8386, 87049.17
846.3207, 86996.28
846.8029, 86941.61
847.2850, 86913.34
847.7671, 86940.66
848.2492, 87060.10
848.7313, 87131.61
849.2134, 87142.80
849.6956, 87136.24
850.1777, 87147.82
850.6598, 87176.73
851.1419, 87227.36
851.6240, 87303.48
852.1061, 87368.73
852.5883, 87393.70
853.0704, 87396.77
853.5525, 87394.95
854.0346, 87392.32
854.5167, 87377.88
854.9988, 87339.16
855.4810, 87304.29
855.9631, 87293.38
856.4452, 87306.74
856.9273, 87333.38
857.4094, 87374.73
857.8915, 87405.59
858.3737, 87390.72
858.8558, 87358.49
859.3379, 87341.16
859.8200, 87342.39
860.3021, 87363.66
860.7842, 87414.47
861.2664, 87478.77
861.7485, 87553.66
862.2306, 87644.67
862.7127, 87690.13
863.1948, 87682.76
863.6769, 87663.47
864.1591, 87662.30
864.6412, 87670.70
865.1233, 87651.29
865.6054, 87608.39
866.0875, 87611.75
866.5696, 87748.57
867.0518, 87907.02
867.5339, 88040.35
868.0160, 88144.33
868.4981, 88125.27
868.9802, 87913.39
869.4623, 87725.80
869.9445, 87670.23
870.4266, 87722.99
870.9087, 87785.98
871.3908, 87858.92
871.8729, 87930.83
872.3550, 88021.60
872.8372, 88088.06
873.3193, 88056.99
873.8014, 87954.26
874.2835, 87927.63
874.7656, 88117.04
875.2477, 88255.78
875.7299, 88248.66
876.2120, 88146.53
876.6941, 88168.80
877.1762, 88314.96
877.6583, 88425.91
878.1404, 88416.58
878.6226, 88351.02
879.1047, 88288.20
879.5869, 88237.52
880.0690, 88221.48
880.5511, 88316.11
881.0332, 88367.61
881.5153, 88272.59
881.9974, 88124.21
882.4796, 88124.17
882.9617, 88301.03
883.4438, 88464.98
883.9259, 88567.83
884.4080, 88642.18
884.8901, 88751.48
885.3723, 88871.30
885.8544, 88940.57
886.3365, 88896.71
886.8186, 88865.42
887.3007, 88942.67
887.7828, 89047.59
888.2650, 89060.60
888.7471, 88927.53
889.2292, 88841.66
889.7113, 88815.88
890.1934, 88847.46
890.6755, 88973.48
891.1577, 89154.35
891.6398, 89264.77
892.1219, 89272.68
892.6040, 89248.77
893.0861, 89223.10
893.5682, 89199.75
894.0504, 89179.86
894.5325, 89150.44
895.0146, 89168.63
895.4967, 89266.63
895.9788, 89352.68
896.4609, 89326.88
896.9431, 89212.48
897.4252, 89149.44
897.9073, 89145.37
898.3894, 89184.21
898.8715, 89293.45
899.3536, 89411.85
899.8358, 89486.57
900.3179, 89508.83
900.8000, 89526.29
901.2821, 89545.41
901.7642, 89559.18
902.2463, 89563.67
902.7285, 89559.88
903.2106, 89559.55
903.6927, 89561.92
904.1748, 89549.01
904.6569, 89476.13
905.1390, 89407.57
905.6212, 89425.27
906.1033, 89509.38
906.5854, 89569.84
907.0675, 89553.21
907.5496, 89543.46
908.0317, 89560.41
908.5139, 89597.65
908.9960, 89634.76
909.4781, 89671.59
909.9602, 89724.13
910.4423, 89806.30
910.9244, 89892.45
911.4066, 89964.87
911.8887, 90015.87
912.3708, 90031.89
912.8529, 89894.03
913.3350, 89872.69
913.8171, 90095.52
914.2993, 90396.43
914.7814, 90555.40
915.2635, 90563.94
915.7456, 90530.52
916.2277, 90458.91
916.7098, 90398.24
917.1920, 90410.30
917.6741, 90468.67
918.1562, 90536.38
918.6383, 90605.14
919.1204, 90683.44
919.6025, 90755.78
920.0847, 90854.78
920.5668, 91023.31
921.0489, 91288.14
921.5310, 91416.39
922.0131, 91395.00
922.4952, 91343.95
922.9774, 91370.30
923.4595, 91423.58
923.9416, 91425.58
924.4237, 91374.31
924.9058, 91317.02
925.3879, 91255.50
925.8701, 91209.82
926.3522, 91192.05
926.8343, 91197.88
927.3164, 91191.50
927.7985, 91171.20
928.2806, 91154.98
928.7628, 91157.45
929.2449, 91162.94
929.7270, 91158.33
930.2091, 91136.70
930.6912, 91079.02
931.1733, 90926.84
931.6555, 90797.20
932.1376, 90739.16
932.6197, 90719.91
933.1018, 90684.38
933.5839, 90627.23
934.0660, 90594.52
934.5482, 90599.43
935.0303, 90614.97
935.5124, 90624.13
935.9945, 90614.02
936.4766, 90550.90
936.9587, 90387.30
937.4409, 90279.41
937.9230, 90305.80
938.4051, 90386.70
938.8872, 90469.59
939.3693, 90561.37
939.8514, 90615.98
940.3336, 90630.73
940.8157, 90624.73
941.2978, 90602.77
941.7799, 90575.45
942.2620, 90551.23
942.7441, 90532.34
943.2263, 90539.33
943.7084, 90622.27
944.1905, 90687.21
944.6726, 90683.77
945.1547, 90628.30
945.6368, 90633.77
946.1190, 90704.85
946.6011, 90755.91
947.0832, 90728.11
947.5653, 90682.38
948.0474, 90703.11
948.5295, 90769.83
949.0117, 90834.91
949.4938, 90891.39
949.9759, 90931.40
950.4580, 90947.16
950.9401, 90951.80
951.4222, 90966.13
951.9044, 90990.45
952.3865, 91004.98
952.8686, 91004.00
953.3507, 91005.20
953.8328, 91029.95
954.3149, 91066.91
954.7971, 91106.38
955.2792, 91153.48
955.7613, 91172.20
956.2434, 91147.70
956.7255, 91105.38
957.2076, 91037.38
957.6898, 90947.39
958.1719, 90995.94
958.6540, 91181.16
959.1361, 91351.06
959.6182, 91387.89
960.1003, 91373.46
960.5825, 91370.95
961.0646, 91383.13
961.5467, 91408.19
962.0288, 91448.18
962.5109, 91498.20
962.9930, 91561.00
963.4752, 91628.84
963.9573, 91672.93
964.4394, 91699.45
964.9215, 91754.20
965.4036, 91874.79
965.8857, 91982.62
966.3679, 91993.02
966.8500, 91961.84
967.3321, 91962.91
967.8142, 92024.98
968.2963, 92086.44
968.7784, 92145.13
969.2606, 92206.09
969.7427, 92270.52
970.2248, 92340.77
970.7069, 92439.73
971.1890, 92567.98
971.6711, 92659.59
972.1533, 92612.80
972.6354, 92562.28
973.1175, 92623.70
973.5996, 92795.44
974.0817, 92872.25
974.5638, 92827.95
975.0460, 92780.84
975.5281, 92780.09
976.0102, 92807.32
976.4923, 92824.07
976.9744, 92835.43
977.4565, 92856.52
977.9387, 92935.40
978.4208, 92976.51
978.9029, 92904.77
979.3850, 92795.91
979.8671, 92755.04
980.3492, 92795.67
980.8314, 92828.63
981.3135, 92844.84
981.7956, 92849.68
982.2777, 92830.36
982.7598, 92811.97
983.2419, 92841.78
983.7241, 92935.46
984.2062, 93001.38
984.6883, 92960.52
985.1704, 92940.59
985.6525, 93016.76
986.1346, 93173.82
986.6168, 93236.45
987.0989, 93207.71
987.5810, 93182.89
988.0631, 93231.47
988.5452, 93296.79
989.0273, 93308.03
989.5095, 93293.77
989.9916, 93329.54
990.4737, 93494.20
990.9558, 93606.22
991.4379, 93629.84
991.9200, 93611.87
992.4022, 93640.74
992.8843, 93694.48
993.3664, 93653.15
993.8485, 93472.71
994.3306, 93339.58
994.8127, 93431.13
995.2949, 93593.98
995.7770, 93698.77
996.2591, 93733.23
996.7412, 93737.97
997.2233, 93699.05
997.7054, 93681.16
998.1876, 93756.24
998.6697, 93866.62
999.1518, 93859.84
999.6339, 93767.84
1000.116, 93718.47
1000.598, 93867.08
1001.080, 93952.31
1001.562, 93810.23
1002.044, 93582.89
1002.527, 93546.02
1003.009, 93717.59
1003.491, 93818.44
1003.973, 93787.18
1004.455, 93715.15
1004.937, 93681.67
1005.419, 93677.67
1005.901, 93698.63
1006.384, 93754.08
1006.866, 93788.41
1007.348, 93785.34
1007.830, 93776.30
1008.312, 93783.61
1008.794, 93800.82
1009.276, 93791.91
1009.758, 93757.05
1010.240, 93698.60
1010.723, 93553.53
1011.205, 93448.85
1011.687, 93513.84
1012.169, 93677.21
1012.651, 93734.38
1013.133, 93621.41
1013.615, 93585.89
1014.097, 93680.23
1014.580, 93821.79
1015.062, 93935.62
1015.544, 94001.64
1016.026, 93954.83
1016.508, 93756.60
1016.990, 93606.80
1017.472, 93591.95
1017.954, 93648.64
1018.436, 93764.66
1018.919, 93932.69
1019.401, 93996.95
1019.883, 93957.22
1020.365, 93897.37
1020.847, 93844.81
1021.329, 93812.62
1021.811, 93820.98
1022.293, 93859.52
1022.776, 93903.38
1023.258, 93957.44
1023.740, 93996.22
1024.222, 94002.73
1024.704, 94017.73
1025.186, 94122.17
1025.668, 94282.95
1026.150, 94363.76
1026.632, 94337.66
1027.115, 94350.52
1027.597, 94541.33
1028.079, 94758.30
1028.561, 94883.82
1029.043, 94922.97
1029.525, 95040.71
1030.007, 95239.73
1030.489, 95479.95
1030.972, 95759.24
1031.454, 96050.65
1031.936, 96317.61
1032.418, 96572.41
1032.900, 96837.03
1033.382, 97106.33
1033.864, 97413.79
1034.346, 97787.02
1034.828, 98163.98
1035.311, 98440.48
1035.793, 98644.26
1036.275, 98967.58
1036.757, 99429.27
1037.239, 99867.52
1037.721, 100154.3
1038.203, 100389.6
1038.685, 100658.3
1039.167, 100947.9
1039.650, 101119.4
1040.132, 101160.5
1040.614, 101129.8
1041.096, 101040.4
1041.578, 100901.1
1042.060, 100723.2
1042.542, 100508.6
1043.024, 100258.0
1043.507, 99977.79
1043.989, 99650.04
1044.471, 99234.19
1044.953, 98809.88
1045.435, 98419.52
1045.917, 98066.91
1046.399, 97811.41
1046.881, 97649.47
1047.364, 97464.38
1047.846, 97138.28
1048.328, 96798.02
1048.810, 96526.25
1049.292, 96317.02
1049.774, 96115.77
1050.256, 95913.33
1050.738, 95755.49
1051.220, 95663.12
1051.703, 95587.23
1052.185, 95426.50
1052.667, 95247.04
1053.149, 95181.61
1053.631, 95291.09
1054.113, 95346.31
1054.595, 95244.84
1055.077, 95122.03
1055.559, 95045.70
1056.042, 95007.64
1056.524, 94935.93
1057.006, 94837.46
1057.488, 94768.60
1057.970, 94754.03
1058.452, 94785.09
1058.934, 94911.30
1059.416, 95062.56
1059.899, 95102.32
1060.381, 94993.84
1060.863, 94892.24
1061.345, 94802.50
1061.827, 94752.15
1062.309, 94807.99
1062.791, 94901.48
1063.273, 94907.73
1063.755, 94820.15
1064.238, 94798.87
1064.720, 94996.12
1065.202, 95119.76
1065.684, 95054.44
1066.166, 94878.63
1066.648, 94817.20
1067.130, 94847.68
1067.612, 94859.96
1068.094, 94812.33
1068.577, 94754.96
1069.059, 94708.81
1069.541, 94673.64
1070.023, 94648.67
1070.505, 94634.95
1070.987, 94628.82
1071.469, 94632.91
1071.951, 94619.03
1072.434, 94514.92
1072.916, 94420.33
1073.398, 94481.86
1073.880, 94657.92
1074.362, 94797.63
1074.844, 94871.88
1075.326, 94900.58
1075.808, 94867.09
1076.291, 94822.78
1076.773, 94857.46
1077.255, 94938.47
1077.737, 94975.47
1078.219, 94955.42
1078.701, 94894.06
1079.183, 94705.43
1079.665, 94578.27
1080.147, 94639.38
1080.630, 94841.16
1081.112, 94876.59
1081.594, 94752.35
1082.076, 94680.63
1082.558, 94775.31
1083.040, 94886.77
1083.522, 94866.09
1084.004, 94787.64
1084.486, 94752.40
1084.969, 94786.27
1085.451, 94814.76
1085.933, 94832.07
1086.415, 94865.03
1086.897, 94958.41
1087.379, 95068.91
1087.861, 95120.24
1088.343, 95119.05
1088.826, 95100.66
1089.308, 95065.45
1089.790, 95026.78
1090.272, 94970.94
1090.754, 94932.29
1091.236, 94987.98
1091.718, 95112.80
1092.200, 95180.69
1092.682, 95167.91
1093.165, 95166.39
1093.647, 95266.39
1094.129, 95365.43
1094.611, 95387.64
1095.093, 95347.59
1095.575, 95353.34
1096.057, 95406.65
1096.539, 95464.05
1097.022, 95513.91
1097.504, 95550.40
1097.986, 95566.11
1098.468, 95564.79
1098.950, 95546.02
1099.432, 95481.18
1099.914, 95479.59
1100.396, 95548.72
1100.879, 95656.38
1101.361, 95832.17
1101.843, 96006.13
1102.325, 96003.30
1102.807, 95871.86
1103.289, 95795.48
1103.771, 95873.08
1104.253, 95978.90
1104.735, 96120.57
1105.218, 96241.90
1105.700, 96240.92
1106.182, 96145.48
1106.664, 96095.94
1107.146, 96107.98
1107.628, 96105.28
1108.110, 96023.30
1108.592, 95929.95
1109.074, 95852.01
1109.557, 95794.84
1110.039, 95797.04
1110.521, 95859.66
1111.003, 95893.43
1111.485, 95860.77
1111.967, 95825.85
1112.449, 95866.40
1112.931, 95928.17
1113.414, 95948.34
1113.896, 95910.02
1114.378, 95879.20
1114.860, 95848.10
1115.342, 95860.95
1115.824, 95991.70
1116.306, 96139.81
1116.788, 96101.71
1117.271, 95960.41
1117.753, 95900.77
1118.235, 96083.66
1118.717, 96196.95
1119.199, 96207.28
1119.681, 96172.23
1120.163, 96135.30
1120.645, 96100.78
1121.127, 96083.24
1121.609, 96082.02
1122.092, 96085.80
1122.574, 96073.63
1123.056, 96086.37
1123.538, 96147.23
1124.020, 96230.77
1124.502, 96285.49
1124.984, 96314.84
1125.466, 96358.21
1125.949, 96428.10
1126.431, 96458.42
1126.913, 96363.11
1127.395, 96244.15
1127.877, 96163.92
1128.359, 96124.07
1128.841, 96147.43
1129.323, 96237.52
1129.806, 96335.52
1130.288, 96433.69
1130.770, 96501.80
1131.252, 96502.16
1131.734, 96456.73
1132.216, 96382.88
1132.698, 96253.45
1133.180, 96215.84
1133.662, 96288.62
1134.145, 96376.52
1134.627, 96419.72
1135.109, 96440.81
1135.591, 96470.23
1136.073, 96506.55
1136.555, 96545.31
1137.037, 96625.09
1137.519, 96635.10
1138.001, 96536.40
1138.484, 96436.35
1138.966, 96459.59
1139.448, 96565.09
1139.930, 96670.66
1140.412, 96767.70
1140.894, 96822.69
1141.376, 96760.00
1141.858, 96737.73
1142.341, 96816.16
1142.823, 96935.27
1143.305, 96980.20
1143.787, 96967.57
1144.269, 96986.01
1144.751, 97057.13
1145.233, 97081.13
1145.715, 96932.93
1146.198, 96790.18
1146.680, 96746.30
1147.162, 96787.34
1147.644, 96863.45
1148.126, 96971.75
1148.608, 97070.65
1149.090, 97152.40
1149.572, 97210.84
1150.054, 97244.57
1150.536, 97249.80
1151.019, 97215.20
1151.501, 97136.96
1151.983, 97081.05
1152.465, 97046.34
1152.947, 97053.92
1153.429, 97154.94
1153.911, 97258.47
1154.393, 97276.56
1154.876, 97236.56
1155.358, 97175.80
1155.840, 97061.86
1156.322, 97052.90
1156.804, 97168.68
1157.286, 97296.68
1157.768, 97346.39
1158.250, 97356.07
1158.733, 97346.36
1159.215, 97335.67
1159.697, 97398.27
1160.179, 97655.23
1160.661, 97715.36
1161.143, 97471.25
1161.625, 97198.29
1162.107, 97274.73
1162.589, 97510.05
1163.072, 97563.05
1163.554, 97420.72
1164.036, 97338.16
1164.518, 97413.27
1165.000, 97496.05
1165.482, 97556.84
1165.964, 97600.13
1166.446, 97630.83
1166.928, 97650.46
1167.411, 97657.33
1167.893, 97646.94
1168.375, 97656.32
1168.857, 97739.01
1169.339, 97789.00
1169.821, 97750.88
1170.303, 97662.12
1170.785, 97622.67
1171.268, 97626.24
1171.750, 97654.84
1172.232, 97715.70
1172.714, 97766.85
1173.196, 97773.41
1173.678, 97783.07
1174.160, 97832.93
1174.642, 97912.11
1175.125, 97932.92
1175.607, 97907.41
1176.089, 97901.48
1176.571, 97982.79
1177.053, 98042.13
1177.535, 97982.64
1178.017, 97916.51
1178.499, 97956.78
1178.981, 98102.29
1179.464, 98245.85
1179.946, 98380.46
1180.428, 98420.68
1180.910, 98189.74
1181.392, 97984.93
1181.874, 97998.51
1182.356, 98122.07
1182.838, 98199.09
1183.320, 98229.67
1183.803, 98204.94
1184.285, 98121.52
1184.767, 98081.26
1185.249, 98223.12
1185.731, 98374.45
1186.213, 98393.95
1186.695, 98330.10
1187.177, 98331.25
1187.660, 98403.27
1188.142, 98441.45
1188.624, 98422.44
1189.106, 98417.85
1189.588, 98509.73
1190.070, 98626.41
1190.552, 98724.26
1191.034, 98795.55
1191.516, 98813.27
1191.999, 98774.41
1192.481, 98695.79
1192.963, 98562.78
1193.445, 98460.95
1193.927, 98502.57
1194.409, 98600.44
1194.891, 98668.39
1195.373, 98699.42
1195.855, 98746.94
1196.338, 98817.34
1196.820, 98844.81
1197.302, 98779.15
1197.784, 98710.95
1198.266, 98758.17
1198.748, 98851.91
1199.230, 98906.85
1199.712, 98910.73
1200.195, 98882.71
1200.677, 98810.97
1201.159, 98794.58
1201.641, 98933.51
1202.123, 99095.40
1202.605, 99109.55
1203.087, 99048.62
1203.569, 99041.84
1204.052, 99161.47
1204.534, 99130.69
1205.016, 98916.88
1205.498, 98746.73
1205.980, 98812.73
1206.462, 98976.35
1206.944, 99125.87
1207.426, 99240.86
1207.908, 99258.25
1208.391, 99113.21
1208.873, 99060.16
1209.355, 99117.96
1209.837, 99220.94
1210.319, 99362.38
1210.801, 99480.13
1211.283, 99475.41
1211.765, 99381.69
1212.247, 99322.21
1212.730, 99316.59
1213.212, 99319.02
1213.694, 99330.05
1214.176, 99323.34
1214.658, 99234.33
1215.140, 99141.07
1215.622, 99139.24
1216.104, 99221.16
1216.587, 99310.05
1217.069, 99406.26
1217.551, 99487.07
1218.033, 99549.04
1218.515, 99593.98
1218.997, 99611.74
1219.479, 99621.87
1219.961, 99653.64
1220.443, 99705.21
1220.926, 99722.27
1221.408, 99688.71
1221.890, 99685.30
1222.372, 99743.49
1222.854, 99793.25
1223.336, 99701.97
1223.818, 99586.27
1224.300, 99601.21
1224.782, 99770.19
1225.265, 99858.80
1225.747, 99851.86
1226.229, 99830.05
1226.711, 99810.41
1227.193, 99806.88
1227.675, 99838.29
1228.157, 99894.52
1228.639, 99980.53
1229.122, 100104.3
1229.604, 100129.4
1230.086, 100041.3
1230.568, 99946.36
1231.050, 99865.57
1231.532, 99837.93
1232.014, 99941.55
1232.496, 100106.1
1232.979, 100268.5
1233.461, 100436.7
1233.943, 100425.4
1234.425, 100208.1
1234.907, 100089.4
1235.389, 100291.1
1235.871, 100525.1
1236.353, 100484.0
1236.835, 100316.6
1237.318, 100210.5
1237.800, 100174.1
1238.282, 100211.3
1238.764, 100326.2
1239.246, 100422.2
1239.728, 100412.8
1240.210, 100402.6
1240.692, 100509.1
1241.175, 100651.8
1241.657, 100715.4
1242.139, 100682.4
1242.621, 100681.6
1243.103, 100713.4
1243.585, 100731.6
1244.067, 100694.8
1244.549, 100649.1
1245.031, 100612.1
1245.514, 100594.0
1245.996, 100607.6
1246.478, 100655.6
1246.960, 100708.4
1247.442, 100765.1
1247.924, 100819.7
1248.406, 100873.9
1248.888, 100917.4
1249.370, 100946.2
1249.853, 100958.9
1250.335, 100938.7
1250.817, 100888.5
1251.299, 100926.0
1251.781, 101048.4
1252.263, 101142.6
1252.745, 101094.5
1253.227, 101055.7
1253.710, 101129.9
1254.192, 101220.6
1254.674, 101180.4
1255.156, 101036.0
1255.638, 100988.5
1256.120, 101043.4
1256.602, 101114.2
1257.084, 101182.2
1257.567, 101217.6
1258.049, 101192.3
1258.531, 101156.6
1259.013, 101184.0
1259.495, 101260.2
1259.977, 101342.1
1260.459, 101423.6
1260.941, 101482.5
1261.423, 101513.6
1261.906, 101506.5
1262.388, 101444.0
1262.870, 101369.7
1263.352, 101337.0
1263.834, 101344.2
1264.316, 101401.1
1264.798, 101503.2
1265.280, 101592.7
1265.762, 101653.3
1266.245, 101697.1
1266.727, 101724.8
1267.209, 101740.1
1267.691, 101739.0
1268.173, 101733.2
1268.655, 101747.6
1269.137, 101782.1
1269.619, 101792.7
1270.102, 101739.3
1270.584, 101771.7
1271.066, 101946.5
1271.548, 102129.4
1272.030, 102120.8
1272.512, 102040.6
1272.994, 102036.4
1273.476, 102113.7
1273.958, 102145.1
1274.441, 102120.8
1274.923, 102069.7
1275.405, 101982.2
1275.887, 101943.3
1276.369, 102127.9
1276.851, 102336.3
1277.333, 102340.4
1277.815, 102175.3
1278.297, 102115.6
1278.780, 102164.5
1279.262, 102279.2
1279.744, 102470.1
1280.226, 102595.9
1280.708, 102457.8
1281.190, 102289.2
1281.672, 102261.4
1282.154, 102341.8
1282.637, 102426.1
1283.119, 102512.7
1283.601, 102577.9
1284.083, 102613.9
1284.565, 102657.1
1285.047, 102768.4
1285.529, 102845.3
1286.011, 102827.8
1286.494, 102752.1
1286.976, 102719.3
1287.458, 102716.8
1287.940, 102695.6
1288.422, 102639.2
1288.904, 102619.5
1289.386, 102700.2
1289.868, 102774.5
1290.350, 102811.9
1290.833, 102817.4
1291.315, 102761.4
1291.797, 102693.6
1292.279, 102743.6
1292.761, 102962.1
1293.243, 103029.0
1293.725, 102827.9
1294.207, 102710.4
1294.689, 102815.8
1295.172, 102999.3
1295.654, 103046.1
1296.136, 103043.5
1296.618, 103130.4
1297.100, 103338.3
1297.582, 103397.9
1298.064, 103285.1
1298.546, 103175.0
1299.029, 103111.8
1299.511, 103103.4
1299.993, 103207.8
1300.475, 103335.1
1300.957, 103387.4
1301.439, 103375.6
1301.921, 103397.1
1302.403, 103449.7
1302.885, 103461.0
1303.368, 103404.9
1303.850, 103331.9
1304.332, 103213.0
1304.814, 103162.6
1305.296, 103273.3
1305.778, 103484.1
1306.260, 103577.6
1306.742, 103578.0
1307.224, 103580.3
1307.707, 103605.2
1308.189, 103646.3
1308.671, 103707.5
1309.153, 103781.7
1309.635, 103888.4
1310.117, 103977.0
1310.599, 103885.9
1311.081, 103710.7
1311.564, 103658.6
1312.046, 103789.4
1312.528, 103872.7
1313.010, 103868.4
1313.492, 103869.1
1313.974, 103909.7
1314.456, 103959.4
1314.938, 103974.6
##END=



