##NAMES=Antimony
##RRUFFID=R050654
##IDEAL CHEMISTRY=Sb
##LOCALITY=Sarawak, Borneo
##OWNER=RRUFF
##SOURCE=University of Arizona Mineral Museum
##DESCRIPTION=Silver metallic crystals
##STATUS=The identification of this mineral has been confirmed by X-ray diffraction and chemical analysis
##URL=rruff.info/R050654
##MEASURED CHEMISTRY=Sb
92.02539, 205.6446
92.50751, 204.3409
92.98962, 205.2138
93.47174, 205.8984
93.95386, 207.4223
94.43597, 209.5256
94.91809, 212.8002
95.40021, 216.7486
95.88232, 218.7025
96.36444, 216.8429
96.84656, 215.5570
97.32867, 216.1711
97.81078, 218.2263
98.29290, 220.8428
98.77502, 223.1684
99.25713, 224.7378
99.73925, 227.0591
100.2214, 230.2914
100.7035, 234.0123
101.1856, 238.1644
101.6677, 242.6565
102.1498, 247.2341
102.6320, 251.5379
103.1141, 255.2028
103.5962, 259.6883
104.0783, 265.3345
104.5604, 271.6388
105.0425, 278.1975
105.5247, 285.0291
106.0068, 291.6699
106.4889, 297.2094
106.9710, 301.7218
107.4531, 305.5565
107.9352, 308.4986
108.4173, 310.7223
108.8995, 313.3417
109.3816, 317.5053
109.8637, 321.6065
110.3458, 323.9116
110.8279, 324.0300
111.3100, 323.1647
111.7922, 322.8321
112.2743, 323.3902
112.7564, 323.2920
113.2385, 322.9604
113.7206, 321.5135
114.2027, 317.9053
114.6849, 311.5827
115.1670, 303.1030
115.6491, 294.5267
116.1312, 285.6138
116.6133, 276.7672
117.0954, 267.5516
117.5776, 258.4683
118.0597, 250.2641
118.5418, 243.4754
119.0239, 238.1086
119.5060, 232.8074
119.9881, 227.0499
120.4703, 221.7914
120.9524, 217.5135
121.4345, 214.1596
121.9166, 211.2989
122.3987, 208.6003
122.8808, 206.0960
123.3630, 203.7023
123.8451, 200.9190
124.3272, 198.4888
124.8093, 197.4926
125.2914, 198.2837
125.7735, 199.3471
126.2557, 198.4776
126.7378, 196.1237
127.2199, 194.4648
127.7020, 194.6361
128.1841, 196.1987
128.6662, 197.8419
129.1483, 199.6915
129.6305, 201.1253
130.1126, 201.1852
130.5947, 200.0845
131.0768, 199.6712
131.5589, 201.9645
132.0410, 207.3683
132.5232, 212.1732
133.0053, 215.5430
133.4874, 218.4567
133.9695, 221.2168
134.4516, 223.9420
134.9337, 226.7407
135.4159, 229.7048
135.8980, 232.4288
136.3801, 236.2619
136.8622, 241.1802
137.3443, 247.0573
137.8264, 254.1904
138.3086, 262.6327
138.7907, 271.6338
139.2728, 278.9313
139.7549, 282.5141
140.2370, 286.6660
140.7191, 292.0743
141.2013, 298.1957
141.6834, 304.2163
142.1655, 309.6632
142.6476, 314.7228
143.1297, 320.1367
143.6118, 326.2765
144.0939, 332.2962
144.5761, 337.8497
145.0582, 342.9800
145.5403, 348.0715
146.0224, 353.9331
146.5045, 359.5894
146.9866, 362.7643
147.4688, 362.1708
147.9509, 360.0338
148.4330, 358.6960
148.9151, 358.4434
149.3972, 357.1626
149.8793, 353.6120
150.3615, 348.2061
150.8436, 341.0096
151.3257, 332.0082
151.8078, 321.2579
152.2899, 308.7702
152.7720, 293.4312
153.2542, 278.0295
153.7363, 263.6806
154.2184, 249.9977
154.7005, 236.0876
155.1826, 221.0425
155.6647, 205.1771
156.1469, 192.1188
156.6290, 184.1454
157.1111, 177.1575
157.5932, 170.1880
158.0753, 163.3385
158.5574, 157.1296
159.0396, 152.0084
159.5217, 148.0465
160.0038, 144.6009
160.4859, 141.9931
160.9680, 139.5266
161.4501, 136.9143
161.9323, 134.1635
162.4144, 131.4193
162.8965, 128.7806
163.3786, 126.1042
163.8607, 124.4097
164.3428, 124.3387
164.8250, 124.7129
165.3071, 124.7741
165.7892, 124.3874
166.2713, 123.7386
166.7534, 122.9978
167.2355, 122.1504
167.7177, 121.3315
168.1998, 120.3041
168.6819, 119.3966
169.1640, 119.1272
169.6461, 119.6918
170.1282, 120.5615
170.6104, 121.2176
171.0925, 121.6899
171.5746, 121.8403
172.0567, 121.5046
172.5388, 120.7915
173.0209, 120.0080
173.5031, 119.1882
173.9852, 118.3312
174.4673, 117.2754
174.9494, 116.0696
175.4315, 115.1887
175.9136, 115.1030
176.3958, 115.7849
176.8779, 116.4219
177.3600, 116.6986
177.8421, 117.0932
178.3242, 118.0536
178.8063, 119.5251
179.2885, 120.9083
179.7706, 121.5323
180.2527, 121.2241
180.7348, 120.8968
181.2169, 120.0299
181.6990, 119.5824
182.1812, 120.3785
182.6633, 122.4116
183.1454, 124.7867
183.6275, 126.1855
184.1096, 125.9255
184.5917, 126.1089
185.0738, 127.3310
185.5560, 128.5398
186.0381, 128.9270
186.5202, 128.3176
187.0023, 127.1839
187.4844, 126.3429
187.9665, 126.2523
188.4487, 125.6996
188.9308, 124.2353
189.4129, 122.5559
189.8950, 121.3362
190.3771, 120.8008
190.8592, 120.6384
191.3414, 120.2489
191.8235, 119.4173
192.3056, 118.7696
192.7877, 118.6102
193.2698, 118.6079
193.7519, 118.3813
194.2341, 117.8244
194.7162, 116.8827
195.1983, 115.2427
195.6804, 112.6857
196.1625, 110.3735
196.6446, 108.7729
197.1268, 107.6669
197.6089, 106.5302
198.0910, 105.1237
198.5731, 103.7295
199.0552, 102.7361
199.5373, 102.1136
200.0195, 101.8385
200.5016, 102.4627
200.9837, 103.6540
201.4658, 103.5226
201.9479, 100.4746
202.4300, 96.90182
202.9122, 95.70410
203.3943, 97.15340
203.8764, 98.78956
204.3585, 98.31538
204.8406, 95.74793
205.3227, 94.03835
205.8048, 94.79208
206.2870, 96.01174
206.7691, 96.21748
207.2512, 95.25099
207.7333, 94.00337
208.2154, 93.52983
208.6975, 94.03352
209.1797, 94.09998
209.6618, 92.53670
210.1439, 91.11470
210.6260, 91.21268
211.1081, 92.92747
211.5902, 94.81846
212.0724, 94.75311
212.5545, 91.73823
213.0366, 89.80051
213.5187, 90.08678
214.0008, 90.82304
214.4829, 90.85770
214.9651, 90.00528
215.4472, 88.96056
215.9293, 88.85113
216.4114, 90.55070
216.8935, 91.35056
217.3756, 90.43324
217.8578, 89.33807
218.3399, 89.07816
218.8220, 89.88937
219.3041, 91.39001
219.7862, 93.07417
220.2683, 95.46666
220.7505, 96.91790
221.2326, 96.72761
221.7147, 96.14718
222.1968, 96.16323
222.6789, 96.99879
223.1610, 98.18180
223.6432, 98.99765
224.1253, 99.06759
224.6074, 99.57449
225.0895, 100.9950
225.5716, 102.5840
226.0537, 103.7868
226.5358, 104.4591
227.0180, 104.5346
227.5001, 103.7220
227.9822, 101.4425
228.4643, 100.2175
228.9464, 100.9539
229.4285, 102.4705
229.9107, 103.6387
230.3928, 104.2155
230.8749, 104.3229
231.3570, 103.9896
231.8391, 103.1786
232.3212, 102.3922
232.8034, 101.3263
233.2855, 100.4750
233.7676, 100.7096
234.2497, 102.3347
234.7318, 104.1666
235.2139, 104.8987
235.6961, 104.6626
236.1782, 103.9715
236.6603, 102.3047
237.1424, 100.4513
237.6245, 99.89652
238.1066, 101.1972
238.5888, 102.5165
239.0709, 101.7724
239.5530, 99.55639
240.0351, 97.58804
240.5172, 96.56970
240.9993, 96.14906
241.4815, 95.68552
241.9636, 95.12721
242.4457, 94.55539
242.9278, 93.98920
243.4099, 93.44913
243.8920, 92.99171
244.3742, 92.42541
244.8563, 91.99155
245.3384, 92.54998
245.8205, 94.87708
246.3026, 96.40025
246.7847, 94.79952
247.2668, 91.62702
247.7490, 89.37696
248.2311, 89.43058
248.7132, 91.00837
249.1953, 92.22397
249.6774, 92.90971
250.1595, 93.55553
250.6417, 94.60930
251.1238, 95.69260
251.6059, 96.23189
252.0880, 95.81065
252.5701, 94.88430
253.0522, 94.66222
253.5344, 95.60053
254.0165, 96.35789
254.4986, 96.82422
254.9807, 96.82510
255.4628, 95.96028
255.9449, 93.92530
256.4271, 91.42313
256.9092, 90.16624
257.3913, 90.87322
257.8734, 91.52593
258.3555, 91.78516
258.8376, 91.77238
259.3198, 91.51265
259.8019, 91.01067
260.2840, 90.46334
260.7661, 90.30151
261.2482, 90.72691
261.7303, 91.17827
262.2125, 91.29532
262.6946, 91.56237
263.1767, 92.51258
263.6588, 94.28388
264.1409, 96.38712
264.6230, 97.99319
265.1052, 98.99979
265.5873, 99.63823
266.0694, 99.28620
266.5515, 99.04259
267.0336, 99.94976
267.5157, 102.1322
267.9979, 104.6748
268.4800, 106.1446
268.9621, 105.7409
269.4442, 105.9862
269.9263, 107.6008
270.4084, 109.2085
270.8906, 109.8291
271.3727, 109.3872
271.8548, 108.5276
272.3369, 107.9677
272.8190, 107.6226
273.3011, 107.9535
273.7833, 109.6001
274.2654, 111.2543
274.7475, 112.0607
275.2296, 112.0785
275.7117, 111.9536
276.1938, 112.2757
276.6760, 113.0215
277.1581, 114.4615
277.6402, 117.9373
278.1223, 120.7281
278.6044, 121.1852
279.0865, 119.7143
279.5686, 117.9473
280.0508, 117.2281
280.5329, 117.5919
281.0150, 117.3046
281.4971, 115.6452
281.9792, 114.1992
282.4613, 113.6169
282.9435, 113.7249
283.4256, 114.0696
283.9077, 114.3944
284.3898, 114.6797
284.8719, 114.7221
285.3540, 114.2669
285.8362, 113.8937
286.3183, 114.0080
286.8004, 114.2843
287.2825, 113.8864
287.7646, 112.2377
288.2467, 110.0605
288.7289, 109.9670
289.2110, 114.1744
289.6931, 117.5548
290.1752, 118.6708
290.6573, 118.6620
291.1394, 119.1705
291.6216, 120.8529
292.1037, 123.0797
292.5858, 124.5485
293.0679, 124.7181
293.5500, 125.1637
294.0321, 126.1601
294.5143, 127.4545
294.9964, 128.9488
295.4785, 130.6165
295.9606, 131.9997
296.4427, 132.3310
296.9248, 131.0211
297.4070, 130.4604
297.8891, 131.3143
298.3712, 132.6005
298.8533, 133.7063
299.3354, 134.4677
299.8175, 134.5191
300.2997, 133.2863
300.7818, 130.4667
301.2639, 128.5309
301.7460, 128.4863
302.2281, 128.5323
302.7102, 127.0763
303.1924, 124.2811
303.6745, 121.9042
304.1566, 121.5000
304.6387, 122.9172
305.1208, 122.9402
305.6029, 121.2294
306.0851, 118.6278
306.5672, 115.1147
307.0493, 110.9711
307.5314, 106.9795
308.0135, 103.5807
308.4956, 100.6752
308.9778, 97.89046
309.4599, 95.81364
309.9420, 93.13362
310.4241, 89.05943
310.9062, 84.12183
311.3883, 79.26384
311.8705, 74.80840
312.3526, 70.87816
312.8347, 67.97683
313.3168, 66.55727
313.7989, 64.88179
314.2810, 62.46788
314.7632, 59.66209
315.2453, 56.81222
315.7274, 54.00712
316.2095, 51.37947
316.6916, 49.08232
317.1737, 47.09970
317.6559, 45.57201
318.1380, 44.74964
318.6201, 44.24719
319.1022, 43.67512
319.5843, 42.99136
320.0664, 42.51798
320.5485, 42.73430
321.0306, 43.70314
321.5128, 43.61115
321.9949, 41.22689
322.4770, 38.84895
322.9591, 38.18068
323.4412, 38.98803
323.9233, 39.75263
324.4055, 39.41384
324.8876, 38.17274
325.3697, 37.54216
325.8518, 38.23808
326.3339, 38.67130
326.8160, 37.92080
327.2982, 36.47534
327.7803, 35.50678
328.2624, 35.65622
328.7445, 36.35813
329.2266, 36.03326
329.7087, 34.15935
330.1909, 32.37265
330.6730, 30.48985
331.1551, 29.03086
331.6372, 29.02331
332.1193, 30.78902
332.6014, 32.99022
333.0836, 33.60487
333.5657, 31.78444
334.0478, 30.87842
334.5299, 31.93792
335.0120, 33.33425
335.4941, 33.55276
335.9763, 32.50327
336.4584, 31.33144
336.9405, 31.10022
337.4226, 31.90570
337.9047, 32.77984
338.3868, 34.42595
338.8690, 35.49729
339.3511, 35.02334
339.8332, 33.33356
340.3153, 31.44160
340.7974, 29.93822
341.2795, 28.80533
341.7617, 27.98711
342.2438, 27.27916
342.7259, 27.06540
343.2080, 27.71847
343.6901, 28.85255
344.1722, 29.97723
344.6544, 30.89552
345.1365, 31.54988
345.6186, 31.80802
346.1007, 31.39498
346.5828, 30.95941
347.0649, 30.64355
347.5471, 30.22712
348.0292, 29.39377
348.5113, 28.14280
348.9934, 26.85927
349.4755, 26.00445
349.9576, 25.62251
350.4398, 25.55639
350.9219, 25.78523
351.4040, 26.28719
351.8861, 27.21683
352.3682, 28.43712
352.8503, 29.62147
353.3325, 30.53768
353.8146, 31.18318
354.2967, 31.51324
354.7788, 31.30560
355.2609, 31.03842
355.7430, 31.00250
356.2252, 30.91679
356.7073, 30.21292
357.1894, 28.60687
357.6715, 26.64422
358.1536, 25.69023
358.6357, 26.29355
359.1179, 27.17828
359.5999, 29.09816
360.0821, 30.75836
360.5642, 30.82609
361.0463, 29.18553
361.5284, 27.02074
362.0105, 25.70732
362.4926, 25.23700
362.9748, 25.71896
363.4569, 29.21814
363.9390, 31.69411
364.4211, 30.34145
364.9032, 26.31345
365.3853, 22.93777
365.8675, 22.84695
366.3496, 25.66748
366.8317, 27.83126
367.3138, 28.99911
367.7959, 29.86991
368.2780, 30.71971
368.7602, 31.33270
369.2423, 31.33970
369.7244, 30.56143
370.2065, 29.39458
370.6886, 28.72343
371.1707, 29.00843
371.6529, 28.59921
372.1350, 26.11968
372.6171, 23.72996
373.0992, 23.01526
373.5813, 24.10696
374.0634, 25.78095
374.5456, 27.05476
375.0277, 27.95055
375.5098, 27.89729
375.9919, 25.88221
376.4740, 23.99409
376.9561, 22.97178
377.4383, 22.80259
377.9204, 23.49890
378.4025, 25.64273
378.8846, 28.33281
379.3667, 28.64077
379.8488, 25.30752
380.3310, 22.86825
380.8131, 24.34903
381.2952, 27.10620
381.7773, 28.34447
382.2594, 27.14736
382.7415, 25.31580
383.2237, 24.80475
383.7058, 25.60441
384.1879, 26.55984
384.6700, 27.75910
385.1521, 28.62497
385.6342, 28.52061
386.1164, 27.51599
386.5985, 26.59326
387.0806, 26.40319
387.5627, 26.67926
388.0448, 26.67304
388.5269, 26.15373
389.0091, 25.94312
389.4912, 27.38405
389.9733, 29.58675
390.4554, 30.44779
390.9375, 28.38212
391.4196, 25.88842
391.9018, 25.46809
392.3839, 26.89812
392.8660, 28.18152
393.3481, 28.52710
393.8302, 28.12776
394.3123, 27.35479
394.7945, 26.07519
395.2766, 24.89078
395.7587, 23.89696
396.2408, 23.18731
396.7229, 22.93873
397.2050, 23.19434
397.6872, 23.89014
398.1693, 25.21861
398.6514, 27.27430
399.1335, 28.29168
399.6156, 27.76460
400.0977, 26.53037
400.5798, 24.61347
401.0620, 22.35802
401.5441, 21.01271
402.0262, 21.48390
402.5083, 23.37160
402.9904, 24.66199
403.4725, 25.31064
403.9547, 25.52556
404.4368, 25.03483
404.9189, 24.24715
405.4010, 23.61535
405.8831, 23.29171
406.3652, 23.26620
406.8474, 23.57689
407.3295, 24.47194
407.8116, 24.95756
408.2937, 24.81091
408.7758, 24.50559
409.2579, 24.09867
409.7401, 23.74349
410.2222, 23.88822
410.7043, 25.02917
411.1864, 26.88807
411.6685, 27.01760
412.1506, 22.81576
412.6328, 20.07309
413.1149, 20.41726
413.5970, 22.27392
414.0791, 24.17493
414.5612, 25.56109
415.0433, 26.26105
415.5255, 25.62724
416.0076, 22.80765
416.4897, 21.61251
416.9718, 24.12248
417.4539, 26.74586
417.9360, 27.90023
418.4182, 27.65941
418.9003, 26.81483
419.3824, 25.81116
419.8645, 24.67954
420.3466, 23.44044
420.8287, 21.77313
421.3109, 20.70599
421.7930, 20.91336
422.2751, 21.79158
422.7572, 22.87324
423.2393, 24.15908
423.7214, 25.01866
424.2036, 24.24209
424.6857, 21.93348
425.1678, 20.92776
425.6499, 22.70928
426.1320, 24.90919
426.6141, 25.11996
427.0963, 23.59614
427.5784, 22.30908
428.0605, 22.23644
428.5426, 22.83790
429.0247, 23.38886
429.5068, 23.86624
429.9890, 24.12796
430.4711, 24.03186
430.9532, 23.64610
431.4353, 23.24462
431.9174, 22.69104
432.3995, 22.32509
432.8817, 22.42741
433.3638, 22.83010
433.8459, 23.18900
434.3280, 23.39746
434.8101, 23.52829
435.2922, 23.66968
435.7744, 23.81417
436.2565, 24.00986
436.7386, 24.70395
437.2207, 25.09428
437.7028, 24.22459
438.1849, 22.41375
438.6671, 20.93902
439.1492, 20.64858
439.6313, 21.41695
440.1134, 22.53055
440.5955, 25.11719
441.0776, 26.64392
441.5598, 26.01260
442.0418, 24.60352
442.5240, 23.78068
443.0061, 23.91316
443.4882, 24.52698
443.9703, 25.02277
444.4524, 25.34928
444.9345, 25.80649
445.4167, 26.90746
445.8988, 27.62763
446.3809, 27.35078
446.8630, 26.43822
447.3451, 25.53679
447.8272, 24.95952
448.3094, 24.76398
448.7915, 25.35418
449.2736, 27.37790
449.7557, 28.32120
450.2378, 26.41382
450.7199, 23.96880
451.2021, 22.55285
451.6842, 22.35001
452.1663, 22.65927
452.6484, 22.97886
453.1305, 23.35786
453.6126, 24.16177
454.0948, 25.75282
454.5769, 26.93949
455.0590, 26.44978
455.5411, 25.05225
456.0232, 24.03084
456.5053, 23.64106
456.9875, 23.74509
457.4696, 24.59130
457.9517, 25.94744
458.4338, 26.70153
458.9159, 26.36590
459.3980, 25.51021
459.8802, 25.03790
460.3623, 25.02508
460.8444, 24.63060
461.3265, 23.54755
461.8086, 22.12839
462.2907, 20.16548
462.7729, 17.94312
463.2550, 16.94273
463.7371, 18.41365
464.2192, 21.79831
464.7013, 23.90771
465.1834, 23.78113
465.6656, 23.70128
466.1477, 24.41071
466.6298, 25.11549
467.1119, 24.45924
467.5940, 22.35330
468.0761, 20.63556
468.5583, 21.87895
469.0404, 26.96623
469.5225, 29.33187
470.0046, 26.54924
470.4867, 23.50496
470.9688, 21.00299
471.4510, 19.36792
471.9331, 19.20282
472.4152, 20.93217
472.8973, 23.33966
473.3794, 23.95172
473.8615, 22.27871
474.3437, 20.88277
474.8258, 19.86503
475.3079, 19.60824
475.7900, 21.10159
476.2721, 23.89473
476.7542, 25.72591
477.2364, 24.31240
477.7185, 21.14053
478.2006, 19.62268
478.6827, 19.95700
479.1648, 20.89525
479.6469, 22.10326
480.1291, 23.39973
480.6112, 24.53611
481.0933, 25.64222
481.5754, 26.19282
482.0575, 25.67314
482.5396, 24.47165
483.0217, 23.05296
483.5038, 21.46749
483.9860, 20.54011
484.4681, 21.41681
484.9502, 24.17019
485.4323, 25.20499
485.9144, 22.63561
486.3965, 20.45937
486.8787, 21.09975
487.3608, 23.18716
487.8429, 23.95792
488.3250, 22.30950
488.8071, 19.66064
489.2892, 18.58455
489.7714, 19.89403
490.2535, 20.80196
490.7356, 21.23407
491.2177, 21.40562
491.6998, 21.22238
492.1819, 20.86680
492.6641, 20.75426
493.1462, 21.20682
493.6283, 21.94802
494.1104, 22.09656
494.5925, 21.36095
495.0746, 20.82477
495.5568, 20.97714
496.0389, 21.25627
496.5210, 21.09137
497.0031, 20.51913
497.4852, 20.35394
497.9673, 21.63273
498.4495, 23.72201
498.9316, 24.86610
499.4137, 24.93296
499.8958, 24.36477
500.3779, 22.93012
500.8600, 21.17488
501.3422, 20.23734
501.8243, 20.42514
502.3064, 20.87692
502.7885, 21.32449
503.2706, 21.70588
503.7527, 21.90872
504.2349, 21.90729
504.7170, 21.75371
505.1991, 21.45633
505.6812, 20.99920
506.1633, 20.75365
506.6454, 20.92182
507.1276, 21.05250
507.6097, 20.82905
508.0918, 20.50390
508.5739, 20.51160
509.0560, 21.00499
509.5381, 21.72129
510.0203, 22.24738
510.5024, 22.53920
510.9845, 22.79304
511.4666, 23.27699
511.9487, 23.45438
512.4308, 22.99893
512.9130, 22.09064
513.3951, 20.98491
513.8772, 19.68611
514.3593, 18.62635
514.8414, 18.71524
515.3235, 20.09355
515.8057, 21.63489
516.2878, 23.86680
516.7699, 25.35139
517.2520, 24.37104
517.7341, 21.31610
518.2162, 18.99347
518.6984, 18.95101
519.1805, 20.06326
519.6626, 21.05435
520.1447, 21.89374
520.6268, 22.58555
521.1089, 23.06543
521.5911, 23.47758
522.0732, 24.21249
522.5553, 25.49836
523.0374, 26.40717
523.5195, 26.87043
524.0016, 26.83309
524.4838, 26.06841
524.9659, 24.69071
525.4480, 23.08174
525.9301, 21.43267
526.4122, 19.90826
526.8943, 19.39065
527.3765, 20.99616
527.8586, 22.03522
528.3407, 21.98177
528.8228, 21.51677
529.3049, 21.19102
529.7870, 21.06022
530.2692, 20.80145
530.7513, 19.87138
531.2334, 18.53591
531.7155, 18.57364
532.1976, 20.67453
532.6797, 22.53891
533.1619, 22.83372
533.6440, 22.57480
534.1261, 22.99443
534.6082, 24.43167
535.0903, 25.22907
535.5724, 23.55406
536.0546, 20.62440
536.5367, 19.21750
537.0188, 19.76174
537.5009, 20.52827
537.9830, 20.16891
538.4651, 18.96485
538.9473, 18.52273
539.4294, 19.46469
539.9115, 20.30869
540.3936, 20.53841
540.8757, 20.49533
541.3578, 20.66877
541.8400, 21.11986
542.3221, 21.45864
542.8042, 21.26749
543.2863, 20.53817
543.7684, 19.78521
544.2505, 18.66034
544.7326, 17.96021
545.2147, 18.26870
545.6968, 18.85987
546.1790, 18.73536
546.6611, 17.70747
547.1432, 16.83895
547.6253, 17.64915
548.1074, 19.92774
548.5895, 21.09946
549.0717, 20.65000
549.5538, 19.98346
550.0359, 19.73990
550.5180, 19.86517
551.0001, 20.40952
551.4822, 21.60988
551.9644, 22.66538
552.4465, 23.04568
552.9286, 22.93206
553.4107, 22.71568
553.8928, 22.47468
554.3749, 21.99374
554.8571, 21.00277
555.3392, 19.52028
555.8213, 18.38982
556.3034, 17.17514
556.7855, 16.77511
557.2676, 18.16646
557.7498, 20.13817
558.2319, 21.20705
558.7140, 21.06573
559.1961, 20.49817
559.6782, 20.40330
560.1603, 20.79308
560.6425, 20.67817
561.1246, 19.82724
561.6067, 18.78283
562.0888, 17.00431
562.5709, 15.48598
563.0530, 15.74511
563.5352, 18.21246
564.0173, 20.56194
564.4994, 20.55888
564.9815, 18.83282
565.4636, 17.32789
565.9457, 16.16963
566.4279, 15.50562
566.9100, 15.41343
567.3921, 15.94070
567.8742, 17.10977
568.3563, 19.59692
568.8384, 21.59682
569.3206, 22.68962
569.8027, 22.86472
570.2848, 21.71918
570.7669, 19.41215
571.2490, 17.05085
571.7311, 15.53765
572.2133, 14.87462
572.6954, 15.19045
573.1775, 17.95965
573.6596, 19.66763
574.1417, 18.76597
574.6238, 17.40998
575.1060, 17.94576
575.5881, 20.34665
576.0702, 22.16052
576.5523, 20.72936
577.0344, 17.13297
577.5165, 15.44924
577.9987, 15.96607
578.4808, 17.17743
578.9629, 18.90687
579.4450, 20.69468
579.9271, 21.99261
580.4092, 22.80720
580.8914, 23.02095
581.3735, 22.45108
581.8556, 21.34376
582.3377, 19.40689
582.8198, 16.97461
583.3019, 15.86668
583.7841, 17.38795
584.2662, 20.30059
584.7483, 21.15086
585.2304, 17.90279
585.7125, 15.90366
586.1946, 15.58218
586.6768, 16.03479
587.1589, 17.26285
587.6410, 18.78455
588.1231, 19.55432
588.6052, 18.84301
589.0873, 17.42101
589.5695, 16.87470
590.0516, 17.27932
590.5337, 18.10962
591.0158, 19.93650
591.4979, 21.35352
591.9800, 20.77170
592.4622, 18.72470
592.9443, 17.41154
593.4264, 18.27216
593.9085, 19.41566
594.3906, 19.01992
594.8727, 17.65725
595.3549, 16.99576
595.8370, 17.59420
596.3191, 18.59698
596.8012, 18.92541
597.2833, 18.42126
597.7654, 18.37589
598.2476, 18.78140
598.7297, 19.57663
599.2118, 21.57204
599.6939, 23.59194
600.1760, 23.88640
600.6581, 22.06188
601.1403, 19.71655
601.6224, 18.67027
602.1045, 18.86265
602.5866, 18.99134
603.0687, 19.07518
603.5508, 19.04703
604.0330, 18.66112
604.5151, 18.23408
604.9972, 18.28152
605.4793, 19.00472
605.9614, 19.47653
606.4435, 18.91465
606.9257, 17.98181
607.4078, 17.87064
607.8899, 18.53418
608.3720, 18.48019
608.8541, 16.50720
609.3362, 13.58541
609.8184, 12.83079
610.3005, 16.42899
610.7826, 18.99061
611.2647, 20.42879
611.7468, 20.95348
612.2289, 20.22363
612.7111, 18.69281
613.1932, 17.35159
613.6753, 16.73364
614.1574, 16.69200
614.6395, 17.25503
615.1216, 18.54081
615.6038, 18.66464
616.0859, 16.26320
616.5680, 14.08875
617.0501, 15.11295
617.5322, 18.36873
618.0143, 20.59534
618.4965, 20.54139
618.9786, 19.95928
619.4607, 19.68696
619.9428, 19.66771
620.4249, 19.99333
620.9070, 20.63778
621.3892, 20.88314
621.8713, 19.84431
622.3534, 17.55010
622.8355, 16.43032
623.3176, 17.63204
623.7997, 18.57181
624.2819, 18.43370
624.7640, 18.16056
625.2461, 18.98527
625.7282, 20.81733
626.2103, 22.00264
626.6924, 20.76168
627.1745, 18.15313
627.6566, 16.93026
628.1387, 17.19671
628.6208, 17.31775
629.1030, 16.41970
629.5851, 15.39272
630.0672, 15.87706
630.5493, 17.97895
631.0314, 19.29181
631.5135, 18.84434
631.9957, 18.10106
632.4778, 18.03796
632.9599, 18.37907
633.4420, 18.41720
633.9241, 17.89343
634.4063, 17.17789
634.8884, 16.75797
635.3705, 16.63405
635.8526, 16.82155
636.3347, 17.65611
636.8168, 18.32806
637.2990, 18.64559
637.7811, 18.62481
638.2632, 18.07309
638.7453, 16.90399
639.2274, 16.15132
639.7095, 16.98483
640.1917, 18.54098
640.6738, 19.11113
641.1559, 18.63314
641.6380, 18.46551
642.1201, 19.48372
642.6022, 21.01592
643.0844, 21.52740
643.5665, 20.50134
644.0486, 19.44672
644.5307, 17.97519
645.0128, 16.85073
645.4949, 16.61135
645.9771, 17.01747
646.4592, 17.59909
646.9413, 18.15367
647.4234, 18.66425
647.9055, 19.00315
648.3876, 19.18110
648.8698, 19.94462
649.3519, 21.93593
649.8340, 23.15168
650.3161, 21.52120
650.7982, 18.47164
651.2803, 16.96928
651.7625, 17.82827
652.2446, 18.63946
652.7267, 18.37850
653.2088, 17.65217
653.6909, 17.08136
654.1730, 16.70994
654.6552, 16.30057
655.1373, 15.68524
655.6194, 15.05114
656.1015, 14.91617
656.5836, 15.49634
657.0657, 16.01851
657.5479, 16.43654
658.0300, 16.79608
658.5121, 17.14890
658.9942, 17.45072
659.4763, 17.58648
659.9584, 17.47166
660.4406, 17.34088
660.9227, 17.60231
661.4048, 17.98993
661.8869, 17.53332
662.3690, 16.06904
662.8511, 15.11998
663.3333, 15.91327
663.8154, 17.97558
664.2975, 19.31383
664.7796, 19.63583
665.2617, 19.61790
665.7438, 18.79309
666.2260, 18.04759
666.7081, 18.19775
667.1902, 18.93693
667.6723, 19.30585
668.1544, 18.73948
668.6365, 17.89670
669.1187, 17.86733
669.6008, 18.61415
670.0829, 19.25066
670.5650, 19.56972
671.0471, 20.01180
671.5292, 21.27151
672.0114, 22.87988
672.4935, 23.16705
672.9756, 21.19990
673.4577, 19.50395
673.9398, 19.01980
674.4219, 19.01521
674.9041, 18.89315
675.3862, 18.56273
675.8683, 18.00235
676.3504, 17.14176
676.8325, 16.32694
677.3146, 16.52892
677.7968, 18.05249
678.2789, 19.13006
678.7610, 19.65967
679.2431, 19.59911
679.7252, 18.51531
680.2073, 16.94223
680.6895, 15.99785
681.1716, 16.06907
681.6537, 16.38984
682.1358, 16.63103
682.6179, 16.80130
683.1000, 16.73281
683.5822, 16.51786
684.0643, 16.91198
684.5464, 18.55338
685.0285, 20.67466
685.5106, 20.87312
685.9927, 17.62158
686.4749, 16.03730
686.9570, 17.91304
687.4391, 19.89922
687.9212, 20.59415
688.4033, 20.35510
688.8854, 19.89279
689.3676, 19.35254
689.8497, 18.97601
690.3318, 19.00500
690.8139, 19.33623
691.2960, 19.87524
691.7781, 20.59127
692.2603, 21.10158
692.7424, 21.24750
693.2245, 20.90414
693.7066, 19.62878
694.1887, 16.04405
694.6708, 14.36274
695.1530, 15.97250
695.6351, 17.91123
696.1172, 19.09019
696.5993, 19.51511
697.0814, 19.24461
697.5635, 18.26751
698.0457, 17.24473
698.5278, 16.82496
699.0099, 16.89535
699.4920, 17.18758
699.9741, 17.70353
700.4562, 17.97431
700.9384, 17.56143
701.4205, 17.00400
701.9026, 17.56052
702.3847, 20.02673
702.8668, 21.43308
703.3489, 20.92078
703.8311, 20.19537
704.3132, 20.05149
704.7953, 20.27512
705.2774, 20.51948
705.7595, 20.65250
706.2416, 20.54711
706.7238, 19.87954
707.2059, 18.83276
707.6880, 18.28586
708.1701, 18.32471
708.6522, 18.24407
709.1343, 17.50457
709.6164, 16.79128
710.0985, 17.48684
710.5806, 19.94942
711.0627, 21.13759
711.5449, 19.60120
712.0270, 18.10857
712.5091, 18.08521
712.9912, 18.87098
713.4733, 19.60974
713.9554, 20.03257
714.4376, 20.10180
714.9197, 19.56405
715.4018, 18.71359
715.8839, 18.95678
716.3660, 20.53594
716.8481, 21.34493
717.3303, 20.38046
717.8124, 18.87375
718.2945, 18.10076
718.7766, 18.02894
719.2587, 18.36953
719.7408, 19.72882
720.2230, 20.75542
720.7051, 20.76932
721.1872, 20.24927
721.6693, 19.50379
722.1514, 18.75823
722.6335, 18.60572
723.1157, 19.71064
723.5978, 21.33887
724.0799, 21.25565
724.5620, 19.23260
725.0441, 17.89599
725.5262, 17.99021
726.0084, 18.43796
726.4905, 18.37832
726.9726, 17.94442
727.4547, 17.66712
727.9368, 17.77514
728.4189, 17.72344
728.9011, 16.79233
729.3832, 16.03503
729.8653, 16.87312
730.3474, 18.87949
730.8295, 20.34782
731.3116, 20.30539
731.7938, 19.50296
732.2759, 19.34862
732.7580, 19.86091
733.2401, 19.57423
733.7222, 18.00107
734.2043, 16.60508
734.6865, 16.32999
735.1686, 16.76117
735.6507, 16.87749
736.1328, 16.41194
736.6149, 16.54791
737.0970, 18.32858
737.5792, 20.04140
738.0613, 20.39612
738.5434, 19.81073
739.0255, 19.19557
739.5076, 18.87792
739.9897, 18.68304
740.4719, 18.45106
740.9540, 18.16921
741.4361, 17.57081
741.9182, 16.45627
742.4003, 16.10744
742.8824, 17.29578
743.3646, 19.13238
743.8467, 20.66424
744.3288, 21.91988
744.8109, 22.33706
745.2930, 21.43581
745.7751, 20.19473
746.2573, 18.53546
746.7394, 17.01996
747.2215, 16.30965
747.7036, 16.46421
748.1857, 17.13870
748.6678, 18.24536
749.1500, 19.43366
749.6321, 19.74132
750.1142, 19.16987
750.5963, 19.03774
751.0784, 19.74973
751.5605, 20.52781
752.0427, 20.81512
752.5248, 20.63807
753.0069, 20.16967
753.4890, 19.15845
753.9711, 18.27471
754.4532, 17.19611
754.9354, 16.62597
755.4175, 17.53526
755.8996, 19.29773
756.3817, 20.56537
756.8638, 20.78240
757.3459, 20.23034
757.8281, 18.65678
758.3102, 16.56041
758.7923, 16.11964
759.2744, 17.54071
759.7565, 19.01861
760.2386, 19.72938
760.7208, 19.93496
761.2029, 20.04201
761.6850, 19.97952
762.1671, 20.11783
762.6492, 21.15638
763.1313, 21.54446
763.6135, 20.20248
764.0956, 18.31706
764.5777, 17.26482
765.0598, 17.16812
765.5419, 17.02048
766.0240, 15.77444
766.5062, 14.46284
766.9883, 14.79042
767.4704, 16.39421
767.9525, 17.76724
768.4346, 18.54940
768.9167, 19.15910
769.3989, 20.00161
769.8810, 20.97346
770.3631, 21.36700
770.8452, 20.61456
771.3273, 20.32059
771.8094, 21.11139
772.2916, 21.86383
772.7737, 22.02619
773.2558, 21.69230
773.7379, 20.93699
774.2200, 19.52081
774.7021, 18.80592
775.1843, 20.73527
775.6664, 23.28669
776.1485, 23.45182
776.6306, 21.51305
777.1127, 19.42740
777.5948, 18.04469
778.0770, 17.31348
778.5591, 17.18734
779.0412, 17.67704
779.5233, 18.58313
780.0054, 20.20899
780.4875, 21.62979
780.9697, 22.93191
781.4518, 23.57412
781.9339, 22.52537
782.4160, 19.99342
782.8981, 18.47820
783.3802, 19.16370
783.8624, 20.33172
784.3445, 21.69553
784.8266, 22.71398
785.3087, 22.51201
785.7908, 21.17604
786.2729, 19.49717
786.7551, 17.87332
787.2372, 16.72154
787.7193, 17.42580
788.2014, 19.94617
788.6835, 20.57031
789.1656, 18.15518
789.6478, 16.55219
790.1299, 18.74930
790.6120, 22.93130
791.0941, 24.63044
791.5762, 23.04660
792.0583, 21.54435
792.5404, 20.16916
793.0225, 19.05460
793.5046, 18.32498
793.9868, 17.85836
794.4689, 17.40526
794.9510, 16.95769
795.4331, 16.89382
795.9152, 17.63980
796.3973, 18.84502
796.8795, 20.34645
797.3616, 21.89049
797.8437, 21.86308
798.3258, 19.80129
798.8079, 17.65212
799.2900, 17.12060
799.7722, 17.97803
800.2543, 19.05795
800.7364, 21.05837
801.2185, 21.86009
801.7006, 19.49495
802.1827, 17.70933
802.6649, 19.06751
803.1470, 22.00690
803.6291, 23.64980
804.1112, 23.34443
804.5933, 22.18928
805.0754, 19.40811
805.5576, 17.08406
806.0397, 18.23114
806.5218, 21.45789
807.0039, 23.09134
807.4860, 21.93091
807.9681, 19.84910
808.4503, 18.77954
808.9324, 18.61538
809.4145, 18.91709
809.8966, 19.78529
810.3787, 20.51472
810.8608, 20.95818
811.3430, 21.16932
811.8251, 21.26555
812.3072, 21.18255
812.7893, 20.54459
813.2714, 18.23080
813.7535, 17.04124
814.2357, 18.35819
814.7178, 20.01440
815.1999, 20.73020
815.6820, 20.56555
816.1641, 19.68992
816.6462, 18.13966
817.1284, 16.99418
817.6105, 17.77941
818.0926, 19.43196
818.5747, 19.78485
819.0568, 18.95822
819.5389, 18.02071
820.0211, 17.30507
820.5032, 17.23763
820.9853, 18.45746
821.4674, 20.84301
821.9495, 22.51908
822.4316, 23.55462
822.9138, 23.74569
823.3959, 22.68230
823.8780, 21.11129
824.3601, 18.96975
824.8422, 16.75409
825.3243, 15.84062
825.8065, 16.94739
826.2886, 18.17311
826.7707, 18.92663
827.2528, 19.38099
827.7349, 19.75570
828.2170, 19.94158
828.6992, 19.42149
829.1813, 18.09252
829.6634, 17.08958
830.1455, 18.13333
830.6276, 20.37341
831.1097, 20.66908
831.5919, 19.05768
832.0740, 17.70457
832.5561, 17.16216
833.0382, 17.34301
833.5203, 18.37104
834.0024, 20.05274
834.4846, 20.93951
834.9667, 20.56833
835.4488, 20.13354
835.9309, 19.61098
836.4130, 19.12905
836.8951, 18.76417
837.3773, 18.47939
837.8594, 18.15421
838.3415, 17.72957
838.8236, 17.54881
839.3057, 17.87075
839.7878, 18.44835
840.2700, 19.16138
840.7521, 19.91364
841.2342, 20.73956
841.7163, 21.54365
842.1984, 21.55202
842.6805, 19.72411
843.1627, 17.01637
843.6448, 16.73246
844.1269, 18.97064
844.6090, 19.94323
845.0911, 18.68573
845.5732, 17.19025
846.0554, 16.73389
846.5375, 17.10434
847.0196, 17.73880
847.5017, 18.85007
847.9838, 19.73185
848.4659, 20.27363
848.9481, 20.72600
849.4302, 21.53450
849.9123, 22.10793
850.3944, 21.39871
850.8765, 19.45141
851.3586, 18.04079
851.8408, 18.40151
852.3229, 19.31128
852.8050, 19.91514
853.2871, 20.27440
853.7692, 20.40909
854.2513, 20.38226
854.7335, 20.45315
855.2156, 20.80124
855.6977, 21.21140
856.1798, 21.16770
856.6619, 20.69726
857.1440, 20.81294
857.6262, 21.75773
858.1083, 22.20901
858.5904, 21.39276
859.0725, 20.11271
859.5546, 19.37740
860.0367, 19.17639
860.5189, 19.69042
861.0010, 22.22870
861.4831, 23.67411
861.9652, 22.90396
862.4473, 21.42508
862.9294, 20.07540
863.4116, 19.00226
863.8937, 18.20942
864.3758, 17.50335
864.8579, 17.72655
865.3400, 20.82378
865.8221, 24.08204
866.3043, 23.95963
866.7864, 21.34841
867.2685, 18.79367
867.7506, 17.26501
868.2327, 16.92443
868.7148, 18.37277
869.1970, 20.86619
869.6791, 21.82457
870.1612, 21.24337
870.6433, 20.56158
871.1254, 20.13287
871.6075, 19.26501
872.0897, 17.09295
872.5718, 14.37739
873.0539, 13.72243
873.5360, 16.60999
874.0181, 18.15808
874.5002, 16.78857
874.9823, 15.88173
875.4644, 17.47532
875.9465, 19.52765
876.4286, 19.30874
876.9108, 16.75239
877.3929, 14.94888
877.8750, 15.47872
878.3571, 16.41247
878.8392, 16.72568
879.3214, 16.82461
879.8035, 17.50379
880.2856, 18.48114
880.7677, 18.41330
881.2498, 16.52914
881.7319, 14.51707
882.2141, 14.70783
882.6962, 16.42507
883.1783, 17.88547
883.6604, 18.96193
884.1425, 18.98318
884.6246, 17.60670
885.1068, 16.16686
885.5889, 16.26365
886.0710, 17.60065
886.5531, 17.59951
887.0352, 15.19842
887.5173, 14.72219
887.9995, 18.41230
888.4816, 21.72202
888.9637, 21.13399
889.4458, 18.44700
889.9279, 17.44132
890.4100, 18.79082
890.8922, 19.32735
891.3743, 17.75403
891.8564, 16.26492
892.3385, 16.03772
892.8206, 16.31199
893.3027, 15.94839
893.7849, 15.07567
894.2670, 15.08225
894.7491, 17.21000
895.2312, 19.25403
895.7133, 18.53875
896.1954, 16.71914
896.6776, 16.75496
897.1597, 18.41025
897.6418, 19.46497
898.1239, 18.97573
898.6060, 18.16599
899.0881, 18.74113
899.5703, 20.30152
900.0524, 20.61699
900.5345, 19.61855
901.0166, 18.66716
901.4987, 18.04268
901.9808, 17.67512
902.4630, 17.56368
902.9451, 17.62360
903.4272, 17.54399
903.9093, 17.17445
904.3914, 17.01750
904.8735, 17.30146
905.3557, 17.51313
905.8378, 17.11798
906.3199, 16.79038
906.8020, 17.69545
907.2841, 19.72328
907.7662, 20.53082
908.2484, 18.21487
908.7305, 16.29255
909.2126, 16.54165
909.6947, 17.52092
910.1768, 18.24331
910.6589, 18.46441
911.1411, 17.78131
911.6232, 16.00871
912.1053, 14.64324
912.5874, 15.44301
913.0695, 17.15568
913.5516, 18.13736
914.0338, 18.33175
914.5159, 17.27156
914.9980, 15.06948
915.4801, 13.77174
915.9622, 15.16229
916.4443, 17.92300
916.9265, 18.76575
917.4086, 17.69836
917.8907, 17.25523
918.3728, 17.76162
918.8549, 18.00253
919.3370, 17.35186
919.8192, 16.34379
920.3013, 15.69838
920.7834, 15.41958
921.2655, 15.15175
921.7476, 14.58228
922.2297, 14.56740
922.7119, 16.11268
923.1940, 17.36038
923.6761, 16.72610
924.1582, 15.16219
924.6403, 14.76187
925.1224, 16.06267
925.6046, 16.99807
926.0867, 16.50617
926.5688, 16.15178
927.0509, 17.33905
927.5330, 18.75649
928.0151, 18.56281
928.4973, 16.91903
928.9794, 15.56127
929.4615, 15.31646
929.9436, 15.67770
930.4257, 16.55917
930.9078, 17.55794
931.3900, 18.11925
931.8721, 18.24810
932.3542, 18.17709
932.8363, 17.96556
933.3184, 17.25637
933.8005, 15.39235
934.2827, 13.11107
934.7648, 12.53516
935.2469, 13.50633
935.7290, 14.48345
936.2111, 15.20690
936.6932, 16.45804
937.1754, 18.96539
937.6575, 21.31441
938.1396, 20.48981
938.6217, 16.03308
939.1038, 14.47357
939.5859, 17.28249
940.0681, 18.99075
940.5502, 17.66548
941.0323, 15.59606
941.5144, 14.51562
941.9965, 14.28738
942.4786, 14.37960
942.9608, 15.13312
943.4429, 15.48910
943.9250, 14.76272
944.4071, 14.38776
944.8892, 15.26829
945.3713, 16.59448
945.8535, 17.87333
946.3356, 18.83126
946.8177, 18.23266
947.2998, 13.99560
947.7819, 10.70341
948.2640, 11.23864
948.7462, 13.16149
949.2283, 14.69009
949.7104, 15.63025
950.1925, 15.96417
950.6746, 15.74464
951.1567, 15.63184
951.6389, 16.54960
952.1210, 17.49080
952.6031, 16.95953
953.0852, 15.51477
953.5673, 14.31865
954.0494, 13.52832
954.5316, 12.67840
955.0137, 11.48631
955.4958, 10.75729
955.9779, 12.03624
956.4600, 14.83467
956.9421, 16.83578
957.4242, 18.04564
957.9063, 18.46338
958.3884, 18.04606
958.8705, 17.35276
959.3527, 16.83133
959.8348, 16.37860
960.3169, 15.63154
960.7990, 14.43926
961.2811, 13.73283
961.7632, 13.49927
962.2454, 13.93194
962.7275, 15.71537
963.2096, 17.30680
963.6917, 16.71467
964.1738, 14.20661
964.6559, 12.75542
965.1381, 12.74333
965.6202, 13.19165
966.1023, 14.79963
966.5844, 16.01737
967.0665, 15.60501
967.5486, 14.72813
968.0308, 15.25294
968.5129, 17.26368
968.9950, 18.24928
969.4771, 16.83579
969.9592, 15.45149
970.4413, 15.05865
970.9235, 14.88239
971.4056, 13.98800
971.8877, 12.90658
972.3698, 12.98502
972.8519, 14.58834
973.3340, 15.98120
973.8162, 15.75779
974.2983, 15.36987
974.7804, 16.09906
975.2625, 17.35753
975.7446, 18.65416
976.2267, 19.63151
976.7089, 19.46617
977.1910, 17.72242
977.6731, 15.64699
978.1552, 14.09218
978.6373, 13.31617
979.1194, 14.41814
979.6016, 16.64369
980.0837, 17.48577
980.5658, 16.54916
981.0479, 15.40391
981.5300, 15.12041
982.0121, 15.19632
982.4943, 14.46010
982.9764, 14.89774
983.4585, 13.63435
983.9406, 15.66208
984.4227, 17.38435
984.9048, 18.22662
985.3870, 18.04109
985.8691, 16.41800
986.3512, 14.17235
986.8333, 14.41489
987.3154, 17.68398
987.7975, 18.67511
988.2797, 16.42537
988.7618, 14.71921
989.2439, 15.18493
989.7260, 16.57138
990.2081, 17.66487
990.6902, 18.38811
991.1724, 17.94329
991.6545, 15.59682
992.1366, 13.75903
992.6187, 12.39692
993.1008, 11.84887
993.5829, 12.90557
994.0651, 14.42255
994.5472, 14.57725
995.0293, 13.33193
995.5114, 13.06819
995.9935, 15.30229
996.4756, 16.35019
996.9578, 14.60219
997.4399, 12.75132
997.9220, 12.11501
998.4041, 12.44444
998.8862, 13.69924
999.3683, 15.89409
999.8505, 16.75967
1000.333, 14.20027
1000.815, 12.23602
1001.297, 12.61787
1001.779, 13.94821
1002.261, 15.79375
1002.743, 17.44357
1003.225, 17.41654
1003.707, 15.32318
1004.190, 13.85665
1004.672, 15.13958
1005.154, 16.60724
1005.636, 16.24513
1006.118, 15.32100
1006.600, 15.57254
1007.082, 16.67459
1007.564, 17.09403
1008.046, 16.26175
1008.529, 15.48388
1009.011, 16.18042
1009.493, 17.10100
1009.975, 16.73301
1010.457, 15.64304
1010.939, 14.67486
1011.421, 14.05585
1011.903, 14.05220
1012.385, 14.81898
1012.868, 15.49168
1013.350, 14.74317
1013.832, 13.47134
1014.314, 13.53148
1014.796, 14.49461
1015.278, 15.11205
1015.760, 15.13988
1016.242, 14.66296
1016.725, 13.68478
1017.207, 12.84931
1017.689, 13.31823
1018.171, 14.67927
1018.653, 15.49850
1019.135, 15.80100
1019.617, 15.91989
1020.099, 15.92348
1020.581, 15.47450
1021.064, 14.24436
1021.546, 12.98423
1022.028, 13.45212
1022.510, 15.41039
1022.992, 15.87535
1023.474, 14.80441
1023.956, 13.70135
1024.438, 12.87779
1024.921, 12.90414
1025.403, 14.43082
1025.885, 16.48026
1026.367, 16.50513
1026.849, 14.31559
1027.331, 13.22605
1027.813, 13.38446
1028.295, 13.85548
1028.777, 14.50863
1029.260, 14.98556
1029.742, 14.95777
1030.224, 14.58947
1030.706, 14.36942
1031.188, 14.38224
1031.670, 14.04613
1032.152, 13.20206
1032.634, 12.44607
1033.116, 11.84265
1033.599, 11.60383
1034.081, 12.11722
1034.563, 13.00268
1035.045, 12.96156
1035.527, 11.40775
1036.009, 11.03205
1036.491, 12.61186
1036.973, 13.86446
1037.456, 13.87428
1037.938, 13.71191
1038.420, 14.40067
1038.902, 15.60231
1039.384, 16.13978
1039.866, 15.68387
1040.348, 15.48463
1040.830, 15.85391
1041.313, 16.03100
1041.795, 15.31474
1042.277, 14.79286
1042.759, 15.88327
1043.241, 17.85319
1043.723, 18.29940
1044.205, 16.51819
1044.687, 15.09903
1045.169, 13.79159
1045.651, 13.32382
1046.134, 14.56887
1046.616, 16.15176
1047.098, 17.00745
1047.580, 17.27940
1048.062, 17.51290
1048.544, 17.78927
1049.026, 17.89942
1049.508, 18.21955
1049.991, 17.84583
1050.473, 15.40726
1050.955, 13.09377
1051.437, 13.23846
1051.919, 14.92055
1052.401, 15.35333
1052.883, 13.79340
1053.365, 12.59848
1053.848, 12.17471
1054.330, 12.31160
1054.812, 13.68709
1055.294, 14.92802
1055.776, 14.37761
1056.258, 12.83824
1056.740, 12.56813
1057.222, 14.22606
1057.704, 15.39260
1058.187, 14.47195
1058.669, 14.09300
1059.151, 16.57323
1059.633, 19.01536
1060.115, 18.45007
1060.597, 15.91683
1061.079, 13.96532
1061.561, 13.08574
1062.043, 13.03289
1062.526, 14.58856
1063.008, 15.84111
1063.490, 15.67304
1063.972, 15.06626
1064.454, 14.61430
1064.936, 14.50543
1065.418, 15.20465
1065.900, 16.82393
1066.383, 17.60459
1066.865, 16.30096
1067.347, 14.73774
1067.829, 13.00188
1068.311, 12.05882
1068.793, 13.53536
1069.275, 16.12682
1069.757, 17.21750
1070.240, 16.36547
1070.722, 15.74232
1071.204, 16.82722
1071.686, 17.58011
1072.168, 16.70426
1072.650, 15.43429
1073.132, 14.56349
1073.614, 14.13895
1074.096, 14.18006
1074.578, 14.62957
1075.061, 15.02835
1075.543, 15.10150
1076.025, 15.22653
1076.507, 15.85518
1076.989, 16.34032
1077.471, 16.14074
1077.953, 15.46629
1078.435, 14.57679
1078.918, 13.57870
1079.400, 12.70846
1079.882, 11.95377
1080.364, 11.54982
1080.846, 11.37956
1081.328, 11.83387
1081.810, 14.20962
1082.292, 16.76809
1082.774, 16.92716
1083.257, 14.84493
1083.739, 12.72041
1084.221, 10.84851
1084.703, 10.35589
1085.185, 13.85597
1085.667, 16.58310
1086.149, 13.53828
1086.631, 9.278394
1087.114, 10.42082
1087.596, 15.48723
1088.078, 16.90700
1088.560, 11.42466
1089.042, 7.597601
1089.524, 10.50926
1090.006, 14.21692
1090.488, 15.99265
1090.970, 16.35479
1091.453, 15.18084
1091.935, 13.30633
1092.417, 12.84150
1092.899, 14.50101
1093.381, 15.00648
1093.863, 11.10067
1094.345, 8.403016
1094.827, 10.95824
1095.309, 14.50157
1095.792, 15.25439
1096.274, 14.24709
1096.756, 14.14564
1097.238, 15.40062
1097.720, 15.87739
1098.202, 13.67359
1098.684, 12.31244
1099.166, 13.81790
1099.649, 15.70284
1100.131, 16.42445
1100.613, 16.29699
1101.095, 15.97312
1101.577, 15.49990
1102.059, 14.45257
1102.541, 11.31771
1103.023, 9.920105
1103.505, 12.49743
1103.988, 15.49041
1104.470, 17.93691
1104.952, 19.09616
1105.434, 17.47274
1105.916, 13.71437
1106.398, 11.16702
1106.880, 10.48092
1107.362, 10.66365
1107.844, 12.65254
1108.327, 14.08710
1108.809, 13.56820
1109.291, 12.57134
1109.773, 12.35808
1110.255, 12.76724
1110.737, 13.26859
1111.219, 14.02249
1111.701, 14.10981
1112.184, 13.11915
1112.666, 11.93991
1113.148, 9.470270
1113.630, 8.174692
1114.112, 10.82385
1114.594, 15.28905
1115.076, 17.72179
1115.558, 17.98990
1116.041, 17.44355
1116.523, 14.81684
1117.005, 13.58962
1117.487, 15.28075
1117.969, 16.75638
1118.451, 16.30949
1118.933, 15.05732
1119.415, 14.29348
1119.897, 14.01772
1120.380, 14.30557
1120.862, 15.94661
1121.344, 16.02899
1121.826, 13.27740
1122.308, 11.55163
1122.790, 12.57505
1123.272, 14.47549
1123.754, 15.57449
1124.236, 16.08111
1124.719, 16.83596
1125.201, 18.18403
1125.683, 17.73231
1126.165, 14.81432
1126.647, 12.66930
1127.129, 12.15352
1127.611, 12.34810
1128.093, 12.79890
1128.576, 13.17270
1129.058, 12.72264
1129.540, 11.51929
1130.022, 11.15674
1130.504, 11.71224
1130.986, 12.20564
1131.468, 12.46821
1131.950, 12.89493
1132.432, 13.66966
1132.915, 14.84521
1133.397, 16.80463
1133.879, 18.77227
1134.361, 17.09877
1134.843, 12.28220
1135.325, 10.84559
1135.807, 13.05939
1136.289, 14.84385
1136.771, 14.88385
1137.254, 14.33260
1137.736, 14.07171
1138.218, 14.00731
1138.700, 14.08808
1139.182, 14.19940
1139.664, 13.76916
1140.146, 12.99582
1140.628, 12.79570
1141.111, 13.29038
1141.593, 14.05273
1142.075, 14.87064
1142.557, 15.46905
1143.039, 15.44337
1143.521, 15.07740
1144.003, 15.08186
1144.485, 15.00443
1144.968, 13.24672
1145.450, 10.54856
1145.932, 9.833767
1146.414, 11.82425
1146.896, 13.96074
1147.378, 14.55150
1147.860, 14.34165
1148.342, 13.43862
1148.824, 12.64479
1149.307, 13.22223
1149.789, 14.46749
1150.271, 15.03880
1150.753, 14.84282
1151.235, 14.63033
1151.717, 14.69566
1152.199, 14.83452
1152.681, 15.39888
1153.163, 15.45269
1153.646, 13.72838
1154.128, 11.70319
1154.610, 10.74411
1155.092, 10.82675
1155.574, 11.80399
1156.056, 13.68614
1156.538, 14.83463
1157.020, 13.53791
1157.503, 13.22912
1157.985, 16.52093
1158.467, 19.28478
1158.949, 18.44425
1159.431, 16.03213
1159.913, 14.95360
1160.395, 15.04768
1160.877, 13.84723
1161.359, 8.938032
1161.842, 7.386879
1162.324, 12.21028
1162.806, 15.84130
1163.288, 15.47063
1163.770, 14.32197
1164.252, 14.96062
1164.734, 16.36089
1165.216, 16.02174
1165.698, 16.53471
1166.181, 17.00394
1166.663, 15.94865
1167.145, 17.01770
1167.627, 15.51246
1168.109, 14.08078
1168.591, 13.99543
1169.073, 14.42342
1169.555, 14.32869
1170.037, 14.04546
1170.520, 15.25823
1171.002, 17.88113
1171.484, 18.31633
1171.966, 16.45460
1172.448, 14.18807
1172.930, 12.04414
1173.412, 11.00170
1173.894, 11.79264
1174.377, 13.29625
1174.859, 14.07646
1175.341, 14.15939
1175.823, 12.98932
1176.305, 11.30912
1176.787, 11.64010
1177.269, 13.83843
1177.751, 16.15187
1178.234, 17.83556
1178.716, 18.28934
1179.198, 16.62659
1179.680, 14.46817
1180.162, 13.34213
1180.644, 12.95811
1181.126, 13.11319
1181.608, 13.64292
1182.090, 14.62107
1182.573, 15.75797
1183.055, 16.08269
1183.537, 15.14737
1184.019, 14.00922
1184.501, 12.28084
1184.983, 11.68902
1185.465, 14.61641
1185.947, 17.75240
1186.429, 18.33985
1186.912, 17.01466
1187.394, 14.57253
1187.876, 11.29756
1188.358, 10.19946
1188.840, 14.29959
1189.322, 16.53599
1189.804, 14.34369
1190.286, 12.63654
1190.769, 14.14150
1191.251, 15.63873
1191.733, 13.65488
1192.215, 10.00573
1192.697, 9.698234
1193.179, 13.32682
1193.661, 15.17831
1194.143, 14.96750
1194.625, 13.82943
1195.108, 11.58127
1195.590, 9.881617
1196.072, 9.531690
1196.554, 10.12190
1197.036, 11.33239
1197.518, 12.83206
1198.000, 13.56325
1198.482, 13.59041
1198.964, 13.47457
1199.447, 13.25617
1199.929, 12.75537
1200.411, 12.06975
1200.893, 12.75793
1201.375, 15.78194
1201.857, 18.73075
1202.339, 18.61893
1202.821, 16.84223
1203.304, 14.85264
1203.786, 13.33871
1204.268, 14.16536
1204.750, 16.41211
1205.232, 17.53875
1205.714, 17.01876
1206.196, 16.04908
1206.678, 15.13973
1207.161, 14.22565
1207.643, 12.82756
1208.125, 11.92312
1208.607, 12.67312
1209.089, 13.86395
1209.571, 13.97800
1210.053, 13.52866
1210.535, 14.25302
1211.017, 16.51219
1211.500, 17.47811
1211.982, 15.48477
1212.464, 14.12148
1212.946, 13.98525
1213.428, 14.43784
1213.910, 16.02756
1214.392, 17.12333
1214.874, 15.66445
1215.356, 16.61655
1215.839, 12.42198
1216.321, 14.96318
1216.803, 14.80378
1217.285, 11.19211
1217.767, 10.40956
1218.249, 13.90329
1218.731, 16.18046
1219.213, 14.48842
1219.696, 11.89190
1220.178, 11.78436
1220.660, 13.11020
1221.142, 13.36995
1221.624, 12.99708
1222.106, 13.51908
1222.588, 14.74979
1223.070, 16.09709
1223.552, 17.20251
1224.035, 16.97282
1224.517, 14.89069
1224.999, 12.79086
1225.481, 12.12005
1225.963, 12.23884
1226.445, 12.48026
1226.927, 13.29471
1227.409, 16.19220
1227.891, 19.45148
1228.374, 19.94192
1228.856, 17.81448
1229.338, 16.11437
1229.820, 15.46515
1230.302, 15.76470
1230.784, 18.79691
1231.266, 20.27625
1231.748, 17.43265
1232.231, 14.19992
1232.713, 12.63559
1233.195, 12.47315
1233.677, 13.84606
1234.159, 16.39447
1234.641, 16.62637
1235.123, 13.70929
1235.605, 12.54800
1236.088, 13.57383
1236.570, 14.67297
1237.052, 15.32039
1237.534, 15.81261
1238.016, 16.35335
1238.498, 16.71798
1238.980, 16.49327
1239.462, 15.95611
1239.944, 15.57680
1240.427, 15.58822
1240.909, 17.54933
1241.391, 20.46174
1241.873, 20.40660
1242.355, 17.04664
1242.837, 14.15316
1243.319, 13.67333
1243.801, 14.30524
1244.283, 16.03275
1244.766, 17.34441
1245.248, 16.78252
1245.730, 15.51444
1246.212, 14.34044
1246.694, 13.51789
1247.176, 13.43619
1247.658, 14.04593
1248.140, 14.49301
1248.622, 14.38675
1249.105, 14.70518
1249.587, 16.60240
1250.069, 17.04165
1250.551, 14.36467
1251.033, 11.75047
1251.515, 11.10359
1251.997, 11.78446
1252.479, 13.05255
1252.962, 14.66244
1253.444, 15.07997
1253.926, 14.33399
1254.408, 13.85726
1254.890, 13.72715
1255.372, 13.82643
1255.854, 14.11232
1256.336, 14.59791
1256.818, 15.30391
1257.301, 15.60632
1257.783, 14.28897
1258.265, 12.79090
1258.747, 13.41174
1259.229, 14.83949
1259.711, 15.24051
1260.193, 15.01993
1260.675, 15.23378
1261.157, 15.95104
1261.640, 16.65879
1262.122, 17.34178
1262.604, 17.30134
1263.086, 15.56209
1263.568, 14.13671
1264.050, 13.67107
1264.532, 13.71202
1265.014, 14.29448
1265.497, 14.93867
1265.979, 14.99295
1266.461, 15.53580
1266.943, 15.92092
1267.425, 16.02772
1267.907, 16.52691
1268.389, 16.41712
1268.871, 16.21295
1269.354, 15.99826
1269.836, 16.30701
1270.318, 17.39901
1270.800, 17.95983
1271.282, 16.46870
1271.764, 14.44685
1272.246, 14.43998
1272.728, 15.53308
1273.210, 16.46836
1273.693, 17.07072
1274.175, 17.07135
1274.657, 16.59286
1275.139, 15.99919
1275.621, 15.40332
1276.103, 14.93111
1276.585, 14.38230
1277.067, 14.37906
1277.549, 15.99709
1278.032, 17.11064
1278.514, 15.98311
1278.996, 14.61222
1279.478, 14.93234
1279.960, 16.05731
1280.442, 16.20568
1280.924, 15.42076
1281.406, 15.09025
1281.889, 15.22721
1282.371, 15.85128
1282.853, 17.00376
1283.335, 17.86337
1283.817, 18.20265
1284.299, 18.22123
1284.781, 18.05298
1285.263, 17.53227
1285.745, 16.48803
1286.228, 14.91656
##END=



