##NAMES=Antigorite
##RRUFFID=R070228
##IDEAL CHEMISTRY=Mg_3_Si_2_O_5_(OH)_4_
##LOCALITY=Wood's Chrome Mine (Wood's Mine), Texas, Lancaster County, Pennsylvania, USA
##OWNER=RRUFF
##SOURCE=Michael Scott
##DESCRIPTION=Compact massive, light to dark green associated with chromite
##STATUS=The identification of this mineral has been confirmed by X-ray diffraction and chemical analysis
##URL=rruff.info/R070228
##MEASURED CHEMISTRY=(Mg_2.93_Fe_0.07_)_Î£=3_Si_2.00_O_5_(OH)_4_ ; trace amounts of Al and Mn; OH estimated by difference
175.9807, 1767.882
176.4628, 1760.458
176.9449, 1750.416
177.4271, 1749.203
177.9092, 1768.349
178.3913, 1795.846
178.8734, 1814.401
179.3555, 1813.001
179.8376, 1799.817
180.3197, 1799.746
180.8019, 1819.977
181.2840, 1841.273
181.7661, 1859.536
182.2482, 1874.577
182.7303, 1885.859
183.2124, 1892.946
183.6946, 1896.439
184.1767, 1897.372
184.6588, 1892.516
185.1409, 1890.939
185.6230, 1897.825
186.1051, 1907.756
186.5873, 1914.599
187.0694, 1915.399
187.5515, 1911.781
188.0336, 1906.848
188.5157, 1894.859
188.9978, 1892.493
189.4800, 1910.139
189.9621, 1934.672
190.4442, 1952.467
190.9263, 1957.140
191.4084, 1953.485
191.8905, 1951.984
192.3727, 1948.810
192.8548, 1955.738
193.3369, 1983.952
193.8190, 2017.121
194.3011, 2039.129
194.7832, 2043.502
195.2654, 2036.845
195.7475, 2032.378
196.2296, 2027.844
196.7117, 2030.482
197.1938, 2047.045
197.6759, 2066.706
198.1581, 2079.285
198.6402, 2081.516
199.1223, 2078.865
199.6044, 2081.879
200.0865, 2094.974
200.5686, 2104.973
201.0508, 2106.977
201.5329, 2108.301
202.0150, 2116.182
202.4971, 2132.131
202.9792, 2149.608
203.4613, 2156.599
203.9435, 2144.107
204.4256, 2141.653
204.9077, 2158.569
205.3898, 2178.800
205.8719, 2191.087
206.3540, 2193.439
206.8362, 2192.048
207.3183, 2195.865
207.8004, 2208.402
208.2825, 2217.054
208.7646, 2218.521
209.2467, 2219.093
209.7289, 2222.160
210.2110, 2228.189
210.6931, 2235.771
211.1752, 2243.601
211.6573, 2252.104
212.1395, 2259.064
212.6216, 2258.528
213.1037, 2261.492
213.5858, 2274.389
214.0679, 2296.516
214.5500, 2322.957
215.0322, 2350.469
215.5143, 2380.578
215.9964, 2400.654
216.4785, 2401.023
216.9606, 2400.575
217.4427, 2405.843
217.9249, 2416.513
218.4070, 2429.452
218.8891, 2442.492
219.3712, 2455.691
219.8533, 2466.881
220.3354, 2472.598
220.8176, 2479.624
221.2997, 2490.135
221.7818, 2503.394
222.2639, 2517.510
222.7460, 2530.859
223.2281, 2543.881
223.7103, 2560.099
224.1924, 2582.599
224.6745, 2605.289
225.1566, 2630.687
225.6387, 2654.823
226.1208, 2670.272
226.6030, 2671.327
227.0851, 2663.618
227.5672, 2671.449
228.0493, 2709.737
228.5314, 2744.382
229.0135, 2767.958
229.4957, 2785.542
229.9778, 2804.688
230.4599, 2829.081
230.9420, 2852.989
231.4241, 2861.328
231.9062, 2843.712
232.3884, 2827.450
232.8705, 2820.254
233.3526, 2813.594
233.8347, 2802.132
234.3168, 2783.756
234.7989, 2755.459
235.2811, 2708.898
235.7632, 2630.241
236.2453, 2566.164
236.7274, 2525.883
237.2095, 2495.222
237.6916, 2466.294
238.1738, 2437.009
238.6559, 2407.713
239.1380, 2378.086
239.6201, 2347.000
240.1022, 2319.722
240.5843, 2293.410
241.0665, 2273.422
241.5486, 2267.516
242.0307, 2272.849
242.5128, 2276.233
242.9949, 2261.421
243.4770, 2225.718
243.9592, 2204.223
244.4413, 2209.938
244.9234, 2218.457
245.4055, 2222.150
245.8876, 2221.292
246.3697, 2218.670
246.8519, 2216.576
247.3340, 2214.598
247.8161, 2208.628
248.2982, 2192.685
248.7803, 2180.922
249.2624, 2181.136
249.7446, 2187.839
250.2267, 2192.136
250.7088, 2189.016
251.1909, 2180.692
251.6730, 2173.130
252.1551, 2165.625
252.6373, 2160.460
253.1194, 2156.603
253.6015, 2155.801
254.0836, 2161.520
254.5657, 2176.219
255.0478, 2193.188
255.5300, 2201.315
256.0121, 2198.579
256.4942, 2194.511
256.9763, 2190.524
257.4584, 2186.946
257.9406, 2183.534
258.4227, 2180.188
258.9048, 2178.585
259.3869, 2181.925
259.8690, 2190.555
260.3511, 2195.925
260.8333, 2193.499
261.3154, 2189.849
261.7975, 2190.581
262.2796, 2195.538
262.7617, 2199.332
263.2438, 2195.982
263.7260, 2187.263
264.2081, 2184.429
264.6902, 2192.621
265.1723, 2200.652
265.6544, 2199.592
266.1365, 2191.585
266.6187, 2183.521
267.1008, 2179.690
267.5829, 2177.809
268.0650, 2171.618
268.5471, 2158.738
269.0292, 2148.880
269.5114, 2151.972
269.9935, 2162.483
270.4756, 2171.623
270.9577, 2177.172
271.4398, 2180.397
271.9219, 2184.655
272.4041, 2190.175
272.8862, 2187.440
273.3683, 2164.861
273.8504, 2134.142
274.3325, 2117.846
274.8146, 2121.583
275.2968, 2131.470
275.7789, 2142.022
276.2610, 2152.010
276.7431, 2154.818
277.2252, 2144.283
277.7073, 2130.784
278.1895, 2133.816
278.6716, 2157.165
279.1537, 2175.689
279.6358, 2178.733
280.1179, 2171.406
280.6000, 2159.554
281.0822, 2143.070
281.5643, 2130.638
282.0464, 2135.283
282.5285, 2158.627
283.0106, 2177.880
283.4927, 2191.574
283.9749, 2199.429
284.4570, 2197.807
284.9391, 2187.572
285.4212, 2179.583
285.9033, 2184.063
286.3854, 2200.666
286.8676, 2208.849
287.3497, 2199.506
287.8318, 2191.376
288.3139, 2194.916
288.7960, 2207.203
289.2781, 2220.051
289.7603, 2229.262
290.2424, 2235.069
290.7245, 2238.063
291.2066, 2233.439
291.6887, 2232.106
292.1708, 2237.687
292.6530, 2246.744
293.1351, 2255.478
293.6172, 2262.509
294.0993, 2267.917
294.5814, 2271.479
295.0635, 2269.788
295.5457, 2273.072
296.0278, 2284.593
296.5099, 2298.297
296.9920, 2310.963
297.4741, 2321.676
297.9562, 2330.137
298.4384, 2336.523
298.9205, 2341.467
299.4026, 2339.538
299.8847, 2316.939
300.3668, 2301.400
300.8489, 2307.149
301.3311, 2327.502
301.8131, 2347.310
302.2953, 2356.489
302.7774, 2357.234
303.2595, 2360.972
303.7416, 2371.344
304.2237, 2379.287
304.7058, 2383.027
305.1880, 2383.652
305.6701, 2381.457
306.1522, 2376.422
306.6343, 2371.111
307.1164, 2371.407
307.5985, 2380.668
308.0807, 2382.949
308.5628, 2365.885
309.0449, 2347.561
309.5270, 2339.359
310.0091, 2341.989
310.4912, 2347.711
310.9734, 2351.343
311.4555, 2352.796
311.9376, 2350.194
312.4197, 2339.535
312.9018, 2330.481
313.3839, 2327.797
313.8661, 2330.986
314.3482, 2339.250
314.8303, 2356.710
315.3124, 2377.064
315.7945, 2390.363
316.2766, 2396.845
316.7588, 2394.243
317.2409, 2370.519
317.7230, 2340.504
318.2051, 2329.776
318.6872, 2348.551
319.1693, 2374.384
319.6515, 2393.574
320.1336, 2406.416
320.6157, 2413.764
321.0978, 2414.134
321.5799, 2411.757
322.0620, 2414.167
322.5442, 2422.375
323.0263, 2428.122
323.5084, 2426.931
323.9905, 2422.907
324.4726, 2420.850
324.9547, 2421.572
325.4369, 2424.635
325.9190, 2429.348
326.4011, 2435.836
326.8832, 2446.631
327.3653, 2470.051
327.8474, 2490.089
328.3296, 2494.059
328.8117, 2486.515
329.2938, 2482.377
329.7759, 2491.031
330.2580, 2508.710
330.7401, 2518.033
331.2223, 2511.656
331.7044, 2505.998
332.1865, 2500.954
332.6686, 2498.246
333.1507, 2500.364
333.6328, 2507.836
334.1150, 2518.004
334.5971, 2526.930
335.0792, 2533.617
335.5613, 2541.711
336.0434, 2554.405
336.5255, 2565.532
337.0077, 2571.032
337.4898, 2571.834
337.9719, 2571.640
338.4540, 2573.032
338.9361, 2575.990
339.4182, 2580.018
339.9004, 2582.205
340.3825, 2590.260
340.8646, 2612.530
341.3467, 2639.075
341.8288, 2657.021
342.3109, 2661.102
342.7931, 2657.546
343.2752, 2652.573
343.7573, 2644.650
344.2394, 2646.655
344.7215, 2668.187
345.2036, 2696.094
345.6858, 2720.562
346.1679, 2741.107
346.6500, 2760.647
347.1321, 2780.902
347.6142, 2801.540
348.0963, 2822.592
348.5785, 2845.185
349.0606, 2864.700
349.5427, 2873.967
350.0248, 2876.780
350.5069, 2884.540
350.9890, 2899.594
351.4712, 2920.089
351.9533, 2949.049
352.4354, 2984.027
352.9175, 3011.496
353.3996, 3023.140
353.8817, 3025.594
354.3639, 3035.884
354.8460, 3052.918
355.3281, 3077.318
355.8102, 3117.817
356.2923, 3161.901
356.7744, 3190.014
357.2566, 3199.337
357.7387, 3209.303
358.2208, 3243.669
358.7029, 3309.963
359.1850, 3358.736
359.6671, 3377.789
360.1493, 3394.089
360.6314, 3420.640
361.1135, 3453.890
361.5956, 3482.792
362.0777, 3500.141
362.5598, 3511.277
363.0420, 3537.013
363.5241, 3593.031
364.0062, 3638.381
364.4883, 3661.431
364.9704, 3677.339
365.4525, 3699.116
365.9347, 3729.253
366.4168, 3760.973
366.8989, 3785.795
367.3810, 3803.374
367.8631, 3821.867
368.3452, 3831.502
368.8274, 3855.520
369.3095, 3914.852
369.7916, 3996.554
370.2737, 4069.097
370.7558, 4113.946
371.2379, 4144.438
371.7201, 4182.342
372.2022, 4228.362
372.6843, 4274.930
373.1664, 4323.738
373.6485, 4367.542
374.1306, 4397.693
374.6128, 4413.888
375.0949, 4416.474
375.5770, 4404.730
376.0591, 4379.559
376.5412, 4343.953
377.0233, 4299.098
377.5055, 4238.587
377.9876, 4150.547
378.4697, 4031.512
378.9518, 3926.706
379.4339, 3854.163
379.9160, 3780.535
380.3982, 3681.476
380.8803, 3564.760
381.3624, 3454.600
381.8445, 3363.880
382.3266, 3289.266
382.8087, 3219.284
383.2909, 3154.855
383.7730, 3095.260
384.2551, 3036.162
384.7372, 2984.679
385.2193, 2950.798
385.7014, 2933.552
386.1836, 2918.442
386.6657, 2888.718
387.1478, 2843.261
387.6299, 2807.039
388.1120, 2784.538
388.5941, 2766.663
389.0763, 2753.355
389.5584, 2741.873
390.0405, 2727.727
390.5226, 2707.892
391.0047, 2687.422
391.4868, 2677.188
391.9690, 2679.274
392.4511, 2670.873
392.9332, 2633.300
393.4153, 2594.688
393.8974, 2584.882
394.3795, 2603.796
394.8617, 2621.216
395.3438, 2622.062
395.8259, 2612.118
396.3080, 2598.999
396.7901, 2583.063
397.2722, 2568.716
397.7544, 2556.908
398.2365, 2549.705
398.7186, 2554.031
399.2007, 2588.615
399.6828, 2613.554
400.1649, 2605.634
400.6471, 2579.703
401.1292, 2559.559
401.6113, 2552.943
402.0934, 2555.061
402.5755, 2559.778
403.0576, 2570.401
403.5398, 2572.872
404.0219, 2555.893
404.5040, 2542.389
404.9861, 2550.579
405.4682, 2572.363
405.9503, 2585.524
406.4325, 2574.846
406.9146, 2547.862
407.3967, 2531.407
407.8788, 2529.364
408.3609, 2530.248
408.8430, 2533.927
409.3252, 2538.019
409.8073, 2540.344
410.2894, 2540.680
410.7715, 2541.078
411.2536, 2546.542
411.7357, 2554.588
412.2179, 2548.703
412.7000, 2519.672
413.1821, 2496.408
413.6642, 2508.036
414.1463, 2539.220
414.6284, 2559.991
415.1106, 2561.642
415.5927, 2555.424
416.0748, 2547.191
416.5569, 2537.539
417.0390, 2527.817
417.5211, 2518.064
418.0033, 2510.090
418.4854, 2506.973
418.9675, 2510.343
419.4496, 2513.402
419.9317, 2519.382
420.4138, 2522.132
420.8960, 2515.723
421.3781, 2502.067
421.8602, 2486.973
422.3423, 2473.483
422.8244, 2462.875
423.3065, 2461.116
423.7887, 2476.742
424.2708, 2488.042
424.7529, 2487.562
425.2350, 2485.743
425.7171, 2493.233
426.1992, 2510.373
426.6814, 2526.432
427.1635, 2528.969
427.6456, 2519.502
428.1277, 2516.294
428.6098, 2521.512
429.0919, 2528.922
429.5741, 2538.465
430.0562, 2547.303
430.5383, 2549.865
431.0204, 2541.582
431.5025, 2533.848
431.9846, 2538.786
432.4668, 2552.575
432.9489, 2560.930
433.4310, 2559.355
433.9131, 2554.305
434.3952, 2552.947
434.8773, 2555.616
435.3595, 2559.272
435.8416, 2563.513
436.3237, 2568.934
436.8058, 2577.031
437.2879, 2586.634
437.7701, 2595.797
438.2522, 2603.785
438.7343, 2608.907
439.2164, 2605.496
439.6985, 2578.884
440.1806, 2570.651
440.6628, 2596.640
441.1449, 2626.446
441.6270, 2639.595
442.1091, 2637.386
442.5912, 2634.087
443.0733, 2640.944
443.5555, 2654.830
444.0376, 2662.560
444.5197, 2660.729
445.0018, 2662.342
445.4839, 2678.094
445.9660, 2696.840
446.4482, 2706.477
446.9303, 2704.330
447.4124, 2702.370
447.8945, 2710.316
448.3766, 2723.170
448.8587, 2728.984
449.3409, 2725.652
449.8230, 2723.247
450.3051, 2730.218
450.7872, 2745.659
451.2693, 2758.580
451.7514, 2768.890
452.2336, 2777.018
452.7157, 2781.820
453.1978, 2784.951
453.6799, 2788.677
454.1620, 2793.637
454.6441, 2798.832
455.1263, 2802.900
455.6084, 2805.554
456.0905, 2808.677
456.5726, 2812.294
457.0547, 2816.367
457.5368, 2825.511
458.0190, 2833.978
458.5011, 2831.874
458.9832, 2814.029
459.4653, 2788.990
459.9474, 2766.600
460.4295, 2746.884
460.9117, 2735.514
461.3938, 2742.106
461.8759, 2745.554
462.3580, 2724.603
462.8401, 2683.277
463.3222, 2641.052
463.8044, 2599.520
464.2865, 2561.961
464.7686, 2528.920
465.2507, 2501.939
465.7328, 2489.730
466.2149, 2498.654
466.6971, 2515.122
467.1792, 2511.971
467.6613, 2474.692
468.1434, 2447.794
468.6255, 2439.319
469.1076, 2433.986
469.5898, 2423.039
470.0719, 2406.905
470.5540, 2389.370
471.0361, 2372.223
471.5182, 2356.677
472.0003, 2347.447
472.4825, 2349.207
472.9646, 2344.659
473.4467, 2320.469
473.9288, 2295.764
474.4109, 2283.690
474.8930, 2284.204
475.3752, 2287.490
475.8573, 2289.807
476.3394, 2290.585
476.8215, 2286.639
477.3036, 2277.858
477.7857, 2274.985
478.2679, 2286.681
478.7500, 2304.974
479.2321, 2308.959
479.7142, 2291.125
480.1963, 2280.014
480.6784, 2288.782
481.1606, 2301.391
481.6427, 2301.857
482.1248, 2290.500
482.6069, 2278.823
483.0890, 2275.748
483.5711, 2279.155
484.0533, 2276.499
484.5354, 2259.357
485.0175, 2250.260
485.4996, 2259.613
485.9817, 2272.167
486.4638, 2274.787
486.9460, 2266.750
487.4281, 2257.856
487.9102, 2255.503
488.3923, 2258.180
488.8744, 2262.267
489.3565, 2268.377
489.8387, 2271.739
490.3208, 2266.825
490.8029, 2259.318
491.2850, 2262.080
491.7671, 2280.706
492.2492, 2293.344
492.7314, 2285.955
493.2135, 2272.402
493.6956, 2268.693
494.1777, 2275.933
494.6598, 2286.343
495.1419, 2294.698
495.6241, 2300.667
496.1062, 2302.204
496.5883, 2296.679
497.0704, 2290.108
497.5525, 2282.139
498.0346, 2274.047
498.5168, 2265.694
498.9989, 2257.774
499.4810, 2253.294
499.9631, 2257.925
500.4452, 2267.866
500.9273, 2267.060
501.4095, 2252.655
501.8916, 2239.365
502.3737, 2232.380
502.8558, 2231.121
503.3379, 2236.720
503.8200, 2253.151
504.3022, 2259.478
504.7843, 2235.356
505.2664, 2204.149
505.7485, 2195.462
506.2306, 2209.293
506.7127, 2225.874
507.1949, 2232.362
507.6770, 2230.624
508.1591, 2228.619
508.6412, 2223.506
509.1233, 2222.514
509.6054, 2230.015
510.0876, 2238.486
510.5697, 2243.374
511.0518, 2243.956
511.5339, 2240.556
512.0161, 2231.138
512.4982, 2219.355
512.9803, 2215.947
513.4624, 2222.139
513.9445, 2229.662
514.4266, 2237.060
514.9088, 2243.180
515.3909, 2246.735
515.8730, 2247.686
516.3551, 2247.019
516.8372, 2242.546
517.3193, 2238.421
517.8015, 2238.248
518.2836, 2241.963
518.7657, 2249.382
519.2478, 2261.097
519.7299, 2273.213
520.2120, 2275.953
520.6942, 2262.645
521.1763, 2252.550
521.6584, 2241.816
522.1405, 2237.403
522.6226, 2248.627
523.1047, 2269.258
523.5869, 2283.355
524.0690, 2281.135
524.5511, 2271.576
525.0332, 2269.667
525.5153, 2275.349
525.9974, 2279.126
526.4796, 2278.289
526.9617, 2275.621
527.4438, 2272.902
527.9259, 2270.321
528.4080, 2270.943
528.8901, 2283.301
529.3723, 2290.968
529.8544, 2277.967
530.3365, 2254.440
530.8186, 2240.231
531.3007, 2242.038
531.7828, 2253.061
532.2650, 2265.399
532.7471, 2280.662
533.2292, 2287.321
533.7113, 2276.900
534.1934, 2267.350
534.6755, 2268.077
535.1577, 2271.384
535.6398, 2265.181
536.1219, 2245.112
536.6040, 2223.689
537.0861, 2210.641
537.5682, 2205.544
538.0504, 2210.465
538.5325, 2227.501
539.0146, 2239.957
539.4967, 2234.012
539.9788, 2213.713
540.4609, 2199.780
540.9431, 2197.443
541.4252, 2193.374
541.9073, 2180.336
542.3894, 2167.308
542.8715, 2163.349
543.3536, 2168.784
543.8358, 2178.389
544.3179, 2189.033
544.8000, 2199.484
545.2821, 2203.597
545.7642, 2198.786
546.2463, 2194.650
546.7285, 2190.374
547.2106, 2190.292
547.6927, 2202.558
548.1748, 2225.395
548.6569, 2239.240
549.1390, 2231.693
549.6211, 2213.532
550.1032, 2190.801
550.5853, 2166.546
551.0674, 2154.229
551.5496, 2160.335
552.0317, 2174.389
552.5138, 2179.016
552.9959, 2169.501
553.4780, 2166.601
553.9601, 2177.603
554.4423, 2186.438
554.9244, 2185.359
555.4065, 2178.262
555.8886, 2171.760
556.3707, 2168.273
556.8528, 2165.198
557.3350, 2156.738
557.8171, 2144.498
558.2992, 2143.459
558.7813, 2158.542
559.2634, 2173.527
559.7455, 2176.735
560.2277, 2171.718
560.7098, 2170.692
561.1919, 2176.688
561.6740, 2181.530
562.1561, 2184.593
562.6382, 2184.072
563.1204, 2175.368
563.6025, 2160.055
564.0846, 2146.462
564.5667, 2140.442
565.0488, 2141.065
565.5309, 2145.234
566.0131, 2155.241
566.4952, 2162.985
566.9773, 2165.779
567.4594, 2166.879
567.9415, 2168.033
568.4236, 2169.239
568.9058, 2169.977
569.3879, 2170.757
569.8700, 2170.316
570.3521, 2163.563
570.8342, 2154.040
571.3163, 2156.410
571.7985, 2176.204
572.2806, 2198.472
572.7627, 2204.759
573.2448, 2193.177
573.7269, 2183.500
574.2090, 2172.747
574.6912, 2167.215
575.1733, 2172.976
575.6554, 2182.428
576.1375, 2187.161
576.6196, 2185.379
577.1017, 2181.229
577.5839, 2179.119
578.0660, 2177.649
578.5481, 2170.605
579.0302, 2156.962
579.5123, 2146.020
579.9944, 2141.550
580.4766, 2142.697
580.9587, 2149.364
581.4408, 2163.434
581.9229, 2174.214
582.4050, 2180.976
582.8871, 2183.271
583.3693, 2174.508
583.8514, 2161.803
584.3335, 2161.867
584.8156, 2182.503
585.2977, 2209.904
585.7798, 2222.315
586.2620, 2218.667
586.7441, 2210.700
587.2262, 2192.634
587.7083, 2180.692
588.1904, 2189.184
588.6725, 2208.472
589.1547, 2223.190
589.6368, 2230.139
590.1189, 2235.704
590.6010, 2245.682
591.0831, 2254.544
591.5652, 2252.769
592.0474, 2241.475
592.5295, 2231.363
593.0116, 2229.571
593.4937, 2233.901
593.9758, 2237.502
594.4579, 2239.217
594.9401, 2242.920
595.4222, 2249.744
595.9043, 2257.924
596.3864, 2266.703
596.8685, 2276.147
597.3506, 2286.672
597.8328, 2298.941
598.3149, 2311.251
598.7970, 2323.170
599.2791, 2333.873
599.7612, 2340.457
600.2433, 2342.374
600.7255, 2343.889
601.2076, 2348.963
601.6897, 2356.845
602.1718, 2361.364
602.6539, 2358.310
603.1360, 2357.609
603.6182, 2356.385
604.1003, 2360.554
604.5824, 2380.692
605.0645, 2411.745
605.5466, 2433.094
606.0287, 2427.998
606.5109, 2413.656
606.9930, 2418.664
607.4751, 2440.112
607.9572, 2453.921
608.4393, 2453.042
608.9214, 2447.490
609.4036, 2446.446
609.8857, 2449.958
610.3678, 2446.978
610.8499, 2462.235
611.3320, 2472.285
611.8141, 2477.407
612.2963, 2462.843
612.7784, 2473.699
613.2605, 2474.368
613.7426, 2474.619
614.2247, 2489.054
614.7068, 2477.352
615.1890, 2491.563
615.6711, 2495.429
616.1532, 2504.030
616.6353, 2502.380
617.1174, 2503.895
617.5995, 2515.665
618.0817, 2521.758
618.5638, 2518.927
619.0459, 2527.829
619.5280, 2515.769
620.0101, 2522.102
620.4922, 2536.373
620.9744, 2534.058
621.4565, 2543.147
621.9386, 2547.893
622.4207, 2532.900
622.9028, 2552.234
623.3849, 2556.723
623.8671, 2545.969
624.3492, 2564.127
624.8313, 2555.475
625.3134, 2556.392
625.7955, 2564.511
626.2776, 2565.122
626.7598, 2577.571
627.2419, 2578.616
627.7240, 2578.642
628.2061, 2583.114
628.6882, 2574.987
629.1703, 2590.234
629.6525, 2589.516
630.1346, 2596.733
630.6167, 2605.749
631.0988, 2600.991
631.5809, 2602.722
632.0630, 2610.951
632.5452, 2617.028
633.0273, 2617.756
633.5094, 2615.888
633.9915, 2614.349
634.4736, 2613.112
634.9557, 2611.452
635.4379, 2606.225
635.9200, 2603.710
636.4021, 2609.847
636.8842, 2620.122
637.3663, 2627.393
637.8484, 2630.043
638.3306, 2631.490
638.8127, 2635.681
639.2948, 2641.525
639.7769, 2641.458
640.2590, 2633.472
640.7411, 2626.584
641.2233, 2622.495
641.7054, 2621.478
642.1875, 2624.590
642.6696, 2631.476
643.1517, 2637.748
643.6339, 2646.792
644.1160, 2650.423
644.5981, 2638.874
645.0802, 2621.084
645.5623, 2610.891
646.0444, 2610.964
646.5266, 2614.511
647.0087, 2615.671
647.4908, 2614.787
647.9729, 2612.969
648.4550, 2609.503
648.9371, 2608.312
649.4193, 2612.964
649.9014, 2617.429
650.3835, 2614.698
650.8656, 2605.945
651.3477, 2599.399
651.8298, 2598.817
652.3120, 2597.998
652.7941, 2592.668
653.2762, 2586.014
653.7583, 2583.117
654.2404, 2584.180
654.7225, 2584.304
655.2047, 2578.624
655.6868, 2570.220
656.1689, 2570.365
656.6510, 2580.657
657.1331, 2589.242
657.6152, 2591.255
658.0974, 2594.304
658.5795, 2606.781
659.0616, 2626.609
659.5437, 2644.530
660.0258, 2662.490
660.5079, 2675.060
660.9901, 2677.125
661.4722, 2674.966
661.9543, 2673.589
662.4364, 2674.513
662.9185, 2678.547
663.4006, 2685.927
663.8828, 2697.725
664.3649, 2720.034
664.8470, 2753.524
665.3291, 2773.698
665.8112, 2771.954
666.2933, 2768.211
666.7755, 2779.004
667.2576, 2800.047
667.7397, 2811.937
668.2218, 2802.215
668.7039, 2803.540
669.1860, 2827.944
669.6682, 2860.920
670.1503, 2895.336
670.6324, 2928.237
671.1145, 2955.539
671.5966, 2974.981
672.0787, 2990.994
672.5609, 3007.163
673.0430, 3024.660
673.5251, 3052.906
674.0072, 3094.341
674.4893, 3138.015
674.9714, 3176.964
675.4536, 3214.235
675.9357, 3258.168
676.4178, 3318.080
676.8999, 3364.458
677.3820, 3389.242
677.8641, 3407.827
678.3463, 3422.700
678.8284, 3438.529
679.3105, 3462.641
679.7926, 3497.306
680.2747, 3534.326
680.7568, 3567.803
681.2390, 3597.183
681.7211, 3621.714
682.2032, 3641.120
682.6853, 3652.115
683.1674, 3652.237
683.6495, 3646.513
684.1317, 3642.417
684.6138, 3640.071
685.0959, 3638.784
685.5780, 3642.058
686.0601, 3642.126
686.5422, 3636.538
687.0244, 3627.172
687.5065, 3618.104
687.9886, 3608.865
688.4707, 3590.687
688.9528, 3552.487
689.4349, 3507.469
689.9171, 3467.321
690.3992, 3432.912
690.8813, 3409.220
691.3634, 3397.230
691.8455, 3384.382
692.3276, 3357.035
692.8098, 3317.542
693.2919, 3287.628
693.7740, 3271.808
694.2561, 3255.594
694.7382, 3238.073
695.2203, 3217.633
695.7025, 3193.764
696.1846, 3166.070
696.6667, 3132.946
697.1488, 3087.321
697.6309, 3046.226
698.1130, 3023.123
698.5952, 3007.361
699.0773, 2986.568
699.5594, 2959.469
700.0415, 2928.703
700.5236, 2895.006
701.0057, 2862.618
701.4879, 2843.821
701.9700, 2839.802
702.4521, 2821.643
702.9342, 2780.410
703.4163, 2741.324
703.8984, 2719.582
704.3806, 2710.124
704.8627, 2701.057
705.3448, 2693.773
705.8269, 2682.918
706.3090, 2663.182
706.7911, 2644.180
707.2733, 2633.893
707.7554, 2627.544
708.2375, 2614.487
708.7196, 2592.081
709.2017, 2573.634
709.6838, 2575.247
710.1660, 2589.525
710.6481, 2600.165
711.1302, 2606.639
711.6123, 2602.684
712.0944, 2584.230
712.5765, 2562.259
713.0587, 2550.331
713.5408, 2548.876
714.0229, 2548.247
714.5050, 2545.746
714.9871, 2547.951
715.4692, 2561.072
715.9514, 2575.124
716.4335, 2582.194
716.9156, 2582.535
717.3977, 2580.821
717.8798, 2579.852
718.3619, 2576.087
718.8441, 2564.190
719.3262, 2548.556
719.8083, 2536.818
720.2904, 2529.714
720.7725, 2524.265
721.2546, 2519.084
721.7368, 2511.857
722.2189, 2496.240
722.7010, 2471.089
723.1831, 2444.345
723.6652, 2412.187
724.1473, 2387.307
724.6295, 2382.480
725.1116, 2387.725
725.5937, 2381.801
726.0758, 2360.872
726.5579, 2342.088
727.0400, 2334.171
727.5222, 2323.475
728.0043, 2295.915
728.4864, 2262.175
728.9685, 2240.994
729.4506, 2236.722
729.9327, 2236.323
730.4149, 2228.041
730.8970, 2215.322
731.3791, 2206.865
731.8612, 2201.980
732.3433, 2192.554
732.8254, 2175.097
733.3076, 2160.205
733.7897, 2160.589
734.2718, 2174.349
734.7539, 2175.650
735.2360, 2151.791
735.7181, 2136.758
736.2003, 2144.019
736.6824, 2151.906
737.1645, 2144.179
737.6466, 2126.325
738.1287, 2115.004
738.6108, 2116.754
739.0930, 2120.362
739.5751, 2121.641
740.0572, 2119.992
740.5393, 2110.810
741.0214, 2097.807
741.5035, 2094.514
741.9857, 2107.401
742.4678, 2122.827
742.9499, 2118.671
743.4320, 2096.799
743.9141, 2083.908
744.3962, 2081.450
744.8784, 2081.791
745.3605, 2082.907
745.8426, 2084.019
746.3247, 2083.807
746.8068, 2081.983
747.2889, 2081.643
747.7711, 2084.922
748.2532, 2086.836
748.7353, 2085.653
749.2174, 2083.038
749.6995, 2079.246
750.1816, 2075.276
750.6638, 2074.200
751.1459, 2078.555
751.6280, 2084.251
752.1101, 2088.743
752.5922, 2091.468
753.0743, 2090.418
753.5565, 2085.982
754.0386, 2081.278
754.5207, 2077.933
755.0028, 2076.868
755.4849, 2082.822
755.9670, 2098.046
756.4492, 2095.870
756.9313, 2065.679
757.4134, 2044.069
757.8955, 2051.781
758.3776, 2073.012
758.8597, 2083.903
759.3419, 2083.622
759.8240, 2083.860
760.3061, 2089.252
760.7882, 2090.861
761.2703, 2081.704
761.7524, 2069.462
762.2346, 2062.088
762.7167, 2060.183
763.1988, 2059.854
763.6809, 2059.343
764.1630, 2058.652
764.6451, 2058.057
765.1273, 2057.230
765.6094, 2054.766
766.0915, 2050.761
766.5736, 2048.098
767.0557, 2048.838
767.5378, 2050.726
768.0200, 2048.146
768.5021, 2039.792
768.9842, 2035.344
769.4663, 2037.220
769.9484, 2038.100
770.4305, 2033.705
770.9127, 2027.348
771.3948, 2023.444
771.8769, 2021.972
772.3590, 2022.698
772.8411, 2030.066
773.3232, 2034.286
773.8054, 2030.361
774.2875, 2022.203
774.7696, 2013.275
775.2517, 2004.346
775.7338, 1994.705
776.2159, 1981.583
776.6981, 1972.668
777.1802, 1982.307
777.6623, 2001.351
778.1444, 2006.707
778.6265, 1997.307
779.1086, 1989.015
779.5908, 1990.806
780.0729, 1998.100
780.5550, 2003.372
781.0371, 2006.863
781.5192, 2005.245
782.0013, 1996.893
782.4835, 1987.361
782.9656, 1975.731
783.4477, 1966.824
783.9298, 1969.472
784.4119, 1984.062
784.8940, 1991.599
785.3762, 1986.965
785.8583, 1980.760
786.3404, 1976.503
786.8225, 1971.309
787.3046, 1961.677
787.7867, 1948.656
788.2689, 1934.939
788.7510, 1918.897
789.2331, 1911.380
789.7152, 1930.557
790.1973, 1959.490
790.6794, 1971.595
791.1616, 1967.054
791.6437, 1955.843
792.1258, 1942.182
792.6079, 1930.634
793.0900, 1930.131
793.5721, 1938.421
794.0543, 1928.828
794.5364, 1896.308
795.0185, 1879.467
795.5006, 1895.610
795.9827, 1917.474
796.4648, 1917.531
796.9470, 1898.181
797.4291, 1885.325
797.9112, 1883.675
798.3933, 1881.957
798.8754, 1875.388
799.3575, 1872.899
799.8397, 1883.670
800.3218, 1901.048
800.8039, 1913.141
801.2860, 1917.365
801.7681, 1915.147
802.2502, 1902.910
802.7324, 1888.296
803.2145, 1876.172
803.6966, 1867.551
804.1787, 1864.975
804.6608, 1868.176
805.1429, 1870.939
805.6251, 1866.910
806.1072, 1860.515
806.5893, 1861.187
807.0714, 1868.412
807.5535, 1880.618
808.0356, 1898.219
808.5178, 1909.343
808.9999, 1905.274
809.4820, 1891.271
809.9641, 1879.786
810.4462, 1869.359
810.9283, 1867.265
811.4105, 1879.604
811.8926, 1890.401
812.3747, 1895.532
812.8568, 1894.605
813.3389, 1882.440
813.8210, 1859.282
814.3032, 1850.150
814.7853, 1871.966
815.2674, 1891.490
815.7495, 1898.038
816.2316, 1896.897
816.7137, 1889.811
817.1959, 1879.769
817.6780, 1873.510
818.1601, 1874.879
818.6422, 1875.651
819.1243, 1864.625
819.6064, 1850.844
820.0886, 1848.698
820.5707, 1856.913
821.0528, 1870.202
821.5349, 1886.186
822.0170, 1896.403
822.4991, 1889.811
822.9813, 1870.708
823.4634, 1857.342
823.9455, 1849.849
824.4276, 1842.360
824.9097, 1832.142
825.3918, 1828.868
825.8740, 1843.572
826.3561, 1867.977
826.8382, 1872.571
827.3203, 1840.861
827.8024, 1827.636
828.2845, 1850.056
828.7667, 1870.021
829.2488, 1871.086
829.7309, 1864.053
830.2130, 1863.495
830.6951, 1870.153
831.1772, 1868.067
831.6594, 1841.194
832.1415, 1819.800
832.6236, 1820.413
833.1057, 1830.283
833.5878, 1840.472
834.0699, 1847.462
834.5521, 1845.128
835.0342, 1828.727
835.5163, 1813.876
835.9984, 1819.665
836.4805, 1833.895
836.9626, 1836.882
837.4448, 1829.573
837.9269, 1817.521
838.4090, 1803.320
838.8911, 1795.655
839.3732, 1806.187
839.8553, 1828.510
840.3375, 1837.670
840.8196, 1833.348
841.3017, 1833.776
841.7838, 1843.818
842.2659, 1850.090
842.7480, 1841.873
843.2302, 1825.798
843.7123, 1818.893
844.1944, 1824.497
844.6765, 1828.030
845.1586, 1827.085
845.6407, 1827.658
846.1229, 1835.621
846.6050, 1843.336
847.0871, 1841.258
847.5692, 1830.382
848.0513, 1824.292
848.5334, 1829.059
849.0156, 1833.063
849.4977, 1833.515
849.9798, 1831.727
850.4619, 1828.243
850.9440, 1823.464
851.4261, 1817.518
851.9083, 1810.263
852.3904, 1804.295
852.8725, 1798.166
853.3546, 1796.760
853.8367, 1811.547
854.3188, 1833.137
854.8010, 1840.641
855.2831, 1831.663
855.7652, 1821.113
856.2473, 1819.189
856.7294, 1824.002
857.2115, 1837.038
857.6937, 1854.452
858.1758, 1855.807
858.6579, 1839.866
859.1400, 1828.729
859.6221, 1833.501
860.1042, 1841.325
860.5864, 1831.745
861.0685, 1805.937
861.5506, 1797.901
862.0327, 1814.628
862.5148, 1820.603
862.9969, 1802.457
863.4791, 1782.889
863.9612, 1781.535
864.4433, 1792.374
864.9254, 1793.042
865.4075, 1772.645
865.8896, 1764.908
866.3718, 1779.680
866.8539, 1794.766
867.3360, 1803.945
867.8181, 1808.497
868.3002, 1807.503
868.7823, 1801.875
869.2645, 1801.776
869.7466, 1817.505
870.2287, 1829.191
870.7108, 1831.463
871.1929, 1824.555
871.6750, 1798.190
872.1572, 1764.996
872.6393, 1754.935
873.1214, 1778.854
873.6035, 1804.429
874.0856, 1807.232
874.5677, 1800.450
875.0499, 1796.648
875.5320, 1795.573
876.0141, 1797.584
876.4962, 1801.372
876.9783, 1799.538
877.4604, 1785.448
877.9426, 1769.884
878.4247, 1773.396
878.9068, 1790.326
879.3889, 1799.944
879.8710, 1801.009
880.3531, 1797.407
880.8353, 1790.416
881.3174, 1783.690
881.7995, 1781.799
882.2816, 1783.953
882.7637, 1785.015
883.2458, 1784.685
883.7280, 1786.079
884.2101, 1790.965
884.6922, 1793.235
885.1743, 1788.032
885.6564, 1778.631
886.1385, 1771.751
886.6207, 1766.972
887.1028, 1767.241
887.5849, 1780.503
888.0670, 1785.763
888.5491, 1766.845
889.0313, 1747.196
889.5134, 1750.640
889.9955, 1771.493
890.4776, 1783.544
890.9597, 1780.793
891.4418, 1776.876
891.9240, 1769.997
892.4061, 1766.331
892.8882, 1772.915
893.3703, 1782.643
893.8524, 1784.992
894.3345, 1779.130
894.8167, 1774.356
895.2988, 1776.176
895.7809, 1777.834
896.2630, 1776.195
896.7451, 1772.225
897.2272, 1764.529
897.7094, 1755.779
898.1915, 1752.387
898.6736, 1756.670
899.1557, 1762.846
899.6378, 1770.794
900.1199, 1774.497
900.6021, 1761.136
901.0842, 1739.362
901.5663, 1727.769
902.0484, 1728.712
902.5305, 1732.939
903.0126, 1734.649
903.4948, 1737.110
903.9769, 1746.966
904.4590, 1761.204
904.9411, 1770.569
905.4232, 1774.813
905.9053, 1774.805
906.3875, 1770.884
906.8696, 1766.438
907.3517, 1764.754
907.8338, 1765.003
908.3159, 1764.042
908.7980, 1761.843
909.2802, 1763.416
909.7623, 1770.263
910.2444, 1773.043
910.7265, 1766.605
911.2086, 1755.747
911.6907, 1747.057
912.1729, 1740.525
912.6550, 1734.089
913.1371, 1725.435
913.6192, 1725.204
914.1013, 1740.972
914.5834, 1754.435
915.0656, 1751.459
915.5477, 1739.224
916.0298, 1734.437
916.5119, 1739.518
916.9940, 1742.929
917.4761, 1741.379
917.9583, 1742.820
918.4404, 1755.340
918.9225, 1766.170
919.4046, 1761.334
919.8867, 1746.052
920.3688, 1740.578
920.8510, 1753.340
921.3331, 1760.448
921.8152, 1751.834
922.2973, 1744.565
922.7794, 1746.985
923.2615, 1754.706
923.7437, 1766.302
924.2258, 1779.215
924.7079, 1780.512
925.1900, 1756.678
925.6721, 1736.598
926.1542, 1733.862
926.6364, 1737.792
927.1185, 1742.364
927.6006, 1746.448
928.0827, 1748.491
928.5648, 1748.628
929.0469, 1751.893
929.5291, 1766.677
930.0112, 1779.137
930.4933, 1777.787
930.9754, 1768.954
931.4575, 1757.642
931.9396, 1746.457
932.4218, 1739.506
932.9039, 1738.184
933.3860, 1739.328
933.8681, 1742.051
934.3502, 1744.232
934.8323, 1741.932
935.3145, 1737.390
935.7966, 1736.334
936.2787, 1738.361
936.7608, 1736.294
937.2429, 1725.932
937.7250, 1716.785
938.2072, 1724.807
938.6893, 1740.912
939.1714, 1740.056
939.6535, 1727.790
940.1356, 1732.062
940.6177, 1756.686
941.0999, 1771.949
941.5820, 1755.453
942.0641, 1725.473
942.5462, 1715.560
943.0283, 1721.727
943.5104, 1723.461
943.9926, 1720.234
944.4747, 1715.668
944.9568, 1710.734
945.4389, 1711.091
945.9210, 1723.121
946.4031, 1741.147
946.8853, 1748.390
947.3674, 1744.918
947.8495, 1744.678
948.3316, 1749.160
948.8137, 1748.692
949.2958, 1738.396
949.7780, 1727.457
950.2601, 1726.034
950.7422, 1732.978
951.2243, 1743.260
951.7064, 1757.971
952.1885, 1769.438
952.6707, 1777.841
953.1528, 1778.534
953.6349, 1766.930
954.1170, 1751.374
954.5991, 1742.117
955.0812, 1739.267
955.5634, 1745.389
956.0455, 1765.746
956.5276, 1778.435
957.0097, 1778.357
957.4918, 1775.529
957.9739, 1774.897
958.4561, 1775.170
958.9382, 1774.195
959.4203, 1771.848
959.9024, 1769.837
960.3845, 1767.408
960.8666, 1767.055
961.3488, 1772.378
961.8309, 1775.261
962.3130, 1767.183
962.7951, 1755.172
963.2772, 1753.903
963.7593, 1766.081
964.2415, 1774.585
964.7236, 1780.734
965.2057, 1781.281
965.6878, 1769.262
966.1699, 1757.716
966.6520, 1755.630
967.1342, 1759.956
967.6163, 1764.657
968.0984, 1771.094
968.5805, 1771.787
969.0626, 1755.830
969.5447, 1748.232
970.0269, 1766.898
970.5090, 1785.601
970.9911, 1779.692
971.4732, 1758.547
971.9553, 1750.006
972.4374, 1763.227
972.9196, 1765.253
973.4017, 1738.311
973.8838, 1716.399
974.3659, 1713.614
974.8480, 1719.116
975.3301, 1725.380
975.8123, 1731.448
976.2944, 1736.726
976.7765, 1741.598
977.2586, 1744.075
977.7407, 1741.065
978.2228, 1738.772
978.7050, 1739.656
979.1871, 1742.753
979.6692, 1747.965
980.1513, 1754.429
980.6334, 1759.942
981.1155, 1764.473
981.5977, 1766.586
982.0798, 1765.177
982.5619, 1762.046
983.0440, 1757.649
983.5261, 1752.328
984.0082, 1744.781
984.4904, 1736.492
984.9725, 1733.476
985.4546, 1740.622
985.9367, 1743.175
986.4188, 1729.400
986.9009, 1716.781
987.3831, 1717.760
987.8652, 1724.056
988.3473, 1725.620
988.8294, 1722.587
989.3115, 1721.185
989.7936, 1724.417
990.2758, 1726.046
990.7579, 1718.770
991.2400, 1714.259
991.7221, 1724.925
992.2042, 1739.440
992.6863, 1741.961
993.1685, 1734.024
993.6506, 1731.102
994.1327, 1741.608
994.6148, 1747.861
995.0969, 1734.223
995.5790, 1722.033
996.0612, 1729.309
996.5433, 1744.413
997.0254, 1755.450
997.5075, 1759.305
997.9896, 1751.054
998.4717, 1721.948
998.9539, 1702.162
999.4360, 1715.128
999.9181, 1732.024
1000.400, 1733.919
1000.882, 1726.986
1001.364, 1717.419
1001.847, 1707.856
1002.329, 1703.221
1002.811, 1706.227
1003.293, 1711.088
1003.775, 1714.883
1004.257, 1719.834
1004.739, 1730.037
1005.221, 1740.580
1005.703, 1745.859
1006.186, 1745.394
1006.668, 1740.538
1007.150, 1730.664
1007.632, 1720.084
1008.114, 1707.040
1008.596, 1698.061
1009.078, 1700.090
1009.560, 1706.825
1010.043, 1711.695
1010.525, 1713.806
1011.007, 1713.742
1011.489, 1711.002
1011.971, 1708.650
1012.453, 1707.562
1012.935, 1707.743
1013.417, 1711.793
1013.899, 1715.220
1014.382, 1710.591
1014.864, 1700.734
1015.346, 1696.734
1015.828, 1702.874
1016.310, 1709.546
1016.792, 1714.325
1017.274, 1717.197
1017.756, 1717.199
1018.239, 1716.050
1018.721, 1713.821
1019.203, 1712.139
1019.685, 1716.473
1020.167, 1730.681
1020.649, 1737.518
1021.131, 1721.923
1021.613, 1709.478
1022.095, 1716.730
1022.578, 1728.447
1023.060, 1730.120
1023.542, 1724.366
1024.024, 1720.786
1024.506, 1721.588
1024.988, 1721.548
1025.470, 1719.589
1025.952, 1716.214
1026.435, 1706.925
1026.917, 1700.611
1027.399, 1710.715
1027.881, 1727.403
1028.363, 1726.393
1028.845, 1701.241
1029.327, 1687.799
1029.809, 1703.312
1030.292, 1716.361
1030.774, 1717.325
1031.256, 1714.393
1031.738, 1710.292
1032.220, 1707.454
1032.702, 1710.320
1033.184, 1719.632
1033.666, 1728.324
1034.148, 1733.695
1034.630, 1741.277
1035.113, 1753.279
1035.595, 1766.296
1036.077, 1777.074
1036.559, 1788.395
1037.041, 1805.606
1037.523, 1829.085
1038.005, 1848.335
1038.487, 1865.958
1038.970, 1874.738
1039.452, 1860.093
1039.934, 1855.160
1040.416, 1879.526
1040.898, 1916.620
1041.380, 1947.782
1041.862, 1973.425
1042.344, 1998.833
1042.826, 2024.975
1043.309, 2048.711
1043.791, 2072.859
1044.273, 2088.522
1044.755, 2087.465
1045.237, 2083.978
1045.719, 2094.249
1046.201, 2114.108
1046.683, 2125.546
1047.166, 2132.051
1047.648, 2115.396
1048.130, 2064.453
1048.612, 2023.682
1049.094, 2009.149
1049.576, 2002.404
1050.058, 1990.436
1050.540, 1971.596
1051.022, 1938.475
1051.505, 1888.103
1051.987, 1855.387
1052.469, 1843.727
1052.951, 1828.739
1053.433, 1803.534
1053.915, 1781.238
1054.397, 1771.268
1054.879, 1766.801
1055.361, 1754.243
1055.844, 1734.776
1056.326, 1722.223
1056.808, 1716.492
1057.290, 1716.106
1057.772, 1720.932
1058.254, 1719.039
1058.736, 1703.727
1059.218, 1683.999
1059.701, 1671.019
1060.183, 1663.879
1060.665, 1659.053
1061.147, 1657.121
1061.629, 1664.154
1062.111, 1679.064
1062.593, 1688.157
1063.075, 1686.236
1063.557, 1679.594
1064.040, 1673.025
1064.522, 1668.115
1065.004, 1670.188
1065.486, 1675.397
1065.968, 1673.090
1066.450, 1664.940
1066.932, 1659.329
1067.414, 1658.362
1067.896, 1658.433
1068.379, 1656.607
1068.861, 1656.672
1069.343, 1664.554
1069.825, 1675.720
1070.307, 1687.272
1070.789, 1695.751
1071.271, 1691.563
1071.753, 1677.400
1072.236, 1670.315
1072.718, 1679.009
1073.200, 1688.215
1073.682, 1685.163
1074.164, 1679.806
1074.646, 1680.014
1075.128, 1683.128
1075.610, 1685.818
1076.093, 1688.166
1076.575, 1692.814
1077.057, 1700.692
1077.539, 1703.495
1078.021, 1692.733
1078.503, 1682.555
1078.985, 1682.024
1079.467, 1681.917
1079.949, 1671.018
1080.432, 1657.496
1080.914, 1656.771
1081.396, 1669.839
1081.878, 1680.346
1082.360, 1688.583
1082.842, 1689.182
1083.324, 1671.358
1083.806, 1657.664
1084.288, 1661.232
1084.771, 1671.831
1085.253, 1681.985
1085.735, 1689.851
1086.217, 1685.449
1086.699, 1658.881
1087.181, 1647.468
1087.663, 1663.187
1088.145, 1668.824
1088.628, 1647.780
1089.110, 1627.424
1089.592, 1628.827
1090.074, 1643.347
1090.556, 1653.227
1091.038, 1658.528
1091.520, 1654.010
1092.002, 1635.354
1092.484, 1640.028
1092.967, 1679.531
1093.449, 1703.151
1093.931, 1682.417
1094.413, 1650.105
1094.895, 1649.666
1095.377, 1669.853
1095.859, 1666.533
1096.341, 1643.750
1096.823, 1633.390
1097.306, 1637.125
1097.788, 1644.047
1098.270, 1650.250
1098.752, 1653.824
1099.234, 1653.161
1099.716, 1649.345
1100.198, 1640.966
1100.680, 1632.299
1101.163, 1634.592
1101.645, 1643.431
1102.127, 1646.902
1102.609, 1643.793
1103.091, 1639.088
1103.573, 1634.878
1104.055, 1634.185
1104.537, 1642.276
1105.020, 1652.059
1105.502, 1656.735
1105.984, 1659.516
1106.466, 1666.192
1106.948, 1673.825
1107.430, 1675.037
1107.912, 1668.419
1108.394, 1659.106
1108.876, 1640.275
1109.359, 1632.633
1109.841, 1661.107
1110.323, 1683.808
1110.805, 1666.252
1111.287, 1634.472
1111.769, 1619.218
1112.251, 1620.332
1112.733, 1626.139
1113.215, 1640.276
1113.698, 1647.521
1114.180, 1640.996
1114.662, 1637.937
1115.144, 1644.712
1115.626, 1652.321
1116.108, 1654.255
1116.590, 1653.658
1117.072, 1657.054
1117.555, 1664.490
1118.037, 1665.589
1118.519, 1659.201
1119.001, 1652.952
1119.483, 1647.837
1119.965, 1641.872
1120.447, 1633.989
1120.929, 1626.250
1121.411, 1620.262
1121.894, 1617.298
1122.376, 1624.292
1122.858, 1637.710
1123.340, 1637.964
1123.822, 1626.343
1124.304, 1612.529
1124.786, 1599.781
1125.268, 1591.548
1125.750, 1589.688
1126.233, 1594.771
1126.715, 1613.133
1127.197, 1633.964
1127.679, 1641.520
1128.161, 1641.610
1128.643, 1643.832
1129.125, 1647.226
1129.607, 1647.131
1130.090, 1642.008
1130.572, 1630.189
1131.054, 1603.644
1131.536, 1582.974
1132.018, 1580.641
1132.500, 1585.745
1132.982, 1597.962
1133.464, 1608.119
1133.947, 1600.754
1134.429, 1581.685
1134.911, 1577.887
1135.393, 1600.128
1135.875, 1611.632
1136.357, 1596.469
1136.839, 1590.169
1137.321, 1606.708
1137.803, 1621.647
1138.286, 1620.316
1138.768, 1610.256
1139.250, 1601.296
1139.732, 1593.908
1140.214, 1593.336
1140.696, 1600.864
1141.178, 1605.120
1141.660, 1605.148
1142.142, 1604.965
1142.625, 1606.003
1143.107, 1603.553
1143.589, 1592.913
1144.071, 1582.053
1144.553, 1589.190
1145.035, 1605.919
1145.517, 1601.866
1145.999, 1585.927
1146.482, 1591.271
1146.964, 1615.006
1147.446, 1625.790
1147.928, 1612.201
1148.410, 1589.481
1148.892, 1561.290
1149.374, 1541.554
1149.856, 1544.893
1150.339, 1560.813
1150.821, 1589.750
1151.303, 1617.542
1151.785, 1621.112
1152.267, 1604.172
1152.749, 1594.704
1153.231, 1603.378
1153.713, 1603.947
1154.195, 1578.192
1154.677, 1560.521
1155.160, 1567.802
1155.642, 1579.065
1156.124, 1581.795
1156.606, 1580.344
1157.088, 1581.498
1157.570, 1584.647
1158.052, 1581.442
1158.534, 1568.706
1159.017, 1564.253
1159.499, 1569.447
1159.981, 1582.224
1160.463, 1603.631
1160.945, 1617.836
1161.427, 1612.284
1161.909, 1598.972
1162.391, 1598.546
1162.874, 1606.850
1163.356, 1612.311
1163.838, 1613.941
1164.320, 1605.415
1164.802, 1589.497
1165.284, 1578.138
1165.766, 1575.214
1166.248, 1578.122
1166.730, 1588.620
1167.213, 1595.297
1167.695, 1581.900
1168.177, 1567.608
1168.659, 1572.478
1169.141, 1584.632
1169.623, 1588.629
1170.105, 1585.645
1170.587, 1583.487
1171.069, 1583.192
1171.552, 1586.651
1172.034, 1602.465
1172.516, 1609.097
1172.998, 1594.989
1173.480, 1583.408
1173.962, 1586.851
1174.444, 1593.244
1174.926, 1589.135
1175.409, 1578.474
1175.891, 1576.310
1176.373, 1583.847
1176.855, 1580.481
1177.337, 1565.796
1177.819, 1559.152
1178.301, 1564.022
1178.783, 1571.843
1179.266, 1578.448
1179.748, 1584.053
1180.230, 1589.019
1180.712, 1592.728
1181.194, 1593.891
1181.676, 1593.243
1182.158, 1591.303
1182.640, 1588.863
1183.122, 1586.151
1183.604, 1584.276
1184.087, 1588.647
1184.569, 1603.214
1185.051, 1608.483
1185.533, 1584.648
1186.015, 1564.546
1186.497, 1563.460
1186.979, 1569.286
1187.461, 1577.264
1187.944, 1584.457
1188.426, 1586.093
1188.908, 1583.547
1189.390, 1585.579
1189.872, 1594.736
1190.354, 1599.314
1190.836, 1598.588
1191.318, 1596.088
1191.801, 1592.163
1192.283, 1589.781
1192.765, 1590.901
1193.247, 1591.948
1193.729, 1587.150
1194.211, 1580.970
1194.693, 1585.477
1195.175, 1597.023
1195.657, 1607.451
1196.140, 1615.718
1196.622, 1622.150
1197.104, 1625.947
1197.586, 1622.984
1198.068, 1610.848
1198.550, 1598.088
1199.032, 1587.640
1199.514, 1581.240
1199.996, 1582.414
1200.479, 1585.353
1200.961, 1586.896
1201.443, 1586.437
1201.925, 1582.618
1202.407, 1576.052
1202.889, 1571.248
1203.371, 1567.669
1203.853, 1567.614
1204.336, 1570.950
1204.818, 1579.915
1205.300, 1597.879
1205.782, 1606.960
1206.264, 1596.263
1206.746, 1580.764
1207.228, 1578.158
1207.710, 1584.017
1208.193, 1588.319
1208.675, 1591.560
1209.157, 1597.137
1209.639, 1602.474
1210.121, 1598.211
1210.603, 1585.229
1211.085, 1572.289
1211.567, 1562.650
1212.049, 1562.365
1212.531, 1585.967
1213.014, 1605.173
1213.496, 1601.098
1213.978, 1591.767
1214.460, 1587.890
1214.942, 1587.315
1215.424, 1587.535
1215.906, 1587.967
1216.388, 1587.049
1216.871, 1584.516
1217.353, 1581.908
1217.835, 1578.385
1218.317, 1579.018
1218.799, 1585.319
1219.281, 1589.733
1219.763, 1588.964
1220.245, 1587.802
1220.728, 1590.713
1221.210, 1595.466
1221.692, 1599.808
1222.174, 1602.084
1222.656, 1599.370
1223.138, 1591.651
1223.620, 1571.655
1224.102, 1548.204
1224.584, 1549.715
1225.067, 1580.788
1225.549, 1604.001
1226.031, 1600.203
1226.513, 1592.363
1226.995, 1584.036
1227.477, 1578.552
1227.959, 1579.159
1228.441, 1581.372
1228.923, 1583.245
1229.406, 1583.077
1229.888, 1576.353
1230.370, 1564.497
1230.852, 1566.235
1231.334, 1582.567
1231.816, 1584.218
1232.298, 1570.383
1232.780, 1565.203
1233.263, 1574.178
1233.745, 1585.740
1234.227, 1593.610
1234.709, 1594.633
1235.191, 1578.598
##END=



