##NAMES=Antlerite
##RRUFFID=R110045
##IDEAL CHEMISTRY=Cu^2+^_3_(S^6+^O_4_)(OH)_4_
##LOCALITY=Childs Aldwinkle mine, Bunker Hill District, Copper Creek, Pinal County, Arizona, USA
##OWNER=RRUFF
##SOURCE=Bob Downs, collected March 2011
##DESCRIPTION=Green granular aggregate
##STATUS=The identification of this mineral has been confirmed by single-crystal X-ray diffraction.
##URL=rruff.info/R110045
175.3447, 696.1141
175.8268, 693.8511
176.3090, 688.4945
176.7911, 680.0416
177.2732, 673.7880
177.7553, 673.6608
178.2374, 676.2920
178.7195, 677.1321
179.2017, 672.1833
179.6838, 665.2906
180.1659, 662.7004
180.6480, 664.5880
181.1301, 668.0043
181.6122, 671.2193
182.0944, 673.8998
182.5765, 674.7931
183.0586, 671.6575
183.5407, 666.6678
184.0228, 663.6099
184.5049, 662.2809
184.9871, 664.3612
185.4692, 674.8557
185.9513, 692.0443
186.4334, 706.0705
186.9155, 712.2557
187.3976, 711.7720
187.8798, 706.2321
188.3619, 693.9531
188.8440, 683.3111
189.3261, 691.0375
189.8082, 715.4917
190.2903, 734.1534
190.7725, 728.8663
191.2546, 705.1720
191.7367, 697.5969
192.2188, 710.5977
192.7009, 732.0215
193.1830, 742.1206
193.6652, 740.9029
194.1473, 736.7294
194.6294, 730.4259
195.1115, 722.8213
195.5936, 727.4237
196.0757, 748.3256
196.5579, 775.8334
197.0400, 790.7123
197.5221, 792.0542
198.0042, 791.0458
198.4863, 793.6511
198.9684, 799.8959
199.4506, 806.1098
199.9327, 811.6666
200.4148, 817.4493
200.8969, 825.5602
201.3790, 836.3838
201.8611, 847.8802
202.3433, 859.5826
202.8254, 871.7340
203.3075, 880.7334
203.7896, 884.5414
204.2717, 886.4811
204.7538, 896.5222
205.2360, 917.0677
205.7181, 936.7646
206.2002, 947.5121
206.6823, 947.4040
207.1644, 950.9673
207.6465, 960.3339
208.1287, 973.5004
208.6108, 984.5228
209.0929, 992.4830
209.5750, 1000.840
210.0571, 1012.833
210.5392, 1030.424
211.0214, 1042.670
211.5035, 1048.032
211.9856, 1047.660
212.4677, 1045.526
212.9498, 1041.746
213.4319, 1036.022
213.9141, 1027.729
214.3962, 1016.051
214.8783, 1004.813
215.3604, 994.6991
215.8425, 985.2358
216.3246, 974.1788
216.8067, 959.1472
217.2889, 946.8524
217.7710, 943.2614
218.2531, 954.1824
218.7352, 955.5809
219.2173, 940.7651
219.6994, 914.7035
220.1816, 902.3235
220.6637, 908.6487
221.1458, 919.4409
221.6279, 925.0955
222.1100, 921.6989
222.5921, 923.8158
223.0743, 934.0845
223.5564, 950.7878
224.0385, 967.0389
224.5206, 983.8595
225.0027, 998.1511
225.4848, 1006.150
225.9670, 1000.743
226.4491, 1006.660
226.9312, 1029.640
227.4133, 1065.691
227.8954, 1098.213
228.3775, 1130.703
228.8597, 1153.793
229.3418, 1160.840
229.8239, 1147.883
230.3060, 1127.927
230.7881, 1100.341
231.2702, 1066.208
231.7524, 1031.081
232.2345, 992.6532
232.7166, 957.0261
233.1987, 928.2497
233.6808, 907.7161
234.1629, 890.8942
234.6451, 876.9875
235.1272, 866.4612
235.6093, 861.8664
236.0914, 867.5794
236.5735, 873.2188
237.0556, 872.2915
237.5378, 859.6365
238.0199, 852.0479
238.5020, 853.1075
238.9841, 859.9723
239.4662, 860.6263
239.9483, 851.1047
240.4305, 840.8556
240.9126, 834.3050
241.3947, 830.6118
241.8768, 833.1170
242.3589, 846.3843
242.8410, 865.6921
243.3232, 873.5832
243.8053, 863.3073
244.2874, 850.7985
244.7695, 843.9393
245.2516, 844.1068
245.7337, 847.0629
246.2159, 855.3738
246.6980, 866.0352
247.1801, 868.0225
247.6622, 853.4681
248.1443, 842.1133
248.6264, 844.8947
249.1086, 871.0885
249.5907, 888.8085
250.0728, 894.3690
250.5549, 892.0759
251.0370, 894.2629
251.5191, 906.5659
252.0013, 914.4474
252.4834, 909.0240
252.9655, 879.3942
253.4476, 865.8727
253.9297, 874.3890
254.4118, 896.3628
254.8940, 913.3782
255.3761, 925.0791
255.8582, 932.4577
256.3403, 934.4054
256.8224, 927.3218
257.3046, 927.0469
257.7867, 936.1022
258.2688, 950.3048
258.7509, 960.9539
259.2330, 964.8834
259.7151, 971.4873
260.1973, 985.7173
260.6794, 1010.087
261.1615, 1029.858
261.6436, 1044.947
262.1257, 1055.344
262.6078, 1059.960
263.0900, 1056.314
263.5721, 1052.835
264.0542, 1053.083
264.5363, 1058.141
265.0184, 1059.585
265.5005, 1056.366
265.9827, 1050.870
266.4648, 1048.389
266.9469, 1053.318
267.4290, 1048.178
267.9111, 1023.741
268.3932, 978.3038
268.8754, 943.9932
269.3575, 924.0759
269.8396, 910.2253
270.3217, 891.2614
270.8038, 864.6693
271.2859, 843.0456
271.7681, 831.6525
272.2502, 830.0658
272.7323, 823.8104
273.2144, 810.9782
273.6965, 797.5585
274.1786, 790.6989
274.6608, 791.6104
275.1429, 792.1554
275.6250, 789.9854
276.1071, 785.6519
276.5892, 783.1089
277.0714, 782.3949
277.5535, 783.4910
278.0356, 786.8144
278.5177, 792.5603
278.9998, 798.3979
279.4819, 803.6271
279.9641, 808.6384
280.4462, 815.7963
280.9283, 825.9730
281.4104, 834.6100
281.8925, 836.2244
282.3746, 830.6654
282.8568, 829.4572
283.3389, 835.4821
283.8210, 846.2731
284.3031, 855.8932
284.7852, 864.5685
285.2673, 870.6171
285.7495, 870.5101
286.2316, 865.0562
286.7137, 865.0068
287.1958, 872.3206
287.6779, 884.7886
288.1600, 900.2098
288.6422, 918.6964
289.1243, 933.6784
289.6064, 936.5643
290.0885, 930.6580
290.5706, 933.8531
291.0527, 949.0994
291.5349, 970.5684
292.0170, 989.6053
292.4991, 1006.280
292.9812, 1023.501
293.4633, 1044.159
293.9454, 1066.604
294.4276, 1085.953
294.9097, 1102.064
295.3918, 1113.753
295.8739, 1119.305
296.3560, 1118.939
296.8381, 1113.875
297.3203, 1103.694
297.8024, 1089.459
298.2845, 1072.125
298.7666, 1051.332
299.2487, 1030.680
299.7308, 1014.249
300.2130, 1000.721
300.6951, 986.6095
301.1772, 971.4150
301.6593, 954.4482
302.1414, 931.8677
302.6235, 904.0665
303.1057, 879.7374
303.5878, 869.1210
304.0699, 866.9847
304.5520, 863.8851
305.0341, 855.6613
305.5162, 846.1618
305.9984, 838.8531
306.4805, 833.7227
306.9626, 830.2049
307.4447, 829.8428
307.9268, 830.3193
308.4089, 828.5087
308.8911, 822.7546
309.3732, 815.8310
309.8553, 807.2872
310.3374, 798.7241
310.8195, 795.4731
311.3016, 806.2584
311.7838, 820.8149
312.2659, 829.8290
312.7480, 830.0267
313.2301, 827.9159
313.7122, 825.7181
314.1943, 824.0277
314.6765, 824.1564
315.1586, 828.0355
315.6407, 832.9597
316.1228, 836.9814
316.6049, 839.3431
317.0870, 842.9767
317.5692, 850.5516
318.0513, 859.8510
318.5334, 867.7313
319.0155, 873.1287
319.4976, 876.9507
319.9797, 877.5500
320.4619, 874.1693
320.9440, 876.3087
321.4261, 892.2347
321.9082, 912.6066
322.3903, 928.5225
322.8724, 931.7408
323.3546, 936.6943
323.8367, 947.6439
324.3188, 964.4758
324.8009, 981.7863
325.2830, 998.8180
325.7651, 1015.839
326.2473, 1032.980
326.7294, 1051.272
327.2115, 1068.558
327.6936, 1085.552
328.1757, 1101.653
328.6578, 1114.593
329.1400, 1124.369
329.6221, 1131.066
330.1042, 1134.872
330.5863, 1136.704
331.0684, 1133.948
331.5505, 1123.637
332.0327, 1109.286
332.5148, 1099.184
332.9969, 1098.380
333.4790, 1094.859
333.9611, 1083.024
334.4432, 1059.021
334.9254, 1042.136
335.4075, 1034.573
335.8896, 1032.388
336.3717, 1030.565
336.8538, 1029.273
337.3359, 1027.951
337.8180, 1026.576
338.3001, 1025.155
338.7823, 1022.522
339.2644, 1017.439
339.7465, 1013.673
340.2286, 1016.811
340.7107, 1028.907
341.1928, 1035.565
341.6750, 1033.449
342.1571, 1024.046
342.6392, 1011.077
343.1213, 993.1102
343.6034, 978.6086
344.0855, 976.5793
344.5677, 986.3452
345.0498, 990.1743
345.5319, 985.1863
346.0140, 974.5892
346.4961, 963.2303
346.9782, 951.2209
347.4604, 940.2536
347.9425, 933.2414
348.4246, 928.3792
348.9067, 918.1290
349.3888, 901.1003
349.8709, 883.6199
350.3531, 873.7588
350.8352, 870.0980
351.3173, 867.3913
351.7994, 863.8124
352.2815, 859.5886
352.7636, 854.1556
353.2458, 847.5128
353.7279, 842.7254
354.2100, 844.9027
354.6921, 850.3268
355.1742, 852.4144
355.6563, 847.2871
356.1385, 839.9799
356.6206, 833.7446
357.1027, 828.9194
357.5848, 827.2902
358.0669, 835.7627
358.5490, 844.9929
359.0312, 844.4629
359.5133, 826.7668
359.9954, 811.3900
360.4775, 811.3329
360.9596, 821.7874
361.4417, 832.4868
361.9239, 840.9241
362.4060, 847.2941
362.8881, 852.1298
363.3702, 855.9006
363.8523, 855.9188
364.3344, 847.9266
364.8166, 836.9042
365.2987, 828.4656
365.7808, 821.7526
366.2629, 820.1478
366.7450, 827.7845
367.2271, 844.5345
367.7093, 855.8701
368.1914, 855.8576
368.6735, 852.5814
369.1556, 851.2665
369.6377, 853.5229
370.1198, 856.0665
370.6020, 860.2467
371.0841, 864.8296
371.5662, 865.0111
372.0483, 856.6022
372.5304, 848.8730
373.0125, 845.9139
373.4947, 849.7207
373.9768, 852.6753
374.4589, 854.7062
374.9410, 855.9756
375.4231, 855.8143
375.9052, 852.1248
376.3874, 853.1896
376.8695, 863.7628
377.3516, 883.5908
377.8337, 895.0532
378.3158, 897.0721
378.7979, 894.3641
379.2801, 890.2969
379.7622, 884.6879
380.2443, 881.2238
380.7264, 880.8366
381.2085, 882.8251
381.6906, 883.9912
382.1728, 884.1912
382.6549, 888.9564
383.1370, 906.4990
383.6191, 932.7036
384.1012, 949.5436
384.5833, 953.7606
385.0655, 953.8013
385.5476, 961.8318
386.0297, 975.6115
386.5118, 986.5927
386.9939, 987.4290
387.4760, 984.4260
387.9582, 986.7460
388.4403, 994.6398
388.9224, 1004.892
389.4045, 1014.480
389.8866, 1024.774
390.3687, 1038.126
390.8509, 1059.306
391.3330, 1079.263
391.8151, 1087.726
392.2972, 1088.251
392.7793, 1095.393
393.2614, 1123.149
393.7436, 1155.813
394.2257, 1181.483
394.7078, 1192.885
395.1899, 1209.569
395.6720, 1239.650
396.1541, 1279.159
396.6363, 1321.723
397.1184, 1367.033
397.6005, 1413.984
398.0826, 1461.855
398.5647, 1510.379
399.0468, 1561.856
399.5290, 1610.484
400.0111, 1665.549
400.4932, 1734.662
400.9753, 1828.058
401.4574, 1921.792
401.9395, 2008.743
402.4217, 2093.100
402.9038, 2193.974
403.3859, 2318.906
403.8680, 2449.309
404.3501, 2576.183
404.8322, 2695.171
405.3144, 2821.200
405.7965, 2950.794
406.2786, 3089.722
406.7607, 3246.332
407.2428, 3421.176
407.7249, 3611.271
408.2071, 3812.301
408.6892, 4026.332
409.1713, 4262.027
409.6534, 4520.879
410.1355, 4799.194
410.6176, 5095.578
411.0998, 5410.019
411.5819, 5737.532
412.0640, 6082.015
412.5461, 6431.750
413.0282, 6785.128
413.5103, 7136.749
413.9925, 7463.010
414.4746, 7778.747
414.9567, 8054.737
415.4388, 8249.172
415.9209, 8362.554
416.4030, 8378.013
416.8852, 8274.749
417.3673, 8066.108
417.8494, 7775.378
418.3315, 7366.006
418.8136, 6913.702
419.2957, 6440.501
419.7779, 5956.492
420.2600, 5495.188
420.7421, 5064.663
421.2242, 4669.620
421.7063, 4324.786
422.1884, 4032.555
422.6706, 3777.356
423.1527, 3557.983
423.6348, 3370.865
424.1169, 3207.876
424.5990, 3070.340
425.0811, 2952.028
425.5633, 2853.490
426.0454, 2775.978
426.5275, 2706.306
427.0096, 2639.012
427.4917, 2583.106
427.9738, 2547.138
428.4560, 2540.444
428.9381, 2533.716
429.4202, 2521.060
429.9023, 2506.787
430.3844, 2506.605
430.8665, 2524.014
431.3487, 2545.648
431.8308, 2562.407
432.3129, 2573.283
432.7950, 2599.276
433.2771, 2642.922
433.7592, 2695.481
434.2414, 2748.523
434.7235, 2801.866
435.2056, 2852.478
435.6877, 2896.083
436.1698, 2938.493
436.6519, 2995.562
437.1341, 3066.605
437.6162, 3137.809
438.0983, 3202.125
438.5804, 3259.751
439.0625, 3310.463
439.5446, 3353.525
440.0268, 3392.147
440.5089, 3432.097
440.9910, 3469.770
441.4731, 3497.247
441.9552, 3518.772
442.4373, 3523.184
442.9195, 3500.859
443.4016, 3451.903
443.8837, 3391.022
444.3658, 3320.960
444.8479, 3242.851
445.3300, 3158.377
445.8122, 3065.007
446.2943, 2967.967
446.7764, 2863.828
447.2585, 2756.024
447.7406, 2653.378
448.2227, 2553.247
448.7049, 2461.520
449.1870, 2378.424
449.6691, 2304.241
450.1512, 2242.126
450.6333, 2198.583
451.1154, 2160.870
451.5976, 2115.067
452.0797, 2055.717
452.5618, 2008.690
453.0439, 1980.554
453.5260, 1966.160
454.0081, 1947.726
454.4903, 1924.323
454.9724, 1902.588
455.4545, 1884.855
455.9366, 1871.485
456.4187, 1864.520
456.9008, 1864.407
457.3830, 1868.841
457.8651, 1873.922
458.3472, 1881.084
458.8293, 1895.346
459.3114, 1922.328
459.7935, 1953.144
460.2757, 1976.360
460.7578, 1993.256
461.2399, 2010.934
461.7220, 2031.589
462.2041, 2056.326
462.6862, 2086.759
463.1684, 2123.945
463.6505, 2162.637
464.1326, 2203.329
464.6147, 2242.569
465.0968, 2276.535
465.5789, 2299.428
466.0611, 2320.697
466.5432, 2347.391
467.0253, 2377.871
467.5074, 2394.923
467.9895, 2393.305
468.4716, 2380.356
468.9538, 2358.948
469.4359, 2326.781
469.9180, 2292.028
470.4001, 2255.912
470.8822, 2215.941
471.3643, 2166.620
471.8465, 2103.643
472.3286, 2043.885
472.8107, 1992.498
473.2928, 1948.405
473.7749, 1899.258
474.2570, 1843.475
474.7392, 1792.290
475.2213, 1754.492
475.7034, 1729.023
476.1855, 1709.840
476.6676, 1697.464
477.1497, 1687.321
477.6319, 1672.388
478.1140, 1654.442
478.5961, 1639.467
479.0782, 1631.713
479.5603, 1627.281
480.0424, 1620.117
480.5246, 1611.045
481.0067, 1606.929
481.4888, 1619.340
481.9709, 1634.557
482.4530, 1639.493
482.9352, 1627.721
483.4173, 1615.352
483.8994, 1607.476
484.3815, 1603.220
484.8636, 1601.335
485.3457, 1613.827
485.8279, 1616.069
486.3100, 1596.344
486.7921, 1554.435
487.2742, 1521.530
487.7563, 1502.702
488.2384, 1487.415
488.7206, 1470.266
489.2027, 1451.050
489.6848, 1430.543
490.1669, 1407.699
490.6490, 1384.730
491.1311, 1364.068
491.6133, 1345.609
492.0954, 1331.412
492.5775, 1322.469
493.0596, 1318.209
493.5417, 1317.586
494.0238, 1320.650
494.5060, 1323.261
494.9881, 1318.020
495.4702, 1310.170
495.9523, 1315.071
496.4344, 1337.051
496.9165, 1360.834
497.3987, 1369.543
497.8808, 1369.331
498.3629, 1371.622
498.8450, 1383.774
499.3271, 1397.795
499.8092, 1410.117
500.2914, 1420.453
500.7735, 1426.481
501.2556, 1423.055
501.7377, 1418.436
502.2198, 1418.912
502.7019, 1430.711
503.1841, 1433.211
503.6662, 1420.156
504.1483, 1397.951
504.6304, 1373.966
505.1125, 1347.712
505.5946, 1320.878
506.0768, 1292.613
506.5589, 1263.752
507.0410, 1237.846
507.5231, 1214.993
508.0052, 1194.839
508.4873, 1176.778
508.9695, 1161.026
509.4516, 1149.093
509.9337, 1141.565
510.4158, 1135.378
510.8979, 1126.704
511.3800, 1116.149
511.8622, 1106.834
512.3443, 1099.746
512.8264, 1094.014
513.3085, 1090.189
513.7906, 1087.114
514.2728, 1080.614
514.7549, 1065.800
515.2370, 1048.224
515.7191, 1030.486
516.2012, 1012.446
516.6833, 1001.581
517.1655, 1009.137
517.6476, 1021.099
518.1297, 1025.458
518.6118, 1013.854
519.0939, 1001.845
519.5760, 988.5708
520.0582, 976.7454
520.5403, 972.6351
521.0224, 984.6071
521.5045, 992.5799
521.9866, 989.8336
522.4688, 976.3537
522.9509, 965.6045
523.4330, 956.9974
523.9151, 952.2513
524.3972, 954.4843
524.8793, 963.8867
525.3615, 970.3390
525.8436, 973.1608
526.3257, 972.3003
526.8078, 965.8320
527.2899, 954.9329
527.7720, 945.2455
528.2542, 938.8102
528.7363, 935.0345
529.2184, 934.8998
529.7005, 937.4933
530.1826, 937.8369
530.6647, 929.2004
531.1469, 919.2313
531.6290, 915.8030
532.1111, 921.9891
532.5932, 924.9529
533.0753, 913.8600
533.5574, 899.5119
534.0396, 893.2925
534.5217, 909.4300
535.0038, 919.3039
535.4859, 913.9250
535.9680, 899.1538
536.4501, 893.8947
536.9323, 903.1556
537.4144, 913.5055
537.8965, 920.6919
538.3786, 924.6994
538.8607, 925.6351
539.3428, 923.2523
539.8250, 918.4944
540.3071, 910.3113
540.7892, 899.5213
541.2713, 893.5701
541.7534, 894.3446
542.2355, 898.2985
542.7177, 901.1366
543.1998, 903.1398
543.6819, 905.1262
544.1640, 910.3873
544.6461, 913.7571
545.1282, 907.8293
545.6104, 894.2847
546.0925, 883.4378
546.5746, 883.2170
547.0567, 885.7280
547.5388, 884.7792
548.0209, 877.0863
548.5031, 874.3339
548.9852, 882.9681
549.4673, 895.7856
549.9494, 905.2793
550.4315, 910.9740
550.9136, 913.7538
551.3958, 912.7117
551.8779, 909.0344
552.3600, 906.1478
552.8421, 904.0309
553.3242, 902.6849
553.8063, 902.1173
554.2885, 902.3229
554.7706, 904.1714
555.2527, 907.9930
555.7348, 910.0164
556.2169, 904.4242
556.6990, 894.5834
557.1812, 889.7047
557.6633, 892.2028
558.1454, 896.0988
558.6275, 895.6952
559.1096, 892.6519
559.5917, 889.8756
560.0739, 887.1932
560.5560, 886.3667
561.0381, 890.6456
561.5202, 898.2639
562.0023, 901.6837
562.4844, 893.4802
562.9666, 885.3885
563.4487, 882.9346
563.9308, 887.2432
564.4129, 891.7653
564.8950, 896.9037
565.3771, 901.7982
565.8593, 905.9052
566.3414, 909.3339
566.8235, 911.1839
567.3056, 910.6426
567.7877, 909.6307
568.2698, 913.5140
568.7520, 921.7997
569.2341, 925.1517
569.7162, 916.0143
570.1983, 902.5104
570.6804, 900.4149
571.1625, 908.4674
571.6447, 917.6466
572.1268, 924.9335
572.6089, 928.8746
573.0910, 925.9867
573.5731, 914.6351
574.0552, 906.6043
574.5374, 909.8016
575.0195, 917.5225
575.5016, 923.4897
575.9837, 926.5422
576.4658, 927.6452
576.9479, 923.2830
577.4301, 917.8281
577.9122, 920.5790
578.3943, 936.4914
578.8764, 950.6486
579.3585, 958.2054
579.8406, 960.3589
580.3228, 966.2433
580.8049, 976.5287
581.2870, 986.1569
581.7691, 989.9703
582.2512, 990.0565
582.7333, 995.6696
583.2155, 1007.796
583.6976, 1021.273
584.1797, 1030.515
584.6617, 1038.230
585.1439, 1048.912
585.6260, 1063.906
586.1081, 1081.965
586.5902, 1102.885
587.0723, 1126.377
587.5544, 1151.409
588.0366, 1179.577
588.5187, 1207.893
589.0008, 1233.962
589.4829, 1258.220
589.9650, 1287.616
590.4471, 1322.131
590.9293, 1361.934
591.4114, 1407.025
591.8935, 1457.914
592.3756, 1511.127
592.8577, 1566.078
593.3398, 1625.291
593.8220, 1692.902
594.3041, 1768.276
594.7862, 1846.410
595.2683, 1926.440
595.7504, 2009.406
596.2325, 2098.867
596.7147, 2193.832
597.1968, 2289.961
597.6789, 2392.258
598.1610, 2490.426
598.6431, 2586.447
599.1252, 2674.867
599.6074, 2733.080
600.0895, 2757.376
600.5716, 2746.817
601.0537, 2693.256
601.5358, 2585.932
602.0179, 2485.500
602.5001, 2392.819
602.9822, 2306.795
603.4643, 2225.793
603.9464, 2147.304
604.4285, 2081.453
604.9106, 2029.283
605.3928, 1987.990
605.8749, 1955.504
606.3570, 1930.959
606.8391, 1905.055
607.3212, 1875.336
607.8033, 1842.351
608.2855, 1808.034
608.7676, 1771.424
609.2497, 1727.669
609.7318, 1666.166
610.2139, 1602.666
610.6960, 1549.818
611.1782, 1508.077
611.6603, 1470.939
612.1424, 1438.782
612.6245, 1408.140
613.1066, 1376.403
613.5887, 1339.842
614.0709, 1310.137
614.5530, 1290.384
615.0351, 1274.438
615.5172, 1254.150
615.9993, 1226.459
616.4814, 1208.202
616.9636, 1203.472
617.4457, 1206.723
617.9278, 1206.146
618.4099, 1202.643
618.8920, 1205.448
619.3741, 1223.832
619.8563, 1246.747
620.3384, 1255.931
620.8205, 1253.850
621.3026, 1252.885
621.7847, 1257.142
622.2668, 1267.452
622.7490, 1284.848
623.2311, 1309.691
623.7132, 1338.618
624.1953, 1375.893
624.6774, 1413.459
625.1595, 1445.377
625.6417, 1465.997
626.1238, 1492.763
626.6059, 1529.517
627.0880, 1567.933
627.5701, 1597.740
628.0522, 1618.940
628.5344, 1632.463
629.0165, 1640.069
629.4986, 1637.786
629.9807, 1617.315
630.4628, 1579.451
630.9449, 1529.697
631.4271, 1457.791
631.9092, 1383.306
632.3913, 1328.560
632.8734, 1291.329
633.3555, 1258.434
633.8376, 1222.185
634.3198, 1188.611
634.8019, 1161.572
635.2840, 1142.383
635.7661, 1124.406
636.2482, 1104.103
636.7303, 1086.891
637.2125, 1077.454
637.6946, 1079.953
638.1767, 1077.346
638.6588, 1066.859
639.1409, 1054.898
639.6230, 1051.751
640.1052, 1056.795
640.5873, 1060.688
641.0694, 1060.550
641.5515, 1059.018
642.0336, 1061.355
642.5157, 1065.760
642.9979, 1066.960
643.4800, 1055.730
643.9621, 1045.861
644.4442, 1048.479
644.9263, 1061.898
645.4084, 1075.498
645.8906, 1086.572
646.3727, 1096.387
646.8548, 1105.790
647.3369, 1115.091
647.8190, 1121.705
648.3011, 1124.567
648.7833, 1126.263
649.2654, 1128.549
649.7475, 1131.505
650.2296, 1134.596
650.7117, 1137.934
651.1938, 1140.904
651.6760, 1143.561
652.1581, 1145.277
652.6402, 1143.583
653.1223, 1136.462
653.6044, 1128.644
654.0865, 1126.341
654.5687, 1126.078
655.0508, 1121.204
655.5329, 1101.910
656.0150, 1085.022
656.4971, 1079.880
656.9792, 1083.579
657.4614, 1080.093
657.9435, 1061.407
658.4256, 1045.915
658.9077, 1040.465
659.3898, 1044.596
659.8719, 1047.686
660.3541, 1050.156
660.8362, 1049.615
661.3183, 1042.618
661.8004, 1030.997
662.2825, 1021.282
662.7646, 1013.811
663.2468, 1008.656
663.7289, 1008.331
664.2110, 1009.413
664.6931, 1006.563
665.1752, 995.8948
665.6573, 988.5238
666.1395, 994.0616
666.6216, 1003.758
667.1037, 1006.845
667.5858, 993.0714
668.0679, 983.8265
668.5500, 982.3798
669.0322, 985.6798
669.5143, 987.8244
669.9964, 989.2471
670.4785, 986.9573
670.9606, 977.7330
671.4427, 965.7628
671.9249, 964.7970
672.4070, 973.4426
672.8891, 980.5915
673.3712, 977.9093
673.8533, 971.2037
674.3354, 966.0026
674.8176, 962.6123
675.2997, 962.1413
675.7818, 970.4523
676.2639, 977.8402
676.7460, 976.3540
677.2281, 960.7547
677.7103, 954.5754
678.1924, 965.9620
678.6745, 979.4585
679.1566, 983.3871
679.6387, 975.5494
680.1208, 967.7157
680.6030, 959.2689
681.0851, 953.9097
681.5672, 960.6995
682.0493, 975.5981
682.5314, 979.9294
683.0135, 965.1253
683.4957, 947.9193
683.9778, 947.1017
684.4599, 956.4807
684.9420, 964.3929
685.4241, 967.0978
685.9063, 966.9697
686.3884, 961.9824
686.8705, 954.4769
687.3526, 952.5812
687.8347, 960.3801
688.3168, 968.4023
688.7990, 974.4108
689.2811, 978.5912
689.7632, 980.9606
690.2453, 981.1057
690.7274, 982.2617
691.2095, 988.8164
691.6917, 997.6306
692.1738, 997.3649
692.6559, 988.3333
693.1380, 980.5104
693.6201, 982.9894
694.1022, 989.1413
694.5844, 993.0247
695.0665, 993.8060
695.5486, 992.3058
696.0307, 985.5760
696.5128, 978.7417
696.9949, 975.8015
697.4771, 977.7894
697.9592, 982.0811
698.4413, 990.9611
698.9234, 999.1763
699.4055, 998.3597
699.8876, 988.2754
700.3698, 983.6788
700.8519, 988.2567
701.3340, 996.2048
701.8161, 1000.812
702.2982, 1002.354
702.7803, 1001.332
703.2625, 995.7411
703.7446, 990.3439
704.2267, 988.4304
704.7088, 989.0652
705.1909, 990.2374
705.6730, 989.6066
706.1552, 991.6159
706.6373, 999.2638
707.1194, 1010.621
707.6015, 1016.083
708.0836, 1013.344
708.5657, 1011.683
709.0479, 1016.402
709.5300, 1025.063
710.0121, 1025.479
710.4942, 1018.032
710.9763, 1012.361
711.4584, 1016.023
711.9406, 1024.584
712.4227, 1034.435
712.9048, 1045.147
713.3869, 1051.346
713.8690, 1046.891
714.3511, 1039.654
714.8333, 1034.589
715.3154, 1032.742
715.7975, 1031.538
716.2796, 1029.536
716.7617, 1029.934
717.2438, 1036.264
717.7260, 1049.210
718.2081, 1060.496
718.6902, 1069.662
719.1723, 1076.728
719.6544, 1080.802
720.1365, 1082.719
720.6187, 1084.549
721.1008, 1086.813
721.5829, 1088.908
722.0650, 1088.784
722.5471, 1088.754
723.0292, 1091.951
723.5114, 1102.251
723.9935, 1112.076
724.4756, 1120.552
724.9577, 1127.785
725.4398, 1133.627
725.9219, 1136.873
726.4041, 1142.688
726.8862, 1153.385
727.3683, 1166.037
727.8504, 1171.126
728.3325, 1170.154
728.8146, 1173.645
729.2968, 1190.338
729.7789, 1210.422
730.2610, 1222.409
730.7431, 1228.282
731.2252, 1234.628
731.7073, 1242.876
732.1895, 1253.548
732.6716, 1268.554
733.1537, 1287.366
733.6358, 1302.124
734.1179, 1310.214
734.6000, 1318.996
735.0822, 1331.293
735.5643, 1346.958
736.0464, 1365.307
736.5285, 1386.586
737.0106, 1405.880
737.4927, 1415.760
737.9749, 1422.812
738.4570, 1439.855
738.9391, 1467.098
739.4212, 1494.216
739.9033, 1514.375
740.3854, 1532.603
740.8676, 1552.581
741.3497, 1575.434
741.8318, 1597.387
742.3139, 1618.288
742.7960, 1638.328
743.2781, 1657.943
743.7603, 1677.274
744.2424, 1695.142
744.7245, 1711.500
745.2066, 1726.730
745.6887, 1741.356
746.1708, 1755.423
746.6530, 1770.050
747.1351, 1786.539
747.6172, 1797.603
748.0993, 1796.114
748.5814, 1786.971
749.0635, 1775.577
749.5457, 1762.151
750.0278, 1747.712
750.5099, 1728.988
750.9920, 1711.733
751.4741, 1705.811
751.9562, 1717.413
752.4384, 1712.584
752.9205, 1683.422
753.4026, 1643.426
753.8847, 1611.552
754.3668, 1587.117
754.8489, 1567.185
755.3311, 1552.263
755.8132, 1538.940
756.2953, 1527.476
756.7774, 1515.069
757.2595, 1497.074
757.7416, 1461.890
758.2238, 1432.755
758.7059, 1419.404
759.1880, 1414.188
759.6701, 1399.770
760.1522, 1370.949
760.6343, 1350.025
761.1165, 1344.743
761.5986, 1348.417
762.0807, 1345.059
762.5628, 1335.576
763.0449, 1325.167
763.5270, 1314.250
764.0092, 1305.287
764.4913, 1301.017
764.9734, 1300.633
765.4555, 1301.528
765.9376, 1307.717
766.4197, 1309.777
766.9019, 1300.664
767.3840, 1283.825
767.8661, 1276.081
768.3482, 1280.796
768.8303, 1284.642
769.3124, 1281.269
769.7946, 1273.368
770.2767, 1271.444
770.7588, 1274.751
771.2409, 1276.332
771.7230, 1268.826
772.2051, 1259.770
772.6873, 1257.664
773.1694, 1261.662
773.6515, 1264.079
774.1336, 1258.664
774.6157, 1254.611
775.0978, 1257.904
775.5800, 1268.064
776.0621, 1269.563
776.5442, 1258.906
777.0263, 1249.552
777.5084, 1250.371
777.9905, 1258.805
778.4727, 1262.270
778.9548, 1261.053
779.4369, 1260.437
779.9190, 1267.875
780.4011, 1275.303
780.8832, 1271.487
781.3654, 1256.053
781.8475, 1248.312
782.3296, 1259.861
782.8117, 1275.991
783.2938, 1290.633
783.7759, 1304.152
784.2581, 1311.435
784.7402, 1311.355
785.2223, 1308.464
785.7044, 1306.014
786.1865, 1303.407
786.6686, 1297.475
787.1508, 1288.160
787.6329, 1278.761
788.1150, 1273.888
788.5971, 1268.588
789.0792, 1257.151
789.5613, 1237.970
790.0435, 1221.058
790.5256, 1208.634
791.0077, 1199.204
791.4898, 1192.823
791.9719, 1190.519
792.4540, 1183.308
792.9362, 1170.106
793.4183, 1156.897
793.9004, 1150.277
794.3825, 1147.560
794.8646, 1139.725
795.3467, 1125.965
795.8289, 1115.894
796.3110, 1121.602
796.7931, 1130.714
797.2752, 1132.553
797.7573, 1124.167
798.2394, 1115.673
798.7216, 1105.936
799.2037, 1098.920
799.6858, 1098.709
800.1679, 1106.999
800.6500, 1107.815
801.1321, 1100.105
801.6143, 1091.687
802.0964, 1089.696
802.5785, 1092.025
803.0606, 1095.115
803.5427, 1098.632
804.0248, 1101.717
804.5070, 1103.088
804.9891, 1104.379
805.4712, 1107.389
805.9533, 1114.086
806.4354, 1116.216
806.9175, 1111.427
807.3997, 1105.438
807.8818, 1102.434
808.3639, 1102.372
808.8460, 1102.247
809.3281, 1101.921
809.8102, 1101.988
810.2924, 1102.135
810.7745, 1103.396
811.2566, 1108.605
811.7387, 1118.816
812.2208, 1125.375
812.7029, 1121.068
813.1851, 1114.573
813.6672, 1111.749
814.1493, 1113.140
814.6314, 1117.292
815.1135, 1126.579
815.5956, 1132.607
816.0778, 1124.314
816.5599, 1106.093
817.0420, 1100.134
817.5241, 1107.812
818.0062, 1116.875
818.4883, 1117.912
818.9705, 1115.538
819.4526, 1113.476
819.9347, 1111.940
820.4168, 1112.866
820.8989, 1117.546
821.3810, 1124.122
821.8632, 1133.300
822.3453, 1146.215
822.8274, 1149.350
823.3095, 1141.528
823.7916, 1130.992
824.2737, 1119.765
824.7559, 1111.883
825.2380, 1120.093
825.7201, 1144.368
826.2022, 1163.906
826.6843, 1159.736
827.1664, 1151.345
827.6486, 1153.890
828.1307, 1171.507
828.6128, 1176.773
829.0949, 1161.010
829.5770, 1147.847
830.0591, 1152.073
830.5413, 1171.871
831.0234, 1187.763
831.5055, 1199.741
831.9876, 1207.839
832.4697, 1211.733
832.9518, 1212.068
833.4340, 1205.966
833.9161, 1194.414
834.3982, 1191.450
834.8803, 1210.622
835.3624, 1231.048
835.8445, 1243.221
836.3267, 1247.522
836.8088, 1254.816
837.2909, 1266.379
837.7730, 1274.844
838.2551, 1273.622
838.7372, 1267.119
839.2194, 1266.417
839.7015, 1270.872
840.1836, 1276.728
840.6657, 1283.880
841.1478, 1289.909
841.6299, 1293.679
842.1121, 1295.016
842.5942, 1293.162
843.0763, 1286.939
843.5584, 1279.500
844.0405, 1270.156
844.5226, 1260.863
845.0048, 1262.639
845.4869, 1274.472
845.9690, 1280.816
846.4511, 1268.641
846.9332, 1251.439
847.4153, 1244.472
847.8975, 1244.571
848.3796, 1242.765
848.8617, 1234.716
849.3438, 1225.662
849.8259, 1216.089
850.3080, 1206.882
850.7902, 1200.650
851.2723, 1197.837
851.7544, 1196.100
852.2365, 1196.033
852.7186, 1194.744
853.2007, 1183.322
853.6829, 1166.318
854.1650, 1156.183
854.6471, 1162.154
855.1292, 1170.338
855.6113, 1175.020
856.0934, 1177.205
856.5756, 1179.168
857.0577, 1183.876
857.5398, 1181.614
858.0219, 1168.228
858.5040, 1152.201
858.9861, 1148.045
859.4683, 1153.951
859.9504, 1161.063
860.4325, 1168.165
860.9146, 1172.902
861.3967, 1168.889
861.8788, 1162.975
862.3610, 1164.065
862.8431, 1181.130
863.3252, 1192.796
863.8073, 1195.486
864.2894, 1194.186
864.7715, 1193.189
865.2537, 1192.488
865.7358, 1192.531
866.2179, 1193.397
866.7000, 1194.831
867.1821, 1197.151
867.6642, 1199.658
868.1464, 1200.894
868.6285, 1200.325
869.1106, 1200.999
869.5927, 1205.685
870.0748, 1210.729
870.5569, 1214.045
871.0391, 1215.754
871.5212, 1214.071
872.0033, 1208.128
872.4854, 1202.083
872.9675, 1199.921
873.4496, 1199.782
873.9318, 1196.450
874.4139, 1190.157
874.8960, 1185.719
875.3781, 1188.195
875.8602, 1191.492
876.3423, 1191.576
876.8245, 1188.268
877.3066, 1186.388
877.7887, 1187.001
878.2708, 1186.684
878.7529, 1183.578
879.2350, 1178.799
879.7172, 1175.086
880.1993, 1172.776
880.6814, 1173.527
881.1635, 1184.059
881.6456, 1192.789
882.1277, 1186.973
882.6099, 1172.082
883.0920, 1164.613
883.5741, 1173.365
884.0562, 1181.980
884.5383, 1188.573
885.0204, 1193.022
885.5026, 1194.270
885.9847, 1192.538
886.4668, 1191.452
886.9489, 1192.008
887.4310, 1193.661
887.9131, 1196.443
888.3953, 1199.721
888.8774, 1202.606
889.3595, 1205.603
889.8416, 1206.971
890.3237, 1204.826
890.8058, 1202.435
891.2880, 1203.546
891.7701, 1208.491
892.2522, 1212.885
892.7343, 1216.440
893.2164, 1219.047
893.6985, 1220.057
894.1807, 1220.257
894.6628, 1221.108
895.1449, 1223.079
895.6270, 1223.728
896.1091, 1221.056
896.5912, 1217.742
897.0734, 1215.305
897.5555, 1213.812
898.0376, 1212.302
898.5197, 1210.469
899.0018, 1210.667
899.4839, 1216.442
899.9661, 1224.631
900.4482, 1229.402
900.9303, 1230.973
901.4124, 1231.355
901.8945, 1230.821
902.3766, 1230.040
902.8588, 1229.223
903.3409, 1228.393
903.8230, 1227.993
904.3051, 1228.681
904.7872, 1226.816
905.2693, 1219.996
905.7515, 1211.314
906.2336, 1206.665
906.7157, 1205.391
907.1978, 1205.584
907.6799, 1205.887
908.1620, 1208.198
908.6442, 1215.886
909.1263, 1225.324
909.6084, 1230.480
910.0905, 1229.832
910.5726, 1228.982
911.0547, 1228.773
911.5369, 1227.711
912.0190, 1221.594
912.5011, 1213.125
912.9832, 1210.480
913.4653, 1215.626
913.9474, 1222.803
914.4296, 1231.298
914.9117, 1238.270
915.3938, 1241.391
915.8759, 1240.648
916.3580, 1234.594
916.8401, 1220.629
917.3223, 1207.736
917.8044, 1203.067
918.2865, 1204.556
918.7686, 1204.514
919.2507, 1203.049
919.7328, 1201.881
920.2150, 1203.070
920.6971, 1204.034
921.1792, 1202.427
921.6613, 1198.765
922.1434, 1197.074
922.6255, 1197.175
923.1077, 1200.330
923.5898, 1208.880
924.0719, 1218.588
924.5540, 1218.166
925.0361, 1209.844
925.5182, 1202.608
926.0004, 1199.045
926.4825, 1198.621
926.9646, 1205.866
927.4467, 1214.299
927.9288, 1213.141
928.4109, 1192.821
928.8931, 1182.411
929.3752, 1185.870
929.8573, 1194.237
930.3394, 1197.471
930.8215, 1197.081
931.3036, 1199.134
931.7858, 1204.569
932.2679, 1209.066
932.7500, 1206.869
933.2321, 1204.664
933.7142, 1209.179
934.1964, 1222.474
934.6785, 1228.075
935.1606, 1222.710
935.6427, 1217.616
936.1248, 1219.054
936.6069, 1225.177
937.0891, 1231.506
937.5712, 1237.346
938.0533, 1238.735
938.5354, 1227.151
939.0175, 1216.857
939.4996, 1218.005
939.9818, 1226.769
940.4639, 1231.602
940.9460, 1230.277
941.4281, 1230.195
941.9102, 1233.718
942.3923, 1236.897
942.8745, 1229.300
943.3566, 1216.085
943.8387, 1214.290
944.3208, 1231.741
944.8029, 1247.023
945.2850, 1245.154
945.7672, 1237.296
946.2493, 1233.882
946.7314, 1236.327
947.2135, 1239.200
947.6956, 1242.760
948.1777, 1245.903
948.6599, 1246.644
949.1420, 1246.559
949.6241, 1251.308
950.1062, 1259.978
950.5883, 1264.605
951.0704, 1253.673
951.5526, 1244.668
952.0347, 1249.655
952.5168, 1264.320
952.9989, 1272.323
953.4810, 1272.463
953.9631, 1271.442
954.4453, 1270.798
954.9274, 1270.650
955.4095, 1269.661
955.8916, 1269.549
956.3737, 1274.527
956.8558, 1290.115
957.3380, 1303.040
957.8201, 1306.966
958.3022, 1307.437
958.7843, 1309.629
959.2664, 1314.113
959.7485, 1316.590
960.2307, 1316.510
960.7128, 1317.498
961.1949, 1323.669
961.6770, 1332.466
962.1591, 1340.142
962.6412, 1346.583
963.1234, 1353.617
963.6055, 1359.084
964.0876, 1368.839
964.5697, 1387.239
965.0518, 1411.166
965.5339, 1425.493
966.0161, 1430.272
966.4982, 1439.907
966.9803, 1462.922
967.4624, 1488.247
967.9445, 1503.354
968.4266, 1511.962
968.9088, 1519.913
969.3909, 1521.762
969.8730, 1533.959
970.3551, 1561.082
970.8372, 1593.909
971.3193, 1622.467
971.8015, 1647.669
972.2836, 1681.454
972.7657, 1724.773
973.2478, 1770.859
973.7299, 1809.451
974.2120, 1852.950
974.6942, 1911.274
975.1763, 1985.681
975.6584, 2071.164
976.1405, 2167.104
976.6226, 2275.086
977.1047, 2393.840
977.5869, 2526.740
978.0690, 2680.499
978.5511, 2853.239
979.0332, 3042.473
979.5153, 3251.036
979.9974, 3473.178
980.4796, 3703.895
980.9617, 3948.123
981.4438, 4208.196
981.9259, 4477.485
982.4080, 4789.762
982.8901, 5146.978
983.3723, 5551.448
983.8544, 6004.786
984.3365, 6507.358
984.8186, 7060.714
985.3007, 7667.327
985.7828, 8318.544
986.2650, 9069.706
986.7471, 9814.513
987.2292, 10562.46
987.7113, 11271.10
988.1934, 11754.22
988.6755, 12016.94
989.1577, 11915.28
989.6398, 11342.71
990.1219, 10468.89
990.6040, 9347.225
991.0861, 8107.849
991.5682, 6969.387
992.0504, 5967.394
992.5325, 5120.763
993.0146, 4433.468
993.4967, 3881.292
993.9788, 3442.492
994.4609, 3110.677
994.9431, 2837.599
995.4252, 2619.694
995.9073, 2436.508
996.3894, 2275.577
996.8715, 2138.347
997.3536, 2028.160
997.8358, 1945.169
998.3179, 1868.872
998.8000, 1797.890
999.2821, 1735.143
999.7642, 1680.786
1000.246, 1634.815
1000.728, 1601.467
1001.211, 1577.120
1001.693, 1554.347
1002.175, 1532.514
1002.657, 1507.643
1003.139, 1469.785
1003.621, 1434.282
1004.103, 1417.181
1004.585, 1423.581
1005.068, 1416.595
1005.550, 1394.619
1006.032, 1374.237
1006.514, 1372.561
1006.996, 1376.570
1007.478, 1368.542
1007.960, 1350.185
1008.442, 1334.964
1008.924, 1330.130
1009.407, 1324.015
1009.889, 1314.125
1010.371, 1301.732
1010.853, 1288.138
1011.335, 1273.832
1011.817, 1262.396
1012.299, 1253.752
1012.781, 1251.644
1013.263, 1266.031
1013.746, 1283.811
1014.228, 1292.056
1014.710, 1288.595
1015.192, 1282.344
1015.674, 1272.345
1016.156, 1262.763
1016.638, 1255.356
1017.120, 1250.372
1017.603, 1250.492
1018.085, 1253.861
1018.567, 1253.960
1019.049, 1242.511
1019.531, 1233.880
1020.013, 1234.105
1020.495, 1238.144
1020.977, 1238.564
1021.459, 1235.231
1021.942, 1233.600
1022.424, 1234.546
1022.906, 1235.672
1023.388, 1235.619
1023.870, 1234.077
1024.352, 1229.597
1024.834, 1221.704
1025.316, 1217.976
1025.799, 1219.848
1026.281, 1223.915
1026.763, 1229.981
1027.245, 1236.422
1027.727, 1238.267
1028.209, 1236.916
1028.691, 1237.344
1029.173, 1245.546
1029.656, 1249.418
1030.138, 1237.616
1030.620, 1222.222
1031.102, 1216.366
1031.584, 1222.050
1032.066, 1226.294
1032.548, 1228.864
1033.030, 1229.687
1033.512, 1227.732
1033.995, 1224.608
1034.477, 1220.276
1034.959, 1215.822
1035.441, 1217.689
1035.923, 1237.871
1036.405, 1247.845
1036.887, 1238.348
1037.369, 1220.093
1037.851, 1213.396
1038.334, 1216.180
1038.816, 1220.884
1039.298, 1226.756
1039.780, 1230.097
1040.262, 1224.614
1040.744, 1218.876
1041.226, 1220.896
1041.708, 1231.434
1042.191, 1236.574
1042.673, 1236.077
1043.155, 1232.849
1043.637, 1225.565
1044.119, 1218.969
1044.601, 1221.518
1045.083, 1229.723
1045.565, 1235.495
1046.047, 1233.548
1046.530, 1233.340
1047.012, 1236.387
1047.494, 1240.311
1047.976, 1242.068
1048.458, 1242.310
1048.940, 1244.558
1049.422, 1249.005
1049.904, 1252.566
1050.386, 1252.161
1050.869, 1251.368
1051.351, 1252.759
1051.833, 1255.668
1052.315, 1256.866
1052.797, 1255.901
1053.279, 1257.032
1053.761, 1262.322
1054.243, 1267.739
1054.726, 1265.346
1055.208, 1261.063
1055.690, 1264.532
1056.172, 1282.557
1056.654, 1291.448
1057.136, 1283.016
1057.618, 1277.188
1058.100, 1288.886
1058.583, 1312.253
1059.065, 1323.771
1059.547, 1325.481
1060.029, 1326.838
1060.511, 1329.980
1060.993, 1336.809
1061.475, 1350.217
1061.957, 1366.840
1062.439, 1382.043
1062.922, 1395.521
1063.404, 1410.022
1063.886, 1425.554
1064.368, 1443.527
1064.850, 1468.951
1065.332, 1494.940
1065.814, 1511.511
1066.296, 1519.337
1066.778, 1537.631
1067.261, 1571.345
1067.743, 1607.300
1068.225, 1641.991
1068.707, 1677.329
1069.189, 1713.932
1069.671, 1753.701
1070.153, 1801.221
1070.635, 1857.744
1071.118, 1920.183
1071.600, 1986.236
1072.082, 2057.616
1072.564, 2136.000
1073.046, 2220.361
1073.528, 2308.628
1074.010, 2399.491
1074.492, 2484.281
1074.974, 2564.116
1075.457, 2628.491
1075.939, 2669.524
1076.421, 2689.434
1076.903, 2692.329
1077.385, 2679.818
1077.867, 2648.707
1078.349, 2597.363
1078.831, 2533.981
1079.313, 2466.301
1079.796, 2391.270
1080.278, 2301.304
1080.760, 2197.558
1081.242, 2094.942
1081.724, 1994.447
1082.206, 1900.008
1082.688, 1812.702
1083.170, 1734.199
1083.652, 1668.128
1084.135, 1613.821
1084.617, 1572.517
1085.099, 1545.504
1085.581, 1522.886
1086.063, 1502.809
1086.545, 1481.634
1087.027, 1453.707
1087.509, 1420.992
1087.992, 1406.180
1088.474, 1409.533
1088.956, 1407.614
1089.438, 1386.849
1089.920, 1364.019
1090.402, 1357.288
1090.884, 1357.835
1091.366, 1353.440
1091.849, 1340.344
1092.331, 1327.330
1092.813, 1313.247
1093.295, 1303.151
1093.777, 1303.354
1094.259, 1308.809
1094.741, 1310.731
1095.223, 1309.544
1095.705, 1307.172
1096.188, 1303.640
1096.670, 1299.691
1097.152, 1294.663
1097.634, 1290.286
1098.116, 1290.306
1098.598, 1293.136
1099.080, 1290.623
1099.562, 1282.091
1100.044, 1273.344
1100.527, 1264.139
1101.009, 1259.739
1101.491, 1267.131
1101.973, 1280.764
1102.455, 1281.963
1102.937, 1270.631
1103.419, 1260.112
1103.901, 1253.175
1104.384, 1250.319
1104.866, 1255.599
1105.348, 1262.983
1105.830, 1266.050
1106.312, 1263.480
1106.794, 1262.505
1107.276, 1263.426
1107.758, 1264.924
1108.240, 1267.689
1108.723, 1269.066
1109.205, 1261.962
1109.687, 1250.980
1110.169, 1245.035
1110.651, 1248.969
1111.133, 1254.291
1111.615, 1262.479
1112.097, 1268.027
1112.579, 1263.746
1113.062, 1253.661
1113.544, 1253.688
1114.026, 1261.777
1114.508, 1267.459
1114.990, 1265.687
1115.472, 1260.297
1115.954, 1247.780
1116.436, 1236.407
1116.919, 1239.916
1117.401, 1256.824
1117.883, 1264.990
1118.365, 1262.490
1118.847, 1257.593
1119.329, 1251.713
1119.811, 1249.646
1120.293, 1259.103
1120.776, 1274.972
1121.258, 1278.036
1121.740, 1266.286
1122.222, 1262.687
1122.704, 1273.887
1123.186, 1286.168
1123.668, 1283.788
1124.150, 1276.182
1124.632, 1273.218
1125.115, 1276.551
1125.597, 1280.045
1126.079, 1283.825
1126.561, 1286.914
1127.043, 1288.411
1127.525, 1289.937
1128.007, 1293.580
1128.489, 1299.363
1128.971, 1307.686
1129.454, 1320.314
1129.936, 1331.009
1130.418, 1339.086
1130.900, 1345.654
1131.382, 1351.989
1131.864, 1357.174
1132.346, 1358.017
1132.828, 1355.311
1133.311, 1351.680
1133.793, 1346.456
1134.275, 1342.903
1134.757, 1343.248
1135.239, 1343.698
1135.721, 1340.920
1136.203, 1335.034
1136.685, 1325.249
1137.167, 1312.164
1137.650, 1302.638
1138.132, 1306.069
1138.614, 1308.281
1139.096, 1300.672
1139.578, 1288.097
1140.060, 1276.893
1140.542, 1266.905
1141.024, 1264.506
1141.506, 1270.817
1141.989, 1276.260
1142.471, 1269.708
1142.953, 1262.475
1143.435, 1264.714
1143.917, 1274.361
1144.399, 1279.578
1144.881, 1279.853
1145.363, 1278.813
1145.846, 1277.140
1146.328, 1274.796
1146.810, 1271.581
1147.292, 1267.787
1147.774, 1263.655
1148.256, 1259.191
1148.738, 1253.593
1149.220, 1244.996
1149.703, 1242.814
1150.185, 1253.357
1150.667, 1265.886
1151.149, 1261.074
1151.631, 1248.689
1152.113, 1245.314
1152.595, 1258.729
1153.077, 1265.195
1153.559, 1260.728
1154.042, 1255.260
1154.524, 1253.934
1155.006, 1255.165
1155.488, 1256.045
1155.970, 1256.546
1156.452, 1256.587
1156.934, 1256.454
1157.416, 1255.076
1157.898, 1251.026
1158.381, 1247.977
1158.863, 1249.356
1159.345, 1254.012
1159.827, 1258.209
1160.309, 1261.604
1160.791, 1262.727
1161.273, 1255.614
1161.755, 1253.506
1162.238, 1263.880
1162.720, 1275.721
1163.202, 1275.192
1163.684, 1264.899
1164.166, 1262.824
1164.648, 1268.918
1165.130, 1274.887
1165.612, 1273.759
1166.094, 1274.229
1166.577, 1283.013
1167.059, 1293.524
1167.541, 1293.369
1168.023, 1283.787
1168.505, 1281.607
1168.987, 1288.596
1169.469, 1295.338
1169.951, 1290.317
1170.433, 1288.028
1170.916, 1303.795
1171.398, 1327.317
1171.880, 1331.393
1172.362, 1316.319
1172.844, 1301.355
1173.326, 1290.022
1173.808, 1280.241
1174.290, 1267.916
1174.773, 1258.604
1175.255, 1258.378
1175.737, 1265.452
1176.219, 1272.984
1176.701, 1281.334
1177.183, 1282.769
1177.665, 1273.680
1178.147, 1262.612
1178.630, 1255.321
1179.112, 1251.776
1179.594, 1253.639
1180.076, 1260.772
1180.558, 1262.906
1181.040, 1259.418
1181.522, 1257.355
1182.004, 1260.026
1182.486, 1263.885
1182.969, 1264.633
1183.451, 1268.084
1183.933, 1271.050
1184.415, 1272.895
1184.897, 1276.668
1185.379, 1278.140
1185.861, 1279.086
1186.343, 1280.909
1186.825, 1281.968
1187.308, 1278.957
1187.790, 1274.365
1188.272, 1272.086
1188.754, 1272.576
1189.236, 1276.672
1189.718, 1285.588
1190.200, 1291.707
1190.682, 1287.697
1191.165, 1280.121
1191.647, 1278.096
1192.129, 1278.829
1192.611, 1276.461
1193.093, 1268.343
1193.575, 1259.687
1194.057, 1248.840
1194.539, 1244.535
1195.021, 1261.233
1195.504, 1283.171
1195.986, 1286.892
1196.468, 1277.670
1196.950, 1271.708
1197.432, 1272.485
1197.914, 1275.338
1198.396, 1280.694
1198.878, 1285.520
1199.360, 1286.572
1199.843, 1285.499
1200.325, 1283.903
1200.807, 1282.216
1201.289, 1281.817
1201.771, 1283.280
1202.253, 1284.973
1202.735, 1286.268
1203.217, 1289.362
1203.700, 1301.689
1204.182, 1314.355
1204.664, 1311.925
1205.146, 1296.014
1205.628, 1283.549
1206.110, 1275.887
1206.592, 1274.952
1207.074, 1282.485
1207.557, 1292.529
1208.039, 1299.481
1208.521, 1303.105
1209.003, 1302.240
1209.485, 1297.057
1209.967, 1291.400
1210.449, 1282.846
1210.931, 1281.486
1211.413, 1291.348
1211.896, 1304.008
1212.378, 1308.151
1212.860, 1307.925
1213.342, 1309.854
1213.824, 1314.689
1214.306, 1315.477
1214.788, 1311.115
1215.270, 1303.979
1215.752, 1293.241
1216.235, 1283.760
1216.717, 1283.779
1217.199, 1288.865
1217.681, 1292.606
1218.163, 1294.016
1218.645, 1296.726
1219.127, 1301.992
1219.609, 1305.788
1220.092, 1307.186
1220.574, 1305.792
1221.056, 1297.845
1221.538, 1288.300
1222.020, 1285.138
1222.502, 1290.807
1222.984, 1293.007
1223.466, 1289.762
1223.948, 1288.233
1224.431, 1292.060
1224.913, 1296.706
1225.395, 1295.219
1225.877, 1290.488
1226.359, 1286.059
1226.841, 1282.243
1227.323, 1281.194
1227.805, 1283.605
1228.287, 1285.870
1228.770, 1286.101
1229.252, 1286.169
1229.734, 1288.070
1230.216, 1291.681
1230.698, 1297.374
1231.180, 1306.045
1231.662, 1312.665
1232.144, 1317.665
1232.627, 1318.392
1233.109, 1313.049
1233.591, 1303.874
1234.073, 1290.000
1234.555, 1275.714
1235.037, 1266.317
1235.519, 1261.841
1236.001, 1266.335
1236.484, 1280.997
1236.966, 1293.787
1237.448, 1298.121
1237.930, 1298.640
1238.412, 1298.937
1238.894, 1298.870
1239.376, 1298.123
1239.858, 1296.573
1240.340, 1295.501
1240.823, 1294.968
1241.305, 1293.115
1241.787, 1286.106
1242.269, 1281.425
1242.751, 1288.477
1243.233, 1299.880
1243.715, 1306.308
1244.197, 1307.154
1244.679, 1307.636
1245.162, 1307.735
1245.644, 1306.048
1246.126, 1300.233
1246.608, 1294.527
1247.090, 1292.744
1247.572, 1291.927
1248.054, 1287.672
1248.536, 1288.404
1249.019, 1290.659
1249.501, 1289.055
1249.983, 1297.201
1250.465, 1299.703
1250.947, 1300.690
1251.429, 1301.784
1251.911, 1302.670
1252.393, 1303.086
1252.875, 1303.007
1253.358, 1301.267
1253.840, 1298.468
1254.322, 1298.680
1254.804, 1307.515
1255.286, 1315.201
1255.768, 1319.786
1256.250, 1320.435
1256.732, 1313.508
1257.214, 1301.276
1257.697, 1299.095
1258.179, 1305.018
1258.661, 1309.781
1259.143, 1308.215
1259.625, 1306.268
1260.107, 1303.321
1260.589, 1303.094
1261.071, 1313.045
1261.554, 1327.357
1262.036, 1323.693
1262.518, 1307.451
1263.000, 1297.326
1263.482, 1307.077
1263.964, 1312.853
1264.446, 1311.594
1264.928, 1308.358
1265.411, 1306.754
1265.893, 1306.410
1266.375, 1308.385
1266.857, 1310.921
1267.339, 1309.147
1267.821, 1294.556
1268.303, 1290.301
1268.785, 1299.399
1269.267, 1309.315
1269.750, 1309.058
1270.232, 1304.674
1270.714, 1302.731
1271.196, 1303.080
1271.678, 1305.662
1272.160, 1312.117
1272.642, 1314.287
1273.124, 1311.379
1273.606, 1309.116
1274.089, 1317.525
1274.571, 1322.730
1275.053, 1302.537
1275.535, 1274.539
1276.017, 1271.279
1276.499, 1298.764
1276.981, 1312.850
1277.463, 1312.802
1277.946, 1310.218
1278.428, 1312.274
1278.910, 1314.571
1279.392, 1313.077
1279.874, 1311.288
1280.356, 1313.783
1280.838, 1320.403
1281.320, 1326.137
1281.802, 1330.601
1282.285, 1331.614
1282.767, 1323.331
1283.249, 1317.486
1283.731, 1320.661
1284.213, 1325.362
1284.695, 1325.183
1285.177, 1320.890
1285.659, 1314.595
1286.141, 1307.301
1286.624, 1303.118
1287.106, 1306.027
1287.588, 1309.146
1288.070, 1311.987
1288.552, 1313.794
1289.034, 1312.882
1289.516, 1310.935
1289.998, 1312.324
1290.481, 1315.821
1290.963, 1318.250
1291.445, 1320.029
1291.927, 1316.869
1292.409, 1306.682
1292.891, 1299.740
1293.373, 1307.286
1293.855, 1319.102
1294.338, 1322.540
1294.820, 1320.596
1295.302, 1318.604
1295.784, 1316.781
1296.266, 1317.042
1296.748, 1319.664
1297.230, 1319.230
1297.712, 1308.397
1298.194, 1297.906
1298.677, 1298.120
1299.159, 1292.101
1299.641, 1301.247
1300.123, 1294.339
1300.605, 1297.674
1301.087, 1309.880
1301.569, 1318.625
1302.051, 1314.643
1302.533, 1310.305
1303.016, 1309.500
##END=



