##NAMES=Antlerite
##RRUFFID=R110045
##IDEAL CHEMISTRY=Cu^2+^_3_(S^6+^O_4_)(OH)_4_
##LOCALITY=Childs Aldwinkle mine, Bunker Hill District, Copper Creek, Pinal County, Arizona, USA
##OWNER=RRUFF
##SOURCE=Bob Downs, collected March 2011
##DESCRIPTION=Green granular aggregate
##STATUS=The identification of this mineral has been confirmed by single-crystal X-ray diffraction.
##URL=rruff.info/R110045
172.5991, 1162.078
173.0812, 1156.190
173.5634, 1151.664
174.0455, 1150.059
174.5276, 1148.870
175.0097, 1147.193
175.4918, 1144.965
175.9739, 1142.520
176.4561, 1140.061
176.9382, 1137.247
177.4203, 1135.590
177.9024, 1136.088
178.3845, 1136.822
178.8666, 1136.745
179.3488, 1135.753
179.8309, 1134.448
180.3130, 1133.682
180.7951, 1133.882
181.2772, 1133.652
181.7593, 1132.915
182.2415, 1131.873
182.7236, 1130.485
183.2057, 1128.807
183.6878, 1127.240
184.1699, 1126.478
184.6520, 1127.475
185.1342, 1127.318
185.6163, 1124.888
186.0984, 1121.742
186.5805, 1119.447
187.0626, 1118.464
187.5447, 1118.444
188.0269, 1119.115
188.5090, 1120.811
188.9911, 1121.802
189.4732, 1121.005
189.9553, 1119.352
190.4374, 1118.403
190.9196, 1118.565
191.4017, 1119.662
191.8838, 1122.009
192.3659, 1125.838
192.8480, 1128.332
193.3301, 1127.018
193.8123, 1123.016
194.2944, 1120.591
194.7765, 1121.431
195.2586, 1123.516
195.7407, 1124.560
196.2228, 1124.544
196.7050, 1124.474
197.1871, 1125.369
197.6692, 1127.156
198.1513, 1128.076
198.6334, 1127.021
199.1155, 1125.607
199.5977, 1124.972
200.0798, 1125.169
200.5619, 1125.516
201.0440, 1125.117
201.5261, 1123.723
202.0082, 1123.292
202.4904, 1125.412
202.9725, 1127.629
203.4546, 1128.812
203.9367, 1128.793
204.4188, 1128.002
204.9009, 1126.670
205.3831, 1124.208
205.8652, 1123.077
206.3473, 1124.449
206.8294, 1126.218
207.3115, 1127.424
207.7936, 1127.795
208.2758, 1127.395
208.7579, 1126.192
209.2400, 1123.548
209.7221, 1121.496
210.2042, 1119.670
210.6863, 1118.553
211.1685, 1118.911
211.6506, 1120.697
212.1327, 1122.750
212.6148, 1123.368
213.0969, 1121.654
213.5790, 1120.230
214.0612, 1119.257
214.5433, 1118.451
215.0254, 1117.512
215.5075, 1116.398
215.9896, 1115.337
216.4717, 1114.642
216.9539, 1114.316
217.4360, 1114.501
217.9181, 1115.773
218.4002, 1117.271
218.8823, 1118.117
219.3644, 1118.094
219.8466, 1117.658
220.3287, 1117.346
220.8108, 1117.145
221.2929, 1117.150
221.7750, 1117.945
222.2571, 1118.738
222.7393, 1118.080
223.2214, 1115.418
223.7035, 1112.832
224.1856, 1113.549
224.6677, 1117.280
225.1498, 1120.428
225.6320, 1121.952
226.1141, 1122.363
226.5962, 1122.351
227.0783, 1121.884
227.5604, 1121.407
228.0425, 1121.588
228.5247, 1122.238
229.0068, 1122.482
229.4889, 1122.091
229.9710, 1121.049
230.4531, 1119.143
230.9352, 1115.989
231.4174, 1112.735
231.8995, 1109.888
232.3816, 1107.553
232.8637, 1106.201
233.3458, 1106.458
233.8279, 1107.909
234.3101, 1109.390
234.7922, 1111.365
235.2743, 1112.423
235.7564, 1111.210
236.2385, 1108.638
236.7206, 1106.537
237.2028, 1106.044
237.6849, 1106.859
238.1670, 1107.861
238.6491, 1109.891
239.1312, 1110.720
239.6133, 1108.965
240.0955, 1105.652
240.5776, 1102.322
241.0597, 1099.517
241.5418, 1097.519
242.0239, 1098.022
242.5060, 1103.761
242.9882, 1108.277
243.4703, 1109.100
243.9524, 1107.749
244.4345, 1106.400
244.9166, 1106.263
245.3987, 1107.128
245.8809, 1108.073
246.3630, 1109.738
246.8451, 1110.570
247.3272, 1109.699
247.8093, 1108.020
248.2914, 1106.826
248.7736, 1106.888
249.2557, 1107.664
249.7378, 1106.876
250.2199, 1101.857
250.7020, 1098.608
251.1841, 1099.355
251.6663, 1101.783
252.1484, 1102.975
252.6305, 1101.504
253.1126, 1098.395
253.5947, 1096.860
254.0768, 1098.641
254.5590, 1100.055
255.0411, 1100.753
255.5232, 1101.027
256.0053, 1101.213
256.4874, 1101.451
256.9695, 1101.676
257.4517, 1101.728
257.9338, 1100.775
258.4159, 1100.698
258.8980, 1102.784
259.3801, 1105.196
259.8622, 1105.877
260.3444, 1104.133
260.8265, 1100.991
261.3086, 1098.379
261.7907, 1096.779
262.2728, 1094.937
262.7549, 1093.004
263.2371, 1090.724
263.7192, 1087.582
264.2013, 1083.472
264.6834, 1079.225
265.1655, 1076.061
265.6476, 1074.347
266.1298, 1073.073
266.6119, 1073.073
267.0940, 1073.035
267.5761, 1071.580
268.0582, 1068.465
268.5403, 1064.713
269.0225, 1061.432
269.5046, 1058.723
269.9867, 1056.260
270.4688, 1053.940
270.9509, 1051.939
271.4330, 1050.472
271.9152, 1049.552
272.3973, 1048.877
272.8794, 1048.061
273.3615, 1047.117
273.8436, 1047.087
274.3257, 1048.864
274.8079, 1050.936
275.2900, 1051.942
275.7721, 1051.879
276.2542, 1051.923
276.7363, 1053.211
277.2184, 1055.462
277.7006, 1056.476
278.1827, 1054.669
278.6648, 1052.870
279.1469, 1053.574
279.6290, 1056.465
280.1111, 1058.808
280.5933, 1058.763
281.0754, 1056.950
281.5575, 1055.874
282.0396, 1055.763
282.5217, 1056.099
283.0038, 1056.479
283.4860, 1056.990
283.9681, 1058.205
284.4502, 1060.795
284.9323, 1063.900
285.4144, 1065.675
285.8965, 1065.612
286.3787, 1065.533
286.8608, 1066.495
287.3429, 1068.275
287.8250, 1070.231
288.3071, 1072.534
288.7892, 1074.355
289.2714, 1074.219
289.7535, 1071.849
290.2356, 1069.986
290.7177, 1070.838
291.1998, 1073.195
291.6819, 1073.442
292.1641, 1069.854
292.6462, 1065.828
293.1283, 1065.978
293.6104, 1069.725
294.0925, 1072.035
294.5746, 1069.888
295.0568, 1065.127
295.5389, 1061.245
296.0210, 1058.603
296.5031, 1056.978
296.9852, 1057.367
297.4673, 1058.840
297.9495, 1058.549
298.4316, 1053.919
298.9137, 1047.639
299.3958, 1044.020
299.8779, 1043.651
300.3600, 1043.529
300.8422, 1041.120
301.3243, 1037.689
301.8064, 1035.529
302.2885, 1035.872
302.7706, 1036.951
303.2527, 1036.692
303.7349, 1035.010
304.2170, 1033.213
304.6991, 1031.983
305.1812, 1030.956
305.6633, 1029.555
306.1454, 1027.504
306.6276, 1025.602
307.1097, 1024.681
307.5918, 1024.689
308.0739, 1024.682
308.5560, 1024.497
309.0381, 1024.023
309.5203, 1023.115
310.0024, 1021.724
310.4845, 1020.308
310.9666, 1018.955
311.4487, 1017.761
311.9308, 1017.312
312.4130, 1018.005
312.8951, 1019.086
313.3772, 1019.781
313.8593, 1020.162
314.3414, 1020.735
314.8235, 1022.000
315.3057, 1023.632
315.7878, 1024.940
316.2699, 1026.070
316.7520, 1026.349
317.2341, 1024.639
317.7162, 1021.731
318.1984, 1019.285
318.6805, 1017.672
319.1626, 1016.979
319.6447, 1017.816
320.1268, 1020.604
320.6089, 1022.815
321.0911, 1021.908
321.5732, 1019.846
322.0553, 1019.478
322.5374, 1022.034
323.0195, 1025.349
323.5016, 1027.219
323.9838, 1027.648
324.4659, 1027.791
324.9480, 1028.193
325.4301, 1028.396
325.9122, 1027.668
326.3943, 1025.734
326.8765, 1024.087
327.3586, 1023.831
327.8407, 1024.810
328.3228, 1026.376
328.8049, 1029.077
329.2870, 1031.300
329.7692, 1031.329
330.2513, 1029.333
330.7334, 1026.853
331.2155, 1024.451
331.6976, 1022.115
332.1797, 1019.648
332.6619, 1016.781
333.1440, 1014.489
333.6261, 1014.108
334.1082, 1014.956
334.5903, 1015.479
335.0724, 1015.119
335.5546, 1014.235
336.0367, 1013.134
336.5188, 1011.780
337.0009, 1010.679
337.4830, 1010.501
337.9651, 1010.645
338.4473, 1009.984
338.9294, 1008.154
339.4115, 1005.888
339.8936, 1003.386
340.3757, 1000.765
340.8578, 999.1061
341.3400, 999.3165
341.8221, 1000.167
342.3042, 999.6880
342.7863, 997.6592
343.2684, 995.6243
343.7505, 994.3494
344.2327, 993.6225
344.7148, 993.0467
345.1969, 992.6703
345.6790, 992.0695
346.1611, 990.1451
346.6432, 987.1641
347.1254, 985.4540
347.6075, 986.7003
348.0896, 989.0167
348.5717, 990.0426
349.0538, 989.5548
349.5359, 988.6907
350.0181, 988.2578
350.5002, 988.1336
350.9823, 987.7433
351.4644, 986.6780
351.9465, 985.6658
352.4286, 985.2676
352.9108, 985.3811
353.3929, 985.5643
353.8750, 985.7285
354.3571, 985.6949
354.8392, 984.9708
355.3214, 983.2234
355.8035, 981.6448
356.2856, 980.0643
356.7677, 979.0487
357.2498, 980.2855
357.7319, 984.6367
358.2141, 989.2064
358.6962, 989.6500
359.1783, 985.2539
359.6604, 981.3937
360.1425, 978.2151
360.6246, 976.1006
361.1068, 976.0391
361.5889, 977.9142
362.0710, 979.6837
362.5531, 979.6347
363.0352, 977.7418
363.5173, 975.8544
363.9995, 973.1400
364.4816, 971.2277
364.9637, 971.4034
365.4458, 973.0406
365.9279, 974.4694
366.4100, 974.7664
366.8922, 974.3961
367.3743, 974.9119
367.8564, 978.0692
368.3385, 979.5821
368.8206, 977.5803
369.3027, 974.2083
369.7849, 971.8580
370.2670, 971.2130
370.7491, 971.5590
371.2312, 972.0113
371.7133, 972.7697
372.1954, 972.9283
372.6776, 971.8926
373.1597, 970.8040
373.6418, 970.7859
374.1239, 971.5148
374.6060, 971.4268
375.0881, 969.0400
375.5703, 964.4871
376.0524, 962.0435
376.5345, 963.6201
377.0166, 965.0540
377.4987, 965.5508
377.9808, 965.2966
378.4630, 964.3971
378.9451, 962.8917
379.4272, 961.3798
379.9093, 961.3762
380.3914, 964.2510
380.8735, 966.3901
381.3557, 968.0156
381.8378, 968.7109
382.3199, 967.5344
382.8020, 964.7233
383.2841, 962.0482
383.7662, 961.7684
384.2484, 964.4307
384.7305, 965.6082
385.2126, 963.6331
385.6947, 961.7108
386.1768, 960.6384
386.6589, 960.4009
387.1411, 960.9693
387.6232, 962.5839
388.1053, 964.5906
388.5874, 964.2331
389.0695, 959.0438
389.5516, 956.2432
390.0338, 959.2607
390.5159, 964.0780
390.9980, 966.9575
391.4801, 966.8772
391.9622, 965.7227
392.4443, 965.8508
392.9265, 967.4303
393.4086, 968.6374
393.8907, 968.2680
394.3728, 968.4662
394.8549, 971.3356
395.3370, 976.0964
395.8192, 979.6848
396.3013, 979.0153
396.7834, 975.7065
397.2655, 975.4486
397.7476, 979.4030
398.2297, 983.3925
398.7119, 984.5172
399.1940, 984.5746
399.6761, 985.9130
400.1582, 989.3754
400.6403, 993.6868
401.1224, 997.8475
401.6046, 1001.860
402.0867, 1005.036
402.5688, 1006.088
403.0509, 1007.490
403.5330, 1012.605
404.0151, 1021.503
404.4973, 1029.873
404.9794, 1034.609
405.4615, 1037.940
405.9436, 1044.684
406.4257, 1055.888
406.9078, 1066.113
407.3900, 1070.022
407.8721, 1068.789
408.3542, 1069.259
408.8363, 1073.333
409.3184, 1077.932
409.8005, 1081.202
410.2827, 1083.351
410.7648, 1085.152
411.2469, 1087.010
411.7290, 1088.592
412.2111, 1089.184
412.6932, 1089.314
413.1754, 1087.459
413.6575, 1082.127
414.1396, 1075.339
414.6217, 1068.946
415.1038, 1063.342
415.5859, 1058.369
416.0681, 1054.093
416.5502, 1050.708
417.0323, 1045.573
417.5144, 1036.987
417.9965, 1028.724
418.4786, 1022.449
418.9608, 1017.618
419.4429, 1012.847
419.9250, 1007.409
420.4071, 1001.838
420.8892, 997.6531
421.3713, 995.9684
421.8535, 994.1052
422.3356, 991.7703
422.8177, 989.3790
423.2998, 987.3089
423.7819, 985.5696
424.2640, 983.8742
424.7462, 981.8703
425.2283, 979.5017
425.7104, 977.5420
426.1925, 976.5079
426.6746, 975.3350
427.1567, 973.4408
427.6389, 971.2701
428.1210, 969.5516
428.6031, 968.6574
429.0852, 968.2799
429.5673, 967.7134
430.0494, 966.7265
430.5316, 966.3828
431.0137, 967.2756
431.4958, 968.7014
431.9779, 970.5516
432.4600, 972.7068
432.9421, 974.4570
433.4243, 975.2435
433.9064, 975.1739
434.3885, 974.4460
434.8706, 972.4476
435.3527, 971.2490
435.8348, 973.4004
436.3170, 977.0507
436.7991, 979.0079
437.2812, 977.7997
437.7633, 975.6277
438.2454, 974.7998
438.7275, 975.0143
439.2097, 974.0009
439.6918, 970.4459
440.1739, 966.1303
440.6560, 963.7795
441.1381, 963.3997
441.6202, 963.4260
442.1024, 963.9935
442.5845, 964.4366
443.0666, 963.9023
443.5487, 962.3491
444.0308, 960.4299
444.5129, 958.6193
444.9951, 956.8802
445.4772, 954.7951
445.9593, 951.4359
446.4414, 948.8658
446.9235, 948.2294
447.4056, 948.6276
447.8878, 949.0516
448.3699, 949.1199
448.8520, 948.1965
449.3341, 944.9789
449.8162, 937.6255
450.2983, 933.3789
450.7805, 933.8899
451.2626, 935.4819
451.7447, 936.8124
452.2268, 937.6083
452.7089, 937.8478
453.1910, 937.5057
453.6732, 936.6146
454.1553, 935.2462
454.6374, 932.9251
455.1195, 930.9356
455.6016, 929.7498
456.0837, 928.7654
456.5659, 927.1091
457.0480, 924.7634
457.5301, 923.1144
458.0122, 924.0497
458.4943, 927.5082
458.9764, 930.0851
459.4586, 931.3178
459.9407, 932.1622
460.4228, 933.0919
460.9049, 934.0280
461.3870, 934.7927
461.8691, 935.2001
462.3513, 935.6166
462.8334, 936.8970
463.3155, 938.9677
463.7976, 939.7213
464.2797, 937.8303
464.7618, 935.1393
465.2440, 934.0137
465.7261, 934.4482
466.2082, 935.0694
466.6903, 935.6693
467.1724, 936.0755
467.6545, 936.0794
468.1367, 935.6683
468.6188, 934.8065
469.1009, 933.1347
469.5830, 931.0914
470.0651, 930.8611
470.5472, 934.4327
471.0294, 937.0424
471.5115, 937.0130
471.9936, 935.5544
472.4757, 933.9105
472.9578, 932.4796
473.4399, 931.5001
473.9221, 931.3390
474.4042, 932.2020
474.8863, 932.6755
475.3684, 932.3954
475.8505, 932.1596
476.3326, 932.0740
476.8148, 932.2718
477.2969, 933.0785
477.7790, 934.6736
478.2611, 936.5192
478.7432, 937.4642
479.2253, 937.3510
479.7075, 936.7656
480.1896, 935.5449
480.6717, 934.0603
481.1538, 932.1339
481.6359, 930.0247
482.1180, 928.6223
482.6002, 929.2214
483.0823, 930.7517
483.5644, 929.8922
484.0465, 926.0382
484.5286, 922.0078
485.0107, 918.8719
485.4929, 916.3204
485.9750, 914.1801
486.4571, 912.6292
486.9392, 910.5597
487.4213, 906.0550
487.9034, 900.7195
488.3856, 898.7791
488.8677, 901.2648
489.3498, 904.0941
489.8319, 903.7111
490.3140, 900.2567
490.7961, 897.3718
491.2783, 895.2585
491.7604, 893.4686
492.2425, 891.5966
492.7246, 889.9324
493.2067, 889.2164
493.6888, 889.7115
494.1710, 890.5887
494.6531, 890.6201
495.1352, 889.7678
495.6173, 888.0703
496.0994, 884.0934
496.5815, 880.7808
497.0637, 880.2207
497.5458, 881.4109
498.0279, 882.0961
498.5100, 881.0007
498.9921, 878.6492
499.4742, 876.3000
499.9564, 873.9893
500.4385, 871.5850
500.9206, 867.9905
501.4027, 865.1242
501.8848, 865.0414
502.3669, 867.2098
502.8491, 868.6016
503.3312, 866.5457
503.8133, 862.3498
504.2954, 859.5878
504.7775, 858.5009
505.2596, 857.7796
505.7418, 856.9661
506.2239, 856.1255
506.7060, 855.3274
507.1881, 854.5634
507.6702, 853.9139
508.1523, 853.7060
508.6345, 853.5479
509.1166, 852.6175
509.5987, 850.7869
510.0808, 848.9749
510.5629, 847.9816
511.0450, 847.7198
511.5272, 847.0845
512.0093, 845.6213
512.4914, 844.3658
512.9735, 844.0238
513.4556, 843.8934
513.9377, 842.6162
514.4199, 839.9977
514.9020, 837.7634
515.3841, 838.5009
515.8662, 843.0633
516.3483, 844.7277
516.8304, 840.8170
517.3126, 836.7601
517.7947, 833.8308
518.2768, 831.7708
518.7589, 830.0530
519.2410, 828.4667
519.7231, 827.1794
520.2053, 826.4446
520.6874, 826.2802
521.1695, 826.5161
521.6516, 827.7977
522.1337, 828.5873
522.6158, 827.5065
523.0980, 825.1352
523.5801, 823.1262
524.0622, 822.0706
524.5443, 821.6220
525.0264, 821.7194
525.5085, 822.2310
525.9907, 822.2964
526.4728, 821.5005
526.9549, 820.4059
527.4370, 819.9421
527.9191, 820.2844
528.4012, 820.1070
528.8834, 818.9560
529.3655, 817.5276
529.8476, 816.1882
530.3297, 814.9753
530.8118, 813.9332
531.2939, 813.1015
531.7761, 812.3254
532.2582, 811.1042
532.7403, 808.2875
533.2224, 807.2070
533.7045, 809.3630
534.1866, 811.7509
534.6688, 812.8356
535.1509, 812.5612
535.6330, 811.2841
536.1151, 808.8655
536.5972, 806.0900
537.0793, 805.3604
537.5615, 807.3226
538.0436, 808.6809
538.5257, 807.8360
539.0078, 806.5132
539.4899, 806.2881
539.9720, 807.1649
540.4542, 808.0250
540.9363, 808.5989
541.4184, 808.7083
541.9005, 807.8912
542.3826, 806.1866
542.8647, 804.4523
543.3469, 803.0735
543.8290, 801.9996
544.3111, 801.0852
544.7932, 800.1699
545.2753, 799.7361
545.7574, 800.5482
546.2396, 801.3623
546.7217, 800.6747
547.2038, 798.7978
547.6859, 797.5851
548.1680, 798.4691
548.6501, 800.7919
549.1323, 801.5900
549.6144, 799.9289
550.0965, 798.3036
550.5786, 796.6569
551.0607, 795.3896
551.5428, 794.9654
552.0250, 795.2897
552.5071, 795.7437
552.9892, 795.9918
553.4713, 795.9999
553.9534, 795.5667
554.4355, 794.5776
554.9177, 793.7439
555.3998, 793.5619
555.8819, 793.5167
556.3640, 792.8441
556.8461, 791.4417
557.3282, 790.1691
557.8104, 789.2228
558.2925, 788.6534
558.7746, 788.7139
559.2567, 789.3176
559.7388, 789.7862
560.2209, 789.6599
560.7031, 789.1953
561.1852, 789.2217
561.6673, 791.1634
562.1494, 791.5318
562.6315, 788.4583
563.1136, 785.2255
563.5958, 784.7864
564.0779, 786.5885
564.5600, 787.7572
565.0421, 786.1107
565.5242, 782.6033
566.0063, 780.3674
566.4885, 779.5672
566.9706, 779.5895
567.4527, 781.8997
567.9348, 783.7750
568.4169, 782.4147
568.8990, 778.3082
569.3812, 775.4932
569.8633, 777.4387
570.3454, 781.2068
570.8275, 782.6025
571.3096, 781.7006
571.7917, 779.9746
572.2739, 777.6087
572.7560, 775.4208
573.2381, 775.0836
573.7202, 777.1515
574.2023, 778.7502
574.6844, 779.9915
575.1666, 780.3673
575.6487, 778.7049
576.1308, 775.8883
576.6129, 774.2135
577.0950, 774.9145
577.5771, 776.9142
578.0593, 777.8079
578.5414, 777.1423
579.0235, 776.5975
579.5056, 776.3825
579.9877, 776.1715
580.4698, 775.5114
580.9520, 774.7562
581.4341, 774.8344
581.9162, 776.5283
582.3983, 778.4547
582.8804, 778.1970
583.3625, 776.0645
583.8447, 775.6707
584.3268, 778.4980
584.8089, 781.7919
585.2910, 782.3314
585.7731, 780.4542
586.2552, 779.6760
586.7374, 781.5273
587.2195, 783.2680
587.7016, 783.3116
588.1837, 782.3216
588.6658, 781.2841
589.1479, 780.5466
589.6301, 780.3528
590.1122, 781.0450
590.5943, 782.6941
591.0764, 784.5881
591.5585, 788.2197
592.0406, 790.2758
592.5228, 788.5126
593.0049, 785.4524
593.4870, 783.8980
593.9691, 784.5806
594.4512, 786.6833
594.9333, 790.0037
595.4155, 794.1973
595.8976, 797.7004
596.3797, 800.3375
596.8618, 802.7529
597.3439, 805.9745
597.8260, 808.8897
598.3082, 808.8691
598.7903, 804.6576
599.2724, 800.7110
599.7545, 798.8449
600.2366, 797.7147
600.7188, 795.7164
601.2009, 792.8987
601.6830, 790.5667
602.1651, 789.6510
602.6472, 789.7379
603.1293, 789.3654
603.6115, 788.8712
604.0936, 787.2190
604.5757, 782.6205
605.0578, 778.4763
605.5399, 777.3341
606.0220, 778.5667
606.5042, 779.7009
606.9863, 779.3705
607.4684, 778.1985
607.9505, 777.1874
608.4326, 776.3240
608.9147, 775.1101
609.3969, 773.3494
609.8790, 771.3184
610.3611, 769.0250
610.8432, 766.5344
611.3253, 765.0118
611.8074, 765.2365
612.2896, 765.7742
612.7717, 765.5068
613.2538, 765.1429
613.7359, 766.3291
614.2180, 769.4172
614.7001, 772.4839
615.1823, 773.0562
615.6644, 770.9469
616.1465, 770.2637
616.6286, 772.5641
617.1107, 774.1458
617.5928, 773.1586
618.0750, 771.5529
618.5571, 771.4716
619.0392, 773.2822
619.5213, 775.4414
620.0034, 776.5481
620.4855, 777.2271
620.9677, 778.9100
621.4498, 781.6713
621.9319, 785.0665
622.4140, 789.2352
622.8961, 793.5297
623.3782, 796.5508
623.8604, 798.1688
624.3425, 799.1430
624.8246, 798.5532
625.3067, 798.2222
625.7888, 799.8033
626.2709, 802.6391
626.7531, 805.3661
627.2352, 807.3387
627.7173, 807.8563
628.1994, 805.0391
628.6815, 797.9939
629.1636, 792.5950
629.6458, 790.6681
630.1279, 788.4754
630.6100, 783.6705
631.0921, 777.4655
631.5742, 771.9772
632.0563, 767.7327
632.5385, 764.2605
633.0206, 761.1078
633.5027, 758.5214
633.9848, 757.4336
634.4669, 757.9254
634.9490, 757.9871
635.4312, 756.0680
635.9133, 752.5898
636.3954, 749.5047
636.8775, 746.4772
637.3596, 744.3845
637.8417, 744.1289
638.3239, 744.1165
638.8060, 743.4058
639.2881, 741.9039
639.7702, 739.6205
640.2523, 736.2548
640.7344, 732.9052
641.2166, 732.2845
641.6987, 734.5652
642.1808, 735.3599
642.6629, 733.1083
643.1450, 730.3080
643.6271, 729.1619
644.1093, 729.3202
644.5914, 729.6836
645.0735, 730.6996
645.5556, 731.2119
646.0377, 730.2433
646.5198, 728.6251
647.0020, 727.3881
647.4841, 726.8030
647.9662, 726.9177
648.4483, 727.8723
648.9304, 729.5174
649.4125, 730.9613
649.8947, 732.9648
650.3768, 733.2545
650.8589, 729.8796
651.3410, 725.9910
651.8231, 723.9003
652.3052, 723.4417
652.7874, 722.8380
653.2695, 720.8239
653.7516, 718.5820
654.2337, 717.5847
654.7158, 717.6619
655.1979, 718.1368
655.6801, 718.8793
656.1622, 719.6335
656.6443, 720.2531
657.1264, 720.7859
657.6085, 720.1757
658.0906, 716.8943
658.5728, 714.5492
659.0549, 714.8545
659.5370, 715.9861
660.0191, 715.9664
660.5012, 714.5773
660.9833, 713.0275
661.4655, 712.4156
661.9476, 711.0961
662.4297, 711.3350
662.9118, 709.2419
663.3939, 707.6429
663.8760, 706.9625
664.3582, 707.0654
664.8403, 708.3846
665.3224, 710.7747
665.8045, 711.7753
666.2866, 709.5585
666.7687, 707.3639
667.2509, 707.3899
667.7330, 708.5177
668.2151, 708.8571
668.6972, 707.9223
669.1793, 706.4216
669.6614, 704.8772
670.1436, 703.3844
670.6257, 703.4806
671.1078, 706.4288
671.5899, 708.3510
672.0720, 707.2443
672.5541, 705.3431
673.0363, 704.3627
673.5184, 704.3351
674.0005, 704.2969
674.4826, 703.7404
674.9647, 703.0573
675.4468, 702.6851
675.9290, 702.5123
676.4111, 702.2652
676.8932, 701.8654
677.3753, 701.1154
677.8574, 699.6837
678.3395, 697.5204
678.8217, 695.9971
679.3038, 695.5849
679.7859, 695.2459
680.2680, 694.9462
680.7501, 694.5640
681.2322, 693.8051
681.7144, 692.7692
682.1965, 692.1201
682.6786, 692.4318
683.1607, 693.3044
683.6428, 694.4199
684.1249, 695.6602
684.6071, 695.8174
685.0892, 694.3314
685.5713, 692.3386
686.0534, 691.0089
686.5355, 690.3568
687.0176, 690.3104
687.4998, 691.1250
687.9819, 692.1496
688.4640, 693.8018
688.9461, 695.2181
689.4282, 695.3923
689.9103, 694.3293
690.3925, 692.9274
690.8746, 691.7800
691.3567, 690.8588
691.8388, 690.1711
692.3209, 689.7327
692.8030, 689.1800
693.2852, 688.3674
693.7673, 687.5126
694.2494, 686.7893
694.7315, 686.2090
695.2136, 685.8466
695.6957, 686.0739
696.1779, 686.0748
696.6600, 685.5028
697.1421, 684.5999
697.6242, 683.2388
698.1063, 681.6970
698.5884, 681.1273
699.0706, 682.6701
699.5527, 685.3504
700.0348, 686.2883
700.5169, 685.2311
700.9990, 683.9810
701.4811, 682.7453
701.9633, 681.5984
702.4454, 680.2223
702.9275, 678.9210
703.4096, 678.8806
703.8917, 681.5042
704.3738, 683.6906
704.8560, 684.0134
705.3381, 683.2842
705.8202, 682.0465
706.3023, 680.6567
706.7844, 680.1082
707.2665, 681.2589
707.7487, 683.0792
708.2308, 682.3471
708.7129, 678.2028
709.1950, 675.5491
709.6771, 675.3809
710.1592, 676.2786
710.6414, 678.4169
711.1235, 680.7653
711.6056, 680.8108
712.0877, 676.9725
712.5698, 673.5847
713.0519, 673.2225
713.5341, 674.1846
714.0162, 674.8092
714.4983, 674.8194
714.9804, 673.9764
715.4625, 672.0382
715.9446, 669.9190
716.4268, 669.7623
716.9089, 672.1649
717.3910, 673.8517
717.8731, 674.5543
718.3552, 674.7668
718.8373, 674.3952
719.3195, 673.8395
719.8016, 673.6383
720.2837, 673.8586
720.7658, 674.4815
721.2479, 676.2202
721.7300, 677.8438
722.2122, 677.8866
722.6943, 676.5743
723.1764, 674.9002
723.6585, 673.2906
724.1406, 671.7354
724.6227, 670.0865
725.1049, 668.1894
725.5870, 667.6697
726.0691, 669.5144
726.5512, 671.1420
727.0333, 671.6791
727.5154, 671.5823
727.9976, 671.0302
728.4797, 670.0769
728.9618, 669.5814
729.4439, 669.7585
729.9260, 670.6728
730.4081, 673.3934
730.8903, 676.7743
731.3724, 677.9668
731.8545, 676.2059
732.3366, 673.0963
732.8187, 670.0826
733.3008, 667.2663
733.7830, 665.8364
734.2651, 666.2113
734.7472, 667.0840
735.2293, 668.9421
735.7114, 670.5724
736.1935, 670.8546
736.6757, 670.0717
737.1578, 669.5958
737.6399, 669.8851
738.1220, 670.5482
738.6041, 672.2507
739.0862, 673.7821
739.5684, 672.4104
740.0505, 668.2704
740.5326, 664.8789
741.0147, 664.9105
741.4968, 667.1677
741.9789, 667.8229
742.4611, 666.1085
742.9432, 665.7087
743.4253, 668.3514
743.9074, 670.6025
744.3895, 669.8141
744.8716, 667.4969
745.3538, 666.6373
745.8359, 668.3177
746.3180, 669.4100
746.8001, 667.6226
747.2822, 665.2047
747.7643, 664.7515
748.2465, 665.8196
748.7286, 666.3558
749.2107, 665.4261
749.6928, 663.8783
750.1749, 663.1317
750.6570, 663.2733
751.1392, 662.0460
751.6213, 658.2350
752.1034, 655.8973
752.5855, 658.0853
753.0676, 661.5717
753.5497, 662.2157
754.0319, 659.8810
754.5140, 657.8846
754.9961, 657.2526
755.4782, 656.9258
755.9603, 656.0823
756.4424, 655.2042
756.9246, 655.3541
757.4067, 656.5591
757.8888, 657.4683
758.3709, 656.8572
758.8530, 655.1317
759.3351, 653.4625
759.8173, 651.7524
760.2994, 651.0567
760.7815, 652.0378
761.2636, 653.3191
761.7457, 653.7413
762.2278, 653.4682
762.7100, 653.3657
763.1921, 654.0256
763.6742, 653.9726
764.1563, 652.0430
764.6384, 649.9518
765.1205, 649.2910
765.6027, 649.6953
766.0848, 649.7852
766.5669, 648.9000
767.0490, 647.8215
767.5311, 647.5922
768.0132, 648.0887
768.4954, 648.7787
768.9775, 649.7064
769.4596, 650.0654
769.9417, 649.2027
770.4238, 647.9462
770.9059, 647.8859
771.3881, 649.5948
771.8702, 650.1411
772.3523, 648.5704
772.8344, 647.0117
773.3165, 645.9573
773.7986, 645.4392
774.2808, 645.7905
774.7629, 646.8345
775.2450, 647.3820
775.7271, 646.2392
776.2092, 644.5367
776.6913, 643.8434
777.1735, 644.0526
777.6556, 644.9969
778.1377, 646.6835
778.6198, 647.9802
779.1019, 647.8322
779.5840, 646.5402
780.0662, 645.6618
780.5483, 645.6082
781.0304, 645.1811
781.5125, 643.9677
781.9946, 642.7175
782.4767, 641.0930
782.9589, 639.8651
783.4410, 640.8153
783.9231, 644.8978
784.4052, 648.4808
784.8873, 649.2664
785.3694, 648.4433
785.8516, 647.2098
786.3337, 645.6843
786.8158, 643.6488
787.2979, 641.0314
787.7800, 638.6146
788.2621, 637.4606
788.7443, 637.5441
789.2264, 637.8033
789.7085, 638.3145
790.1906, 638.8092
790.6727, 639.3806
791.1548, 639.7383
791.6370, 639.7375
792.1191, 639.3384
792.6012, 638.1767
793.0833, 635.1815
793.5654, 632.6708
794.0475, 632.0123
794.5297, 631.9249
795.0118, 630.9372
795.4939, 629.1984
795.9760, 627.8604
796.4581, 627.5705
796.9402, 627.8678
797.4224, 628.2328
797.9045, 628.6143
798.3866, 628.6061
798.8687, 628.1326
799.3508, 627.5588
799.8329, 626.8610
800.3151, 626.5286
800.7972, 627.7953
801.2793, 631.7809
801.7614, 632.8975
802.2435, 628.6366
802.7256, 624.8776
803.2078, 623.5969
803.6899, 623.4834
804.1720, 623.3587
804.6541, 622.9808
805.1362, 622.2283
805.6183, 620.2789
806.1005, 618.8278
806.5826, 620.7701
807.0647, 624.3319
807.5468, 624.9703
808.0289, 622.2100
808.5110, 619.7402
808.9932, 620.3278
809.4753, 618.1545
809.9574, 616.8184
810.4395, 617.1736
810.9216, 614.7504
811.4037, 615.9183
811.8859, 617.4623
812.3680, 618.5016
812.8501, 618.6061
813.3322, 616.5090
813.8143, 611.5967
814.2964, 608.6756
814.7786, 610.3415
815.2607, 612.6868
815.7428, 613.3799
816.2249, 613.3527
816.7070, 614.3099
817.1891, 616.3546
817.6713, 617.9407
818.1534, 617.7914
818.6355, 616.5955
819.1176, 615.5889
819.5997, 614.7427
820.0818, 613.8150
820.5640, 612.7424
821.0461, 611.6790
821.5282, 610.5759
822.0103, 609.7372
822.4924, 610.2199
822.9745, 613.3791
823.4567, 614.8312
823.9388, 613.5502
824.4209, 611.7629
824.9030, 609.6279
825.3851, 607.7568
825.8672, 606.8831
826.3494, 607.1091
826.8315, 608.0406
827.3136, 609.8487
827.7957, 611.9599
828.2778, 614.7410
828.7599, 617.1877
829.2421, 616.8743
829.7242, 613.7866
830.2063, 610.9680
830.6884, 610.8605
831.1705, 612.2252
831.6526, 611.7914
832.1348, 609.4794
832.6169, 607.8381
833.0990, 607.2231
833.5811, 607.1119
834.0632, 607.3861
834.5453, 607.8105
835.0275, 607.8913
835.5096, 607.5964
835.9917, 606.9935
836.4738, 605.5682
836.9559, 604.4318
837.4380, 604.0319
837.9202, 604.1071
838.4023, 604.5511
838.8844, 605.2258
839.3665, 605.5685
839.8486, 605.0285
840.3307, 604.3483
840.8129, 604.6211
841.2950, 605.2099
841.7771, 604.4152
842.2592, 602.2957
842.7413, 600.9677
843.2234, 601.8544
843.7056, 603.7908
844.1877, 604.4803
844.6698, 603.8658
845.1519, 602.4941
845.6340, 599.8454
846.1161, 598.0323
846.5983, 598.5661
847.0804, 599.7844
847.5625, 598.9565
848.0446, 595.8613
848.5267, 594.4794
849.0089, 597.0992
849.4910, 598.7003
849.9731, 596.5280
850.4552, 593.7922
850.9373, 593.8920
851.4194, 596.1411
851.9016, 597.2551
852.3837, 595.4937
852.8658, 593.3970
853.3479, 593.5723
853.8300, 594.8547
854.3121, 595.1133
854.7943, 594.4156
855.2764, 594.0572
855.7585, 594.6031
856.2406, 595.1345
856.7227, 594.2861
857.2048, 592.2219
857.6870, 591.0833
858.1691, 591.0126
858.6512, 591.4806
859.1333, 593.1090
859.6154, 594.0094
860.0975, 591.7933
860.5797, 587.2424
861.0618, 584.7784
861.5439, 585.1511
862.0260, 586.2955
862.5081, 588.7724
862.9902, 591.1881
863.4724, 592.8654
863.9545, 593.8619
864.4366, 594.3385
864.9187, 594.3458
865.4008, 594.0339
865.8829, 593.2250
866.3651, 592.3767
866.8472, 592.0004
867.3293, 592.0051
867.8114, 592.3508
868.2935, 592.9206
868.7756, 593.0579
869.2578, 592.2655
869.7399, 590.6904
870.2220, 588.2348
870.7041, 584.7751
871.1862, 583.4531
871.6683, 585.0887
872.1505, 586.8018
872.6326, 587.0613
873.1147, 586.6313
873.5968, 586.9806
874.0789, 588.5529
874.5610, 588.4596
875.0432, 585.3326
875.5253, 582.4308
876.0074, 579.7945
876.4895, 578.2293
876.9716, 579.1778
877.4537, 581.8533
877.9359, 583.3102
878.4180, 582.0570
878.9001, 580.6905
879.3822, 581.2535
879.8643, 582.2262
880.3464, 581.7974
880.8286, 580.2444
881.3107, 578.5121
881.7928, 577.0101
882.2749, 576.1225
882.7570, 576.4094
883.2391, 577.5817
883.7213, 578.7471
884.2034, 579.9167
884.6855, 581.3756
885.1676, 583.2611
885.6497, 585.0323
886.1318, 586.5301
886.6140, 587.3026
887.0961, 585.5582
887.5782, 579.6622
888.0603, 575.4714
888.5424, 574.1028
889.0245, 572.9448
889.5067, 570.2086
889.9888, 567.5658
890.4709, 567.4272
890.9530, 569.8397
891.4351, 571.2509
891.9172, 570.1671
892.3994, 568.9027
892.8815, 568.0167
893.3636, 567.6766
893.8457, 568.5427
894.3278, 570.0632
894.8099, 570.6639
895.2921, 569.6024
895.7742, 568.1345
896.2563, 567.5950
896.7384, 567.3668
897.2205, 566.2465
897.7026, 564.4347
898.1848, 562.6309
898.6669, 561.1131
899.1490, 560.8920
899.6311, 563.3358
900.1132, 567.3500
900.5953, 568.3045
901.0775, 565.8083
901.5596, 564.9637
902.0417, 567.0646
902.5238, 568.8637
903.0059, 568.2932
903.4880, 566.3214
903.9702, 564.8162
904.4523, 563.6832
904.9344, 563.4084
905.4165, 565.7219
905.8986, 566.6391
906.3807, 563.2560
906.8629, 559.7223
907.3450, 560.6497
907.8271, 564.8485
908.3092, 566.5800
908.7913, 562.8990
909.2734, 559.6677
909.7556, 559.7750
910.2377, 561.2148
910.7198, 563.2184
911.2019, 564.8508
911.6840, 564.1316
912.1661, 560.7496
912.6483, 557.6783
913.1304, 557.6599
913.6125, 559.2188
914.0946, 560.5825
914.5767, 561.4656
915.0588, 560.1557
915.5410, 556.7234
916.0231, 555.0567
916.5052, 557.8561
916.9873, 562.3987
917.4694, 563.0258
917.9515, 559.5382
918.4337, 557.7828
918.9158, 558.1346
919.3979, 558.7333
919.8800, 559.3672
920.3621, 559.1087
920.8442, 556.4444
921.3264, 551.7663
921.8085, 549.3521
922.2906, 550.9705
922.7727, 551.9620
923.2548, 551.7371
923.7369, 551.2989
924.2191, 550.9009
924.7012, 550.6844
925.1833, 550.9964
925.6654, 551.9120
926.1475, 552.3723
926.6296, 551.3546
927.1118, 550.6396
927.5939, 551.6498
928.0760, 553.0652
928.5581, 553.5105
929.0402, 552.9539
929.5223, 551.7308
930.0045, 549.7796
930.4866, 548.6110
930.9687, 550.4664
931.4508, 553.4515
931.9329, 554.5543
932.4150, 554.1296
932.8972, 553.8017
933.3793, 553.9916
933.8614, 553.7581
934.3435, 551.9789
934.8256, 549.9063
935.3077, 551.5917
935.7899, 556.5991
936.2720, 558.1779
936.7541, 555.3746
937.2362, 551.6055
937.7183, 548.1703
938.2004, 545.8650
938.6826, 546.1827
939.1647, 549.2097
939.6468, 550.8713
940.1289, 550.7466
940.6110, 550.2748
941.0931, 549.6742
941.5753, 548.8489
942.0574, 547.4389
942.5395, 545.8063
943.0216, 544.9672
943.5037, 545.2753
943.9858, 545.3136
944.4680, 544.2383
944.9501, 543.7721
945.4322, 545.2844
945.9143, 547.2013
946.3964, 548.2177
946.8785, 548.1204
947.3607, 546.6912
947.8428, 542.8925
948.3249, 539.8279
948.8070, 539.4520
949.2891, 540.3301
949.7712, 541.9850
950.2534, 543.5602
950.7355, 543.1689
951.2176, 540.6267
951.6997, 538.6104
952.1818, 539.2054
952.6639, 541.3338
953.1461, 544.6381
953.6282, 548.0393
954.1103, 548.5468
954.5924, 546.2415
955.0745, 543.6474
955.5566, 541.9938
956.0388, 540.9042
956.5209, 539.7260
957.0030, 538.6587
957.4851, 539.0647
957.9672, 540.9344
958.4493, 541.8770
958.9315, 541.2570
959.4136, 540.4300
959.8957, 540.3458
960.3778, 540.8519
960.8599, 541.7181
961.3420, 543.2332
961.8242, 543.3904
962.3063, 541.1714
962.7884, 540.2345
963.2705, 542.8992
963.7526, 545.7859
964.2347, 544.8645
964.7169, 540.8956
965.1990, 539.4887
965.6811, 542.9235
966.1632, 545.4525
966.6453, 546.7577
967.1274, 547.5126
967.6096, 547.9946
968.0917, 548.0942
968.5738, 547.3055
969.0559, 545.7134
969.5380, 545.0760
970.0201, 546.4774
970.5023, 548.0103
970.9844, 548.9909
971.4665, 549.8482
971.9486, 550.9523
972.4307, 552.2142
972.9128, 553.3641
973.3950, 554.3375
973.8771, 555.4285
974.3592, 556.8837
974.8413, 558.4759
975.3234, 559.6306
975.8055, 561.0042
976.2877, 563.6296
976.7698, 567.4620
977.2519, 571.8901
977.7340, 576.6414
978.2161, 581.5703
978.6982, 586.1635
979.1804, 590.9867
979.6625, 597.2590
980.1446, 604.6621
980.6267, 611.7419
981.1088, 618.3876
981.5909, 626.8848
982.0731, 638.9833
982.5552, 652.7811
983.0373, 665.0119
983.5194, 675.8612
984.0015, 686.6250
984.4836, 697.3915
984.9658, 709.3669
985.4479, 723.2285
985.9300, 735.9070
986.4121, 744.8351
986.8942, 749.9316
987.3763, 750.9305
987.8585, 747.9643
988.3406, 739.5040
988.8227, 724.4968
989.3048, 707.1423
989.7869, 688.6770
990.2690, 669.6072
990.7512, 650.2267
991.2333, 630.7275
991.7154, 614.0133
992.1975, 600.6786
992.6796, 588.8052
993.1617, 577.6237
993.6439, 568.8253
994.1260, 564.5330
994.6081, 562.2637
995.0902, 558.0899
995.5723, 551.8836
996.0544, 547.6779
996.5366, 547.7491
997.0187, 546.7567
997.5008, 542.9058
997.9829, 538.7155
998.4650, 535.5714
998.9471, 533.1834
999.4293, 530.9330
999.9114, 528.7123
1000.393, 527.0651
1000.876, 526.8416
1001.358, 526.3357
1001.840, 524.1193
1002.322, 521.9340
1002.804, 521.6734
1003.286, 522.6525
1003.768, 522.9211
1004.250, 521.8952
1004.733, 521.1685
1005.215, 522.2872
1005.697, 523.2800
1006.179, 522.4973
1006.661, 520.8173
1007.143, 518.8710
1007.625, 517.1886
1008.107, 517.0632
1008.589, 519.1863
1009.072, 520.8951
1009.554, 519.8240
1010.036, 517.2235
1010.518, 513.4246
1011.000, 509.6670
1011.482, 508.8731
1011.964, 510.8054
1012.446, 511.9790
1012.929, 510.4029
1013.411, 508.2668
1013.893, 508.2725
1014.375, 509.5751
1014.857, 510.6821
1015.339, 511.5333
1015.821, 512.2375
1016.303, 512.7683
1016.785, 512.6710
1017.268, 511.5602
1017.750, 510.1360
1018.232, 509.7408
1018.714, 510.0132
1019.196, 509.3275
1019.678, 507.7487
1020.160, 506.1875
1020.642, 504.8949
1021.125, 504.1051
1021.607, 504.0338
1022.089, 504.4548
1022.571, 504.9130
1023.053, 505.4048
1023.535, 505.8270
1024.017, 506.1774
1024.499, 506.5142
1024.981, 506.9218
1025.464, 506.7835
1025.946, 505.4077
1026.428, 503.2981
1026.910, 501.9980
1027.392, 501.5397
1027.874, 501.6220
1028.356, 502.2816
1028.838, 503.4124
1029.321, 505.3111
1029.803, 506.6993
1030.285, 506.3212
1030.767, 504.3899
1031.249, 501.5150
1031.731, 496.6498
1032.213, 495.2251
1032.695, 499.2263
1033.177, 501.7608
1033.660, 499.4184
1034.142, 496.0793
1034.624, 495.8154
1035.106, 498.1281
1035.588, 500.0195
1036.070, 501.9075
1036.552, 502.2568
1037.034, 499.7460
1037.516, 497.9733
1037.999, 498.9890
1038.481, 500.6111
1038.963, 500.5082
1039.445, 498.8826
1039.927, 497.2676
1040.409, 494.8909
1040.891, 493.9018
1041.373, 495.1719
1041.855, 496.7304
1042.338, 498.1198
1042.820, 499.2626
1043.302, 500.1916
1043.784, 500.8505
1044.266, 500.8207
1044.748, 499.5238
1045.230, 498.4971
1045.712, 497.6210
1046.195, 497.2711
1046.677, 498.1636
1047.159, 499.2537
1047.641, 499.5446
1048.123, 499.0092
1048.605, 497.8093
1049.087, 495.4053
1049.569, 493.3392
1050.052, 491.0594
1050.534, 490.0701
1051.016, 492.2335
1051.498, 495.2216
1051.980, 496.3541
1052.462, 495.7813
1052.944, 495.4722
1053.426, 495.4202
1053.908, 496.3672
1054.391, 500.1715
1054.873, 503.0567
1055.355, 502.6790
1055.837, 500.6661
1056.319, 498.1181
1056.801, 495.6510
1057.283, 495.2373
1057.765, 498.3768
1058.248, 501.1190
1058.730, 501.6245
1059.212, 502.2309
1059.694, 505.4926
1060.176, 508.6950
1060.658, 508.1901
1061.140, 504.5260
1061.622, 501.3310
1062.104, 499.5325
1062.587, 498.4206
1063.069, 497.5604
1063.551, 497.5313
1064.033, 499.4890
1064.515, 501.8912
1064.997, 502.9560
1065.479, 502.7836
1065.961, 502.4167
1066.443, 501.9253
1066.926, 502.0808
1067.408, 503.3965
1067.890, 505.2158
1068.372, 507.2460
1068.854, 509.5002
1069.336, 512.2259
1069.818, 515.2034
1070.300, 517.8488
1070.782, 520.0687
1071.265, 521.6324
1071.747, 521.4012
1072.229, 521.7014
1072.711, 524.9362
1073.193, 528.6863
1073.675, 530.1490
1074.157, 529.7218
1074.639, 529.3748
1075.122, 529.7067
1075.604, 529.7349
1076.086, 528.9527
1076.568, 527.8099
1077.050, 526.5391
1077.532, 525.0666
1078.014, 523.5267
1078.496, 521.6707
1078.979, 518.6717
1079.461, 514.2252
1079.943, 510.4891
1080.425, 508.9854
1080.907, 507.8356
1081.389, 506.2488
1081.871, 504.3352
1082.353, 502.1019
1082.835, 499.6806
1083.318, 497.0310
1083.800, 494.1730
1084.282, 492.5067
1084.764, 493.9630
1085.246, 495.0609
1085.728, 493.5501
1086.210, 491.4112
1086.692, 490.5514
1087.175, 490.2739
1087.657, 488.7126
1088.139, 485.7090
1088.621, 483.9569
1089.103, 485.6011
1089.585, 487.1952
1090.067, 487.6095
1090.549, 487.0516
1091.031, 484.6644
1091.514, 481.9457
1091.996, 481.2475
1092.478, 482.6676
1092.960, 484.1709
1093.442, 485.3266
1093.924, 486.0033
1094.406, 486.2497
1094.888, 485.9055
1095.370, 484.6542
1095.853, 482.8950
1096.335, 480.9326
1096.817, 478.9211
1097.299, 477.3585
1097.781, 476.7360
1098.263, 475.6516
1098.745, 472.2350
1099.227, 469.9389
1099.709, 471.6656
1100.192, 474.6080
1100.674, 475.7118
1101.156, 475.3058
1101.638, 475.6196
1102.120, 477.7456
1102.602, 477.9863
1103.084, 473.0473
1103.566, 469.1226
1104.049, 469.6085
1104.531, 471.2485
1105.013, 471.4476
1105.495, 470.4906
1105.977, 469.0852
1106.459, 466.9190
1106.941, 467.0314
1107.423, 472.6579
1107.906, 476.8161
1108.388, 476.9394
1108.870, 475.7588
1109.352, 474.6726
1109.834, 473.6823
1110.316, 472.7133
1110.798, 471.7675
1111.280, 470.5938
1111.762, 468.1991
1112.245, 467.0482
1112.727, 468.9678
1113.209, 470.4424
1113.691, 469.2227
1114.173, 466.9604
1114.655, 465.6223
1115.137, 465.1770
1115.619, 465.0731
1116.102, 465.5774
1116.584, 465.9550
1117.066, 466.4567
1117.548, 466.4122
1118.030, 465.0752
1118.512, 463.6352
1118.994, 463.1406
1119.476, 463.4965
1119.958, 464.4491
1120.441, 466.6457
1120.923, 467.2635
1121.405, 465.3741
1121.887, 464.0386
1122.369, 464.6465
1122.851, 464.7589
1123.333, 461.8416
1123.815, 457.9643
1124.297, 458.0215
1124.780, 462.4575
1125.262, 464.9837
1125.744, 465.0463
1126.226, 465.2859
1126.708, 466.3852
1127.190, 466.8042
1127.672, 465.4239
1128.154, 463.6185
1128.636, 463.5659
1129.119, 462.4438
1129.601, 461.8209
1130.083, 462.1283
1130.565, 461.3376
1131.047, 462.7448
1131.529, 463.7989
1132.011, 463.4780
1132.493, 462.3387
1132.976, 460.7350
1133.458, 459.1802
1133.940, 459.5694
1134.422, 461.6598
1134.904, 462.3066
1135.386, 461.4145
1135.868, 459.7645
1136.350, 457.6037
1136.833, 456.2796
1137.315, 456.8620
1137.797, 458.0240
1138.279, 457.0031
1138.761, 457.9274
1139.243, 458.6126
1139.725, 458.2773
1140.207, 459.8182
1140.689, 459.6512
1141.172, 458.9194
1141.654, 458.1707
1142.136, 457.1211
1142.618, 455.0633
1143.100, 452.9727
1143.582, 452.8623
1144.064, 452.1244
1144.546, 453.7935
1145.029, 453.0299
1145.511, 453.3823
1145.993, 455.1259
1146.475, 455.7880
1146.957, 453.1512
1147.439, 450.1559
1147.921, 449.7863
1148.403, 450.6212
1148.885, 451.0297
1149.368, 451.3248
1149.850, 452.6245
1150.332, 454.6471
1150.814, 455.5870
1151.296, 454.5123
1151.778, 453.4308
1152.260, 453.6229
1152.742, 454.1346
1153.224, 454.8762
1153.707, 455.1478
1154.189, 453.8894
1154.671, 451.6793
1155.153, 449.8581
1155.635, 448.6914
1156.117, 447.7882
1156.599, 446.6823
1157.081, 446.3108
1157.563, 447.4811
1158.046, 448.9074
1158.528, 450.2758
1159.010, 451.1167
1159.492, 450.2097
1159.974, 447.9400
1160.456, 447.7427
1160.938, 451.8136
1161.420, 454.2234
1161.903, 454.0704
1162.385, 453.1609
1162.867, 451.1327
1163.349, 449.5011
1163.831, 449.6196
1164.313, 450.8926
1164.795, 451.8740
1165.277, 452.5029
1165.760, 453.4508
1166.242, 455.0291
1166.724, 455.8527
1167.206, 455.4599
1167.688, 455.1499
1168.170, 455.7103
1168.652, 456.3386
1169.134, 456.0182
1169.616, 454.8668
1170.099, 453.3314
1170.581, 451.4037
1171.063, 449.2668
1171.545, 446.9142
1172.027, 446.6581
1172.509, 449.2345
1172.991, 451.6413
1173.473, 451.5583
1173.956, 452.2713
1174.438, 449.8856
1174.920, 449.9388
1175.402, 447.2411
1175.884, 442.9445
1176.366, 441.7072
1176.848, 443.5861
1177.330, 444.9655
1177.813, 444.3094
1178.295, 443.1132
1178.777, 442.5779
1179.259, 442.3889
1179.741, 442.3886
1180.223, 442.3173
1180.705, 441.4192
1181.187, 440.2853
1181.669, 440.5990
1182.151, 442.2355
1182.634, 442.8331
1183.116, 441.0825
1183.598, 439.0522
1184.080, 437.4547
1184.562, 436.5631
1185.044, 437.1890
1185.526, 438.0895
1186.008, 437.5940
1186.490, 436.4185
1186.973, 436.8331
1187.455, 439.3648
1187.937, 440.4105
1188.419, 437.5183
1188.901, 435.6952
1189.383, 437.0026
1189.865, 438.3101
1190.347, 437.8034
1190.830, 436.6813
1191.312, 436.1097
1191.794, 436.0463
1192.276, 436.3256
1192.758, 437.1997
1193.240, 437.5580
1193.722, 437.3182
1194.204, 436.7659
1194.687, 435.8702
1195.169, 434.9958
1195.651, 434.3920
1196.133, 433.8474
1196.615, 432.8597
1197.097, 431.6898
1197.579, 432.3499
1198.061, 432.1538
1198.543, 432.3619
1199.026, 433.7313
1199.508, 433.4026
1199.990, 435.1665
1200.472, 436.1236
1200.954, 433.7198
1201.436, 434.6281
1201.918, 430.8963
1202.400, 432.9576
1202.883, 432.5669
1203.365, 430.7865
1203.847, 430.2417
1204.329, 431.0865
1204.811, 432.6064
1205.293, 434.4420
1205.775, 434.7988
1206.257, 431.2892
1206.740, 427.4843
1207.222, 425.5651
1207.704, 424.9140
1208.186, 425.8094
1208.668, 427.0928
1209.150, 426.9977
1209.632, 425.6687
1210.114, 424.7137
1210.596, 424.3366
1211.078, 424.8535
1211.561, 427.5786
1212.043, 429.4796
1212.525, 428.5630
1213.007, 427.7324
1213.489, 430.0131
1213.971, 432.6227
1214.453, 430.4421
1214.935, 423.9269
1215.417, 421.9422
1215.900, 426.4051
1216.382, 427.8636
1216.864, 425.0817
1217.346, 422.4749
1217.828, 421.3429
1218.310, 421.2021
1218.792, 421.7799
1219.274, 422.7429
1219.757, 423.7134
1220.239, 424.4884
1220.721, 423.7221
1221.203, 421.8148
1221.685, 420.6659
1222.167, 420.4833
1222.649, 421.2132
1223.131, 422.6546
1223.614, 423.0018
1224.096, 420.4525
1224.578, 417.5741
1225.060, 416.7250
1225.542, 417.5476
1226.024, 421.4804
1226.506, 425.6499
1226.988, 424.8007
1227.470, 420.2395
1227.953, 417.4815
1228.435, 418.1106
1228.917, 418.8705
1229.399, 418.7738
1229.881, 418.2347
1230.363, 416.5379
1230.845, 415.4022
1231.327, 416.6793
1231.810, 418.4363
1232.292, 418.0900
1232.774, 416.2165
1233.256, 415.1241
1233.738, 414.8178
1234.220, 415.4244
1234.702, 417.5284
1235.184, 418.5112
1235.667, 417.5843
1236.149, 416.8193
1236.631, 417.4299
1237.113, 417.9444
1237.595, 416.3570
1238.077, 416.9736
1238.559, 413.7773
1239.041, 415.7136
1239.523, 415.1329
1240.005, 412.5424
1240.488, 411.6230
1240.970, 412.8355
1241.452, 413.8060
1241.934, 413.3650
1242.416, 412.4137
1242.898, 411.3292
1243.380, 410.6550
1243.862, 410.5968
1244.344, 411.5383
1244.827, 415.7392
1245.309, 420.2790
1245.791, 419.5880
1246.273, 414.0851
1246.755, 409.5429
1247.237, 407.2213
1247.719, 406.6066
1248.201, 409.0706
1248.684, 411.1205
1249.166, 411.7344
1249.648, 411.6322
1250.130, 411.0650
1250.612, 410.1314
1251.094, 408.6333
1251.576, 406.9096
1252.058, 407.5453
1252.541, 411.1627
1253.023, 412.3972
1253.505, 410.9099
1253.987, 409.2533
1254.469, 407.9957
1254.951, 407.8721
1255.433, 409.3560
1255.915, 411.2884
1256.397, 412.5113
1256.880, 412.8809
1257.362, 411.6063
1257.844, 409.5486
1258.326, 407.8509
1258.808, 407.0477
1259.290, 408.7174
1259.772, 412.3338
1260.254, 414.7654
1260.737, 414.7474
1261.219, 413.3969
1261.701, 409.6570
1262.183, 406.9433
1262.665, 407.3915
1263.147, 408.9477
1263.629, 410.8622
1264.111, 412.4603
1264.594, 412.9355
1265.076, 412.3268
1265.558, 410.8650
1266.040, 407.7794
1266.522, 406.7821
1267.004, 408.5329
1267.486, 410.0318
1267.968, 410.6703
1268.450, 411.2957
1268.932, 412.4199
1269.415, 413.1542
1269.897, 412.3902
1270.379, 410.7596
1270.861, 409.7715
1271.343, 409.1884
1271.825, 408.1410
1272.307, 406.8778
1272.789, 406.4292
1273.271, 406.6918
1273.754, 406.3750
1274.236, 405.0261
1274.718, 404.1891
1275.200, 405.0153
1275.682, 406.4400
1276.164, 408.6987
1276.646, 410.3659
1277.128, 409.4849
1277.611, 408.1679
1278.093, 409.6028
1278.575, 412.6454
1279.057, 412.9565
1279.539, 410.0620
1280.021, 407.5816
1280.503, 405.2058
1280.985, 404.0465
1281.468, 404.7446
1281.950, 405.0548
1282.432, 404.0133
1282.914, 403.1368
1283.396, 403.7834
1283.878, 404.9914
1284.360, 404.8748
1284.842, 403.7307
1285.324, 402.4717
##END=



