##NAMES=Apuanite
##RRUFFID=R060674
##IDEAL CHEMISTRY=Fe^2+^Fe^3+^_4_Sb^3+^_4_O_12_S^2-^
##LOCALITY=Buca della Vena mine, Stazzema, Apuan Alps, Lucca Province, Tuscany, Italy
##OWNER=RRUFF
##SOURCE=Michael Scott
##DESCRIPTION=Black massive granular
##STATUS=The identification of this mineral has been confirmed by single-crystal X-ray diffraction.
##URL=rruff.info/R060674
142.2540, 2005.992
142.7361, 2003.883
143.2183, 1995.329
143.7004, 1991.754
144.1825, 1993.504
144.6646, 1999.871
145.1467, 2010.854
145.6288, 2033.385
146.1110, 2050.407
146.5931, 2056.043
147.0752, 2045.044
147.5573, 2036.911
148.0394, 2030.065
148.5215, 2026.267
149.0037, 2029.275
149.4858, 2046.827
149.9679, 2064.151
150.4500, 2076.015
150.9321, 2075.384
151.4142, 2079.255
151.8964, 2094.057
152.3785, 2114.966
152.8606, 2125.506
153.3427, 2108.473
153.8248, 2092.383
154.3069, 2091.494
154.7890, 2126.262
155.2712, 2156.030
155.7533, 2173.584
156.2354, 2179.961
156.7175, 2185.331
157.1996, 2180.481
157.6817, 2181.030
158.1639, 2198.671
158.6460, 2263.631
159.1281, 2320.414
159.6102, 2344.214
160.0923, 2333.177
160.5744, 2331.371
161.0566, 2366.089
161.5387, 2413.937
162.0208, 2448.925
162.5029, 2439.572
162.9850, 2432.497
163.4671, 2457.474
163.9493, 2522.699
164.4314, 2580.167
164.9135, 2597.004
165.3956, 2592.002
165.8777, 2595.552
166.3598, 2626.088
166.8420, 2666.920
167.3241, 2707.027
167.8062, 2745.525
168.2883, 2781.934
168.7704, 2819.242
169.2525, 2855.055
169.7346, 2883.528
170.2168, 2900.935
170.6989, 2909.569
171.1810, 2910.018
171.6631, 2898.266
172.1452, 2886.243
172.6273, 2884.273
173.1095, 2890.967
173.5916, 2900.595
174.0737, 2911.652
174.5558, 2922.913
175.0379, 2932.522
175.5201, 2940.476
176.0022, 2946.166
176.4843, 2948.017
176.9664, 2919.126
177.4485, 2949.978
177.9306, 2966.236
178.4128, 2968.683
178.8949, 2915.957
179.3770, 2934.476
179.8591, 2924.444
180.3412, 2913.240
180.8233, 2941.787
181.3055, 2897.085
181.7876, 2925.001
182.2697, 2923.930
182.7518, 2936.125
183.2339, 2919.593
183.7160, 2911.933
184.1981, 2913.578
184.6803, 2891.255
185.1624, 2863.716
185.6445, 2855.189
186.1266, 2862.416
186.6087, 2864.800
187.0908, 2842.942
187.5730, 2806.695
188.0551, 2796.555
188.5372, 2815.761
189.0193, 2852.099
189.5014, 2896.839
189.9835, 2949.469
190.4657, 2990.835
190.9478, 3005.387
191.4299, 2997.347
191.9120, 2995.717
192.3941, 3001.939
192.8762, 3014.805
193.3584, 3032.533
193.8405, 3055.039
194.3226, 3082.297
194.8047, 3116.248
195.2868, 3156.564
195.7689, 3194.539
196.2511, 3230.627
196.7332, 3263.486
197.2153, 3285.890
197.6974, 3295.602
198.1795, 3311.077
198.6616, 3349.305
199.1437, 3412.360
199.6259, 3463.462
200.1080, 3495.417
200.5901, 3514.600
201.0722, 3539.498
201.5543, 3570.154
202.0364, 3606.620
202.5186, 3651.951
203.0007, 3708.049
203.4828, 3757.759
203.9649, 3799.396
204.4470, 3832.558
204.9291, 3851.677
205.4113, 3851.724
205.8934, 3851.173
206.3755, 3866.467
206.8576, 3900.837
207.3397, 3935.706
207.8218, 3970.324
208.3040, 4003.522
208.7861, 4024.266
209.2682, 4030.509
209.7503, 4028.261
210.2324, 4022.776
210.7145, 4014.587
211.1967, 4001.479
211.6788, 3979.023
212.1609, 3948.112
212.6430, 3935.453
213.1251, 3946.438
213.6072, 3968.043
214.0894, 3987.037
214.5715, 4001.606
215.0536, 4018.425
215.5357, 4037.308
216.0178, 4057.897
216.4999, 4091.718
216.9820, 4148.420
217.4642, 4206.265
217.9463, 4233.667
218.4284, 4207.789
218.9105, 4205.195
219.3926, 4254.371
219.8747, 4362.785
220.3569, 4446.731
220.8390, 4497.449
221.3211, 4531.681
221.8032, 4572.827
222.2853, 4623.112
222.7674, 4675.361
223.2496, 4727.389
223.7317, 4779.831
224.2138, 4831.304
224.6959, 4880.083
225.1780, 4929.767
225.6601, 4990.934
226.1423, 5078.011
226.6244, 5148.626
227.1065, 5183.309
227.5886, 5168.825
228.0707, 5176.034
228.5528, 5219.726
229.0350, 5276.336
229.5171, 5304.141
229.9992, 5290.545
230.4813, 5269.846
230.9634, 5252.294
231.4455, 5237.280
231.9276, 5227.181
232.4098, 5224.301
232.8919, 5225.182
233.3740, 5223.952
233.8561, 5222.402
234.3382, 5215.890
234.8203, 5199.506
235.3025, 5162.817
235.7846, 5147.879
236.2667, 5164.333
236.7488, 5198.642
237.2309, 5221.148
237.7130, 5220.197
238.1952, 5225.219
238.6773, 5249.127
239.1594, 5301.458
239.6415, 5347.189
240.1236, 5385.669
240.6057, 5418.166
241.0879, 5447.017
241.5700, 5467.016
242.0521, 5490.840
242.5342, 5525.818
243.0163, 5583.275
243.4984, 5623.676
243.9806, 5642.492
244.4627, 5645.392
244.9448, 5645.733
245.4269, 5644.031
245.9090, 5638.460
246.3911, 5628.624
246.8732, 5616.022
247.3554, 5595.046
247.8375, 5566.374
248.3196, 5528.935
248.8017, 5479.961
249.2838, 5419.335
249.7659, 5348.255
250.2481, 5265.982
250.7302, 5168.959
251.2123, 5069.295
251.6944, 4962.348
252.1765, 4855.043
252.6586, 4762.134
253.1408, 4688.329
253.6229, 4621.530
254.1050, 4557.723
254.5871, 4503.103
255.0692, 4436.653
255.5513, 4353.078
256.0334, 4259.923
256.5156, 4172.616
256.9977, 4089.542
257.4798, 4014.388
257.9619, 3948.694
258.4440, 3891.861
258.9261, 3845.274
259.4083, 3813.532
259.8904, 3789.159
260.3725, 3753.442
260.8546, 3698.896
261.3367, 3646.544
261.8188, 3606.880
262.3010, 3584.376
262.7831, 3558.235
263.2652, 3525.277
263.7473, 3490.193
264.2294, 3463.933
264.7115, 3450.455
265.1937, 3437.335
265.6758, 3418.076
266.1579, 3390.273
266.6400, 3366.801
267.1221, 3346.538
267.6042, 3331.896
268.0864, 3331.086
268.5685, 3350.248
269.0506, 3366.782
269.5327, 3370.429
270.0148, 3359.395
270.4969, 3344.054
270.9791, 3321.751
271.4612, 3298.036
271.9433, 3285.276
272.4254, 3286.039
272.9075, 3288.727
273.3896, 3286.921
273.8718, 3279.215
274.3539, 3280.238
274.8360, 3293.044
275.3181, 3310.539
275.8002, 3320.286
276.2823, 3321.406
276.7645, 3318.913
277.2466, 3314.323
277.7287, 3307.503
278.2108, 3299.331
278.6929, 3289.008
279.1750, 3278.560
279.6572, 3271.063
280.1393, 3266.583
280.6214, 3264.152
281.1035, 3264.741
281.5856, 3268.129
282.0677, 3266.781
282.5499, 3259.098
283.0320, 3250.550
283.5141, 3253.288
283.9962, 3268.178
284.4783, 3272.813
284.9604, 3251.310
285.4425, 3207.896
285.9247, 3181.123
286.4068, 3173.131
286.8889, 3173.891
287.3710, 3172.299
287.8531, 3168.471
288.3352, 3164.160
288.8174, 3160.061
289.2995, 3156.027
289.7816, 3151.438
290.2637, 3146.370
290.7458, 3140.666
291.2279, 3133.635
291.7101, 3125.522
292.1922, 3117.670
292.6743, 3105.574
293.1564, 3095.249
293.6385, 3107.358
294.1206, 3143.362
294.6028, 3182.634
295.0849, 3205.840
295.5670, 3215.773
296.0491, 3222.270
296.5312, 3224.640
297.0133, 3227.814
297.4955, 3242.674
297.9776, 3268.968
298.4597, 3298.824
298.9418, 3321.456
299.4239, 3342.026
299.9060, 3374.002
300.3882, 3429.666
300.8703, 3491.318
301.3524, 3529.990
301.8345, 3547.524
302.3166, 3564.016
302.7987, 3598.912
303.2809, 3642.162
303.7630, 3677.362
304.2451, 3697.998
304.7272, 3710.682
305.2093, 3719.214
305.6914, 3724.452
306.1736, 3730.742
306.6557, 3741.325
307.1378, 3754.611
307.6199, 3768.684
308.1020, 3783.401
308.5841, 3798.797
309.0663, 3821.579
309.5484, 3847.250
310.0305, 3859.116
310.5126, 3831.419
310.9947, 3794.517
311.4768, 3779.131
311.9590, 3800.807
312.4411, 3821.800
312.9232, 3813.560
313.4053, 3786.674
313.8874, 3766.582
314.3695, 3773.198
314.8516, 3784.521
315.3337, 3784.994
315.8159, 3769.486
316.2980, 3752.359
316.7801, 3735.960
317.2622, 3722.421
317.7443, 3715.255
318.2264, 3722.506
318.7086, 3731.170
319.1907, 3735.846
319.6728, 3736.113
320.1549, 3732.000
320.6370, 3715.649
321.1191, 3697.138
321.6013, 3689.211
322.0834, 3707.922
322.5655, 3725.508
323.0476, 3732.500
323.5297, 3727.135
324.0118, 3720.750
324.4940, 3712.303
324.9761, 3704.701
325.4582, 3700.710
325.9403, 3701.430
326.4224, 3704.890
326.9045, 3713.405
327.3867, 3727.423
327.8688, 3734.227
328.3509, 3732.194
328.8330, 3723.658
329.3151, 3709.892
329.7972, 3682.998
330.2794, 3661.450
330.7615, 3649.564
331.2436, 3645.808
331.7257, 3637.667
332.2078, 3626.175
332.6899, 3609.264
333.1721, 3584.699
333.6542, 3547.207
334.1363, 3513.575
334.6184, 3485.959
335.1005, 3462.676
335.5826, 3438.378
336.0648, 3416.257
336.5469, 3387.107
337.0290, 3341.609
337.5111, 3269.981
337.9932, 3219.540
338.4753, 3197.005
338.9575, 3190.828
339.4396, 3181.063
339.9217, 3169.638
340.4038, 3146.351
340.8859, 3099.797
341.3680, 3028.842
341.8502, 2976.686
342.3323, 2947.669
342.8144, 2929.789
343.2965, 2907.022
343.7786, 2878.985
344.2607, 2854.755
344.7429, 2838.785
345.2250, 2829.569
345.7071, 2821.810
346.1892, 2816.791
346.6713, 2804.906
347.1534, 2768.733
347.6355, 2713.280
348.1176, 2666.446
348.5998, 2636.191
349.0819, 2619.465
349.5640, 2613.576
350.0461, 2618.076
350.5282, 2622.286
351.0103, 2616.927
351.4925, 2604.888
351.9746, 2592.451
352.4567, 2581.781
352.9388, 2570.325
353.4209, 2554.297
353.9030, 2534.485
354.3852, 2514.447
354.8673, 2497.434
355.3494, 2481.168
355.8315, 2460.933
356.3136, 2432.427
356.7957, 2410.280
357.2779, 2415.043
357.7600, 2435.397
358.2421, 2445.597
358.7242, 2421.887
359.2063, 2391.605
359.6884, 2375.474
360.1706, 2378.053
360.6527, 2380.245
361.1348, 2373.100
361.6169, 2360.090
362.0990, 2346.035
362.5811, 2327.927
363.0633, 2312.963
363.5454, 2307.215
364.0275, 2280.602
364.5096, 2312.416
364.9917, 2329.245
365.4738, 2331.894
365.9560, 2277.891
366.4381, 2297.041
366.9202, 2286.876
367.4023, 2275.508
367.8844, 2304.954
368.3665, 2259.192
368.8487, 2287.991
369.3308, 2270.125
369.8129, 2266.168
370.2950, 2256.028
370.7771, 2292.220
371.2592, 2313.426
371.7414, 2320.453
372.2235, 2270.828
372.7056, 2294.356
373.1877, 2288.569
373.6698, 2281.578
374.1519, 2315.402
374.6341, 2274.018
375.1162, 2307.195
375.5983, 2310.608
376.0804, 2327.643
376.5625, 2315.181
377.0446, 2311.829
377.5267, 2318.113
378.0089, 2315.738
378.4910, 2328.493
378.9731, 2360.545
379.4552, 2392.832
379.9373, 2403.068
380.4194, 2392.040
380.9016, 2382.394
381.3837, 2380.189
381.8658, 2382.139
382.3479, 2378.885
382.8300, 2370.578
383.3121, 2363.333
383.7943, 2357.898
384.2764, 2356.920
384.7585, 2370.696
385.2406, 2405.299
385.7227, 2444.058
386.2048, 2465.508
386.6870, 2472.166
387.1691, 2472.621
387.6512, 2461.844
388.1333, 2451.682
388.6154, 2460.291
389.0975, 2491.659
389.5797, 2522.269
390.0618, 2534.065
390.5439, 2533.278
391.0260, 2529.106
391.5081, 2521.099
391.9902, 2514.391
392.4724, 2514.382
392.9545, 2520.658
393.4366, 2522.842
393.9187, 2511.801
394.4008, 2497.372
394.8829, 2487.252
395.3651, 2487.442
395.8472, 2487.729
396.3293, 2483.885
396.8114, 2477.733
397.2935, 2475.943
397.7756, 2493.297
398.2578, 2504.289
398.7399, 2495.378
399.2220, 2445.408
399.7041, 2415.172
400.1862, 2421.300
400.6683, 2442.090
401.1505, 2441.592
401.6326, 2395.811
402.1147, 2364.115
402.5968, 2368.637
403.0789, 2414.183
403.5610, 2431.619
404.0432, 2407.101
404.5253, 2373.729
405.0074, 2366.315
405.4895, 2392.948
405.9716, 2412.805
406.4537, 2419.055
406.9359, 2413.261
407.4180, 2397.234
407.9001, 2368.479
408.3822, 2343.472
408.8643, 2335.038
409.3464, 2341.652
409.8285, 2347.420
410.3106, 2349.401
410.7928, 2353.640
411.2749, 2376.706
411.7570, 2414.406
412.2391, 2439.417
412.7212, 2426.611
413.2033, 2395.222
413.6855, 2383.230
414.1676, 2392.194
414.6497, 2404.696
415.1318, 2400.906
415.6139, 2390.868
416.0960, 2392.339
416.5782, 2424.600
417.0603, 2457.887
417.5424, 2464.911
418.0245, 2450.220
418.5066, 2436.806
418.9887, 2439.829
419.4709, 2446.646
419.9530, 2445.831
420.4351, 2427.130
420.9172, 2418.053
421.3993, 2437.750
421.8814, 2472.529
422.3636, 2497.049
422.8457, 2503.128
423.3278, 2500.604
423.8099, 2489.650
424.2920, 2467.342
424.7741, 2452.292
425.2563, 2446.883
425.7384, 2448.098
426.2205, 2454.124
426.7026, 2471.478
427.1847, 2482.711
427.6668, 2482.380
428.1490, 2473.250
428.6311, 2471.996
429.1132, 2481.737
429.5953, 2493.296
430.0774, 2501.397
430.5595, 2505.626
431.0417, 2509.275
431.5238, 2512.709
432.0059, 2515.159
432.4880, 2515.137
432.9701, 2512.603
433.4522, 2508.992
433.9344, 2505.027
434.4165, 2500.475
434.8986, 2493.799
435.3807, 2484.912
435.8628, 2475.643
436.3449, 2462.437
436.8271, 2449.982
437.3092, 2453.022
437.7913, 2485.621
438.2734, 2520.108
438.7555, 2522.151
439.2376, 2497.882
439.7197, 2470.570
440.2018, 2448.661
440.6840, 2432.803
441.1661, 2424.230
441.6482, 2423.916
442.1303, 2427.340
442.6124, 2437.666
443.0945, 2448.920
443.5767, 2452.811
444.0588, 2437.723
444.5409, 2423.746
445.0230, 2420.260
445.5051, 2427.088
445.9872, 2428.281
446.4694, 2416.653
446.9515, 2401.937
447.4336, 2389.852
447.9157, 2380.465
448.3978, 2373.961
448.8799, 2372.437
449.3621, 2373.367
449.8442, 2369.598
450.3263, 2355.004
450.8084, 2347.994
451.2905, 2359.599
451.7726, 2392.020
452.2548, 2404.437
452.7369, 2390.671
453.2190, 2370.486
453.7011, 2367.434
454.1832, 2382.046
454.6653, 2389.953
455.1475, 2383.583
455.6296, 2369.563
456.1117, 2362.397
456.5938, 2361.963
457.0759, 2364.828
457.5580, 2369.752
458.0402, 2376.230
458.5223, 2383.538
459.0044, 2391.942
459.4865, 2399.816
459.9686, 2409.424
460.4507, 2417.201
460.9329, 2416.446
461.4150, 2392.302
461.8971, 2368.123
462.3792, 2359.655
462.8613, 2366.214
463.3434, 2378.323
463.8256, 2399.693
464.3077, 2420.049
464.7898, 2432.142
465.2719, 2432.004
465.7540, 2427.436
466.2361, 2415.784
466.7183, 2401.005
467.2004, 2391.371
467.6825, 2386.137
468.1646, 2387.567
468.6467, 2398.377
469.1288, 2420.035
469.6109, 2437.635
470.0930, 2451.765
470.5752, 2461.169
471.0573, 2463.621
471.5394, 2456.798
472.0215, 2451.947
472.5036, 2451.024
472.9857, 2452.532
473.4679, 2451.860
473.9500, 2448.683
474.4321, 2447.661
474.9142, 2455.181
475.3963, 2467.776
475.8784, 2468.091
476.3606, 2454.388
476.8427, 2439.590
477.3248, 2435.229
477.8069, 2440.320
478.2890, 2453.705
478.7711, 2482.897
479.2533, 2511.398
479.7354, 2520.508
480.2175, 2513.942
480.6996, 2506.608
481.1817, 2507.808
481.6638, 2510.704
482.1460, 2508.155
482.6281, 2495.543
483.1102, 2491.153
483.5923, 2511.607
484.0744, 2540.085
484.5565, 2556.278
485.0387, 2541.269
485.5208, 2529.343
486.0029, 2528.117
486.4850, 2536.645
486.9671, 2546.511
487.4492, 2559.489
487.9314, 2571.626
488.4135, 2582.055
488.8956, 2593.724
489.3777, 2592.765
489.8598, 2573.181
490.3419, 2548.716
490.8241, 2515.331
491.3062, 2551.812
491.7883, 2573.308
492.2704, 2580.624
492.7525, 2531.289
493.2346, 2555.107
493.7168, 2549.609
494.1989, 2542.908
494.6810, 2577.022
495.1631, 2535.927
495.6452, 2569.394
496.1273, 2573.096
496.6095, 2590.422
497.0916, 2578.250
497.5737, 2547.646
498.0558, 2583.600
498.5379, 2604.569
499.0201, 2611.357
499.5022, 2561.495
499.9843, 2584.785
500.4664, 2578.759
500.9485, 2571.531
501.4306, 2605.117
501.9127, 2563.494
502.3948, 2596.433
502.8770, 2599.609
503.3591, 2616.406
503.8412, 2603.707
504.3233, 2600.117
504.8054, 2626.035
505.2875, 2635.615
505.7697, 2619.520
506.2518, 2637.183
506.7339, 2594.530
507.2160, 2604.805
507.6981, 2637.917
508.1802, 2623.305
508.6624, 2641.508
509.1445, 2647.213
509.6266, 2619.374
510.1087, 2625.520
510.5908, 2640.323
511.0729, 2660.641
511.5551, 2670.738
512.0372, 2651.817
512.5193, 2623.940
513.0014, 2615.770
513.4835, 2626.164
513.9656, 2642.327
514.4478, 2662.279
514.9299, 2680.582
515.4120, 2690.782
515.8941, 2686.969
516.3762, 2684.979
516.8583, 2697.509
517.3405, 2714.739
517.8226, 2720.662
518.3047, 2690.997
518.7868, 2670.779
519.2689, 2679.808
519.7510, 2717.730
520.2332, 2736.406
520.7153, 2721.021
521.1974, 2703.822
521.6795, 2707.648
522.1616, 2744.074
522.6437, 2757.516
523.1259, 2738.227
523.6080, 2706.301
524.0901, 2696.503
524.5722, 2709.760
525.0543, 2720.514
525.5364, 2714.933
526.0186, 2703.580
526.5007, 2719.720
526.9828, 2761.356
527.4649, 2798.104
527.9470, 2801.760
528.4291, 2788.051
528.9113, 2779.484
529.3934, 2779.222
529.8755, 2785.307
530.3576, 2802.824
530.8397, 2824.242
531.3218, 2838.918
531.8040, 2836.460
532.2861, 2832.999
532.7682, 2836.139
533.2503, 2844.531
533.7324, 2848.205
534.2145, 2840.364
534.6967, 2832.264
535.1788, 2828.809
535.6609, 2831.824
536.1430, 2834.193
536.6251, 2835.617
537.1072, 2836.746
537.5894, 2839.306
538.0715, 2844.490
538.5536, 2843.350
539.0357, 2829.220
539.5178, 2811.460
539.9999, 2820.202
540.4821, 2854.929
540.9642, 2888.039
541.4463, 2901.035
541.9284, 2901.314
542.4105, 2904.361
542.8926, 2910.855
543.3748, 2919.378
543.8569, 2931.604
544.3390, 2944.063
544.8211, 2952.327
545.3032, 2955.192
545.7853, 2953.614
546.2675, 2945.982
546.7495, 2934.291
547.2316, 2923.113
547.7137, 2915.348
548.1959, 2906.817
548.6780, 2894.221
549.1601, 2876.552
549.6422, 2865.764
550.1243, 2863.089
550.6064, 2866.009
551.0886, 2874.525
551.5707, 2892.269
552.0528, 2902.894
552.5349, 2905.254
553.0170, 2900.278
553.4991, 2884.644
553.9813, 2858.392
554.4634, 2842.471
554.9455, 2851.592
555.4276, 2872.064
555.9097, 2870.349
556.3918, 2848.526
556.8740, 2825.427
557.3561, 2813.194
557.8382, 2807.568
558.3203, 2805.261
558.8024, 2807.256
559.2845, 2804.999
559.7667, 2786.102
560.2488, 2762.977
560.7309, 2750.145
561.2130, 2772.304
561.6951, 2782.078
562.1772, 2753.901
562.6594, 2701.116
563.1415, 2679.599
563.6236, 2713.365
564.1057, 2747.974
564.5878, 2765.377
565.0699, 2764.497
565.5521, 2756.495
566.0342, 2738.502
566.5163, 2720.055
566.9984, 2710.033
567.4805, 2708.199
567.9626, 2709.063
568.4448, 2713.266
568.9269, 2716.308
569.4090, 2708.637
569.8911, 2693.595
570.3732, 2682.328
570.8553, 2685.252
571.3375, 2691.019
571.8196, 2686.798
572.3017, 2674.128
572.7838, 2663.981
573.2659, 2668.862
573.7480, 2673.175
574.2302, 2664.146
574.7123, 2632.120
575.1944, 2609.456
575.6765, 2606.395
576.1586, 2612.913
576.6407, 2619.440
577.1229, 2631.560
577.6050, 2632.536
578.0871, 2614.520
578.5692, 2586.294
579.0513, 2577.613
579.5334, 2592.571
580.0156, 2604.698
580.4977, 2598.143
580.9798, 2578.214
581.4619, 2569.796
581.9440, 2573.050
582.4261, 2580.972
582.9083, 2591.014
583.3904, 2600.653
583.8725, 2605.333
584.3546, 2603.301
584.8367, 2599.015
585.3188, 2595.611
585.8010, 2591.919
586.2831, 2586.140
586.7652, 2570.779
587.2473, 2560.368
587.7294, 2566.152
588.2115, 2583.915
588.6937, 2585.483
589.1758, 2552.379
589.6579, 2523.797
590.1400, 2517.229
590.6221, 2537.104
591.1042, 2544.384
591.5864, 2535.466
592.0685, 2522.156
592.5506, 2515.571
593.0327, 2515.409
593.5148, 2515.006
593.9969, 2512.909
594.4791, 2511.383
594.9612, 2514.785
595.4433, 2521.619
595.9254, 2527.381
596.4075, 2530.409
596.8896, 2531.251
597.3718, 2527.560
597.8539, 2520.934
598.3360, 2519.671
598.8181, 2535.672
599.3002, 2551.841
599.7823, 2557.974
600.2645, 2551.001
600.7466, 2541.659
601.2287, 2522.650
601.7108, 2507.712
602.1929, 2510.975
602.6750, 2544.250
603.1572, 2562.367
603.6393, 2556.198
604.1214, 2538.736
604.6035, 2536.997
605.0856, 2551.383
605.5677, 2563.779
606.0499, 2567.121
606.5320, 2564.092
607.0141, 2558.701
607.4962, 2551.467
607.9783, 2546.175
608.4604, 2542.698
608.9425, 2543.982
609.4246, 2557.980
609.9067, 2588.784
610.3889, 2607.166
610.8710, 2580.784
611.3531, 2545.774
611.8352, 2534.681
612.3173, 2589.124
612.7994, 2620.456
613.2816, 2611.434
613.7637, 2581.564
614.2458, 2568.847
614.7279, 2580.644
615.2100, 2589.459
615.6921, 2586.463
616.1743, 2575.006
616.6564, 2570.200
617.1385, 2572.271
617.6206, 2575.778
618.1027, 2579.443
618.5848, 2581.566
619.0670, 2574.347
619.5491, 2556.730
620.0312, 2547.152
620.5133, 2569.986
620.9954, 2604.315
621.4775, 2625.603
621.9597, 2622.647
622.4418, 2615.719
622.9239, 2609.158
623.4060, 2603.553
623.8881, 2599.683
624.3702, 2590.558
624.8524, 2592.853
625.3345, 2615.323
625.8166, 2652.101
626.2987, 2674.817
626.7808, 2683.023
627.2629, 2679.264
627.7451, 2656.535
628.2272, 2619.940
628.7093, 2610.157
629.1914, 2628.532
629.6735, 2649.497
630.1556, 2647.019
630.6378, 2632.688
631.1199, 2626.440
631.6020, 2633.533
632.0841, 2641.595
632.5662, 2640.020
633.0483, 2635.199
633.5305, 2635.456
634.0126, 2640.265
634.4947, 2653.717
634.9768, 2687.094
635.4589, 2730.399
635.9410, 2752.674
636.4232, 2741.947
636.9053, 2731.504
637.3874, 2733.040
637.8695, 2744.800
638.3516, 2746.536
638.8337, 2736.494
639.3159, 2727.988
639.7980, 2728.756
640.2801, 2738.511
640.7622, 2760.146
641.2443, 2795.432
641.7264, 2826.630
642.2086, 2834.222
642.6907, 2829.805
643.1728, 2827.932
643.6549, 2831.071
644.1370, 2839.800
644.6191, 2855.439
645.1013, 2876.731
645.5834, 2901.617
646.0655, 2943.478
646.5476, 2971.777
647.0297, 2976.007
647.5118, 2962.410
647.9940, 2957.877
648.4761, 2962.837
648.9582, 2975.146
649.4403, 2997.099
649.9224, 3026.125
650.4045, 3045.946
650.8867, 3056.336
651.3688, 3071.790
651.8509, 3108.060
652.3330, 3155.910
652.8151, 3202.631
653.2972, 3247.112
653.7794, 3283.084
654.2615, 3296.748
654.7436, 3303.680
655.2257, 3320.594
655.7078, 3368.526
656.1899, 3406.080
656.6721, 3417.847
657.1542, 3418.626
657.6363, 3435.894
658.1184, 3479.404
658.6005, 3514.642
659.0826, 3529.141
659.5648, 3529.677
660.0469, 3543.541
660.5290, 3570.941
661.0111, 3599.612
661.4932, 3622.476
661.9753, 3641.490
662.4575, 3662.012
662.9396, 3683.817
663.4217, 3698.810
663.9038, 3695.859
664.3859, 3687.162
664.8680, 3683.514
665.3502, 3687.760
665.8323, 3693.324
666.3144, 3706.953
666.7965, 3716.418
667.2786, 3709.207
667.7607, 3674.471
668.2429, 3644.110
668.7250, 3619.781
669.2071, 3601.157
669.6892, 3589.581
670.1713, 3585.095
670.6534, 3578.831
671.1355, 3571.118
671.6176, 3556.466
672.0997, 3517.410
672.5818, 3460.183
673.0640, 3410.217
673.5461, 3386.840
674.0282, 3373.016
674.5103, 3358.525
674.9924, 3342.609
675.4745, 3320.485
675.9567, 3279.466
676.4388, 3241.174
676.9209, 3220.482
677.4030, 3224.851
677.8851, 3217.782
678.3672, 3195.862
678.8494, 3167.819
679.3315, 3136.892
679.8136, 3102.635
680.2957, 3089.014
680.7778, 3103.417
681.2599, 3124.146
681.7421, 3126.627
682.2242, 3112.255
682.7063, 3082.849
683.1884, 3023.534
683.6705, 2970.663
684.1526, 2959.349
684.6348, 2974.507
685.1169, 2982.779
685.5990, 2965.815
686.0811, 2948.706
686.5632, 2941.795
687.0453, 2942.713
687.5275, 2935.366
688.0096, 2916.670
688.4917, 2895.839
688.9738, 2872.224
689.4559, 2847.594
689.9380, 2848.619
690.4202, 2877.048
690.9023, 2905.052
691.3844, 2906.300
691.8665, 2891.828
692.3486, 2881.355
692.8307, 2877.114
693.3129, 2875.530
693.7950, 2878.786
694.2771, 2881.082
694.7592, 2876.467
695.2413, 2860.700
695.7234, 2842.463
696.2056, 2812.771
696.6877, 2786.476
697.1698, 2785.671
697.6519, 2822.580
698.1340, 2849.075
698.6161, 2856.049
699.0983, 2849.612
699.5804, 2838.924
700.0625, 2825.055
700.5446, 2817.947
701.0267, 2826.486
701.5089, 2840.308
701.9910, 2844.737
702.4731, 2842.058
702.9552, 2841.412
703.4373, 2853.792
703.9194, 2864.003
704.4016, 2863.133
704.8837, 2850.307
705.3658, 2834.560
705.8479, 2804.679
706.3300, 2785.646
706.8121, 2794.282
707.2943, 2836.581
707.7764, 2857.927
708.2585, 2854.868
708.7406, 2844.681
709.2227, 2826.837
709.7048, 2860.150
710.1870, 2878.477
710.6691, 2882.624
711.1512, 2830.120
711.6333, 2850.769
712.1154, 2842.102
712.5975, 2832.233
713.0797, 2863.177
713.5618, 2818.913
714.0439, 2849.211
714.5260, 2849.745
715.0081, 2863.902
715.4902, 2848.560
715.9724, 2842.330
716.4545, 2865.606
716.9366, 2872.545
717.4187, 2853.808
717.9008, 2868.830
718.3829, 2814.545
718.8651, 2804.214
719.3472, 2801.586
719.8293, 2812.764
720.3114, 2833.636
720.7935, 2846.442
721.2756, 2832.918
721.7578, 2814.925
722.2399, 2806.642
722.7220, 2808.765
723.2041, 2810.218
723.6862, 2807.819
724.1683, 2805.933
724.6505, 2807.340
725.1326, 2812.909
725.6147, 2813.301
726.0968, 2807.786
726.5789, 2799.495
727.0610, 2789.063
727.5432, 2777.882
728.0253, 2771.833
728.5074, 2771.974
728.9895, 2773.328
729.4716, 2775.482
729.9537, 2774.684
730.4359, 2765.432
730.9180, 2741.201
731.4000, 2719.527
731.8821, 2708.901
732.3643, 2701.680
732.8464, 2686.812
733.3285, 2655.569
733.8106, 2637.721
734.2927, 2643.258
734.7748, 2655.810
735.2570, 2637.156
735.7391, 2590.292
736.2212, 2560.899
736.7033, 2571.162
737.1854, 2595.858
737.6675, 2599.604
738.1497, 2589.986
738.6318, 2587.404
739.1139, 2622.746
739.5960, 2646.312
740.0781, 2622.458
740.5602, 2560.532
741.0424, 2524.326
741.5245, 2534.271
742.0066, 2545.696
742.4887, 2544.074
742.9708, 2530.776
743.4529, 2517.202
743.9351, 2503.071
744.4172, 2490.644
744.8993, 2479.840
745.3814, 2472.079
745.8635, 2474.546
746.3456, 2486.342
746.8278, 2490.835
747.3099, 2467.360
747.7920, 2438.969
748.2741, 2424.373
748.7562, 2429.095
749.2383, 2400.031
749.7205, 2426.874
750.2026, 2438.734
750.6847, 2436.413
751.1668, 2377.442
751.6489, 2391.623
752.1310, 2376.489
752.6132, 2360.150
753.0953, 2384.629
753.5774, 2333.897
754.0595, 2357.727
754.5416, 2351.794
755.0237, 2359.483
755.5059, 2337.673
755.9880, 2329.356
756.4701, 2326.295
756.9522, 2337.581
757.4343, 2344.011
757.9164, 2339.163
758.3986, 2329.298
758.8807, 2322.776
759.3628, 2321.573
759.8449, 2316.502
760.3270, 2304.475
760.8091, 2290.522
761.2913, 2286.058
761.7734, 2288.894
762.2555, 2287.204
762.7376, 2271.983
763.2197, 2256.329
763.7018, 2254.417
764.1840, 2261.601
764.6661, 2266.959
765.1482, 2263.910
765.6303, 2261.294
766.1124, 2259.677
766.5945, 2260.285
767.0767, 2270.080
767.5588, 2294.572
768.0409, 2311.695
768.5230, 2311.282
769.0051, 2298.499
769.4872, 2290.022
769.9694, 2285.313
770.4515, 2280.458
770.9336, 2269.510
771.4157, 2259.709
771.8978, 2262.555
772.3799, 2275.910
772.8621, 2281.117
773.3442, 2259.169
773.8263, 2239.218
774.3084, 2238.055
774.7905, 2256.335
775.2726, 2261.573
775.7548, 2250.251
776.2369, 2235.166
776.7190, 2223.669
777.2011, 2215.190
777.6832, 2205.042
778.1653, 2193.238
778.6475, 2187.251
779.1296, 2199.105
779.6117, 2216.221
780.0938, 2225.859
780.5759, 2226.078
781.0580, 2220.780
781.5402, 2203.767
782.0223, 2187.344
782.5044, 2181.265
782.9865, 2192.005
783.4686, 2184.838
783.9507, 2151.625
784.4329, 2120.067
784.9150, 2118.137
785.3971, 2140.368
785.8792, 2163.339
786.3613, 2185.835
786.8434, 2199.411
787.3256, 2192.269
787.8077, 2174.064
788.2898, 2153.701
788.7719, 2128.200
789.2540, 2113.693
789.7361, 2121.782
790.2183, 2138.060
790.7004, 2150.420
791.1825, 2158.658
791.6646, 2163.786
792.1467, 2165.722
792.6288, 2164.747
793.1110, 2159.729
793.5930, 2151.887
794.0751, 2145.657
794.5573, 2142.389
795.0394, 2139.648
795.5215, 2136.118
796.0036, 2131.724
796.4857, 2126.299
796.9678, 2117.730
797.4500, 2111.136
797.9321, 2106.393
798.4142, 2104.276
798.8963, 2106.901
799.3784, 2115.852
799.8605, 2120.937
800.3427, 2119.724
800.8248, 2116.299
801.3069, 2119.080
801.7890, 2124.788
802.2711, 2122.934
802.7532, 2102.456
803.2354, 2086.712
803.7175, 2095.961
804.1996, 2118.319
804.6817, 2134.062
805.1638, 2144.254
805.6459, 2138.764
806.1281, 2104.117
806.6102, 2061.932
807.0923, 2060.827
807.5744, 2102.814
808.0565, 2133.238
808.5386, 2135.804
809.0208, 2123.719
809.5029, 2111.916
809.9850, 2101.144
810.4671, 2093.335
810.9492, 2090.270
811.4313, 2089.232
811.9135, 2089.462
812.3956, 2090.895
812.8777, 2093.672
813.3598, 2100.196
813.8419, 2103.048
814.3240, 2099.584
814.8062, 2092.782
815.2883, 2088.363
815.7704, 2086.515
816.2525, 2090.023
816.7346, 2106.886
817.2167, 2120.354
817.6989, 2104.488
818.1810, 2070.563
818.6631, 2044.754
819.1452, 2041.268
819.6273, 2041.699
820.1094, 2039.369
820.5916, 2037.303
821.0737, 2045.049
821.5558, 2067.120
822.0379, 2082.423
822.5200, 2083.251
823.0021, 2076.072
823.4843, 2076.750
823.9664, 2082.341
824.4485, 2080.799
824.9306, 2056.246
825.4127, 2032.620
825.8948, 2025.100
826.3770, 2031.589
826.8591, 2046.896
827.3412, 2092.354
827.8233, 2117.458
828.3054, 2105.717
828.7875, 2070.835
829.2697, 2052.466
829.7518, 2051.346
830.2339, 2051.412
830.7160, 2047.320
831.1981, 2041.124
831.6802, 2033.019
832.1624, 2025.259
832.6445, 2023.933
833.1266, 2042.216
833.6087, 2056.346
834.0908, 2051.425
834.5729, 2034.870
835.0551, 2029.850
835.5372, 2042.861
836.0193, 2052.708
836.5014, 2055.020
836.9835, 2050.924
837.4656, 2038.056
837.9478, 2019.228
838.4299, 2011.114
838.9120, 2030.741
839.3941, 2050.980
839.8762, 2039.966
840.3583, 2011.824
840.8405, 1997.041
841.3226, 2016.338
841.8047, 2035.542
842.2868, 2048.745
842.7689, 2057.799
843.2510, 2066.281
843.7332, 2074.117
844.2153, 2082.355
844.6974, 2092.767
845.1795, 2101.142
845.6616, 2102.194
846.1437, 2095.720
846.6259, 2080.957
847.1080, 2041.470
847.5901, 2012.159
848.0722, 2015.379
848.5543, 2037.457
849.0364, 2049.995
849.5186, 2047.480
850.0007, 2046.890
850.4828, 2050.905
850.9649, 2058.018
851.4470, 2070.540
851.9291, 2085.358
852.4113, 2082.854
852.8934, 2045.253
853.3755, 2013.716
853.8576, 2039.380
854.3397, 2090.663
854.8218, 2119.217
855.3039, 2091.223
855.7860, 2067.271
856.2681, 2052.565
856.7502, 2045.946
857.2324, 2049.091
857.7145, 2062.970
858.1966, 2066.451
858.6787, 2053.002
859.1608, 2037.382
859.6429, 2041.763
860.1251, 2056.108
860.6072, 2062.075
861.0893, 2049.097
861.5714, 2038.650
862.0535, 2041.976
862.5356, 2050.181
863.0178, 2052.769
863.4999, 2046.752
863.9820, 2044.663
864.4641, 2049.000
864.9462, 2052.763
865.4283, 2044.955
865.9105, 2029.727
866.3926, 2020.197
866.8747, 2019.776
867.3568, 2018.692
867.8389, 2006.066
868.3210, 1991.865
868.8032, 1985.764
869.2853, 1994.181
869.7674, 1999.738
870.2495, 2000.548
870.7316, 2001.317
871.2137, 2007.068
871.6959, 2017.239
872.1780, 2026.555
872.6601, 2035.158
873.1422, 2035.258
873.6243, 2003.783
874.1064, 1969.554
874.5886, 1970.935
875.0707, 2019.804
875.5528, 2050.348
876.0349, 2033.511
876.5170, 2006.727
876.9991, 1984.830
877.4813, 1967.343
877.9634, 1970.259
878.4455, 1996.382
878.9276, 2017.095
879.4097, 2000.078
879.8918, 1969.162
880.3740, 1963.109
880.8561, 1981.618
881.3382, 2000.981
881.8203, 2014.377
882.3024, 2022.105
882.7845, 2022.667
883.2667, 2016.842
883.7488, 2012.590
884.2309, 2011.172
884.7130, 2005.912
885.1951, 1988.694
885.6772, 1967.911
886.1594, 1967.775
886.6415, 1983.854
887.1236, 1996.230
887.6057, 1987.463
888.0878, 1978.742
888.5699, 1981.778
889.0521, 1994.997
889.5342, 2011.319
890.0163, 2039.154
890.4984, 2050.072
890.9805, 2032.426
891.4626, 1998.872
891.9448, 1974.221
892.4269, 1959.697
892.9090, 1961.854
893.3911, 1998.806
893.8732, 2031.656
894.3553, 2019.453
894.8375, 1985.015
895.3196, 1969.335
895.8017, 2001.874
896.2838, 2020.887
896.7659, 2018.275
897.2480, 2003.857
897.7302, 1990.310
898.2123, 1978.110
898.6944, 1969.506
899.1765, 1965.130
899.6586, 1964.323
900.1407, 1966.753
900.6229, 1972.385
901.1050, 1982.924
901.5871, 2009.944
902.0692, 2016.096
902.5513, 1982.207
903.0334, 1944.032
903.5156, 1934.943
903.9977, 1956.182
904.4798, 1963.487
904.9619, 1953.958
905.4440, 1939.849
905.9261, 1928.584
906.4083, 1921.074
906.8904, 1917.527
907.3725, 1917.810
907.8546, 1925.746
908.3367, 1956.841
908.8188, 1981.727
909.3010, 1983.644
909.7831, 1963.238
910.2652, 1951.968
910.7473, 1950.569
911.2294, 1949.110
911.7115, 1936.798
912.1937, 1923.026
912.6758, 1926.082
913.1579, 1942.037
913.6400, 1950.610
914.1221, 1935.332
914.6042, 1920.044
915.0864, 1913.297
915.5685, 1913.108
916.0506, 1912.937
916.5327, 1912.848
917.0148, 1912.424
917.4969, 1911.250
917.9790, 1910.185
918.4611, 1909.550
918.9432, 1910.183
919.4254, 1913.961
919.9075, 1926.374
920.3896, 1936.408
920.8717, 1939.831
921.3538, 1939.108
921.8359, 1937.887
922.3181, 1937.072
922.8002, 1929.949
923.2823, 1913.973
923.7644, 1896.960
924.2465, 1886.650
924.7286, 1883.319
925.2108, 1890.181
925.6929, 1911.032
926.1750, 1927.412
926.6571, 1936.803
927.1392, 1933.880
927.6213, 1907.906
928.1035, 1847.089
928.5856, 1840.455
929.0677, 1899.659
929.5498, 1959.881
930.0319, 1965.317
930.5140, 1938.954
930.9962, 1923.419
931.4783, 1919.933
931.9604, 1919.507
932.4425, 1924.248
932.9246, 1924.432
933.4067, 1910.152
933.8889, 1885.484
934.3710, 1875.526
934.8531, 1882.882
935.3352, 1892.350
935.8173, 1897.684
936.2994, 1901.572
936.7816, 1909.175
937.2637, 1919.381
937.7458, 1928.964
938.2279, 1941.855
938.7100, 1947.791
939.1921, 1933.235
939.6743, 1913.153
940.1564, 1914.035
940.6385, 1943.323
941.1206, 1957.449
941.6027, 1947.702
942.0848, 1930.413
942.5670, 1926.283
943.0491, 1930.096
943.5312, 1933.375
944.0133, 1935.673
944.4954, 1931.714
944.9775, 1912.673
945.4597, 1891.708
945.9418, 1877.989
946.4239, 1871.704
946.9060, 1873.857
947.3881, 1886.159
947.8702, 1895.469
948.3524, 1885.203
948.8345, 1868.678
949.3166, 1868.717
949.7987, 1884.296
950.2808, 1900.337
950.7629, 1914.381
951.2451, 1922.891
951.7272, 1924.661
952.2093, 1920.113
952.6914, 1908.774
953.1735, 1889.708
953.6556, 1873.431
954.1378, 1861.083
954.6199, 1857.765
955.1020, 1876.905
955.5841, 1909.175
956.0662, 1936.427
956.5483, 1958.913
957.0305, 1966.574
957.5126, 1946.328
957.9947, 1919.917
958.4768, 1916.408
958.9589, 1937.311
959.4410, 1935.118
959.9232, 1901.707
960.4053, 1869.534
960.8874, 1876.923
961.3695, 1899.587
961.8516, 1907.369
962.3337, 1894.075
962.8159, 1884.309
963.2980, 1883.132
963.7801, 1885.855
964.2622, 1889.375
964.7443, 1894.579
965.2264, 1917.642
965.7086, 1956.677
966.1907, 1976.515
966.6728, 1938.023
967.1549, 1887.055
967.6370, 1862.745
968.1191, 1859.787
968.6013, 1861.183
969.0834, 1861.520
969.5655, 1871.408
970.0476, 1900.053
970.5297, 1929.909
971.0118, 1920.961
971.4940, 1882.028
971.9761, 1860.313
972.4582, 1869.724
972.9403, 1886.646
973.4224, 1898.950
973.9045, 1906.567
974.3867, 1908.460
974.8688, 1901.107
975.3509, 1898.352
975.8330, 1899.563
976.3151, 1906.864
976.7972, 1930.011
977.2794, 1959.459
977.7615, 1961.838
978.2435, 1939.203
978.7256, 1919.209
979.2078, 1924.060
979.6899, 1929.637
980.1720, 1918.624
980.6541, 1896.660
981.1362, 1889.300
981.6183, 1899.748
982.1005, 1910.794
982.5826, 1918.669
983.0647, 1922.534
983.5468, 1917.037
984.0289, 1906.945
984.5110, 1902.777
984.9932, 1911.682
985.4753, 1919.548
985.9574, 1920.371
986.4395, 1919.624
986.9216, 1923.459
987.4037, 1933.331
987.8859, 1931.627
988.3680, 1916.797
988.8501, 1901.154
989.3322, 1893.494
989.8143, 1891.934
990.2964, 1896.273
990.7786, 1906.019
991.2607, 1913.945
991.7428, 1922.491
992.2249, 1922.680
992.7070, 1907.769
993.1891, 1884.277
993.6713, 1876.221
994.1534, 1881.495
994.6355, 1885.256
995.1176, 1879.119
995.5997, 1873.657
996.0818, 1881.621
996.5640, 1893.889
997.0461, 1896.427
997.5282, 1882.695
998.0103, 1869.417
998.4924, 1855.667
998.9745, 1845.543
999.4567, 1846.429
999.9388, 1853.818
1000.421, 1853.748
1000.903, 1845.268
1001.385, 1840.142
1001.867, 1850.506
1002.349, 1861.130
1002.831, 1862.584
1003.314, 1856.128
1003.796, 1848.754
1004.278, 1839.492
1004.760, 1836.961
1005.242, 1848.341
1005.724, 1862.879
1006.206, 1856.332
1006.688, 1842.647
1007.171, 1849.386
1007.653, 1924.124
1008.135, 1965.240
1008.617, 1945.632
1009.099, 1906.070
1009.581, 1888.201
1010.063, 1890.953
1010.545, 1898.883
1011.027, 1911.193
1011.510, 1917.785
1011.992, 1900.167
1012.474, 1881.049
1012.956, 1883.997
1013.438, 1910.139
1013.920, 1920.563
1014.402, 1907.969
1014.884, 1893.932
1015.367, 1884.178
1015.849, 1879.497
1016.331, 1887.096
1016.813, 1901.531
1017.295, 1905.716
1017.777, 1883.146
1018.259, 1864.917
1018.741, 1865.999
1019.223, 1876.567
1019.706, 1887.118
1020.188, 1898.192
1020.670, 1905.392
1021.152, 1908.225
1021.634, 1909.743
1022.116, 1912.009
1022.598, 1914.892
1023.080, 1917.881
1023.563, 1921.053
1024.045, 1926.084
1024.527, 1938.711
1025.009, 1945.446
1025.491, 1941.271
1025.973, 1929.516
1026.455, 1917.366
1026.937, 1905.350
1027.419, 1896.196
1027.901, 1890.747
1028.384, 1888.778
1028.866, 1889.414
1029.348, 1894.003
1029.830, 1906.579
1030.312, 1936.368
1030.794, 1939.882
1031.276, 1911.210
1031.758, 1881.547
1032.241, 1878.556
1032.723, 1890.913
1033.205, 1903.696
1033.687, 1915.013
1034.169, 1918.461
1034.651, 1905.855
1035.133, 1890.780
1035.615, 1871.986
1036.098, 1856.432
1036.580, 1867.109
1037.062, 1900.626
1037.544, 1919.136
1038.026, 1909.728
1038.508, 1895.829
1038.990, 1889.757
1039.472, 1894.330
1039.954, 1898.406
1040.437, 1932.692
1040.919, 1951.993
1041.401, 1957.113
1041.883, 1905.583
1042.365, 1927.206
1042.847, 1919.512
1043.329, 1910.616
1043.811, 1942.534
1044.293, 1899.244
1044.776, 1930.515
1045.258, 1932.023
1045.740, 1947.153
1046.222, 1932.785
1046.704, 1927.528
1047.186, 1951.778
1047.668, 1959.690
1048.150, 1941.927
1048.633, 1957.923
1049.115, 1886.002
1049.597, 1920.214
1050.079, 1939.440
1050.561, 1944.487
1051.043, 1892.882
1051.525, 1914.431
1052.007, 1906.663
1052.490, 1897.693
1052.972, 1929.538
1053.454, 1886.173
1053.936, 1917.370
1054.418, 1918.804
1054.900, 1933.859
1055.382, 1919.418
1055.864, 1914.087
1056.346, 1938.263
1056.828, 1946.100
1057.311, 1928.263
1057.793, 1944.184
1058.275, 1899.789
1058.757, 1908.323
1059.239, 1939.693
1059.721, 1923.339
1060.203, 1939.800
1060.685, 1943.763
1061.168, 1890.928
1061.650, 1926.360
1062.132, 1932.722
1062.614, 1923.922
1063.096, 1910.020
1063.578, 1908.948
1064.060, 1914.922
1064.542, 1915.353
1065.025, 1903.981
1065.507, 1897.228
1065.989, 1903.241
1066.471, 1912.550
1066.953, 1922.576
1067.435, 1932.472
1067.917, 1926.723
1068.399, 1906.544
1068.881, 1887.469
1069.364, 1876.309
1069.846, 1871.470
1070.328, 1876.113
1070.810, 1885.371
1071.292, 1887.901
1071.774, 1880.008
1072.256, 1877.822
1072.738, 1883.894
1073.220, 1892.290
1073.703, 1899.644
1074.185, 1903.262
1074.667, 1896.529
1075.149, 1878.728
1075.631, 1864.786
1076.113, 1856.784
1076.595, 1856.216
1077.077, 1866.228
1077.559, 1882.378
1078.042, 1891.458
1078.524, 1895.173
1079.006, 1901.757
1079.488, 1919.077
1079.970, 1928.033
1080.452, 1906.218
1080.934, 1879.396
1081.416, 1873.605
1081.899, 1892.625
1082.381, 1904.984
1082.863, 1910.552
1083.345, 1909.580
1083.827, 1892.744
1084.309, 1876.994
1084.791, 1884.228
1085.273, 1907.314
1085.755, 1921.395
1086.238, 1916.354
1086.720, 1917.148
1087.202, 1930.041
1087.684, 1942.336
1088.166, 1930.973
1088.648, 1907.769
1089.130, 1901.063
1089.612, 1915.298
1090.094, 1927.632
1090.577, 1925.206
1091.059, 1922.960
1091.541, 1930.032
1092.023, 1941.408
1092.505, 1933.360
1092.987, 1908.782
1093.469, 1889.660
1093.951, 1883.825
1094.434, 1885.410
1094.916, 1896.137
1095.398, 1908.639
1095.880, 1914.944
1096.362, 1915.106
1096.844, 1905.151
1097.326, 1882.780
1097.808, 1867.694
1098.291, 1879.459
1098.773, 1902.313
1099.255, 1921.859
1099.737, 1935.668
1100.219, 1936.060
1100.701, 1908.125
1101.183, 1889.313
1101.665, 1884.740
1102.147, 1887.519
1102.630, 1888.287
1103.112, 1889.500
1103.594, 1900.855
1104.076, 1923.270
1104.558, 1936.678
1105.040, 1922.357
1105.522, 1907.468
1106.004, 1903.065
1106.486, 1906.238
1106.969, 1909.240
1107.451, 1911.574
1107.933, 1908.224
1108.415, 1894.528
1108.897, 1884.076
1109.379, 1893.860
1109.861, 1906.835
1110.343, 1904.445
1110.826, 1884.145
1111.308, 1875.864
1111.790, 1880.911
1112.272, 1885.372
1112.754, 1879.323
1113.236, 1869.765
1113.718, 1865.272
1114.200, 1863.292
1114.682, 1857.807
1115.165, 1841.665
1115.647, 1834.830
1116.129, 1840.192
1116.611, 1850.127
1117.093, 1858.776
1117.575, 1865.663
1118.057, 1868.644
1118.539, 1868.197
1119.021, 1869.594
1119.504, 1881.260
1119.986, 1886.086
1120.468, 1877.153
1120.950, 1862.089
1121.432, 1855.361
1121.914, 1856.093
1122.396, 1861.776
1122.878, 1873.142
1123.361, 1881.623
1123.843, 1879.839
1124.325, 1875.792
1124.807, 1874.741
1125.289, 1876.182
1125.771, 1872.943
1126.253, 1865.535
1126.735, 1869.116
1127.218, 1899.752
1127.700, 1925.957
1128.182, 1911.367
1128.664, 1881.813
1129.146, 1873.234
1129.628, 1896.542
1130.110, 1900.541
1130.592, 1882.634
1131.074, 1862.193
1131.557, 1848.798
1132.039, 1843.660
1132.521, 1854.280
1133.003, 1874.516
1133.485, 1886.511
1133.967, 1882.936
1134.449, 1878.124
1134.931, 1870.787
1135.413, 1869.249
1135.896, 1892.694
1136.378, 1925.109
1136.860, 1934.699
1137.342, 1920.057
1137.824, 1902.623
1138.306, 1881.511
1138.788, 1869.807
1139.270, 1873.629
1139.752, 1885.233
1140.235, 1885.617
1140.717, 1879.767
1141.199, 1887.545
1141.681, 1917.081
1142.163, 1937.443
1142.645, 1923.073
1143.127, 1905.136
1143.609, 1857.031
1144.092, 1889.124
1144.574, 1906.587
1145.056, 1910.204
1145.538, 1858.503
1146.020, 1878.233
1146.502, 1869.337
1146.984, 1859.267
1147.466, 1889.051
1147.948, 1845.396
1148.431, 1874.545
1148.913, 1874.634
1149.395, 1888.024
1149.877, 1872.611
1150.359, 1866.094
1150.841, 1888.390
1151.323, 1887.534
1151.805, 1898.162
1152.287, 1905.638
1152.770, 1909.708
1153.252, 1908.623
1153.734, 1901.390
1154.216, 1893.461
1154.698, 1892.409
1155.180, 1891.975
1155.662, 1882.324
1156.144, 1865.188
1156.627, 1855.388
1157.109, 1854.299
1157.591, 1860.943
1158.073, 1878.226
1158.555, 1895.203
1159.037, 1894.785
1159.519, 1885.157
1160.001, 1880.446
1160.484, 1883.163
1160.966, 1879.004
1161.448, 1853.697
1161.930, 1843.809
1162.412, 1869.197
1162.894, 1907.009
1163.376, 1903.922
1163.858, 1874.541
1164.340, 1854.062
1164.823, 1852.938
1165.305, 1855.922
1165.787, 1857.759
1166.269, 1864.745
1166.751, 1885.358
1167.233, 1912.537
1167.715, 1913.078
1168.197, 1893.022
1168.679, 1876.597
1169.162, 1877.329
1169.644, 1878.090
1170.126, 1864.906
1170.608, 1856.895
1171.090, 1878.885
1171.572, 1926.295
1172.054, 1925.529
1172.536, 1882.064
1173.019, 1854.023
1173.501, 1897.991
1173.983, 1938.793
1174.465, 1935.017
1174.947, 1910.831
1175.429, 1895.307
1175.911, 1888.523
1176.393, 1882.967
1176.875, 1878.197
1177.358, 1878.366
1177.840, 1887.195
1178.322, 1901.394
1178.804, 1926.773
1179.286, 1954.339
1179.768, 1955.751
1180.250, 1929.453
1180.732, 1921.761
1181.214, 1943.010
1181.697, 1964.538
1182.179, 1961.941
1182.661, 1948.803
1183.143, 1935.257
1183.625, 1921.612
1184.107, 1902.280
1184.589, 1875.438
1185.071, 1864.246
1185.554, 1878.061
1186.036, 1899.546
1186.518, 1919.356
1187.000, 1931.796
1187.482, 1927.138
1187.964, 1904.011
1188.446, 1887.713
1188.928, 1878.693
1189.411, 1872.271
1189.893, 1864.573
1190.375, 1861.859
1190.857, 1876.777
1191.339, 1898.949
1191.821, 1915.048
1192.303, 1925.328
1192.785, 1918.204
1193.267, 1889.096
1193.750, 1866.823
1194.232, 1871.325
1194.714, 1889.620
1195.196, 1915.702
1195.678, 1940.673
1196.160, 1945.575
1196.642, 1911.383
1197.124, 1894.433
1197.606, 1897.459
1198.089, 1908.044
1198.571, 1923.651
1199.053, 1935.746
1199.535, 1925.783
1200.017, 1902.160
1200.499, 1892.684
1200.981, 1913.864
1201.463, 1920.300
1201.945, 1904.847
1202.428, 1887.325
1202.910, 1889.299
1203.392, 1900.503
1203.874, 1909.281
1204.356, 1914.232
1204.838, 1910.426
1205.320, 1886.388
1205.802, 1880.114
1206.285, 1901.305
1206.767, 1929.977
1207.249, 1944.086
1207.731, 1947.654
1208.213, 1940.847
1208.695, 1924.842
1209.177, 1927.350
1209.659, 1965.679
1210.141, 1986.276
1210.624, 1971.514
1211.106, 1944.855
1211.588, 1940.568
1212.070, 1947.177
1212.552, 1946.232
1213.034, 1934.292
1213.516, 1922.925
1213.998, 1907.757
1214.480, 1908.855
1214.963, 1940.698
1215.445, 1978.240
1215.927, 1974.241
1216.409, 1947.837
1216.891, 1932.270
1217.373, 1938.499
1217.855, 1931.434
1218.337, 1900.330
1218.820, 1878.000
1219.302, 1883.647
1219.784, 1900.597
1220.266, 1893.474
1220.748, 1876.961
1221.230, 1879.296
1221.712, 1919.614
1222.194, 1943.512
1222.677, 1945.906
1223.159, 1939.086
1223.641, 1923.788
1224.123, 1909.446
1224.605, 1918.678
1225.087, 1940.278
1225.569, 1951.716
1226.051, 1939.254
1226.533, 1930.742
1227.016, 1927.437
1227.498, 1925.431
1227.980, 1923.407
1228.462, 1919.972
1228.944, 1909.653
1229.426, 1896.464
1229.908, 1890.127
1230.390, 1898.153
1230.872, 1902.892
1231.355, 1902.675
1231.837, 1903.536
1232.319, 1912.343
1232.801, 1924.103
1233.283, 1935.741
1233.765, 1944.260
1234.247, 1938.865
1234.729, 1905.276
1235.212, 1891.806
1235.694, 1905.516
1236.176, 1923.786
1236.658, 1928.041
1237.140, 1922.486
1237.622, 1903.028
1238.104, 1877.232
1238.586, 1877.230
1239.068, 1917.248
1239.551, 1941.213
1240.033, 1941.466
1240.515, 1931.620
1240.997, 1914.887
1241.479, 1903.280
1241.961, 1918.745
1242.443, 1953.957
1242.925, 1964.337
1243.407, 1941.853
1243.890, 1923.000
1244.372, 1912.654
1244.854, 1912.352
1245.336, 1933.714
1245.818, 1958.153
1246.300, 1963.215
1246.782, 1951.996
1247.264, 1958.899
1247.747, 1988.110
1248.229, 2004.027
1248.711, 1998.749
1249.193, 1981.954
1249.675, 1955.100
1250.157, 1926.964
1250.639, 1898.485
1251.121, 1874.833
1251.604, 1890.515
1252.086, 1948.506
1252.568, 1978.374
1253.050, 1959.402
1253.532, 1929.976
1254.014, 1919.205
1254.496, 1914.321
1254.978, 1901.913
1255.460, 1885.715
1255.943, 1889.085
1256.425, 1911.072
1256.907, 1935.607
1257.389, 1962.931
1257.871, 1973.030
1258.353, 1928.716
1258.835, 1884.099
1259.317, 1878.732
1259.799, 1904.165
1260.281, 1919.718
1260.764, 1926.449
1261.246, 1930.859
1261.728, 1936.149
1262.210, 1935.173
1262.692, 1920.336
1263.174, 1901.528
1263.656, 1882.020
1264.138, 1864.265
1264.621, 1860.504
1265.103, 1867.873
1265.585, 1876.233
1266.067, 1884.204
1266.549, 1887.071
1267.031, 1872.004
1267.513, 1866.067
1267.995, 1887.797
1268.478, 1925.349
1268.960, 1946.905
1269.442, 1954.357
1269.924, 1952.134
1270.406, 1938.713
1270.888, 1921.432
1271.370, 1894.933
1271.852, 1878.875
1272.334, 1890.172
1272.817, 1913.817
1273.299, 1915.552
1273.781, 1904.674
1274.263, 1901.099
1274.745, 1916.396
1275.227, 1922.599
1275.709, 1915.471
1276.191, 1910.386
1276.673, 1919.204
1277.156, 1932.312
1277.638, 1938.168
1278.120, 1936.733
1278.602, 1925.880
1279.084, 1896.939
1279.566, 1889.534
1280.048, 1906.644
1280.530, 1925.557
1281.013, 1938.899
1281.495, 1940.647
1281.977, 1911.277
1282.459, 1872.732
1282.941, 1860.797
1283.423, 1882.002
1283.905, 1891.080
1284.387, 1887.827
1284.870, 1890.384
1285.352, 1919.044
1285.834, 1945.398
1286.316, 1948.014
1286.798, 1939.031
1287.280, 1932.350
1287.762, 1927.919
1288.244, 1929.671
1288.726, 1936.913
1289.208, 1944.028
1289.691, 1953.148
1290.173, 1954.887
1290.655, 1936.244
1291.137, 1916.894
1291.619, 1915.643
1292.101, 1928.594
1292.583, 1931.133
1293.065, 1925.307
1293.548, 1918.428
1294.030, 1915.018
1294.512, 1907.981
1294.994, 1893.984
1295.476, 1880.570
1295.958, 1875.821
1296.440, 1875.313
1296.922, 1864.723
1297.405, 1852.630
1297.887, 1853.099
1298.369, 1874.248
1298.851, 1891.973
1299.333, 1906.794
1299.815, 1914.469
1300.297, 1912.712
1300.779, 1901.523
##END=



