##NAMES=Aqualite
##RRUFFID=R070413
##IDEAL CHEMISTRY=(H_3_O)_8_(Na,K,Sr)_5_Ca_6_Zr^4+^_3_Si_26_O_66_(OH)_9_Cl
##LOCALITY=Kovdor Phlogopite mine (Mica mine; Slyuda mine; Kovdorslyuda Shaft), Kovdor Massif, Kola Peninsula, Murmanskaja Oblast', Northern Region, Russia
##OWNER=RRUFF
##SOURCE=Michael Scott
##DESCRIPTION=Pink gemmy massive inclusions in matrix of fine-grained white undetermined zeolite
##STATUS=The identification of this mineral has been confirmed only by single crystal X-ray diffraction.
##URL=rruff.info/R070413
165.8563, 4772.539
166.3384, 4815.424
166.8205, 4858.087
167.3026, 4902.286
167.7847, 4949.864
168.2668, 4999.246
168.7490, 5048.108
169.2311, 5098.637
169.7132, 5143.769
170.1953, 5174.058
170.6774, 5197.801
171.1595, 5228.898
171.6417, 5279.199
172.1238, 5338.645
172.6059, 5380.899
173.0880, 5399.361
173.5701, 5413.106
174.0522, 5424.500
174.5344, 5438.389
175.0165, 5463.411
175.4986, 5509.116
175.9807, 5565.515
176.4628, 5603.021
176.9449, 5607.729
177.4271, 5619.228
177.9092, 5659.707
178.3913, 5713.433
178.8734, 5758.039
179.3555, 5780.088
179.8376, 5788.893
180.3197, 5813.634
180.8019, 5865.058
181.2840, 5913.808
181.7661, 5956.067
182.2482, 5989.406
182.7303, 6008.552
183.2124, 6008.493
183.6946, 5996.659
184.1767, 5994.525
184.6588, 6006.982
185.1409, 6021.260
185.6230, 6030.475
186.1051, 6040.291
186.5873, 6059.372
187.0694, 6093.514
187.5515, 6134.158
188.0336, 6157.468
188.5157, 6149.081
188.9978, 6147.582
189.4800, 6166.294
189.9621, 6192.864
190.4442, 6214.445
190.9263, 6224.997
191.4084, 6229.072
191.8905, 6237.926
192.3727, 6255.435
192.8548, 6270.977
193.3369, 6278.210
193.8190, 6285.039
194.3011, 6300.307
194.7832, 6327.641
195.2654, 6361.204
195.7475, 6387.763
196.2296, 6402.284
196.7117, 6419.472
197.1938, 6442.911
197.6759, 6468.487
198.1581, 6494.207
198.6402, 6519.248
199.1223, 6540.674
199.6044, 6551.257
200.0865, 6540.738
200.5686, 6540.204
201.0508, 6558.620
201.5329, 6582.265
202.0150, 6601.600
202.4971, 6613.771
202.9792, 6620.516
203.4613, 6623.060
203.9435, 6615.269
204.4256, 6617.671
204.9077, 6639.321
205.3898, 6664.158
205.8719, 6683.794
206.3540, 6695.532
206.8362, 6698.843
207.3183, 6689.782
207.8004, 6657.328
208.2825, 6641.486
208.7646, 6650.896
209.2467, 6668.108
209.7289, 6687.528
210.2110, 6706.127
210.6931, 6719.519
211.1752, 6720.652
211.6573, 6704.090
212.1395, 6695.342
212.6216, 6703.554
213.1037, 6711.271
213.5858, 6705.970
214.0679, 6690.312
214.5500, 6678.440
215.0322, 6687.042
215.5143, 6721.409
215.9964, 6740.609
216.4785, 6731.474
216.9606, 6719.719
217.4427, 6713.545
217.9249, 6713.034
218.4070, 6714.647
218.8891, 6714.950
219.3712, 6713.738
219.8533, 6718.815
220.3354, 6739.188
220.8176, 6757.361
221.2997, 6771.894
221.7818, 6780.501
222.2639, 6777.946
222.7460, 6757.789
223.2281, 6723.137
223.7103, 6709.515
224.1924, 6745.672
224.6745, 6772.447
225.1566, 6770.937
225.6387, 6753.688
226.1208, 6740.018
226.6030, 6741.248
227.0851, 6753.963
227.5672, 6764.369
228.0493, 6776.747
228.5314, 6780.020
229.0135, 6762.670
229.4957, 6739.396
229.9778, 6727.393
230.4599, 6734.590
230.9420, 6754.482
231.4241, 6772.250
231.9062, 6791.840
232.3884, 6801.239
232.8705, 6798.976
233.3526, 6787.708
233.8347, 6764.284
234.3168, 6728.660
234.7989, 6694.182
235.2811, 6686.802
235.7632, 6722.095
236.2453, 6747.771
236.7274, 6750.647
237.2095, 6749.920
237.6916, 6762.544
238.1738, 6789.861
238.6559, 6815.273
239.1380, 6813.402
239.6201, 6771.924
240.1022, 6749.121
240.5843, 6761.790
241.0665, 6781.419
241.5486, 6796.310
242.0307, 6805.315
242.5128, 6812.505
242.9949, 6822.574
243.4770, 6836.185
243.9592, 6844.787
244.4413, 6845.730
244.9234, 6843.697
245.4055, 6835.980
245.8876, 6826.198
246.3697, 6823.225
246.8519, 6837.217
247.3340, 6865.044
247.8161, 6876.645
248.2982, 6857.054
248.7803, 6840.762
249.2624, 6841.721
249.7446, 6853.265
250.2267, 6864.385
250.7088, 6869.140
251.1909, 6869.771
251.6730, 6872.347
252.1551, 6876.175
252.6373, 6883.704
253.1194, 6903.400
253.6015, 6923.710
254.0836, 6929.771
254.5657, 6914.062
255.0478, 6890.608
255.5300, 6882.321
256.0121, 6892.845
256.4942, 6904.908
256.9763, 6914.056
257.4584, 6922.668
257.9406, 6931.314
258.4227, 6939.967
258.9048, 6952.360
259.3869, 6977.909
259.8690, 7017.846
260.3511, 7042.043
260.8333, 7033.337
261.3154, 7016.678
261.7975, 7009.446
262.2796, 7012.153
262.7617, 7017.470
263.2438, 7023.243
263.7260, 7028.310
264.2081, 7023.919
264.6902, 7000.969
265.1723, 6981.360
265.6544, 6980.344
266.1365, 6994.953
266.6187, 7016.563
267.1008, 7049.406
267.5829, 7085.024
268.0650, 7102.927
268.5471, 7097.920
269.0292, 7090.599
269.5114, 7098.835
269.9935, 7114.145
270.4756, 7121.409
270.9577, 7110.011
271.4398, 7094.491
271.9219, 7093.068
272.4041, 7106.201
272.8862, 7117.461
273.3683, 7115.723
273.8504, 7108.472
274.3325, 7110.926
274.8146, 7129.702
275.2968, 7147.437
275.7789, 7149.427
276.2610, 7139.638
276.7431, 7134.614
277.2252, 7140.995
277.7073, 7153.775
278.1895, 7165.485
278.6716, 7176.769
279.1537, 7184.852
279.6358, 7186.596
280.1179, 7184.930
280.6000, 7186.670
281.0822, 7194.346
281.5643, 7198.883
282.0464, 7183.970
282.5285, 7146.652
283.0106, 7128.893
283.4927, 7158.960
283.9749, 7195.675
284.4570, 7195.006
284.9391, 7156.170
285.4212, 7118.554
285.9033, 7115.536
286.3854, 7146.961
286.8676, 7168.379
287.3497, 7172.417
287.8318, 7174.626
288.3139, 7187.088
288.7960, 7204.354
289.2781, 7210.014
289.7603, 7193.596
290.2424, 7161.058
290.7245, 7137.709
291.2066, 7123.946
291.6887, 7117.986
292.1708, 7127.347
292.6530, 7141.668
293.1351, 7146.533
293.6172, 7137.066
294.0993, 7121.929
294.5814, 7116.766
295.0635, 7129.570
295.5457, 7137.599
296.0278, 7138.167
296.5099, 7136.253
296.9920, 7137.320
297.4741, 7140.731
297.9562, 7138.789
298.4384, 7119.873
298.9205, 7077.341
299.4026, 7065.087
299.8847, 7117.103
300.3668, 7164.497
300.8489, 7181.869
301.3310, 7176.040
301.8131, 7165.314
302.2953, 7161.523
302.7774, 7162.809
303.2595, 7160.294
303.7416, 7158.382
304.2237, 7144.886
304.7058, 7102.223
305.1880, 7054.563
305.6701, 7031.656
306.1522, 7045.216
306.6343, 7072.454
307.1164, 7072.742
307.5985, 7035.736
308.0807, 7010.407
308.5628, 7010.309
309.0449, 7021.528
309.5270, 7043.246
310.0091, 7072.921
310.4912, 7095.258
310.9734, 7092.436
311.4555, 7067.099
311.9376, 7048.785
312.4197, 7043.116
312.9018, 7039.695
313.3839, 7029.346
313.8661, 7015.581
314.3482, 7007.897
314.8303, 7012.360
315.3124, 7024.719
315.7945, 7040.815
316.2766, 7062.718
316.7588, 7076.090
317.2409, 7070.177
317.7230, 7051.142
318.2051, 7027.658
318.6872, 6994.903
319.1693, 6968.266
319.6515, 6963.529
320.1336, 6976.318
320.6157, 6986.666
321.0978, 6987.048
321.5799, 6983.339
322.0620, 6986.018
322.5442, 6996.567
323.0263, 7003.235
323.5084, 6994.347
323.9905, 6983.284
324.4726, 6993.284
324.9547, 7028.101
325.4369, 7059.627
325.9190, 7057.616
326.4011, 7017.735
326.8832, 6996.488
327.3653, 7008.718
327.8474, 7025.064
328.3296, 7028.310
328.8117, 7021.579
329.2938, 7015.064
329.7759, 7013.387
330.2580, 7018.801
330.7401, 7041.714
331.2223, 7112.273
331.7044, 7163.086
332.1865, 7178.229
332.6686, 7174.467
333.1507, 7166.543
333.6328, 7159.922
334.1150, 7156.831
334.5971, 7161.493
335.0792, 7178.343
335.5613, 7190.877
336.0434, 7199.586
336.5255, 7204.157
337.0077, 7198.863
337.4898, 7188.172
337.9719, 7184.725
338.4540, 7200.103
338.9361, 7231.945
339.4182, 7259.359
339.9004, 7282.450
340.3825, 7300.058
340.8646, 7315.744
341.3467, 7325.304
341.8288, 7320.048
342.3109, 7294.170
342.7931, 7264.697
343.2752, 7259.679
343.7573, 7282.966
344.2394, 7303.581
344.7215, 7315.234
345.2036, 7320.448
345.6858, 7318.688
346.1679, 7310.363
346.6500, 7304.984
347.1321, 7312.266
347.6142, 7327.016
348.0963, 7333.724
348.5785, 7328.653
349.0606, 7322.500
349.5427, 7324.933
350.0248, 7333.197
350.5069, 7339.235
350.9890, 7346.517
351.4712, 7347.210
351.9533, 7329.906
352.4354, 7298.189
352.9175, 7269.769
353.3996, 7251.351
353.8817, 7243.231
354.3639, 7249.482
354.8460, 7280.146
355.3281, 7301.083
355.8102, 7297.067
356.2923, 7282.790
356.7744, 7274.607
357.2566, 7276.168
357.7387, 7283.890
358.2208, 7295.341
358.7029, 7313.368
359.1850, 7318.017
359.6671, 7288.654
360.1493, 7268.265
360.6314, 7291.261
361.1135, 7337.813
361.5956, 7360.612
362.0777, 7329.259
362.5598, 7262.558
363.0420, 7230.653
363.5241, 7262.659
364.0062, 7283.712
364.4883, 7271.146
364.9704, 7253.706
365.4525, 7260.907
365.9347, 7296.684
366.4168, 7333.978
366.8989, 7339.938
367.3810, 7312.538
367.8631, 7287.285
368.3452, 7258.975
368.8274, 7241.585
369.3095, 7249.850
369.7916, 7273.525
370.2737, 7287.325
370.7558, 7271.479
371.2379, 7245.534
371.7201, 7245.402
372.2022, 7273.805
372.6843, 7302.160
373.1664, 7322.103
373.6485, 7332.351
374.1306, 7330.092
374.6128, 7310.783
375.0949, 7294.988
375.5770, 7295.469
376.0591, 7306.701
376.5412, 7320.078
377.0233, 7334.758
377.5055, 7344.468
377.9876, 7341.697
378.4697, 7324.868
378.9518, 7308.499
379.4339, 7292.132
379.9160, 7276.851
380.3982, 7259.245
380.8803, 7242.985
381.3624, 7240.176
381.8445, 7258.943
382.3266, 7289.964
382.8087, 7304.987
383.2909, 7281.604
383.7730, 7271.133
384.2551, 7288.472
384.7372, 7310.005
385.2193, 7318.911
385.7014, 7311.277
386.1836, 7289.175
386.6657, 7248.163
387.1478, 7185.730
387.6299, 7156.515
388.1120, 7188.987
388.5941, 7223.400
389.0763, 7245.146
389.5584, 7254.850
390.0405, 7253.521
390.5226, 7240.163
391.0047, 7220.307
391.4868, 7200.910
391.9690, 7181.621
392.4511, 7166.844
392.9332, 7157.951
393.4153, 7154.397
393.8974, 7157.278
394.3795, 7166.410
394.8617, 7173.092
395.3438, 7176.762
395.8259, 7174.053
396.3080, 7153.656
396.7901, 7113.316
397.2722, 7079.436
397.7544, 7074.024
398.2365, 7091.079
398.7186, 7095.443
399.2007, 7068.624
399.6828, 7049.995
400.1649, 7066.214
400.6471, 7098.004
401.1292, 7110.635
401.6113, 7092.618
402.0934, 7063.256
402.5755, 7051.729
403.0576, 7067.777
403.5398, 7072.153
404.0219, 7059.107
404.5040, 7041.515
404.9861, 7021.445
405.4682, 7002.301
405.9503, 6991.101
406.4325, 6993.451
406.9146, 7004.308
407.3967, 7005.405
407.8788, 6992.320
408.3609, 6978.332
408.8430, 6958.665
409.3252, 6943.852
409.8073, 6945.854
410.2894, 6965.334
410.7715, 6986.139
411.2536, 6996.245
411.7357, 6996.279
412.2179, 6986.281
412.7000, 6960.434
413.1821, 6938.660
413.6642, 6944.393
414.1463, 6963.469
414.6284, 6966.263
415.1106, 6932.441
415.5927, 6899.082
416.0748, 6899.503
416.5569, 6923.276
417.0390, 6937.750
417.5211, 6931.215
418.0033, 6913.460
418.4854, 6897.493
418.9675, 6881.922
419.4496, 6874.254
419.9317, 6884.890
420.4138, 6895.281
420.8960, 6889.733
421.3781, 6872.114
421.8602, 6858.291
422.3423, 6859.217
422.8244, 6870.237
423.3065, 6871.426
423.7887, 6860.397
424.2708, 6842.265
424.7529, 6798.064
425.2350, 6760.558
425.7171, 6766.170
426.1992, 6814.756
426.6814, 6864.313
427.1635, 6872.088
427.6456, 6841.745
428.1277, 6815.983
428.6098, 6795.197
429.0919, 6778.425
429.5741, 6763.620
430.0562, 6752.626
430.5383, 6749.859
431.0204, 6759.565
431.5025, 6770.719
431.9846, 6777.815
432.4668, 6779.398
432.9489, 6766.601
433.4310, 6733.139
433.9131, 6698.705
434.3952, 6690.050
434.8773, 6710.896
435.3595, 6717.912
435.8416, 6699.546
436.3237, 6675.083
436.8058, 6651.296
437.2879, 6631.101
437.7701, 6620.648
438.2522, 6623.778
438.7343, 6634.120
439.2164, 6634.965
439.6985, 6616.897
440.1806, 6606.146
440.6628, 6610.470
441.1449, 6615.342
441.6270, 6608.143
442.1091, 6591.657
442.5912, 6580.334
443.0733, 6588.714
443.5555, 6609.336
444.0376, 6610.527
444.5197, 6583.607
445.0018, 6561.631
445.4839, 6566.014
445.9660, 6576.908
446.4482, 6571.560
446.9303, 6544.441
447.4124, 6523.388
447.8945, 6532.663
448.3766, 6558.682
448.8587, 6575.527
449.3409, 6580.151
449.8230, 6570.307
450.3051, 6537.887
450.7872, 6486.947
451.2693, 6457.811
451.7514, 6465.447
452.2336, 6475.617
452.7157, 6477.521
453.1978, 6475.117
453.6799, 6474.341
454.1620, 6476.853
454.6441, 6479.895
455.1263, 6479.224
455.6084, 6473.193
456.0905, 6472.798
456.5726, 6490.604
457.0547, 6501.100
457.5368, 6493.087
458.0190, 6473.375
458.5011, 6451.002
458.9832, 6428.151
459.4653, 6411.803
459.9474, 6416.483
460.4295, 6442.592
460.9117, 6460.730
461.3938, 6462.840
461.8759, 6458.628
462.3580, 6456.978
462.8401, 6457.045
463.3222, 6453.917
463.8044, 6436.290
464.2865, 6422.705
464.7686, 6437.652
465.2507, 6473.150
465.7328, 6496.399
466.2149, 6492.208
466.6971, 6471.726
467.1792, 6456.280
467.6613, 6447.890
468.1434, 6440.739
468.6255, 6432.611
469.1076, 6427.572
469.5898, 6430.397
470.0719, 6438.755
470.5540, 6445.733
471.0361, 6446.631
471.5182, 6444.198
472.0003, 6447.181
472.4825, 6458.362
472.9646, 6467.318
473.4467, 6478.350
473.9288, 6481.369
474.4109, 6461.747
474.8930, 6422.565
475.3752, 6392.539
475.8573, 6393.427
476.3394, 6411.813
476.8215, 6426.147
477.3036, 6435.868
477.7857, 6445.190
478.2679, 6459.464
478.7500, 6471.960
479.2321, 6463.102
479.7142, 6420.993
480.1963, 6390.750
480.6784, 6388.881
481.1606, 6397.199
481.6427, 6400.427
482.1248, 6397.121
482.6069, 6392.045
483.0890, 6388.354
483.5711, 6386.317
484.0533, 6387.814
484.5354, 6397.454
485.0175, 6402.926
485.4996, 6400.090
485.9817, 6394.638
486.4638, 6390.057
486.9460, 6387.190
487.4281, 6386.706
487.9102, 6387.900
488.3923, 6391.919
488.8744, 6405.425
489.3565, 6431.254
489.8387, 6449.910
490.3208, 6448.430
490.8029, 6434.781
491.2850, 6426.683
491.7671, 6426.326
492.2492, 6425.035
492.7314, 6419.943
493.2135, 6412.402
493.6956, 6399.855
494.1777, 6384.355
494.6598, 6378.325
495.1419, 6392.880
495.6241, 6423.941
496.1062, 6445.674
496.5883, 6459.486
497.0704, 6460.557
497.5525, 6437.627
498.0346, 6409.888
498.5168, 6389.688
498.9989, 6380.291
499.4810, 6383.382
499.9631, 6408.269
500.4452, 6446.494
500.9273, 6465.084
501.4095, 6461.559
501.8916, 6447.380
502.3737, 6412.554
502.8558, 6379.169
503.3379, 6385.922
503.8200, 6445.523
504.3022, 6493.996
504.7843, 6497.640
505.2664, 6483.104
505.7485, 6479.800
506.2306, 6489.703
506.7127, 6503.234
507.1949, 6515.574
507.6770, 6524.294
508.1591, 6518.304
508.6412, 6480.259
509.1233, 6452.671
509.6054, 6441.854
510.0876, 6438.587
510.5697, 6436.339
511.0518, 6434.944
511.5339, 6438.211
512.0161, 6450.117
512.4982, 6467.833
512.9803, 6486.455
513.4624, 6507.858
513.9445, 6516.970
514.4266, 6500.362
514.9088, 6475.721
515.3909, 6467.802
515.8730, 6478.120
516.3551, 6484.617
516.8372, 6477.658
517.3193, 6466.175
517.8015, 6457.345
518.2836, 6451.487
518.7657, 6446.604
519.2478, 6441.428
519.7299, 6437.706
520.2120, 6440.319
520.6942, 6456.948
521.1763, 6465.074
521.6584, 6457.153
522.1405, 6448.821
522.6226, 6451.161
523.1047, 6460.055
523.5869, 6463.128
524.0690, 6452.182
524.5511, 6436.027
525.0332, 6429.199
525.5153, 6431.647
525.9974, 6434.564
526.4796, 6434.425
526.9617, 6436.531
527.4438, 6450.251
527.9259, 6473.738
528.4080, 6489.005
528.8901, 6494.402
529.3723, 6490.063
529.8544, 6465.789
530.3365, 6433.772
530.8186, 6417.984
531.3007, 6426.383
531.7828, 6448.054
532.2650, 6469.733
532.7471, 6493.032
533.2292, 6506.645
533.7113, 6503.486
534.1934, 6498.347
534.6755, 6488.820
535.1577, 6482.647
535.6398, 6493.273
536.1219, 6526.321
536.6040, 6559.711
537.0861, 6568.898
537.5682, 6561.731
538.0504, 6565.041
538.5325, 6583.221
539.0146, 6601.331
539.4967, 6606.833
539.9788, 6603.628
540.4609, 6611.045
540.9431, 6641.470
541.4252, 6664.446
541.9073, 6672.048
542.3894, 6670.652
542.8715, 6659.055
543.3536, 6642.283
543.8358, 6639.050
544.3179, 6667.996
544.8000, 6718.821
545.2821, 6743.688
545.7642, 6730.931
546.2463, 6724.176
546.7285, 6739.968
547.2106, 6761.765
547.6926, 6774.852
548.1747, 6780.010
548.6569, 6792.557
549.1390, 6832.004
549.6211, 6872.995
550.1032, 6883.747
550.5853, 6869.824
551.0674, 6854.952
551.5496, 6847.249
552.0317, 6849.857
552.5138, 6870.373
552.9959, 6920.675
553.4780, 6948.327
553.9601, 6928.408
554.4423, 6915.951
554.9244, 6946.188
555.4065, 6994.406
555.8886, 7015.636
556.3707, 6992.615
556.8528, 6964.049
557.3350, 6985.392
557.8171, 7048.466
558.2992, 7083.876
558.7813, 7079.191
559.2634, 7065.745
559.7455, 7058.892
560.2277, 7059.894
560.7098, 7071.573
561.1919, 7105.547
561.6740, 7129.911
562.1561, 7123.078
562.6382, 7108.781
563.1204, 7118.377
563.6025, 7149.654
564.0846, 7170.928
564.5667, 7156.660
565.0488, 7118.953
565.5309, 7107.816
566.0131, 7137.454
566.4952, 7157.756
566.9773, 7154.842
567.4594, 7143.979
567.9415, 7132.879
568.4236, 7121.882
568.9058, 7109.838
569.3879, 7092.949
569.8700, 7077.707
570.3521, 7074.367
570.8342, 7078.600
571.3163, 7076.908
571.7985, 7065.486
572.2806, 7042.959
572.7627, 7004.461
573.2448, 6945.935
573.7269, 6909.101
574.2090, 6911.329
574.6912, 6912.896
575.1733, 6905.725
575.6554, 6891.834
576.1375, 6874.010
576.6196, 6852.837
577.1017, 6827.239
577.5839, 6791.733
578.0660, 6751.034
578.5481, 6720.624
579.0302, 6700.938
579.5123, 6691.464
579.9944, 6698.805
580.4766, 6710.363
580.9587, 6700.679
581.4408, 6667.445
581.9229, 6628.664
582.4050, 6581.552
582.8871, 6534.589
583.3693, 6493.374
583.8514, 6456.995
584.3335, 6419.352
584.8156, 6377.834
585.2977, 6342.305
585.7798, 6333.291
586.2620, 6354.191
586.7441, 6362.882
587.2262, 6360.143
587.7083, 6340.253
588.1904, 6281.201
588.6725, 6207.855
589.1547, 6163.449
589.6368, 6163.084
590.1189, 6166.319
590.6010, 6156.225
591.0831, 6137.377
591.5652, 6110.916
592.0474, 6079.934
592.5295, 6056.326
593.0116, 6048.459
593.4937, 6052.504
593.9758, 6058.526
594.4579, 6074.196
594.9401, 6073.502
595.4222, 6035.792
595.9043, 5997.953
596.3864, 5979.029
596.8685, 5974.732
597.3506, 5972.109
597.8328, 5966.080
598.3149, 5960.928
598.7970, 5964.727
599.2791, 5972.062
599.7612, 5964.470
600.2433, 5938.292
600.7255, 5917.758
601.2076, 5925.552
601.6897, 5957.149
602.1718, 5975.640
602.6539, 5975.806
603.1360, 5969.051
603.6182, 5946.097
604.1003, 5924.612
604.5824, 5923.015
605.0645, 5936.641
605.5466, 5942.282
606.0287, 5922.866
606.5109, 5893.394
606.9930, 5875.500
607.4751, 5868.192
607.9572, 5862.001
608.4393, 5852.507
608.9214, 5852.533
609.4036, 5880.186
609.8857, 5935.607
610.3678, 5966.760
610.8499, 5959.684
611.3320, 5948.474
611.8141, 5940.758
612.2963, 5932.768
612.7784, 5915.885
613.2605, 5892.476
613.7426, 5878.472
614.2247, 5887.380
614.7068, 5912.996
615.1890, 5944.169
615.6711, 5981.589
616.1532, 6009.434
616.6353, 6023.940
617.1174, 6025.422
617.5995, 6007.859
618.0817, 5970.735
618.5638, 5950.475
619.0459, 5962.184
619.5280, 5975.114
620.0101, 5975.883
620.4922, 5971.977
620.9744, 5976.655
621.4565, 5990.252
621.9386, 5996.118
622.4207, 5972.265
622.9028, 5931.677
623.3849, 5932.056
623.8671, 5982.363
624.3492, 6021.042
624.8313, 6026.485
625.3134, 6016.029
625.7955, 6007.267
626.2776, 6000.091
626.7598, 5995.812
627.2419, 5995.101
627.7240, 5996.820
628.2061, 5999.438
628.6882, 6004.541
629.1703, 6016.258
629.6525, 6034.502
630.1346, 6052.845
630.6167, 6066.779
631.0988, 6075.064
631.5809, 6067.312
632.0630, 6036.752
632.5452, 6017.286
633.0273, 6027.124
633.5094, 6044.693
633.9915, 6043.771
634.4736, 6025.560
634.9557, 6013.664
635.4379, 6019.557
635.9200, 6025.797
636.4021, 6018.051
636.8842, 6005.923
637.3663, 6007.676
637.8484, 6025.992
638.3306, 6043.475
638.8127, 6039.058
639.2948, 6019.357
639.7769, 6030.685
640.2590, 6087.092
640.7411, 6123.635
641.2233, 6107.923
641.7054, 6077.862
642.1875, 6075.172
642.6696, 6097.248
643.1517, 6111.845
643.6339, 6111.060
644.1160, 6102.527
644.5981, 6083.424
645.0802, 6062.044
645.5623, 6051.923
646.0444, 6055.131
646.5266, 6062.042
647.0087, 6063.175
647.4908, 6060.833
647.9729, 6066.140
648.4550, 6079.962
648.9371, 6098.574
649.4193, 6126.762
649.9014, 6153.138
650.3835, 6164.988
650.8656, 6164.368
651.3477, 6165.788
651.8298, 6181.252
652.3120, 6188.410
652.7941, 6165.492
653.2762, 6133.521
653.7583, 6122.411
654.2404, 6135.182
654.7225, 6153.534
655.2047, 6164.126
655.6868, 6167.091
656.1689, 6160.077
656.6510, 6140.365
657.1331, 6127.538
657.6152, 6126.705
658.0974, 6132.430
658.5795, 6145.707
659.0616, 6163.022
659.5437, 6167.244
660.0258, 6141.409
660.5079, 6121.494
660.9901, 6124.468
661.4722, 6136.352
661.9543, 6142.685
662.4364, 6142.585
662.9185, 6143.074
663.4006, 6149.045
663.8828, 6157.780
664.3649, 6165.370
664.8470, 6172.054
665.3291, 6166.581
665.8112, 6139.069
666.2933, 6119.108
666.7755, 6136.415
667.2576, 6179.786
667.7397, 6199.396
668.2218, 6178.995
668.7039, 6161.489
669.1860, 6159.000
669.6682, 6159.234
670.1503, 6151.988
670.6324, 6138.777
671.1145, 6126.947
671.5966, 6120.335
672.0787, 6114.659
672.5609, 6099.783
673.0430, 6078.580
673.5251, 6074.410
674.0072, 6092.216
674.4893, 6111.274
674.9714, 6120.761
675.4536, 6122.084
675.9357, 6118.495
676.4178, 6108.512
676.8999, 6096.644
677.3820, 6081.993
677.8641, 6066.472
678.3463, 6046.433
678.8284, 6027.850
679.3105, 6023.422
679.7926, 6037.154
680.2747, 6049.405
680.7568, 6035.471
681.2390, 6007.876
681.7211, 5999.207
682.2032, 6009.697
682.6853, 6017.332
683.1674, 6012.234
683.6495, 6001.285
684.1317, 5996.065
684.6138, 5999.734
685.0959, 5992.381
685.5780, 5951.713
686.0601, 5926.777
686.5422, 5946.729
687.0244, 5977.603
687.5065, 5980.474
687.9886, 5952.578
688.4707, 5926.743
688.9528, 5926.019
689.4349, 5933.433
689.9171, 5930.016
690.3992, 5918.605
690.8813, 5908.180
691.3634, 5901.156
691.8455, 5893.122
692.3276, 5878.604
692.8098, 5859.213
693.2919, 5850.399
693.7740, 5858.250
694.2561, 5863.256
694.7382, 5863.116
695.2203, 5857.730
695.7025, 5842.303
696.1846, 5820.878
696.6667, 5808.639
697.1488, 5816.093
697.6309, 5823.321
698.1130, 5818.940
698.5952, 5808.810
699.0773, 5799.150
699.5594, 5791.096
700.0415, 5784.272
700.5236, 5778.410
701.0057, 5773.663
701.4879, 5770.924
701.9700, 5770.358
702.4521, 5769.858
702.9342, 5773.522
703.4163, 5765.557
703.8984, 5728.894
704.3806, 5677.228
704.8627, 5643.605
705.3448, 5633.318
705.8269, 5624.258
706.3090, 5609.487
706.7911, 5598.979
707.2733, 5602.334
707.7554, 5612.841
708.2375, 5619.763
708.7196, 5619.710
709.2017, 5615.133
709.6838, 5610.068
710.1660, 5601.844
710.6481, 5580.040
711.1302, 5545.602
711.6123, 5516.343
712.0944, 5498.467
712.5765, 5488.628
713.0587, 5483.227
713.5408, 5482.383
714.0229, 5483.701
714.5050, 5497.595
714.9871, 5499.013
715.4692, 5472.006
715.9514, 5440.754
716.4335, 5425.714
716.9156, 5425.299
717.3977, 5424.478
717.8798, 5417.339
718.3619, 5407.585
718.8441, 5392.813
719.3262, 5379.488
719.8083, 5383.908
720.2904, 5404.508
720.7725, 5418.083
721.2546, 5408.080
721.7368, 5384.929
722.2189, 5376.113
722.7010, 5385.604
723.1831, 5380.140
723.6652, 5348.188
724.1473, 5318.792
724.6295, 5306.624
725.1116, 5308.872
725.5937, 5320.953
726.0758, 5348.275
726.5579, 5366.134
727.0400, 5361.396
727.5222, 5354.853
728.0043, 5362.174
728.4864, 5374.918
728.9685, 5375.802
729.4506, 5361.505
729.9327, 5349.298
730.4149, 5358.901
730.8970, 5380.051
731.3791, 5389.365
731.8612, 5387.797
732.3433, 5384.613
732.8254, 5382.670
733.3076, 5377.982
733.7897, 5364.401
734.2718, 5343.583
734.7539, 5337.917
735.2360, 5365.413
735.7181, 5377.731
736.2003, 5349.890
736.6824, 5323.974
737.1645, 5330.929
737.6466, 5360.673
738.1287, 5383.093
738.6108, 5388.786
739.0930, 5389.646
739.5751, 5392.678
740.0572, 5394.268
740.5393, 5385.536
741.0214, 5371.102
741.5035, 5369.121
741.9857, 5388.244
742.4678, 5410.731
742.9499, 5407.208
743.4320, 5380.328
743.9141, 5366.922
744.3962, 5367.865
744.8784, 5381.663
745.3605, 5415.015
745.8426, 5450.258
746.3247, 5462.129
746.8068, 5447.694
747.2889, 5436.631
747.7711, 5430.400
748.2532, 5425.320
748.7353, 5426.247
749.2174, 5423.671
749.6995, 5403.819
750.1816, 5371.307
750.6638, 5347.352
751.1459, 5343.209
751.6280, 5348.863
752.1101, 5361.235
752.5922, 5374.678
753.0743, 5375.312
753.5565, 5363.895
754.0386, 5357.197
754.5207, 5365.831
755.0028, 5379.203
755.4849, 5371.955
755.9670, 5339.482
756.4492, 5333.779
756.9313, 5369.496
757.4134, 5397.403
757.8955, 5395.449
758.3776, 5374.682
758.8597, 5345.504
759.3419, 5305.052
759.8240, 5285.989
760.3061, 5309.517
760.7882, 5332.632
761.2703, 5339.196
761.7524, 5337.239
762.2346, 5335.747
762.7167, 5335.392
763.1988, 5330.995
763.6809, 5316.216
764.1630, 5302.229
764.6451, 5310.796
765.1273, 5328.613
765.6094, 5312.288
766.0915, 5261.174
766.5736, 5230.566
767.0557, 5257.327
767.5378, 5312.812
768.0200, 5333.261
768.5021, 5311.827
768.9842, 5296.587
769.4663, 5291.480
769.9484, 5285.314
770.4305, 5268.535
770.9127, 5251.336
771.3948, 5250.072
771.8769, 5266.000
772.3590, 5279.310
772.8411, 5292.735
773.3232, 5297.152
773.8054, 5281.272
774.2875, 5259.751
774.7696, 5246.030
775.2517, 5242.223
775.7338, 5247.074
776.2159, 5264.487
776.6981, 5280.478
777.1802, 5273.943
777.6623, 5255.322
778.1444, 5250.081
778.6265, 5259.806
779.1086, 5270.051
779.5908, 5272.834
780.0729, 5270.737
780.5550, 5270.130
781.0371, 5272.485
781.5192, 5258.334
782.0013, 5217.273
782.4835, 5187.829
782.9656, 5190.953
783.4477, 5206.772
783.9298, 5208.649
784.4119, 5196.108
784.8940, 5192.183
785.3762, 5208.311
785.8583, 5219.594
786.3404, 5220.191
786.8225, 5212.573
787.3046, 5193.812
787.7867, 5168.787
788.2689, 5150.450
788.7510, 5144.136
789.2331, 5145.934
789.7152, 5160.132
790.1973, 5176.346
790.6794, 5175.575
791.1616, 5160.145
791.6437, 5145.213
792.1258, 5137.211
792.6079, 5134.366
793.0900, 5136.189
793.5721, 5141.565
794.0543, 5137.764
794.5364, 5122.773
795.0185, 5112.284
795.5006, 5114.236
795.9827, 5114.274
796.4648, 5094.781
796.9470, 5058.759
797.4291, 5039.273
797.9112, 5051.273
798.3933, 5058.686
798.8754, 5053.343
799.3575, 5049.591
799.8397, 5060.493
800.3218, 5077.537
800.8039, 5083.032
801.2860, 5071.299
801.7681, 5059.762
802.2502, 5063.115
802.7324, 5065.188
803.2145, 5047.263
803.6966, 5018.252
804.1787, 4991.120
804.6608, 4971.760
805.1429, 4971.760
805.6251, 5010.002
806.1072, 5061.614
806.5893, 5067.243
807.0714, 5033.406
807.5535, 5009.555
808.0356, 5004.415
808.5178, 5004.167
808.9999, 5001.385
809.4820, 4993.478
809.9641, 4970.439
810.4462, 4919.794
810.9283, 4901.854
811.4105, 4943.715
811.8926, 4973.871
812.3747, 4948.914
812.8568, 4908.887
813.3389, 4905.435
813.8210, 4938.692
814.3032, 4952.132
814.7853, 4914.272
815.2674, 4884.997
815.7495, 4894.609
816.2316, 4913.909
816.7137, 4915.938
817.1959, 4902.895
817.6780, 4890.077
818.1601, 4882.970
818.6422, 4881.888
819.1243, 4890.702
819.6064, 4903.643
820.0886, 4914.597
820.5707, 4921.532
821.0528, 4916.692
821.5349, 4898.011
822.0170, 4880.659
822.4991, 4882.477
822.9813, 4898.861
823.4634, 4912.727
823.9455, 4924.624
824.4276, 4920.903
824.9097, 4893.819
825.3918, 4871.044
825.8740, 4876.195
826.3561, 4899.507
826.8382, 4907.011
827.3203, 4885.269
827.8024, 4879.088
828.2845, 4910.373
828.7667, 4930.219
829.2488, 4910.987
829.7309, 4877.120
830.2130, 4854.468
830.6951, 4844.870
831.1772, 4848.328
831.6594, 4879.960
832.1415, 4906.181
832.6236, 4905.741
833.1057, 4897.832
833.5878, 4905.109
834.0699, 4923.637
834.5521, 4932.963
835.0342, 4922.974
835.5163, 4907.479
835.9984, 4893.076
836.4805, 4884.797
836.9626, 4898.821
837.4448, 4927.300
837.9269, 4937.347
838.4090, 4918.943
838.8911, 4898.334
839.3732, 4904.198
839.8553, 4929.100
840.3375, 4946.527
840.8196, 4956.391
841.3017, 4964.696
841.7838, 4973.978
842.2659, 4973.074
842.7480, 4950.583
843.2302, 4917.591
843.7123, 4901.918
844.1944, 4906.792
844.6765, 4919.328
845.1586, 4954.246
845.6407, 4974.847
846.1229, 4949.422
846.6050, 4917.499
847.0871, 4926.534
847.5692, 4972.056
848.0513, 4991.847
848.5334, 4958.252
849.0156, 4924.068
849.4977, 4892.277
849.9798, 4875.263
850.4619, 4894.782
850.9440, 4933.671
851.4261, 4954.237
851.9083, 4944.167
852.3904, 4929.379
852.8725, 4924.471
853.3546, 4925.358
853.8367, 4927.944
854.3188, 4932.832
854.8010, 4943.982
855.2831, 4960.510
855.7652, 4973.054
856.2473, 4974.138
856.7294, 4969.061
857.2115, 4966.595
857.6937, 4966.140
858.1758, 4965.999
858.6579, 4965.815
859.1400, 4959.616
859.6221, 4943.298
860.1042, 4928.984
860.5864, 4934.877
861.0685, 4960.253
861.5506, 4986.775
862.0327, 5016.491
862.5148, 5039.203
862.9969, 5051.819
863.4791, 5059.015
863.9612, 5064.846
864.4433, 5068.100
864.9254, 5063.500
865.4075, 5040.045
865.8896, 5031.817
866.3718, 5055.078
866.8539, 5073.470
867.3360, 5070.417
867.8181, 5058.438
868.3002, 5048.439
868.7823, 5042.105
869.2645, 5045.968
869.7466, 5071.854
870.2287, 5095.003
870.7108, 5101.943
871.1929, 5105.420
871.6750, 5120.181
872.1572, 5140.316
872.6393, 5150.167
873.1214, 5144.380
873.6035, 5131.766
874.0856, 5109.978
874.5677, 5091.867
875.0499, 5093.219
875.5320, 5109.040
876.0141, 5129.417
876.4962, 5151.855
876.9783, 5178.283
877.4604, 5211.412
877.9426, 5243.263
878.4247, 5263.474
878.9068, 5271.210
879.3889, 5256.830
879.8710, 5222.438
880.3531, 5196.013
880.8353, 5188.707
881.3174, 5198.434
881.7995, 5226.708
882.2816, 5268.395
882.7637, 5287.631
883.2458, 5280.067
883.7280, 5284.876
884.2101, 5314.769
884.6922, 5335.944
885.1743, 5323.899
885.6564, 5291.694
886.1385, 5265.763
886.6207, 5243.407
887.1028, 5240.715
887.5849, 5270.569
888.0670, 5299.369
888.5491, 5318.446
889.0313, 5332.929
889.5134, 5345.872
889.9955, 5357.869
890.4776, 5372.087
890.9597, 5394.139
891.4418, 5408.481
891.9240, 5404.904
892.4061, 5402.004
892.8882, 5409.257
893.3703, 5423.397
893.8524, 5443.113
894.3345, 5466.737
894.8167, 5480.142
895.2988, 5465.930
895.7809, 5454.309
896.2630, 5466.194
896.7451, 5485.081
897.2272, 5488.326
897.7094, 5484.069
898.1915, 5501.977
898.6736, 5552.865
899.1557, 5597.082
899.6378, 5594.817
900.1199, 5574.643
900.6021, 5571.660
901.0842, 5578.366
901.5663, 5574.229
902.0484, 5558.666
902.5305, 5551.429
903.0126, 5565.946
903.4948, 5587.681
903.9769, 5595.040
904.4590, 5592.282
904.9411, 5590.695
905.4232, 5591.381
905.9053, 5597.842
906.3875, 5611.155
906.8696, 5627.427
907.3517, 5643.165
907.8338, 5658.580
908.3159, 5678.006
908.7980, 5701.594
909.2802, 5701.893
909.7623, 5671.790
910.2444, 5649.955
910.7265, 5654.307
911.2086, 5679.776
911.6907, 5725.005
912.1729, 5789.242
912.6550, 5814.230
913.1371, 5785.347
913.6192, 5763.115
914.1013, 5755.925
914.5834, 5761.819
915.0656, 5788.674
915.5477, 5821.863
916.0298, 5824.317
916.5119, 5780.581
916.9940, 5764.467
917.4761, 5796.652
917.9583, 5827.215
918.4404, 5854.015
918.9225, 5866.985
919.4046, 5842.956
919.8867, 5797.233
920.3688, 5788.629
920.8510, 5847.882
921.3331, 5885.385
921.8152, 5868.601
922.2973, 5850.285
922.7794, 5858.772
923.2615, 5876.362
923.7437, 5880.293
924.2258, 5870.607
924.7079, 5864.418
925.1900, 5867.636
925.6721, 5873.848
926.1542, 5885.936
926.6364, 5894.847
927.1185, 5889.828
927.6006, 5877.768
928.0827, 5871.723
928.5648, 5874.054
929.0469, 5875.101
929.5291, 5866.710
930.0112, 5858.292
930.4933, 5853.489
930.9754, 5854.992
931.4575, 5874.544
931.9396, 5902.636
932.4218, 5909.044
932.9039, 5883.448
933.3860, 5861.110
933.8681, 5880.897
934.3502, 5914.134
934.8323, 5923.299
935.3145, 5917.634
935.7966, 5915.316
936.2787, 5918.857
936.7608, 5923.717
937.2429, 5927.660
937.7250, 5929.227
938.2072, 5924.658
938.6893, 5917.182
939.1714, 5913.104
939.6535, 5912.846
940.1356, 5919.521
940.6177, 5932.797
941.0999, 5943.358
941.5820, 5944.707
942.0641, 5939.314
942.5462, 5926.010
943.0283, 5909.115
943.5104, 5916.904
943.9926, 5947.957
944.4747, 5967.014
944.9568, 5962.973
945.4389, 5954.741
945.9210, 5959.912
946.4031, 5972.003
946.8853, 5972.240
947.3674, 5960.666
947.8495, 5948.022
948.3316, 5934.435
948.8137, 5926.583
949.2958, 5927.325
949.7780, 5934.586
950.2601, 5949.512
950.7422, 5966.583
951.2243, 5948.311
951.7064, 5883.407
952.1885, 5861.584
952.6707, 5903.106
953.1528, 5944.359
953.6349, 5957.743
954.1170, 5951.848
954.5991, 5935.555
955.0812, 5909.750
955.5634, 5892.227
956.0455, 5884.343
956.5276, 5880.969
957.0097, 5882.512
957.4918, 5886.903
957.9739, 5896.466
958.4561, 5904.281
958.9382, 5896.508
959.4203, 5870.998
959.9024, 5861.253
960.3845, 5879.903
960.8666, 5888.479
961.3488, 5872.073
961.8309, 5857.270
962.3130, 5863.339
962.7951, 5880.306
963.2772, 5888.053
963.7593, 5884.009
964.2415, 5884.624
964.7236, 5901.798
965.2057, 5906.312
965.6878, 5877.181
966.1699, 5849.581
966.6520, 5846.984
967.1342, 5862.132
967.6163, 5880.048
968.0984, 5902.741
968.5805, 5918.562
969.0626, 5924.494
969.5447, 5926.881
970.0269, 5919.695
970.5090, 5916.435
970.9911, 5933.998
971.4732, 5962.710
971.9553, 5975.108
972.4374, 5962.634
972.9196, 5955.604
973.4017, 5958.841
973.8838, 5967.264
974.3659, 5991.453
974.8480, 6009.726
975.3301, 5993.313
975.8123, 5955.257
976.2944, 5937.702
976.7765, 5950.016
977.2586, 5973.654
977.7407, 6020.345
978.2228, 6058.231
978.7050, 6068.903
979.1871, 6067.405
979.6692, 6065.886
980.1513, 6066.022
980.6334, 6068.945
981.1155, 6077.313
981.5977, 6080.829
982.0798, 6067.650
982.5619, 6059.169
983.0440, 6070.627
983.5261, 6089.368
984.0082, 6103.256
984.4904, 6111.083
984.9725, 6114.112
985.4546, 6110.865
985.9367, 6108.258
986.4188, 6107.231
986.9009, 6109.288
987.3831, 6115.186
987.8652, 6124.732
988.3473, 6141.356
988.8294, 6161.770
989.3115, 6173.744
989.7936, 6173.286
990.2758, 6165.081
990.7579, 6139.854
991.2400, 6119.719
991.7221, 6131.101
992.2042, 6147.742
992.6863, 6130.153
993.1685, 6084.341
993.6506, 6053.579
994.1327, 6053.497
994.6148, 6066.130
995.0969, 6095.594
995.5790, 6122.167
996.0612, 6134.079
996.5433, 6133.974
997.0254, 6120.746
997.5075, 6099.006
997.9896, 6084.615
998.4717, 6083.429
998.9539, 6088.753
999.4360, 6110.039
999.9181, 6123.371
1000.400, 6099.040
1000.882, 6065.139
1001.364, 6061.361
1001.847, 6084.735
1002.329, 6100.985
1002.811, 6094.917
1003.293, 6091.372
1003.775, 6110.777
1004.257, 6127.254
1004.739, 6113.860
1005.221, 6092.905
1005.703, 6098.751
1006.186, 6126.086
1006.668, 6137.308
1007.150, 6113.141
1007.632, 6094.733
1008.114, 6109.569
1008.596, 6126.683
1009.078, 6125.661
1009.560, 6115.536
1010.043, 6105.744
1010.525, 6098.458
1011.007, 6095.146
1011.489, 6096.750
1011.971, 6100.442
1012.453, 6099.724
1012.935, 6106.748
1013.417, 6141.684
1013.899, 6179.030
1014.382, 6184.812
1014.864, 6166.205
1015.346, 6157.977
1015.828, 6172.452
1016.310, 6185.275
1016.792, 6186.190
1017.274, 6184.126
1017.756, 6185.167
1018.239, 6184.729
1018.721, 6169.598
1019.203, 6149.411
1019.685, 6155.549
1020.167, 6201.853
1020.649, 6240.451
1021.131, 6260.800
1021.613, 6263.917
1022.095, 6229.181
1022.578, 6195.504
1023.060, 6205.684
1023.542, 6245.034
1024.024, 6269.862
1024.506, 6269.558
1024.988, 6271.917
1025.470, 6290.401
1025.952, 6304.466
1026.435, 6296.140
1026.917, 6289.839
1027.399, 6313.569
1027.881, 6351.987
1028.363, 6368.034
1028.845, 6353.312
1029.327, 6348.090
1029.809, 6367.647
1030.292, 6386.448
1030.774, 6395.709
1031.256, 6404.059
1031.738, 6420.666
1032.220, 6439.191
1032.702, 6445.199
1033.184, 6436.060
1033.666, 6438.334
1034.148, 6467.818
1034.630, 6489.602
1035.113, 6486.327
1035.595, 6486.748
1036.077, 6516.864
1036.559, 6555.140
1037.041, 6563.386
1037.523, 6539.765
1038.005, 6539.666
1038.487, 6579.880
1038.970, 6617.146
1039.452, 6652.258
1039.934, 6679.941
1040.416, 6694.337
1040.898, 6702.800
1041.380, 6712.911
1041.862, 6724.776
1042.344, 6740.105
1042.826, 6760.912
1043.309, 6780.564
1043.791, 6798.863
1044.273, 6815.432
1044.755, 6826.182
1045.237, 6841.608
1045.719, 6877.380
1046.201, 6925.840
1046.683, 6948.440
1047.166, 6929.256
1047.648, 6942.272
1048.130, 7002.041
1048.612, 7051.868
1049.094, 7072.530
1049.576, 7082.701
1050.058, 7093.603
1050.540, 7111.412
1051.022, 7158.137
1051.505, 7239.499
1051.987, 7289.232
1052.469, 7301.758
1052.951, 7315.790
1053.433, 7340.671
1053.915, 7365.663
1054.397, 7382.372
1054.879, 7399.677
1055.361, 7436.325
1055.844, 7490.113
1056.326, 7536.221
1056.808, 7574.954
1057.290, 7606.048
1057.772, 7629.412
1058.254, 7649.162
1058.736, 7666.405
1059.218, 7693.513
1059.701, 7752.775
1060.183, 7829.835
1060.665, 7869.978
1061.147, 7881.899
1061.629, 7918.412
1062.111, 7980.626
1062.593, 8020.546
1063.075, 8020.807
1063.557, 8023.918
1064.040, 8074.299
1064.522, 8145.222
1065.004, 8187.664
1065.486, 8211.852
1065.968, 8239.967
1066.450, 8273.530
1066.932, 8312.096
1067.414, 8354.362
1067.896, 8394.130
1068.379, 8428.409
1068.861, 8453.272
1069.343, 8448.816
1069.825, 8443.873
1070.307, 8489.495
1070.789, 8562.014
1071.271, 8612.373
1071.753, 8635.634
1072.236, 8652.633
1072.718, 8670.479
1073.200, 8700.954
1073.682, 8768.159
1074.164, 8835.091
1074.646, 8860.727
1075.128, 8875.648
1075.610, 8922.767
1076.093, 8992.559
1076.575, 9048.755
1077.057, 9081.619
1077.539, 9110.715
1078.021, 9136.340
1078.503, 9170.660
1078.985, 9236.442
1079.467, 9295.947
1079.949, 9306.075
1080.432, 9296.707
1080.914, 9321.301
1081.396, 9384.138
1081.878, 9443.278
1082.360, 9495.662
1082.842, 9537.475
1083.324, 9550.783
1083.806, 9573.997
1084.288, 9626.566
1084.771, 9696.057
1085.253, 9779.987
1085.735, 9869.989
1086.217, 9923.751
1086.699, 9919.048
1087.181, 9939.116
1087.663, 10010.91
1088.145, 10051.32
1088.628, 10028.79
1089.110, 9986.497
1089.592, 9947.428
1090.074, 9920.278
1090.556, 9926.889
1091.038, 9968.729
1091.520, 10002.56
1092.002, 10028.82
1092.484, 10038.78
1092.967, 10026.87
1093.449, 10027.62
1093.931, 10059.99
1094.413, 10105.80
1094.895, 10142.71
1095.377, 10173.17
1095.859, 10205.98
1096.341, 10240.51
1096.823, 10272.24
1097.306, 10300.42
1097.788, 10320.95
1098.270, 10333.17
1098.752, 10346.98
1099.234, 10368.92
1099.716, 10401.90
1100.198, 10458.65
1100.680, 10525.22
1101.163, 10574.51
1101.645, 10608.78
1102.127, 10633.33
1102.609, 10651.95
1103.091, 10671.06
1103.573, 10692.73
1104.055, 10729.33
1104.537, 10814.45
1105.020, 10893.82
1105.502, 10900.84
1105.984, 10885.60
1106.466, 10912.40
1106.948, 10968.11
1107.430, 11009.98
1107.912, 11029.27
1108.394, 11047.34
1108.876, 11067.21
1109.359, 11096.10
1109.841, 11150.62
1110.323, 11199.15
1110.805, 11213.41
1111.287, 11216.70
1111.769, 11238.90
1112.251, 11277.71
1112.733, 11311.25
1113.215, 11333.82
1113.698, 11360.69
1114.180, 11413.28
1114.662, 11434.91
1115.144, 11380.12
1115.626, 11338.91
1116.108, 11382.29
1116.590, 11467.84
1117.072, 11516.97
1117.555, 11529.55
1118.037, 11541.78
1118.519, 11551.97
1119.001, 11573.27
1119.483, 11609.50
1119.965, 11641.44
1120.447, 11660.62
1120.929, 11675.34
1121.411, 11693.65
1121.894, 11714.80
1122.376, 11734.37
1122.858, 11754.57
1123.340, 11794.23
1123.822, 11847.67
1124.304, 11881.35
1124.786, 11888.85
1125.268, 11884.57
1125.750, 11875.67
1126.233, 11874.71
1126.715, 11904.00
1127.197, 11942.63
1127.679, 11957.90
1128.161, 11964.67
1128.643, 11994.08
1129.125, 12035.50
1129.607, 12046.87
1130.090, 12022.08
1130.572, 12017.87
1131.054, 12080.49
1131.536, 12138.86
1132.018, 12149.87
1132.500, 12151.12
1132.982, 12167.21
1133.464, 12189.32
1133.947, 12210.65
1134.429, 12226.91
1134.911, 12221.86
1135.393, 12176.69
1135.875, 12168.26
1136.357, 12231.80
1136.839, 12289.97
1137.321, 12333.07
1137.803, 12362.14
1138.286, 12368.61
1138.768, 12373.12
1139.250, 12410.97
1139.732, 12476.00
1140.214, 12507.26
1140.696, 12498.88
1141.178, 12503.92
1141.660, 12526.90
1142.142, 12550.70
1142.625, 12569.65
1143.107, 12590.88
1143.589, 12620.24
1144.071, 12653.71
1144.553, 12687.29
1145.035, 12718.43
1145.517, 12734.61
1145.999, 12742.15
1146.482, 12762.94
1146.964, 12796.15
1147.446, 12823.08
1147.928, 12837.51
1148.410, 12857.56
1148.892, 12904.22
1149.374, 12948.88
1149.856, 12953.60
1150.339, 12955.38
1150.821, 13000.54
1151.303, 13062.06
1151.785, 13092.17
1152.267, 13095.06
1152.749, 13117.62
1153.231, 13179.21
1153.713, 13228.00
1154.195, 13241.01
1154.677, 13255.72
1155.160, 13292.30
1155.642, 13323.55
1156.124, 13320.51
1156.606, 13312.64
1157.088, 13349.96
1157.570, 13425.91
1158.052, 13458.03
1158.534, 13430.22
1159.017, 13433.97
1159.499, 13477.89
1159.981, 13528.32
1160.463, 13575.60
1160.945, 13626.08
1161.427, 13685.84
1161.909, 13746.48
1162.391, 13789.89
1162.874, 13824.76
1163.356, 13889.82
1163.838, 13970.52
1164.320, 14017.43
1164.802, 14030.32
1165.284, 14028.79
1165.766, 14022.23
1166.248, 14027.85
1166.730, 14061.19
1167.213, 14099.99
1167.695, 14120.54
1168.177, 14144.01
1168.659, 14194.88
1169.141, 14255.73
1169.623, 14306.28
1170.105, 14346.31
1170.587, 14383.63
1171.069, 14420.51
1171.552, 14447.41
1172.034, 14453.47
1172.516, 14463.66
1172.998, 14471.54
1173.480, 14500.51
1173.962, 14580.05
1174.444, 14656.22
1174.926, 14662.72
1175.409, 14628.30
1175.891, 14657.39
1176.373, 14755.93
1176.855, 14835.56
1177.337, 14896.47
1177.819, 14941.24
1178.301, 14970.41
1178.783, 14978.15
1179.266, 14961.52
1179.748, 14953.23
1180.230, 14993.25
1180.712, 15052.03
1181.194, 15081.26
1181.676, 15095.85
1182.158, 15116.18
1182.640, 15144.23
1183.122, 15181.76
1183.604, 15226.99
1184.087, 15276.19
1184.569, 15330.78
1185.051, 15366.52
1185.533, 15353.17
1186.015, 15344.78
1186.497, 15358.37
1186.979, 15390.99
1187.461, 15464.57
1187.944, 15539.77
1188.426, 15547.43
1188.908, 15504.63
1189.390, 15521.54
1189.872, 15630.00
1190.354, 15678.82
1190.836, 15648.49
1191.318, 15650.94
1191.801, 15716.91
1192.283, 15769.97
1192.765, 15764.06
1193.247, 15745.57
1193.729, 15773.68
1194.211, 15830.63
1194.693, 15880.82
1195.175, 15921.93
1195.657, 15937.86
1196.140, 15941.52
1196.622, 15979.17
1197.104, 16048.27
1197.586, 16089.25
1198.068, 16072.51
1198.550, 16060.96
1199.032, 16100.93
1199.514, 16148.35
1199.996, 16185.71
1200.479, 16212.90
1200.961, 16222.88
1201.443, 16227.38
1201.925, 16250.16
1202.407, 16285.98
1202.889, 16286.62
1203.371, 16220.25
1203.853, 16228.66
1204.336, 16349.25
1204.818, 16416.96
1205.300, 16385.96
1205.782, 16359.98
1206.264, 16395.32
1206.746, 16454.21
1207.228, 16492.31
1207.710, 16520.26
1208.193, 16569.56
1208.675, 16628.97
1209.157, 16663.24
1209.639, 16678.38
1210.121, 16690.92
1210.603, 16707.67
1211.085, 16740.80
1211.567, 16795.66
1212.049, 16845.06
1212.531, 16877.41
1213.014, 16893.13
1213.496, 16871.16
1213.978, 16856.21
1214.460, 16879.04
1214.942, 16927.06
1215.424, 16996.83
1215.906, 17075.54
1216.388, 17117.51
1216.871, 17112.60
1217.353, 17133.31
1217.835, 17182.29
1218.317, 17251.97
1218.799, 17347.86
1219.281, 17414.05
1219.763, 17425.23
1220.245, 17431.92
1220.728, 17480.93
1221.210, 17550.72
1221.692, 17607.18
1222.174, 17654.04
1222.656, 17696.49
1223.138, 17736.76
1223.620, 17781.93
1224.102, 17827.80
1224.584, 17852.85
1225.067, 17855.83
1225.549, 17889.46
1226.031, 18004.43
1226.513, 18096.93
1226.995, 18099.36
1227.477, 18114.72
1227.959, 18226.80
1228.441, 18327.19
1228.923, 18315.47
1229.406, 18259.10
1229.888, 18275.87
1230.370, 18358.69
1230.852, 18429.46
1231.334, 18487.83
1231.816, 18544.34
1232.298, 18599.29
1232.780, 18641.61
1233.263, 18670.50
1233.745, 18713.51
1234.227, 18787.08
1234.709, 18863.86
1235.191, 18913.95
1235.673, 18954.45
1236.155, 19001.45
1236.637, 19052.33
1237.120, 19101.09
1237.602, 19152.95
1238.084, 19220.59
1238.566, 19299.53
1239.048, 19366.66
1239.530, 19415.30
1240.012, 19463.91
1240.494, 19512.02
1240.976, 19564.88
1241.458, 19632.81
1241.941, 19674.95
1242.423, 19662.15
1242.905, 19660.72
##END=



