##NAMES=Aragonite
##RRUFFID=R080142
##IDEAL CHEMISTRY=CaCO_3_
##LOCALITY=Miniere di Brosso, Ivrea, Torino, Italy
##OWNER=RRUFF
##SOURCE=Renato and Adriana Pagano
##DESCRIPTION=Sprays of colorless to white acicular crystals
##STATUS=The identification of this mineral is confirmed by single-crystal X-ray diffraction and chemical analysis.
##URL=rruff.info/R080142
##MEASURED CHEMISTRY=(Ca_0.96_Sr_0.02_)_Î£=0.98_CO_3_
90.52570, 0.0000000E+00
91.00781, 43.46239
91.48993, 40.35798
91.97205, 39.11798
92.45416, 41.06104
92.93628, 44.80619
93.41840, 47.08934
93.90051, 46.84029
94.38263, 45.88817
94.86475, 47.73111
95.34686, 52.33913
95.82898, 56.85068
96.31110, 58.12446
96.79321, 56.58420
97.27533, 56.76962
97.75745, 59.99660
98.23956, 65.65453
98.72168, 71.43508
99.20380, 77.44556
99.68591, 83.06492
100.1680, 87.10561
100.6501, 88.96951
101.1323, 92.00264
101.6144, 97.14742
102.0965, 104.4748
102.5786, 113.2128
103.0607, 124.0605
103.5428, 135.7685
104.0250, 146.3035
104.5071, 154.3732
104.9892, 163.2881
105.4713, 174.1986
105.9534, 187.5142
106.4355, 201.9210
106.9177, 218.1331
107.3998, 235.4584
107.8819, 252.3161
108.3640, 268.7568
108.8461, 284.4958
109.3282, 299.6013
109.8104, 311.5747
110.2925, 325.4206
110.7746, 342.4982
111.2567, 362.1992
111.7388, 380.4734
112.2209, 396.0459
112.7031, 410.3110
113.1852, 424.4064
113.6673, 436.8745
114.1494, 450.6208
114.6315, 466.5085
115.1136, 484.7291
115.5958, 504.2197
116.0779, 525.4252
116.5600, 547.5099
117.0421, 569.4426
117.5242, 589.3491
118.0063, 610.3861
118.4885, 634.9638
118.9706, 663.8202
119.4527, 693.2422
119.9348, 720.7639
120.4169, 747.3205
120.8990, 775.0911
121.3812, 806.8226
121.8633, 839.3327
122.3454, 868.9537
122.8275, 894.6045
123.3096, 919.2184
123.7917, 945.0344
124.2739, 971.8859
124.7560, 999.1608
125.2381, 1026.236
125.7202, 1053.630
126.2023, 1081.464
126.6844, 1108.956
127.1666, 1138.283
127.6487, 1171.926
128.1308, 1210.077
128.6129, 1252.691
129.0950, 1301.525
129.5771, 1355.531
130.0593, 1410.782
130.5414, 1463.067
131.0235, 1516.551
131.5056, 1582.239
131.9877, 1654.506
132.4698, 1722.402
132.9520, 1783.070
133.4341, 1836.966
133.9162, 1890.051
134.3983, 1943.564
134.8804, 1997.394
135.3625, 2052.440
135.8447, 2109.125
136.3268, 2166.591
136.8089, 2224.475
137.2910, 2282.988
137.7731, 2342.294
138.2552, 2402.152
138.7374, 2461.591
139.2195, 2527.921
139.7016, 2604.488
140.1837, 2685.530
140.6658, 2757.824
141.1479, 2820.561
141.6301, 2878.176
142.1122, 2932.795
142.5943, 2984.045
143.0764, 3033.360
143.5585, 3078.122
144.0406, 3121.382
144.5228, 3175.541
145.0049, 3238.557
145.4870, 3314.001
145.9691, 3403.041
146.4512, 3510.249
146.9333, 3625.398
147.4155, 3748.202
147.8976, 3879.619
148.3797, 4017.663
148.8618, 4169.604
149.3439, 4324.515
149.8260, 4475.270
150.3082, 4654.915
150.7903, 4795.532
151.2724, 4900.796
151.7545, 4970.805
152.2366, 4981.437
152.7188, 4926.590
153.2009, 4815.680
153.6830, 4656.550
154.1651, 4420.524
154.6472, 4164.854
155.1293, 3896.421
155.6115, 3610.572
156.0936, 3345.628
156.5757, 3105.309
157.0578, 2888.913
157.5399, 2699.184
158.0220, 2541.545
158.5042, 2405.292
158.9863, 2289.858
159.4684, 2196.324
159.9505, 2114.329
160.4326, 2045.090
160.9147, 1985.331
161.3969, 1930.196
161.8790, 1878.189
162.3611, 1830.151
162.8432, 1786.694
163.3253, 1748.946
163.8074, 1713.729
164.2896, 1678.215
164.7717, 1644.174
165.2538, 1615.190
165.7359, 1594.715
166.2180, 1578.751
166.7001, 1563.823
167.1823, 1548.128
167.6644, 1536.338
168.1465, 1533.415
168.6286, 1537.151
169.1107, 1541.376
169.5928, 1541.493
170.0750, 1540.877
170.5571, 1542.971
171.0392, 1548.576
171.5213, 1556.959
172.0034, 1568.904
172.4855, 1583.741
172.9677, 1598.135
173.4498, 1608.011
173.9319, 1616.732
174.4140, 1629.221
174.8961, 1648.015
175.3782, 1669.671
175.8604, 1691.736
176.3425, 1714.199
176.8246, 1736.006
177.3067, 1758.503
177.7888, 1779.994
178.2709, 1796.879
178.7531, 1809.356
179.2352, 1815.984
179.7173, 1813.497
180.1994, 1802.120
180.6815, 1786.463
181.1636, 1767.396
181.6458, 1746.743
182.1279, 1730.626
182.6100, 1721.682
183.0921, 1718.079
183.5742, 1714.982
184.0563, 1712.237
184.5385, 1713.863
185.0206, 1724.858
185.5027, 1744.199
185.9848, 1766.599
186.4669, 1792.170
186.9490, 1819.255
187.4312, 1843.825
187.9133, 1865.315
188.3954, 1885.129
188.8775, 1905.880
189.3596, 1926.943
189.8417, 1942.958
190.3239, 1949.510
190.8060, 1948.661
191.2881, 1950.977
191.7702, 1957.156
192.2523, 1963.738
192.7344, 1965.238
193.2166, 1961.678
193.6987, 1959.719
194.1808, 1960.825
194.6629, 1965.256
195.1450, 1976.752
195.6271, 1996.427
196.1093, 2020.294
196.5914, 2041.375
197.0735, 2059.053
197.5556, 2081.410
198.0377, 2112.327
198.5198, 2152.094
199.0020, 2194.036
199.4841, 2237.542
199.9662, 2284.382
200.4483, 2338.020
200.9304, 2398.509
201.4125, 2465.252
201.8947, 2540.410
202.3768, 2624.988
202.8589, 2706.234
203.3410, 2786.089
203.8231, 2860.302
204.3052, 2923.285
204.7874, 2978.502
205.2695, 3010.325
205.7516, 3012.118
206.2337, 2983.437
206.7158, 2925.807
207.1979, 2832.671
207.6801, 2716.671
208.1622, 2602.685
208.6443, 2487.997
209.1264, 2381.477
209.6085, 2286.830
210.0906, 2204.211
210.5728, 2132.767
211.0549, 2074.500
211.5370, 2026.401
212.0191, 1984.136
212.5012, 1948.906
212.9833, 1915.731
213.4655, 1882.781
213.9476, 1849.766
214.4297, 1817.713
214.9118, 1787.650
215.3939, 1758.109
215.8760, 1723.312
216.3581, 1679.799
216.8403, 1638.732
217.3224, 1606.610
217.8045, 1586.305
218.2866, 1565.352
218.7687, 1543.646
219.2508, 1521.122
219.7330, 1497.503
220.2151, 1470.475
220.6972, 1446.602
221.1793, 1429.857
221.6614, 1422.749
222.1435, 1415.460
222.6257, 1407.096
223.1078, 1398.622
223.5899, 1393.012
224.0720, 1392.746
224.5541, 1391.367
225.0362, 1385.352
225.5184, 1372.052
226.0005, 1360.735
226.4826, 1351.104
226.9647, 1343.670
227.4468, 1340.144
227.9289, 1343.338
228.4111, 1346.223
228.8932, 1345.237
229.3753, 1337.957
229.8574, 1332.675
230.3395, 1330.086
230.8216, 1329.479
231.3038, 1328.748
231.7859, 1327.014
232.2680, 1326.444
232.7501, 1327.897
233.2322, 1331.181
233.7143, 1337.276
234.1965, 1349.001
234.6786, 1362.977
235.1607, 1369.248
235.6428, 1362.590
236.1249, 1355.777
236.6070, 1354.558
237.0892, 1361.488
237.5713, 1368.401
238.0534, 1375.481
238.5355, 1382.477
239.0176, 1388.646
239.4997, 1393.437
239.9819, 1398.302
240.4640, 1403.594
240.9461, 1408.543
241.4282, 1416.044
241.9103, 1427.794
242.3924, 1441.568
242.8746, 1451.898
243.3567, 1457.189
243.8388, 1461.492
244.3209, 1466.512
244.8030, 1472.907
245.2851, 1478.178
245.7673, 1482.094
246.2494, 1485.008
246.7315, 1487.706
247.2136, 1490.508
247.6957, 1492.608
248.1778, 1493.791
248.6600, 1494.234
249.1421, 1493.051
249.6242, 1489.347
250.1063, 1484.482
250.5884, 1481.151
251.0705, 1480.062
251.5527, 1479.257
252.0348, 1477.834
252.5169, 1475.157
252.9990, 1474.164
253.4811, 1475.402
253.9632, 1477.940
254.4454, 1479.928
254.9275, 1480.402
255.4096, 1482.194
255.8917, 1486.776
256.3738, 1495.139
256.8560, 1501.670
257.3381, 1506.449
257.8202, 1509.394
258.3023, 1510.130
258.7844, 1507.635
259.2665, 1505.203
259.7487, 1504.303
260.2308, 1505.536
260.7129, 1503.797
261.1950, 1497.687
261.6771, 1490.144
262.1592, 1485.275
262.6414, 1484.010
263.1235, 1483.130
263.6056, 1481.484
264.0877, 1478.884
264.5698, 1478.404
265.0519, 1480.886
265.5341, 1484.331
266.0162, 1486.059
266.4983, 1485.014
266.9804, 1485.485
267.4625, 1488.595
267.9446, 1494.296
268.4268, 1501.822
268.9089, 1512.218
269.3910, 1522.334
269.8731, 1529.247
270.3552, 1532.874
270.8373, 1533.167
271.3195, 1528.967
271.8016, 1520.893
272.2837, 1515.680
272.7658, 1514.104
273.2479, 1513.485
273.7300, 1511.435
274.2122, 1507.850
274.6943, 1503.483
275.1764, 1498.023
275.6585, 1491.933
276.1406, 1487.771
276.6227, 1485.854
277.1049, 1484.852
277.5870, 1484.276
278.0691, 1484.330
278.5512, 1482.164
279.0333, 1476.114
279.5154, 1468.158
279.9976, 1465.481
280.4797, 1468.848
280.9618, 1473.543
281.4439, 1476.666
281.9260, 1478.184
282.4081, 1478.811
282.8903, 1478.860
283.3724, 1477.804
283.8545, 1473.887
284.3366, 1466.888
284.8187, 1459.350
285.3008, 1451.960
285.7830, 1444.908
286.2651, 1442.032
286.7472, 1445.016
287.2293, 1449.683
287.7114, 1447.714
288.1935, 1439.155
288.6757, 1430.012
289.1578, 1424.057
289.6399, 1420.549
290.1220, 1415.708
290.6041, 1408.867
291.0862, 1402.033
291.5684, 1398.212
292.0505, 1397.188
292.5326, 1397.047
293.0147, 1398.201
293.4968, 1399.565
293.9789, 1397.158
294.4611, 1390.437
294.9432, 1382.829
295.4253, 1378.140
295.9074, 1375.966
296.3895, 1374.634
296.8716, 1373.878
297.3538, 1373.379
297.8359, 1372.009
298.3180, 1369.682
298.8001, 1368.221
299.2822, 1370.043
299.7643, 1374.141
300.2465, 1377.916
300.7286, 1380.971
301.2107, 1382.862
301.6928, 1382.467
302.1749, 1379.914
302.6570, 1377.087
303.1392, 1375.059
303.6213, 1373.846
304.1034, 1373.638
304.5855, 1375.231
305.0676, 1376.973
305.5497, 1376.771
306.0319, 1375.015
306.5140, 1373.721
306.9961, 1374.935
307.4782, 1377.087
307.9603, 1378.144
308.4424, 1376.937
308.9246, 1375.818
309.4067, 1377.327
309.8888, 1380.512
310.3709, 1382.703
310.8530, 1380.957
311.3351, 1378.380
311.8173, 1377.809
312.2994, 1380.234
312.7815, 1382.979
313.2636, 1385.177
313.7457, 1386.539
314.2278, 1386.532
314.7100, 1382.853
315.1921, 1379.258
315.6742, 1378.820
316.1563, 1382.614
316.6384, 1384.760
317.1205, 1379.409
317.6027, 1371.854
318.0848, 1368.830
318.5669, 1379.055
319.0490, 1388.303
319.5311, 1389.565
320.0132, 1382.169
320.4954, 1376.408
320.9775, 1375.814
321.4596, 1377.793
321.9417, 1380.176
322.4238, 1383.130
322.9059, 1385.801
323.3881, 1388.301
323.8702, 1390.525
324.3523, 1391.581
324.8344, 1390.705
325.3165, 1389.055
325.7986, 1387.315
326.2808, 1383.060
326.7629, 1381.659
327.2450, 1385.198
327.7271, 1392.316
328.2092, 1397.641
328.6913, 1400.715
329.1735, 1402.351
329.6556, 1402.784
330.1377, 1401.182
330.6198, 1399.910
331.1019, 1398.819
331.5840, 1398.085
332.0662, 1398.080
332.5483, 1399.247
333.0304, 1400.473
333.5125, 1401.297
333.9946, 1401.539
334.4767, 1402.362
334.9589, 1404.103
335.4410, 1406.071
335.9231, 1407.310
336.4052, 1407.455
336.8873, 1407.924
337.3694, 1409.667
337.8515, 1412.476
338.3336, 1411.774
338.8158, 1405.974
339.2979, 1400.081
339.7800, 1399.470
340.2621, 1405.227
340.7442, 1408.700
341.2263, 1407.682
341.7085, 1403.704
342.1906, 1401.805
342.6727, 1402.131
343.1548, 1403.523
343.6369, 1405.084
344.1190, 1406.853
344.6012, 1410.341
345.0833, 1416.455
345.5654, 1422.809
346.0475, 1424.458
346.5296, 1421.670
347.0117, 1418.883
347.4939, 1418.453
347.9760, 1419.894
348.4581, 1422.018
348.9402, 1424.931
349.4223, 1427.594
349.9044, 1428.550
350.3866, 1428.241
350.8687, 1428.205
351.3508, 1429.682
351.8329, 1431.548
352.3150, 1431.816
352.7971, 1430.531
353.2793, 1429.128
353.7614, 1429.057
354.2435, 1429.539
354.7256, 1429.143
355.2077, 1426.301
355.6898, 1423.888
356.1720, 1424.748
356.6541, 1428.370
357.1362, 1432.492
357.6183, 1437.548
358.1004, 1441.633
358.5826, 1442.599
359.0647, 1438.868
359.5468, 1435.035
360.0289, 1433.126
360.5110, 1432.873
360.9931, 1433.772
361.4753, 1437.837
361.9574, 1441.232
362.4395, 1441.363
362.9216, 1437.341
363.4037, 1434.371
363.8858, 1435.222
364.3680, 1437.442
364.8501, 1438.457
365.3322, 1436.262
365.8143, 1434.337
366.2964, 1433.418
366.7785, 1433.534
367.2607, 1434.386
367.7428, 1435.940
368.2249, 1438.251
368.7070, 1441.423
369.1891, 1448.156
369.6712, 1452.054
370.1534, 1451.104
370.6355, 1447.130
371.1176, 1446.000
371.5997, 1450.026
372.0818, 1453.850
372.5639, 1455.115
373.0461, 1452.635
373.5282, 1451.300
374.0103, 1451.075
374.4924, 1451.940
374.9745, 1454.231
375.4566, 1458.695
375.9388, 1462.304
376.4209, 1464.234
376.9030, 1464.543
377.3851, 1463.374
377.8672, 1460.327
378.3493, 1457.154
378.8315, 1455.561
379.3136, 1455.580
379.7957, 1456.077
380.2778, 1456.713
380.7599, 1457.866
381.2420, 1461.367
381.7242, 1467.156
382.2063, 1471.699
382.6884, 1471.237
383.1705, 1467.383
383.6526, 1465.711
384.1347, 1466.809
384.6169, 1469.725
385.0990, 1474.513
385.5811, 1480.390
386.0632, 1484.639
386.5453, 1485.183
387.0274, 1483.744
387.5096, 1482.131
387.9917, 1480.406
388.4738, 1479.339
388.9559, 1479.720
389.4380, 1481.113
389.9201, 1483.088
390.4023, 1487.008
390.8844, 1489.761
391.3665, 1488.052
391.8486, 1483.085
392.3307, 1479.318
392.8128, 1479.132
393.2950, 1480.706
393.7771, 1483.238
394.2592, 1487.555
394.7413, 1490.162
395.2234, 1487.849
395.7055, 1483.486
396.1877, 1481.523
396.6698, 1485.588
397.1519, 1489.655
397.6340, 1491.894
398.1161, 1492.070
398.5982, 1491.977
399.0804, 1491.676
399.5625, 1491.220
400.0446, 1490.628
400.5267, 1489.465
401.0088, 1488.900
401.4909, 1489.280
401.9731, 1490.390
402.4552, 1491.224
402.9373, 1491.338
403.4194, 1491.931
403.9015, 1493.775
404.3836, 1497.367
404.8658, 1500.106
405.3479, 1501.628
405.8300, 1502.711
406.3121, 1504.935
406.7942, 1508.635
407.2763, 1510.854
407.7585, 1509.874
408.2406, 1506.498
408.7227, 1505.618
409.2048, 1507.445
409.6869, 1509.809
410.1690, 1510.492
410.6512, 1509.918
411.1333, 1510.445
411.6154, 1513.082
412.0975, 1515.978
412.5796, 1515.552
413.0617, 1512.532
413.5439, 1510.506
414.0260, 1512.499
414.5081, 1516.359
414.9902, 1519.392
415.4723, 1521.493
415.9544, 1522.092
416.4366, 1519.012
416.9187, 1514.485
417.4008, 1511.858
417.8829, 1514.126
418.3650, 1517.131
418.8471, 1518.324
419.3293, 1517.993
419.8114, 1518.015
420.2935, 1519.411
420.7756, 1521.290
421.2577, 1522.938
421.7398, 1523.681
422.2220, 1525.328
422.7041, 1529.864
423.1862, 1535.345
423.6683, 1538.301
424.1504, 1536.253
424.6325, 1533.711
425.1147, 1531.659
425.5968, 1530.049
426.0789, 1529.195
426.5610, 1529.555
427.0431, 1530.259
427.5252, 1530.513
428.0074, 1529.782
428.4895, 1529.869
428.9716, 1531.185
429.4537, 1533.350
429.9358, 1535.353
430.4179, 1537.351
430.9001, 1538.580
431.3822, 1538.358
431.8643, 1536.656
432.3464, 1535.172
432.8285, 1533.785
433.3106, 1533.029
433.7928, 1533.598
434.2749, 1535.438
434.7570, 1538.304
435.2391, 1543.231
435.7212, 1548.268
436.2033, 1548.704
436.6855, 1544.970
437.1676, 1541.354
437.6497, 1541.172
438.1318, 1543.006
438.6139, 1544.930
439.0960, 1546.864
439.5782, 1548.040
440.0603, 1547.073
440.5424, 1544.953
441.0245, 1543.551
441.5066, 1543.286
441.9887, 1544.250
442.4709, 1547.696
442.9530, 1553.430
443.4351, 1556.837
443.9172, 1553.142
444.3993, 1548.190
444.8814, 1546.329
445.3636, 1551.442
445.8457, 1555.372
446.3278, 1556.723
446.8099, 1556.105
447.2920, 1555.040
447.7741, 1552.381
448.2563, 1550.642
448.7384, 1550.804
449.2205, 1553.156
449.7026, 1555.411
450.1847, 1558.471
450.6668, 1560.322
451.1490, 1558.130
451.6311, 1549.957
452.1132, 1545.647
452.5953, 1547.852
453.0774, 1553.882
453.5595, 1555.924
454.0417, 1553.458
454.5238, 1551.864
455.0059, 1555.751
455.4880, 1563.518
455.9701, 1566.115
456.4522, 1562.626
456.9344, 1558.148
457.4165, 1558.794
457.8986, 1562.928
458.3807, 1565.884
458.8628, 1565.455
459.3449, 1564.029
459.8271, 1563.600
460.3092, 1564.335
460.7913, 1566.893
461.2734, 1575.225
461.7555, 1583.391
462.2376, 1585.521
462.7198, 1579.466
463.2019, 1573.643
463.6840, 1572.082
464.1661, 1572.921
464.6482, 1573.907
465.1303, 1574.029
465.6125, 1574.641
466.0946, 1576.782
466.5767, 1580.158
467.0588, 1581.868
467.5409, 1580.269
468.0230, 1578.237
468.5052, 1577.035
468.9873, 1577.093
469.4694, 1576.891
469.9515, 1576.048
470.4336, 1575.302
470.9157, 1575.902
471.3979, 1578.355
471.8800, 1580.379
472.3621, 1580.987
472.8442, 1580.754
473.3263, 1583.143
473.8084, 1588.592
474.2906, 1593.251
474.7727, 1593.688
475.2548, 1590.721
475.7369, 1588.132
476.2190, 1586.149
476.7011, 1585.094
477.1833, 1585.565
477.6654, 1587.279
478.1475, 1589.483
478.6296, 1593.031
479.1117, 1596.113
479.5938, 1596.491
480.0760, 1594.481
480.5581, 1592.192
481.0402, 1589.754
481.5223, 1588.177
482.0044, 1588.618
482.4865, 1592.240
482.9687, 1595.291
483.4508, 1595.917
483.9329, 1595.377
484.4150, 1595.459
484.8971, 1597.769
485.3792, 1599.367
485.8614, 1598.928
486.3435, 1596.673
486.8256, 1596.000
487.3077, 1597.489
487.7898, 1599.876
488.2719, 1602.792
488.7541, 1606.827
489.2362, 1609.301
489.7183, 1609.993
490.2004, 1609.391
490.6825, 1607.889
491.1646, 1605.341
491.6468, 1603.239
492.1289, 1601.897
492.6110, 1601.352
493.0931, 1601.907
493.5752, 1603.550
494.0573, 1605.323
494.5395, 1606.793
495.0216, 1607.858
495.5037, 1608.127
495.9858, 1607.388
496.4679, 1606.772
496.9500, 1607.602
497.4322, 1609.217
497.9143, 1610.507
498.3964, 1610.122
498.8785, 1610.129
499.3606, 1612.370
499.8427, 1616.292
500.3249, 1619.142
500.8070, 1619.858
501.2891, 1619.394
501.7712, 1617.589
502.2533, 1612.712
502.7354, 1611.453
503.2176, 1619.017
503.6997, 1627.985
504.1818, 1630.322
504.6639, 1620.310
505.1460, 1614.452
505.6281, 1616.669
506.1103, 1624.519
506.5924, 1628.111
507.0745, 1626.328
507.5566, 1624.156
508.0387, 1624.624
508.5208, 1627.507
509.0030, 1627.995
509.4851, 1625.733
509.9672, 1623.074
510.4493, 1622.528
510.9314, 1623.688
511.4135, 1625.455
511.8957, 1628.390
512.3778, 1630.401
512.8599, 1627.680
513.3420, 1621.808
513.8242, 1617.378
514.3063, 1617.648
514.7884, 1619.645
515.2705, 1621.225
515.7526, 1622.231
516.2347, 1623.319
516.7169, 1624.631
517.1990, 1626.171
517.6811, 1627.955
518.1632, 1630.543
518.6453, 1632.557
519.1274, 1633.894
519.6096, 1634.524
520.0917, 1634.273
520.5738, 1632.318
521.0559, 1630.765
521.5380, 1629.825
522.0201, 1629.574
522.5023, 1632.013
522.9844, 1638.362
523.4665, 1643.987
523.9486, 1644.602
524.4307, 1640.543
524.9128, 1638.587
525.3950, 1639.389
525.8771, 1641.976
526.3592, 1646.890
526.8413, 1652.887
527.3234, 1655.365
527.8055, 1649.858
528.2877, 1642.631
528.7698, 1641.145
529.2519, 1644.413
529.7340, 1648.187
530.2161, 1651.255
530.6982, 1653.123
531.1804, 1653.032
531.6625, 1650.518
532.1446, 1648.440
532.6267, 1647.938
533.1088, 1648.249
533.5909, 1648.678
534.0731, 1650.234
534.5552, 1650.529
535.0373, 1648.022
535.5194, 1644.373
536.0015, 1643.931
536.4836, 1648.332
536.9658, 1652.603
537.4479, 1654.831
537.9300, 1655.115
538.4121, 1656.492
538.8942, 1659.362
539.3763, 1661.507
539.8585, 1660.141
540.3406, 1656.036
540.8227, 1653.704
541.3048, 1653.788
541.7869, 1655.381
542.2690, 1658.256
542.7512, 1661.786
543.2333, 1664.394
543.7154, 1664.396
544.1975, 1664.077
544.6796, 1666.280
545.1617, 1670.157
545.6439, 1671.855
546.1260, 1665.698
546.6081, 1659.848
547.0902, 1660.213
547.5723, 1669.721
548.0544, 1675.689
548.5366, 1673.647
549.0187, 1668.879
549.5008, 1665.960
549.9829, 1665.393
550.4650, 1665.968
550.9471, 1668.601
551.4293, 1671.787
551.9114, 1671.576
552.3935, 1667.231
552.8756, 1662.993
553.3577, 1659.836
553.8398, 1658.096
554.3220, 1660.845
554.8041, 1668.296
555.2862, 1674.115
555.7683, 1670.313
556.2504, 1661.940
556.7325, 1660.117
557.2147, 1667.369
557.6968, 1675.271
558.1789, 1675.794
558.6610, 1672.636
559.1431, 1671.252
559.6252, 1677.036
560.1074, 1681.416
560.5895, 1679.672
561.0716, 1673.555
561.5537, 1668.991
562.0358, 1666.360
562.5179, 1666.229
563.0001, 1669.950
563.4822, 1678.194
563.9643, 1682.435
564.4464, 1680.381
564.9285, 1677.561
565.4106, 1678.887
565.8928, 1685.536
566.3749, 1687.938
566.8570, 1684.125
567.3391, 1678.666
567.8212, 1679.514
568.3033, 1685.722
568.7855, 1690.132
569.2676, 1689.380
569.7497, 1686.499
570.2318, 1685.793
570.7139, 1686.937
571.1960, 1688.472
571.6782, 1690.261
572.1603, 1691.586
572.6424, 1691.149
573.1245, 1688.640
573.6066, 1687.860
574.0887, 1692.430
574.5709, 1698.017
575.0530, 1701.244
575.5351, 1699.472
576.0172, 1698.581
576.4993, 1699.293
576.9814, 1700.717
577.4636, 1701.468
577.9457, 1701.551
578.4278, 1700.816
578.9099, 1698.604
579.3920, 1695.750
579.8741, 1695.980
580.3563, 1699.516
580.8384, 1703.088
581.3205, 1704.289
581.8026, 1704.045
582.2847, 1705.376
582.7668, 1708.410
583.2490, 1710.828
583.7311, 1710.420
584.2131, 1708.335
584.6953, 1705.810
585.1774, 1702.564
585.6595, 1700.317
586.1416, 1699.782
586.6237, 1700.870
587.1058, 1703.422
587.5880, 1710.787
588.0701, 1715.922
588.5522, 1716.114
589.0343, 1712.467
589.5164, 1709.871
589.9985, 1708.585
590.4807, 1707.899
590.9628, 1707.536
591.4449, 1707.486
591.9270, 1707.766
592.4091, 1708.321
592.8912, 1709.363
593.3734, 1712.232
593.8555, 1716.063
594.3376, 1715.982
594.8197, 1710.437
595.3018, 1704.618
595.7839, 1704.705
596.2661, 1708.620
596.7482, 1712.376
597.2303, 1714.379
597.7124, 1715.917
598.1945, 1718.405
598.6766, 1721.158
599.1588, 1722.092
599.6409, 1719.434
600.1230, 1715.965
600.6051, 1711.946
601.0872, 1707.244
601.5693, 1705.521
602.0515, 1708.278
602.5336, 1711.961
603.0157, 1714.418
603.4978, 1715.409
603.9799, 1716.635
604.4620, 1718.257
604.9442, 1719.753
605.4263, 1720.199
605.9084, 1719.810
606.3905, 1719.769
606.8726, 1720.244
607.3547, 1721.414
607.8369, 1724.525
608.3190, 1728.573
608.8011, 1731.086
609.2832, 1729.396
609.7653, 1727.019
610.2474, 1726.149
610.7296, 1726.631
611.2117, 1726.932
611.6938, 1725.706
612.1759, 1724.954
612.6580, 1726.039
613.1401, 1729.787
613.6223, 1731.514
614.1044, 1729.815
614.5865, 1727.966
615.0686, 1729.455
615.5507, 1734.916
616.0328, 1738.125
616.5150, 1738.268
616.9971, 1736.536
617.4792, 1734.155
617.9613, 1731.325
618.4434, 1728.827
618.9255, 1726.600
619.4077, 1725.276
619.8898, 1726.508
620.3719, 1729.417
620.8540, 1731.223
621.3361, 1729.511
621.8182, 1727.183
622.3004, 1725.299
622.7825, 1723.961
623.2646, 1724.418
623.7467, 1729.007
624.2288, 1733.702
624.7109, 1736.461
625.1931, 1736.720
625.6752, 1736.856
626.1573, 1736.844
626.6394, 1736.689
627.1215, 1736.281
627.6036, 1735.598
628.0858, 1735.139
628.5679, 1734.859
629.0500, 1735.111
629.5321, 1737.140
630.0142, 1740.272
630.4963, 1742.236
630.9785, 1740.817
631.4606, 1739.214
631.9427, 1740.012
632.4248, 1742.918
632.9069, 1746.974
633.3890, 1755.201
633.8712, 1761.379
634.3533, 1761.579
634.8354, 1755.108
635.3175, 1751.071
635.7996, 1750.703
636.2817, 1751.714
636.7639, 1753.132
637.2460, 1755.174
637.7281, 1756.148
638.2102, 1755.681
638.6923, 1755.114
639.1744, 1756.362
639.6566, 1758.995
640.1387, 1760.414
640.6208, 1759.852
641.1029, 1758.772
641.5850, 1758.817
642.0671, 1759.607
642.5493, 1760.375
643.0314, 1760.803
643.5135, 1761.167
643.9956, 1761.813
644.4777, 1762.569
644.9598, 1762.873
645.4420, 1762.507
645.9241, 1761.799
646.4062, 1760.473
646.8883, 1758.629
647.3704, 1758.453
647.8525, 1760.577
648.3347, 1763.004
648.8168, 1764.484
649.2989, 1765.063
649.7810, 1766.130
650.2631, 1767.826
650.7452, 1768.734
651.2274, 1766.226
651.7095, 1762.106
652.1916, 1760.269
652.6737, 1761.840
653.1558, 1764.209
653.6379, 1765.529
654.1201, 1766.475
654.6022, 1767.949
655.0843, 1771.113
655.5664, 1773.781
656.0485, 1775.765
656.5306, 1776.829
657.0128, 1776.366
657.4949, 1772.931
657.9770, 1770.843
658.4591, 1772.041
658.9412, 1775.278
659.4233, 1774.293
659.9055, 1768.643
660.3876, 1763.687
660.8697, 1762.775
661.3518, 1764.625
661.8339, 1766.161
662.3160, 1767.413
662.7982, 1769.009
663.2803, 1771.982
663.7624, 1775.194
664.2445, 1777.786
664.7266, 1779.827
665.2087, 1780.220
665.6909, 1776.814
666.1730, 1772.662
666.6551, 1770.332
667.1372, 1770.444
667.6193, 1771.461
668.1014, 1773.861
668.5836, 1776.627
669.0657, 1778.038
669.5478, 1777.864
670.0299, 1779.116
670.5120, 1783.109
670.9941, 1787.578
671.4763, 1788.145
671.9584, 1785.581
672.4405, 1782.887
672.9226, 1780.381
673.4047, 1779.162
673.8868, 1781.382
674.3690, 1785.957
674.8511, 1789.100
675.3332, 1787.654
675.8153, 1786.039
676.2974, 1786.419
676.7795, 1788.956
677.2617, 1790.467
677.7438, 1790.222
678.2259, 1790.055
678.7080, 1791.016
679.1901, 1793.196
679.6722, 1795.108
680.1544, 1796.799
680.6365, 1798.094
681.1186, 1797.937
681.6007, 1797.336
682.0828, 1799.196
682.5649, 1804.218
683.0471, 1809.902
683.5292, 1813.379
684.0113, 1816.547
684.4934, 1821.661
684.9755, 1830.549
685.4576, 1839.567
685.9398, 1847.781
686.4219, 1855.650
686.9040, 1864.116
687.3861, 1874.090
687.8682, 1882.537
688.3503, 1887.703
688.8325, 1892.022
689.3146, 1902.147
689.7967, 1918.109
690.2788, 1935.076
690.7609, 1952.001
691.2430, 1967.884
691.7252, 1980.105
692.2073, 1989.593
692.6894, 2000.024
693.1715, 2011.955
693.6536, 2026.836
694.1357, 2045.911
694.6179, 2069.150
695.1000, 2094.927
695.5821, 2123.652
696.0642, 2154.101
696.5463, 2185.068
697.0284, 2215.857
697.5106, 2251.661
697.9927, 2292.623
698.4748, 2338.475
698.9569, 2386.876
699.4390, 2438.852
699.9211, 2508.641
700.4033, 2600.943
700.8854, 2681.806
701.3675, 2719.607
701.8496, 2722.634
702.3317, 2698.941
702.8138, 2638.744
703.2960, 2584.115
703.7781, 2555.598
704.2602, 2544.821
704.7423, 2541.540
705.2244, 2577.604
705.7065, 2576.039
706.1887, 2522.424
706.6708, 2433.749
707.1529, 2331.941
707.6350, 2211.685
708.1171, 2110.452
708.5992, 2039.214
709.0814, 1991.040
709.5635, 1952.800
710.0456, 1923.994
710.5277, 1902.893
711.0098, 1892.095
711.4919, 1885.832
711.9741, 1879.341
712.4562, 1873.192
712.9383, 1869.473
713.4204, 1871.585
713.9025, 1873.821
714.3846, 1873.090
714.8668, 1869.609
715.3489, 1868.904
715.8310, 1873.095
716.3131, 1875.825
716.7952, 1873.598
717.2773, 1866.715
717.7595, 1858.475
718.2416, 1848.788
718.7237, 1839.898
719.2058, 1833.125
719.6879, 1828.481
720.1700, 1826.744
720.6522, 1828.110
721.1343, 1829.536
721.6164, 1829.911
722.0985, 1829.185
722.5806, 1827.005
723.0627, 1821.723
723.5449, 1818.857
724.0270, 1819.876
724.5091, 1822.161
724.9912, 1823.345
725.4733, 1823.266
725.9554, 1823.032
726.4376, 1822.671
726.9197, 1822.375
727.4018, 1822.102
727.8839, 1822.089
728.3660, 1823.364
728.8481, 1826.950
729.3303, 1830.094
729.8124, 1830.211
730.2945, 1828.391
730.7766, 1826.296
731.2587, 1823.427
731.7408, 1821.455
732.2230, 1821.040
732.7051, 1821.688
733.1872, 1822.535
733.6693, 1823.372
734.1514, 1825.158
734.6335, 1828.775
735.1157, 1832.878
735.5978, 1833.765
736.0799, 1831.721
736.5620, 1829.019
737.0441, 1825.698
737.5262, 1823.103
738.0084, 1823.151
738.4905, 1825.290
738.9726, 1827.624
739.4547, 1830.287
739.9368, 1832.042
740.4189, 1831.804
740.9011, 1829.704
741.3832, 1828.626
741.8653, 1828.985
742.3474, 1829.526
742.8295, 1829.633
743.3116, 1829.405
743.7938, 1829.913
744.2759, 1831.175
744.7580, 1832.327
745.2401, 1832.783
745.7222, 1832.750
746.2043, 1832.301
746.6865, 1831.507
747.1686, 1831.246
747.6507, 1833.944
748.1328, 1835.915
748.6149, 1833.953
749.0970, 1826.472
749.5792, 1821.867
750.0613, 1821.405
750.5434, 1822.577
751.0255, 1823.674
751.5076, 1824.516
751.9897, 1828.231
752.4719, 1835.638
752.9540, 1841.466
753.4361, 1838.279
753.9182, 1830.563
754.4003, 1827.783
754.8824, 1831.666
755.3646, 1836.700
755.8467, 1841.359
756.3288, 1844.261
756.8109, 1843.568
757.2930, 1835.550
757.7751, 1831.257
758.2573, 1832.846
758.7394, 1836.800
759.2215, 1840.089
759.7036, 1842.785
760.1857, 1844.439
760.6678, 1844.878
761.1500, 1844.691
761.6321, 1844.024
762.1142, 1843.334
762.5963, 1843.967
763.0784, 1846.752
763.5605, 1849.440
764.0427, 1849.614
764.5248, 1849.062
765.0069, 1850.031
765.4890, 1857.687
765.9711, 1860.395
766.4532, 1854.144
766.9354, 1844.929
767.4175, 1841.821
767.8996, 1845.887
768.3817, 1849.618
768.8638, 1851.987
769.3459, 1852.965
769.8281, 1851.743
770.3102, 1849.007
770.7923, 1846.534
771.2744, 1843.617
771.7565, 1843.254
772.2386, 1851.246
772.7208, 1862.417
773.2029, 1867.760
773.6850, 1859.041
774.1671, 1851.931
774.6492, 1848.386
775.1313, 1847.788
775.6135, 1849.427
776.0956, 1853.683
776.5777, 1857.370
777.0598, 1859.959
777.5419, 1861.017
778.0240, 1858.110
778.5062, 1852.828
778.9883, 1850.163
779.4704, 1855.799
779.9525, 1861.284
780.4346, 1860.059
780.9167, 1854.763
781.3989, 1851.923
781.8810, 1854.379
782.3631, 1857.732
782.8452, 1862.247
783.3273, 1866.794
783.8094, 1867.280
784.2916, 1863.203
784.7737, 1860.311
785.2558, 1861.071
785.7379, 1863.704
786.2200, 1865.477
786.7021, 1866.378
787.1843, 1866.286
787.6664, 1863.993
788.1485, 1861.839
788.6306, 1861.226
789.1127, 1861.859
789.5948, 1862.702
790.0770, 1866.148
790.5591, 1865.767
791.0412, 1857.841
791.5233, 1845.684
792.0054, 1841.972
792.4875, 1846.877
792.9697, 1852.645
793.4518, 1855.786
793.9339, 1857.815
794.4160, 1861.415
794.8981, 1865.969
795.3802, 1869.437
795.8624, 1871.509
796.3445, 1871.616
796.8266, 1867.298
797.3087, 1860.173
797.7908, 1858.409
798.2729, 1866.065
798.7551, 1871.559
799.2372, 1870.874
799.7193, 1865.917
800.2014, 1863.161
800.6835, 1862.569
801.1656, 1863.421
801.6478, 1867.050
802.1299, 1870.642
802.6120, 1870.064
803.0941, 1866.541
803.5762, 1863.989
804.0583, 1863.969
804.5405, 1865.213
805.0226, 1867.688
805.5047, 1871.071
805.9868, 1874.795
806.4689, 1879.906
806.9510, 1881.583
807.4332, 1876.410
807.9153, 1867.896
808.3974, 1866.694
808.8795, 1871.805
809.3616, 1877.520
809.8438, 1882.589
810.3259, 1885.530
810.8080, 1883.584
811.2901, 1878.302
811.7722, 1874.674
812.2543, 1875.222
812.7365, 1876.265
813.2186, 1877.072
813.7007, 1877.655
814.1828, 1878.013
814.6649, 1878.108
815.1470, 1878.224
815.6292, 1878.709
816.1113, 1878.970
816.5934, 1876.848
817.0755, 1873.352
817.5576, 1871.889
818.0397, 1876.076
818.5219, 1880.719
819.0040, 1883.616
819.4861, 1884.903
819.9682, 1885.021
820.4503, 1883.745
820.9324, 1881.906
821.4146, 1879.442
821.8967, 1876.784
822.3788, 1875.276
822.8609, 1874.853
823.3430, 1874.018
823.8251, 1871.197
824.3073, 1869.118
824.7894, 1873.039
825.2715, 1880.004
825.7536, 1883.760
826.2357, 1877.837
826.7178, 1873.063
827.2000, 1874.277
827.6821, 1878.212
828.1642, 1878.429
828.6463, 1873.307
829.1284, 1870.298
829.6105, 1871.090
830.0927, 1874.396
830.5748, 1879.302
831.0569, 1884.927
831.5390, 1888.136
832.0211, 1886.756
832.5032, 1884.560
832.9854, 1883.663
833.4675, 1883.845
833.9496, 1884.805
834.4317, 1890.164
834.9138, 1890.802
835.3959, 1883.647
835.8781, 1873.898
836.3602, 1869.073
836.8423, 1869.228
837.3244, 1872.599
837.8065, 1879.809
838.2886, 1886.803
838.7708, 1887.533
839.2529, 1885.160
839.7350, 1885.118
840.2171, 1890.633
840.6992, 1895.032
841.1813, 1895.631
841.6635, 1894.307
842.1456, 1893.021
842.6277, 1891.785
843.1098, 1890.510
843.5919, 1889.085
844.0740, 1887.941
844.5562, 1887.515
845.0383, 1887.820
845.5204, 1889.237
846.0025, 1892.077
846.4846, 1894.288
846.9667, 1893.445
847.4489, 1891.844
847.9310, 1891.688
848.4131, 1893.849
848.8952, 1896.003
849.3773, 1897.812
849.8594, 1899.974
850.3416, 1903.616
850.8237, 1908.645
851.3058, 1910.942
851.7879, 1910.226
852.2700, 1909.029
852.7521, 1908.925
853.2343, 1909.847
853.7164, 1913.063
854.1985, 1918.840
854.6806, 1920.493
855.1627, 1910.982
855.6448, 1901.196
856.1270, 1896.722
856.6091, 1897.633
857.0912, 1898.572
857.5733, 1899.681
858.0554, 1899.891
858.5375, 1898.637
859.0197, 1895.935
859.5018, 1890.432
859.9839, 1882.907
860.4660, 1877.929
860.9481, 1878.366
861.4302, 1881.725
861.9124, 1888.743
862.3945, 1898.498
862.8766, 1903.141
863.3587, 1901.168
863.8408, 1897.229
864.3229, 1891.956
864.8051, 1886.505
865.2872, 1885.052
865.7693, 1887.015
866.2514, 1889.026
866.7335, 1888.922
867.2156, 1888.703
867.6978, 1890.243
868.1799, 1892.802
868.6620, 1894.717
869.1441, 1894.957
869.6262, 1895.467
870.1083, 1897.365
870.5905, 1898.997
871.0726, 1895.616
871.5547, 1887.409
872.0368, 1883.621
872.5189, 1887.524
873.0010, 1893.881
873.4832, 1897.277
873.9653, 1898.870
874.4474, 1900.607
874.9295, 1903.952
875.4116, 1905.900
875.8937, 1904.630
876.3759, 1902.356
876.8580, 1901.155
877.3401, 1901.272
877.8222, 1901.076
878.3043, 1900.518
878.7864, 1899.283
879.2686, 1896.228
879.7507, 1892.495
880.2328, 1889.724
880.7149, 1887.995
881.1970, 1888.994
881.6791, 1898.090
882.1613, 1906.709
882.6434, 1907.877
883.1255, 1900.154
883.6076, 1896.679
884.0897, 1898.726
884.5718, 1900.988
885.0540, 1898.739
885.5361, 1893.990
886.0182, 1894.253
886.5003, 1898.838
886.9824, 1901.959
887.4645, 1897.873
887.9467, 1893.178
888.4288, 1891.884
888.9109, 1893.969
889.3930, 1896.649
889.8751, 1900.656
890.3572, 1903.169
890.8394, 1902.368
891.3215, 1900.142
891.8036, 1902.360
892.2857, 1908.297
892.7678, 1914.266
893.2499, 1920.685
893.7321, 1924.006
894.2142, 1918.739
894.6963, 1909.048
895.1784, 1902.988
895.6605, 1904.344
896.1426, 1906.279
896.6248, 1909.040
897.1069, 1911.230
897.5890, 1910.289
898.0711, 1906.525
898.5532, 1902.486
899.0353, 1898.066
899.5175, 1896.034
899.9996, 1901.506
900.4817, 1909.597
900.9638, 1914.302
901.4459, 1913.242
901.9280, 1912.751
902.4102, 1914.188
902.8923, 1915.582
903.3744, 1915.488
903.8565, 1913.866
904.3386, 1911.773
904.8207, 1909.176
905.3029, 1908.014
905.7850, 1911.825
906.2671, 1916.614
906.7492, 1917.572
907.2313, 1914.730
907.7134, 1912.357
908.1956, 1912.194
908.6777, 1912.115
909.1598, 1910.771
909.6419, 1908.961
910.1240, 1911.775
910.6061, 1919.323
911.0883, 1924.865
911.5704, 1925.350
912.0525, 1922.456
912.5346, 1915.869
913.0167, 1907.821
913.4988, 1903.159
913.9810, 1906.608
914.4631, 1909.828
914.9452, 1910.825
915.4273, 1910.913
915.9094, 1912.047
916.3915, 1914.327
916.8737, 1916.619
917.3558, 1919.137
917.8379, 1919.902
918.3200, 1913.873
918.8021, 1905.754
919.2842, 1902.681
919.7664, 1906.767
920.2485, 1912.399
920.7306, 1920.886
921.2127, 1927.698
921.6948, 1929.818
922.1769, 1926.978
922.6591, 1922.816
923.1412, 1916.979
923.6233, 1913.182
924.1054, 1915.302
924.5875, 1920.262
925.0696, 1924.757
925.5518, 1928.394
926.0339, 1929.818
926.5160, 1926.774
926.9981, 1923.252
927.4802, 1920.053
927.9623, 1917.529
928.4445, 1917.357
928.9266, 1919.853
929.4087, 1920.556
929.8908, 1917.335
930.3729, 1913.384
930.8550, 1912.898
931.3372, 1914.826
931.8193, 1917.391
932.3014, 1920.868
932.7835, 1923.600
933.2656, 1925.253
933.7477, 1926.005
934.2299, 1925.934
934.7120, 1925.016
935.1941, 1923.337
935.6762, 1920.774
936.1583, 1918.692
936.6404, 1919.660
937.1226, 1921.205
937.6047, 1919.093
938.0868, 1912.970
938.5689, 1909.138
939.0510, 1911.395
939.5331, 1914.490
940.0153, 1916.535
940.4974, 1917.635
940.9795, 1918.927
941.4616, 1920.418
941.9437, 1920.896
942.4258, 1919.428
942.9080, 1917.098
943.3901, 1914.349
943.8722, 1911.860
944.3543, 1911.077
944.8364, 1913.483
945.3185, 1916.444
945.8007, 1920.160
946.2828, 1923.688
946.7649, 1925.942
947.2470, 1926.934
947.7291, 1926.321
948.2112, 1923.885
948.6934, 1921.143
949.1755, 1918.641
949.6576, 1917.090
950.1397, 1917.633
950.6218, 1920.882
951.1039, 1923.182
951.5861, 1924.710
952.0682, 1924.235
952.5503, 1919.875
953.0324, 1912.744
953.5145, 1911.731
953.9966, 1916.295
954.4788, 1919.717
954.9609, 1916.390
955.4430, 1912.033
955.9251, 1910.392
956.4072, 1911.353
956.8893, 1914.757
957.3715, 1923.860
957.8536, 1929.471
958.3357, 1929.836
958.8178, 1927.045
959.2999, 1923.297
959.7820, 1919.046
960.2642, 1916.564
960.7463, 1916.381
961.2284, 1917.170
961.7105, 1918.164
962.1926, 1919.540
962.6747, 1921.944
963.1569, 1926.162
963.6390, 1926.842
964.1211, 1922.313
964.6032, 1918.821
965.0853, 1921.828
965.5674, 1928.420
966.0496, 1929.978
966.5317, 1927.205
967.0138, 1923.477
967.4959, 1918.226
967.9780, 1914.975
968.4601, 1917.516
968.9423, 1922.977
969.4244, 1924.590
969.9065, 1921.330
970.3886, 1918.525
970.8707, 1916.901
971.3528, 1916.492
971.8350, 1917.789
972.3171, 1920.177
972.7992, 1922.685
973.2813, 1925.268
973.7634, 1927.316
974.2455, 1929.610
974.7277, 1930.226
975.2098, 1926.864
975.6919, 1919.403
976.1740, 1918.405
976.6561, 1924.144
977.1382, 1930.311
977.6204, 1933.946
978.1025, 1935.237
978.5846, 1932.649
979.0667, 1927.825
979.5488, 1925.536
980.0309, 1929.512
980.5131, 1933.324
980.9952, 1936.130
981.4773, 1938.079
981.9594, 1939.703
982.4415, 1940.833
982.9236, 1939.476
983.4058, 1934.774
983.8879, 1930.894
984.3700, 1931.819
984.8521, 1934.943
985.3342, 1938.636
985.8163, 1943.464
986.2985, 1943.323
986.7806, 1935.406
987.2627, 1929.051
987.7448, 1930.676
988.2269, 1936.920
988.7090, 1936.622
989.1912, 1931.330
989.6733, 1927.422
990.1554, 1930.466
990.6375, 1933.119
991.1196, 1930.254
991.6017, 1925.378
992.0839, 1924.927
992.5660, 1930.333
993.0481, 1933.657
993.5302, 1933.730
994.0123, 1932.643
994.4944, 1932.736
994.9766, 1933.226
995.4587, 1932.270
995.9408, 1929.413
996.4229, 1928.833
996.9050, 1936.323
997.3871, 1941.347
997.8693, 1937.423
998.3514, 1927.119
998.8335, 1928.454
999.3156, 1940.580
999.7977, 1948.360
1000.280, 1942.299
1000.762, 1932.831
1001.244, 1928.101
1001.726, 1927.105
1002.208, 1928.182
1002.690, 1932.900
1003.173, 1936.567
1003.655, 1938.946
1004.137, 1940.495
1004.619, 1941.554
1005.101, 1942.139
1005.583, 1942.325
1006.065, 1942.087
1006.547, 1941.177
1007.029, 1936.798
1007.512, 1934.097
1007.994, 1937.626
1008.476, 1945.632
1008.958, 1950.945
1009.440, 1953.577
1009.922, 1952.790
1010.404, 1947.147
1010.886, 1940.654
1011.369, 1939.072
1011.851, 1940.512
1012.333, 1941.780
1012.815, 1941.978
1013.297, 1942.389
1013.779, 1944.046
1014.261, 1945.149
1014.743, 1944.370
1015.225, 1941.805
1015.708, 1938.250
1016.190, 1933.871
1016.672, 1931.239
1017.154, 1933.602
1017.636, 1936.886
1018.118, 1938.367
1018.600, 1938.327
1019.082, 1937.812
1019.565, 1935.754
1020.047, 1936.430
1020.529, 1941.330
1021.011, 1947.070
1021.493, 1949.104
1021.975, 1948.481
1022.457, 1946.983
1022.939, 1944.683
1023.421, 1943.479
1023.904, 1946.410
1024.386, 1948.354
1024.868, 1945.806
1025.350, 1939.619
1025.832, 1938.661
1026.314, 1942.873
1026.796, 1945.413
1027.278, 1941.843
1027.760, 1936.901
1028.243, 1934.307
1028.725, 1933.925
1029.207, 1935.673
1029.689, 1943.162
1030.171, 1946.070
1030.653, 1942.291
1031.135, 1938.114
1031.617, 1941.500
1032.100, 1949.186
1032.582, 1951.120
1033.064, 1947.203
1033.546, 1942.996
1034.028, 1939.467
1034.510, 1938.477
1034.992, 1942.811
1035.474, 1950.006
1035.957, 1952.709
1036.439, 1950.701
1036.921, 1948.620
1037.403, 1947.426
1037.885, 1946.989
1038.367, 1947.302
1038.849, 1948.228
1039.331, 1949.586
1039.813, 1951.364
1040.296, 1953.810
1040.778, 1957.973
1041.260, 1960.517
1041.742, 1957.998
1042.224, 1952.962
1042.706, 1955.930
1043.188, 1964.618
1043.670, 1970.344
1044.152, 1966.073
1044.635, 1961.167
1045.117, 1958.517
1045.599, 1957.874
1046.081, 1959.667
1046.563, 1964.634
1047.045, 1965.381
1047.527, 1961.063
1048.009, 1957.155
1048.492, 1959.820
1048.974, 1964.597
1049.456, 1967.108
1049.938, 1967.192
1050.420, 1966.238
1050.902, 1963.336
1051.384, 1961.842
1051.866, 1962.947
1052.349, 1965.336
1052.831, 1965.768
1053.313, 1965.432
1053.795, 1968.243
1054.277, 1976.214
1054.759, 1982.683
1055.241, 1982.852
1055.723, 1981.879
1056.205, 1983.055
1056.688, 1986.321
1057.170, 1989.777
1057.652, 1993.439
1058.134, 1997.372
1058.616, 2002.536
1059.098, 2007.052
1059.580, 2009.332
1060.062, 2009.689
1060.544, 2008.549
1061.027, 2004.905
1061.509, 2001.945
1061.991, 1999.638
1062.473, 1998.458
1062.955, 1999.575
1063.437, 2001.933
1063.919, 2002.005
1064.401, 2000.283
1064.884, 2002.382
1065.366, 2016.293
1065.848, 2027.616
1066.330, 2030.605
1066.812, 2029.161
1067.294, 2030.181
1067.776, 2033.985
1068.258, 2044.405
1068.740, 2062.606
1069.223, 2085.190
1069.705, 2103.274
1070.187, 2129.235
1070.669, 2170.797
1071.151, 2227.991
1071.633, 2320.426
1072.115, 2452.630
1072.597, 2604.803
1073.079, 2783.917
1073.562, 2957.030
1074.044, 3072.574
1074.526, 3146.737
1075.008, 3211.491
1075.490, 3268.807
1075.972, 3327.442
1076.454, 3382.884
1076.936, 3447.684
1077.419, 3533.809
1077.901, 3638.445
1078.383, 3744.429
1078.865, 3855.458
1079.347, 3991.743
1079.829, 4122.392
1080.311, 4327.392
1080.793, 4625.938
1081.275, 5032.711
1081.758, 5598.507
1082.240, 6335.260
1082.722, 7078.361
1083.204, 7802.267
1083.686, 8611.896
1084.168, 10008.32
1084.650, 11252.05
1085.132, 11712.96
1085.615, 11310.78
1086.097, 10210.94
1086.579, 8143.936
1087.061, 6258.171
1087.543, 4877.138
1088.025, 3882.780
1088.507, 3210.233
1088.989, 2788.002
1089.471, 2503.989
1089.953, 2358.614
1090.436, 2257.034
1090.918, 2192.278
1091.400, 2146.190
1091.882, 2111.729
1092.364, 2087.725
1092.846, 2070.402
1093.328, 2059.178
1093.810, 2050.753
1094.293, 2045.330
1094.775, 2040.018
1095.257, 2032.021
1095.739, 2024.361
1096.221, 2020.874
1096.703, 2022.374
1097.185, 2019.714
1097.667, 2012.551
1098.150, 2007.128
1098.632, 2010.693
1099.114, 2015.754
1099.596, 2015.895
1100.078, 2012.139
1100.560, 2008.180
1101.042, 2003.436
1101.524, 2001.256
1102.006, 2002.511
1102.489, 2004.872
1102.971, 2008.024
1103.453, 2009.418
1103.935, 2002.527
1104.417, 1987.232
1104.899, 1978.479
1105.381, 1984.618
1105.863, 1990.777
1106.345, 1993.562
1106.828, 1993.654
1107.310, 1991.403
1107.792, 1987.642
1108.274, 1985.085
1108.756, 1984.628
1109.238, 1984.041
1109.720, 1982.343
1110.202, 1980.029
1110.685, 1976.764
1111.167, 1973.019
1111.649, 1973.424
1112.131, 1977.499
1112.613, 1980.472
1113.095, 1979.521
1113.577, 1978.116
1114.059, 1979.893
1114.542, 1981.850
1115.024, 1979.771
1115.506, 1971.752
1115.988, 1969.654
1116.470, 1973.976
1116.952, 1979.134
1117.434, 1981.227
1117.916, 1982.318
1118.398, 1986.281
1118.880, 1990.850
1119.363, 1990.021
1119.845, 1978.680
1120.327, 1971.656
1120.809, 1970.736
1121.291, 1971.710
1121.773, 1969.589
1122.255, 1966.865
1122.737, 1969.668
1123.220, 1976.983
1123.702, 1980.413
1124.184, 1970.645
1124.666, 1966.091
1125.148, 1972.251
1125.630, 1981.690
1126.112, 1981.573
1126.594, 1974.914
1127.077, 1970.849
1127.559, 1970.713
1128.041, 1971.640
1128.523, 1973.425
1129.005, 1974.591
1129.487, 1974.112
1129.969, 1972.775
1130.451, 1973.710
1130.933, 1976.406
1131.416, 1976.245
1131.898, 1970.700
1132.380, 1967.461
1132.862, 1973.719
1133.344, 1982.779
1133.826, 1989.947
1134.308, 1995.045
1134.790, 1997.168
1135.272, 1996.257
1135.755, 1993.960
1136.237, 1989.831
1136.719, 1986.589
1137.201, 1988.690
1137.683, 1992.295
1138.165, 1991.793
1138.647, 1985.217
1139.129, 1982.587
1139.612, 1984.424
1140.094, 1986.870
1140.576, 1987.152
1141.058, 1986.989
1141.540, 1989.273
1142.022, 1992.655
1142.504, 1994.274
1142.986, 1993.631
1143.469, 1990.712
1143.951, 1984.754
1144.433, 1978.781
1144.915, 1974.835
1145.397, 1972.887
1145.879, 1973.854
1146.361, 1976.938
1146.843, 1978.958
1147.325, 1977.839
1147.807, 1976.899
1148.290, 1975.870
1148.772, 1976.369
1149.254, 1983.743
1149.736, 1993.475
1150.218, 1991.727
1150.700, 1978.620
1151.182, 1968.418
1151.664, 1968.281
1152.147, 1971.233
1152.629, 1976.952
1153.111, 1982.542
1153.593, 1981.299
1154.075, 1975.018
1154.557, 1970.597
1155.039, 1969.062
1155.521, 1970.012
1156.004, 1975.328
1156.486, 1980.976
1156.968, 1986.078
1157.450, 1989.646
1157.932, 1987.224
1158.414, 1979.854
1158.896, 1974.872
1159.378, 1974.179
1159.860, 1975.667
1160.343, 1980.151
1160.825, 1984.326
1161.307, 1985.495
1161.789, 1987.937
1162.271, 1989.298
1162.753, 1988.315
1163.235, 1989.372
1163.717, 1986.057
1164.199, 1982.240
1164.682, 1980.272
1165.164, 1979.963
1165.646, 1981.862
1166.128, 1986.146
1166.610, 1986.121
1167.092, 1981.539
1167.574, 1979.269
1168.056, 1984.792
1168.539, 1990.932
1169.021, 1990.411
1169.503, 1986.876
1169.985, 1985.611
1170.467, 1987.823
1170.949, 1988.017
1171.431, 1985.995
1171.913, 1984.040
1172.396, 1984.284
1172.878, 1984.782
1173.360, 1982.245
1173.842, 1978.795
1174.324, 1978.873
1174.806, 1984.679
1175.288, 1988.503
1175.770, 1989.937
1176.252, 1990.447
1176.734, 1990.901
1177.217, 1991.247
1177.699, 1991.025
1178.181, 1990.612
1178.663, 1991.221
1179.145, 1993.373
1179.627, 1995.929
1180.109, 1999.335
1180.591, 2001.001
1181.074, 1997.004
1181.556, 1990.658
1182.038, 1985.737
1182.520, 1982.594
1183.002, 1981.826
1183.484, 1984.632
1183.966, 1987.597
1184.448, 1990.869
1184.931, 1992.640
1185.413, 1988.602
1185.895, 1982.849
1186.377, 1982.964
1186.859, 1988.554
1187.341, 1992.036
1187.823, 1991.170
1188.305, 1989.568
1188.787, 1987.648
1189.270, 1985.666
1189.752, 1983.122
1190.234, 1981.127
1190.716, 1981.969
1191.198, 1985.789
1191.680, 1989.714
1192.162, 1993.962
1192.644, 1996.833
1193.126, 1998.039
1193.609, 1997.511
1194.091, 1993.578
1194.573, 1988.437
1195.055, 1986.360
1195.537, 1988.103
1196.019, 1990.437
1196.501, 1994.076
1196.983, 1995.379
1197.466, 1992.146
1197.948, 1987.776
1198.430, 1989.187
1198.912, 1993.887
1199.394, 1996.764
1199.876, 1996.496
1200.358, 1997.020
1200.840, 2000.852
1201.323, 2002.232
1201.805, 1998.059
1202.287, 1991.629
1202.769, 1989.400
1203.251, 1990.277
1203.733, 1992.087
1204.215, 1994.520
1204.697, 1997.466
1205.179, 2001.966
1205.661, 2005.115
1206.144, 2005.260
1206.626, 2003.690
1207.108, 2003.318
1207.590, 2003.479
1208.072, 2002.472
1208.554, 1999.043
1209.036, 1997.284
1209.518, 1998.312
1210.001, 1999.869
1210.483, 2001.211
1210.965, 2001.906
1211.447, 1999.819
1211.929, 1996.456
1212.411, 1995.161
1212.893, 1997.497
1213.375, 2000.520
1213.858, 2004.560
1214.340, 2007.566
1214.822, 2007.357
1215.304, 2006.178
1215.786, 2011.062
1216.268, 2018.999
1216.750, 2022.999
1217.232, 2019.318
1217.714, 2014.633
1218.197, 2007.799
1218.679, 2004.056
1219.161, 2009.209
1219.643, 2017.956
1220.125, 2018.497
1220.607, 2013.595
1221.089, 2009.673
1221.571, 2009.052
1222.053, 2008.781
1222.536, 2008.621
1223.018, 2008.945
1223.500, 2009.897
1223.982, 2011.589
1224.464, 2015.593
1224.946, 2020.310
1225.428, 2022.069
1225.910, 2017.163
1226.393, 2013.509
1226.875, 2011.317
1227.357, 2010.137
1227.839, 2009.801
1228.321, 2010.171
1228.803, 2011.699
1229.285, 2013.638
1229.767, 2014.236
1230.250, 2012.333
1230.732, 2010.195
1231.214, 2007.397
1231.696, 2006.058
1232.178, 2010.036
1232.660, 2014.824
1233.142, 2012.913
1233.624, 2007.104
1234.106, 2004.023
1234.589, 2004.818
1235.071, 2008.791
1235.553, 2017.064
1236.035, 2022.375
1236.517, 2014.416
1236.999, 2004.257
1237.481, 2007.072
1237.963, 2017.077
1238.445, 2020.278
1238.928, 2012.761
1239.410, 2009.156
1239.892, 2010.172
1240.374, 2012.653
1240.856, 2014.860
1241.338, 2016.788
1241.820, 2018.709
1242.302, 2020.266
1242.785, 2020.883
1243.267, 2020.711
1243.749, 2018.354
1244.231, 2013.632
1244.713, 2010.149
1245.195, 2012.298
1245.677, 2014.898
1246.159, 2012.704
1246.641, 2008.903
1247.124, 2009.498
1247.606, 2014.943
1248.088, 2019.567
1248.570, 2023.060
1249.052, 2025.317
1249.534, 2024.358
1250.016, 2024.213
1250.498, 2029.743
1250.980, 2036.011
1251.463, 2036.305
1251.945, 2030.670
1252.427, 2023.089
1252.909, 2014.208
1253.391, 2009.226
1253.873, 2014.890
1254.355, 2021.056
1254.837, 2023.942
1255.320, 2024.597
1255.802, 2022.979
1256.284, 2019.806
1256.766, 2020.595
1257.248, 2024.889
1257.730, 2027.857
1258.212, 2025.275
1258.694, 2023.451
1259.177, 2024.757
1259.659, 2026.405
1260.141, 2024.616
1260.623, 2020.866
1261.105, 2020.675
1261.587, 2023.463
1262.069, 2025.636
1262.551, 2025.194
1263.033, 2024.640
1263.516, 2024.067
1263.998, 2023.970
1264.480, 2025.658
1264.962, 2027.797
1265.444, 2027.200
1265.926, 2024.507
1266.408, 2022.308
1266.890, 2020.624
1267.372, 2021.063
1267.855, 2024.338
1268.337, 2027.705
1268.819, 2028.492
1269.301, 2028.198
1269.783, 2029.151
1270.265, 2030.727
1270.747, 2030.845
1271.229, 2028.367
1271.712, 2027.693
1272.194, 2029.153
1272.676, 2031.291
1273.158, 2033.983
1273.640, 2035.883
1274.122, 2034.260
1274.604, 2037.005
1275.086, 2032.436
1275.568, 2038.278
1276.051, 2040.286
1276.533, 2038.208
1277.015, 2036.956
1277.497, 2041.445
1277.979, 2045.940
1278.461, 2047.818
1278.943, 2047.019
1279.425, 2042.771
1279.907, 2035.166
1280.390, 2029.881
1280.872, 2027.176
1281.354, 2028.195
1281.836, 2038.754
1282.318, 2046.346
1282.800, 2044.991
1283.282, 2040.638
1283.764, 2037.672
1284.247, 2035.928
1284.729, 2034.975
1285.211, 2034.692
1285.693, 2034.719
1286.175, 2033.607
1286.657, 2035.291
1287.139, 2042.166
1287.621, 2047.459
1288.104, 2043.841
1288.586, 2036.190
1289.068, 2034.737
1289.550, 2037.611
1290.032, 2040.529
1290.514, 2043.771
1290.996, 2043.556
1291.478, 2038.836
1291.960, 2035.112
1292.443, 2036.963
1292.925, 2040.550
1293.407, 2040.649
1293.889, 2039.413
1294.371, 2040.947
1294.853, 2046.488
1295.335, 2048.240
1295.817, 2046.125
1296.299, 2043.358
1296.782, 2041.197
1297.264, 2039.538
1297.746, 2038.088
1298.228, 2037.288
1298.710, 2037.604
1299.192, 2039.084
1299.674, 2041.938
1300.156, 2045.643
1300.639, 2046.368
1301.121, 2040.284
1301.603, 2036.380
1302.085, 2041.664
1302.567, 2048.063
1303.049, 2052.042
1303.531, 2053.222
##END=



