##NAMES=Aragonite
##RRUFFID=R060195
##IDEAL CHEMISTRY=CaCO_3_
##LOCALITY=Cicov Hill, Horenec, Czech Republic
##OWNER=RRUFF
##SOURCE=Marcus Origlieri
##DESCRIPTION=Colorless transparent elongated prismatic crystal
##STATUS=The identification of this mineral has been confirmed by X-ray diffraction and chemical analysis
##URL=rruff.info/R060195
##MEASURED CHEMISTRY=Ca_1.00_CO_3_
92.07813, 108.1881
92.56024, 108.8378
93.04236, 109.0950
93.52448, 108.7720
94.00659, 107.1771
94.48871, 102.0373
94.97083, 95.24505
95.45294, 92.08268
95.93506, 93.84732
96.41718, 98.08949
96.89929, 100.9779
97.38141, 102.4799
97.86353, 103.2158
98.34564, 103.6932
98.82776, 103.8794
99.30988, 102.9160
99.79199, 99.88656
100.2741, 95.86856
100.7562, 95.31396
101.2383, 99.05706
101.7205, 103.9635
102.2026, 107.6948
102.6847, 110.4466
103.1668, 110.9944
103.6489, 108.1852
104.1310, 101.9125
104.6132, 98.35798
105.0953, 98.56767
105.5774, 100.5453
106.0595, 101.8236
106.5416, 101.7812
107.0237, 102.0207
107.5059, 103.1344
107.9880, 105.6787
108.4701, 107.3376
108.9522, 107.7857
109.4343, 107.4176
109.9164, 106.9539
110.3986, 107.6485
110.8807, 107.1891
111.3628, 104.4295
111.8449, 95.33680
112.3270, 90.53020
112.8091, 92.67663
113.2913, 99.84868
113.7734, 106.5756
114.2555, 113.4336
114.7376, 118.7641
115.2197, 121.5390
115.7018, 117.8400
116.1840, 115.8697
116.6661, 118.7560
117.1482, 125.6583
117.6303, 132.1787
118.1124, 133.5579
118.5945, 135.3239
119.0767, 142.1671
119.5588, 160.2536
120.0409, 179.9366
120.5230, 195.0617
121.0051, 205.8807
121.4872, 219.4194
121.9694, 238.3954
122.4515, 262.8363
122.9336, 292.9174
123.4157, 328.8812
123.8978, 370.0894
124.3799, 417.3746
124.8621, 471.1524
125.3442, 526.0219
125.8263, 577.5722
126.3084, 626.6432
126.7905, 675.4987
127.2726, 725.8279
127.7548, 776.1249
128.2369, 822.6473
128.7190, 864.2477
129.2011, 905.5021
129.6832, 951.6242
130.1653, 1002.034
130.6474, 1055.818
131.1296, 1107.096
131.6117, 1159.913
132.0938, 1231.627
132.5759, 1326.531
133.0580, 1437.468
133.5401, 1547.875
134.0223, 1657.909
134.5044, 1777.997
134.9865, 1915.831
135.4686, 2072.588
135.9507, 2238.804
136.4328, 2415.923
136.9150, 2603.389
137.3971, 2793.591
137.8792, 2985.633
138.3613, 3187.585
138.8434, 3405.653
139.3255, 3638.435
139.8077, 3888.188
140.2898, 4155.782
140.7719, 4455.228
141.2540, 4757.214
141.7361, 5114.828
142.2182, 5487.635
142.7004, 5872.610
143.1825, 6320.156
143.6646, 6646.250
144.1467, 6787.327
144.6288, 6735.011
145.1109, 6655.984
145.5931, 6503.341
146.0752, 6360.774
146.5573, 6326.067
147.0394, 6427.062
147.5215, 6597.674
148.0036, 6819.467
148.4858, 7093.250
148.9679, 7428.297
149.4500, 7826.408
149.9321, 8286.279
150.4142, 8796.988
150.8963, 9408.203
151.3785, 10033.36
151.8606, 10656.86
152.3427, 11340.78
152.8248, 11906.01
153.3069, 12418.20
153.7890, 12804.50
154.2712, 12891.25
154.7533, 12555.08
155.2354, 12014.42
155.7175, 11294.30
156.1996, 10304.85
156.6817, 9344.598
157.1639, 8414.484
157.6460, 7534.015
158.1281, 6770.696
158.6102, 6149.207
159.0923, 5632.935
159.5744, 5203.183
160.0566, 4873.093
160.5387, 4606.239
161.0208, 4419.138
161.5029, 4292.953
161.9850, 4173.960
162.4671, 4060.896
162.9493, 3938.295
163.4314, 3794.753
163.9135, 3612.967
164.3956, 3428.681
164.8777, 3245.605
165.3598, 3067.597
165.8420, 2911.883
166.3241, 2787.923
166.8062, 2688.501
167.2883, 2607.335
167.7704, 2543.490
168.2525, 2495.864
168.7346, 2466.483
169.2168, 2453.730
169.6989, 2448.091
170.1810, 2440.670
170.6631, 2437.946
171.1452, 2447.923
171.6273, 2479.733
172.1095, 2519.823
172.5916, 2557.035
173.0737, 2591.881
173.5558, 2630.348
174.0379, 2676.116
174.5201, 2728.254
175.0022, 2786.070
175.4843, 2848.172
175.9664, 2916.903
176.4485, 2992.483
176.9306, 3075.405
177.4128, 3166.828
177.8949, 3271.128
178.3770, 3384.294
178.8591, 3499.936
179.3412, 3627.676
179.8233, 3752.323
180.3055, 3857.266
180.7876, 3944.633
181.2697, 3996.610
181.7518, 3985.818
182.2339, 3923.712
182.7160, 3846.266
183.1982, 3753.829
183.6803, 3658.984
184.1624, 3586.323
184.6445, 3535.251
185.1266, 3513.910
185.6087, 3530.751
186.0909, 3585.103
186.5730, 3672.971
187.0551, 3800.340
187.5372, 3960.287
188.0193, 4138.928
188.5014, 4338.713
188.9836, 4543.938
189.4657, 4754.904
189.9478, 4966.600
190.4299, 5142.831
190.9120, 5273.290
191.3941, 5355.407
191.8763, 5371.631
192.3584, 5316.567
192.8405, 5209.997
193.3226, 5060.987
193.8047, 4869.944
194.2868, 4686.271
194.7690, 4528.585
195.2511, 4397.002
195.7332, 4282.562
196.2153, 4184.646
196.6974, 4104.688
197.1795, 4049.245
197.6617, 4018.456
198.1438, 4004.800
198.6259, 4004.617
199.1080, 4017.761
199.5901, 4048.115
200.0722, 4096.106
200.5544, 4160.777
201.0365, 4236.929
201.5186, 4322.996
202.0007, 4431.445
202.4828, 4568.460
202.9649, 4734.436
203.4471, 4922.221
203.9292, 5135.426
204.4113, 5368.400
204.8934, 5621.280
205.3755, 5900.689
205.8576, 6163.396
206.3398, 6405.497
206.8219, 6639.429
207.3040, 6769.250
207.7861, 6787.438
208.2682, 6706.578
208.7503, 6530.010
209.2325, 6230.446
209.7146, 5928.169
210.1967, 5669.695
210.6788, 5451.503
211.1609, 5295.884
211.6430, 5211.584
212.1252, 5183.166
212.6073, 5184.223
213.0894, 5226.375
213.5715, 5267.553
214.0536, 5295.254
214.5357, 5318.108
215.0179, 5295.818
215.5000, 5228.496
215.9821, 5116.133
216.4642, 4953.167
216.9463, 4727.605
217.4284, 4480.014
217.9105, 4219.528
218.3927, 3938.566
218.8748, 3677.550
219.3569, 3435.282
219.8390, 3213.991
220.3211, 3013.161
220.8032, 2831.332
221.2854, 2671.509
221.7675, 2532.952
222.2496, 2420.394
222.7317, 2318.548
223.2138, 2227.577
223.6959, 2147.398
224.1781, 2076.050
224.6602, 2015.767
225.1423, 1961.224
225.6244, 1911.838
226.1065, 1867.604
226.5886, 1826.342
227.0708, 1787.640
227.5529, 1751.760
228.0350, 1719.156
228.5171, 1690.204
228.9992, 1663.297
229.4813, 1637.652
229.9635, 1612.834
230.4456, 1590.838
230.9277, 1572.042
231.4098, 1556.095
231.8919, 1542.243
232.3740, 1531.232
232.8562, 1521.286
233.3383, 1511.634
233.8204, 1501.735
234.3025, 1493.938
234.7846, 1488.666
235.2667, 1485.253
235.7489, 1482.264
236.2310, 1477.814
236.7131, 1476.888
237.1952, 1482.129
237.6773, 1495.913
238.1594, 1506.879
238.6416, 1514.219
239.1237, 1519.262
239.6058, 1523.895
240.0879, 1527.311
240.5700, 1531.700
241.0521, 1537.588
241.5343, 1544.729
242.0164, 1554.173
242.4985, 1566.154
242.9806, 1580.249
243.4627, 1595.834
243.9448, 1612.688
244.4270, 1631.436
244.9091, 1653.266
245.3912, 1679.661
245.8733, 1701.267
246.3554, 1717.240
246.8375, 1729.229
247.3197, 1739.356
247.8018, 1747.818
248.2839, 1754.028
248.7660, 1757.650
249.2481, 1758.514
249.7302, 1758.225
250.2124, 1756.597
250.6945, 1754.051
251.1766, 1750.742
251.6587, 1745.466
252.1408, 1741.867
252.6229, 1740.966
253.1051, 1742.929
253.5872, 1745.361
254.0693, 1747.473
254.5514, 1750.960
255.0335, 1757.336
255.5156, 1765.925
255.9978, 1778.853
256.4799, 1797.820
256.9620, 1822.835
257.4441, 1845.090
257.9262, 1862.461
258.4083, 1879.748
258.8904, 1901.077
259.3726, 1927.782
259.8547, 1955.740
260.3368, 1984.914
260.8189, 2015.180
261.3010, 2042.227
261.7831, 2065.558
262.2653, 2086.420
262.7474, 2104.457
263.2295, 2117.429
263.7116, 2134.626
264.1937, 2158.078
264.6758, 2186.828
265.1580, 2216.138
265.6401, 2243.723
266.1222, 2275.874
266.6043, 2316.970
267.0864, 2368.614
267.5685, 2425.136
268.0507, 2487.995
268.5328, 2555.291
269.0149, 2620.306
269.4970, 2682.905
269.9791, 2745.310
270.4612, 2812.889
270.9434, 2889.050
271.4255, 2952.813
271.9076, 3004.724
272.3897, 3042.755
272.8718, 3061.512
273.3539, 3059.319
273.8361, 3043.231
274.3182, 3016.012
274.8003, 2977.512
275.2824, 2929.161
275.7645, 2868.927
276.2466, 2801.645
276.7288, 2734.981
277.2109, 2668.167
277.6930, 2606.441
278.1751, 2552.847
278.6572, 2507.095
279.1393, 2470.127
279.6215, 2442.799
280.1036, 2422.667
280.5857, 2406.339
281.0678, 2393.862
281.5499, 2385.439
282.0320, 2383.370
282.5142, 2386.921
282.9963, 2386.391
283.4784, 2381.943
283.9605, 2372.995
284.4426, 2358.725
284.9247, 2339.122
285.4069, 2315.059
285.8890, 2287.450
286.3711, 2255.796
286.8532, 2215.038
287.3353, 2164.247
287.8174, 2109.209
288.2996, 2056.140
288.7817, 2004.642
289.2638, 1952.597
289.7459, 1898.302
290.2280, 1843.763
290.7101, 1791.970
291.1923, 1742.581
291.6744, 1698.673
292.1565, 1664.556
292.6386, 1638.548
293.1207, 1611.788
293.6028, 1580.936
294.0850, 1550.044
294.5671, 1525.935
295.0492, 1508.363
295.5313, 1493.411
296.0134, 1479.543
296.4955, 1466.254
296.9777, 1451.668
297.4598, 1434.739
297.9419, 1418.399
298.4240, 1408.629
298.9061, 1404.274
299.3882, 1399.021
299.8704, 1386.798
300.3525, 1371.521
300.8346, 1361.026
301.3167, 1356.933
301.7988, 1354.620
302.2809, 1348.773
302.7631, 1340.550
303.2452, 1333.176
303.7273, 1329.293
304.2094, 1326.890
304.6915, 1323.373
305.1736, 1318.526
305.6558, 1313.142
306.1379, 1307.639
306.6200, 1302.087
307.1021, 1296.650
307.5842, 1289.598
308.0663, 1283.717
308.5485, 1282.403
309.0306, 1285.535
309.5127, 1289.038
309.9948, 1291.275
310.4769, 1291.866
310.9590, 1290.207
311.4412, 1283.330
311.9233, 1276.799
312.4054, 1275.647
312.8875, 1278.807
313.3696, 1280.787
313.8517, 1278.164
314.3339, 1273.229
314.8160, 1267.688
315.2981, 1260.916
315.7802, 1255.377
316.2623, 1252.263
316.7444, 1251.361
317.2266, 1252.047
317.7087, 1256.230
318.1908, 1260.484
318.6729, 1262.662
319.1550, 1262.003
319.6371, 1260.422
320.1193, 1258.338
320.6014, 1255.777
321.0835, 1252.750
321.5656, 1247.752
322.0477, 1243.564
322.5298, 1241.893
323.0120, 1243.581
323.4941, 1243.802
323.9762, 1239.534
324.4583, 1234.048
324.9404, 1230.885
325.4225, 1233.720
325.9047, 1235.811
326.3868, 1234.936
326.8689, 1230.964
327.3510, 1228.194
327.8331, 1227.910
328.3152, 1228.374
328.7974, 1228.393
329.2795, 1228.093
329.7616, 1227.164
330.2437, 1224.729
330.7258, 1221.334
331.2079, 1220.049
331.6901, 1222.587
332.1722, 1225.514
332.6543, 1227.131
333.1364, 1226.428
333.6185, 1226.179
334.1006, 1226.473
334.5828, 1227.184
335.0649, 1228.207
335.5470, 1230.336
336.0291, 1231.356
336.5112, 1230.138
336.9933, 1226.103
337.4755, 1222.829
337.9576, 1220.560
338.4397, 1218.833
338.9218, 1216.759
339.4039, 1213.915
339.8860, 1212.325
340.3681, 1212.560
340.8503, 1214.590
341.3324, 1218.822
341.8145, 1226.652
342.2966, 1232.885
342.7787, 1230.944
343.2608, 1220.287
343.7430, 1213.605
344.2251, 1214.643
344.7072, 1220.401
345.1893, 1221.815
345.6714, 1218.582
346.1535, 1214.915
346.6357, 1213.579
347.1178, 1214.359
347.5999, 1216.360
348.0820, 1220.022
348.5641, 1223.588
349.0462, 1223.442
349.5284, 1220.129
350.0105, 1217.788
350.4926, 1220.054
350.9747, 1224.647
351.4568, 1226.190
351.9389, 1224.254
352.4211, 1221.336
352.9032, 1220.501
353.3853, 1220.719
353.8674, 1219.441
354.3495, 1213.168
354.8316, 1206.462
355.3138, 1205.758
355.7959, 1210.518
356.2780, 1214.993
356.7601, 1214.271
357.2422, 1211.250
357.7243, 1209.626
358.2065, 1210.660
358.6886, 1212.958
359.1707, 1217.546
359.6528, 1223.008
360.1349, 1225.075
360.6170, 1216.756
361.0992, 1207.429
361.5813, 1204.301
362.0634, 1210.151
362.5455, 1216.544
363.0276, 1220.429
363.5097, 1222.662
363.9919, 1224.520
364.4740, 1226.839
364.9561, 1228.419
365.4382, 1228.477
365.9203, 1226.833
366.4024, 1225.514
366.8846, 1224.879
367.3667, 1224.740
367.8488, 1224.944
368.3309, 1226.901
368.8130, 1227.613
369.2951, 1225.944
369.7773, 1222.336
370.2594, 1219.869
370.7415, 1218.828
371.2236, 1218.672
371.7057, 1219.166
372.1878, 1220.313
372.6700, 1222.338
373.1521, 1226.831
373.6342, 1231.507
374.1163, 1231.251
374.5984, 1222.750
375.0805, 1215.806
375.5627, 1213.959
376.0448, 1217.694
376.5269, 1220.798
377.0090, 1223.764
377.4911, 1225.266
377.9732, 1222.578
378.4554, 1214.515
378.9375, 1210.345
379.4196, 1213.303
379.9017, 1221.021
380.3838, 1224.705
380.8659, 1223.944
381.3481, 1222.193
381.8302, 1222.172
382.3123, 1223.556
382.7944, 1223.720
383.2765, 1222.102
383.7586, 1219.947
384.2408, 1219.191
384.7229, 1219.667
385.2050, 1220.254
385.6871, 1220.005
386.1692, 1219.584
386.6513, 1220.343
387.1335, 1222.338
387.6156, 1224.869
388.0977, 1228.195
388.5798, 1231.472
389.0619, 1233.097
389.5440, 1231.401
390.0262, 1228.901
390.5083, 1227.297
390.9904, 1226.648
391.4725, 1227.365
391.9546, 1231.693
392.4367, 1236.348
392.9189, 1238.213
393.4010, 1235.621
393.8831, 1232.898
394.3652, 1232.061
394.8473, 1232.510
395.3294, 1233.269
395.8116, 1234.603
396.2937, 1235.681
396.7758, 1236.148
397.2579, 1235.953
397.7400, 1235.470
398.2221, 1234.186
398.7043, 1232.960
399.1864, 1232.492
399.6685, 1232.585
400.1506, 1233.756
400.6327, 1237.577
401.1148, 1242.974
401.5970, 1244.613
402.0791, 1238.866
402.5612, 1233.549
403.0433, 1232.542
403.5254, 1238.451
404.0075, 1241.227
404.4897, 1239.457
404.9718, 1235.829
405.4539, 1234.560
405.9360, 1236.387
406.4181, 1238.348
406.9002, 1239.721
407.3824, 1240.530
407.8645, 1240.996
408.3466, 1241.034
408.8287, 1241.022
409.3108, 1241.603
409.7929, 1242.686
410.2751, 1242.406
410.7572, 1239.879
411.2393, 1236.802
411.7214, 1236.948
412.2035, 1239.953
412.6856, 1242.565
413.1678, 1242.221
413.6499, 1240.268
414.1320, 1239.886
414.6141, 1241.358
415.0962, 1242.940
415.5783, 1242.255
416.0605, 1240.616
416.5426, 1240.581
417.0247, 1245.381
417.5068, 1250.079
417.9889, 1249.433
418.4710, 1244.514
418.9532, 1240.216
419.4353, 1238.776
419.9174, 1239.317
420.3995, 1241.422
420.8816, 1245.618
421.3637, 1249.750
421.8459, 1252.673
422.3280, 1255.025
422.8101, 1257.830
423.2922, 1262.098
423.7743, 1266.066
424.2564, 1269.916
424.7386, 1273.815
425.2207, 1274.379
425.7028, 1267.950
426.1849, 1260.308
426.6670, 1255.168
427.1491, 1253.307
427.6313, 1252.833
428.1134, 1254.198
428.5955, 1256.831
429.0776, 1259.411
429.5597, 1262.807
430.0418, 1264.475
430.5240, 1262.751
431.0061, 1257.234
431.4882, 1254.215
431.9703, 1254.448
432.4524, 1255.545
432.9345, 1254.132
433.4167, 1250.079
433.8988, 1248.387
434.3809, 1251.067
434.8630, 1256.104
435.3451, 1258.694
435.8272, 1258.879
436.3094, 1258.032
436.7915, 1256.498
437.2736, 1254.655
437.7557, 1253.458
438.2378, 1253.008
438.7199, 1253.051
439.2020, 1253.571
439.6841, 1254.390
440.1663, 1255.142
440.6484, 1255.350
441.1305, 1255.673
441.6126, 1256.999
442.0947, 1259.113
442.5768, 1260.667
443.0590, 1260.528
443.5411, 1259.789
444.0232, 1259.159
444.5053, 1258.398
444.9874, 1258.570
445.4695, 1261.099
445.9517, 1264.559
446.4338, 1266.679
446.9159, 1265.678
447.3980, 1264.634
447.8801, 1264.384
448.3622, 1264.991
448.8444, 1265.742
449.3265, 1267.531
449.8086, 1268.689
450.2907, 1267.939
450.7728, 1263.879
451.2549, 1261.066
451.7371, 1259.896
452.2192, 1260.043
452.7013, 1261.201
453.1834, 1263.886
453.6655, 1265.633
454.1476, 1264.972
454.6298, 1262.211
455.1119, 1261.069
455.5940, 1261.832
456.0761, 1262.710
456.5582, 1260.920
457.0403, 1257.282
457.5225, 1256.854
458.0046, 1261.850
458.4867, 1268.208
458.9688, 1269.367
459.4509, 1266.348
459.9330, 1263.349
460.4152, 1262.549
460.8973, 1263.097
461.3794, 1264.300
461.8615, 1266.147
462.3436, 1267.689
462.8257, 1268.829
463.3079, 1269.140
463.7900, 1268.041
464.2721, 1262.959
464.7542, 1259.369
465.2363, 1259.880
465.7184, 1263.615
466.2006, 1268.070
466.6827, 1276.347
467.1648, 1281.991
467.6469, 1280.942
468.1290, 1270.043
468.6111, 1264.261
469.0933, 1267.381
469.5754, 1273.344
470.0575, 1277.099
470.5396, 1278.886
471.0217, 1277.647
471.5038, 1271.319
471.9860, 1262.335
472.4681, 1259.418
472.9502, 1263.988
473.4323, 1269.886
473.9144, 1274.893
474.3965, 1278.979
474.8787, 1279.885
475.3608, 1277.121
475.8429, 1273.445
476.3250, 1272.190
476.8071, 1272.842
477.2892, 1272.487
477.7714, 1269.246
478.2535, 1266.324
478.7356, 1270.347
479.2177, 1279.565
479.6998, 1286.330
480.1819, 1283.586
480.6641, 1277.690
481.1462, 1275.629
481.6283, 1278.190
482.1104, 1280.643
482.5925, 1279.579
483.0746, 1277.305
483.5568, 1276.197
484.0389, 1278.873
484.5210, 1280.721
485.0031, 1280.107
485.4852, 1277.639
485.9673, 1275.196
486.4495, 1271.934
486.9316, 1269.805
487.4137, 1269.446
487.8958, 1271.006
488.3779, 1273.715
488.8600, 1278.701
489.3422, 1283.637
489.8243, 1286.349
490.3064, 1286.193
490.7885, 1285.959
491.2706, 1286.214
491.7527, 1286.402
492.2349, 1284.200
492.7170, 1279.234
493.1991, 1276.439
493.6812, 1280.000
494.1633, 1287.974
494.6454, 1292.042
495.1276, 1292.022
495.6097, 1291.293
496.0918, 1294.302
496.5739, 1298.755
497.0560, 1299.067
497.5381, 1292.006
498.0203, 1284.887
498.5024, 1285.368
498.9845, 1290.740
499.4666, 1295.008
499.9487, 1293.817
500.4308, 1291.995
500.9130, 1293.489
501.3951, 1298.387
501.8772, 1299.944
502.3593, 1291.278
502.8414, 1281.730
503.3235, 1277.474
503.8057, 1284.703
504.2878, 1289.314
504.7699, 1289.400
505.2520, 1287.208
505.7341, 1286.695
506.2162, 1289.531
506.6984, 1290.446
507.1805, 1286.464
507.6626, 1278.667
508.1447, 1278.911
508.6268, 1289.419
509.1089, 1299.653
509.5911, 1301.049
510.0732, 1294.486
510.5553, 1289.785
511.0374, 1287.755
511.5195, 1287.546
512.0016, 1289.062
512.4838, 1291.689
512.9659, 1293.289
513.4480, 1292.486
513.9301, 1290.958
514.4122, 1290.383
514.8943, 1290.700
515.3765, 1291.636
515.8586, 1293.185
516.3407, 1295.199
516.8228, 1297.791
517.3049, 1301.204
517.7870, 1303.935
518.2692, 1306.209
518.7513, 1307.176
519.2334, 1306.005
519.7155, 1299.230
520.1976, 1294.334
520.6797, 1292.815
521.1619, 1293.660
521.6440, 1294.039
522.1261, 1293.651
522.6082, 1293.365
523.0903, 1293.709
523.5724, 1294.721
524.0546, 1294.401
524.5367, 1292.362
525.0188, 1290.238
525.5009, 1289.333
525.9830, 1289.620
526.4651, 1290.773
526.9473, 1292.825
527.4294, 1295.502
527.9115, 1299.455
528.3936, 1303.879
528.8757, 1306.171
529.3578, 1303.627
529.8400, 1299.291
530.3221, 1295.196
530.8042, 1291.675
531.2863, 1290.617
531.7684, 1295.496
532.2505, 1301.688
532.7327, 1305.603
533.2148, 1306.101
533.6969, 1306.320
534.1790, 1307.386
534.6611, 1308.473
535.1432, 1308.630
535.6254, 1306.341
536.1075, 1305.020
536.5896, 1305.528
537.0717, 1307.264
537.5538, 1308.079
538.0359, 1307.761
538.5181, 1307.074
539.0002, 1306.199
539.4823, 1305.158
539.9644, 1304.469
540.4465, 1304.123
540.9286, 1304.200
541.4108, 1305.043
541.8929, 1306.441
542.3750, 1307.304
542.8571, 1307.193
543.3392, 1307.208
543.8214, 1309.451
544.3035, 1312.876
544.7856, 1315.017
545.2677, 1313.809
545.7498, 1311.673
546.2319, 1309.627
546.7141, 1307.919
547.1962, 1307.842
547.6783, 1312.183
548.1604, 1316.562
548.6425, 1318.608
549.1246, 1317.659
549.6068, 1315.483
550.0889, 1310.214
550.5710, 1305.020
551.0531, 1302.912
551.5352, 1305.205
552.0173, 1307.908
552.4995, 1310.938
552.9816, 1313.858
553.4637, 1315.169
553.9458, 1314.565
554.4279, 1314.565
554.9100, 1316.701
555.3922, 1320.277
555.8743, 1322.663
556.3564, 1323.846
556.8385, 1324.025
557.3206, 1323.191
557.8027, 1321.496
558.2849, 1318.666
558.7670, 1314.177
559.2491, 1310.906
559.7312, 1312.049
560.2133, 1315.504
560.6954, 1318.425
561.1776, 1320.142
561.6597, 1320.802
562.1418, 1319.555
562.6239, 1317.084
563.1060, 1315.887
563.5881, 1318.176
564.0703, 1319.867
564.5524, 1319.345
565.0345, 1316.339
565.5166, 1314.706
565.9987, 1314.515
566.4808, 1315.597
566.9630, 1318.615
567.4451, 1323.880
567.9272, 1326.390
568.4093, 1325.287
568.8914, 1322.682
569.3735, 1321.328
569.8557, 1321.073
570.3378, 1321.136
570.8199, 1321.441
571.3020, 1321.733
571.7841, 1321.576
572.2662, 1321.087
572.7484, 1320.715
573.2305, 1319.688
573.7126, 1319.605
574.1947, 1322.808
574.6768, 1329.718
575.1589, 1333.689
575.6411, 1328.836
576.1232, 1322.635
576.6053, 1320.537
577.0874, 1327.706
577.5695, 1330.978
578.0516, 1327.930
578.5338, 1322.535
579.0159, 1320.846
579.4980, 1324.142
579.9801, 1326.774
580.4622, 1327.646
580.9443, 1326.917
581.4265, 1323.896
581.9086, 1318.600
582.3907, 1315.433
582.8728, 1319.317
583.3549, 1326.519
583.8370, 1328.417
584.3192, 1324.965
584.8013, 1321.428
585.2834, 1321.200
585.7655, 1323.248
586.2476, 1327.118
586.7297, 1334.301
587.2118, 1338.718
587.6939, 1335.956
588.1760, 1329.635
588.6581, 1324.371
589.1403, 1318.596
589.6224, 1316.893
590.1045, 1322.201
590.5866, 1331.962
591.0687, 1337.604
591.5508, 1337.924
592.0330, 1336.628
592.5151, 1334.331
592.9972, 1331.305
593.4793, 1331.381
593.9614, 1334.977
594.4435, 1338.574
594.9257, 1338.950
595.4078, 1337.079
595.8899, 1336.031
596.3720, 1336.297
596.8541, 1336.483
597.3362, 1334.424
597.8184, 1331.667
598.3005, 1330.576
598.7826, 1332.611
599.2647, 1335.574
599.7468, 1338.888
600.2289, 1342.377
600.7111, 1345.660
601.1932, 1350.004
601.6753, 1352.598
602.1574, 1351.799
602.6395, 1347.929
603.1216, 1345.726
603.6038, 1345.471
604.0859, 1346.263
604.5680, 1347.799
605.0501, 1350.121
605.5322, 1352.718
606.0143, 1355.880
606.4965, 1358.057
606.9786, 1356.713
607.4607, 1352.981
607.9428, 1350.722
608.4249, 1351.050
608.9070, 1351.971
609.3892, 1351.234
609.8713, 1349.658
610.3534, 1348.746
610.8355, 1350.188
611.3176, 1351.424
611.7997, 1351.006
612.2819, 1349.351
612.7640, 1348.037
613.2461, 1348.041
613.7282, 1347.771
614.2103, 1346.387
614.6924, 1343.796
615.1746, 1342.355
615.6567, 1342.059
616.1388, 1342.921
616.6209, 1345.579
617.1030, 1350.123
617.5851, 1352.805
618.0673, 1353.232
618.5494, 1352.809
619.0315, 1353.060
619.5136, 1353.811
619.9957, 1354.736
620.4778, 1356.300
620.9600, 1356.894
621.4421, 1352.936
621.9242, 1347.025
622.4063, 1344.498
622.8884, 1351.368
623.3705, 1358.069
623.8527, 1360.088
624.3348, 1358.069
624.8169, 1357.393
625.2990, 1359.937
625.7811, 1362.475
626.2632, 1363.881
626.7454, 1364.097
627.2275, 1363.741
627.7096, 1362.260
628.1917, 1361.664
628.6738, 1364.867
629.1559, 1371.293
629.6381, 1373.572
630.1202, 1370.547
630.6023, 1366.118
631.0844, 1364.442
631.5665, 1364.656
632.0486, 1364.812
632.5308, 1363.657
633.0129, 1363.505
633.4950, 1367.752
633.9771, 1373.932
634.4592, 1377.393
634.9413, 1374.865
635.4235, 1371.266
635.9056, 1367.175
636.3877, 1362.931
636.8698, 1360.528
637.3519, 1359.881
637.8340, 1361.292
638.3162, 1365.838
638.7983, 1373.422
639.2804, 1377.018
639.7625, 1376.090
640.2446, 1374.328
640.7267, 1374.962
641.2089, 1377.241
641.6910, 1378.781
642.1731, 1379.375
642.6552, 1379.105
643.1373, 1377.058
643.6194, 1374.550
644.1016, 1373.389
644.5837, 1374.463
645.0658, 1376.339
645.5479, 1379.160
646.0300, 1382.253
646.5121, 1384.440
646.9943, 1385.373
647.4764, 1385.629
647.9585, 1385.233
648.4406, 1384.223
648.9227, 1382.299
649.4048, 1378.750
649.8870, 1376.824
650.3691, 1378.287
650.8512, 1382.321
651.3333, 1385.807
651.8154, 1388.709
652.2975, 1390.859
652.7797, 1391.727
653.2618, 1391.941
653.7439, 1392.777
654.2260, 1394.382
654.7081, 1394.920
655.1902, 1391.774
655.6724, 1387.965
656.1545, 1386.113
656.6366, 1387.623
657.1187, 1389.344
657.6008, 1390.509
658.0829, 1391.884
658.5651, 1394.528
659.0472, 1399.390
659.5293, 1402.995
660.0114, 1404.968
660.4935, 1405.381
660.9756, 1403.570
661.4578, 1399.708
661.9399, 1396.980
662.4220, 1396.474
662.9041, 1397.808
663.3862, 1401.775
663.8683, 1407.460
664.3505, 1411.338
664.8326, 1409.304
665.3147, 1406.490
665.7968, 1407.131
666.2789, 1411.160
666.7610, 1413.079
667.2432, 1407.471
667.7253, 1403.046
668.2074, 1404.786
668.6895, 1414.776
669.1716, 1420.268
669.6537, 1419.608
670.1359, 1417.711
670.6180, 1419.543
671.1001, 1424.867
671.5822, 1426.715
672.0643, 1423.971
672.5464, 1419.951
673.0286, 1417.825
673.5107, 1417.472
673.9928, 1418.916
674.4749, 1423.193
674.9570, 1427.212
675.4391, 1427.611
675.9213, 1426.567
676.4034, 1427.682
676.8855, 1435.152
677.3676, 1441.227
677.8497, 1443.478
678.3318, 1443.114
678.8140, 1443.543
679.2961, 1445.175
679.7782, 1446.469
680.2603, 1445.912
680.7424, 1444.764
681.2245, 1449.673
681.7067, 1460.720
682.1888, 1472.358
682.6709, 1480.535
683.1530, 1487.301
683.6351, 1495.553
684.1172, 1505.381
684.5994, 1518.355
685.0815, 1531.519
685.5636, 1550.703
686.0457, 1579.697
686.5278, 1617.913
687.0099, 1669.691
687.4921, 1744.593
687.9742, 1827.045
688.4563, 1907.183
688.9384, 1985.843
689.4205, 2056.720
689.9026, 2114.297
690.3848, 2175.683
690.8669, 2264.171
691.3490, 2378.696
691.8311, 2506.616
692.3132, 2647.854
692.7953, 2790.637
693.2775, 2918.599
693.7596, 3038.521
694.2417, 3165.254
694.7238, 3292.784
695.2059, 3440.155
695.6880, 3622.133
696.1702, 3830.845
696.6523, 4050.515
697.1344, 4269.929
697.6165, 4510.282
698.0986, 4764.037
698.5807, 5040.778
699.0629, 5384.050
699.5450, 5791.928
700.0271, 6301.315
700.5092, 7001.526
700.9913, 7813.295
701.4734, 8571.460
701.9556, 9255.033
702.4377, 9571.049
702.9198, 9058.748
703.4019, 8222.157
703.8840, 7502.016
704.3661, 6930.630
704.8483, 6630.285
705.3304, 6939.679
705.8125, 7326.710
706.2946, 7459.631
706.7767, 7363.209
707.2589, 6876.937
707.7410, 5819.002
708.2231, 4638.440
708.7052, 3709.673
709.1873, 3034.608
709.6694, 2538.340
710.1516, 2227.582
710.6337, 2034.689
711.1158, 1905.672
711.5979, 1825.794
712.0800, 1768.123
712.5621, 1730.506
713.0443, 1700.459
713.5264, 1669.252
714.0085, 1640.568
714.4906, 1619.303
714.9727, 1609.956
715.4548, 1604.867
715.9370, 1605.599
716.4191, 1608.721
716.9012, 1606.860
717.3833, 1599.587
717.8654, 1588.856
718.3475, 1574.456
718.8297, 1557.519
719.3118, 1539.786
719.7939, 1521.690
720.2760, 1505.632
720.7581, 1492.426
721.2402, 1482.374
721.7224, 1476.755
722.2045, 1474.995
722.6866, 1474.521
723.1687, 1476.740
723.6508, 1477.679
724.1329, 1474.113
724.6151, 1465.963
725.0972, 1462.021
725.5793, 1464.627
726.0614, 1467.559
726.5435, 1467.693
727.0256, 1465.139
727.5078, 1462.088
727.9899, 1458.414
728.4720, 1455.626
728.9541, 1456.114
729.4362, 1457.927
729.9183, 1456.948
730.4005, 1452.673
730.8826, 1449.285
731.3647, 1449.886
731.8468, 1452.112
732.3289, 1454.271
732.8110, 1456.616
733.2932, 1457.434
733.7753, 1455.727
734.2574, 1453.376
734.7395, 1451.824
735.2216, 1451.033
735.7037, 1451.332
736.1859, 1452.908
736.6680, 1455.115
737.1501, 1458.268
737.6322, 1461.486
738.1143, 1461.497
738.5964, 1456.735
739.0786, 1451.352
739.5607, 1448.099
740.0428, 1446.585
740.5249, 1446.297
741.0070, 1447.727
741.4891, 1449.564
741.9713, 1452.076
742.4534, 1454.638
742.9355, 1456.439
743.4176, 1457.652
743.8997, 1457.246
744.3818, 1454.365
744.8640, 1450.648
745.3461, 1449.527
745.8282, 1450.734
746.3103, 1452.678
746.7924, 1455.479
747.2745, 1457.827
747.7567, 1457.821
748.2388, 1456.266
748.7209, 1455.176
749.2030, 1456.943
749.6851, 1457.592
750.1672, 1454.137
750.6494, 1448.211
751.1315, 1446.180
751.6136, 1449.555
752.0957, 1453.656
752.5778, 1457.920
753.0599, 1461.486
753.5421, 1459.857
754.0242, 1453.398
754.5063, 1447.835
754.9884, 1446.152
755.4705, 1447.396
755.9526, 1451.900
756.4348, 1458.863
756.9169, 1464.053
757.3990, 1464.661
757.8811, 1463.755
758.3632, 1462.071
758.8453, 1459.695
759.3275, 1459.437
759.8096, 1462.610
760.2917, 1465.504
760.7738, 1466.165
761.2559, 1464.839
761.7380, 1464.147
762.2202, 1464.104
762.7023, 1464.354
763.1844, 1464.404
763.6665, 1464.708
764.1486, 1466.495
764.6307, 1469.740
765.1129, 1471.810
765.5950, 1470.689
766.0771, 1468.492
766.5592, 1466.401
767.0413, 1464.445
767.5234, 1462.789
768.0056, 1460.981
768.4877, 1460.183
768.9698, 1461.872
769.4519, 1465.985
769.9340, 1467.801
770.4161, 1467.117
770.8983, 1465.531
771.3804, 1463.180
771.8625, 1461.363
772.3446, 1462.806
772.8267, 1468.204
773.3088, 1472.738
773.7910, 1473.162
774.2731, 1472.308
774.7552, 1472.343
775.2373, 1473.851
775.7194, 1475.131
776.2015, 1476.186
776.6837, 1476.977
777.1658, 1477.528
777.6479, 1477.825
778.1300, 1477.567
778.6121, 1476.688
779.0942, 1475.519
779.5764, 1473.799
780.0585, 1472.220
780.5406, 1472.079
781.0227, 1474.060
781.5048, 1475.625
781.9869, 1474.701
782.4691, 1473.355
782.9512, 1473.587
783.4332, 1476.731
783.9153, 1478.787
784.3975, 1479.490
784.8796, 1479.447
785.3617, 1478.749
785.8438, 1477.561
786.3259, 1478.591
786.8080, 1482.673
787.2902, 1486.255
787.7723, 1484.625
788.2544, 1480.489
788.7365, 1477.707
789.2186, 1477.350
789.7007, 1477.864
790.1829, 1479.193
790.6650, 1480.870
791.1471, 1482.461
791.6292, 1484.367
792.1113, 1485.076
792.5934, 1483.939
793.0756, 1482.764
793.5577, 1484.473
794.0398, 1488.448
794.5219, 1490.749
795.0040, 1490.520
795.4861, 1489.370
795.9683, 1487.352
796.4504, 1485.949
796.9325, 1487.438
797.4146, 1494.967
797.8967, 1500.390
798.3788, 1499.535
798.8610, 1496.935
799.3431, 1497.530
799.8252, 1502.950
800.3073, 1505.501
800.7894, 1503.865
801.2715, 1500.962
801.7537, 1500.758
802.2358, 1502.526
802.7179, 1503.989
803.2000, 1504.959
803.6821, 1504.376
804.1642, 1499.056
804.6464, 1492.726
805.1285, 1489.862
805.6106, 1493.139
806.0927, 1497.390
806.5748, 1504.386
807.0569, 1510.191
807.5391, 1509.414
808.0212, 1500.646
808.5033, 1497.102
808.9854, 1501.102
809.4675, 1507.160
809.9496, 1508.734
810.4318, 1507.199
810.9139, 1505.476
811.3960, 1504.243
811.8781, 1502.778
812.3602, 1498.725
812.8423, 1495.176
813.3245, 1495.629
813.8066, 1504.811
814.2887, 1510.510
814.7708, 1511.904
815.2529, 1510.862
815.7350, 1508.401
816.2172, 1504.703
816.6993, 1504.111
817.1814, 1507.632
817.6635, 1511.453
818.1456, 1510.830
818.6277, 1508.307
819.1099, 1507.415
819.5920, 1509.242
820.0741, 1511.752
820.5562, 1515.277
821.0383, 1518.545
821.5204, 1520.545
822.0026, 1521.073
822.4847, 1520.838
822.9668, 1519.723
823.4489, 1518.161
823.9310, 1516.157
824.4131, 1514.043
824.8953, 1512.748
825.3774, 1512.284
825.8595, 1513.702
826.3416, 1520.650
826.8237, 1528.149
827.3058, 1531.090
827.7880, 1526.881
828.2701, 1523.529
828.7522, 1521.806
829.2343, 1521.208
829.7164, 1521.781
830.1985, 1523.704
830.6807, 1524.370
831.1628, 1523.571
831.6449, 1523.029
832.1270, 1525.800
832.6091, 1529.327
833.0912, 1528.280
833.5734, 1521.873
834.0555, 1517.465
834.5376, 1520.317
835.0197, 1525.102
835.5018, 1528.502
835.9839, 1530.253
836.4661, 1531.404
836.9482, 1531.873
837.4303, 1531.872
837.9124, 1530.980
838.3945, 1529.627
838.8766, 1530.039
839.3588, 1532.218
839.8409, 1535.317
840.3230, 1539.312
840.8051, 1543.573
841.2872, 1548.193
841.7693, 1553.147
842.2515, 1555.526
842.7336, 1551.280
843.2157, 1548.400
843.6978, 1550.637
844.1799, 1557.418
844.6620, 1560.949
845.1442, 1561.016
845.6263, 1560.491
846.1084, 1560.808
846.5905, 1561.699
847.0726, 1562.757
847.5547, 1564.000
848.0369, 1565.584
848.5190, 1566.672
849.0011, 1569.008
849.4832, 1573.533
849.9653, 1580.106
850.4474, 1587.330
850.9296, 1594.160
851.4117, 1605.170
851.8938, 1623.208
852.3759, 1645.470
852.8580, 1668.832
853.3401, 1691.021
853.8223, 1700.779
854.3044, 1688.050
854.7865, 1665.688
855.2686, 1636.614
855.7507, 1604.937
856.2328, 1580.024
856.7150, 1565.437
857.1971, 1555.791
857.6792, 1551.397
858.1613, 1550.818
858.6434, 1552.278
859.1255, 1555.617
859.6077, 1556.273
860.0898, 1551.796
860.5719, 1546.919
861.0540, 1547.883
861.5361, 1552.071
862.0182, 1555.155
862.5004, 1555.382
862.9825, 1554.861
863.4646, 1553.545
863.9467, 1551.975
864.4288, 1550.596
864.9109, 1549.259
865.3931, 1548.909
865.8752, 1549.779
866.3573, 1551.170
866.8394, 1552.967
867.3215, 1554.546
867.8036, 1553.993
868.2858, 1550.308
868.7679, 1548.154
869.2500, 1552.813
869.7321, 1558.309
870.2142, 1558.631
870.6964, 1550.865
871.1785, 1548.153
871.6606, 1552.274
872.1427, 1557.173
872.6248, 1557.339
873.1069, 1553.991
873.5891, 1552.113
874.0712, 1551.892
874.5533, 1552.962
875.0354, 1556.432
875.5175, 1560.013
875.9996, 1561.866
876.4818, 1561.784
876.9639, 1561.266
877.4460, 1560.086
877.9281, 1559.028
878.4102, 1558.233
878.8923, 1557.813
879.3745, 1558.986
879.8566, 1561.639
880.3387, 1563.682
880.8208, 1563.539
881.3029, 1562.494
881.7850, 1562.413
882.2672, 1562.655
882.7493, 1561.017
883.2314, 1552.209
883.7135, 1547.311
884.1956, 1550.657
884.6777, 1558.810
885.1599, 1562.255
885.6420, 1560.694
886.1241, 1559.328
886.6062, 1559.422
887.0883, 1560.874
887.5704, 1565.025
888.0526, 1570.102
888.5347, 1572.667
889.0168, 1569.325
889.4989, 1566.598
889.9810, 1567.314
890.4631, 1569.121
890.9453, 1569.274
891.4274, 1567.200
891.9095, 1566.089
892.3916, 1566.418
892.8737, 1566.906
893.3558, 1565.135
893.8380, 1562.669
894.3201, 1563.336
894.8022, 1568.237
895.2843, 1572.214
895.7664, 1571.886
896.2485, 1570.232
896.7307, 1569.313
897.2128, 1569.189
897.6949, 1570.204
898.1770, 1573.016
898.6591, 1574.830
899.1412, 1572.627
899.6234, 1568.110
900.1055, 1565.941
900.5876, 1566.131
901.0697, 1568.155
901.5518, 1574.161
902.0339, 1579.619
902.5161, 1581.373
902.9982, 1579.715
903.4803, 1578.568
903.9624, 1578.068
904.4445, 1577.932
904.9266, 1578.270
905.4088, 1578.736
905.8909, 1577.754
906.3730, 1575.945
906.8551, 1576.066
907.3372, 1581.034
907.8193, 1585.743
908.3015, 1586.320
908.7836, 1584.462
909.2657, 1582.977
909.7478, 1581.906
910.2299, 1581.885
910.7120, 1583.504
911.1942, 1585.277
911.6763, 1584.806
912.1584, 1582.644
912.6405, 1581.818
913.1226, 1582.941
913.6047, 1584.312
914.0869, 1585.921
914.5690, 1586.314
915.0511, 1583.016
915.5332, 1573.398
916.0153, 1570.619
916.4974, 1578.937
916.9796, 1587.427
917.4617, 1588.759
917.9438, 1584.155
918.4259, 1582.655
918.9080, 1584.031
919.3901, 1585.494
919.8723, 1585.395
920.3544, 1584.479
920.8365, 1582.078
921.3186, 1578.962
921.8007, 1579.442
922.2828, 1588.180
922.7650, 1593.655
923.2471, 1592.227
923.7292, 1586.596
924.2113, 1582.721
924.6934, 1580.639
925.1755, 1580.582
925.6577, 1583.461
926.1398, 1586.658
926.6219, 1587.640
927.1040, 1587.609
927.5861, 1588.243
928.0682, 1591.990
928.5504, 1592.959
929.0325, 1589.718
929.5146, 1585.681
929.9967, 1584.664
930.4788, 1586.242
930.9609, 1587.029
931.4431, 1586.730
931.9252, 1586.227
932.4073, 1586.484
932.8894, 1586.672
933.3715, 1585.458
933.8536, 1582.532
934.3358, 1582.366
934.8179, 1587.011
935.3000, 1591.349
935.7821, 1593.041
936.2642, 1592.788
936.7463, 1593.383
937.2285, 1594.746
937.7106, 1596.240
938.1927, 1598.176
938.6748, 1599.509
939.1569, 1599.419
939.6390, 1598.140
940.1212, 1596.094
940.6033, 1591.696
941.0854, 1589.544
941.5675, 1590.756
942.0496, 1593.406
942.5317, 1594.976
943.0139, 1595.477
943.4960, 1594.546
943.9781, 1591.759
944.4602, 1589.796
944.9423, 1591.706
945.4244, 1594.735
945.9066, 1596.357
946.3887, 1595.740
946.8708, 1595.780
947.3529, 1596.800
947.8350, 1597.770
948.3171, 1597.822
948.7993, 1597.322
949.2814, 1597.605
949.7635, 1598.656
950.2456, 1600.307
950.7277, 1602.481
951.2098, 1605.189
951.6920, 1609.978
952.1741, 1615.368
952.6562, 1615.942
953.1383, 1609.172
953.6204, 1604.404
954.1025, 1603.776
954.5847, 1605.503
955.0668, 1607.384
955.5489, 1609.132
956.0310, 1610.029
956.5131, 1609.929
956.9952, 1608.797
957.4774, 1604.419
957.9595, 1600.532
958.4416, 1601.094
958.9237, 1608.044
959.4058, 1609.910
959.8879, 1605.465
960.3701, 1601.427
960.8522, 1604.237
961.3343, 1610.613
961.8164, 1613.958
962.2985, 1614.499
962.7806, 1614.707
963.2628, 1614.948
963.7449, 1615.921
964.2270, 1618.714
964.7091, 1622.295
965.1912, 1623.270
965.6733, 1621.343
966.1555, 1619.868
966.6376, 1620.004
967.1197, 1620.268
967.6018, 1617.314
968.0839, 1613.566
968.5660, 1613.394
969.0482, 1620.371
969.5303, 1625.401
970.0124, 1625.711
970.4945, 1624.581
970.9766, 1624.201
971.4587, 1624.587
971.9409, 1625.006
972.4230, 1625.421
972.9051, 1626.631
973.3872, 1631.527
973.8693, 1635.775
974.3514, 1632.988
974.8336, 1624.523
975.3157, 1620.743
975.7978, 1627.387
976.2799, 1632.791
976.7620, 1633.629
977.2441, 1632.220
977.7263, 1635.132
978.2084, 1641.193
978.6905, 1643.415
979.1726, 1638.240
979.6547, 1632.932
980.1368, 1632.820
980.6190, 1635.601
981.1010, 1639.037
981.5831, 1643.873
982.0652, 1646.312
982.5474, 1645.683
983.0295, 1644.517
983.5116, 1644.642
983.9937, 1645.803
984.4758, 1647.982
984.9579, 1650.836
985.4401, 1652.064
985.9222, 1646.402
986.4043, 1642.878
986.8864, 1648.776
987.3685, 1659.990
987.8506, 1664.312
988.3328, 1660.499
988.8149, 1657.802
989.2970, 1658.890
989.7791, 1660.746
990.2612, 1658.480
990.7433, 1654.432
991.2255, 1652.445
991.7076, 1653.863
992.1897, 1656.163
992.6718, 1659.536
993.1539, 1662.775
993.6360, 1665.301
994.1182, 1667.102
994.6003, 1666.901
995.0824, 1664.736
995.5645, 1663.747
996.0466, 1667.104
996.5287, 1671.519
997.0109, 1674.542
997.4930, 1676.216
997.9751, 1676.952
998.4572, 1675.900
998.9393, 1675.730
999.4214, 1676.981
999.9036, 1679.129
1000.386, 1682.164
1000.868, 1685.390
1001.350, 1686.160
1001.832, 1683.644
1002.314, 1680.595
1002.796, 1677.936
1003.278, 1676.072
1003.760, 1675.176
1004.243, 1675.122
1004.725, 1677.601
1005.207, 1683.121
1005.689, 1688.275
1006.171, 1690.918
1006.653, 1692.245
1007.135, 1694.952
1007.617, 1698.033
1008.100, 1698.896
1008.582, 1692.118
1009.064, 1689.029
1009.546, 1694.110
1010.028, 1701.554
1010.510, 1703.231
1010.992, 1699.469
1011.474, 1696.996
1011.956, 1696.532
1012.439, 1697.338
1012.921, 1699.044
1013.403, 1701.575
1013.885, 1705.824
1014.367, 1711.894
1014.849, 1714.166
1015.331, 1711.123
1015.813, 1707.677
1016.296, 1705.234
1016.778, 1704.052
1017.260, 1705.681
1017.742, 1709.091
1018.224, 1711.105
1018.706, 1708.296
1019.188, 1707.744
1019.670, 1715.191
1020.152, 1724.429
1020.635, 1729.057
1021.117, 1728.160
1021.599, 1728.062
1022.081, 1728.899
1022.563, 1729.996
1023.045, 1730.637
1023.527, 1731.369
1024.009, 1733.627
1024.492, 1736.913
1024.974, 1737.932
1025.456, 1733.655
1025.938, 1730.391
1026.420, 1729.111
1026.902, 1729.942
1027.384, 1734.614
1027.866, 1741.889
1028.349, 1746.299
1028.831, 1746.062
1029.313, 1745.155
1029.795, 1746.693
1030.277, 1748.168
1030.759, 1746.412
1031.241, 1740.693
1031.723, 1741.898
1032.205, 1751.237
1032.688, 1760.044
1033.170, 1763.386
1033.652, 1763.365
1034.134, 1761.146
1034.616, 1758.150
1035.098, 1757.866
1035.580, 1763.547
1036.062, 1769.251
1036.544, 1773.987
1037.027, 1778.569
1037.509, 1785.457
1037.991, 1793.636
1038.473, 1793.999
1038.955, 1785.704
1039.437, 1778.052
1039.919, 1777.782
1040.401, 1780.444
1040.884, 1783.769
1041.366, 1787.435
1041.848, 1790.678
1042.330, 1793.823
1042.812, 1794.780
1043.294, 1791.981
1043.776, 1788.806
1044.258, 1791.294
1044.740, 1796.583
1045.223, 1799.181
1045.705, 1795.465
1046.187, 1795.935
1046.669, 1806.513
1047.151, 1816.560
1047.633, 1817.422
1048.115, 1810.959
1048.597, 1813.054
1049.079, 1822.831
1049.562, 1832.877
1050.044, 1839.006
1050.526, 1843.876
1051.008, 1848.594
1051.490, 1853.215
1051.972, 1857.589
1052.454, 1861.321
1052.936, 1866.508
1053.419, 1873.697
1053.901, 1880.817
1054.383, 1884.392
1054.865, 1887.134
1055.347, 1892.530
1055.829, 1900.954
1056.311, 1912.464
1056.793, 1928.066
1057.276, 1945.309
1057.758, 1961.759
1058.240, 1980.920
1058.722, 2017.003
1059.204, 2065.056
1059.686, 2106.340
1060.168, 2140.262
1060.650, 2152.123
1061.132, 2122.047
1061.615, 2072.744
1062.097, 2022.057
1062.579, 1968.942
1063.061, 1932.061
1063.543, 1912.063
1064.025, 1904.365
1064.507, 1911.563
1064.989, 1925.575
1065.471, 1937.244
1065.954, 1947.552
1066.436, 1959.155
1066.918, 1971.509
1067.400, 1987.133
1067.882, 2005.924
1068.364, 2028.872
1068.846, 2055.626
1069.328, 2087.532
1069.811, 2126.268
1070.293, 2172.094
1070.775, 2231.154
1071.257, 2268.706
1071.739, 2360.906
1072.221, 2510.903
1072.703, 2744.596
1073.185, 3153.555
1073.667, 3731.049
1074.150, 4531.057
1074.632, 5626.837
1075.114, 6711.962
1075.596, 7512.583
1076.078, 8123.483
1076.560, 8589.026
1077.042, 8864.154
1077.524, 9296.624
1078.006, 9895.597
1078.489, 10612.50
1078.971, 11408.20
1079.453, 12309.34
1079.935, 13280.90
1080.417, 14391.45
1080.899, 15808.12
1081.381, 17214.20
1081.863, 19497.35
1082.345, 22627.58
1082.828, 26710.40
1083.310, 31502.79
1083.792, 37205.61
1084.274, 45741.62
1084.756, 56998.31
1085.238, 68508.01
1085.720, 85844.28
1086.202, 95769.26
1086.685, 86789.32
1087.167, 65570.27
1087.649, 46316.02
1088.131, 28731.98
1088.613, 16283.82
1089.095, 9919.479
1089.577, 6762.115
1090.059, 5044.174
1090.542, 4166.551
1091.024, 3589.901
1091.506, 3266.027
1091.988, 3010.419
1092.470, 2819.057
1092.952, 2665.789
1093.434, 2545.978
1093.916, 2452.134
1094.398, 2374.550
1094.880, 2310.339
1095.363, 2255.775
1095.845, 2210.713
1096.327, 2170.357
1096.809, 2133.464
1097.291, 2100.924
1097.773, 2074.119
1098.255, 2052.355
1098.737, 2031.556
1099.220, 2011.800
1099.702, 1992.992
1100.184, 1974.232
1100.666, 1957.456
1101.148, 1943.178
1101.630, 1931.682
1102.112, 1924.128
1102.594, 1921.433
1103.077, 1914.988
1103.559, 1904.128
1104.041, 1892.457
1104.523, 1882.229
1105.005, 1873.001
1105.487, 1863.367
1105.969, 1854.014
1106.451, 1849.033
1106.933, 1850.804
1107.416, 1849.934
1107.898, 1843.953
1108.380, 1837.027
1108.862, 1835.240
1109.344, 1835.892
1109.826, 1834.674
1110.308, 1830.941
1110.790, 1825.958
1111.272, 1816.859
1111.755, 1811.693
1112.237, 1814.989
1112.719, 1822.290
1113.201, 1821.412
1113.683, 1814.545
1114.165, 1809.189
1114.647, 1808.613
1115.129, 1806.377
1115.612, 1796.446
1116.094, 1786.674
1116.576, 1782.176
1117.058, 1782.746
1117.540, 1786.407
1118.022, 1792.745
1118.504, 1796.661
1118.986, 1793.466
1119.469, 1789.537
1119.951, 1789.119
1120.433, 1790.640
1120.915, 1792.144
1121.397, 1794.219
1121.879, 1792.670
1122.361, 1787.024
1122.843, 1781.656
1123.325, 1781.299
1123.807, 1781.929
1124.290, 1778.104
1124.772, 1771.501
1125.254, 1768.609
1125.736, 1771.637
1126.218, 1774.340
1126.700, 1776.283
1127.182, 1776.965
1127.664, 1774.552
1128.147, 1771.027
1128.629, 1769.751
1129.111, 1770.901
1129.593, 1772.941
1130.075, 1777.150
1130.557, 1779.596
1131.039, 1778.926
1131.521, 1776.536
1132.004, 1774.815
1132.486, 1773.600
1132.968, 1772.281
1133.450, 1770.648
1133.932, 1769.687
1134.414, 1769.833
1134.896, 1770.921
1135.378, 1773.547
1135.860, 1776.863
1136.343, 1776.671
1136.825, 1773.565
1137.307, 1770.985
1137.789, 1769.586
1138.271, 1770.128
1138.753, 1776.292
1139.235, 1781.985
1139.717, 1781.033
1140.199, 1773.283
1140.682, 1770.452
1141.164, 1772.482
1141.646, 1774.717
1142.128, 1774.167
1142.610, 1773.446
1143.092, 1775.460
1143.574, 1778.346
1144.056, 1779.222
1144.539, 1777.440
1145.021, 1775.832
1145.503, 1774.445
1145.985, 1773.349
1146.467, 1772.751
1146.949, 1772.402
1147.431, 1771.887
1147.913, 1771.400
1148.396, 1771.492
1148.878, 1771.995
1149.360, 1773.733
1149.842, 1777.173
1150.324, 1780.439
1150.806, 1781.514
1151.288, 1781.168
1151.770, 1779.925
1152.252, 1778.105
1152.734, 1777.591
1153.217, 1780.586
1153.699, 1781.565
1154.181, 1778.893
1154.663, 1775.108
1155.145, 1773.552
1155.627, 1773.720
1156.109, 1775.237
1156.591, 1778.073
1157.074, 1779.129
1157.556, 1773.989
1158.038, 1771.489
1158.520, 1775.467
1159.002, 1781.973
1159.484, 1780.984
1159.966, 1775.174
1160.448, 1773.197
1160.931, 1777.705
1161.413, 1781.820
1161.895, 1781.725
1162.377, 1781.293
1162.859, 1782.973
1163.341, 1785.439
1163.823, 1781.743
1164.305, 1773.569
1164.787, 1769.465
1165.270, 1774.258
1165.752, 1778.337
1166.234, 1773.648
1166.716, 1769.217
1167.198, 1772.623
1167.680, 1782.934
1168.162, 1786.648
1168.644, 1784.329
1169.126, 1780.744
1169.609, 1776.630
1170.091, 1774.081
1170.573, 1775.293
1171.055, 1778.115
1171.537, 1780.357
1172.019, 1782.094
1172.501, 1781.945
1172.983, 1779.948
1173.466, 1778.177
1173.948, 1778.233
1174.430, 1778.638
1174.912, 1777.843
1175.394, 1776.995
1175.876, 1778.024
1176.358, 1781.270
1176.840, 1784.969
1177.323, 1789.196
1177.805, 1790.549
1178.287, 1783.458
1178.769, 1775.140
1179.251, 1771.551
1179.733, 1771.655
1180.215, 1772.176
1180.697, 1773.267
1181.179, 1773.325
1181.661, 1772.028
1182.144, 1771.199
1182.626, 1772.464
1183.108, 1774.995
1183.590, 1778.870
1184.072, 1783.354
1184.554, 1785.362
1185.036, 1783.963
1185.518, 1783.725
1186.001, 1785.582
1186.483, 1787.367
1186.965, 1786.127
1187.447, 1783.992
1187.929, 1782.991
1188.411, 1783.342
1188.893, 1785.293
1189.375, 1790.182
1189.858, 1791.243
1190.340, 1785.892
1190.822, 1780.067
1191.304, 1781.462
1191.786, 1786.336
1192.268, 1791.215
1192.750, 1795.618
1193.232, 1795.109
1193.714, 1786.764
1194.197, 1783.426
1194.679, 1790.418
1195.161, 1800.080
1195.643, 1801.654
1196.125, 1799.155
1196.607, 1797.813
1197.089, 1798.513
1197.571, 1800.281
1198.053, 1804.135
1198.536, 1805.315
1199.018, 1800.755
1199.500, 1795.251
1199.982, 1798.090
1200.464, 1804.255
1200.946, 1805.660
1201.428, 1799.209
1201.910, 1794.377
1202.393, 1791.548
1202.875, 1790.417
1203.357, 1791.272
1203.839, 1793.186
1204.321, 1794.963
1204.803, 1796.573
1205.285, 1797.977
1205.767, 1799.144
1206.250, 1799.981
1206.732, 1800.283
1207.214, 1800.791
1207.696, 1802.018
1208.178, 1803.544
1208.660, 1804.423
1209.142, 1805.075
1209.624, 1806.317
1210.106, 1808.702
1210.589, 1811.348
1211.071, 1815.074
1211.553, 1816.497
1212.035, 1810.382
1212.517, 1802.996
1212.999, 1808.160
1213.481, 1819.612
1213.963, 1823.880
1214.445, 1809.581
1214.928, 1802.192
1215.410, 1803.113
1215.892, 1806.373
1216.374, 1807.941
1216.856, 1808.718
1217.338, 1809.964
1217.820, 1811.602
1218.302, 1813.424
1218.785, 1815.234
1219.267, 1817.799
1219.749, 1821.663
1220.231, 1824.339
1220.713, 1821.952
1221.195, 1818.424
1221.677, 1821.229
1222.159, 1827.686
1222.641, 1829.465
1223.124, 1821.984
1223.606, 1817.391
1224.088, 1816.492
1224.570, 1817.574
1225.052, 1820.330
1225.534, 1823.313
1226.016, 1824.404
1226.498, 1824.068
1226.980, 1824.168
1227.463, 1825.677
1227.945, 1824.885
1228.427, 1820.801
1228.909, 1817.868
1229.391, 1822.663
1229.873, 1829.026
1230.355, 1828.651
1230.837, 1823.419
1231.320, 1821.417
1231.802, 1824.093
1232.284, 1826.798
1232.766, 1829.392
1233.248, 1829.989
1233.730, 1823.320
1234.212, 1816.599
1234.694, 1818.675
1235.177, 1827.449
1235.659, 1833.362
1236.141, 1836.305
1236.623, 1834.356
1237.105, 1826.431
1237.587, 1820.372
1238.069, 1826.254
1238.551, 1834.712
1239.033, 1836.853
1239.516, 1834.207
1239.998, 1834.913
1240.480, 1839.627
1240.962, 1841.127
1241.444, 1838.013
1241.926, 1835.199
1242.408, 1837.691
1242.890, 1841.299
1243.372, 1843.118
1243.855, 1843.322
1244.337, 1842.692
1244.819, 1841.199
1245.301, 1840.276
1245.783, 1840.252
1246.265, 1839.691
1246.747, 1834.913
1247.229, 1831.863
1247.712, 1837.127
1248.194, 1846.312
1248.676, 1848.522
1249.158, 1844.354
1249.640, 1842.306
1250.122, 1843.782
1250.604, 1844.852
1251.086, 1841.493
1251.568, 1838.627
1252.051, 1839.877
1252.533, 1842.533
1253.015, 1838.802
1253.497, 1830.487
1253.979, 1828.416
1254.461, 1834.475
1254.943, 1840.568
1255.425, 1841.533
1255.907, 1842.464
1256.390, 1845.696
1256.872, 1846.578
1257.354, 1848.254
1257.836, 1850.373
1258.318, 1851.113
1258.800, 1853.698
1259.282, 1855.460
1259.764, 1854.632
1260.247, 1853.474
1260.729, 1851.831
1261.211, 1851.425
1261.693, 1857.931
1262.175, 1867.182
1262.657, 1869.003
1263.139, 1861.961
1263.621, 1856.489
1264.104, 1855.189
1264.586, 1855.455
1265.068, 1857.194
1265.550, 1858.947
1266.032, 1858.120
1266.514, 1856.063
1266.996, 1854.788
1267.478, 1854.532
1267.960, 1854.582
1268.443, 1854.061
1268.925, 1856.674
1269.407, 1864.223
1269.889, 1872.059
1270.371, 1874.375
1270.853, 1874.028
1271.335, 1874.120
1271.817, 1874.884
1272.299, 1875.125
1272.782, 1874.691
1273.264, 1874.891
1273.746, 1876.325
1274.228, 1876.799
1274.710, 1873.231
1275.192, 1868.571
1275.674, 1864.661
1276.156, 1861.919
1276.639, 1861.743
1277.121, 1864.141
1277.603, 1868.039
1278.085, 1873.506
1278.567, 1877.239
1279.049, 1876.327
1279.531, 1873.049
1280.013, 1866.748
1280.495, 1860.232
1280.978, 1862.509
1281.460, 1871.885
1281.942, 1877.177
1282.424, 1876.382
1282.906, 1875.630
1283.388, 1880.074
1283.870, 1882.563
1284.352, 1879.217
1284.834, 1882.692
1285.317, 1876.110
1285.799, 1882.500
1286.281, 1884.342
1286.763, 1880.544
1287.245, 1877.476
1287.727, 1877.014
1288.209, 1878.212
1288.691, 1881.578
1289.173, 1885.043
1289.656, 1884.694
1290.138, 1883.008
1290.620, 1884.897
1291.102, 1890.426
1291.584, 1892.653
1292.066, 1889.517
1292.548, 1887.927
1293.030, 1889.442
1293.513, 1891.449
1293.995, 1890.491
1294.477, 1888.970
1294.959, 1889.420
1295.441, 1891.767
1295.923, 1894.488
1296.405, 1897.950
1296.887, 1898.226
1297.370, 1894.534
1297.852, 1890.015
1298.334, 1884.978
1298.816, 1882.561
1299.298, 1886.983
1299.780, 1894.061
1300.262, 1897.263
1300.744, 1896.961
1301.226, 1897.779
1301.708, 1900.081
1302.191, 1900.569
1302.673, 1893.229
1303.155, 1887.976
1303.637, 1886.062
1304.119, 1886.638
##END=



