##NAMES=Aragonite
##RRUFFID=R040078
##IDEAL CHEMISTRY=CaCO_3_
##LOCALITY=Molina, Aragon, Spain
##OWNER=RRUFF
##SOURCE=University of Arizona Mineral Museum
##DESCRIPTION=Orange pseudohexagonal prisms
##STATUS=The identification of this mineral has been confirmed by X-ray diffraction and chemical analysis
##URL=rruff.info/R040078
##MEASURED CHEMISTRY=Ca_1.00_CO_3_
134.6465, 203.2178
135.1286, 208.6942
135.6108, 215.1337
136.0929, 222.2392
136.5750, 229.3518
137.0571, 234.5183
137.5392, 243.5130
138.0213, 255.5788
138.5035, 271.4829
138.9856, 290.0645
139.4677, 311.2054
139.9498, 339.1867
140.4319, 382.2498
140.9140, 463.8044
141.3962, 528.1556
141.8783, 576.4559
142.3604, 606.0050
142.8425, 609.8128
143.3246, 584.5256
143.8067, 541.1628
144.2889, 503.9268
144.7710, 472.9948
145.2531, 447.6670
145.7352, 424.4910
146.2173, 402.7058
146.6994, 387.4402
147.1816, 385.3800
147.6637, 392.4785
148.1458, 400.1449
148.6279, 409.8436
149.1100, 417.9791
149.5921, 422.8634
150.0743, 425.7567
150.5564, 429.4596
151.0385, 435.7074
151.5206, 442.6404
152.0027, 444.9019
152.4848, 440.4347
152.9670, 435.2230
153.4491, 431.5064
153.9312, 428.7125
154.4133, 425.2060
154.8954, 419.8848
155.3775, 413.4888
155.8597, 408.1499
156.3418, 401.7878
156.8239, 398.7037
157.3060, 402.0539
157.7881, 410.8138
158.2702, 420.8748
158.7524, 430.2645
159.2345, 439.5078
159.7166, 450.2809
160.1987, 467.2891
160.6808, 480.2158
161.1629, 482.0739
161.6451, 473.7783
162.1272, 460.6732
162.6093, 443.3805
163.0914, 423.9417
163.5735, 407.0655
164.0556, 394.4521
164.5378, 382.6579
165.0199, 367.7983
165.5020, 350.1239
165.9841, 335.9733
166.4662, 330.0565
166.9483, 329.3887
167.4305, 327.9247
167.9126, 324.5052
168.3947, 320.9048
168.8768, 317.4174
169.3589, 313.8779
169.8410, 314.7903
170.3232, 326.1498
170.8053, 342.3172
171.2874, 353.7954
171.7695, 355.9408
172.2516, 356.4948
172.7337, 363.8548
173.2159, 378.5337
173.6980, 394.7283
174.1801, 409.2009
174.6622, 423.6995
175.1443, 440.9354
175.6264, 462.9605
176.1086, 486.2814
176.5907, 506.1477
177.0728, 521.7632
177.5549, 539.1185
178.0370, 563.2220
178.5191, 590.2104
179.0013, 615.9027
179.4834, 640.5980
179.9655, 662.1089
180.4476, 675.8536
180.9297, 680.1044
181.4118, 685.7346
181.8940, 697.1744
182.3761, 713.4201
182.8582, 733.8719
183.3403, 757.2856
183.8224, 786.0376
184.3046, 823.1284
184.7867, 868.5494
185.2688, 921.7200
185.7509, 990.7749
186.2330, 1064.582
186.7151, 1131.726
187.1973, 1187.802
187.6794, 1237.754
188.1615, 1293.904
188.6436, 1361.666
189.1257, 1410.696
189.6078, 1420.798
190.0900, 1407.338
190.5721, 1382.526
191.0542, 1350.471
191.5363, 1307.551
192.0184, 1244.236
192.5005, 1155.598
192.9827, 1068.963
193.4648, 993.8398
193.9469, 926.6786
194.4290, 865.1959
194.9111, 809.0396
195.3932, 757.6476
195.8754, 709.5305
196.3575, 663.5363
196.8396, 625.0390
197.3217, 600.8298
197.8038, 583.2780
198.2859, 564.9469
198.7681, 542.0031
199.2502, 522.6342
199.7323, 518.5926
200.2144, 532.0229
200.6965, 549.4473
201.1786, 567.5741
201.6608, 586.9842
202.1429, 607.3001
202.6250, 627.7781
203.1071, 651.9082
203.5892, 683.9947
204.0713, 724.5059
204.5535, 770.3162
205.0356, 821.1061
205.5177, 876.6887
205.9998, 937.1859
206.4819, 1002.910
206.9640, 1073.512
207.4462, 1149.134
207.9283, 1229.938
208.4104, 1313.998
208.8925, 1400.769
209.3746, 1491.118
209.8567, 1585.867
210.3388, 1685.845
210.8210, 1786.756
211.3031, 1888.750
211.7852, 1992.779
212.2673, 2079.834
212.7494, 2151.674
213.2315, 2196.154
213.7137, 2201.749
214.1958, 2166.623
214.6779, 2105.782
215.1600, 2030.107
215.6421, 1939.904
216.1242, 1835.456
216.6064, 1707.156
217.0885, 1573.093
217.5706, 1445.446
218.0527, 1325.259
218.5348, 1212.293
219.0169, 1104.495
219.4991, 1002.506
219.9812, 913.9437
220.4633, 843.2107
220.9454, 783.8572
221.4275, 728.7977
221.9096, 677.9294
222.3918, 633.8082
222.8739, 599.8008
223.3560, 574.3824
223.8381, 549.2897
224.3202, 522.5078
224.8023, 497.0644
225.2845, 475.4241
225.7666, 457.1489
226.2487, 439.5094
226.7308, 419.9497
227.2129, 399.8314
227.6950, 383.6832
228.1772, 373.3228
228.6593, 364.6662
229.1414, 353.9865
229.6235, 341.9714
230.1056, 331.6193
230.5877, 325.2364
231.0699, 321.2527
231.5520, 316.1609
232.0341, 309.2705
232.5162, 302.6064
232.9983, 297.9778
233.4804, 294.7850
233.9626, 291.6620
234.4447, 288.2159
234.9268, 284.5948
235.4089, 280.9454
235.8910, 277.2449
236.3731, 273.6190
236.8553, 269.3001
237.3374, 265.1174
237.8195, 263.1564
238.3016, 266.6403
238.7837, 270.8848
239.2658, 270.4094
239.7480, 265.0630
240.2301, 259.1251
240.7122, 254.6338
241.1943, 251.5194
241.6764, 249.3029
242.1585, 247.7169
242.6407, 247.2353
243.1228, 249.8175
243.6049, 254.8520
244.0870, 256.6586
244.5691, 250.8864
245.0512, 240.6734
245.5334, 234.5282
246.0155, 233.1118
246.4976, 234.6273
246.9797, 240.8996
247.4618, 249.9112
247.9439, 254.2759
248.4261, 249.2046
248.9082, 239.8802
249.3903, 238.2842
249.8724, 247.4452
250.3545, 255.9499
250.8366, 259.8258
251.3188, 260.2256
251.8009, 258.7212
252.2830, 255.3627
252.7651, 251.8174
253.2472, 251.1284
253.7293, 253.6022
254.2115, 257.2392
254.6936, 262.8098
255.1757, 268.9345
255.6578, 274.1170
256.1399, 277.9916
256.6220, 280.4076
257.1042, 280.7054
257.5863, 277.5631
258.0684, 276.9945
258.5505, 279.0774
259.0326, 283.8622
259.5147, 291.2986
259.9969, 301.4370
260.4790, 314.7122
260.9611, 332.4829
261.4432, 355.8931
261.9253, 375.1037
262.4074, 387.6887
262.8896, 398.6014
263.3717, 407.8125
263.8538, 417.1376
264.3359, 432.1709
264.8180, 458.1441
265.3001, 495.0402
265.7823, 525.1974
266.2644, 539.6956
266.7465, 558.0971
267.2286, 588.5098
267.7107, 627.2831
268.1928, 667.8103
268.6750, 706.5975
269.1571, 743.1548
269.6392, 773.7894
270.1213, 795.2120
270.6034, 813.8431
271.0855, 832.0464
271.5677, 847.1329
272.0498, 855.5438
272.5319, 855.7343
273.0140, 849.6512
273.4961, 841.7486
273.9782, 833.1636
274.4604, 820.2614
274.9425, 798.7161
275.4246, 775.8950
275.9067, 757.8444
276.3888, 745.8456
276.8709, 736.8735
277.3531, 725.8996
277.8352, 710.4334
278.3173, 701.3013
278.7994, 703.3527
279.2815, 708.0335
279.7636, 711.4706
280.2458, 713.3716
280.7279, 715.4155
281.2100, 719.3998
281.6921, 725.4203
282.1742, 730.9319
282.6563, 738.0643
283.1385, 742.1052
283.6206, 744.9336
284.1027, 743.5557
284.5848, 730.8019
285.0669, 698.1091
285.5490, 651.3179
286.0312, 612.4416
286.5133, 584.2372
286.9954, 558.5521
287.4775, 531.7727
287.9596, 505.0260
288.4417, 479.6638
288.9239, 455.3572
289.4060, 433.9158
289.8881, 419.5453
290.3702, 413.3477
290.8523, 405.7626
291.3344, 392.2762
291.8166, 375.5774
292.2987, 358.4937
292.7808, 340.8519
293.2629, 324.3615
293.7450, 309.8097
294.2271, 297.4329
294.7093, 288.7344
295.1914, 285.6205
295.6735, 284.5346
296.1556, 280.3737
296.6377, 272.7877
297.1198, 265.8625
297.6020, 262.5660
298.0841, 260.6274
298.5662, 255.3457
299.0483, 245.2955
299.5304, 234.9998
300.0125, 229.3401
300.4947, 228.4209
300.9768, 228.3110
301.4589, 229.6075
301.9410, 230.9013
302.4231, 230.7983
302.9052, 229.3537
303.3874, 227.8857
303.8695, 227.6124
304.3516, 228.3597
304.8337, 226.9905
305.3158, 221.3802
305.7979, 216.2188
306.2801, 213.5330
306.7622, 212.6243
307.2443, 212.0553
307.7264, 211.1729
308.2085, 209.8467
308.6906, 207.6693
309.1728, 204.7925
309.6549, 200.7391
310.1370, 193.2341
310.6191, 185.5956
311.1012, 181.8638
311.5833, 182.9688
312.0655, 185.8287
312.5476, 185.5378
313.0297, 180.2487
313.5118, 176.1758
313.9939, 172.7450
314.4760, 170.7491
314.9582, 171.8742
315.4403, 175.3292
315.9224, 177.9679
316.4045, 176.5087
316.8866, 170.9241
317.3687, 167.2485
317.8509, 167.8188
318.3330, 167.6918
318.8151, 164.5999
319.2972, 159.7737
319.7793, 155.3970
320.2614, 152.6110
320.7436, 150.9935
321.2257, 149.1691
321.7078, 146.2720
322.1899, 145.7027
322.6720, 151.1360
323.1541, 158.3216
323.6363, 163.6455
324.1184, 166.4167
324.6005, 166.6922
325.0826, 162.6015
325.5647, 154.6153
326.0468, 150.8977
326.5290, 155.9798
327.0111, 163.1326
327.4932, 165.0696
327.9753, 161.8195
328.4574, 157.4436
328.9395, 152.3739
329.4217, 147.6816
329.9038, 145.2513
330.3859, 145.3731
330.8680, 147.4983
331.3501, 152.2707
331.8322, 159.3014
332.3144, 163.7583
332.7965, 163.5499
333.2786, 162.0979
333.7607, 161.3130
334.2428, 161.2706
334.7249, 161.8345
335.2070, 162.9599
335.6891, 164.5956
336.1713, 166.5540
336.6534, 169.4906
337.1355, 171.8957
337.6176, 174.0097
338.0997, 175.2435
338.5818, 174.2569
339.0640, 170.6996
339.5461, 166.5413
340.0282, 165.0863
340.5103, 168.0372
340.9924, 169.9427
341.4745, 170.7805
341.9567, 170.7685
342.4388, 169.8018
342.9209, 168.0450
343.4030, 165.9306
343.8851, 163.7757
344.3672, 161.5848
344.8494, 159.4552
345.3315, 156.2324
345.8136, 154.6423
346.2957, 156.7234
346.7778, 160.4985
347.2599, 162.8646
347.7421, 162.1333
348.2242, 160.1954
348.7063, 160.8810
349.1884, 164.9690
349.6705, 168.3167
350.1526, 169.0480
350.6348, 168.9620
351.1169, 169.6262
351.5990, 171.2760
352.0811, 172.6053
352.5632, 171.5422
353.0453, 169.1454
353.5275, 170.1972
354.0096, 176.8200
354.4917, 183.7927
354.9738, 185.0274
355.4559, 181.7994
355.9380, 179.5726
356.4202, 180.3283
356.9023, 182.1047
357.3844, 182.9223
357.8665, 182.8380
358.3486, 183.3125
358.8307, 185.6446
359.3129, 189.0484
359.7950, 189.8958
360.2771, 184.7959
360.7592, 181.5974
361.2413, 184.1442
361.7234, 189.2707
362.2056, 192.4326
362.6877, 192.1583
363.1698, 190.1879
363.6519, 189.3232
364.1340, 190.6001
364.6161, 190.3582
365.0983, 186.4056
365.5804, 182.9991
366.0625, 184.0735
366.5446, 188.3625
367.0267, 190.8093
367.5089, 186.7801
367.9910, 177.2393
368.4731, 171.8005
368.9552, 172.4839
369.4373, 174.7257
369.9194, 179.4654
370.4016, 184.0758
370.8837, 185.1191
371.3658, 181.0950
371.8479, 174.7560
372.3300, 169.2002
372.8121, 164.3457
373.2943, 161.6250
373.7764, 163.1666
374.2585, 165.2731
374.7406, 164.6028
375.2227, 161.2387
375.7048, 157.6243
376.1870, 154.8921
376.6691, 152.7519
377.1512, 150.4700
377.6333, 147.8754
378.1154, 146.1954
378.5975, 146.9347
379.0797, 149.5255
379.5618, 150.4042
380.0439, 147.9780
380.5260, 145.3908
381.0081, 144.1656
381.4902, 143.9496
381.9724, 144.1015
382.4545, 144.4491
382.9366, 144.4991
383.4187, 143.1968
383.9008, 138.7277
384.3829, 136.1777
384.8651, 138.1679
385.3472, 140.1031
385.8293, 137.6592
386.3114, 131.3361
386.7935, 125.5313
387.2756, 124.4546
387.7578, 127.9388
388.2399, 129.3496
388.7220, 126.7729
389.2041, 124.4087
389.6862, 123.7175
390.1683, 123.7075
390.6505, 122.7807
391.1326, 120.1713
391.6147, 117.4936
392.0968, 117.6689
392.5789, 121.1253
393.0610, 123.1437
393.5432, 121.7823
394.0253, 119.5793
394.5074, 118.4628
394.9895, 118.4507
395.4716, 119.1629
395.9537, 121.6170
396.4359, 124.2639
396.9180, 123.9463
397.4001, 120.2927
397.8822, 116.5193
398.3643, 114.2402
398.8464, 113.6977
399.3286, 115.1784
399.8107, 122.5532
400.2928, 127.6026
400.7749, 124.7543
401.2570, 118.0061
401.7391, 114.4359
402.2213, 116.3830
402.7034, 120.7580
403.1855, 122.7928
403.6676, 121.4052
404.1497, 120.4937
404.6318, 120.8545
405.1140, 120.9145
405.5961, 119.5186
406.0782, 117.0380
406.5603, 114.6315
407.0424, 113.0640
407.5245, 112.2193
408.0067, 111.5309
408.4888, 110.3536
408.9709, 110.6693
409.4530, 115.1490
409.9351, 119.9875
410.4172, 121.2416
410.8994, 118.0417
411.3815, 113.9821
411.8636, 112.3139
412.3457, 112.6356
412.8278, 112.7337
413.3099, 112.2870
413.7921, 111.6699
414.2742, 111.2033
414.7563, 110.8317
415.2384, 110.3386
415.7205, 109.8114
416.2026, 109.0455
416.6848, 107.7856
417.1669, 106.1306
417.6490, 104.2638
418.1311, 102.0772
418.6132, 100.1726
419.0953, 99.95207
419.5775, 102.6746
420.0596, 104.9488
420.5417, 106.7547
421.0238, 108.0248
421.5059, 108.4748
421.9880, 108.2485
422.4702, 107.9331
422.9523, 107.9896
423.4344, 108.4176
423.9165, 109.3059
424.3986, 111.7310
424.8807, 113.0460
425.3629, 112.0416
425.8450, 109.9447
426.3271, 107.7740
426.8092, 105.7719
427.2913, 104.8712
427.7734, 107.0585
428.2556, 112.0461
428.7377, 114.9507
429.2198, 114.2154
429.7019, 112.4669
430.1840, 112.0464
430.6661, 112.6113
431.1483, 112.6926
431.6304, 110.6492
432.1125, 108.9015
432.5946, 110.7559
433.0767, 115.2925
433.5588, 117.7461
434.0410, 115.4549
434.5231, 110.4976
435.0052, 107.9205
435.4873, 108.6817
435.9694, 110.1885
436.4515, 112.9825
436.9337, 116.0118
437.4158, 118.9373
437.8979, 121.4006
438.3800, 122.4796
438.8621, 121.2803
439.3442, 117.9516
439.8264, 114.2095
440.3085, 108.7866
440.7906, 104.9101
441.2727, 104.0404
441.7548, 104.5830
442.2369, 104.9431
442.7191, 104.6978
443.2012, 104.0980
443.6833, 103.2915
444.1654, 102.3091
444.6475, 101.1277
445.1296, 99.14919
445.6118, 98.25143
446.0939, 101.6267
446.5760, 107.8487
447.0581, 111.3341
447.5402, 108.4922
448.0223, 105.0123
448.5045, 104.6917
448.9866, 106.8683
449.4687, 110.1214
449.9508, 114.0988
450.4329, 117.4249
450.9150, 117.3136
451.3972, 111.0909
451.8793, 107.2586
452.3614, 107.3772
452.8435, 108.3984
453.3256, 109.0492
453.8077, 109.0307
454.2899, 108.0145
454.7720, 105.4594
455.2541, 102.2408
455.7362, 101.5205
456.2183, 104.2473
456.7004, 106.9997
457.1826, 109.4889
457.6647, 111.2536
458.1468, 111.3770
458.6289, 109.8237
459.1110, 108.7950
459.5931, 110.5573
460.0753, 113.6191
460.5574, 114.4956
461.0395, 112.7527
461.5216, 111.1059
462.0037, 111.6150
462.4858, 113.6562
462.9680, 114.1876
463.4501, 111.2857
463.9322, 109.4038
464.4143, 110.4196
464.8964, 112.8624
465.3785, 115.3878
465.8607, 117.5004
466.3428, 118.4579
466.8249, 117.1278
467.3070, 113.1834
467.7891, 110.6901
468.2712, 111.6927
468.7534, 111.9209
469.2355, 108.5731
469.7176, 104.3586
470.1997, 103.5843
470.6818, 108.1960
471.1639, 113.8338
471.6461, 114.6618
472.1282, 111.0485
472.6103, 108.4740
473.0924, 108.0081
473.5745, 108.4331
474.0566, 109.4178
474.5388, 110.6224
475.0209, 110.1568
475.5030, 104.5838
475.9851, 100.0315
476.4672, 101.9027
476.9493, 108.1999
477.4315, 113.9618
477.9136, 117.2998
478.3957, 118.3306
478.8778, 117.0387
479.3599, 112.2226
479.8420, 108.0579
480.3242, 103.7599
480.8063, 100.7410
481.2884, 100.0767
481.7705, 101.2774
482.2526, 103.4663
482.7347, 106.4865
483.2169, 109.3080
483.6990, 109.3923
484.1811, 106.2360
484.6632, 103.3571
485.1453, 101.1467
485.6274, 99.98703
486.1096, 100.5874
486.5917, 102.8158
487.0738, 104.5305
487.5559, 104.6518
488.0380, 104.0758
488.5201, 102.9907
489.0023, 101.7984
489.4844, 103.0196
489.9665, 108.6432
490.4486, 115.9303
490.9307, 118.1354
491.4128, 110.2609
491.8950, 104.9864
492.3771, 103.8272
492.8592, 104.0119
493.3413, 103.7937
493.8234, 103.1443
494.3055, 103.0506
494.7877, 104.6163
495.2698, 106.7163
495.7519, 105.0241
496.2340, 97.72195
496.7161, 92.64131
497.1982, 92.66888
497.6804, 95.49166
498.1625, 99.86105
498.6446, 105.7012
499.1267, 110.3590
499.6088, 111.9725
500.0909, 112.0490
500.5730, 112.5337
501.0551, 113.4681
501.5373, 114.1744
502.0194, 114.4467
502.5015, 113.9734
502.9836, 111.7631
503.4657, 106.1776
503.9478, 101.1420
504.4300, 95.32025
504.9121, 91.16528
505.3942, 92.11600
505.8763, 96.90530
506.3584, 100.0885
506.8405, 96.70583
507.3227, 89.44814
507.8048, 88.87598
508.2869, 97.59402
508.7690, 104.3270
509.2511, 105.1463
509.7332, 102.7229
510.2154, 98.15646
510.6975, 91.42725
511.1796, 87.97673
511.6617, 93.51894
512.1439, 101.7460
512.6260, 104.5520
513.1081, 102.0208
513.5902, 98.54895
514.0723, 96.46060
514.5544, 95.35351
515.0366, 94.10591
515.5187, 93.06581
516.0008, 91.32166
516.4829, 86.39140
516.9650, 82.77370
517.4471, 85.26294
517.9293, 92.29525
518.4114, 97.61944
518.8935, 96.33060
519.3756, 91.44499
519.8577, 91.73379
520.3398, 98.59394
520.8220, 102.8520
521.3041, 100.2870
521.7862, 95.36157
522.2683, 92.66913
522.7504, 92.22116
523.2325, 92.93168
523.7147, 96.20780
524.1968, 99.17789
524.6789, 98.44009
525.1610, 94.80052
525.6431, 91.63680
526.1252, 90.51669
526.6074, 91.11902
527.0895, 93.02991
527.5716, 98.53406
528.0537, 100.5311
528.5358, 96.25493
529.0179, 91.53580
529.5001, 89.03535
529.9822, 88.52284
530.4643, 88.99151
530.9464, 90.36050
531.4285, 91.49586
531.9106, 90.14540
532.3928, 86.39452
532.8749, 83.55889
533.3570, 82.63896
533.8391, 82.43728
534.3212, 80.93405
534.8033, 78.29588
535.2855, 79.07215
535.7676, 88.14077
536.2497, 96.33587
536.7318, 97.68159
537.2139, 94.74403
537.6960, 92.49847
538.1782, 92.69041
538.6603, 93.28025
539.1424, 90.95043
539.6245, 84.88383
540.1066, 81.27954
540.5887, 81.51055
541.0709, 82.66933
541.5530, 84.08208
542.0351, 85.51973
542.5172, 86.65262
542.9993, 87.31237
543.4814, 87.92781
543.9636, 89.41829
544.4457, 91.08326
544.9278, 90.45108
545.4099, 86.97215
545.8920, 84.47769
546.3741, 86.74941
546.8563, 92.92648
547.3384, 94.71306
547.8205, 86.96377
548.3026, 81.91512
548.7847, 84.05226
549.2668, 88.22340
549.7490, 89.79126
550.2311, 88.08315
550.7132, 84.81798
551.1953, 80.50903
551.6774, 76.08669
552.1595, 75.92060
552.6417, 80.83099
553.1238, 86.68141
553.6059, 93.39285
554.0880, 99.14980
554.5701, 101.5892
555.0522, 100.4000
555.5344, 98.65579
556.0165, 97.46116
556.4986, 95.99128
556.9807, 93.00423
557.4628, 88.99836
557.9449, 85.59379
558.4271, 83.55950
558.9092, 82.81495
559.3913, 83.42529
559.8734, 86.42591
560.3555, 88.05296
560.8376, 87.75185
561.3198, 86.46035
561.8019, 83.79943
562.2840, 80.50294
562.7661, 78.00540
563.2482, 76.79945
563.7303, 76.61378
564.2125, 77.60844
564.6946, 79.43467
565.1767, 80.92635
565.6588, 81.86855
566.1409, 82.24557
566.6230, 81.96824
567.1052, 81.04493
567.5873, 80.03629
568.0694, 78.44983
568.5515, 77.39793
569.0336, 77.04328
569.5157, 77.39542
569.9979, 78.87211
570.4800, 81.28768
570.9621, 83.40561
571.4442, 83.99169
571.9263, 83.38210
572.4084, 82.78444
572.8906, 82.13361
573.3727, 81.82110
573.8548, 81.85555
574.3369, 82.45229
574.8190, 84.43953
575.3011, 88.28822
575.7833, 90.11536
576.2654, 86.98518
576.7475, 83.25089
577.2296, 82.42708
577.7117, 83.78288
578.1938, 84.80939
578.6760, 84.32899
579.1581, 83.41310
579.6402, 84.37270
580.1223, 88.00801
580.6044, 89.54134
581.0865, 88.17779
581.5686, 85.41954
582.0507, 80.25069
582.5328, 74.72950
583.0150, 72.76540
583.4971, 75.98964
583.9792, 81.09532
584.4613, 88.20580
584.9434, 94.97886
585.4255, 96.52156
585.9077, 92.46123
586.3898, 87.20563
586.8719, 84.10421
587.3540, 82.73466
587.8361, 80.62953
588.3182, 75.18368
588.8004, 73.35048
589.2825, 78.80601
589.7646, 85.27372
590.2467, 88.70511
590.7288, 89.04636
591.2109, 88.05660
591.6931, 86.23095
592.1752, 84.05693
592.6573, 81.94972
593.1394, 80.01411
593.6215, 78.76153
594.1036, 78.26846
594.5858, 78.89340
595.0679, 81.58315
595.5500, 86.81683
596.0321, 88.90490
596.5142, 85.21416
596.9963, 81.91738
597.4785, 80.91785
597.9606, 81.21085
598.4427, 81.74419
598.9248, 82.20883
599.4069, 82.55161
599.8890, 82.47150
600.3712, 82.22734
600.8533, 83.14951
601.3354, 85.48695
601.8175, 86.62771
602.2996, 85.01732
602.7817, 82.05020
603.2639, 80.06985
603.7460, 79.13589
604.2281, 78.71352
604.7102, 79.18877
605.1923, 79.74303
605.6744, 79.13060
606.1566, 78.38888
606.6387, 80.06887
607.1208, 85.18405
607.6029, 90.65590
608.0850, 92.38150
608.5671, 90.40227
609.0493, 86.19904
609.5314, 78.18571
610.0135, 72.17757
610.4956, 72.29051
610.9777, 76.49293
611.4598, 80.44864
611.9420, 84.76090
612.4241, 87.12595
612.9062, 85.60121
613.3883, 82.78450
613.8704, 81.07055
614.3525, 80.28880
614.8347, 78.52363
615.3168, 74.44073
615.7989, 70.49046
616.2810, 73.02226
616.7631, 83.59769
617.2452, 89.94276
617.7274, 89.33042
618.2095, 86.37538
618.6916, 82.69613
619.1737, 79.07375
619.6558, 77.43466
620.1379, 78.71275
620.6201, 80.89365
621.1022, 83.56404
621.5843, 86.34532
622.0664, 89.23060
622.5485, 91.88905
623.0306, 92.82201
623.5128, 90.68385
623.9949, 86.71432
624.4770, 85.26447
624.9591, 87.59229
625.4412, 88.14530
625.9233, 84.79382
626.4055, 80.83216
626.8876, 77.51289
627.3697, 75.32807
627.8518, 76.08314
628.3339, 84.03871
628.8160, 90.00826
629.2982, 86.22334
629.7803, 77.71616
630.2624, 72.06751
630.7445, 70.70353
631.2266, 71.82294
631.7087, 74.33370
632.1909, 77.68484
632.6730, 78.86639
633.1551, 76.99842
633.6372, 75.17949
634.1193, 73.69910
634.6014, 72.70304
635.0836, 71.92843
635.5657, 71.62152
636.0478, 72.91209
636.5299, 79.06324
637.0120, 83.84904
637.4941, 81.35755
637.9763, 74.97884
638.4584, 70.80794
638.9405, 70.10174
639.4226, 70.47226
639.9047, 69.46693
640.3868, 67.67271
640.8690, 69.87298
641.3511, 79.10757
641.8332, 85.23422
642.3153, 83.66703
642.7974, 80.06756
643.2795, 78.20804
643.7617, 78.05328
644.2438, 78.39999
644.7259, 79.63173
645.2080, 80.47706
645.6901, 79.28165
646.1722, 77.28137
646.6544, 77.25252
647.1365, 79.59159
647.6186, 81.58333
648.1007, 80.41026
648.5828, 76.61533
649.0649, 74.03278
649.5471, 72.57252
650.0292, 72.59090
650.5113, 75.30186
650.9934, 78.61506
651.4755, 81.30150
651.9576, 83.22659
652.4398, 83.84638
652.9219, 82.10535
653.4040, 79.92249
653.8861, 77.83653
654.3682, 76.38390
654.8503, 76.99983
655.3325, 79.70376
655.8146, 82.20097
656.2967, 82.29159
656.7788, 80.40708
657.2609, 78.70750
657.7430, 76.81982
658.2252, 76.43756
658.7073, 79.69158
659.1894, 82.87464
659.6715, 81.55670
660.1536, 76.66196
660.6357, 74.55613
661.1179, 79.74087
661.6000, 84.45728
662.0821, 83.46275
662.5642, 80.20230
663.0463, 79.88744
663.5284, 83.11919
664.0106, 86.45033
664.4927, 86.86400
664.9748, 85.34446
665.4569, 85.68541
665.9390, 88.43280
666.4211, 89.78040
666.9033, 88.60392
667.3854, 86.16986
667.8675, 82.76218
668.3496, 78.78999
668.8317, 76.96996
669.3138, 79.62440
669.7960, 81.90118
670.2781, 82.20138
670.7602, 81.25748
671.2423, 79.18295
671.7244, 76.52085
672.2065, 74.92077
672.6887, 75.75209
673.1708, 77.93176
673.6529, 79.01827
674.1350, 79.02438
674.6171, 79.71363
675.0992, 81.65405
675.5814, 83.68367
676.0635, 84.76345
676.5456, 85.04270
677.0277, 85.68170
677.5098, 86.72074
677.9919, 88.03275
678.4741, 91.12394
678.9562, 93.25842
679.4383, 90.77836
679.9204, 85.29803
680.4025, 82.08959
680.8846, 84.04848
681.3668, 88.85976
681.8489, 94.51790
682.3310, 100.5252
682.8131, 104.6123
683.2952, 106.3380
683.7773, 107.1476
684.2595, 107.7232
684.7416, 108.4122
685.2237, 110.5806
685.7058, 116.3779
686.1879, 120.0291
686.6700, 118.8368
687.1522, 118.3023
687.6343, 121.9454
688.1164, 128.2006
688.5985, 132.9079
689.0806, 133.6920
689.5627, 137.6788
690.0449, 152.7296
690.5270, 173.6757
691.0091, 190.2483
691.4912, 202.9447
691.9733, 220.7310
692.4554, 248.4152
692.9376, 283.2803
693.4197, 318.8123
693.9018, 353.0083
694.3839, 396.5966
694.8660, 447.8819
695.3481, 511.6228
695.8303, 590.0514
696.3124, 681.2263
696.7945, 778.6597
697.2766, 878.6653
697.7587, 1007.802
698.2408, 1163.154
698.7230, 1363.240
699.2051, 1647.254
699.6872, 1984.292
700.1693, 2344.016
700.6514, 2704.343
701.1335, 2969.039
701.6157, 3001.043
702.0978, 2825.474
702.5799, 2625.897
703.0620, 2373.840
703.5441, 2242.843
704.0262, 2345.764
704.5084, 2533.020
704.9905, 2655.859
705.4726, 2719.097
705.9547, 2606.548
706.4368, 2158.702
706.9189, 1720.062
707.4011, 1407.264
707.8832, 1162.686
708.3653, 912.9603
708.8474, 655.8481
709.3295, 450.7495
709.8116, 347.0829
710.2938, 305.2493
710.7759, 268.8694
711.2580, 238.1242
711.7401, 215.0275
712.2222, 200.3965
712.7043, 188.4852
713.1865, 173.9153
713.6686, 158.0140
714.1507, 149.3288
714.6328, 153.7772
715.1149, 154.7641
715.5970, 150.1470
716.0792, 142.7070
716.5613, 131.7360
717.0434, 119.4216
717.5255, 110.3917
718.0076, 106.3992
718.4897, 104.8747
718.9719, 105.7470
719.4540, 107.3011
719.9361, 107.4311
720.4182, 106.0976
720.9003, 103.8762
721.3824, 100.9961
721.8646, 98.37854
722.3467, 97.95821
722.8288, 99.85320
723.3109, 100.5808
723.7930, 99.65145
724.2751, 98.80222
724.7573, 99.53106
725.2394, 100.3194
725.7215, 97.81406
726.2036, 91.05350
726.6857, 86.76190
727.1678, 87.46874
727.6500, 88.58421
728.1321, 88.10231
728.6142, 86.76434
729.0963, 85.90303
729.5784, 85.64489
730.0605, 84.59803
730.5427, 80.26035
731.0248, 75.46191
731.5069, 75.78127
731.9890, 80.19967
732.4711, 83.99100
732.9532, 85.96526
733.4354, 86.43805
733.9175, 85.51431
734.3996, 83.42308
734.8817, 81.99894
735.3638, 82.13024
735.8459, 81.03693
736.3281, 76.62934
736.8102, 72.54396
737.2923, 70.75987
737.7744, 71.00633
738.2565, 72.55644
738.7386, 75.96548
739.2208, 79.20058
739.7029, 81.89534
740.1850, 83.60850
740.6671, 83.32715
741.1492, 81.63016
741.6313, 80.61098
742.1135, 81.29936
742.5956, 81.22285
743.0777, 75.02500
743.5598, 64.43667
744.0419, 61.15741
744.5240, 66.29993
745.0062, 71.41592
745.4883, 72.65157
745.9704, 72.45063
746.4525, 74.82576
746.9346, 80.61524
747.4167, 84.12785
747.8989, 83.65411
748.3810, 83.11498
748.8631, 84.04203
749.3452, 84.83326
749.8273, 83.17016
750.3094, 79.43223
750.7916, 77.36074
751.2737, 80.51694
751.7558, 83.86483
752.2379, 83.07127
752.7200, 79.94694
753.2021, 77.15568
753.6843, 75.27381
754.1664, 74.35182
754.6485, 74.59368
755.1306, 75.19453
755.6127, 73.86748
756.0948, 70.50220
756.5770, 69.07309
757.0591, 70.75438
757.5412, 71.71587
758.0233, 68.55242
758.5054, 63.84246
758.9875, 64.15083
759.4697, 73.12508
759.9518, 78.37608
760.4339, 77.62768
760.9160, 75.63943
761.3981, 72.72097
761.8802, 70.60874
762.3624, 72.62438
762.8445, 79.00110
763.3266, 82.99218
763.8087, 78.59351
764.2908, 71.49040
764.7729, 67.21976
765.2551, 65.16014
765.7372, 63.76067
766.2193, 62.60363
766.7014, 61.82860
767.1835, 61.59927
767.6656, 61.78407
768.1478, 62.05842
768.6299, 62.48359
769.1120, 61.91884
769.5941, 58.77380
770.0762, 58.36263
770.5583, 66.73930
771.0405, 80.20299
771.5226, 85.74191
772.0047, 77.91676
772.4868, 72.92022
772.9689, 73.67704
773.4510, 74.95912
773.9332, 73.63554
774.4153, 71.33370
774.8974, 71.34232
775.3795, 74.44069
775.8616, 76.08974
776.3438, 71.16862
776.8259, 65.23800
777.3080, 64.96609
777.7901, 68.52656
778.2722, 71.22830
778.7543, 71.79807
779.2365, 71.41209
779.7186, 71.20007
780.2007, 70.82693
780.6828, 68.48813
781.1649, 63.88918
781.6470, 61.88536
782.1292, 63.93343
782.6113, 66.98623
783.0934, 68.85517
783.5755, 69.92577
784.0576, 71.66508
784.5397, 74.96298
785.0219, 77.35819
785.5040, 80.34349
785.9861, 80.82756
786.4682, 73.98450
786.9503, 65.24340
787.4324, 63.40297
787.9146, 70.45434
788.3967, 76.86187
788.8788, 78.64571
789.3609, 77.15479
789.8430, 71.15924
790.3251, 63.53613
790.8073, 59.75149
791.2894, 60.72065
791.7715, 62.77660
792.2536, 62.77290
792.7357, 62.02894
793.2178, 63.86386
793.7000, 68.07108
794.1821, 72.85678
794.6642, 78.36240
795.1463, 80.71663
795.6284, 76.23016
796.1105, 68.03500
796.5927, 65.39333
797.0748, 71.78345
797.5569, 74.62490
798.0390, 71.67167
798.5211, 67.96199
799.0032, 64.24958
799.4854, 61.49398
799.9675, 61.13810
800.4496, 63.36601
800.9317, 66.20682
801.4138, 70.35571
801.8959, 73.59692
802.3781, 75.00545
802.8602, 74.69021
803.3423, 71.82188
803.8244, 67.18340
804.3065, 63.81479
804.7886, 63.70588
805.2708, 65.40063
805.7529, 68.11544
806.2350, 70.97519
806.7171, 71.13097
807.1992, 68.56276
807.6813, 66.15772
808.1635, 65.43208
808.6456, 65.84898
809.1277, 66.57863
809.6098, 67.64014
810.0919, 68.83492
810.5740, 70.50448
811.0562, 71.08139
811.5383, 69.08050
812.0204, 66.96610
812.5025, 68.04188
812.9846, 72.39758
813.4667, 75.01220
813.9489, 75.24999
814.4310, 74.69812
814.9131, 72.67305
815.3952, 70.76166
815.8773, 70.50096
816.3594, 71.24402
816.8416, 71.18606
817.3237, 69.64429
817.8058, 67.78972
818.2879, 64.46693
818.7700, 62.63092
819.2521, 67.72459
819.7343, 76.45649
820.2164, 80.44612
820.6985, 77.29533
821.1806, 72.16965
821.6627, 69.38991
822.1448, 68.71039
822.6270, 70.15843
823.1091, 73.42667
823.5912, 76.45230
824.0733, 78.87878
824.5554, 79.07939
825.0375, 75.29453
825.5197, 69.05569
826.0018, 65.41071
826.4839, 64.70197
826.9660, 65.44640
827.4481, 68.37833
827.9302, 71.32577
828.4124, 73.19553
828.8945, 74.48340
829.3766, 76.41093
829.8587, 79.41192
830.3408, 79.98298
830.8229, 75.66627
831.3051, 71.65641
831.7872, 68.82296
832.2693, 67.61474
832.7514, 69.50313
833.2335, 73.50689
833.7156, 75.86493
834.1978, 74.58234
834.6799, 72.25458
835.1620, 69.45409
835.6441, 67.43280
836.1262, 69.00988
836.6083, 72.76424
837.0905, 73.29276
837.5726, 68.57384
838.0547, 64.74532
838.5368, 71.32602
839.0189, 83.69670
839.5010, 87.24911
839.9832, 83.02200
840.4653, 80.04588
840.9474, 80.72899
841.4295, 82.91135
841.9116, 84.87685
842.3937, 86.55054
842.8759, 87.55910
843.3580, 87.70634
843.8401, 88.31868
844.3222, 90.58118
844.8043, 90.92293
845.2864, 85.97222
845.7686, 78.94415
846.2507, 76.01782
846.7328, 78.61144
847.2149, 79.61260
847.6970, 76.98110
848.1791, 75.36097
848.6613, 75.73021
849.1434, 77.84683
849.6255, 81.94764
850.1076, 87.63918
850.5897, 93.64281
851.0718, 101.0917
851.5540, 105.9169
852.0361, 105.0221
852.5182, 101.4586
853.0003, 97.00038
853.4824, 92.54228
853.9645, 89.51853
854.4467, 88.36211
854.9288, 87.29413
855.4109, 83.82590
855.8930, 80.00057
856.3751, 80.09672
856.8572, 82.69444
857.3394, 83.32796
857.8215, 81.08076
858.3036, 77.22778
858.7857, 72.25941
859.2678, 67.84933
859.7499, 68.49642
860.2321, 74.06620
860.7142, 79.51273
861.1963, 84.92450
861.6784, 86.47790
862.1605, 81.26739
862.6426, 74.22999
863.1248, 72.91401
863.6069, 77.67000
864.0890, 80.38012
864.5711, 79.96981
865.0532, 79.79405
865.5353, 81.60362
866.0175, 82.62556
866.4996, 79.23581
866.9817, 73.36098
867.4638, 70.99522
867.9459, 73.75657
868.4280, 76.87449
868.9102, 81.96046
869.3923, 84.86059
869.8744, 81.24820
870.3565, 75.53294
870.8386, 73.76705
871.3207, 76.52713
871.8029, 78.97288
872.2850, 78.25565
872.7671, 77.47778
873.2492, 78.74303
873.7313, 80.86819
874.2134, 82.00076
874.6956, 82.66576
875.1777, 85.40339
875.6598, 91.50819
876.1419, 97.36381
876.6240, 99.95330
877.1061, 99.57963
877.5883, 95.62242
878.0704, 89.13248
878.5525, 82.83996
879.0346, 77.73915
879.5167, 75.77508
879.9988, 79.27344
880.4810, 85.50567
880.9631, 87.33434
881.4452, 85.15781
881.9273, 84.15003
882.4094, 84.87366
882.8915, 86.95211
883.3737, 90.65024
883.8558, 93.90022
884.3379, 93.05868
884.8200, 87.99751
885.3021, 84.60154
885.7842, 82.95920
886.2664, 82.89399
886.7485, 85.30556
887.2306, 87.64639
887.7127, 86.98600
888.1948, 84.75180
888.6769, 86.65927
889.1591, 97.00419
889.6412, 102.8104
890.1233, 101.7865
890.6054, 99.15027
891.0875, 95.35085
891.5696, 91.78078
892.0518, 90.27406
892.5339, 90.78927
893.0160, 90.93865
893.4981, 89.72097
893.9802, 88.73801
894.4623, 88.15702
894.9445, 88.31619
895.4266, 89.88934
895.9087, 92.32240
896.3908, 94.63387
896.8729, 96.58898
897.3550, 97.67959
897.8372, 97.27209
898.3193, 96.19557
898.8014, 94.37179
899.2835, 92.74891
899.7656, 93.53226
900.2477, 96.25859
900.7299, 97.53403
901.2120, 95.37938
901.6941, 91.28966
902.1762, 85.35423
902.6583, 79.41064
903.1404, 77.30656
903.6226, 78.52182
904.1047, 80.33948
904.5868, 81.80257
905.0689, 83.21005
905.5510, 85.02798
906.0331, 86.77753
906.5153, 86.93262
906.9974, 85.75690
907.4795, 85.05017
907.9616, 85.07104
908.4437, 85.73093
908.9258, 87.03593
909.4080, 88.69898
909.8900, 90.79140
910.3721, 93.21597
910.8542, 90.47433
911.3364, 80.83131
911.8185, 78.00435
912.3006, 88.20175
912.7827, 96.84338
913.2648, 90.11546
913.7469, 74.03786
914.2291, 70.14915
914.7112, 85.14101
915.1933, 92.20523
915.6754, 86.56542
916.1575, 81.88613
916.6396, 84.56808
917.1218, 89.24904
917.6039, 89.35534
918.0860, 85.09705
918.5681, 82.93887
919.0502, 84.73497
919.5323, 85.83118
920.0145, 84.98292
920.4966, 84.37025
920.9787, 85.33584
921.4608, 87.17187
921.9429, 88.81496
922.4250, 90.18868
922.9072, 91.18201
923.3893, 92.04485
923.8714, 92.16553
924.3535, 90.23519
924.8356, 88.38550
925.3177, 89.57172
925.7999, 92.24750
926.2820, 91.36269
926.7641, 84.26895
927.2462, 80.13388
927.7283, 86.08186
928.2104, 93.30035
928.6926, 96.41100
929.1747, 96.59371
929.6568, 95.30830
930.1389, 93.15764
930.6210, 90.78757
931.1031, 87.84689
931.5853, 86.59667
932.0674, 90.57853
932.5495, 95.86690
933.0316, 98.54030
933.5137, 98.47692
933.9958, 95.21278
934.4780, 89.24466
934.9601, 84.60271
935.4422, 84.60999
935.9243, 86.91996
936.4064, 89.40913
936.8885, 91.55663
937.3707, 91.54412
937.8528, 89.99197
938.3349, 90.42313
938.8170, 94.20342
939.2991, 97.56794
939.7813, 95.14615
940.2634, 90.17351
940.7455, 91.04705
941.2276, 96.20485
941.7097, 99.31298
942.1918, 99.38425
942.6740, 97.84672
943.1561, 95.34752
943.6382, 93.51946
944.1203, 96.45685
944.6024, 102.7155
945.0845, 102.2132
945.5667, 95.38042
946.0488, 91.06050
946.5309, 91.52825
947.0130, 92.96400
947.4951, 92.41944
947.9772, 90.89582
948.4594, 90.76314
948.9415, 92.04604
949.4236, 93.72388
949.9057, 95.88727
950.3878, 97.27147
950.8699, 97.27841
951.3521, 97.21659
951.8342, 98.53711
952.3163, 100.7170
952.7984, 101.4026
953.2805, 100.3073
953.7626, 98.95012
954.2448, 96.72591
954.7269, 97.06473
955.2090, 103.0005
955.6911, 108.8897
956.1732, 106.7415
956.6553, 97.39477
957.1375, 93.07767
957.6196, 96.28799
958.1017, 97.21129
958.5838, 92.85250
959.0659, 90.14033
959.5480, 93.93221
960.0302, 100.1692
960.5123, 101.9743
960.9944, 98.82590
961.4765, 98.99353
961.9586, 105.5584
962.4407, 109.5524
962.9229, 107.7218
963.4050, 105.5285
963.8871, 106.5712
964.3692, 109.3921
964.8513, 111.1584
965.3334, 111.7844
965.8156, 111.6895
966.2977, 109.3829
966.7798, 108.4248
967.2619, 111.3540
967.7440, 114.0134
968.2261, 113.3195
968.7083, 110.1742
969.1904, 106.5460
969.6725, 101.5236
970.1546, 99.30672
970.6367, 100.8399
971.1188, 104.3777
971.6010, 112.7724
972.0831, 120.1317
972.5652, 120.0596
973.0473, 114.6913
973.5294, 111.8982
974.0115, 113.7678
974.4937, 115.0154
974.9758, 114.5174
975.4579, 113.6183
975.9400, 111.9791
976.4221, 110.8749
976.9042, 112.3538
977.3864, 115.6625
977.8685, 116.9705
978.3506, 113.8055
978.8327, 112.5801
979.3148, 115.1954
979.7969, 119.6443
980.2791, 128.3757
980.7612, 136.0333
981.2433, 134.4983
981.7254, 125.1280
982.2075, 119.5394
982.6896, 122.6349
983.1718, 126.0855
983.6539, 126.6825
984.1360, 127.5433
984.6181, 132.7011
985.1002, 138.0688
985.5823, 136.9249
986.0645, 129.5941
986.5466, 124.5725
987.0287, 126.7164
987.5108, 128.0391
987.9929, 124.4557
988.4750, 120.1643
988.9572, 117.5917
989.4393, 116.5347
989.9214, 117.0686
990.4035, 118.8281
990.8856, 119.0064
991.3677, 114.9405
991.8499, 111.5398
992.3320, 110.8457
992.8141, 111.6571
993.2962, 113.4717
993.7783, 115.9374
994.2604, 118.8385
994.7426, 122.0652
995.2247, 124.9477
995.7068, 128.0149
996.1889, 129.6203
996.6710, 127.4326
997.1531, 124.9181
997.6353, 124.6163
998.1174, 126.2527
998.5995, 129.9475
999.0816, 135.3628
999.5637, 138.1321
1000.046, 133.5906
1000.528, 129.5592
1001.010, 132.0859
1001.492, 134.6779
1001.974, 130.1586
1002.456, 122.0318
1002.939, 116.6629
1003.421, 115.4815
1003.903, 118.1168
1004.385, 129.4968
1004.867, 138.1159
1005.349, 135.2702
1005.831, 129.9043
1006.313, 130.3281
1006.795, 134.0996
1007.278, 135.2312
1007.760, 132.5966
1008.242, 130.3596
1008.724, 131.0005
1009.206, 131.5814
1009.688, 129.5980
1010.170, 127.9246
1010.652, 130.3390
1011.135, 134.4856
1011.617, 135.5585
1012.099, 132.6627
1012.581, 129.2635
1013.063, 123.7758
1013.545, 121.9960
1014.027, 130.4058
1014.509, 140.0318
1014.991, 144.0809
1015.474, 143.4883
1015.956, 139.7406
1016.438, 133.3531
1016.920, 130.2622
1017.402, 138.2751
1017.884, 142.4521
1018.366, 131.4083
1018.848, 119.2802
1019.331, 117.0584
1019.813, 121.7856
1020.295, 128.8795
1020.777, 137.2692
1021.259, 140.5199
1021.741, 131.6228
1022.223, 124.1291
1022.705, 124.1388
1023.187, 125.8354
1023.670, 124.7689
1024.152, 122.6341
1024.634, 122.4267
1025.116, 124.5473
1025.598, 128.0090
1026.080, 134.7536
1026.562, 139.6974
1027.044, 141.3545
1027.526, 140.9705
1028.009, 138.6868
1028.491, 135.2394
1028.973, 130.1735
1029.455, 123.7844
1029.937, 122.8029
1030.419, 136.4202
1030.901, 143.7176
1031.383, 133.6403
1031.866, 124.1508
1032.348, 126.2875
1032.830, 134.0368
1033.312, 140.0943
1033.794, 143.9495
1034.276, 145.1295
1034.758, 140.9781
1035.240, 138.1678
1035.723, 136.9144
1036.205, 137.6064
1036.687, 142.0839
1037.169, 147.4891
1037.651, 150.5725
1038.133, 151.4032
1038.615, 151.4726
1039.097, 151.1096
1039.579, 149.3692
1040.062, 142.8250
1040.544, 139.6993
1041.026, 145.9145
1041.508, 154.0573
1041.990, 155.8430
1042.472, 152.5967
1042.954, 152.2219
1043.436, 156.3350
1043.918, 159.6988
1044.401, 162.4358
1044.883, 164.1953
1045.365, 165.0925
1045.847, 164.4949
1046.329, 160.9810
1046.811, 155.8595
1047.293, 153.7722
1047.775, 154.6296
1048.258, 160.1528
1048.740, 174.5991
1049.222, 179.4256
1049.704, 165.3297
1050.186, 151.0853
1050.668, 152.2473
1051.150, 162.9968
1051.632, 168.1549
1052.115, 167.0492
1052.597, 168.2900
1053.079, 171.9422
1053.561, 178.3681
1054.043, 188.4796
1054.525, 196.4350
1055.007, 197.7048
1055.489, 196.3156
1055.971, 200.0102
1056.453, 208.2851
1056.936, 214.5096
1057.418, 218.6925
1057.900, 226.3483
1058.382, 238.5686
1058.864, 248.6221
1059.346, 252.9044
1059.828, 252.2563
1060.310, 246.7619
1060.793, 237.9088
1061.275, 230.9062
1061.757, 225.5905
1062.239, 220.3302
1062.721, 215.3660
1063.203, 215.6257
1063.685, 223.0858
1064.167, 230.2291
1064.650, 228.3299
1065.132, 222.3368
1065.614, 221.7295
1066.096, 224.8451
1066.578, 226.6696
1067.060, 227.9936
1067.542, 234.9448
1068.024, 248.5484
1068.506, 259.4854
1068.989, 259.0540
1069.471, 256.6363
1069.953, 262.5528
1070.435, 274.2249
1070.917, 289.8732
1071.399, 307.4192
1071.881, 322.9012
1072.363, 336.0452
1072.845, 350.0589
1073.328, 365.9487
1073.810, 385.6864
1074.292, 407.3855
1074.774, 436.9900
1075.256, 474.7840
1075.738, 527.1428
1076.220, 592.4006
1076.702, 679.8162
1077.184, 812.6813
1077.667, 994.8347
1078.149, 1241.709
1078.631, 1537.462
1079.113, 1927.369
1079.595, 2419.863
1080.077, 3029.755
1080.559, 3756.537
1081.041, 4613.129
1081.524, 5598.198
1082.006, 6686.069
1082.488, 8122.716
1082.970, 9711.972
1083.452, 11990.12
1083.934, 16363.55
1084.416, 20101.33
1084.898, 22125.11
1085.380, 22157.36
1085.863, 19233.48
1086.345, 13335.13
1086.827, 8682.407
1087.309, 5437.804
1087.791, 3145.785
1088.273, 2038.740
1088.755, 1395.000
1089.237, 1037.571
1089.719, 847.8154
1090.202, 717.2036
1090.684, 638.4379
1091.166, 583.8506
1091.648, 557.1461
1092.130, 533.1365
1092.612, 511.2062
1093.094, 491.7590
1093.576, 474.1536
1094.059, 464.0177
1094.541, 466.7296
1095.023, 475.8763
1095.505, 478.2729
1095.987, 474.7612
1096.469, 472.3212
1096.951, 471.3192
1097.433, 477.5532
1097.916, 491.2195
1098.398, 500.1879
1098.880, 498.0214
1099.362, 494.1281
1099.844, 498.7227
1100.326, 510.1778
1100.808, 529.3207
1101.290, 551.1729
1101.772, 560.8928
1102.255, 561.6790
1102.737, 570.6042
1103.219, 592.0882
1103.701, 612.1202
1104.183, 619.7631
1104.665, 624.5738
1105.147, 636.1826
1105.629, 649.4241
1106.111, 660.0414
1106.594, 667.2295
1107.076, 667.5252
1107.558, 663.1981
1108.040, 666.4661
1108.522, 685.7665
1109.004, 698.3825
1109.486, 689.1248
1109.968, 676.9193
1110.451, 670.3412
1110.933, 667.0496
1111.415, 665.8400
1111.897, 665.4666
1112.379, 664.4275
1112.861, 663.4111
1113.343, 655.8674
1113.825, 636.7881
1114.307, 617.6390
1114.790, 599.5084
1115.272, 582.3600
1115.754, 564.7952
1116.236, 549.8761
1116.718, 542.8538
1117.200, 542.4733
1117.682, 536.2809
1118.164, 522.3412
1118.646, 511.7126
1119.129, 506.8721
1119.611, 494.9345
1120.093, 469.9308
1120.575, 445.4965
1121.057, 433.0582
1121.539, 428.9572
1122.021, 428.1486
1122.503, 429.1935
1122.986, 418.7240
1123.468, 398.4758
1123.950, 381.1331
1124.432, 369.1700
1124.914, 361.8877
1125.396, 358.9301
1125.878, 358.4013
1126.360, 361.1255
1126.843, 361.7840
1127.325, 348.1119
1127.807, 328.7180
1128.289, 318.8394
1128.771, 316.8229
1129.253, 315.3743
1129.735, 312.3594
1130.217, 308.4035
1130.699, 304.5990
1131.182, 298.0005
1131.664, 280.0822
1132.146, 265.9605
1132.628, 272.4219
1133.110, 284.9523
1133.592, 285.2120
1134.074, 275.5744
1134.556, 269.2803
1135.038, 269.2471
1135.521, 268.9063
1136.003, 266.5659
1136.485, 264.8103
1136.967, 266.5360
1137.449, 266.0903
1137.931, 258.2924
1138.413, 248.6350
1138.895, 245.1339
1139.378, 247.1349
1139.860, 247.6797
1140.342, 246.6523
1140.824, 244.3161
1141.306, 240.2024
1141.788, 237.4531
1142.270, 237.0706
1142.752, 238.7684
1143.234, 242.9243
1143.717, 246.5519
1144.199, 242.2069
1144.681, 232.2718
1145.163, 227.1181
1145.645, 226.4803
1146.127, 230.5495
1146.609, 238.0096
1147.091, 243.0957
1147.573, 243.3855
1148.056, 240.9599
1148.538, 235.7598
1149.020, 231.5639
1149.502, 234.4151
1149.984, 239.0281
1150.466, 239.1411
1150.948, 236.1052
1151.430, 232.6530
1151.913, 229.4351
1152.395, 226.3586
1152.877, 222.7584
1153.359, 221.4188
1153.841, 224.8647
1154.323, 228.6705
1154.805, 231.9147
1155.287, 233.8923
1155.770, 232.7353
1156.252, 230.5235
1156.734, 231.9072
1157.216, 237.0692
1157.698, 238.6393
1158.180, 234.1057
1158.662, 233.8668
1159.144, 240.5051
1159.626, 245.1677
1160.109, 244.1604
1160.591, 241.9067
1161.073, 242.3021
1161.555, 244.4214
1162.037, 246.3982
1162.519, 248.1567
1163.001, 248.0769
1163.483, 247.0884
1163.965, 251.5974
1164.448, 261.3368
1164.930, 268.0506
1165.412, 268.2021
1165.894, 265.9961
1166.376, 263.5697
1166.858, 263.0141
1167.340, 269.2417
1167.822, 276.4458
1168.305, 276.6414
1168.787, 273.1049
1169.269, 271.0218
1169.751, 271.6823
1170.233, 276.4078
1170.715, 287.4562
1171.197, 295.7048
1171.679, 297.2454
1172.161, 297.3231
1172.644, 295.4421
1173.126, 295.1349
1173.608, 300.0426
1174.090, 306.9978
1174.572, 311.4971
1175.054, 313.5928
1175.536, 313.8270
1176.018, 311.2881
1176.500, 311.2201
1176.983, 313.9225
1177.465, 319.8888
1177.947, 329.6791
1178.429, 337.1736
1178.911, 337.3390
1179.393, 335.9388
1179.875, 344.1805
1180.357, 357.5446
1180.840, 361.7777
1181.322, 361.3355
1181.804, 369.3212
1182.286, 383.9895
1182.768, 394.2098
1183.250, 397.0119
1183.732, 397.9893
1184.214, 398.3213
1184.697, 402.6788
1185.179, 417.3393
1185.661, 433.3975
1186.143, 447.5858
1186.625, 457.4025
1187.107, 453.7356
1187.589, 445.0211
1188.071, 456.8136
1188.553, 496.2785
1189.036, 523.4357
1189.518, 530.3018
1190.000, 540.1038
1190.482, 553.5865
1190.964, 574.5927
1191.446, 607.1313
1191.928, 640.1663
1192.410, 662.7296
1192.892, 678.2810
1193.375, 693.5107
1193.857, 709.3682
1194.339, 732.9777
1194.821, 763.5497
1195.303, 797.5056
1195.785, 833.7748
1196.267, 870.4033
1196.749, 906.5422
1197.232, 941.4448
1197.714, 973.0855
1198.196, 1006.007
1198.678, 1042.330
1199.160, 1083.963
1199.642, 1139.401
1200.124, 1197.141
1200.606, 1239.252
1201.089, 1268.824
1201.571, 1303.396
1202.053, 1347.905
1202.535, 1384.815
1203.017, 1402.787
1203.499, 1428.414
1203.981, 1476.583
1204.463, 1509.813
1204.945, 1507.620
1205.427, 1492.230
1205.910, 1485.735
1206.392, 1485.491
1206.874, 1484.491
1207.356, 1482.707
1207.838, 1482.830
1208.320, 1482.861
1208.802, 1465.544
1209.284, 1431.336
1209.767, 1401.667
1210.249, 1385.259
1210.731, 1369.651
1211.213, 1343.411
1211.695, 1316.707
1212.177, 1302.053
1212.659, 1288.558
1213.141, 1261.790
1213.624, 1232.100
1214.106, 1216.478
1214.588, 1210.979
1215.070, 1197.186
1215.552, 1170.016
1216.034, 1150.268
1216.516, 1141.285
1216.998, 1137.640
1217.480, 1140.244
1217.963, 1145.316
1218.445, 1151.812
1218.927, 1159.487
1219.409, 1168.913
1219.891, 1177.362
1220.373, 1175.805
1220.855, 1167.051
1221.337, 1167.901
1221.819, 1177.970
1222.302, 1199.244
1222.784, 1228.331
1223.266, 1248.800
1223.748, 1256.709
1224.230, 1271.531
1224.712, 1309.906
1225.194, 1347.521
1225.676, 1361.228
1226.159, 1373.877
1226.641, 1401.767
1227.123, 1437.435
1227.605, 1476.371
1228.087, 1515.169
1228.569, 1546.313
1229.051, 1569.271
1229.533, 1596.167
1230.016, 1628.041
1230.498, 1661.714
1230.980, 1697.414
1231.462, 1733.283
1231.944, 1768.825
1232.426, 1805.404
1232.908, 1844.339
1233.390, 1881.350
1233.872, 1909.685
1234.354, 1931.985
1234.837, 1956.364
1235.319, 1978.357
1235.801, 1984.913
1236.283, 1982.541
1236.765, 1989.111
1237.247, 2006.066
1237.729, 2020.639
1238.211, 2027.431
1238.694, 2034.420
1239.176, 2049.805
1239.658, 2058.659
1240.140, 2057.565
1240.622, 2045.673
1241.104, 2017.016
1241.586, 1984.500
1242.068, 1962.996
1242.551, 1949.905
1243.033, 1938.425
1243.515, 1929.127
1243.997, 1899.145
1244.479, 1849.746
1244.961, 1803.924
1245.443, 1765.172
1245.925, 1726.278
1246.407, 1684.884
1246.890, 1651.897
1247.372, 1641.342
1247.854, 1628.022
1248.336, 1585.789
1248.818, 1531.862
1249.300, 1475.104
1249.782, 1420.955
1250.264, 1370.103
1250.746, 1327.185
1251.229, 1305.928
1251.711, 1308.494
1252.193, 1295.238
1252.675, 1259.373
1253.157, 1222.769
1253.639, 1185.678
1254.121, 1148.692
1254.603, 1111.489
1255.086, 1077.650
1255.568, 1049.523
1256.050, 1028.024
1256.532, 1018.357
1257.014, 1010.577
1257.496, 978.4969
1257.978, 938.0583
1258.460, 922.4204
1258.943, 920.6434
1259.425, 907.5542
1259.907, 881.7087
1260.389, 853.9737
1260.871, 826.5406
1261.353, 806.2113
1261.835, 799.9322
1262.317, 793.0667
1262.799, 785.7866
1263.281, 772.1404
1263.764, 744.8012
1264.246, 720.7184
1264.728, 715.4161
1265.210, 719.8651
1265.692, 716.7988
1266.174, 707.2261
1266.656, 692.9759
1267.138, 676.7395
1267.621, 672.4099
1268.103, 676.8146
1268.585, 674.4048
1269.067, 662.6470
1269.549, 650.9955
1270.031, 643.8174
1270.513, 637.3760
1270.995, 630.5199
1271.478, 622.9424
##END=



