##NAMES=Arakiite
##RRUFFID=R070172
##IDEAL CHEMISTRY=Zn^2+^Mn^2+^_12_Fe^3+^_2_(As^3+^O_3_)(As^5+^O_4_)_2_(OH)_23_
##LOCALITY=Langban, Filipstad, Varmland, Sweden
##OWNER=RRUFF
##SOURCE=Michael Scott
##DESCRIPTION=Reddish brown platey crystals associated with colorless calcite
##STATUS=The identification of this mineral is confirmed by single-crystal X-ray diffraction and chemical analysis.
##URL=rruff.info/R070172
##MEASURED CHEMISTRY=(Zn_0.83_Mn^2+^_0.17_)_Σ=1_(Mn^2+^_9.20_Mg_2.80_)_Σ=12_(Fe^3+^_1.97_Mn^3+^_0.03_)_Σ=2_As_1.00_O_3_(As_1.00_O_4_)_2_(OH)_23_; OH estimated by difference and charge balance
183.3885, 18.71525
183.8706, 18.53351
184.3528, 18.37956
184.8349, 18.32850
185.3170, 18.37552
185.7991, 18.47121
186.2812, 18.65364
186.7633, 18.87086
187.2455, 18.91824
187.7276, 18.70941
188.2097, 18.38939
188.6918, 18.21399
189.1739, 18.18405
189.6560, 18.22880
190.1382, 18.33574
190.6203, 18.48945
191.1024, 18.59289
191.5845, 18.62674
192.0666, 18.60259
192.5487, 18.51216
193.0309, 18.34692
193.5130, 18.22668
193.9951, 18.29550
194.4772, 18.54113
194.9593, 18.70881
195.4414, 18.73358
195.9236, 18.65584
196.4057, 18.58795
196.8878, 18.52356
197.3699, 18.50401
197.8520, 18.61283
198.3341, 18.85777
198.8163, 18.98456
199.2984, 18.89405
199.7805, 18.65058
200.2626, 18.56262
200.7447, 18.65844
201.2268, 18.80115
201.7090, 18.82933
202.1911, 18.71961
202.6732, 18.73577
203.1553, 19.01458
203.6374, 19.48440
204.1195, 19.62319
204.6017, 19.34968
205.0838, 18.96367
205.5659, 18.77464
206.0480, 18.82304
206.5301, 18.83777
207.0122, 18.75017
207.4944, 18.56962
207.9765, 18.37898
208.4586, 18.14465
208.9407, 17.96810
209.4228, 17.96689
209.9049, 18.17138
210.3871, 18.44223
210.8692, 18.80410
211.3513, 19.24321
211.8334, 19.42698
212.3155, 19.29565
212.7976, 19.00821
213.2798, 18.70241
213.7619, 18.33405
214.2440, 18.08551
214.7261, 18.02509
215.2082, 18.15509
215.6903, 18.25510
216.1725, 18.30911
216.6546, 18.35409
217.1367, 18.45511
217.6188, 18.68149
218.1009, 18.77465
218.5830, 18.60540
219.0651, 18.14547
219.5473, 17.96246
220.0294, 18.16352
220.5115, 18.50551
220.9936, 18.69535
221.4757, 18.64807
221.9578, 18.64947
222.4400, 18.78078
222.9221, 19.05633
223.4042, 19.31048
223.8863, 19.57819
224.3684, 19.79227
224.8505, 19.84828
225.3327, 19.62122
225.8148, 19.50908
226.2969, 19.67370
226.7790, 20.16529
227.2611, 20.35275
227.7432, 20.06373
228.2254, 19.64916
228.7075, 19.52444
229.1896, 19.83777
229.6717, 20.14654
230.1538, 20.35969
230.6359, 20.47082
231.1181, 20.53338
231.6002, 20.49905
232.0823, 20.46175
232.5644, 20.55216
233.0465, 20.91380
233.5286, 21.12305
234.0108, 20.99852
234.4929, 20.48198
234.9750, 20.32531
235.4571, 20.71079
235.9392, 21.28086
236.4213, 21.66333
236.9035, 21.79972
237.3856, 21.84592
237.8677, 21.79737
238.3498, 21.63900
238.8319, 21.60044
239.3140, 21.74937
239.7962, 21.95542
240.2783, 22.07179
240.7604, 21.99872
241.2425, 22.02974
241.7246, 22.27199
242.2067, 22.74735
242.6889, 23.05299
243.1710, 23.10286
243.6531, 23.06521
244.1352, 23.10491
244.6173, 23.25165
245.0994, 23.42296
245.5816, 23.63829
246.0637, 23.90098
246.5458, 23.98999
247.0279, 23.75862
247.5100, 23.50436
247.9921, 23.52682
248.4743, 23.98694
248.9564, 24.40088
249.4385, 24.67660
249.9206, 24.81750
250.4027, 24.98121
250.8848, 25.19148
251.3670, 25.39848
251.8491, 25.55536
252.3312, 25.64757
252.8133, 25.72271
253.2954, 25.78104
253.7775, 25.82438
254.2597, 25.88151
254.7418, 25.94124
255.2239, 26.02918
255.7060, 26.16119
256.1881, 26.32976
256.6702, 26.57210
257.1523, 26.95161
257.6345, 27.43388
258.1166, 27.71863
258.5987, 27.76735
259.0808, 27.67264
259.5629, 27.46770
260.0450, 27.08207
260.5272, 26.79233
261.0093, 26.65376
261.4914, 26.64122
261.9735, 26.63750
262.4556, 26.68034
262.9377, 26.66646
263.4199, 26.51673
263.9020, 26.19571
264.3841, 25.84439
264.8662, 25.42926
265.3483, 25.00084
265.8304, 24.75602
266.3126, 24.75781
266.7947, 24.81340
267.2768, 24.82888
267.7589, 24.82231
268.2410, 24.68680
268.7231, 24.34521
269.2053, 23.90349
269.6874, 23.70214
270.1695, 23.83306
270.6516, 23.95482
271.1337, 23.84230
271.6158, 23.41888
272.0980, 23.16252
272.5801, 23.14041
273.0622, 23.25089
273.5443, 23.25617
274.0264, 23.13114
274.5085, 22.99130
274.9907, 22.89926
275.4728, 22.86307
275.9549, 22.79301
276.4370, 22.66541
276.9191, 22.53302
277.4012, 22.50682
277.8834, 22.60547
278.3655, 22.70900
278.8476, 22.79660
279.3297, 22.87354
279.8118, 22.77807
280.2939, 22.45858
280.7761, 22.07793
281.2582, 21.89631
281.7403, 21.93027
282.2224, 21.97605
282.7045, 21.94067
283.1866, 21.83579
283.6688, 21.81635
284.1509, 21.90283
284.6330, 22.00888
285.1151, 22.03797
285.5972, 21.98983
286.0793, 21.88526
286.5615, 21.70291
287.0436, 21.46685
287.5257, 21.28757
288.0078, 21.16562
288.4899, 21.09492
288.9720, 21.09794
289.4542, 21.16492
289.9363, 21.18835
290.4184, 21.11214
290.9005, 20.98168
291.3826, 20.92323
291.8647, 20.93921
292.3469, 20.99024
292.8290, 21.06915
293.3111, 21.16194
293.7932, 21.20420
294.2753, 21.16929
294.7574, 21.08682
295.2396, 20.99125
295.7217, 20.88499
296.2038, 20.82422
296.6859, 20.90256
297.1680, 21.06365
297.6501, 21.15007
298.1323, 21.12025
298.6144, 21.02737
299.0965, 20.89958
299.5786, 20.75209
300.0607, 20.68755
300.5428, 20.82073
301.0250, 21.07043
301.5071, 21.30902
301.9892, 21.54047
302.4713, 21.69236
302.9534, 21.59539
303.4355, 21.32937
303.9177, 21.15505
304.3998, 21.35456
304.8819, 21.68103
305.3640, 21.77520
305.8461, 21.57227
306.3282, 21.34601
306.8104, 21.37247
307.2925, 21.55515
307.7746, 21.69295
308.2567, 21.60980
308.7388, 21.48772
309.2209, 21.53380
309.7031, 21.76698
310.1852, 21.95454
310.6673, 21.88097
311.1494, 21.67422
311.6315, 21.51712
312.1136, 21.46097
312.5958, 21.49116
313.0779, 21.65487
313.5600, 21.93551
314.0421, 22.14672
314.5242, 22.13706
315.0063, 22.02501
315.4885, 21.92701
315.9706, 21.85302
316.4527, 21.82443
316.9348, 21.86018
317.4169, 21.95253
317.8990, 22.06729
318.3812, 22.24283
318.8633, 22.40511
319.3454, 22.49481
319.8275, 22.43962
320.3096, 22.40560
320.7917, 22.45583
321.2739, 22.56641
321.7560, 22.67663
322.2381, 22.81812
322.7202, 22.91943
323.2023, 22.91864
323.6844, 22.70943
324.1666, 22.64083
324.6487, 22.92163
325.1308, 23.35230
325.6129, 23.62041
326.0950, 23.48764
326.5771, 23.36907
327.0593, 23.41614
327.5414, 23.70106
328.0235, 23.87153
328.5056, 23.76667
328.9877, 23.59679
329.4698, 23.58353
329.9520, 23.95988
330.4341, 24.21752
330.9162, 24.21602
331.3983, 23.94314
331.8804, 23.80741
332.3625, 23.90913
332.8447, 24.06303
333.3268, 24.11878
333.8089, 23.93260
334.2910, 23.91912
334.7731, 24.20948
335.2552, 24.72576
335.7374, 25.03118
336.2195, 25.04868
336.7016, 24.98357
337.1837, 24.94583
337.6658, 24.94425
338.1479, 24.94060
338.6301, 24.93099
339.1122, 24.91941
339.5943, 24.89746
340.0764, 24.83829
340.5585, 24.85840
341.0406, 25.04945
341.5227, 25.43176
342.0049, 25.70540
342.4870, 25.86397
342.9691, 25.93231
343.4512, 25.92281
343.9333, 25.83007
344.4154, 25.73848
344.8976, 25.65064
345.3797, 25.58521
345.8618, 25.67076
346.3439, 25.92723
346.8260, 26.20753
347.3081, 26.36530
347.7903, 26.41428
348.2724, 26.45049
348.7545, 26.48895
349.2366, 26.53740
349.7187, 26.60724
350.2008, 26.69950
350.6830, 26.81948
351.1651, 27.04835
351.6472, 27.30554
352.1293, 27.34132
352.6114, 27.02075
353.0935, 26.71620
353.5757, 26.98752
354.0578, 27.67681
354.5399, 28.23702
355.0220, 28.26978
355.5041, 28.04542
355.9862, 27.85640
356.4684, 27.72383
356.9505, 27.67882
357.4326, 27.81946
357.9147, 28.05333
358.3968, 28.23035
358.8789, 28.18639
359.3611, 28.14246
359.8432, 28.32043
360.3253, 28.70852
360.8074, 28.97361
361.2895, 28.81521
361.7716, 28.51735
362.2538, 28.34028
362.7359, 28.38144
363.2180, 28.52716
363.7001, 28.86348
364.1822, 29.30637
364.6643, 29.53880
365.1465, 29.19382
365.6286, 28.81863
366.1107, 28.72326
366.5928, 29.12599
367.0749, 29.45818
367.5570, 29.59162
368.0392, 29.60885
368.5213, 29.65246
369.0034, 29.75351
369.4855, 29.86417
369.9676, 30.03259
370.4497, 30.32848
370.9319, 30.30125
371.4140, 29.59936
371.8961, 28.79678
372.3782, 28.46800
372.8603, 28.86194
373.3424, 29.31113
373.8246, 29.81566
374.3067, 30.32824
374.7888, 30.43277
375.2709, 29.90083
375.7530, 29.33976
376.2351, 29.17164
376.7173, 29.51706
377.1994, 29.77193
377.6815, 29.91047
378.1636, 29.92860
378.6457, 29.74988
379.1278, 29.31648
379.6100, 28.99902
380.0921, 29.03097
380.5742, 29.39505
381.0563, 29.62948
381.5384, 29.71924
382.0205, 29.73472
382.5027, 29.82048
382.9848, 29.94929
383.4669, 29.83786
383.9490, 29.19200
384.4311, 28.34983
384.9132, 28.20674
385.3954, 28.73851
385.8775, 29.29780
386.3596, 29.30632
386.8417, 28.95955
387.3238, 28.66866
387.8059, 28.53849
388.2881, 28.45440
388.7702, 28.20807
389.2523, 27.88551
389.7344, 27.75024
390.2165, 28.17557
390.6986, 28.72972
391.1808, 28.98455
391.6629, 28.88011
392.1450, 28.64468
392.6271, 28.27945
393.1092, 27.91210
393.5913, 27.71407
394.0735, 27.97092
394.5556, 28.20629
395.0377, 28.14025
395.5198, 27.80281
396.0019, 27.55407
396.4840, 27.62527
396.9662, 27.75451
397.4483, 27.76684
397.9304, 27.53537
398.4125, 27.32065
398.8946, 27.11637
399.3767, 26.95318
399.8589, 26.90698
400.3410, 27.16643
400.8231, 27.36991
401.3052, 27.38601
401.7873, 27.14380
402.2694, 26.98841
402.7516, 26.95846
403.2337, 26.98628
403.7158, 27.00945
404.1979, 27.06867
404.6800, 27.02640
405.1621, 26.80254
405.6443, 26.43961
406.1264, 26.27691
406.6085, 26.37132
407.0906, 26.51315
407.5727, 26.57547
408.0548, 26.55836
408.5370, 26.43765
409.0191, 26.16986
409.5012, 25.87433
409.9833, 25.80850
410.4654, 25.96979
410.9475, 26.10547
411.4297, 26.06440
411.9118, 25.90021
412.3939, 25.78101
412.8760, 25.70664
413.3581, 25.70385
413.8402, 25.92062
414.3224, 26.23372
414.8045, 26.31134
415.2866, 25.89409
415.7687, 25.39955
416.2508, 25.40576
416.7329, 25.79933
417.2151, 26.07638
417.6972, 25.77051
418.1793, 25.29247
418.6614, 25.03705
419.1435, 25.09153
419.6256, 25.26293
420.1078, 25.57100
420.5899, 25.89849
421.0720, 26.08350
421.5541, 25.90455
422.0362, 25.72078
422.5183, 25.69220
423.0005, 25.82138
423.4826, 25.92933
423.9647, 25.95235
424.4468, 25.95415
424.9289, 25.97553
425.4110, 25.96563
425.8932, 26.04504
426.3753, 26.31116
426.8574, 26.66110
427.3395, 26.84286
427.8216, 26.68626
428.3037, 26.58957
428.7859, 26.72437
429.2680, 27.14947
429.7501, 27.37869
430.2322, 27.33349
430.7143, 27.20422
431.1964, 27.18888
431.6786, 27.29814
432.1607, 27.47925
432.6428, 27.76731
433.1249, 28.09566
433.6070, 28.23802
434.0891, 28.18527
434.5713, 28.05745
435.0534, 27.88161
435.5355, 27.68421
436.0176, 27.58747
436.4997, 27.60542
436.9818, 27.71066
437.4640, 27.97034
437.9461, 28.30896
438.4282, 28.48144
438.9103, 28.23169
439.3924, 27.86258
439.8745, 27.76691
440.3566, 27.91929
440.8387, 28.10403
441.3209, 28.23073
441.8030, 28.29331
442.2851, 28.26276
442.7672, 28.06532
443.2493, 27.92831
443.7314, 28.07968
444.2136, 28.36320
444.6957, 28.49234
445.1778, 28.20672
445.6599, 27.90362
446.1420, 27.73942
446.6241, 27.73209
447.1063, 27.75508
447.5884, 27.81845
448.0705, 27.88814
448.5526, 27.94072
449.0347, 28.04348
449.5168, 28.03025
449.9990, 27.83689
450.4811, 27.52810
450.9632, 27.28347
451.4453, 27.08594
451.9274, 26.98517
452.4095, 27.06086
452.8917, 27.34498
453.3738, 27.34097
453.8559, 26.95352
454.3380, 26.50469
454.8201, 26.36487
455.3022, 26.53786
455.7844, 26.74726
456.2665, 26.96716
456.7486, 27.14799
457.2307, 27.14462
457.7128, 26.97013
458.1949, 26.79560
458.6771, 26.74496
459.1592, 26.76802
459.6413, 26.75438
460.1234, 26.68867
460.6055, 26.64952
461.0876, 26.71656
461.5698, 26.85625
462.0519, 27.01242
462.5340, 27.20765
463.0161, 27.37391
463.4982, 27.46172
463.9803, 27.48110
464.4625, 27.47799
464.9446, 27.37381
465.4267, 27.32425
465.9088, 27.45181
466.3909, 27.86683
466.8730, 28.19556
467.3552, 28.32263
467.8373, 28.33841
468.3194, 28.35635
468.8015, 28.37345
469.2836, 28.40559
469.7657, 28.47285
470.2479, 28.56676
470.7300, 28.58452
471.2121, 28.43458
471.6942, 28.35078
472.1763, 28.51249
472.6584, 29.00116
473.1406, 29.29024
473.6227, 29.31159
474.1048, 29.22345
474.5869, 29.26956
475.0690, 29.45269
475.5511, 29.62637
476.0333, 29.74922
476.5154, 29.82834
476.9975, 29.88679
477.4796, 29.92420
477.9617, 29.92677
478.4438, 29.82025
478.9260, 29.68567
479.4081, 29.68639
479.8902, 29.86556
480.3723, 30.09271
480.8544, 30.20661
481.3365, 30.29774
481.8187, 30.52237
482.3008, 31.16630
482.7829, 31.76811
483.2650, 31.99177
483.7471, 31.89266
484.2292, 31.90803
484.7114, 32.38621
485.1935, 32.88169
485.6756, 33.09535
486.1577, 32.75204
486.6398, 32.62734
487.1219, 32.92600
487.6041, 33.42979
488.0862, 33.84522
488.5683, 34.06629
489.0504, 34.39271
489.5325, 34.93758
490.0146, 35.65779
490.4968, 36.14878
490.9789, 36.29081
491.4610, 36.50436
491.9431, 37.13258
492.4252, 38.17505
492.9073, 39.02342
493.3895, 39.62114
493.8716, 40.10450
494.3537, 40.60398
494.8358, 41.13472
495.3179, 41.82412
495.8000, 42.79595
496.2822, 43.87528
496.7643, 44.73129
497.2464, 45.41990
497.7285, 46.21262
498.2106, 47.32212
498.6927, 48.61201
499.1749, 50.00054
499.6570, 51.49898
500.1391, 52.92823
500.6212, 54.11395
501.1033, 55.19711
501.5854, 56.35905
502.0676, 57.63461
502.5497, 58.99213
503.0318, 60.54638
503.5139, 62.23145
503.9960, 63.66844
504.4781, 64.52930
504.9603, 65.47304
505.4424, 66.76724
505.9245, 68.52850
506.4066, 70.21928
506.8887, 71.85091
507.3708, 73.39409
507.8530, 74.81180
508.3351, 76.05317
508.8172, 77.36674
509.2993, 78.83878
509.7814, 80.36377
510.2635, 81.70614
510.7457, 82.87650
511.2278, 83.86977
511.7099, 84.65034
512.1920, 85.25466
512.6741, 85.78373
513.1563, 86.23959
513.6384, 86.61979
514.1205, 87.03292
514.6026, 87.33767
515.0847, 87.31104
515.5668, 86.80922
516.0490, 86.12773
516.5311, 85.43446
517.0132, 84.69551
517.4953, 83.84159
517.9774, 82.79218
518.4595, 81.67645
518.9417, 80.48914
519.4238, 79.21800
519.9059, 78.11617
520.3880, 77.42908
520.8701, 76.74175
521.3522, 75.81560
521.8344, 74.51450
522.3165, 73.24644
522.7986, 72.00620
523.2807, 70.79655
523.7628, 69.65874
524.2449, 68.58560
524.7271, 67.57290
525.2092, 66.67638
525.6913, 65.82336
526.1734, 64.63980
526.6555, 63.11818
527.1376, 61.64255
527.6198, 60.51958
528.1019, 59.65520
528.5840, 58.83280
529.0661, 58.04460
529.5482, 57.26563
530.0303, 56.51936
530.5125, 55.76162
530.9946, 54.90199
531.4767, 53.88047
531.9588, 52.81082
532.4409, 51.69083
532.9230, 50.56995
533.4052, 49.55666
533.8873, 48.75242
534.3694, 48.01430
534.8515, 47.28727
535.3336, 46.54718
535.8157, 45.90357
536.2979, 45.54597
536.7800, 45.10957
537.2621, 44.27490
537.7442, 42.75194
538.2263, 41.61230
538.7084, 41.03366
539.1906, 40.74799
539.6727, 40.21827
540.1548, 39.41484
540.6369, 38.66083
541.1190, 38.09935
541.6011, 37.65844
542.0833, 37.12663
542.5654, 36.50877
543.0475, 35.91100
543.5296, 35.40383
544.0117, 34.96862
544.4938, 34.60601
544.9760, 34.33037
545.4581, 34.00625
545.9402, 33.48535
546.4223, 32.87025
546.9044, 32.29227
547.3865, 31.80362
547.8687, 31.34826
548.3508, 30.88137
548.8329, 30.42925
549.3150, 30.07637
549.7971, 29.95641
550.2792, 29.81834
550.7614, 29.57100
551.2435, 29.20477
551.7256, 28.88939
552.2077, 28.64957
552.6898, 28.42820
553.1719, 28.16371
553.6541, 27.83954
554.1362, 27.64039
554.6183, 27.63886
555.1004, 27.64367
555.5825, 27.26537
556.0646, 26.56946
556.5468, 26.00764
557.0289, 25.79727
557.5110, 25.76695
557.9931, 25.69890
558.4752, 25.59039
558.9573, 25.43211
559.4395, 25.08341
559.9216, 24.76733
560.4037, 24.74661
560.8858, 25.09683
561.3679, 25.30337
561.8500, 25.02151
562.3322, 24.57545
562.8143, 24.24289
563.2964, 24.18799
563.7785, 24.10349
564.2606, 23.92561
564.7427, 23.71975
565.2249, 23.63138
565.7070, 23.74869
566.1891, 23.78994
566.6712, 23.63576
567.1533, 23.33314
567.6354, 23.19740
568.1176, 23.25161
568.5997, 23.32917
569.0818, 23.33537
569.5639, 23.27235
570.0460, 23.10200
570.5281, 22.80459
571.0103, 22.57384
571.4924, 22.69422
571.9745, 22.99892
572.4566, 23.19823
572.9387, 23.18387
573.4208, 23.07528
573.9030, 22.86185
574.3851, 22.61364
574.8672, 22.48197
575.3493, 22.72821
575.8314, 22.89490
576.3135, 22.71475
576.7957, 22.18236
577.2778, 21.92951
577.7599, 22.19197
578.2420, 22.49249
578.7241, 22.57397
579.2062, 22.36804
579.6884, 22.23045
580.1705, 22.17940
580.6526, 22.15842
581.1347, 22.07789
581.6168, 21.94203
582.0989, 21.90467
582.5811, 22.03855
583.0632, 22.21236
583.5453, 22.17617
584.0274, 21.98869
584.5095, 21.86636
584.9916, 22.04608
585.4738, 22.25359
585.9559, 22.14931
586.4380, 21.77902
586.9201, 21.55012
587.4022, 21.83260
587.8843, 22.18583
588.3664, 22.29763
588.8485, 22.01770
589.3306, 21.85380
589.8127, 22.01534
590.2949, 22.22680
590.7770, 22.23779
591.2591, 21.94287
591.7412, 21.68466
592.2233, 21.47449
592.7054, 21.33758
593.1876, 21.37816
593.6697, 21.61668
594.1518, 21.77194
594.6339, 21.68605
595.1160, 21.47001
595.5981, 21.39956
596.0803, 21.46416
596.5624, 21.56280
597.0445, 21.62839
597.5266, 21.68913
598.0087, 21.79660
598.4908, 21.96207
598.9730, 22.08023
599.4551, 22.05563
599.9372, 21.97573
600.4193, 21.92143
600.9014, 21.92487
601.3835, 21.93015
601.8657, 21.89826
602.3478, 21.87350
602.8299, 21.93140
603.3120, 22.13894
603.7941, 22.30413
604.2762, 22.40709
604.7584, 22.43552
605.2405, 22.28202
605.7226, 21.90623
606.2047, 21.63830
606.6868, 21.71750
607.1689, 22.04183
607.6511, 22.27481
608.1332, 22.41564
608.6153, 22.51517
609.0974, 22.60416
609.5795, 22.68306
610.0616, 22.75541
610.5438, 22.82517
611.0259, 22.87504
611.5080, 22.89927
611.9901, 22.89618
612.4722, 22.86382
612.9543, 22.68833
613.4365, 22.61806
613.9186, 22.76180
614.4007, 23.02917
614.8828, 23.22345
615.3649, 23.34127
615.8470, 23.38501
616.3292, 23.33085
616.8113, 23.19806
617.2934, 23.12476
617.7755, 23.11479
618.2576, 23.12573
618.7397, 23.16740
619.2219, 23.20521
619.7040, 23.10025
620.1861, 22.83570
620.6682, 22.61196
621.1503, 22.68822
621.6324, 22.86967
622.1146, 22.90699
622.5967, 22.69187
623.0788, 22.43827
623.5609, 22.19007
624.0430, 21.97425
624.5251, 21.82930
625.0073, 21.87944
625.4894, 21.85701
625.9715, 21.67763
626.4536, 21.40330
626.9357, 21.24129
627.4178, 21.22683
627.9000, 21.23673
628.3821, 21.27166
628.8642, 21.29874
629.3463, 21.04693
629.8284, 20.50909
630.3105, 19.98083
630.7927, 19.67588
631.2748, 19.53575
631.7569, 19.47835
632.2390, 19.50307
632.7211, 19.51544
633.2032, 19.40823
633.6854, 19.26851
634.1675, 19.19940
634.6496, 19.29892
635.1317, 19.33923
635.6138, 19.26153
636.0959, 19.08810
636.5781, 18.84172
637.0602, 18.33180
637.5423, 18.07897
638.0244, 18.27319
638.5065, 18.73788
638.9886, 18.90091
639.4708, 18.71921
639.9529, 18.51449
640.4350, 18.44989
640.9171, 18.46459
641.3992, 18.31317
641.8813, 18.01384
642.3635, 17.80674
642.8456, 17.99424
643.3277, 18.30485
643.8098, 18.41279
644.2919, 18.27183
644.7740, 18.07074
645.2562, 17.80715
645.7383, 17.58553
646.2204, 17.50531
646.7025, 17.70778
647.1846, 17.83504
647.6667, 17.78899
648.1489, 17.71000
648.6310, 17.81846
649.1131, 18.23488
649.5952, 18.40291
650.0773, 18.15460
650.5594, 17.69407
651.0416, 17.47199
651.5237, 17.47451
652.0058, 17.49150
652.4879, 17.42966
652.9700, 17.32995
653.4521, 17.22263
653.9343, 17.12034
654.4164, 17.08801
654.8985, 17.29983
655.3806, 17.48892
655.8627, 17.40273
656.3448, 16.99751
656.8270, 16.76224
657.3091, 16.98851
657.7912, 17.26544
658.2733, 17.34085
658.7554, 17.09964
659.2375, 17.03701
659.7197, 17.24029
660.2018, 17.47313
660.6839, 17.45465
661.1660, 17.19130
661.6481, 16.93502
662.1302, 16.68981
662.6124, 16.56801
663.0945, 16.87135
663.5766, 17.42221
664.0587, 17.77252
664.5408, 17.66648
665.0229, 17.40418
665.5051, 17.08689
665.9872, 16.76929
666.4693, 16.58631
666.9514, 16.75750
667.4335, 16.88850
667.9156, 16.77576
668.3978, 16.46904
668.8799, 16.36949
669.3620, 16.57857
669.8441, 16.80138
670.3262, 16.92150
670.8083, 16.93969
671.2905, 16.81127
671.7726, 16.51228
672.2547, 16.29688
672.7368, 16.52327
673.2189, 16.96085
673.7010, 17.09490
674.1832, 16.84048
674.6653, 16.56186
675.1474, 16.50203
675.6295, 16.56891
676.1116, 16.67319
676.5938, 16.84674
677.0759, 16.95889
677.5580, 16.90599
678.0401, 16.80667
678.5222, 16.82750
679.0043, 17.07911
679.4865, 17.20510
679.9686, 17.10754
680.4507, 16.90316
680.9328, 16.84209
681.4149, 16.92441
681.8970, 17.06239
682.3792, 17.26177
682.8613, 17.46273
683.3434, 17.58318
683.8255, 17.61984
684.3076, 17.56749
684.7897, 17.30736
685.2719, 17.04978
685.7540, 16.95291
686.2361, 17.01474
686.7182, 17.10409
687.2003, 17.27353
687.6824, 17.38283
688.1646, 17.34765
688.6467, 17.13602
689.1288, 17.01089
689.6109, 16.99435
690.0930, 17.01850
690.5751, 17.04329
691.0573, 17.06647
691.5394, 17.04824
692.0215, 16.97870
692.5036, 16.92069
692.9857, 16.96765
693.4678, 17.06537
693.9500, 17.11857
694.4321, 17.09571
694.9142, 17.05102
695.3963, 16.97150
695.8784, 16.90478
696.3605, 16.91277
696.8427, 17.09941
697.3248, 17.24468
697.8069, 17.29541
698.2890, 17.30395
698.7711, 17.38606
699.2532, 17.56953
699.7354, 17.72314
700.2175, 17.82825
700.6996, 17.87017
701.1817, 17.74428
701.6638, 17.48530
702.1459, 17.33211
702.6281, 17.49019
703.1102, 17.76353
703.5923, 17.97557
704.0744, 18.12411
704.5565, 18.20916
705.0386, 18.18690
705.5208, 18.13909
706.0029, 18.09873
706.4850, 18.06800
706.9671, 18.05675
707.4492, 18.06535
707.9313, 18.09227
708.4135, 18.14239
708.8956, 18.21772
709.3777, 18.26488
709.8598, 18.27441
710.3419, 18.31582
710.8240, 18.51414
711.3062, 18.78444
711.7883, 18.90624
712.2704, 18.83794
712.7525, 18.75536
713.2346, 18.75511
713.7167, 18.82755
714.1989, 18.97807
714.6810, 19.30149
715.1631, 19.52123
715.6452, 19.52408
716.1273, 19.43351
716.6094, 19.36479
717.0916, 19.30264
717.5737, 19.31060
718.0558, 19.40280
718.5379, 19.55930
719.0200, 19.76282
719.5021, 20.00579
719.9843, 20.24596
720.4664, 20.48045
720.9485, 20.68485
721.4306, 20.84793
721.9127, 20.95608
722.3948, 20.97211
722.8770, 20.75621
723.3591, 20.57462
723.8412, 20.55020
724.3233, 20.65617
724.8054, 20.76995
725.2875, 20.86604
725.7697, 21.00137
726.2518, 21.21661
726.7339, 21.48246
727.2160, 21.64368
727.6981, 21.69105
728.1802, 21.74141
728.6624, 21.87347
729.1445, 22.05062
729.6266, 22.21847
730.1087, 22.36959
730.5908, 22.45781
731.0729, 22.38479
731.5551, 22.29208
732.0372, 22.31755
732.5193, 22.48698
733.0014, 22.53883
733.4835, 22.21556
733.9656, 21.95588
734.4478, 22.01500
734.9299, 22.46947
735.4120, 22.70892
735.8941, 22.70001
736.3762, 22.59143
736.8583, 22.50529
737.3405, 22.42706
737.8226, 22.28030
738.3047, 22.04856
738.7868, 21.85613
739.2689, 21.86176
739.7510, 21.93921
740.2332, 21.93254
740.7153, 21.75631
741.1974, 21.63807
741.6795, 21.69305
742.1616, 21.80772
742.6437, 21.88445
743.1259, 21.96452
743.6080, 21.88084
744.0901, 21.56880
744.5722, 21.18527
745.0543, 20.94756
745.5364, 20.84333
746.0186, 20.78154
746.5007, 20.75376
746.9828, 20.72582
747.4649, 20.61809
747.9470, 20.49175
748.4291, 20.45187
748.9113, 20.58822
749.3934, 20.75345
749.8755, 20.95448
750.3576, 21.13837
750.8397, 21.19541
751.3218, 21.04115
751.8040, 20.91960
752.2861, 20.87525
752.7682, 20.88398
753.2503, 20.87762
753.7324, 20.85816
754.2145, 20.89527
754.6967, 21.04380
755.1788, 21.22526
755.6609, 21.30861
756.1430, 21.32956
756.6251, 21.38555
757.1072, 21.51278
757.5894, 21.69423
758.0715, 21.97194
758.5536, 22.31005
759.0357, 22.55073
759.5178, 22.58689
759.9999, 22.68457
760.4821, 22.91736
760.9642, 23.27130
761.4463, 23.71166
761.9284, 24.24180
762.4105, 24.73895
762.8926, 25.11829
763.3748, 25.43780
763.8569, 25.77283
764.3390, 26.13478
764.8211, 26.55732
765.3032, 27.13513
765.7853, 27.71408
766.2675, 28.18550
766.7496, 28.54597
767.2317, 29.00443
767.7138, 29.64286
768.1959, 30.27280
768.6780, 30.77143
769.1602, 31.16187
769.6423, 31.74601
770.1244, 32.53197
770.6065, 33.40232
771.0886, 34.41033
771.5707, 35.39864
772.0529, 36.03036
772.5350, 36.31688
773.0171, 36.58232
773.4992, 37.01624
773.9813, 37.48965
774.4634, 37.96075
774.9456, 38.44736
775.4277, 38.70771
775.9098, 38.60766
776.3919, 38.46022
776.8740, 38.47333
777.3561, 38.65253
777.8383, 38.57957
778.3204, 38.23387
778.8025, 37.86498
779.2846, 37.78231
779.7667, 37.77816
780.2488, 37.50358
780.7310, 36.92568
781.2131, 36.16654
781.6952, 34.96796
782.1773, 33.84279
782.6594, 33.21673
783.1415, 33.34645
783.6237, 33.20091
784.1058, 32.64575
784.5879, 32.00673
785.0699, 31.52402
785.5521, 31.19447
786.0342, 30.84044
786.5163, 30.45437
786.9984, 30.05927
787.4805, 29.60971
787.9626, 29.18889
788.4448, 28.91663
788.9269, 28.81742
789.4090, 28.78315
789.8911, 28.92121
790.3732, 28.99484
790.8553, 28.77925
791.3375, 28.10113
791.8196, 27.64877
792.3017, 27.49129
792.7838, 27.42302
793.2659, 27.25919
793.7480, 27.01358
794.2302, 26.82567
794.7123, 26.70231
795.1944, 26.67164
795.6765, 26.85913
796.1586, 27.10474
796.6407, 27.20950
797.1229, 27.12847
797.6050, 26.96514
798.0871, 26.53149
798.5692, 26.19195
799.0513, 26.28061
799.5334, 27.07516
800.0156, 27.36003
800.4977, 26.97636
800.9798, 26.47805
801.4619, 26.42373
801.9440, 26.72608
802.4261, 26.97201
802.9083, 27.11630
803.3904, 27.27637
803.8725, 27.60872
804.3546, 27.97715
804.8367, 28.22881
805.3188, 28.30427
805.8010, 28.38518
806.2831, 28.50561
806.7652, 28.64888
807.2473, 28.80134
807.7294, 28.95898
808.2115, 29.13514
808.6937, 29.31689
809.1758, 29.57062
809.6579, 30.11273
810.1400, 30.75999
810.6221, 30.96527
811.1042, 30.63950
811.5864, 30.32581
812.0685, 30.46595
812.5506, 30.73133
813.0327, 30.82587
813.5148, 30.61117
813.9969, 30.54373
814.4791, 30.69663
814.9612, 30.93142
815.4433, 31.21272
815.9254, 31.54758
816.4075, 31.55483
816.8896, 31.19397
817.3718, 30.80005
817.8539, 30.71092
818.3360, 30.77396
818.8181, 30.75174
819.3002, 30.61129
819.7823, 30.48502
820.2645, 30.39212
820.7466, 30.36706
821.2287, 30.46815
821.7108, 30.74611
822.1929, 30.86655
822.6750, 30.78729
823.1572, 30.65780
823.6393, 30.57432
824.1214, 30.53330
824.6035, 30.53897
825.0856, 30.59048
825.5677, 30.61180
826.0499, 30.51203
826.5320, 30.37477
827.0141, 30.25884
827.4962, 30.16901
827.9783, 30.15278
828.4604, 30.42690
828.9426, 30.57393
829.4247, 30.36002
829.9068, 29.77497
830.3889, 29.32741
830.8710, 29.03388
831.3531, 28.76328
831.8353, 28.44213
832.3174, 28.07777
832.7995, 27.67078
833.2816, 27.22875
833.7637, 26.81537
834.2458, 26.48805
834.7280, 26.18236
835.2101, 25.85854
835.6922, 25.51515
836.1743, 25.18584
836.6564, 24.89179
837.1385, 24.55580
837.6207, 24.09299
838.1028, 23.56836
838.5849, 23.36772
839.0670, 23.46042
839.5491, 23.44381
840.0313, 22.92281
840.5134, 22.29306
840.9955, 21.93517
841.4776, 21.81241
841.9597, 21.68201
842.4418, 21.43048
842.9240, 21.20855
843.4061, 21.06932
843.8882, 20.99348
844.3703, 20.90556
844.8524, 20.80783
845.3345, 20.67099
845.8167, 20.44986
846.2988, 20.21746
846.7809, 20.15268
847.2630, 20.19297
847.7451, 20.15227
848.2272, 19.82302
848.7094, 19.52131
849.1915, 19.42804
849.6736, 19.46588
850.1557, 19.41639
850.6378, 19.22915
851.1199, 19.05881
851.6021, 18.93732
852.0842, 18.84445
852.5663, 18.72592
853.0484, 18.59486
853.5305, 18.51914
854.0126, 18.53118
854.4948, 18.58322
854.9769, 18.72885
855.4590, 18.85710
855.9411, 18.80170
856.4232, 18.26910
856.9053, 17.88744
857.3875, 17.71731
857.8696, 17.70159
858.3517, 17.81504
858.8338, 18.06847
859.3159, 18.19718
859.7980, 18.14994
860.2802, 18.03071
860.7623, 17.94916
861.2444, 17.87792
861.7265, 17.75638
862.2086, 17.53653
862.6907, 17.38859
863.1729, 17.38797
863.6550, 17.48479
864.1371, 17.65948
864.6192, 18.00294
865.1013, 18.07699
865.5834, 17.82542
866.0656, 17.50058
866.5477, 17.30608
867.0298, 17.21987
867.5119, 17.21490
867.9940, 17.28879
868.4761, 17.30768
868.9583, 17.09137
869.4404, 16.86262
869.9225, 16.79922
870.4046, 16.94988
870.8867, 17.02356
871.3688, 16.99368
871.8510, 16.93533
872.3331, 16.87567
872.8152, 16.82043
873.2973, 16.79765
873.7794, 16.80743
874.2615, 16.84643
874.7437, 16.95077
875.2258, 17.05235
875.7079, 17.10596
876.1900, 17.10900
876.6721, 17.06121
877.1542, 16.92718
877.6364, 16.78076
878.1185, 16.62287
878.6006, 16.46944
879.0827, 16.39597
879.5648, 16.40231
880.0469, 16.38404
880.5291, 16.25708
881.0112, 16.15117
881.4933, 16.30323
881.9754, 16.59223
882.4575, 16.76942
882.9396, 16.65144
883.4218, 16.52389
883.9039, 16.45545
884.3860, 16.41045
884.8681, 16.33621
885.3502, 16.22587
885.8323, 16.12078
886.3145, 16.01801
886.7966, 15.95048
887.2787, 15.99767
887.7608, 16.10161
888.2429, 16.13739
888.7250, 16.03952
889.2072, 16.01266
889.6893, 16.32083
890.1714, 16.61730
890.6535, 16.57683
891.1356, 16.06509
891.6177, 15.72965
892.0999, 15.58970
892.5820, 15.55044
893.0641, 15.55339
893.5462, 15.59170
894.0283, 15.68466
894.5104, 15.82364
894.9926, 15.87420
895.4747, 15.58664
895.9568, 15.32811
896.4389, 15.37892
896.9210, 15.75051
897.4031, 15.99996
897.8853, 16.11298
898.3674, 16.13662
898.8495, 16.07941
899.3316, 15.95547
899.8137, 15.78196
900.2958, 15.57201
900.7780, 15.38230
901.2601, 15.17516
901.7422, 15.06677
902.2243, 15.24872
902.7064, 15.58070
903.1885, 15.68172
903.6707, 15.32532
904.1528, 15.12108
904.6349, 15.18668
905.1170, 15.40650
905.5991, 15.64723
906.0812, 15.87897
906.5634, 15.92669
907.0455, 15.69351
907.5276, 15.46383
908.0097, 15.54762
908.4918, 15.73155
908.9739, 15.76705
909.4561, 15.50027
909.9382, 15.31344
910.4203, 15.24425
910.9024, 15.21352
911.3845, 15.13237
911.8666, 15.01611
912.3488, 15.08409
912.8309, 15.34697
913.3130, 15.51379
913.7951, 15.21682
914.2772, 14.83055
914.7593, 14.72111
915.2415, 14.90789
915.7236, 15.04963
916.2057, 15.10337
916.6878, 15.09117
917.1699, 14.99581
917.6520, 14.84503
918.1342, 14.74423
918.6163, 14.69553
919.0984, 14.73226
919.5805, 14.96164
920.0626, 15.18287
920.5447, 15.13793
921.0269, 14.94755
921.5090, 14.86657
921.9911, 15.10230
922.4732, 15.26692
922.9553, 15.33797
923.4374, 15.30405
923.9196, 15.05346
924.4017, 14.61110
924.8838, 14.50845
925.3659, 14.88772
925.8480, 15.26641
926.3301, 15.08722
926.8123, 14.70082
927.2944, 14.50013
927.7765, 14.59352
928.2586, 14.71936
928.7407, 14.90652
929.2228, 15.03310
929.7050, 14.98378
930.1871, 14.77580
930.6692, 14.73775
931.1513, 14.86577
931.6334, 14.97584
932.1155, 14.91525
932.5977, 14.80096
933.0798, 14.76344
933.5619, 14.77742
934.0440, 14.69983
934.5261, 14.31260
935.0082, 14.09251
935.4904, 14.19601
935.9725, 14.48215
936.4546, 14.61661
936.9367, 14.61226
937.4188, 14.59388
937.9009, 14.57718
938.3831, 14.61024
938.8652, 14.85788
939.3473, 15.13586
939.8294, 15.18748
940.3115, 14.77818
940.7936, 14.45855
941.2758, 14.22607
941.7579, 14.11814
942.2400, 14.25848
942.7221, 14.59645
943.2042, 14.65815
943.6863, 14.41903
944.1685, 14.17333
944.6506, 14.15467
945.1327, 14.21271
945.6148, 14.23818
946.0969, 14.22245
946.5790, 14.17942
947.0612, 14.06809
947.5433, 14.01083
948.0254, 14.05453
948.5075, 14.17657
948.9896, 14.37439
949.4717, 14.61014
949.9539, 14.68291
950.4360, 14.40788
950.9181, 14.09215
951.4002, 13.89600
951.8823, 13.80831
952.3644, 13.82259
952.8466, 13.99118
953.3287, 14.15331
953.8108, 14.33619
954.2929, 14.43816
954.7750, 14.25234
955.2571, 13.89301
955.7393, 13.74058
956.2214, 13.83643
956.7035, 13.98943
957.1856, 14.13037
957.6677, 14.24142
958.1498, 14.29642
958.6320, 14.29491
959.1141, 14.32450
959.5962, 14.39978
960.0783, 14.45263
960.5604, 14.43319
961.0425, 14.38854
961.5247, 14.47805
962.0068, 14.63548
962.4889, 14.66323
962.9710, 14.26091
963.4531, 13.95866
963.9352, 14.08793
964.4174, 14.37346
964.8995, 14.39805
965.3816, 14.07730
965.8637, 13.89935
966.3458, 13.92550
966.8279, 14.02762
967.3101, 14.14027
967.7922, 14.20542
968.2743, 14.07347
968.7564, 13.70995
969.2385, 13.46400
969.7206, 13.60305
970.2028, 13.74911
970.6849, 13.70285
971.1670, 13.49869
971.6491, 13.44040
972.1312, 13.52973
972.6133, 13.68615
973.0955, 13.94561
973.5776, 14.16962
974.0597, 14.16338
974.5418, 14.00459
975.0239, 13.85015
975.5060, 13.72296
975.9882, 13.63603
976.4703, 13.58782
976.9524, 13.58244
977.4345, 13.67122
977.9166, 13.83125
978.3987, 13.81285
978.8809, 13.57953
979.3630, 13.34791
979.8451, 13.24080
980.3272, 13.25604
980.8093, 13.44886
981.2914, 13.83815
981.7736, 14.07074
982.2557, 14.10984
982.7377, 14.04611
983.2198, 13.87182
983.7020, 13.65357
984.1841, 13.56588
984.6662, 13.59426
985.1483, 13.68878
985.6304, 13.93819
986.1125, 14.10356
986.5947, 13.94841
987.0768, 13.69447
987.5589, 13.69013
988.0410, 14.08195
988.5231, 14.16007
989.0052, 13.83525
989.4874, 13.42988
989.9695, 13.21738
990.4516, 13.16362
990.9337, 13.25725
991.4158, 13.48843
991.8979, 13.66876
992.3801, 13.71897
992.8622, 13.69917
993.3443, 13.58815
993.8264, 13.43359
994.3085, 13.51855
994.7906, 13.83588
995.2728, 13.94141
995.7549, 13.53926
996.2370, 13.11906
996.7191, 13.31657
997.2012, 13.79026
997.6833, 14.04667
998.1655, 13.77932
998.6476, 13.61691
999.1297, 13.60156
999.6118, 13.64820
1000.094, 13.71259
1000.576, 13.77864
1001.058, 13.72567
1001.540, 13.56397
1002.022, 13.47176
1002.505, 13.65494
1002.987, 13.85890
1003.469, 13.91044
1003.951, 13.84152
1004.433, 13.81631
1004.915, 13.85127
1005.397, 13.85774
1005.879, 13.79939
1006.361, 13.74067
1006.844, 13.79922
1007.326, 13.92116
1007.808, 14.00714
1008.290, 14.02192
1008.772, 14.03800
1009.254, 14.09256
1009.736, 14.14031
1010.218, 14.12844
1010.701, 14.05942
1011.183, 14.18920
1011.665, 14.51307
1012.147, 14.76759
1012.629, 14.74245
1013.111, 14.61348
1013.593, 14.50883
1014.075, 14.42794
1014.557, 14.36198
1015.040, 14.25480
1015.522, 14.28552
1016.004, 14.54723
1016.486, 14.81473
1016.968, 14.69464
1017.450, 14.32947
1017.932, 14.16460
1018.414, 14.27398
1018.896, 14.44208
1019.379, 14.63454
1019.861, 14.76721
1020.343, 14.76630
1020.825, 14.64843
1021.307, 14.56707
1021.789, 14.52329
1022.271, 14.50233
1022.753, 14.48570
1023.236, 14.50611
1023.718, 14.66040
1024.200, 14.86956
1024.682, 14.99408
1025.164, 14.94427
1025.646, 14.87738
1026.128, 14.76720
1026.610, 14.70228
1027.093, 14.80362
1027.575, 15.03479
1028.057, 15.17988
1028.539, 15.22761
1029.021, 15.15989
1029.503, 14.72532
1029.985, 14.39938
1030.467, 14.63036
1030.949, 15.23543
1031.432, 15.45392
1031.914, 15.17622
1032.396, 14.97484
1032.878, 14.98043
1033.360, 15.08355
1033.842, 15.19385
1034.324, 15.27695
1034.806, 15.26939
1035.288, 15.14184
1035.771, 15.00552
1036.253, 14.80673
1036.735, 14.70824
1037.217, 14.85383
1037.699, 15.17393
1038.181, 15.20465
1038.663, 14.97662
1039.145, 14.72683
1039.628, 14.49801
1040.110, 14.37286
1040.592, 14.50427
1041.074, 14.74014
1041.556, 14.82801
1042.038, 14.73161
1042.520, 14.55443
1043.002, 14.27448
1043.484, 14.02725
1043.967, 13.97637
1044.449, 14.02656
1044.931, 13.99308
1045.413, 13.88200
1045.895, 13.87634
1046.377, 14.21622
1046.859, 14.44977
1047.341, 14.41820
1047.823, 14.22775
1048.306, 14.13800
1048.788, 14.13148
1049.270, 14.08466
1049.752, 13.95860
1050.234, 13.82583
1050.716, 13.68667
1051.198, 13.60472
1051.680, 13.68523
1052.163, 13.95728
1052.645, 14.05453
1053.127, 13.95472
1053.609, 13.79280
1054.091, 13.59901
1054.573, 13.42575
1055.055, 13.38618
1055.537, 13.43313
1056.020, 13.45679
1056.502, 13.44625
1056.984, 13.36322
1057.466, 13.15533
1057.948, 12.94527
1058.430, 12.85402
1058.912, 12.87384
1059.394, 13.00533
1059.876, 13.23790
1060.359, 13.38670
1060.841, 13.29817
1061.323, 13.12041
1061.805, 12.86045
1062.287, 12.58767
1062.769, 12.54743
1063.251, 12.78287
1063.733, 12.94960
1064.215, 12.96827
1064.698, 12.91809
1065.180, 12.83052
1065.662, 12.76264
1066.144, 12.84516
1066.626, 13.16354
1067.108, 13.16621
1067.590, 12.61617
1068.072, 12.13525
1068.555, 12.01771
1069.037, 12.16860
1069.519, 12.42294
1070.001, 12.71989
1070.483, 12.84668
1070.965, 12.58304
1071.447, 12.35208
1071.929, 12.35286
1072.411, 12.43760
1072.894, 12.47676
1073.376, 12.46722
1073.858, 12.45494
1074.340, 12.44100
1074.822, 12.40589
1075.304, 12.27904
1075.786, 12.17501
1076.268, 12.21942
1076.750, 12.37125
1077.233, 12.48799
1077.715, 12.57306
1078.197, 12.58626
1078.679, 12.50876
1079.161, 12.40274
1079.643, 12.35262
1080.125, 12.32539
1080.607, 12.25241
1081.090, 12.12451
1081.572, 12.02956
1082.054, 11.99427
1082.536, 12.00442
1083.018, 12.08958
1083.500, 12.19387
1083.982, 12.10612
1084.464, 11.87997
1084.946, 11.79526
1085.429, 11.98984
1085.911, 12.16510
1086.393, 12.10822
1086.875, 11.98324
1087.357, 11.93936
1087.839, 11.98520
1088.321, 11.96465
1088.803, 11.87362
1089.286, 11.78897
1089.768, 11.77379
1090.250, 11.76238
1090.732, 11.62211
1091.214, 11.45212
1091.696, 11.45055
1092.178, 11.79252
1092.660, 12.00791
1093.142, 12.08010
1093.625, 12.04219
1094.107, 11.83427
1094.589, 11.57381
1095.071, 11.50821
1095.553, 11.62348
1096.035, 11.77390
1096.517, 12.01863
1096.999, 12.11968
1097.481, 11.93839
1097.964, 11.68887
1098.446, 11.79627
1098.928, 12.17105
1099.410, 12.35325
1099.892, 12.26977
1100.374, 12.05209
1100.856, 11.57627
1101.338, 11.18661
1101.821, 11.14033
1102.303, 11.36550
1102.785, 11.57047
1103.267, 11.75537
1103.749, 11.85365
1104.231, 11.81511
1104.713, 11.76567
1105.195, 11.88208
1105.677, 12.02725
1106.160, 12.02984
1106.642, 11.82642
1107.124, 11.70395
1107.606, 11.68952
1108.088, 11.64703
1108.570, 11.46220
1109.052, 11.24848
1109.534, 11.19942
1110.016, 11.26870
1110.499, 11.35855
1110.981, 11.45715
1111.463, 11.54949
1111.945, 11.65689
1112.427, 11.72009
1112.909, 11.65964
1113.391, 11.51706
1113.873, 11.43936
1114.356, 11.42248
1114.838, 11.42130
1115.320, 11.37708
1115.802, 11.39526
1116.284, 11.59369
1116.766, 11.80406
1117.248, 11.75244
1117.730, 11.46117
1118.213, 11.26081
1118.695, 11.18409
1119.177, 11.22802
1119.659, 11.57955
1120.141, 11.87807
1120.623, 11.76965
1121.105, 11.40345
1121.587, 11.35507
1122.069, 11.66877
1122.552, 11.85683
1123.034, 11.80975
1123.516, 11.65252
1123.998, 11.42517
1124.480, 11.21538
1124.962, 11.12805
1125.444, 11.18738
1125.926, 11.23448
1126.408, 11.26878
1126.891, 11.28659
1127.373, 11.28495
1127.855, 11.26921
1128.337, 11.21775
1128.819, 11.16842
1129.301, 11.19362
1129.783, 11.34500
1130.265, 11.46394
1130.748, 11.55927
1131.230, 11.57391
1131.712, 11.41966
1132.194, 11.19235
1132.676, 11.18607
1133.158, 11.34281
1133.640, 11.49247
1134.122, 11.59298
1134.604, 11.64208
1135.087, 11.64012
1135.569, 11.58809
1136.051, 11.44272
1136.533, 11.23164
1137.015, 11.19101
1137.497, 11.30272
1137.979, 11.41566
1138.461, 11.46988
1138.943, 11.48173
1139.426, 11.42363
1139.908, 11.34624
1140.390, 11.31470
1140.872, 11.32961
1141.354, 11.33959
1141.836, 11.34097
1142.318, 11.36339
1142.800, 11.53468
1143.283, 11.63494
1143.765, 11.37805
1144.247, 10.93866
1144.729, 10.86734
1145.211, 11.22198
1145.693, 11.49944
1146.175, 11.62567
1146.657, 11.64523
1147.140, 11.53920
1147.622, 11.39082
1148.104, 11.25202
1148.586, 11.13979
1149.068, 11.18077
1149.550, 11.46047
1150.032, 11.52598
1150.514, 11.20431
1150.996, 10.80442
1151.479, 10.73171
1151.961, 10.83617
1152.443, 10.94598
1152.925, 11.04186
1153.407, 11.08192
1153.889, 11.05458
1154.371, 10.99608
1154.853, 10.89350
1155.335, 10.80922
1155.818, 10.89283
1156.300, 11.07050
1156.782, 11.20792
1157.264, 11.26288
1157.746, 11.32011
1158.228, 11.45335
1158.710, 11.46850
1159.192, 11.19617
1159.675, 10.78179
1160.157, 10.59130
1160.639, 10.57971
1161.121, 10.63002
1161.603, 10.72777
1162.085, 10.83833
1162.567, 10.98803
1163.049, 11.10249
1163.531, 11.11906
1164.014, 11.05685
1164.496, 10.99202
1164.978, 10.92924
1165.460, 10.88621
1165.942, 10.89261
1166.424, 10.89175
1166.906, 10.83919
1167.388, 10.80028
1167.870, 10.87458
1168.353, 11.03573
1168.835, 11.03946
1169.317, 10.88854
1169.799, 10.67405
1170.281, 10.22365
1170.763, 9.981553
1171.245, 10.37344
1171.727, 10.93112
1172.210, 11.01317
1172.692, 10.65241
1173.174, 10.60792
1173.656, 10.91890
1174.138, 11.16945
1174.620, 10.99585
1175.102, 10.77083
1175.584, 10.68127
1176.067, 10.69916
1176.549, 10.80445
1177.031, 10.99783
1177.513, 11.11190
1177.995, 11.12680
1178.477, 11.06282
1178.959, 10.82979
1179.441, 10.62236
1179.923, 10.63199
1180.406, 10.77201
1180.888, 10.72856
1181.370, 10.48582
1181.852, 10.46498
1182.334, 10.77397
1182.816, 11.07384
1183.298, 11.04818
1183.780, 10.90120
1184.262, 10.75957
1184.745, 10.64456
1185.227, 10.62210
1185.709, 10.69870
1186.191, 10.79971
1186.673, 10.91377
1187.155, 11.01568
1187.637, 11.12093
1188.119, 11.17488
1188.602, 11.08412
1189.084, 10.85990
1189.566, 10.74899
1190.048, 10.76328
1190.530, 10.78154
1191.012, 10.76468
1191.494, 10.73880
1191.976, 10.74161
1192.458, 10.74509
1192.941, 10.70357
1193.423, 10.60805
1193.905, 10.60998
1194.387, 10.73426
1194.869, 10.75128
1195.351, 10.49520
1195.833, 10.24732
1196.315, 10.47624
1196.797, 10.81838
1197.280, 10.73650
1197.762, 10.06596
1198.244, 9.932531
1198.726, 10.42830
1199.208, 10.82983
1199.690, 10.70796
1200.172, 10.45510
1200.654, 10.51329
1201.137, 10.73102
1201.619, 10.92130
1202.101, 11.10194
1202.583, 11.02767
1203.065, 10.65201
1203.547, 10.34642
1204.029, 10.34515
1204.511, 10.48895
1204.994, 10.70131
1205.476, 10.89545
1205.958, 10.90051
1206.440, 10.60701
1206.922, 10.46307
1207.404, 10.47778
1207.886, 10.56470
1208.368, 10.74319
1208.850, 10.89358
1209.333, 10.84431
1209.815, 10.67749
1210.297, 10.54292
1210.779, 10.46058
1211.261, 10.37710
1211.743, 10.28349
1212.225, 10.24695
1212.707, 10.34508
1213.189, 10.49723
1213.672, 10.65522
1214.154, 10.79335
1214.636, 10.86092
1215.118, 10.84962
1215.600, 10.80322
1216.082, 10.72341
1216.564, 10.60712
1217.046, 10.35306
1217.529, 10.14990
1218.011, 10.26206
1218.493, 10.54980
1218.975, 10.67205
1219.457, 10.54733
1219.939, 10.54321
1220.421, 10.69300
1220.903, 10.81515
1221.385, 10.68966
1221.868, 10.53686
1222.350, 10.59910
1222.832, 10.77948
1223.314, 10.82716
1223.796, 10.70719
1224.278, 10.57263
1224.760, 10.42517
1225.242, 10.35677
1225.724, 10.52260
1226.207, 10.72090
1226.689, 10.80094
1227.171, 10.77330
1227.653, 10.67962
1228.135, 10.49822
1228.617, 10.42463
1229.099, 10.47874
1229.581, 10.52179
1230.064, 10.40652
1230.546, 10.27407
1231.028, 10.20679
1231.510, 10.21294
1231.992, 10.31676
1232.474, 10.53220
1232.956, 10.65053
1233.438, 10.65274
1233.921, 10.61223
1234.403, 10.53729
1234.885, 10.48583
1235.367, 10.51597
1235.849, 10.59219
1236.331, 10.65205
1236.813, 10.69581
1237.295, 10.74798
1237.777, 10.81111
1238.260, 10.76748
1238.742, 10.33671
1239.224, 9.984099
1239.706, 10.06975
1240.188, 10.36733
1240.670, 10.54104
1241.152, 10.59258
1241.634, 10.52123
1242.116, 10.32949
1242.599, 10.17463
1243.081, 10.13552
1243.563, 10.18660
1244.045, 10.36133
1244.527, 10.57427
1245.009, 10.71833
1245.491, 10.78211
1245.973, 10.65637
1246.456, 10.34199
1246.938, 10.09628
1247.420, 10.05177
1247.902, 10.11346
1248.384, 10.28232
1248.866, 10.48324
1249.348, 10.60662
1249.830, 10.66279
1250.313, 10.66022
1250.795, 10.60701
1251.277, 10.58600
1251.759, 10.71265
1252.241, 10.76154
1252.723, 10.66916
1253.205, 10.50541
1253.687, 10.34352
1254.169, 10.19891
1254.651, 10.07620
1255.134, 9.986876
1255.616, 10.03655
1256.098, 10.45168
1256.580, 10.67198
1257.062, 10.56302
1257.544, 10.32750
1258.026, 10.17309
1258.508, 10.09781
1258.991, 10.13328
1259.473, 10.26354
1259.955, 10.33891
1260.437, 10.28217
1260.919, 10.34587
1261.401, 10.60447
1261.883, 10.84711
1262.365, 10.81144
1262.848, 10.64948
1263.330, 10.54175
1263.812, 10.48019
1264.294, 10.32075
1264.776, 9.983918
1265.258, 9.900706
1265.740, 10.15877
1266.222, 10.46907
1266.704, 10.60271
1267.187, 10.61966
1267.669, 10.51307
1268.151, 10.33419
1268.633, 10.24688
1269.115, 10.25441
1269.597, 10.33149
1270.079, 10.48113
1270.561, 10.58271
1271.043, 10.53716
1271.526, 10.41818
1272.008, 10.23105
1272.490, 10.02380
1272.972, 9.848468
1273.454, 9.713856
1273.936, 9.760091
1274.418, 9.995558
1274.900, 10.22353
1275.383, 10.33724
1275.865, 10.40292
1276.347, 10.46463
1276.829, 10.48559
1277.311, 10.34014
1277.793, 10.10532
1278.275, 10.15654
1278.757, 10.48075
1279.239, 10.67938
1279.722, 10.46043
1280.204, 10.24184
1280.686, 10.08167
1281.168, 10.00383
1281.650, 10.09575
1282.132, 10.26702
1282.614, 10.33197
1283.096, 10.29021
1283.578, 10.20845
1284.061, 10.04604
1284.543, 9.952848
1285.025, 9.945871
1285.507, 10.00183
1285.989, 10.14883
1286.471, 10.30942
1286.953, 10.38593
1287.435, 10.38896
1287.917, 10.36113
1288.400, 10.28730
1288.882, 10.28087
1289.364, 10.36044
1289.846, 10.39892
1290.328, 10.22408
1290.810, 10.03262
1291.292, 10.00961
1291.774, 10.07668
1292.257, 10.06928
1292.739, 9.980732
##END=



