##NAMES=Arakiite
##RRUFFID=R070172
##IDEAL CHEMISTRY=Zn^2+^Mn^2+^_12_Fe^3+^_2_(As^3+^O_3_)(As^5+^O_4_)_2_(OH)_23_
##LOCALITY=Langban, Filipstad, Varmland, Sweden
##OWNER=RRUFF
##SOURCE=Michael Scott
##DESCRIPTION=Reddish brown platey crystals associated with colorless calcite
##STATUS=The identification of this mineral is confirmed by single-crystal X-ray diffraction and chemical analysis.
##URL=rruff.info/R070172
##MEASURED CHEMISTRY=(Zn_0.83_Mn^2+^_0.17_)_Σ=1_(Mn^2+^_9.20_Mg_2.80_)_Σ=12_(Fe^3+^_1.97_Mn^3+^_0.03_)_Σ=2_As_1.00_O_3_(As_1.00_O_4_)_2_(OH)_23_; OH estimated by difference and charge balance
171.5908, 38.33282
172.0729, 37.92907
172.5550, 37.74358
173.0371, 37.87388
173.5193, 38.13974
174.0014, 38.21210
174.4835, 37.90309
174.9656, 37.81759
175.4477, 38.21430
175.9298, 38.75636
176.4120, 39.15025
176.8941, 39.27319
177.3762, 39.22022
177.8583, 39.24686
178.3404, 39.33751
178.8225, 39.55028
179.3047, 40.03220
179.7868, 40.58744
180.2689, 40.97669
180.7510, 41.06922
181.2331, 40.94522
181.7152, 40.96318
182.1974, 41.36506
182.6795, 41.63470
183.1616, 41.57514
183.6437, 41.33446
184.1258, 41.18098
184.6079, 41.27917
185.0900, 41.57810
185.5722, 41.74595
186.0543, 41.67221
186.5364, 41.61535
187.0185, 41.74277
187.5006, 41.98250
187.9827, 42.09339
188.4649, 41.88533
188.9470, 41.43852
189.4291, 41.16037
189.9112, 41.08010
190.3933, 41.12674
190.8754, 41.31297
191.3576, 41.62812
191.8397, 41.91756
192.3218, 42.08031
192.8039, 42.15141
193.2860, 42.22222
193.7681, 42.30175
194.2503, 42.38424
194.7324, 42.47200
195.2145, 42.57002
195.6966, 42.64311
196.1787, 42.63424
196.6608, 42.59743
197.1430, 42.59015
197.6251, 42.61139
198.1072, 42.68789
198.5893, 42.89923
199.0714, 43.32634
199.5535, 43.67597
200.0357, 43.72266
200.5178, 43.66085
200.9999, 43.74439
201.4820, 44.14562
201.9641, 44.69172
202.4462, 44.86824
202.9284, 44.40596
203.4105, 44.00908
203.8926, 43.94151
204.3747, 44.02848
204.8568, 44.05916
205.3389, 43.92054
205.8211, 43.63707
206.3032, 43.31548
206.7853, 42.86485
207.2674, 42.49033
207.7495, 42.21627
208.2316, 42.04076
208.7138, 41.98582
209.1959, 42.08121
209.6780, 42.28481
210.1601, 42.28514
210.6422, 41.73775
211.1243, 41.34266
211.6065, 41.34626
212.0886, 41.57145
212.5707, 41.71096
213.0528, 41.55981
213.5349, 41.15766
214.0170, 40.89381
214.4992, 40.75030
214.9813, 40.74560
215.4634, 41.03436
215.9455, 41.47163
216.4276, 41.74708
216.9097, 41.63497
217.3919, 41.19560
217.8740, 41.00826
218.3561, 41.24060
218.8382, 41.48863
219.3203, 41.56539
219.8024, 41.52741
220.2845, 41.55988
220.7667, 41.79570
221.2488, 42.18861
221.7309, 42.46449
222.2130, 42.44904
222.6951, 42.49613
223.1772, 42.86353
223.6594, 43.48275
224.1415, 44.02856
224.6236, 44.32682
225.1057, 44.39918
225.5878, 44.39499
226.0699, 44.17500
226.5521, 44.03424
227.0342, 44.25543
227.5163, 44.80104
227.9984, 45.26925
228.4805, 45.43548
228.9626, 45.39598
229.4448, 45.35976
229.9269, 45.31869
230.4090, 45.31268
230.8911, 45.39031
231.3732, 45.55172
231.8553, 45.72656
232.3375, 45.97009
232.8196, 46.15740
233.3017, 46.11842
233.7838, 45.78024
234.2659, 45.33910
234.7480, 44.98571
235.2302, 44.72617
235.7123, 44.49665
236.1944, 44.30195
236.6765, 44.11410
237.1586, 43.93349
237.6407, 43.77273
238.1229, 43.54673
238.6050, 43.06270
239.0871, 42.22764
239.5692, 41.64619
240.0513, 41.71648
240.5334, 41.96886
241.0156, 42.09980
241.4977, 42.03880
241.9798, 41.92402
242.4619, 41.95552
242.9440, 42.19268
243.4261, 42.34740
243.9083, 42.25660
244.3904, 42.14563
244.8725, 42.16554
245.3546, 42.34258
245.8367, 42.58357
246.3188, 42.79118
246.8010, 43.00616
247.2831, 43.04975
247.7652, 42.69088
248.2473, 42.32628
248.7294, 42.22578
249.2115, 42.41481
249.6937, 42.70104
250.1758, 42.82495
250.6579, 42.69843
251.1400, 42.64789
251.6221, 42.73912
252.1042, 42.84710
252.5864, 42.88216
253.0685, 42.84629
253.5506, 42.82193
254.0327, 42.93113
254.5148, 43.27230
254.9969, 43.42225
255.4790, 43.22066
255.9612, 42.99599
256.4433, 42.90191
256.9254, 42.95866
257.4075, 43.12770
257.8896, 43.39836
258.3718, 43.85417
258.8539, 44.01904
259.3360, 43.68652
259.8181, 43.30936
260.3002, 43.11702
260.7823, 43.10544
261.2645, 43.13843
261.7466, 43.08855
262.2287, 42.94123
262.7108, 42.81780
263.1929, 42.67247
263.6750, 42.58579
264.1572, 42.64484
264.6393, 42.80992
265.1214, 42.94868
265.6035, 42.95465
266.0856, 42.82351
266.5677, 42.67255
267.0499, 42.44281
267.5320, 42.25311
268.0141, 42.19571
268.4962, 42.22810
268.9783, 42.21960
269.4604, 42.07337
269.9426, 41.80359
270.4247, 41.60203
270.9068, 41.44419
271.3889, 41.35999
271.8710, 41.39314
272.3531, 41.51102
272.8352, 41.64183
273.3174, 41.75011
273.7995, 41.83503
274.2816, 41.89008
274.7637, 41.96587
275.2458, 41.96537
275.7279, 41.82286
276.2101, 41.58337
276.6922, 41.32290
277.1743, 41.05767
277.6564, 40.82581
278.1385, 40.76242
278.6206, 40.97007
279.1028, 41.11767
279.5849, 41.09605
280.0670, 40.95565
280.5491, 40.77390
281.0312, 40.57038
281.5133, 40.35980
281.9955, 40.14789
282.4776, 39.88309
282.9597, 39.62452
283.4418, 39.80779
283.9239, 39.90837
284.4060, 39.93071
284.8882, 39.64042
285.3703, 39.75381
285.8524, 39.70543
286.3345, 39.65041
286.8166, 39.82063
287.2987, 39.57581
287.7809, 39.74244
288.2630, 39.74484
288.7451, 39.82240
289.2272, 39.73719
289.7093, 39.70225
290.1914, 39.83015
290.6736, 39.86788
291.1557, 39.76393
291.6378, 39.84627
292.1199, 39.59576
292.6020, 39.80416
293.0841, 39.92946
293.5663, 39.93028
294.0484, 39.82896
294.5305, 39.75404
295.0126, 39.71741
295.4947, 39.71236
295.9768, 39.75891
296.4590, 39.85344
296.9411, 39.90079
297.4232, 39.78040
297.9053, 39.58476
298.3874, 39.59169
298.8695, 40.01974
299.3517, 40.41727
299.8338, 40.34749
300.3159, 39.88998
300.7980, 39.60584
301.2801, 39.81769
301.7622, 40.31649
302.2444, 40.65949
302.7265, 40.83611
303.2086, 40.89347
303.6907, 40.77833
304.1728, 40.54718
304.6549, 40.40751
305.1371, 40.43333
305.6192, 40.57216
306.1013, 40.76561
306.5834, 41.02574
307.0655, 41.23957
307.5476, 41.33170
308.0298, 41.34404
308.5119, 41.38084
308.9940, 41.47687
309.4761, 41.56673
309.9582, 41.56852
310.4403, 41.49450
310.9225, 41.40263
311.4046, 41.20435
311.8867, 41.03376
312.3688, 41.16071
312.8509, 41.66229
313.3330, 42.18709
313.8152, 42.41951
314.2973, 42.42619
314.7794, 42.39763
315.2615, 42.36324
315.7436, 42.31521
316.2257, 42.22772
316.7079, 42.09781
317.1900, 41.99829
317.6721, 41.97215
318.1542, 42.01329
318.6363, 42.09640
319.1184, 42.23720
319.6006, 42.39848
320.0827, 42.56022
320.5648, 42.72121
321.0469, 42.87379
321.5290, 43.02293
322.0111, 43.15325
322.4933, 43.24755
322.9754, 43.30861
323.4575, 43.32876
323.9396, 43.18978
324.4217, 42.99149
324.9038, 43.10657
325.3860, 43.77302
325.8681, 44.53356
326.3502, 44.68409
326.8323, 44.23156
327.3144, 43.88310
327.7965, 44.03922
328.2787, 44.41921
328.7608, 44.49578
329.2429, 44.13485
329.7250, 43.73872
330.2071, 43.76134
330.6892, 44.12646
331.1714, 44.40570
331.6535, 44.43089
332.1356, 44.38776
332.6177, 44.47523
333.0998, 44.70342
333.5819, 44.95492
334.0641, 45.12826
334.5462, 45.26723
335.0283, 45.53233
335.5104, 46.06448
335.9925, 46.58980
336.4746, 46.92706
336.9568, 47.10085
337.4389, 47.21278
337.9210, 47.30207
338.4031, 47.36312
338.8852, 47.37160
339.3673, 47.27519
339.8495, 47.25360
340.3316, 47.38030
340.8137, 47.63093
341.2958, 47.99774
341.7779, 48.50919
342.2600, 49.02050
342.7421, 49.27257
343.2242, 49.22884
343.7064, 49.29737
344.1885, 49.80342
344.6706, 50.33454
345.1527, 50.27098
345.6348, 49.53212
346.1169, 48.86641
346.5991, 49.02866
347.0812, 50.07536
347.5633, 50.80538
348.0454, 51.01329
348.5275, 51.07930
349.0096, 51.22463
349.4918, 51.44975
349.9739, 51.69305
350.4560, 51.92606
350.9381, 52.14382
351.4202, 52.32446
351.9023, 52.44494
352.3845, 52.56044
352.8666, 52.65997
353.3487, 52.77010
353.8308, 52.96572
354.3129, 53.28843
354.7950, 53.63694
355.2772, 53.80383
355.7593, 53.69394
356.2414, 53.61076
356.7235, 53.58815
357.2056, 53.59992
357.6877, 53.60595
358.1699, 53.60391
358.6520, 53.64766
359.1341, 53.80390
359.6162, 54.09937
360.0983, 54.37844
360.5804, 54.74592
361.0626, 55.00792
361.5447, 54.94507
362.0268, 54.65963
362.5089, 54.50148
362.9910, 54.73500
363.4731, 55.30376
363.9553, 55.67392
364.4374, 55.64432
364.9195, 55.67109
365.4016, 55.88639
365.8837, 56.20264
366.3658, 56.53185
366.8480, 56.83760
367.3301, 57.05891
367.8122, 57.04535
368.2943, 56.44564
368.7764, 56.16459
369.2585, 56.39751
369.7407, 56.78791
370.2228, 57.08771
370.7049, 57.25296
371.1870, 57.37237
371.6691, 57.54842
372.1512, 57.79979
372.6334, 57.98817
373.1155, 57.97966
373.5976, 58.04271
374.0797, 58.36841
374.5618, 58.84174
375.0439, 59.19820
375.5261, 59.24279
376.0082, 59.06304
376.4903, 59.10933
376.9724, 59.52689
377.4545, 59.98333
377.9366, 60.52105
378.4188, 61.02261
378.9009, 61.34965
379.3830, 61.45882
379.8651, 61.46165
380.3472, 61.51969
380.8293, 61.62966
381.3115, 61.80892
381.7936, 62.15033
382.2757, 62.48694
382.7578, 62.75254
383.2399, 62.93435
383.7220, 63.03251
384.2042, 63.01304
384.6863, 62.88820
385.1684, 62.86180
385.6505, 63.10033
386.1326, 63.19104
386.6147, 62.83284
387.0969, 62.26465
387.5790, 61.88801
388.0611, 61.92466
388.5432, 62.14583
389.0253, 62.13398
389.5074, 61.84699
389.9896, 61.51048
390.4717, 61.14117
390.9538, 60.78658
391.4359, 60.48485
391.9180, 60.24105
392.4001, 60.05309
392.8823, 59.94439
393.3644, 59.90089
393.8465, 59.84568
394.3286, 59.80227
394.8107, 59.68380
395.2928, 59.36222
395.7750, 58.89610
396.2571, 58.49877
396.7392, 58.26968
397.2213, 58.14727
397.7034, 58.07552
398.1855, 58.06129
398.6677, 57.99274
399.1498, 57.80613
399.6319, 57.51321
400.1140, 57.14905
400.5961, 56.63902
401.0782, 56.19048
401.5604, 55.97187
402.0425, 55.91319
402.5246, 55.81057
403.0067, 55.60232
403.4888, 55.32272
403.9709, 55.00787
404.4531, 54.65269
404.9352, 54.30276
405.4173, 53.90151
405.8994, 53.54728
406.3815, 53.39562
406.8636, 53.43673
407.3458, 53.45145
407.8279, 53.26211
408.3100, 52.87841
408.7921, 52.51369
409.2742, 52.05398
409.7563, 51.73409
410.2385, 51.74796
410.7206, 51.94614
411.2027, 52.06284
411.6848, 51.98510
412.1669, 51.78795
412.6490, 51.62127
413.1311, 51.48106
413.6133, 51.38673
414.0954, 51.45381
414.5775, 51.48184
415.0596, 51.24455
415.5417, 50.77728
416.0238, 50.36420
416.5060, 50.29593
416.9881, 50.58611
417.4702, 50.69300
417.9523, 50.30171
418.4344, 50.06520
418.9165, 50.28795
419.3987, 50.71821
419.8808, 50.98360
420.3629, 50.91042
420.8450, 50.63953
421.3271, 50.46850
421.8092, 50.45235
422.2914, 50.39883
422.7735, 50.20300
423.2556, 50.02899
423.7377, 50.01609
424.2198, 50.14931
424.7019, 50.26876
425.1841, 50.15580
425.6662, 49.85521
426.1483, 49.90171
426.6304, 50.56768
427.1125, 51.13685
427.5946, 51.22034
428.0768, 51.02950
428.5589, 50.87522
429.0410, 50.88561
429.5231, 50.92731
430.0052, 50.79107
430.4873, 50.47104
430.9695, 50.24647
431.4516, 50.22007
431.9337, 50.31217
432.4158, 50.42142
432.8979, 50.54759
433.3800, 50.71209
433.8622, 51.02498
434.3443, 51.35442
434.8264, 51.43380
435.3085, 51.21555
435.7906, 50.92905
436.2727, 50.70710
436.7549, 50.55746
437.2370, 50.48568
437.7191, 50.67942
438.2012, 50.75903
438.6833, 50.32216
439.1654, 49.61312
439.6476, 49.30898
440.1297, 49.71760
440.6118, 50.38660
441.0939, 50.52494
441.5760, 49.89107
442.0581, 49.37600
442.5403, 49.07315
443.0224, 48.86404
443.5045, 48.71415
443.9866, 48.58710
444.4687, 48.37059
444.9508, 47.94789
445.4330, 47.35939
445.9151, 47.04426
446.3972, 47.24370
446.8793, 47.43773
447.3614, 47.60640
447.8435, 47.70576
448.3257, 47.66365
448.8078, 47.46785
449.2899, 47.21858
449.7720, 47.07574
450.2541, 47.09558
450.7362, 47.02706
451.2184, 46.73676
451.7005, 46.48164
452.1826, 46.43005
452.6647, 46.49877
453.1468, 46.45699
453.6289, 46.10799
454.1111, 45.62597
454.5932, 45.53545
455.0753, 45.99006
455.5574, 46.37125
456.0395, 46.36164
456.5216, 46.25789
457.0038, 46.31219
457.4859, 46.56175
457.9680, 46.80495
458.4501, 46.88473
458.9322, 46.83205
459.4143, 46.73511
459.8965, 46.56510
460.3786, 46.45909
460.8607, 46.56175
461.3428, 46.81556
461.8249, 47.08645
462.3070, 47.35265
462.7892, 47.62746
463.2713, 47.98670
463.7534, 48.37860
464.2355, 48.57561
464.7176, 48.45530
465.1997, 48.19951
465.6819, 48.13636
466.1640, 48.33654
466.6461, 48.44575
467.1282, 48.28669
467.6103, 48.12099
468.0924, 48.18011
468.5746, 48.45575
469.0567, 48.80828
469.5388, 49.15376
470.0209, 49.47462
470.5030, 49.65260
470.9851, 49.33191
471.4673, 49.30635
471.9494, 49.99670
472.4315, 50.84868
472.9136, 51.25674
473.3957, 51.09778
473.8778, 50.75747
474.3600, 50.70747
474.8421, 50.99278
475.3242, 51.23502
475.8063, 51.42971
476.2884, 51.58187
476.7705, 51.63104
477.2527, 51.65256
477.7348, 51.77858
478.2169, 52.08333
478.6990, 52.46773
479.1811, 52.76544
479.6632, 52.96768
480.1454, 53.15749
480.6275, 53.26094
481.1096, 53.45665
481.5917, 53.95641
482.0738, 54.72227
482.5559, 55.40617
483.0380, 55.80614
483.5201, 56.04036
484.0023, 56.28442
484.4844, 56.54550
484.9665, 56.79396
485.4486, 56.98647
485.9307, 57.17099
486.4128, 57.46504
486.8950, 57.86615
487.3771, 58.36805
487.8592, 58.97356
488.3413, 59.67601
488.8234, 60.52065
489.3055, 61.50665
489.7877, 62.46081
490.2698, 63.18711
490.7519, 63.66854
491.2340, 64.31394
491.7161, 65.15350
492.1982, 66.09653
492.6804, 67.21124
493.1625, 68.38512
493.6446, 69.45489
494.1267, 70.36481
494.6088, 71.20181
495.0909, 72.08572
495.5731, 72.99155
496.0552, 74.02513
496.5373, 75.26836
497.0194, 76.56783
497.5015, 77.93420
497.9836, 79.30293
498.4658, 80.52783
498.9479, 81.47679
499.4300, 82.33682
499.9121, 83.55108
500.3942, 85.19439
500.8763, 86.67497
501.3585, 87.69361
501.8406, 88.59206
502.3227, 89.71257
502.8048, 91.05488
503.2869, 92.37980
503.7690, 93.49623
504.2512, 94.56078
504.7333, 95.86009
505.2154, 97.41823
505.6975, 98.87996
506.1796, 100.0170
506.6617, 100.9201
507.1439, 101.8931
507.6260, 103.0448
508.1081, 104.0716
508.5902, 104.8923
509.0723, 105.5461
509.5544, 105.9948
510.0366, 106.2686
510.5187, 106.6283
511.0008, 107.3587
511.4829, 108.4576
511.9650, 109.2052
512.4471, 109.5103
512.9293, 109.5694
513.4114, 109.2254
513.8935, 108.7418
514.3756, 108.4694
514.8577, 108.4878
515.3398, 108.4908
515.8220, 108.0578
516.3041, 107.1492
516.7862, 106.2510
517.2683, 105.4433
517.7504, 104.5440
518.2325, 103.4836
518.7147, 102.2877
519.1968, 100.9973
519.6789, 99.60678
520.1610, 98.17831
520.6431, 96.79208
521.1252, 95.44138
521.6074, 94.05345
522.0895, 92.58107
522.5716, 91.14344
523.0537, 89.88425
523.5358, 88.78101
524.0179, 87.72274
524.5001, 86.81782
524.9822, 85.83591
525.4643, 84.52372
525.9464, 82.98682
526.4285, 81.55550
526.9106, 80.36784
527.3928, 79.33065
527.8749, 78.27265
528.3570, 77.16573
528.8391, 76.08053
529.3212, 75.00994
529.8033, 73.96783
530.2855, 73.04172
530.7676, 72.14490
531.2497, 71.06266
531.7318, 69.64758
532.2139, 68.05083
532.6960, 66.69099
533.1782, 65.68032
533.6603, 64.58766
534.1424, 63.14114
534.6245, 61.75383
535.1066, 60.72417
535.5887, 60.00622
536.0709, 59.28627
536.5530, 58.41619
537.0351, 57.41834
537.5172, 56.24861
537.9993, 54.89587
538.4814, 53.71383
538.9636, 52.90404
539.4457, 52.29800
539.9278, 51.61966
540.4099, 50.87029
540.8920, 50.07277
541.3741, 49.17661
541.8563, 48.26896
542.3384, 47.39350
542.8205, 46.57320
543.3026, 45.92259
543.7847, 45.54891
544.2668, 45.33690
544.7490, 44.87474
545.2311, 43.90331
545.7132, 43.02865
546.1953, 42.27972
546.6774, 41.61617
547.1595, 41.02124
547.6417, 40.48377
548.1238, 39.98484
548.6059, 39.49557
549.0880, 39.04159
549.5701, 38.74867
550.0522, 38.72682
550.5344, 38.58558
551.0165, 38.01411
551.4986, 37.40121
551.9807, 37.10195
552.4628, 37.12733
552.9449, 37.10693
553.4271, 36.82967
553.9092, 36.36543
554.3913, 35.75310
554.8734, 34.99493
555.3555, 34.38918
555.8376, 34.11927
556.3198, 34.08841
556.8019, 34.05959
557.2840, 34.04039
557.7661, 34.00581
558.2482, 33.94126
558.7303, 33.86649
559.2125, 33.86344
559.6946, 33.88778
560.1767, 33.71370
560.6588, 33.14153
561.1409, 32.32404
561.6230, 31.94533
562.1052, 32.40586
562.5873, 32.61576
563.0694, 32.22671
563.5515, 31.77245
564.0336, 31.65410
564.5157, 31.85469
564.9979, 32.09015
565.4800, 32.18709
565.9621, 32.16515
566.4442, 32.04213
566.9263, 31.79554
567.4084, 31.60818
567.8906, 31.60140
568.3727, 31.64141
568.8548, 31.54537
569.3369, 31.30593
569.8190, 31.06785
570.3011, 30.83633
570.7833, 30.66019
571.2654, 30.64896
571.7475, 30.76156
572.2296, 30.77984
572.7117, 30.57051
573.1938, 30.25317
573.6760, 30.12493
574.1581, 30.41471
574.6402, 30.46781
575.1223, 30.06247
575.6044, 29.63669
576.0865, 29.47805
576.5687, 29.51792
577.0508, 29.50721
577.5329, 29.28839
578.0150, 29.00031
578.4971, 28.97353
578.9792, 29.26309
579.4614, 29.50343
579.9435, 29.61393
580.4256, 29.67330
580.9077, 29.75675
581.3898, 29.84544
581.8719, 29.86495
582.3541, 29.74427
582.8362, 29.58412
583.3183, 29.47154
583.8004, 29.40106
584.2825, 29.35901
584.7646, 29.34419
585.2468, 29.33857
585.7289, 29.31653
586.2110, 29.27199
586.6931, 29.25064
587.1752, 29.20522
587.6573, 29.23221
588.1394, 29.46754
588.6215, 29.76983
589.1036, 29.90317
589.5858, 29.79271
590.0679, 29.60069
590.5500, 29.55236
591.0321, 29.66412
591.5142, 29.74592
591.9963, 29.79634
592.4785, 29.81622
592.9606, 29.77469
593.4427, 29.71728
593.9248, 29.73977
594.4069, 29.89950
594.8890, 29.96564
595.3712, 29.59117
595.8533, 29.02419
596.3354, 28.91905
596.8175, 29.37996
597.2996, 29.86035
597.7817, 29.95093
598.2639, 29.73390
598.7460, 29.65102
599.2281, 29.77244
599.7102, 29.91125
600.1923, 30.06592
600.6744, 30.20956
601.1566, 30.31655
601.6387, 30.38623
602.1208, 30.43256
602.6029, 30.46493
603.0850, 30.48407
603.5671, 30.48277
604.0493, 30.43084
604.5314, 30.43970
605.0135, 30.57873
605.4956, 30.75369
605.9777, 30.91433
606.4598, 31.05552
606.9420, 31.17762
607.4241, 31.23407
607.9062, 31.30220
608.3883, 31.53631
608.8704, 31.89101
609.3525, 32.09747
609.8347, 32.04488
610.3168, 31.86389
610.7989, 31.71417
611.2810, 31.58505
611.7631, 31.56384
612.2452, 31.67326
612.7274, 31.86039
613.2095, 32.21841
613.6916, 32.60106
614.1737, 32.75579
614.6558, 32.61049
615.1379, 32.38735
615.6201, 32.41060
616.1022, 32.69231
616.5843, 32.76165
617.0664, 32.48182
617.5485, 32.23259
618.0306, 32.19918
618.5128, 32.29081
618.9949, 32.42733
619.4770, 32.61265
619.9591, 32.74565
620.4412, 32.74895
620.9233, 32.67353
621.4055, 32.59674
621.8876, 32.52320
622.3697, 32.41898
622.8518, 32.26180
623.3339, 32.06226
623.8160, 31.85036
624.2982, 31.60366
624.7803, 31.38227
625.2624, 31.16508
625.7445, 30.99107
626.2266, 30.94329
626.7087, 30.95537
627.1909, 30.87104
627.6730, 30.60040
628.1551, 30.23527
628.6372, 29.91291
629.1193, 29.63178
629.6014, 29.43040
630.0836, 29.35446
630.5657, 29.29258
631.0478, 29.16604
631.5299, 28.98690
632.0120, 28.77000
632.4941, 28.45320
632.9763, 28.19332
633.4584, 28.12312
633.9405, 28.13628
634.4226, 28.06646
634.9047, 27.89175
635.3868, 27.71850
635.8690, 27.50854
636.3511, 27.62187
636.8332, 27.65250
637.3153, 27.60487
637.7974, 27.24463
638.2795, 27.28807
638.7617, 27.16971
639.2438, 27.04475
639.7259, 27.14500
640.2080, 26.83023
640.6901, 26.92691
641.1722, 26.85935
641.6544, 26.86694
642.1365, 26.71178
642.6186, 26.60689
643.1007, 26.66482
643.5828, 26.38722
644.0649, 26.29727
644.5471, 26.24522
645.0292, 26.17093
645.5113, 26.08926
645.9934, 25.96850
646.4755, 25.70580
646.9576, 25.44119
647.4398, 25.40381
647.9219, 25.60632
648.4040, 25.79973
648.8861, 25.71344
649.3682, 25.41283
649.8503, 25.13894
650.3325, 25.32228
650.8146, 25.42293
651.2967, 25.44532
651.7788, 25.15510
652.2609, 25.26856
652.7430, 25.22025
653.2252, 25.16529
653.7073, 25.33557
654.1894, 25.09081
654.6715, 25.25752
655.1536, 25.25998
655.6357, 25.33761
656.1179, 25.25246
656.6000, 25.21759
657.0821, 25.30408
657.5642, 25.34682
658.0463, 25.31319
658.5284, 25.08637
659.0106, 24.92088
659.4927, 24.82079
659.9748, 24.83221
660.4569, 24.91134
660.9390, 25.12357
661.4211, 25.25311
661.9033, 25.30440
662.3854, 25.04307
662.8675, 25.18542
663.3496, 25.16599
663.8317, 25.13993
664.3138, 25.33910
664.7960, 25.12325
665.2781, 25.31884
665.7602, 25.35019
666.2423, 25.45671
666.7244, 25.40046
667.2065, 25.39448
667.6887, 25.55133
668.1708, 25.61802
668.6529, 25.54303
669.1350, 25.65433
669.6171, 25.43278
670.0992, 25.50331
670.5814, 25.69987
671.0635, 25.63305
671.5456, 25.61197
672.0277, 25.66106
672.5098, 25.82075
672.9919, 26.00518
673.4741, 26.10709
673.9562, 26.12309
674.4383, 26.13246
674.9204, 26.10283
675.4025, 26.12411
675.8846, 26.32331
676.3668, 26.61973
676.8489, 26.81740
677.3310, 26.85216
677.8131, 26.84814
678.2952, 26.96402
678.7773, 27.20482
679.2595, 27.43384
679.7416, 27.69660
680.2237, 27.86897
680.7058, 27.81779
681.1879, 27.73202
681.6700, 27.82391
682.1522, 28.09786
682.6343, 28.31409
683.1164, 28.21695
683.5985, 28.08049
684.0806, 28.32253
684.5627, 28.84220
685.0449, 29.18459
685.5270, 29.18548
686.0091, 29.04729
686.4912, 29.03808
686.9733, 29.18361
687.4554, 29.15961
687.9376, 28.73287
688.4197, 28.42091
688.9018, 28.43212
689.3839, 28.53152
689.8660, 28.45025
690.3481, 28.18386
690.8303, 27.98841
691.3124, 28.12074
691.7945, 28.38530
692.2766, 28.39713
692.7587, 28.18126
693.2408, 28.02787
693.7230, 28.04532
694.2051, 28.09501
694.6872, 28.01975
695.1693, 27.81300
695.6514, 27.60057
696.1335, 27.23155
696.6157, 27.04485
697.0978, 27.32477
697.5799, 27.70062
698.0620, 27.77029
698.5441, 27.52072
699.0262, 27.24683
699.5084, 27.16757
699.9905, 27.20252
700.4726, 27.11834
700.9547, 26.90779
701.4368, 26.97438
701.9189, 27.54556
702.4011, 28.13886
702.8832, 28.23408
703.3653, 27.88382
703.8474, 27.75006
704.3295, 28.07061
704.8116, 28.31972
705.2938, 28.31953
705.7759, 28.19673
706.2580, 28.01316
706.7401, 27.82547
707.2222, 27.76311
707.7043, 27.93050
708.1865, 28.22754
708.6686, 28.41940
709.1507, 28.49343
709.6328, 28.62416
710.1149, 28.87645
710.5970, 29.12242
711.0792, 29.24242
711.5613, 29.28090
712.0434, 29.36769
712.5255, 29.49929
713.0076, 29.69946
713.4897, 30.00534
713.9719, 30.36320
714.4540, 30.76292
714.9361, 31.16816
715.4182, 31.47445
715.9003, 31.61276
716.3824, 31.70773
716.8646, 32.02922
717.3467, 32.61073
717.8288, 33.05727
718.3109, 33.29698
718.7930, 33.49266
719.2751, 33.72251
719.7573, 33.97212
720.2394, 34.21182
720.7215, 34.42573
721.2036, 34.68634
721.6857, 35.03108
722.1678, 35.42207
722.6500, 35.84937
723.1321, 36.29381
723.6142, 36.72421
724.0963, 37.12480
724.5784, 37.47255
725.0605, 37.71150
725.5427, 37.83703
726.0248, 38.03341
726.5069, 38.30871
726.9890, 38.63914
727.4711, 39.06743
727.9532, 39.51087
728.4354, 39.91042
728.9175, 40.26505
729.3995, 40.44878
729.8817, 40.17447
730.3638, 39.95903
730.8459, 40.31311
731.3280, 40.94391
731.8101, 41.28306
732.2922, 41.19093
732.7744, 40.93884
733.2565, 40.79251
733.7386, 40.72466
734.2207, 40.54486
734.7028, 40.19043
735.1849, 39.93317
735.6671, 39.90068
736.1492, 39.92022
736.6313, 39.85168
737.1134, 39.70794
737.5955, 39.54585
738.0776, 39.46698
738.5598, 39.25805
739.0419, 38.64792
739.5240, 37.94157
740.0061, 37.59452
740.4882, 37.58828
740.9703, 37.51792
741.4525, 37.09768
741.9346, 36.50345
742.4167, 36.19057
742.8988, 36.21614
743.3809, 36.10015
743.8630, 35.73286
744.3452, 35.32392
744.8273, 34.96772
745.3094, 34.66774
745.7915, 34.44643
746.2736, 34.33780
746.7557, 34.20251
747.2379, 33.98073
747.7200, 33.72853
748.2021, 33.43726
748.6842, 33.16199
749.1663, 33.05391
749.6484, 33.16621
750.1306, 33.31222
750.6127, 33.19718
751.0948, 32.85225
751.5769, 32.76218
752.0590, 33.00896
752.5411, 33.20754
753.0233, 33.13215
753.5054, 33.01964
753.9875, 33.21147
754.4696, 33.70049
754.9517, 34.16799
755.4338, 34.54520
755.9160, 34.92626
756.3981, 35.29396
756.8802, 35.72304
757.3623, 36.35126
757.8444, 37.15708
758.3265, 37.94207
758.8087, 38.51972
759.2908, 39.03791
759.7729, 39.88708
760.2550, 41.06505
760.7371, 42.16919
761.2192, 43.10650
761.7014, 44.01167
762.1835, 44.94108
762.6656, 45.92054
763.1477, 47.08626
763.6298, 48.59770
764.1119, 49.99719
764.5941, 51.08986
765.0762, 52.18475
765.5583, 53.48286
766.0404, 54.94444
766.5225, 56.45781
767.0046, 57.98206
767.4868, 59.50683
767.9689, 61.06596
768.4510, 62.60432
768.9331, 63.89306
769.4152, 64.92188
769.8973, 66.04939
770.3795, 67.43829
770.8616, 68.97942
771.3437, 70.58299
771.8258, 72.28889
772.3079, 73.68917
772.7900, 74.75175
773.2722, 75.55663
773.7543, 75.93926
774.2364, 76.20285
774.7185, 76.74336
775.2006, 77.47768
775.6827, 77.85268
776.1649, 77.46925
776.6470, 76.76973
777.1291, 76.20995
777.6112, 75.72965
778.0933, 75.21465
778.5754, 74.63503
779.0576, 73.85265
779.5397, 72.74952
780.0218, 71.41439
780.5039, 70.13635
780.9860, 68.98882
781.4681, 67.69273
781.9503, 66.12553
782.4324, 64.54066
782.9145, 62.92107
783.3966, 61.39927
783.8787, 60.18077
784.3608, 59.33049
784.8430, 58.49905
785.3251, 57.55646
785.8072, 56.53832
786.2893, 55.40953
786.7714, 54.23901
787.2535, 53.15866
787.7357, 52.21104
788.2178, 51.37761
788.6999, 50.64030
789.1820, 49.99956
789.6641, 49.49634
790.1462, 49.16701
790.6284, 48.79275
791.1105, 48.24494
791.5926, 47.75809
792.0747, 47.69001
792.5568, 47.87236
793.0389, 47.60238
793.5211, 46.33274
794.0032, 45.45863
794.4853, 45.60072
794.9674, 46.03691
795.4495, 46.22298
795.9316, 46.21568
796.4138, 46.29470
796.8959, 46.57518
797.3780, 46.91610
797.8601, 47.19315
798.3422, 47.39708
798.8243, 47.41980
799.3065, 47.25607
799.7886, 47.33748
800.2707, 47.89199
800.7528, 48.57066
801.2349, 48.87769
801.7170, 48.76532
802.1992, 49.06739
802.6813, 50.23375
803.1634, 51.23207
803.6455, 51.88145
804.1276, 52.36072
804.6097, 52.75687
805.0919, 53.11119
805.5740, 53.49213
806.0561, 53.90249
806.5382, 54.41117
807.0203, 55.16188
807.5024, 56.00692
807.9846, 56.72726
808.4667, 57.30104
808.9488, 57.75677
809.4309, 58.10248
809.9130, 58.40067
810.3951, 58.77631
810.8773, 59.24444
811.3594, 59.54642
811.8415, 59.58918
812.3236, 59.70377
812.8057, 60.17036
813.2878, 60.62044
813.7700, 60.56466
814.2521, 60.03377
814.7342, 59.61544
815.2163, 59.66355
815.6984, 59.49718
816.1805, 58.58587
816.6627, 57.52653
817.1448, 57.01962
817.6269, 56.98130
818.1090, 56.84911
818.5911, 56.32759
819.0732, 55.55735
819.5554, 54.60823
820.0375, 53.56440
820.5196, 52.82423
821.0017, 52.42265
821.4838, 51.88079
821.9659, 50.92179
822.4481, 49.82938
822.9302, 49.08803
823.4123, 48.78189
823.8944, 48.24965
824.3765, 47.27497
824.8586, 46.36848
825.3408, 45.74142
825.8229, 45.13797
826.3050, 44.27264
826.7871, 43.20482
827.2692, 42.29973
827.7513, 41.78584
828.2335, 41.29886
828.7156, 40.51591
829.1977, 39.68022
829.6798, 39.18628
830.1619, 38.96636
830.6440, 38.62124
831.1262, 37.94602
831.6083, 37.10611
832.0904, 36.31920
832.5725, 35.58627
833.0546, 34.91837
833.5367, 34.31793
834.0189, 33.78895
834.5010, 33.33751
834.9831, 32.95947
835.4652, 32.68656
835.9473, 32.52867
836.4294, 32.18434
836.9116, 31.43818
837.3937, 30.81603
837.8758, 30.48339
838.3579, 30.23148
838.8400, 29.93670
839.3221, 29.59039
839.8043, 29.19567
840.2864, 28.73118
840.7685, 28.32699
841.2506, 28.13974
841.7327, 28.04242
842.2148, 27.85455
842.6970, 27.58395
843.1791, 27.30615
843.6612, 27.04861
844.1433, 26.81354
844.6254, 26.60567
845.1075, 26.42281
845.5897, 26.27108
846.0718, 26.17866
846.5539, 25.96507
847.0360, 25.51610
847.5181, 25.06328
848.0002, 24.79739
848.4824, 24.68731
848.9645, 24.58404
849.4466, 24.49685
849.9287, 24.39921
850.4108, 24.31962
850.8929, 24.19689
851.3751, 23.91557
851.8572, 23.60143
852.3393, 23.48388
852.8214, 23.60394
853.3035, 23.70362
853.7856, 23.55977
854.2678, 23.33072
854.7499, 23.22495
855.2320, 23.19731
855.7141, 23.13325
856.1962, 23.00628
856.6783, 22.82082
857.1605, 22.56098
857.6426, 22.30262
858.1247, 22.29562
858.6068, 22.59514
859.0889, 22.68662
859.5710, 22.45738
860.0532, 22.21834
860.5353, 22.12756
861.0174, 22.11444
861.4995, 22.06707
861.9816, 21.98328
862.4637, 21.88355
862.9459, 21.72277
863.4280, 21.60395
863.9101, 21.64584
864.3922, 21.68003
864.8743, 21.48769
865.3564, 21.13291
865.8386, 20.90139
866.3207, 20.94702
866.8028, 21.05969
867.2849, 21.05651
867.7670, 21.00619
868.2491, 21.05136
868.7313, 21.16081
869.2134, 21.13299
869.6955, 20.88896
870.1776, 20.65598
870.6597, 20.75825
871.1418, 21.12414
871.6239, 21.24903
872.1060, 21.11370
872.5881, 20.84223
873.0703, 20.38605
873.5524, 19.98266
874.0345, 19.83508
874.5166, 19.90358
874.9987, 20.02122
875.4808, 20.30812
875.9630, 20.43123
876.4451, 20.30160
876.9272, 20.10407
877.4093, 19.89843
877.8914, 19.68453
878.3735, 19.41583
878.8557, 19.09929
879.3378, 18.92379
879.8199, 19.07363
880.3020, 19.29997
880.7841, 19.43697
881.2662, 19.51130
881.7484, 19.55434
882.2305, 19.57736
882.7126, 19.61394
883.1947, 19.69130
883.6768, 19.70806
884.1589, 19.44223
884.6411, 18.96151
885.1232, 18.65429
885.6053, 18.53911
886.0874, 18.49325
886.5695, 18.46610
887.0516, 18.52310
887.5338, 18.78406
888.0159, 19.22305
888.4980, 19.35415
888.9801, 18.95245
889.4622, 18.69533
889.9443, 18.79487
890.4265, 18.91236
890.9086, 18.85057
891.3907, 18.68452
891.8728, 18.54912
892.3549, 18.45777
892.8370, 18.39950
893.3192, 18.38040
893.8013, 18.38403
894.2834, 18.42663
894.7655, 18.47141
895.2476, 18.48105
895.7297, 18.44592
896.2119, 18.35560
896.6940, 18.17772
897.1761, 18.01074
897.6582, 17.95516
898.1403, 18.00087
898.6224, 18.21903
899.1046, 18.55144
899.5867, 18.61389
900.0688, 18.23248
900.5509, 17.74761
901.0330, 17.62606
901.5151, 17.81833
901.9973, 17.87720
902.4794, 17.77192
902.9615, 17.72712
903.4436, 17.82659
903.9257, 17.91026
904.4078, 17.83035
904.8900, 17.64875
905.3721, 17.57968
905.8542, 17.73584
906.3363, 17.75320
906.8184, 17.50207
907.3005, 17.27327
907.7827, 17.18112
908.2648, 17.15406
908.7469, 17.13687
909.2290, 17.11330
909.7111, 17.02838
910.1932, 16.77308
910.6754, 16.57722
911.1575, 16.56653
911.6396, 16.67262
912.1217, 16.90826
912.6038, 17.18632
913.0859, 17.31311
913.5681, 17.21744
914.0502, 17.02612
914.5323, 16.73632
915.0144, 16.49930
915.4965, 16.76174
915.9786, 17.36968
916.4608, 17.61829
916.9429, 17.36390
917.4250, 17.03648
917.9071, 16.95749
918.3892, 17.02164
918.8713, 16.96194
919.3535, 16.76283
919.8356, 16.62152
920.3177, 16.55552
920.7998, 16.50459
921.2819, 16.41823
921.7640, 16.38321
922.2462, 16.55922
922.7283, 16.93701
923.2104, 17.05830
923.6925, 16.67336
924.1746, 16.39629
924.6567, 16.22402
925.1389, 16.20896
925.6210, 16.62144
926.1031, 17.11612
926.5852, 17.01160
927.0673, 16.14577
927.5494, 15.56197
928.0316, 15.78088
928.5137, 16.21098
928.9958, 16.68378
929.4779, 17.05399
929.9600, 17.09145
930.4421, 16.85787
930.9243, 16.64130
931.4064, 16.58347
931.8885, 16.56133
932.3706, 16.45313
932.8527, 16.29675
933.3348, 16.10329
933.8170, 15.91929
934.2991, 15.95533
934.7812, 16.25095
935.2633, 16.49268
935.7454, 16.37996
936.2275, 16.05408
936.7097, 15.89382
937.1918, 15.89482
937.6739, 15.89438
938.1560, 15.88263
938.6381, 15.79682
939.1202, 15.56152
939.6024, 15.35854
940.0845, 15.48891
940.5666, 15.96129
941.0487, 16.26574
941.5308, 16.38760
942.0129, 16.36479
942.4951, 16.10185
942.9772, 15.81394
943.4593, 15.60916
943.9414, 15.48930
944.4235, 15.47846
944.9056, 15.61959
945.3878, 15.70235
945.8699, 15.73715
946.3520, 15.66534
946.8341, 15.26772
947.3162, 14.90072
947.7983, 15.00802
948.2805, 15.47828
948.7626, 15.78497
949.2447, 15.70126
949.7268, 15.59104
950.2089, 15.71999
950.6910, 15.87646
951.1732, 15.83420
951.6553, 15.67053
952.1374, 15.52351
952.6195, 15.44277
953.1016, 15.48247
953.5837, 15.75170
954.0659, 16.01103
954.5480, 15.82472
955.0301, 15.39074
955.5122, 15.22148
955.9943, 15.32227
956.4764, 15.42097
956.9586, 15.40188
957.4407, 15.30498
957.9228, 15.15185
958.4049, 14.97699
958.8870, 14.95745
959.3691, 15.09733
959.8513, 15.11945
960.3334, 14.95539
960.8155, 14.83742
961.2976, 14.92889
961.7797, 15.09433
962.2618, 15.05775
962.7440, 14.78484
963.2261, 14.66362
963.7082, 14.75633
964.1903, 14.85695
964.6724, 14.94674
965.1545, 14.99349
965.6367, 14.96254
966.1188, 14.86986
966.6009, 14.76680
967.0830, 14.65353
967.5651, 14.52999
968.0472, 14.29766
968.5294, 14.17870
969.0115, 14.34487
969.4936, 14.58435
969.9757, 14.70091
970.4578, 14.70241
970.9399, 14.68117
971.4221, 14.62257
971.9042, 14.62966
972.3863, 14.81300
972.8684, 15.00263
973.3505, 15.09971
973.8326, 15.11183
974.3148, 15.03498
974.7969, 14.88882
975.2790, 14.76012
975.7611, 14.67453
976.2432, 14.66156
976.7253, 14.81686
977.2075, 15.01334
977.6896, 15.07622
978.1717, 15.02540
978.6538, 14.96817
979.1359, 14.93373
979.6180, 14.83537
980.1002, 14.54834
980.5823, 14.22099
981.0644, 14.11375
981.5465, 14.17944
982.0286, 14.30987
982.5107, 14.47078
982.9929, 14.54397
983.4750, 14.47427
983.9571, 14.33085
984.4392, 14.17217
984.9213, 14.02871
985.4034, 14.10979
985.8856, 14.41260
986.3677, 14.39464
986.8498, 13.91138
987.3319, 13.63611
987.8140, 14.02599
988.2961, 14.67852
988.7783, 14.84169
989.2604, 14.49158
989.7425, 14.46837
990.2246, 14.94166
990.7067, 15.11763
991.1888, 14.71635
991.6710, 14.20871
992.1531, 13.88256
992.6352, 13.72232
993.1173, 13.71348
993.5994, 13.92112
994.0815, 14.01397
994.5637, 13.86733
995.0458, 13.79664
995.5279, 13.99218
996.0100, 14.18101
996.4921, 14.08199
996.9742, 13.82216
997.4564, 13.78842
997.9385, 14.12498
998.4206, 14.32127
998.9027, 14.14627
999.3848, 14.03730
999.8669, 14.30569
1000.349, 14.60076
1000.831, 14.47547
1001.313, 14.06404
1001.795, 13.95516
1002.278, 14.43827
1002.760, 14.76398
1003.242, 14.51659
1003.724, 14.18268
1004.206, 14.02934
1004.688, 13.99935
1005.170, 14.03266
1005.652, 14.09884
1006.134, 14.14311
1006.617, 14.14070
1007.099, 14.11845
1007.581, 14.09601
1008.063, 14.06062
1008.545, 13.92767
1009.027, 13.80256
1009.509, 13.95294
1009.991, 14.34871
1010.474, 14.57306
1010.956, 14.33450
1011.438, 13.99158
1011.920, 13.91501
1012.402, 13.97225
1012.884, 13.96430
1013.366, 13.90696
1013.848, 13.89226
1014.330, 13.93627
1014.813, 13.95825
1015.295, 13.88105
1015.777, 13.80571
1016.259, 13.92494
1016.741, 14.15797
1017.223, 14.29957
1017.705, 14.34580
1018.187, 14.38703
1018.669, 14.44286
1019.152, 14.34097
1019.634, 13.87601
1020.116, 13.30939
1020.598, 13.27655
1021.080, 13.68524
1021.562, 14.00576
1022.044, 14.20094
1022.526, 14.27250
1023.008, 14.21676
1023.491, 14.16332
1023.973, 14.25711
1024.455, 14.41569
1024.937, 14.35689
1025.419, 14.07886
1025.901, 13.80199
1026.383, 13.52550
1026.865, 13.43600
1027.348, 13.63006
1027.830, 13.93213
1028.312, 14.18282
1028.794, 14.36044
1029.276, 14.33617
1029.758, 14.06073
1030.240, 13.89362
1030.722, 13.87047
1031.204, 13.91613
1031.687, 14.04633
1032.169, 14.12026
1032.651, 13.93509
1033.133, 13.56968
1033.615, 13.50825
1034.097, 13.88560
1034.579, 14.14057
1035.061, 14.21699
1035.544, 14.24273
1036.026, 14.24124
1036.508, 14.24951
1036.990, 14.34020
1037.472, 14.48312
1037.954, 14.44940
1038.436, 14.08338
1038.918, 13.88101
1039.401, 13.98802
1039.883, 14.04282
1040.365, 13.82527
1040.847, 13.57697
1041.329, 13.58911
1041.811, 13.81799
1042.293, 13.93988
1042.775, 13.89094
1043.257, 13.84551
1043.740, 13.77642
1044.222, 13.74442
1044.704, 13.81647
1045.186, 13.89943
1045.668, 13.92885
1046.150, 13.89351
1046.632, 13.72789
1047.114, 13.23132
1047.596, 13.00036
1048.079, 13.28374
1048.561, 13.58764
1049.043, 13.78098
1049.525, 13.86535
1050.007, 13.84003
1050.489, 13.71153
1050.971, 13.47643
1051.453, 12.98289
1051.936, 12.75620
1052.418, 13.13876
1052.900, 13.49032
1053.382, 13.48530
1053.864, 13.36671
1054.346, 13.38651
1054.828, 13.51320
1055.310, 13.59580
1055.792, 13.66142
1056.275, 13.50557
1056.757, 12.72018
1057.239, 12.14249
1057.721, 12.29931
1058.203, 12.71528
1058.685, 12.98098
1059.167, 13.08505
1059.649, 13.11950
1060.131, 13.08711
1060.614, 13.06324
1061.096, 13.05979
1061.578, 13.08449
1062.060, 13.22278
1062.542, 13.32318
1063.024, 13.15954
1063.506, 12.85302
1063.988, 12.74903
1064.471, 12.95393
1064.953, 13.11668
1065.435, 13.06489
1065.917, 12.99514
1066.399, 13.01038
1066.881, 13.04604
1067.363, 13.04404
1067.845, 13.01094
1068.328, 12.96758
1068.810, 12.91764
1069.292, 12.89110
1069.774, 12.89229
1070.256, 12.92883
1070.738, 13.06090
1071.220, 13.17922
1071.702, 13.18363
1072.184, 13.10202
1072.667, 12.97400
1073.149, 12.81507
1073.631, 12.73527
1074.113, 12.86477
1074.595, 12.97440
1075.077, 12.95759
1075.559, 12.87215
1076.041, 12.72711
1076.523, 12.56665
1077.006, 12.44232
1077.488, 12.36774
1077.970, 12.36339
1078.452, 12.51185
1078.934, 12.60517
1079.416, 12.39871
1079.898, 12.24406
1080.380, 12.54777
1080.863, 13.00781
1081.345, 13.16672
1081.827, 12.99653
1082.309, 12.77509
1082.791, 12.55268
1083.273, 12.41933
1083.755, 12.41156
1084.237, 12.51332
1084.719, 12.90363
1085.202, 13.27044
1085.684, 13.09567
1086.166, 12.51514
1086.648, 12.23785
1087.130, 12.57916
1087.612, 12.85463
1088.094, 12.66233
1088.576, 12.43311
1089.058, 12.48506
1089.541, 12.59308
1090.023, 12.44771
1090.505, 12.14413
1090.987, 12.01925
1091.469, 12.17563
1091.951, 12.35214
1092.433, 12.47962
1092.915, 12.55866
1093.397, 12.55071
1093.880, 12.52861
1094.362, 12.62830
1094.844, 12.74139
1095.326, 12.58609
1095.808, 12.10949
1096.290, 11.77569
1096.772, 11.83546
1097.254, 11.93563
1097.737, 11.95677
1098.219, 11.95457
1098.701, 11.95571
1099.183, 11.96939
1099.665, 12.00369
1100.147, 12.05936
1100.629, 12.13583
1101.111, 12.29892
1101.594, 12.37179
1102.076, 12.17988
1102.558, 12.02587
1103.040, 12.12854
1103.522, 12.33148
1104.004, 12.48489
1104.486, 12.55972
1104.968, 12.49555
1105.450, 12.18518
1105.932, 11.98116
1106.415, 12.02078
1106.897, 12.09543
1107.379, 12.14708
1107.861, 12.17546
1108.343, 12.15964
1108.825, 12.12563
1109.307, 12.16862
1109.789, 12.35261
1110.272, 12.36144
1110.754, 11.96833
1111.236, 11.66143
1111.718, 11.60295
1112.200, 11.62389
1112.682, 11.60377
1113.164, 11.59192
1113.646, 11.71347
1114.129, 11.98995
1114.611, 12.13763
1115.093, 12.02510
1115.575, 11.97206
1116.057, 12.08951
1116.539, 12.16275
1117.021, 12.02033
1117.503, 11.71273
1117.985, 11.91063
1118.468, 12.02586
1118.950, 12.06282
1119.432, 11.78716
1119.914, 11.91518
1120.396, 11.88142
1120.878, 11.84103
1121.360, 12.02587
1121.842, 11.79568
1122.324, 11.97695
1122.807, 11.89162
1123.289, 11.86324
1123.771, 11.85142
1124.253, 11.85506
1124.735, 11.90747
1125.217, 11.85770
1125.699, 11.59976
1126.181, 11.43919
1126.664, 11.61364
1127.146, 11.91121
1127.628, 11.96583
1128.110, 11.79212
1128.592, 11.68058
1129.074, 11.63262
1129.556, 11.65537
1130.038, 11.77445
1130.521, 11.81485
1131.003, 11.68590
1131.485, 11.51165
1131.967, 11.41985
1132.449, 11.40470
1132.931, 11.44401
1133.413, 11.53779
1133.895, 11.75226
1134.377, 12.09410
1134.859, 12.22406
1135.342, 12.04071
1135.824, 11.83855
1136.306, 11.83854
1136.788, 11.90465
1137.270, 11.77666
1137.752, 11.50115
1138.234, 11.27842
1138.716, 11.11413
1139.199, 11.07683
1139.681, 11.16011
1140.163, 11.20353
1140.645, 11.13256
1141.127, 11.07740
1141.609, 11.19341
1142.091, 11.39790
1142.573, 11.55104
1143.056, 11.65390
1143.538, 11.69240
1144.020, 11.68427
1144.502, 11.70452
1144.984, 11.76291
1145.466, 11.76513
1145.948, 11.63525
1146.430, 11.47465
1146.912, 11.34887
1147.395, 11.29836
1147.877, 11.48135
1148.359, 11.73304
1148.841, 11.68951
1149.323, 11.40087
1149.805, 11.23831
1150.287, 11.35214
1150.769, 11.47929
1151.251, 11.37874
1151.734, 11.29241
1152.216, 11.45343
1152.698, 11.68266
1153.180, 11.77894
1153.662, 11.79632
1154.144, 11.94198
1154.626, 12.20695
1155.108, 12.18832
1155.591, 11.52243
1156.073, 10.96620
1156.555, 10.78955
1157.037, 10.83727
1157.519, 11.21842
1158.001, 11.62320
1158.483, 11.65302
1158.965, 11.41753
1159.448, 11.39078
1159.930, 11.73555
1160.412, 11.85774
1160.894, 11.47119
1161.376, 11.15023
1161.858, 10.96904
1162.340, 10.95201
1162.822, 11.26578
1163.304, 11.65352
1163.786, 11.69645
1164.269, 11.41083
1164.751, 11.30648
1165.233, 11.47732
1165.715, 11.60467
1166.197, 11.68772
1166.679, 11.68715
1167.161, 11.54434
1167.643, 11.41209
1168.126, 11.43360
1168.608, 11.55134
1169.090, 11.62717
1169.572, 11.66293
1170.054, 11.58645
1170.536, 11.37890
1171.018, 11.27403
1171.500, 11.31746
1171.983, 11.42592
1172.465, 11.56594
1172.947, 11.66514
1173.429, 11.63026
1173.911, 11.49510
1174.393, 11.31573
1174.875, 11.12259
1175.357, 11.09434
1175.839, 11.21464
1176.322, 11.33877
1176.804, 11.42075
1177.286, 11.44201
1177.768, 11.38443
1178.250, 11.31890
1178.732, 11.37490
1179.214, 11.44834
1179.696, 11.33751
1180.178, 11.13516
1180.661, 10.96542
1181.143, 10.88220
1181.625, 11.05660
1182.107, 11.49347
1182.589, 11.65740
1183.071, 10.96555
1183.553, 10.36438
1184.035, 10.71667
1184.518, 11.26822
1185.000, 11.32405
1185.482, 11.18093
1185.964, 11.35176
1186.446, 11.76956
1186.928, 11.96143
1187.410, 11.78655
1187.892, 11.55027
1188.375, 11.20363
1188.857, 10.99201
1189.339, 11.02294
1189.821, 11.18688
1190.303, 11.61703
1190.785, 12.02179
1191.267, 11.83736
1191.749, 11.12771
1192.231, 10.78273
1192.714, 10.93698
1193.196, 11.17712
1193.678, 11.63116
1194.160, 11.84575
1194.642, 11.59455
1195.124, 11.28946
1195.606, 11.24295
1196.088, 11.33806
1196.570, 11.35297
1197.053, 11.29083
1197.535, 11.16453
1198.017, 10.96953
1198.499, 10.96643
1198.981, 11.18454
1199.463, 11.31330
1199.945, 11.23213
1200.427, 11.09760
1200.910, 11.04526
1201.392, 11.03079
1201.874, 10.92919
1202.356, 10.82241
1202.838, 10.97500
1203.320, 11.29219
1203.802, 11.51099
1204.284, 11.59812
1204.766, 11.65568
1205.249, 11.71861
1205.731, 11.63246
1206.213, 11.09719
1206.695, 10.64206
1207.177, 10.88422
1207.659, 11.28914
1208.141, 11.28468
1208.623, 11.08010
1209.105, 11.03993
1209.588, 11.18100
1210.070, 11.33406
1210.552, 11.46487
1211.034, 11.56128
1211.516, 11.66475
1211.998, 11.67056
1212.480, 11.45183
1212.962, 11.22353
1213.445, 11.14017
1213.927, 11.12186
1214.409, 11.04920
1214.891, 10.92814
1215.373, 10.80057
1215.855, 10.59421
1216.337, 10.60816
1216.819, 10.93340
1217.302, 11.18793
1217.784, 11.25423
1218.266, 11.31617
1218.748, 11.50853
1219.230, 11.70802
1219.712, 11.71704
1220.194, 11.57176
1220.676, 11.39157
1221.158, 11.19761
1221.641, 11.22945
1222.123, 11.44316
1222.605, 11.35089
1223.087, 10.86197
1223.569, 10.49198
1224.051, 10.57698
1224.533, 10.85214
1225.015, 11.12375
1225.497, 11.30835
1225.979, 11.22384
1226.462, 11.02519
1226.944, 10.92214
1227.426, 10.91646
1227.908, 10.95626
1228.390, 11.02441
1228.872, 11.10950
1229.354, 11.23542
1229.836, 11.30808
1230.319, 11.24114
1230.801, 11.17213
1231.283, 11.17426
1231.765, 11.20012
1232.247, 11.20636
1232.729, 11.20433
1233.211, 11.22020
1233.693, 11.25412
1234.176, 11.31296
1234.658, 11.45128
1235.140, 11.45347
1235.622, 11.21884
1236.104, 11.14406
1236.586, 11.43165
1237.068, 11.62154
1237.550, 11.32213
1238.032, 10.83663
1238.515, 10.74148
1238.997, 10.95175
1239.479, 10.99191
1239.961, 10.90559
1240.443, 10.99008
1240.925, 11.22955
1241.407, 11.37240
1241.889, 11.33923
1242.371, 11.17950
1242.854, 10.90520
1243.336, 10.64479
1243.818, 10.47609
1244.300, 10.44837
1244.782, 10.70956
1245.264, 11.07239
1245.746, 11.40277
1246.228, 11.59741
1246.711, 11.40391
1247.193, 10.84759
1247.675, 10.52592
1248.157, 10.71707
1248.639, 10.92764
1249.121, 11.10102
1249.603, 11.20115
1250.085, 11.12217
1250.568, 11.06798
1251.050, 11.23797
1251.532, 11.46150
1252.014, 11.44047
1252.496, 11.20107
1252.978, 11.03489
1253.460, 10.94002
1253.942, 10.97739
1254.424, 11.17328
1254.906, 11.16735
1255.389, 10.85726
1255.871, 10.55103
1256.353, 10.43547
1256.835, 10.46286
1257.317, 10.61288
1257.799, 10.81343
1258.281, 10.89536
1258.763, 10.93092
1259.246, 11.10980
1259.728, 11.35285
1260.210, 11.42531
1260.692, 11.31866
1261.174, 11.22407
1261.656, 11.22459
1262.138, 11.17752
1262.620, 10.95250
1263.103, 10.73701
1263.585, 10.55262
1264.067, 10.48253
1264.549, 10.67499
1265.031, 10.95360
1265.513, 11.09817
1265.995, 11.12298
1266.477, 11.12378
1266.959, 11.11546
1267.442, 10.97847
1267.924, 10.60598
1268.406, 10.55236
1268.888, 10.98660
1269.370, 11.29415
1269.852, 11.19504
1270.334, 10.94255
1270.816, 10.76169
1271.298, 10.66202
1271.781, 10.67972
##END=



