##NAMES=Arakiite
##RRUFFID=R060812
##IDEAL CHEMISTRY=Zn^2+^Mn^2+^_12_Fe^3+^_2_(As^3+^O_3_)(As^5+^O_4_)_2_(OH)_23_
##LOCALITY=Nordmark, Sweden
##OWNER=RRUFF
##SOURCE=Michael Scott
##DESCRIPTION=Deep red massive between grains
##STATUS=The identification of this mineral has been confirmed by single-crystal X-ray diffraction.
##URL=rruff.info/R060812
166.842, 3956.573
167.324, 3961.570
167.806, 3966.792
168.288, 3970.145
168.770, 3968.539
169.253, 3964.894
169.735, 3963.133
170.217, 3966.896
170.699, 3972.137
171.181, 3975.011
171.663, 3975.213
172.145, 3976.030
172.627, 3980.071
173.109, 3986.564
173.592, 3994.034
174.074, 4006.217
174.556, 4017.228
175.038, 4016.693
175.520, 4001.162
176.002, 3986.764
176.484, 3993.118
176.966, 4014.860
177.449, 4035.652
177.931, 4041.298
178.413, 4040.866
178.895, 4053.039
179.377, 4085.075
179.859, 4117.946
180.341, 4123.321
180.823, 4105.305
181.305, 4087.470
181.788, 4083.952
182.270, 4092.118
182.752, 4106.679
183.234, 4129.642
183.716, 4154.052
184.198, 4168.557
184.680, 4173.288
185.162, 4171.419
185.645, 4162.093
186.127, 4147.210
186.609, 4132.864
187.091, 4115.722
187.573, 4103.460
188.055, 4122.307
188.537, 4174.719
189.019, 4225.412
189.501, 4242.385
189.984, 4228.544
190.466, 4206.021
190.948, 4173.661
191.430, 4138.335
191.912, 4129.001
192.394, 4148.863
192.876, 4176.476
193.358, 4187.839
193.840, 4183.384
194.323, 4183.247
194.805, 4197.005
195.287, 4221.477
195.769, 4235.086
196.251, 4236.392
196.733, 4231.934
197.215, 4229.583
197.697, 4229.546
198.180, 4229.170
198.662, 4227.265
199.144, 4223.937
199.626, 4222.056
200.108, 4222.351
200.590, 4222.707
201.072, 4217.682
201.554, 4205.345
202.036, 4199.087
202.519, 4206.892
203.001, 4229.972
203.483, 4248.352
203.965, 4262.815
204.447, 4271.157
204.929, 4265.322
205.411, 4239.991
205.893, 4220.733
206.376, 4222.482
206.858, 4249.988
207.340, 4268.430
207.822, 4276.041
208.304, 4275.508
208.786, 4271.092
209.268, 4260.514
209.750, 4252.985
210.232, 4255.599
210.714, 4272.792
211.197, 4280.657
211.679, 4275.750
212.161, 4262.614
212.643, 4253.193
213.125, 4247.630
213.607, 4245.969
214.089, 4249.167
214.572, 4259.249
215.054, 4267.418
215.536, 4272.801
216.018, 4275.787
216.500, 4277.920
216.982, 4279.343
217.464, 4279.150
217.946, 4275.648
218.428, 4265.771
218.911, 4260.981
219.393, 4263.155
219.875, 4271.104
220.357, 4280.211
220.839, 4292.953
221.321, 4303.209
221.803, 4305.715
222.285, 4294.508
222.767, 4291.137
223.250, 4301.196
223.732, 4322.232
224.214, 4336.050
224.696, 4341.687
225.178, 4341.846
225.660, 4337.139
226.142, 4322.792
226.624, 4314.583
227.107, 4316.091
227.589, 4326.371
228.071, 4334.108
228.553, 4334.814
229.035, 4338.225
229.517, 4353.589
229.999, 4391.957
230.481, 4419.566
230.963, 4428.960
231.445, 4421.140
231.928, 4416.213
232.410, 4414.292
232.892, 4415.163
233.374, 4419.296
233.856, 4429.804
234.338, 4437.380
234.820, 4439.269
235.303, 4435.633
235.785, 4436.719
236.267, 4446.364
236.749, 4456.870
237.231, 4461.638
237.713, 4460.273
238.195, 4453.494
238.677, 4437.309
239.159, 4411.688
239.641, 4401.282
240.124, 4412.713
240.606, 4432.965
241.088, 4450.209
241.570, 4462.697
242.052, 4475.557
242.534, 4492.830
243.016, 4514.907
243.498, 4519.912
243.981, 4496.006
244.463, 4466.199
244.945, 4453.235
245.427, 4464.975
245.909, 4479.023
246.391, 4493.247
246.873, 4507.789
247.355, 4513.643
247.837, 4506.474
248.320, 4494.641
248.802, 4486.342
249.284, 4483.326
249.766, 4480.495
250.248, 4475.841
250.730, 4469.166
251.212, 4470.269
251.694, 4488.048
252.176, 4504.887
252.659, 4500.684
253.141, 4460.915
253.623, 4430.296
254.105, 4418.668
254.587, 4426.589
255.069, 4438.375
255.551, 4455.613
256.033, 4475.121
256.516, 4495.469
256.998, 4521.614
257.480, 4536.917
257.962, 4532.645
258.444, 4508.307
258.926, 4503.658
259.408, 4529.545
259.890, 4561.288
260.372, 4570.602
260.855, 4544.407
261.337, 4528.513
261.819, 4536.530
262.301, 4567.960
262.783, 4585.407
263.265, 4583.284
263.747, 4575.091
264.229, 4575.567
264.711, 4589.951
265.194, 4597.590
265.676, 4593.029
266.158, 4576.993
266.640, 4557.541
267.122, 4529.738
267.604, 4507.377
268.086, 4507.975
268.569, 4540.126
269.051, 4565.192
269.533, 4574.716
270.015, 4569.893
270.497, 4561.678
270.979, 4547.598
271.461, 4535.634
271.943, 4534.857
272.425, 4547.750
272.908, 4559.694
273.390, 4566.732
273.872, 4570.101
274.354, 4579.835
274.836, 4598.490
275.318, 4616.994
275.800, 4626.080
276.282, 4624.255
276.764, 4624.187
277.247, 4630.262
277.729, 4639.761
278.211, 4636.873
278.693, 4618.235
279.175, 4599.483
279.657, 4595.251
280.139, 4606.383
280.621, 4616.605
281.103, 4623.276
281.586, 4626.688
282.068, 4626.448
282.550, 4621.550
283.032, 4618.465
283.514, 4624.660
283.996, 4639.922
284.478, 4651.441
284.960, 4658.089
285.443, 4658.895
285.925, 4647.719
286.407, 4623.699
286.889, 4601.005
287.371, 4590.151
287.853, 4590.347
288.335, 4594.777
288.817, 4602.917
289.299, 4614.132
289.782, 4630.627
290.264, 4652.050
290.746, 4667.164
291.228, 4664.142
291.710, 4646.861
292.192, 4632.449
292.674, 4623.175
293.156, 4617.971
293.638, 4617.249
294.121, 4620.531
294.603, 4622.185
295.085, 4614.817
295.567, 4603.010
296.049, 4601.415
296.531, 4614.744
297.013, 4631.105
297.496, 4630.728
297.978, 4617.241
298.460, 4608.465
298.942, 4625.180
299.424, 4651.990
299.906, 4654.770
300.388, 4624.735
300.870, 4591.572
301.352, 4591.264
301.835, 4616.212
302.317, 4642.350
302.799, 4656.646
303.281, 4664.698
303.763, 4674.833
304.245, 4687.917
304.727, 4699.624
305.209, 4703.753
305.691, 4703.220
306.174, 4704.462
306.656, 4713.578
307.138, 4724.250
307.620, 4730.056
308.102, 4730.594
308.584, 4729.175
309.066, 4724.356
309.548, 4719.944
310.030, 4722.000
310.513, 4740.048
310.995, 4760.537
311.477, 4774.789
311.959, 4782.520
312.441, 4784.597
312.923, 4775.357
313.405, 4762.575
313.887, 4755.488
314.370, 4762.353
314.852, 4771.104
315.334, 4775.261
315.816, 4775.158
316.298, 4775.781
316.780, 4787.768
317.262, 4797.495
317.744, 4793.138
318.226, 4746.249
318.709, 4709.946
319.191, 4708.458
319.673, 4735.851
320.155, 4759.395
320.637, 4767.702
321.119, 4770.032
321.601, 4772.225
322.083, 4777.309
322.565, 4779.676
323.048, 4773.379
323.530, 4762.383
324.012, 4760.209
324.494, 4770.743
324.976, 4789.148
325.458, 4815.291
325.940, 4869.404
326.422, 4898.522
326.905, 4878.125
327.387, 4830.452
327.869, 4807.505
328.351, 4838.919
328.833, 4869.171
329.315, 4878.981
329.797, 4853.451
330.279, 4843.904
330.762, 4860.999
331.244, 4890.075
331.726, 4907.460
332.208, 4905.373
332.690, 4903.140
333.172, 4907.804
333.654, 4922.190
334.136, 4925.229
334.618, 4906.996
335.100, 4887.069
335.583, 4892.143
336.065, 4938.557
336.547, 4970.190
337.029, 4968.604
337.511, 4934.736
337.993, 4920.031
338.475, 4929.951
338.957, 4948.019
339.440, 4961.225
339.922, 4970.215
340.404, 4968.652
340.886, 4949.503
341.368, 4920.087
341.850, 4914.074
342.332, 4935.339
342.814, 4961.965
343.297, 4977.566
343.779, 4982.600
344.261, 4985.839
344.743, 4988.415
345.225, 4990.441
345.707, 4992.646
346.189, 4995.157
346.671, 4995.774
347.153, 4986.980
347.635, 4973.843
348.118, 4979.013
348.600, 5008.179
349.082, 5044.785
349.564, 5068.084
350.046, 5079.286
350.528, 5083.778
351.010, 5078.228
351.492, 5069.360
351.975, 5071.862
352.457, 5087.903
352.939, 5102.136
353.421, 5095.540
353.903, 5076.237
354.385, 5061.538
354.867, 5064.061
355.349, 5071.709
355.832, 5070.526
356.314, 5060.984
356.796, 5055.633
357.278, 5068.735
357.760, 5089.479
358.242, 5104.135
358.724, 5103.242
359.206, 5100.338
359.688, 5104.907
360.171, 5114.995
360.653, 5120.986
361.135, 5110.755
361.617, 5099.102
362.099, 5098.045
362.581, 5118.799
363.063, 5136.104
363.545, 5138.444
364.027, 5131.199
364.510, 5127.810
364.992, 5135.418
365.474, 5144.555
365.956, 5151.380
366.438, 5155.612
366.920, 5157.300
367.402, 5154.967
367.884, 5150.622
368.366, 5147.222
368.849, 5144.909
369.331, 5143.709
369.813, 5143.779
370.295, 5145.229
370.777, 5147.277
371.259, 5150.061
371.741, 5153.318
372.224, 5157.337
372.706, 5165.022
373.188, 5166.943
373.670, 5155.946
374.152, 5135.279
374.634, 5137.552
375.116, 5173.162
375.598, 5211.571
376.080, 5231.681
376.562, 5231.404
377.045, 5220.160
377.527, 5192.967
378.009, 5160.315
378.491, 5154.410
378.973, 5179.074
379.455, 5203.340
379.937, 5205.182
380.419, 5187.414
380.902, 5186.706
381.384, 5208.708
381.866, 5236.141
382.348, 5241.254
382.830, 5227.282
383.312, 5217.118
383.794, 5223.862
384.276, 5240.893
384.759, 5253.470
385.241, 5261.280
385.723, 5267.575
386.205, 5275.406
386.687, 5283.597
387.169, 5289.392
387.651, 5286.923
388.133, 5286.162
388.615, 5301.976
389.098, 5331.078
389.580, 5355.866
390.062, 5363.518
390.544, 5361.920
391.026, 5358.134
391.508, 5352.633
391.990, 5347.654
392.472, 5343.139
392.954, 5340.255
393.437, 5341.305
393.919, 5351.421
394.401, 5362.646
394.883, 5371.545
395.365, 5377.798
395.847, 5381.646
396.329, 5384.222
396.811, 5384.067
397.293, 5379.479
397.776, 5346.451
398.258, 5333.289
398.740, 5365.254
399.222, 5444.383
399.704, 5487.190
400.186, 5470.159
400.668, 5434.534
401.151, 5404.875
401.633, 5374.205
402.115, 5362.970
402.597, 5382.089
403.079, 5420.314
403.561, 5439.092
404.043, 5430.051
404.525, 5418.632
405.007, 5418.132
405.490, 5432.069
405.972, 5437.347
406.454, 5431.398
406.936, 5421.264
407.418, 5416.435
407.900, 5416.975
408.382, 5422.687
408.864, 5439.795
409.346, 5462.158
409.828, 5456.645
410.311, 5420.483
410.793, 5383.175
411.275, 5371.903
411.757, 5382.294
412.239, 5399.115
412.721, 5422.216
413.203, 5445.474
413.685, 5460.863
414.168, 5468.569
414.650, 5469.773
415.132, 5460.907
415.614, 5447.517
416.096, 5436.860
416.578, 5430.317
417.060, 5423.809
417.542, 5412.645
418.025, 5399.646
418.507, 5389.672
418.989, 5382.316
419.471, 5380.333
419.953, 5388.570
420.435, 5407.125
420.917, 5421.104
421.399, 5426.269
421.881, 5424.173
422.364, 5416.077
422.846, 5385.749
423.328, 5368.387
423.810, 5380.651
424.292, 5413.438
424.774, 5429.465
425.256, 5405.463
425.738, 5384.667
426.220, 5385.987
426.703, 5422.459
427.185, 5445.662
427.667, 5451.298
428.149, 5446.330
428.631, 5438.631
429.113, 5423.104
429.595, 5418.310
430.077, 5434.542
430.560, 5468.524
431.042, 5481.664
431.524, 5468.924
432.006, 5451.043
432.488, 5445.890
432.970, 5453.151
433.452, 5462.402
433.934, 5473.501
434.417, 5483.748
434.899, 5486.491
435.381, 5482.549
435.863, 5479.837
436.345, 5485.559
436.827, 5495.343
437.309, 5497.837
437.791, 5491.071
438.273, 5488.146
438.755, 5509.126
439.238, 5541.543
439.720, 5562.927
440.202, 5553.689
440.684, 5538.228
441.166, 5533.692
441.648, 5538.978
442.130, 5546.625
442.612, 5557.041
443.095, 5565.948
443.577, 5570.208
444.059, 5569.671
444.541, 5563.753
445.023, 5541.811
445.505, 5515.288
445.987, 5506.731
446.469, 5546.555
446.952, 5578.969
447.434, 5583.721
447.916, 5554.699
448.398, 5536.972
448.880, 5534.552
449.362, 5540.267
449.844, 5548.937
450.326, 5563.076
450.808, 5573.595
451.290, 5577.481
451.773, 5577.274
452.255, 5584.565
452.737, 5602.711
453.219, 5615.826
453.701, 5609.923
454.183, 5585.834
454.665, 5578.800
455.147, 5593.506
455.630, 5612.720
456.112, 5609.152
456.594, 5587.776
457.076, 5577.177
457.558, 5598.079
458.040, 5629.482
458.522, 5633.023
459.004, 5611.166
459.487, 5588.195
459.969, 5571.913
460.451, 5568.277
460.933, 5589.687
461.415, 5650.295
461.897, 5705.976
462.379, 5729.614
462.861, 5728.632
463.343, 5717.592
463.826, 5686.192
464.308, 5659.772
464.790, 5651.934
465.272, 5664.978
465.754, 5678.769
466.236, 5689.335
466.718, 5698.961
467.200, 5709.269
467.682, 5720.875
468.165, 5732.373
468.647, 5743.269
469.129, 5754.015
469.611, 5766.231
470.093, 5780.963
470.575, 5795.105
471.057, 5807.642
471.539, 5818.439
472.022, 5828.055
472.504, 5837.555
472.986, 5843.381
473.468, 5838.038
473.950, 5821.541
474.432, 5811.337
474.914, 5812.703
475.396, 5822.313
475.878, 5832.650
476.361, 5844.044
476.843, 5859.333
477.325, 5890.880
477.807, 5925.116
478.289, 5931.930
478.771, 5903.134
479.253, 5876.465
479.735, 5890.376
480.217, 5927.601
480.700, 5959.260
481.182, 5967.715
481.664, 5971.888
482.146, 5979.769
482.628, 5991.494
483.110, 6008.060
483.592, 6031.224
484.074, 6057.868
484.556, 6086.975
485.039, 6123.586
485.521, 6152.035
486.003, 6167.436
486.485, 6174.866
486.967, 6180.847
487.449, 6179.270
487.931, 6186.230
488.414, 6210.475
488.896, 6250.672
489.378, 6272.297
489.860, 6268.119
490.342, 6263.344
490.824, 6281.579
491.306, 6324.875
491.788, 6350.582
492.270, 6350.230
492.753, 6340.634
493.235, 6353.954
493.717, 6386.524
494.199, 6411.883
494.681, 6409.270
495.163, 6393.988
495.645, 6389.337
496.127, 6395.494
496.609, 6418.291
497.092, 6481.642
497.574, 6556.068
498.056, 6605.254
498.538, 6611.238
499.020, 6608.190
499.502, 6611.333
499.984, 6619.142
500.466, 6628.491
500.948, 6637.955
501.431, 6649.211
501.913, 6664.518
502.395, 6684.780
502.877, 6700.164
503.359, 6701.627
503.841, 6703.715
504.323, 6717.497
504.805, 6757.959
505.288, 6779.258
505.770, 6771.134
506.252, 6746.808
506.734, 6739.556
507.216, 6755.302
507.698, 6763.108
508.180, 6742.606
508.662, 6700.556
509.145, 6697.751
509.627, 6739.364
510.109, 6777.762
510.591, 6757.629
511.073, 6697.398
511.555, 6655.499
512.037, 6647.102
512.519, 6652.831
513.001, 6652.941
513.484, 6649.713
513.966, 6648.895
514.448, 6658.042
514.930, 6667.112
515.412, 6668.497
515.894, 6661.763
516.376, 6652.333
516.858, 6644.657
517.341, 6633.703
517.823, 6615.113
518.305, 6569.086
518.787, 6541.086
519.269, 6551.309
519.751, 6580.191
520.233, 6588.768
520.715, 6561.705
521.197, 6538.907
521.680, 6533.843
522.162, 6546.196
522.644, 6548.754
523.126, 6539.584
523.608, 6526.164
524.090, 6513.548
524.572, 6501.689
525.054, 6491.606
525.536, 6483.937
526.019, 6476.292
526.501, 6467.343
526.983, 6456.015
527.465, 6437.436
527.947, 6395.566
528.429, 6352.922
528.911, 6339.559
529.393, 6352.996
529.875, 6369.758
530.358, 6387.185
530.840, 6394.890
531.322, 6380.617
531.804, 6330.567
532.286, 6287.259
532.768, 6276.307
533.250, 6277.942
533.732, 6264.855
534.214, 6213.360
534.697, 6169.208
535.179, 6141.052
535.661, 6127.971
536.143, 6119.648
536.625, 6119.731
537.107, 6118.868
537.589, 6110.033
538.071, 6091.117
538.554, 6081.947
539.036, 6085.786
539.518, 6092.157
540.000, 6084.348
540.482, 6064.465
540.964, 6051.308
541.446, 6052.440
541.928, 6060.359
542.411, 6062.278
542.893, 6059.558
543.375, 6059.132
543.857, 6075.876
544.339, 6090.709
544.821, 6080.538
545.303, 6040.340
545.785, 6003.421
546.268, 5988.570
546.750, 5984.091
547.232, 5978.668
547.714, 5968.889
548.196, 5959.222
548.678, 5949.317
549.160, 5940.048
549.642, 5934.300
550.124, 5939.867
550.606, 5937.242
551.089, 5916.337
551.571, 5876.526
552.053, 5850.987
552.535, 5840.840
553.017, 5842.399
553.499, 5862.415
553.981, 5898.281
554.463, 5904.778
554.945, 5869.107
555.428, 5821.508
555.910, 5808.760
556.392, 5821.778
556.874, 5831.242
557.356, 5817.446
557.838, 5798.667
558.320, 5795.197
558.802, 5804.586
559.284, 5810.978
559.767, 5799.273
560.249, 5786.537
560.731, 5786.675
561.213, 5808.740
561.695, 5821.711
562.177, 5813.030
562.659, 5795.168
563.141, 5781.882
563.624, 5772.008
564.106, 5768.938
564.588, 5774.571
565.070, 5786.824
565.552, 5801.444
566.034, 5821.680
566.516, 5831.863
566.998, 5818.536
567.481, 5785.949
567.963, 5769.068
568.445, 5768.546
568.927, 5775.433
569.409, 5783.051
569.891, 5791.714
570.373, 5804.065
570.855, 5824.077
571.338, 5838.685
571.820, 5824.297
572.302, 5797.155
572.784, 5787.856
573.266, 5841.427
573.748, 5884.411
574.230, 5872.284
574.712, 5810.030
575.194, 5767.867
575.677, 5776.978
576.159, 5792.643
576.641, 5792.897
577.123, 5767.388
577.605, 5760.875
578.087, 5780.401
578.569, 5810.009
579.051, 5832.580
579.533, 5848.076
580.016, 5858.013
580.498, 5863.704
580.980, 5862.629
581.462, 5841.697
581.944, 5804.851
582.426, 5779.446
582.908, 5790.360
583.390, 5816.669
583.872, 5832.009
584.355, 5835.831
584.837, 5831.887
585.319, 5813.664
585.801, 5793.582
586.283, 5783.962
586.765, 5794.146
587.247, 5798.214
587.729, 5776.045
588.211, 5748.444
588.694, 5744.910
589.176, 5790.409
589.658, 5824.189
590.140, 5834.054
590.622, 5825.765
591.104, 5823.669
591.586, 5830.583
592.068, 5833.790
592.551, 5823.156
593.033, 5801.435
593.515, 5793.927
593.997, 5801.849
594.479, 5811.604
594.961, 5814.335
595.443, 5809.260
595.925, 5788.219
596.407, 5817.313
596.890, 5834.238
597.372, 5839.647
597.854, 5799.049
598.336, 5817.053
598.818, 5838.617
599.300, 5853.128
599.782, 5862.914
600.265, 5868.585
600.747, 5873.249
601.229, 5879.237
601.711, 5881.724
602.193, 5876.404
602.675, 5860.571
603.157, 5858.393
603.639, 5874.856
604.121, 5893.908
604.604, 5898.830
605.086, 5890.302
605.568, 5886.070
606.050, 5889.307
606.532, 5895.728
607.014, 5900.938
607.496, 5904.509
607.978, 5905.240
608.460, 5896.241
608.943, 5889.306
609.425, 5895.384
609.907, 5912.482
610.389, 5931.969
610.871, 5956.188
611.353, 5976.887
611.835, 5988.390
612.317, 5988.070
612.799, 5990.403
613.282, 6001.069
613.764, 6010.331
614.246, 6008.570
614.728, 5988.352
615.210, 5985.271
615.692, 6008.387
616.174, 6039.042
616.656, 6041.748
617.138, 6018.320
617.621, 6001.527
618.103, 6003.895
618.585, 6017.206
619.067, 6031.723
619.549, 6046.171
620.031, 6054.897
620.513, 6041.827
620.995, 6030.437
621.477, 6047.511
621.960, 6096.333
622.442, 6129.666
622.924, 6110.411
623.406, 6083.560
623.888, 6082.205
624.370, 6141.779
624.852, 6168.076
625.334, 6143.137
625.817, 6098.885
626.299, 6080.196
626.781, 6092.458
627.263, 6103.508
627.745, 6107.899
628.227, 6105.929
628.709, 6097.189
629.191, 6082.071
629.674, 6063.917
630.156, 6037.331
630.638, 6012.888
631.120, 6011.574
631.602, 6031.221
632.084, 6043.751
632.566, 6024.823
633.048, 5997.184
633.531, 5977.361
634.013, 5968.608
634.495, 5966.795
634.977, 5972.988
635.459, 5985.022
635.941, 6002.138
636.423, 6034.205
636.905, 6049.961
637.387, 6043.448
637.870, 6021.564
638.352, 5992.321
638.834, 5954.099
639.316, 5934.703
639.798, 5952.963
640.280, 5990.669
640.762, 6006.100
641.244, 6002.131
641.726, 5996.834
642.209, 6010.785
642.691, 6023.521
643.173, 6008.661
643.655, 5962.191
644.137, 5927.739
644.619, 5927.248
645.101, 5943.094
645.583, 5962.637
646.065, 5990.909
646.548, 6012.031
647.030, 6025.050
647.512, 6031.248
647.994, 6030.438
648.476, 6020.174
648.958, 6012.621
649.440, 6009.155
649.922, 6010.452
650.404, 6021.013
650.887, 6039.441
651.369, 6054.807
651.851, 6059.615
652.333, 6059.447
652.815, 6064.001
653.297, 6071.690
653.779, 6071.418
654.261, 6044.286
654.744, 6016.854
655.226, 6007.270
655.708, 6020.247
656.190, 6038.118
656.672, 6073.628
657.154, 6101.928
657.636, 6101.818
658.118, 6058.575
658.601, 6032.627
659.083, 6031.663
659.565, 6041.466
660.047, 6040.186
660.529, 6028.683
661.011, 6019.512
661.493, 6015.253
661.975, 6016.711
662.458, 6030.024
662.940, 6051.035
663.422, 6066.725
663.904, 6067.061
664.386, 6063.154
664.868, 6061.691
665.350, 6062.716
665.832, 6063.450
666.314, 6070.237
666.797, 6069.839
667.279, 6050.784
667.761, 6004.053
668.243, 5990.446
668.725, 6023.927
669.207, 6064.706
669.689, 6073.680
670.171, 6052.104
670.653, 6045.503
671.135, 6060.673
671.618, 6082.795
672.100, 6100.011
672.582, 6109.661
673.064, 6104.173
673.546, 6069.015
674.028, 6036.931
674.510, 6037.547
674.992, 6056.975
675.474, 6065.591
675.957, 6041.544
676.439, 6019.944
676.921, 6011.389
677.403, 6014.412
677.885, 6022.231
678.367, 6040.389
678.849, 6050.844
679.331, 6038.823
679.814, 6007.547
680.296, 6002.248
680.778, 6024.322
681.260, 6052.356
681.742, 6074.331
682.224, 6087.954
682.706, 6083.179
683.188, 6055.363
683.670, 6035.035
684.153, 6052.586
684.635, 6084.072
685.117, 6104.919
685.599, 6103.241
686.081, 6099.670
686.563, 6096.302
687.045, 6093.479
687.528, 6091.667
688.010, 6091.308
688.492, 6091.605
688.974, 6092.961
689.456, 6094.611
689.938, 6092.988
690.420, 6088.409
690.902, 6087.375
691.384, 6093.670
691.867, 6104.790
692.349, 6117.364
692.831, 6131.462
693.313, 6147.344
693.795, 6171.160
694.277, 6191.935
694.759, 6202.796
695.241, 6202.982
695.723, 6195.586
696.206, 6174.937
696.688, 6152.390
697.170, 6131.222
697.652, 6105.802
698.134, 6109.087
698.616, 6151.403
699.098, 6196.932
699.580, 6204.504
700.062, 6179.602
700.545, 6148.341
701.027, 6111.451
701.509, 6082.596
701.991, 6083.224
702.473, 6100.822
702.955, 6113.906
703.437, 6106.667
703.919, 6102.100
704.402, 6116.366
704.884, 6139.520
705.366, 6145.436
705.848, 6114.369
706.330, 6091.988
706.812, 6090.080
707.294, 6104.472
707.776, 6114.157
708.258, 6118.426
708.741, 6124.039
709.223, 6138.613
709.705, 6156.527
710.187, 6160.576
710.669, 6151.634
711.151, 6141.085
711.633, 6132.932
712.115, 6128.980
712.597, 6131.437
713.080, 6140.927
713.562, 6153.297
714.044, 6172.387
714.526, 6190.089
715.008, 6200.553
715.490, 6200.560
715.972, 6200.410
716.455, 6199.560
716.937, 6199.245
717.419, 6201.206
717.901, 6205.288
718.383, 6209.204
718.865, 6212.320
719.347, 6216.013
719.829, 6220.981
720.311, 6228.000
720.794, 6238.981
721.276, 6261.430
721.758, 6279.802
722.240, 6281.266
722.722, 6273.294
723.204, 6273.447
723.686, 6294.411
724.168, 6310.047
724.651, 6311.849
725.133, 6304.650
725.615, 6311.336
726.097, 6335.196
726.579, 6352.316
727.061, 6347.678
727.543, 6329.432
728.025, 6317.447
728.507, 6311.698
728.990, 6311.644
729.472, 6321.662
729.954, 6334.208
730.436, 6344.203
730.918, 6351.403
731.400, 6352.131
731.882, 6334.528
732.364, 6319.178
732.846, 6319.362
733.328, 6340.992
733.811, 6353.598
734.293, 6355.333
734.775, 6351.799
735.257, 6346.862
735.739, 6340.751
736.221, 6336.222
736.703, 6334.098
737.185, 6330.455
737.667, 6313.232
738.150, 6294.487
738.632, 6294.208
739.114, 6331.552
739.596, 6361.278
740.078, 6360.224
740.560, 6343.196
741.042, 6331.358
741.524, 6325.647
742.007, 6326.111
742.489, 6334.952
742.971, 6348.120
743.453, 6358.051
743.935, 6364.585
744.417, 6366.333
744.899, 6357.519
745.381, 6349.798
745.864, 6369.664
746.346, 6407.314
746.828, 6433.360
747.310, 6419.904
747.792, 6402.652
748.274, 6404.471
748.756, 6421.677
749.238, 6428.965
749.721, 6426.862
750.203, 6410.260
750.685, 6394.992
751.167, 6410.073
751.649, 6417.787
752.131, 6418.530
752.613, 6391.422
753.095, 6400.278
753.577, 6394.721
754.060, 6388.573
754.542, 6402.490
755.024, 6379.434
755.506, 6393.032
755.988, 6391.999
756.470, 6397.663
756.952, 6388.825
757.434, 6384.084
757.916, 6390.456
758.399, 6392.027
758.881, 6398.133
759.363, 6411.091
759.845, 6417.724
760.327, 6416.503
760.809, 6414.721
761.291, 6422.244
761.773, 6435.772
762.255, 6442.761
762.738, 6439.941
763.220, 6439.930
763.702, 6462.392
764.184, 6489.570
764.666, 6499.437
765.148, 6464.103
765.630, 6448.085
766.112, 6475.694
766.594, 6519.932
767.077, 6549.596
767.559, 6558.868
768.041, 6573.903
768.523, 6599.385
769.005, 6629.260
769.487, 6654.025
769.969, 6674.860
770.451, 6695.710
770.934, 6715.427
771.416, 6739.557
771.898, 6775.862
772.380, 6820.047
772.862, 6863.072
773.344, 6904.156
773.826, 6942.283
774.308, 6981.395
774.791, 7017.130
775.273, 7035.316
775.755, 7029.934
776.237, 7028.771
776.719, 7038.915
777.201, 7059.750
777.683, 7098.001
778.165, 7148.797
778.648, 7185.150
779.130, 7180.357
779.612, 7165.021
780.094, 7166.904
780.576, 7181.575
781.058, 7189.668
781.540, 7182.949
782.022, 7170.627
782.504, 7154.617
782.987, 7135.380
783.469, 7120.214
783.951, 7115.204
784.433, 7089.749
784.915, 7049.049
785.397, 7048.457
785.879, 7038.128
786.361, 7018.585
786.843, 6962.238
787.326, 6953.413
787.808, 6929.940
788.290, 6906.252
788.772, 6901.646
789.254, 6890.923
789.736, 6861.097
790.218, 6830.207
790.700, 6804.125
791.182, 6782.177
791.665, 6774.991
792.147, 6785.797
792.629, 6795.861
793.111, 6788.241
793.593, 6769.623
794.075, 6758.867
794.557, 6756.769
795.039, 6755.220
795.521, 6751.271
796.004, 6743.738
796.486, 6729.502
796.968, 6705.650
797.450, 6689.872
797.932, 6685.931
798.414, 6688.455
798.896, 6695.520
799.378, 6708.305
799.860, 6718.761
800.343, 6727.066
800.825, 6732.747
801.307, 6731.131
801.789, 6727.586
802.271, 6735.179
802.753, 6756.819
803.235, 6776.610
803.718, 6784.967
804.200, 6787.645
804.682, 6789.032
805.164, 6787.643
805.646, 6790.008
806.128, 6797.622
806.610, 6807.091
807.092, 6815.457
807.574, 6822.790
808.057, 6827.580
808.539, 6828.130
809.021, 6836.675
809.503, 6874.657
809.985, 6926.358
810.467, 6966.440
810.949, 6987.606
811.431, 7005.111
811.914, 7030.485
812.396, 7051.751
812.878, 7056.277
813.360, 7031.716
813.842, 7018.071
814.324, 7017.401
814.806, 7024.631
815.288, 7038.836
815.770, 7057.287
816.253, 7062.663
816.735, 7050.322
817.217, 7035.549
817.699, 7029.782
818.181, 7006.829
818.663, 7008.476
819.145, 7004.151
819.627, 6994.175
820.109, 6961.627
820.592, 6958.225
821.074, 6943.143
821.556, 6927.584
822.038, 6921.855
822.520, 6914.702
823.002, 6905.592
823.484, 6897.909
823.966, 6891.113
824.448, 6883.483
824.931, 6874.239
825.413, 6865.040
825.895, 6859.332
826.377, 6852.980
826.859, 6841.259
827.341, 6811.107
827.823, 6794.358
828.305, 6798.022
828.787, 6807.355
829.270, 6804.556
829.752, 6789.562
830.234, 6776.151
830.716, 6766.256
831.198, 6757.308
831.680, 6748.005
832.162, 6737.250
832.644, 6722.402
833.127, 6698.957
833.609, 6680.909
834.091, 6681.722
834.573, 6685.742
835.055, 6675.809
835.537, 6644.660
836.019, 6618.272
836.501, 6595.947
836.984, 6583.140
837.466, 6597.775
837.948, 6629.288
838.430, 6635.578
838.912, 6604.223
839.394, 6570.362
839.876, 6558.756
840.358, 6561.801
840.841, 6572.444
841.323, 6599.738
841.805, 6614.332
842.287, 6612.942
842.769, 6600.507
843.251, 6576.347
843.733, 6538.695
844.215, 6523.024
844.697, 6535.630
845.180, 6553.778
845.662, 6549.700
846.144, 6535.154
846.626, 6528.168
847.108, 6532.393
847.590, 6543.728
848.072, 6572.750
848.554, 6600.107
849.036, 6609.312
849.519, 6597.604
850.001, 6572.313
850.483, 6526.060
850.965, 6485.401
851.447, 6484.339
851.929, 6512.023
852.411, 6527.417
852.893, 6525.479
853.375, 6522.652
853.858, 6534.524
854.340, 6549.520
854.822, 6556.246
855.304, 6549.178
855.786, 6546.962
856.268, 6551.410
856.750, 6559.969
857.232, 6572.368
857.714, 6588.536
858.197, 6604.924
858.679, 6622.687
859.161, 6624.631
859.643, 6570.375
860.125, 6504.464
860.607, 6488.980
861.089, 6533.278
861.571, 6575.377
862.054, 6596.767
862.536, 6605.141
863.018, 6602.673
863.500, 6587.474
863.982, 6585.800
864.464, 6601.188
864.946, 6614.710
865.428, 6604.778
865.911, 6584.894
866.393, 6597.051
866.875, 6638.339
867.357, 6661.850
867.839, 6614.156
868.321, 6560.417
868.803, 6540.716
869.285, 6559.893
869.767, 6584.604
870.250, 6624.110
870.732, 6650.488
871.214, 6646.210
871.696, 6619.071
872.178, 6604.569
872.660, 6601.822
873.142, 6602.063
873.624, 6602.116
874.106, 6601.000
874.589, 6594.950
875.071, 6585.697
875.553, 6583.363
876.035, 6600.420
876.517, 6611.491
876.999, 6606.189
877.481, 6590.721
877.963, 6592.345
878.445, 6611.308
878.928, 6628.651
879.410, 6638.943
879.892, 6640.451
880.374, 6623.666
880.856, 6596.242
881.338, 6577.313
881.820, 6581.105
882.302, 6586.667
882.784, 6585.350
883.267, 6582.598
883.749, 6590.853
884.231, 6612.580
884.713, 6631.485
885.195, 6643.150
885.677, 6651.610
886.159, 6663.052
886.641, 6676.525
887.124, 6690.985
887.606, 6712.953
888.088, 6724.369
888.570, 6712.168
889.052, 6686.385
889.534, 6659.137
890.016, 6621.658
890.498, 6608.381
890.981, 6626.887
891.463, 6657.709
891.945, 6676.620
892.427, 6686.676
892.909, 6701.493
893.391, 6726.646
893.873, 6739.068
894.355, 6699.264
894.838, 6652.279
895.320, 6644.504
895.802, 6705.222
896.284, 6745.536
896.766, 6763.603
897.248, 6765.030
897.730, 6745.069
898.212, 6709.912
898.694, 6704.018
899.177, 6729.648
899.659, 6746.583
900.141, 6709.865
900.623, 6660.627
901.105, 6636.018
901.587, 6641.036
902.069, 6647.039
902.551, 6648.584
903.033, 6653.582
903.516, 6666.586
903.998, 6686.421
904.480, 6703.146
904.962, 6716.771
905.444, 6730.111
905.926, 6751.358
906.408, 6768.030
906.890, 6763.891
907.372, 6743.134
907.855, 6725.018
908.337, 6714.852
908.819, 6708.328
909.301, 6705.365
909.783, 6705.065
910.265, 6703.385
910.747, 6700.367
911.229, 6704.999
911.711, 6726.625
912.194, 6747.269
912.676, 6735.575
913.158, 6707.887
913.640, 6695.264
914.122, 6726.477
914.604, 6749.778
915.086, 6754.045
915.568, 6747.552
916.051, 6737.515
916.533, 6722.687
917.015, 6723.413
917.497, 6746.002
917.979, 6769.300
918.461, 6768.021
918.943, 6752.104
919.425, 6733.813
919.907, 6711.941
920.390, 6701.655
920.872, 6714.136
921.354, 6735.399
921.836, 6757.473
922.318, 6781.185
922.800, 6798.674
923.282, 6809.220
923.764, 6817.077
924.247, 6829.979
924.729, 6839.832
925.211, 6827.470
925.693, 6794.080
926.175, 6773.904
926.657, 6803.044
927.139, 6825.288
927.621, 6806.869
928.104, 6756.911
928.586, 6747.078
929.068, 6781.840
929.550, 6822.726
930.032, 6860.645
930.514, 6887.424
930.996, 6882.310
931.478, 6855.092
931.960, 6833.778
932.443, 6833.938
932.925, 6836.260
933.407, 6834.609
933.889, 6831.551
934.371, 6830.444
934.853, 6830.537
935.335, 6840.003
935.817, 6863.932
936.299, 6885.868
936.782, 6879.778
937.264, 6857.414
937.746, 6837.161
938.228, 6818.997
938.710, 6815.738
939.192, 6853.723
939.674, 6891.778
940.156, 6894.622
940.638, 6852.259
941.121, 6835.813
941.603, 6848.785
942.085, 6865.554
942.567, 6861.865
943.049, 6849.343
943.531, 6845.330
944.013, 6850.598
944.495, 6854.329
944.977, 6844.811
945.460, 6841.377
945.942, 6855.734
946.424, 6884.044
946.906, 6897.494
947.388, 6895.703
947.870, 6887.847
948.352, 6872.922
948.834, 6859.626
949.317, 6867.013
949.799, 6885.170
950.281, 6890.458
950.763, 6847.582
951.245, 6825.833
951.727, 6851.375
952.209, 6895.468
952.691, 6911.963
953.174, 6899.562
953.656, 6894.450
954.138, 6903.947
954.620, 6915.186
955.102, 6909.569
955.584, 6899.825
956.066, 6905.415
956.548, 6938.395
957.031, 6955.528
957.513, 6938.332
957.995, 6916.326
958.477, 6907.919
958.959, 6912.688
959.441, 6912.001
959.923, 6905.881
960.405, 6902.872
960.887, 6920.712
961.370, 6935.474
961.852, 6909.949
962.334, 6853.745
962.816, 6832.210
963.298, 6886.181
963.780, 6932.762
964.262, 6952.950
964.744, 6953.313
965.226, 6949.614
965.709, 6941.762
966.191, 6927.930
966.673, 6902.908
967.155, 6880.718
967.637, 6872.074
968.119, 6873.862
968.601, 6882.210
969.083, 6899.669
969.565, 6919.382
970.048, 6944.375
970.530, 6966.164
971.012, 6976.516
971.494, 6976.547
971.976, 6967.702
972.458, 6949.978
972.940, 6936.609
973.422, 6938.706
973.904, 6945.843
974.387, 6950.957
974.869, 6953.759
975.351, 6959.806
975.833, 6971.395
976.315, 6977.567
976.797, 6968.537
977.279, 6954.892
977.761, 6963.092
978.244, 6986.652
978.726, 7005.174
979.208, 7008.078
979.690, 7005.675
980.172, 6989.166
980.654, 6975.186
981.136, 6994.764
981.618, 7058.601
982.101, 7089.607
982.583, 7073.877
983.065, 7044.958
983.547, 7043.089
984.029, 7052.966
984.511, 7049.680
984.993, 7027.216
985.475, 7008.392
985.957, 6996.894
986.440, 6994.753
986.922, 7006.289
987.404, 7030.110
987.886, 7044.791
988.368, 7050.318
988.850, 7052.380
989.332, 7049.206
989.814, 7048.194
990.296, 7063.582
990.779, 7087.205
991.261, 7095.287
991.743, 7068.665
992.225, 7048.808
992.707, 7043.798
993.189, 7044.337
993.671, 7027.235
994.153, 7000.263
994.635, 7004.169
995.118, 7053.349
995.600, 7101.458
996.082, 7117.800
996.564, 7116.314
997.046, 7105.156
997.528, 7081.408
998.010, 7073.115
998.492, 7085.805
998.974, 7095.661
999.457, 7084.721
999.939, 7060.776
1000.421, 7034.470
1000.903, 7009.741
1001.385, 7003.987
1001.867, 7043.334
1002.349, 7083.496
1002.831, 7110.111
1003.314, 7125.239
1003.796, 7132.146
1004.278, 7130.866
1004.760, 7118.770
1005.242, 7091.718
1005.724, 7067.073
1006.206, 7063.255
1006.688, 7074.632
1007.171, 7098.887
1007.653, 7148.363
1008.135, 7163.281
1008.617, 7114.604
1009.099, 7064.538
1009.581, 7052.002
1010.063, 7072.401
1010.545, 7093.066
1011.027, 7113.289
1011.510, 7126.575
1011.992, 7124.114
1012.474, 7117.576
1012.956, 7107.786
1013.438, 7100.207
1013.920, 7113.665
1014.402, 7161.885
1014.884, 7189.377
1015.367, 7182.639
1015.849, 7162.396
1016.331, 7157.081
1016.813, 7161.819
1017.295, 7165.689
1017.777, 7165.236
1018.259, 7170.123
1018.741, 7196.177
1019.223, 7217.924
1019.706, 7218.167
1020.188, 7196.682
1020.670, 7178.970
1021.152, 7164.845
1021.634, 7162.369
1022.116, 7191.355
1022.598, 7222.574
1023.080, 7218.021
1023.563, 7190.394
1024.045, 7178.006
1024.527, 7202.605
1025.009, 7220.128
1025.491, 7223.725
1025.973, 7220.421
1026.455, 7220.288
1026.937, 7222.112
1027.419, 7218.002
1027.901, 7204.421
1028.384, 7204.119
1028.866, 7258.778
1029.348, 7309.890
1029.830, 7303.924
1030.312, 7240.807
1030.794, 7220.002
1031.276, 7248.976
1031.758, 7270.512
1032.241, 7240.255
1032.723, 7199.104
1033.205, 7218.120
1033.687, 7273.640
1034.169, 7309.545
1034.651, 7291.176
1035.133, 7271.952
1035.615, 7256.465
1036.098, 7245.485
1036.580, 7240.612
1037.062, 7241.122
1037.544, 7242.356
1038.026, 7243.498
1038.508, 7248.661
1038.990, 7282.974
1039.472, 7304.535
1039.954, 7259.930
1040.437, 7152.975
1040.919, 7125.534
1041.401, 7197.460
1041.883, 7270.476
1042.365, 7313.769
1042.847, 7330.427
1043.329, 7309.686
1043.811, 7269.552
1044.293, 7248.572
1044.776, 7279.155
1045.258, 7296.021
1045.740, 7274.779
1046.222, 7249.122
1046.704, 7252.494
1047.186, 7282.878
1047.668, 7295.695
1048.150, 7289.694
1048.633, 7276.010
1049.115, 7253.828
1049.597, 7234.684
1050.079, 7224.166
1050.561, 7224.274
1051.043, 7242.774
1051.525, 7289.625
1052.007, 7320.032
1052.490, 7319.595
1052.972, 7306.086
1053.454, 7300.191
1053.936, 7302.719
1054.418, 7320.066
1054.900, 7364.715
1055.382, 7384.380
1055.864, 7338.891
1056.346, 7292.544
1056.828, 7287.132
1057.311, 7317.331
1057.793, 7316.299
1058.275, 7287.382
1058.757, 7270.414
1059.239, 7298.477
1059.721, 7336.590
1060.203, 7370.010
1060.685, 7394.639
1061.168, 7400.563
1061.650, 7379.298
1062.132, 7371.855
1062.614, 7387.187
1063.096, 7401.291
1063.578, 7376.457
1064.060, 7336.639
1064.542, 7323.439
1065.025, 7343.136
1065.507, 7352.823
1065.989, 7329.545
1066.471, 7305.920
1066.953, 7290.239
1067.435, 7283.685
1067.917, 7295.507
1068.399, 7322.318
1068.881, 7344.062
1069.364, 7349.308
1069.846, 7355.072
1070.328, 7375.769
1070.810, 7400.375
1071.292, 7416.122
1071.774, 7421.214
1072.256, 7422.494
1072.738, 7419.127
1073.220, 7416.320
1073.703, 7426.292
1074.185, 7433.710
1074.667, 7406.839
1075.149, 7355.984
1075.631, 7334.575
1076.113, 7389.086
1076.595, 7420.364
1077.077, 7406.973
1077.559, 7371.365
1078.042, 7344.365
1078.524, 7326.499
1079.006, 7319.171
1079.488, 7323.253
1079.970, 7335.118
1080.452, 7360.198
1080.934, 7386.262
1081.416, 7409.423
1081.899, 7428.370
1082.381, 7421.873
1082.863, 7389.905
1083.345, 7371.764
1083.827, 7392.204
1084.309, 7423.944
1084.791, 7448.130
1085.273, 7464.737
1085.755, 7473.618
1086.238, 7474.646
1086.720, 7465.642
1087.202, 7441.085
1087.684, 7424.056
1088.166, 7447.312
1088.648, 7487.438
1089.130, 7498.393
1089.612, 7482.108
1090.094, 7465.136
1090.577, 7452.579
1091.059, 7447.780
1091.541, 7453.108
1092.023, 7464.901
1092.505, 7482.138
1092.987, 7500.924
1093.469, 7497.149
1093.951, 7461.813
1094.434, 7430.770
1094.916, 7427.264
1095.398, 7437.565
1095.880, 7453.607
1096.362, 7474.577
1096.844, 7493.577
1097.326, 7510.820
1097.808, 7522.980
1098.291, 7526.254
1098.773, 7526.911
1099.255, 7533.852
1099.737, 7542.535
1100.219, 7545.308
1100.701, 7532.478
1101.183, 7530.367
1101.665, 7541.970
1102.147, 7556.331
1102.630, 7569.423
1103.112, 7576.188
1103.594, 7557.863
1104.076, 7519.900
1104.558, 7494.454
1105.040, 7503.228
1105.522, 7515.978
1106.004, 7526.181
1106.486, 7534.763
1106.969, 7543.677
1107.451, 7552.411
1107.933, 7557.908
1108.415, 7559.317
1108.897, 7561.157
1109.379, 7567.208
1109.861, 7574.445
1110.343, 7586.521
1110.826, 7600.258
1111.308, 7580.677
1111.790, 7526.159
1112.272, 7486.075
1112.754, 7479.789
1113.236, 7492.665
1113.718, 7529.389
1114.200, 7566.682
1114.682, 7569.381
1115.165, 7513.714
1115.647, 7482.638
1116.129, 7480.137
1116.611, 7488.293
1117.093, 7496.923
1117.575, 7506.356
1118.057, 7516.637
1118.539, 7528.213
1119.021, 7542.603
1119.504, 7572.941
1119.986, 7587.212
1120.468, 7578.313
1120.950, 7558.099
1121.432, 7534.437
1121.914, 7512.481
1122.396, 7515.294
1122.878, 7544.057
1123.361, 7562.119
1123.843, 7533.404
1124.325, 7508.444
1124.807, 7505.323
1125.289, 7522.370
1125.771, 7566.579
1126.253, 7633.346
1126.735, 7668.788
1127.218, 7652.569
1127.700, 7629.652
1128.182, 7632.268
1128.664, 7645.238
1129.146, 7658.626
1129.628, 7671.916
1130.110, 7664.950
1130.592, 7635.272
1131.074, 7612.141
1131.557, 7612.448
1132.039, 7622.391
1132.521, 7627.961
1133.003, 7631.959
1133.485, 7639.772
1133.967, 7665.326
1134.449, 7661.647
1134.931, 7618.588
1135.413, 7583.080
1135.896, 7606.499
1136.378, 7655.607
1136.860, 7675.173
1137.342, 7670.055
1137.824, 7665.734
1138.306, 7673.743
1138.788, 7677.951
1139.270, 7676.944
1139.752, 7669.896
1140.235, 7646.836
1140.717, 7618.082
1141.199, 7614.797
1141.681, 7639.869
1142.163, 7666.643
1142.645, 7692.032
1143.127, 7704.333
1143.609, 7693.946
1144.092, 7672.247
1144.574, 7677.320
1145.056, 7701.513
1145.538, 7696.540
1146.020, 7641.846
1146.502, 7596.640
1146.984, 7613.356
1147.466, 7640.804
1147.948, 7639.763
1148.431, 7613.331
1148.913, 7607.242
1149.395, 7621.154
1149.877, 7648.107
1150.359, 7696.469
1150.841, 7738.008
1151.323, 7748.276
1151.805, 7740.065
1152.287, 7728.385
1152.770, 7709.924
1153.252, 7708.433
1153.734, 7725.816
1154.216, 7740.466
1154.698, 7734.975
1155.180, 7720.622
1155.662, 7700.120
1156.144, 7680.684
1156.627, 7685.085
1157.109, 7731.922
1157.591, 7750.719
1158.073, 7730.002
1158.555, 7702.889
1159.037, 7702.109
1159.519, 7715.827
1160.001, 7731.504
1160.484, 7747.103
1160.966, 7754.729
1161.448, 7749.304
1161.930, 7742.187
1162.412, 7732.478
1162.894, 7728.263
1163.376, 7752.321
1163.858, 7787.821
1164.340, 7798.090
1164.823, 7775.427
1165.305, 7759.356
1165.787, 7768.282
1166.269, 7773.182
1166.751, 7763.000
1167.233, 7743.859
1167.715, 7727.291
1168.197, 7714.484
1168.679, 7709.326
1169.162, 7714.663
1169.644, 7722.276
1170.126, 7733.222
1170.608, 7740.706
1171.090, 7737.640
1171.572, 7727.731
1172.054, 7730.640
1172.536, 7745.112
1173.019, 7765.836
1173.501, 7796.010
1173.983, 7823.887
1174.465, 7850.189
1174.947, 7867.515
1175.429, 7864.792
1175.911, 7843.171
1176.393, 7838.271
1176.875, 7848.958
1177.358, 7856.293
1177.840, 7840.975
1178.322, 7828.130
1178.804, 7829.639
1179.286, 7842.968
1179.768, 7869.673
1180.250, 7909.848
1180.732, 7931.032
1181.214, 7930.358
1181.697, 7920.149
1182.179, 7900.741
1182.661, 7883.043
1183.143, 7874.983
1183.625, 7874.411
1184.107, 7875.022
1184.589, 7876.549
1185.071, 7882.848
1185.554, 7895.051
1186.036, 7907.842
1186.518, 7917.668
1187.000, 7924.929
1187.482, 7931.664
1187.964, 7936.824
1188.446, 7927.831
1188.928, 7901.933
1189.411, 7892.297
1189.893, 7914.602
1190.375, 7935.201
1190.857, 7907.771
1191.339, 7867.360
1191.821, 7853.371
1192.303, 7870.854
1192.785, 7877.212
1193.267, 7870.167
1193.750, 7868.239
1194.232, 7881.863
1194.714, 7899.186
1195.196, 7908.270
1195.678, 7911.695
1196.160, 7911.928
1196.642, 7907.125
1197.124, 7909.963
1197.606, 7922.558
1198.089, 7930.164
1198.571, 7914.823
1199.053, 7898.923
1199.535, 7924.955
1200.017, 7967.007
1200.499, 7973.439
1200.981, 7909.880
1201.463, 7878.074
1201.945, 7883.377
1202.428, 7901.036
1202.910, 7915.558
1203.392, 7929.238
1203.874, 7947.215
1204.356, 7967.021
1204.838, 7980.290
1205.320, 7981.246
1205.802, 7988.103
1206.285, 8003.013
1206.767, 8019.752
1207.249, 8031.611
1207.731, 8041.901
1208.213, 8062.099
1208.695, 8086.885
1209.177, 8083.565
1209.659, 8029.759
1210.141, 8001.728
1210.624, 8015.485
1211.106, 8040.803
1211.588, 8038.301
1212.070, 8028.726
1212.552, 8044.191
1213.034, 8084.935
1213.516, 8117.220
1213.998, 8139.013
1214.480, 8147.324
1214.963, 8137.220
1215.445, 8125.618
1215.927, 8146.561
1216.409, 8174.896
1216.891, 8170.930
1217.373, 8128.151
1217.855, 8097.593
1218.337, 8085.198
1218.820, 8076.992
1219.302, 8066.549
1219.784, 8063.358
1220.266, 8091.151
1220.748, 8130.769
1221.230, 8154.571
1221.712, 8155.863
1222.194, 8150.189
1222.677, 8136.181
1223.159, 8121.900
1223.641, 8107.463
1224.123, 8099.501
1224.605, 8111.333
1225.087, 8134.779
1225.569, 8158.566
1226.051, 8182.942
1226.533, 8196.907
1227.016, 8198.508
1227.498, 8195.842
1227.980, 8189.701
1228.462, 8185.838
1228.944, 8198.495
1229.426, 8217.553
1229.908, 8224.544
1230.390, 8205.578
1230.872, 8205.450
1231.355, 8229.271
1231.837, 8249.973
1232.319, 8241.229
1232.801, 8227.229
1233.283, 8248.010
1233.765, 8285.293
1234.247, 8301.577
1234.729, 8282.974
1235.212, 8261.641
1235.694, 8234.230
1236.176, 8222.823
1236.658, 8264.736
1237.140, 8314.633
1237.622, 8313.417
1238.104, 8280.203
1238.586, 8264.558
1239.068, 8275.602
1239.551, 8285.456
1240.033, 8293.292
1240.515, 8297.659
1240.997, 8292.510
1241.479, 8287.968
1241.961, 8301.333
1242.443, 8322.755
1242.925, 8320.833
1243.407, 8285.648
1243.890, 8277.517
1244.372, 8304.489
1244.854, 8329.684
1245.336, 8307.263
1245.818, 8280.429
1246.300, 8288.173
1246.782, 8322.616
1247.264, 8354.211
1247.747, 8384.792
1248.229, 8388.543
1248.711, 8359.658
1249.193, 8331.365
1249.675, 8330.494
1250.157, 8341.362
1250.639, 8359.728
1251.121, 8379.269
1251.604, 8381.784
1252.086, 8367.087
1252.568, 8352.115
1253.050, 8338.908
1253.532, 8337.256
1254.014, 8361.319
1254.496, 8393.825
1254.978, 8431.204
1255.460, 8465.616
1255.943, 8471.978
1256.425, 8452.206
1256.907, 8433.735
1257.389, 8421.208
1257.871, 8409.601
1258.353, 8386.250
1258.835, 8373.227
1259.317, 8385.560
1259.799, 8414.107
1260.281, 8432.314
1260.764, 8442.131
1261.246, 8454.016
1261.728, 8471.765
1262.210, 8482.563
1262.692, 8479.651
1263.174, 8468.172
1263.656, 8447.408
1264.138, 8423.550
1264.621, 8411.534
1265.103, 8410.644
1265.585, 8423.214
1266.067, 8455.674
1266.549, 8467.460
1267.031, 8418.234
1267.513, 8382.311
1267.995, 8392.561
1268.478, 8427.688
1268.960, 8437.967
1269.442, 8434.579
1269.924, 8443.787
1270.406, 8474.478
1270.888, 8504.125
1271.370, 8531.657
1271.852, 8551.224
1272.334, 8558.825
1272.817, 8558.396
1273.299, 8554.403
1273.781, 8548.947
1274.263, 8543.540
1274.745, 8534.512
1275.227, 8549.690
1275.709, 8599.058
1276.191, 8640.923
1276.673, 8660.068
1277.156, 8657.478
1277.638, 8612.872
1278.120, 8558.426
1278.602, 8542.900
1279.084, 8580.444
1279.566, 8608.017
1280.048, 8625.908
1280.530, 8633.448
1281.013, 8627.002
1281.495, 8616.004
1281.977, 8609.006
1282.459, 8602.873
1282.941, 8592.271
1283.423, 8576.210
1283.905, 8570.134
1284.387, 8573.861
1284.870, 8586.392
1285.352, 8609.339
1285.834, 8636.648
##END=



