##NAMES=Aramayoite
##RRUFFID=R061071
##IDEAL CHEMISTRY=Ag^1+^_3_Sb^3+^_2_(Bi^3+^,Sb^3+^)S^2-^_6_
##LOCALITY=Animas mine, Potosi, Bolivia
##OWNER=RRUFF
##SOURCE=Michael Scott
##DESCRIPTION=Black platy submetallic
##STATUS=The identification of this mineral has been confirmed only by single crystal X-ray diffraction.
##URL=rruff.info/R061071
134.6465, 2856.133
135.1286, 2829.160
135.6108, 2787.107
136.0929, 2786.438
136.5750, 2869.418
137.0571, 3017.230
137.5392, 3135.139
138.0213, 3177.760
138.5035, 3233.874
138.9856, 3343.523
139.4677, 3506.750
139.9498, 3718.317
140.4319, 3965.791
140.9140, 4271.097
141.3961, 4665.871
141.8783, 5311.519
142.3604, 5926.142
142.8425, 6233.096
143.3246, 6232.728
143.8067, 6228.852
144.2888, 6416.437
144.7710, 6738.692
145.2531, 7055.156
145.7352, 7305.552
146.2173, 7449.973
146.6994, 7500.977
147.1815, 7515.082
147.6637, 7513.012
148.1458, 7492.052
148.6279, 7466.357
149.1100, 7459.194
149.5921, 7499.548
150.0742, 7546.458
150.5564, 7534.194
151.0385, 7450.250
151.5206, 7352.357
152.0027, 7251.684
152.4848, 7158.954
152.9669, 7096.507
153.4491, 7087.402
153.9312, 7104.474
154.4133, 7089.918
154.8954, 7026.452
155.3775, 6968.279
155.8596, 6940.462
156.3418, 6933.642
156.8239, 6936.739
157.3060, 6949.667
157.7881, 6966.481
158.2702, 6967.575
158.7523, 6936.035
159.2345, 6920.681
159.7166, 6948.575
160.1987, 7002.477
160.6808, 7056.860
161.1629, 7099.758
161.6451, 7133.717
162.1272, 7166.315
162.6093, 7199.495
163.0914, 7230.750
163.5735, 7267.875
164.0556, 7303.213
164.5378, 7321.936
165.0199, 7308.732
165.5020, 7273.992
165.9841, 7270.031
166.4662, 7326.980
166.9483, 7375.574
167.4305, 7390.195
167.9126, 7383.201
168.3947, 7375.266
168.8768, 7379.480
169.3589, 7393.764
169.8410, 7403.224
170.3232, 7398.915
170.8053, 7400.142
171.2874, 7421.853
171.7695, 7451.342
172.2516, 7464.559
172.7337, 7439.277
173.2159, 7382.503
173.6980, 7363.486
174.1801, 7430.625
174.6622, 7483.021
175.1443, 7476.556
175.6264, 7438.168
176.1085, 7417.304
176.5907, 7450.844
177.0728, 7532.405
177.5549, 7589.797
178.0370, 7596.729
178.5191, 7604.445
179.0012, 7626.726
179.4834, 7657.570
179.9655, 7683.791
180.4476, 7694.891
180.9297, 7693.612
181.4118, 7710.653
181.8939, 7778.423
182.3761, 7832.512
182.8582, 7845.164
183.3403, 7836.674
183.8224, 7843.734
184.3045, 7893.024
184.7866, 7977.948
185.2688, 8040.099
185.7509, 8056.564
186.2330, 8072.086
186.7151, 8097.116
187.1972, 8126.515
187.6793, 8150.936
188.1615, 8164.885
188.6436, 8168.986
189.1257, 8168.054
189.6078, 8153.383
190.0899, 8142.839
190.5720, 8129.967
191.0542, 8156.197
191.5363, 8173.595
192.0184, 8182.637
192.5005, 8158.296
192.9826, 8177.063
193.4647, 8178.555
193.9469, 8179.339
194.4290, 8204.174
194.9111, 8179.867
195.3932, 8177.752
195.8753, 8171.120
196.3574, 8158.573
196.8396, 8133.167
197.3217, 8072.909
197.8038, 8023.560
198.2859, 7992.813
198.7680, 7975.673
199.2501, 7969.489
199.7323, 7973.884
200.2144, 7981.842
200.6965, 7967.084
201.1786, 7911.106
201.6607, 7850.348
202.1428, 7772.832
202.6250, 7696.387
203.1071, 7646.271
203.5892, 7634.360
204.0713, 7646.088
204.5534, 7637.955
205.0355, 7581.574
205.5177, 7538.044
205.9998, 7523.750
206.4819, 7518.367
206.9640, 7498.962
207.4461, 7456.161
207.9282, 7398.332
208.4104, 7344.718
208.8925, 7284.285
209.3746, 7244.673
209.8567, 7239.931
210.3388, 7249.223
210.8209, 7254.852
211.3030, 7250.353
211.7852, 7237.156
212.2673, 7217.231
212.7494, 7182.942
213.2315, 7153.457
213.7136, 7127.025
214.1957, 7106.258
214.6779, 7097.873
215.1600, 7102.239
215.6421, 7107.831
216.1242, 7095.091
216.6063, 7047.436
217.0884, 7013.894
217.5706, 7002.542
218.0527, 6997.928
218.5348, 6991.192
219.0169, 6979.751
219.4990, 6963.302
219.9811, 6939.196
220.4633, 6896.249
220.9454, 6877.507
221.4275, 6907.526
221.9096, 6938.144
222.3917, 6933.169
222.8738, 6893.759
223.3560, 6851.912
223.8381, 6845.463
224.3202, 6888.339
224.8023, 6907.784
225.2844, 6880.417
225.7665, 6853.909
226.2487, 6858.094
226.7308, 6887.342
227.2129, 6913.063
227.6950, 6906.746
228.1771, 6863.673
228.6592, 6836.101
229.1414, 6828.153
229.6235, 6830.494
230.1056, 6841.063
230.5877, 6859.368
231.0698, 6887.320
231.5519, 6929.375
232.0341, 6984.631
232.5162, 7016.559
232.9983, 6992.807
233.4804, 6978.490
233.9625, 6989.799
234.4446, 7021.183
234.9268, 7061.094
235.4089, 7102.232
235.8910, 7145.735
236.3731, 7198.420
236.8552, 7282.667
237.3373, 7349.288
237.8195, 7381.945
238.3016, 7395.087
238.7837, 7405.668
239.2658, 7421.596
239.7479, 7425.416
240.2300, 7476.038
240.7122, 7517.836
241.1943, 7551.271
241.6764, 7551.322
242.1585, 7594.480
242.6406, 7620.363
243.1227, 7645.538
243.6049, 7694.771
244.0870, 7699.678
244.5691, 7748.522
245.0512, 7779.827
245.5333, 7819.159
246.0154, 7841.109
246.4975, 7868.428
246.9797, 7913.141
247.4618, 7925.495
247.9439, 7944.488
248.4260, 7955.393
248.9081, 7964.357
249.3902, 7965.493
249.8724, 7969.487
250.3545, 7982.974
250.8366, 8005.894
251.3187, 8033.027
251.8008, 8061.446
252.2829, 8091.934
252.7651, 8114.335
253.2472, 8113.661
253.7293, 8118.813
254.2114, 8151.595
254.6935, 8203.222
255.1756, 8245.360
255.6578, 8250.839
256.1399, 8224.647
256.6220, 8212.186
257.1041, 8216.599
257.5862, 8232.088
258.0684, 8259.283
258.5505, 8293.911
259.0326, 8329.311
259.5147, 8366.976
259.9968, 8400.351
260.4789, 8407.946
260.9611, 8378.909
261.4432, 8349.259
261.9253, 8337.529
262.4074, 8333.328
262.8895, 8326.034
263.3716, 8316.097
263.8537, 8294.742
264.3358, 8241.925
264.8180, 8151.047
265.3001, 8068.242
265.7822, 8014.073
266.2643, 7975.744
266.7464, 7944.833
267.2285, 7922.938
267.7107, 7896.905
268.1928, 7843.599
268.6749, 7766.305
269.1570, 7717.785
269.6391, 7727.937
270.1212, 7760.093
270.6034, 7771.654
271.0855, 7761.231
271.5676, 7744.305
272.0497, 7722.089
272.5318, 7699.458
273.0139, 7695.412
273.4961, 7721.119
273.9782, 7749.656
274.4603, 7747.409
274.9424, 7718.562
275.4245, 7697.180
275.9066, 7710.199
276.3888, 7730.591
276.8709, 7717.426
277.3530, 7664.544
277.8351, 7597.102
278.3172, 7531.859
278.7993, 7468.827
279.2815, 7409.206
279.7636, 7358.602
280.2457, 7307.241
280.7278, 7247.293
281.2099, 7179.023
281.6920, 7105.708
282.1742, 7028.110
282.6563, 6947.353
283.1384, 6868.838
283.6205, 6802.313
284.1026, 6727.730
284.5847, 6629.967
285.0669, 6518.560
285.5490, 6411.240
286.0311, 6316.288
286.5132, 6231.668
286.9953, 6154.827
287.4774, 6094.868
287.9596, 6026.532
288.4417, 5930.422
288.9238, 5831.201
289.4059, 5760.494
289.8880, 5725.979
290.3701, 5707.487
290.8523, 5675.785
291.3344, 5622.291
291.8165, 5576.831
292.2986, 5546.730
292.7807, 5518.348
293.2628, 5478.355
293.7450, 5428.745
294.2271, 5383.303
294.7092, 5354.182
295.1913, 5341.208
295.6734, 5346.215
296.1555, 5395.193
296.6377, 5434.333
297.1198, 5435.002
297.6019, 5413.147
298.0840, 5399.859
298.5661, 5414.341
299.0482, 5453.088
299.5304, 5500.239
300.0125, 5566.452
300.4946, 5626.517
300.9767, 5672.459
301.4588, 5712.781
301.9409, 5757.252
302.4231, 5809.545
302.9052, 5864.485
303.3873, 5909.903
303.8694, 5937.256
304.3515, 5982.900
304.8336, 6080.484
305.3158, 6177.072
305.7979, 6236.017
306.2800, 6255.341
306.7621, 6264.846
307.2442, 6295.879
307.7263, 6347.427
308.2085, 6382.890
308.6906, 6401.607
309.1727, 6399.466
309.6548, 6376.650
310.1369, 6333.899
310.6190, 6273.728
311.1012, 6195.552
311.5833, 6101.091
312.0654, 5993.966
312.5475, 5875.642
313.0296, 5740.255
313.5117, 5571.812
313.9939, 5387.084
314.4760, 5209.719
314.9581, 5044.954
315.4402, 4888.945
315.9223, 4738.588
316.4044, 4593.982
316.8866, 4455.190
317.3687, 4319.762
317.8508, 4193.510
318.3329, 4086.923
318.8150, 4004.209
319.2971, 3923.949
319.7793, 3829.041
320.2614, 3732.790
320.7435, 3660.275
321.2256, 3619.205
321.7077, 3588.829
322.1898, 3543.667
322.6720, 3478.531
323.1541, 3429.369
323.6362, 3412.550
324.1183, 3401.303
324.6004, 3373.832
325.0826, 3331.468
325.5647, 3289.987
326.0468, 3261.637
326.5289, 3245.637
327.0110, 3227.178
327.4931, 3206.285
327.9753, 3183.375
328.4574, 3156.020
328.9395, 3127.326
329.4216, 3104.427
329.9037, 3090.659
330.3858, 3078.544
330.8680, 3048.097
331.3501, 2969.958
331.8322, 2923.289
332.3143, 2931.624
332.7964, 2954.705
333.2785, 2965.391
333.7606, 2958.351
334.2427, 2942.292
334.7249, 2926.238
335.2070, 2910.412
335.6891, 2892.046
336.1712, 2867.082
336.6533, 2843.334
337.1354, 2822.755
337.6176, 2805.628
338.0997, 2792.212
338.5818, 2783.641
339.0639, 2778.232
339.5460, 2772.747
340.0281, 2769.535
340.5103, 2759.606
340.9924, 2730.765
341.4745, 2696.871
341.9566, 2673.010
342.4387, 2663.923
342.9208, 2659.631
343.4030, 2649.280
343.8851, 2634.130
344.3672, 2626.857
344.8493, 2634.492
345.3314, 2646.094
345.8135, 2650.480
346.2957, 2648.094
346.7778, 2639.524
347.2599, 2620.300
347.7420, 2597.040
348.2241, 2576.740
348.7062, 2560.144
349.1884, 2552.586
349.6705, 2563.542
350.1526, 2590.478
350.6347, 2597.649
351.1168, 2569.875
351.5989, 2538.150
352.0811, 2515.312
352.5632, 2500.218
353.0453, 2489.424
353.5274, 2481.514
354.0095, 2476.011
354.4916, 2471.632
354.9738, 2470.538
355.4559, 2467.677
355.9380, 2461.040
356.4201, 2453.853
356.9022, 2450.913
357.3843, 2451.876
357.8665, 2449.545
358.3486, 2434.147
358.8307, 2402.398
359.3128, 2381.365
359.7949, 2380.680
360.2770, 2381.285
360.7592, 2376.018
361.2413, 2367.691
361.7234, 2362.427
362.2055, 2363.792
362.6876, 2370.066
363.1697, 2378.433
363.6519, 2392.706
364.1340, 2398.686
364.6161, 2382.450
365.0982, 2362.001
365.5803, 2353.663
366.0624, 2360.834
366.5446, 2369.132
367.0267, 2366.687
367.5088, 2354.699
367.9909, 2337.442
368.4730, 2309.703
368.9551, 2288.072
369.4373, 2294.255
369.9194, 2321.168
370.4015, 2340.667
370.8836, 2339.761
371.3657, 2331.145
371.8478, 2327.656
372.3300, 2329.177
372.8121, 2330.281
373.2942, 2328.481
373.7763, 2323.714
374.2584, 2315.625
374.7405, 2301.636
375.2227, 2288.671
375.7048, 2276.946
376.1869, 2267.717
376.6690, 2262.711
377.1511, 2262.365
377.6332, 2266.115
378.1154, 2274.620
378.5975, 2293.020
379.0796, 2296.769
379.5617, 2273.063
380.0438, 2249.447
380.5259, 2240.167
381.0081, 2241.867
381.4902, 2243.395
381.9723, 2237.068
382.4544, 2225.826
382.9365, 2222.445
383.4186, 2234.074
383.9008, 2240.264
384.3829, 2231.877
384.8650, 2219.871
385.3471, 2214.265
385.8292, 2217.264
386.3113, 2222.940
386.7935, 2226.042
387.2756, 2226.624
387.7577, 2224.881
388.2398, 2219.596
388.7219, 2213.896
389.2040, 2211.157
389.6862, 2210.143
390.1683, 2206.812
390.6504, 2199.286
391.1325, 2189.142
391.6146, 2173.229
392.0967, 2152.883
392.5789, 2147.250
393.0610, 2171.378
393.5431, 2211.040
394.0252, 2229.114
394.5073, 2218.929
394.9894, 2205.466
395.4716, 2191.446
395.9537, 2179.103
396.4358, 2172.599
396.9179, 2172.195
397.4000, 2171.950
397.8821, 2164.667
398.3643, 2148.381
398.8464, 2140.971
399.3285, 2151.647
399.8106, 2160.133
400.2927, 2154.418
400.7748, 2142.542
401.2570, 2140.926
401.7391, 2158.385
402.2212, 2183.106
402.7033, 2186.728
403.1854, 2159.406
403.6675, 2137.770
404.1497, 2126.501
404.6317, 2123.031
405.1139, 2131.836
405.5960, 2150.320
406.0781, 2163.029
406.5602, 2154.048
407.0423, 2130.206
407.5244, 2115.136
408.0066, 2111.560
408.4887, 2109.675
408.9708, 2100.276
409.4529, 2089.405
409.9350, 2090.297
410.4171, 2114.777
410.8993, 2135.595
411.3814, 2128.078
411.8635, 2103.673
412.3456, 2092.554
412.8277, 2105.013
413.3098, 2126.332
413.7920, 2137.661
414.2741, 2136.875
414.7562, 2130.630
415.2383, 2117.044
415.7204, 2099.652
416.2025, 2073.252
416.6847, 2044.286
417.1668, 2030.747
417.6489, 2045.488
418.1310, 2079.659
418.6131, 2097.367
419.0952, 2086.550
419.5774, 2078.409
420.0595, 2076.013
420.5416, 2077.690
421.0237, 2084.360
421.5058, 2095.093
421.9879, 2104.028
422.4701, 2104.379
422.9522, 2097.034
423.4343, 2091.020
423.9164, 2085.651
424.3985, 2083.328
424.8806, 2090.488
425.3628, 2100.650
425.8449, 2101.535
426.3270, 2084.050
426.8091, 2065.978
427.2912, 2063.942
427.7733, 2074.333
428.2555, 2083.090
428.7376, 2085.734
429.2197, 2086.091
429.7018, 2090.535
430.1839, 2101.228
430.6660, 2104.580
431.1482, 2092.394
431.6303, 2078.596
432.1124, 2072.761
432.5945, 2074.038
433.0766, 2077.457
433.5587, 2080.315
434.0409, 2082.193
434.5230, 2081.372
435.0051, 2075.771
435.4872, 2070.659
435.9693, 2062.842
436.4514, 2058.081
436.9336, 2065.508
437.4157, 2083.626
437.8978, 2096.988
438.3799, 2088.251
438.8620, 2060.459
439.3441, 2037.995
439.8263, 2018.286
440.3084, 2009.315
440.7905, 2024.252
441.2726, 2049.863
441.7547, 2068.070
442.2368, 2073.842
442.7190, 2074.816
443.2011, 2077.022
443.6832, 2078.865
444.1653, 2073.972
444.6474, 2059.393
445.1295, 2045.129
445.6117, 2043.485
446.0938, 2057.299
446.5759, 2064.482
447.0580, 2060.504
447.5401, 2054.271
448.0222, 2048.679
448.5044, 2044.520
448.9865, 2044.010
449.4686, 2048.493
449.9507, 2053.291
450.4328, 2045.311
450.9149, 2010.111
451.3971, 1995.935
451.8792, 2029.820
452.3613, 2063.132
452.8434, 2062.642
453.3255, 2035.231
453.8076, 2013.619
454.2898, 2022.969
454.7719, 2050.271
455.2540, 2062.664
455.7361, 2057.676
456.2182, 2052.467
456.7003, 2055.495
457.1825, 2060.846
457.6646, 2059.388
458.1467, 2049.584
458.6288, 2039.407
459.1109, 2027.932
459.5930, 2019.817
460.0752, 2025.366
460.5573, 2044.452
461.0394, 2061.033
461.5215, 2062.220
462.0036, 2049.503
462.4857, 2039.017
462.9679, 2026.335
463.4500, 2021.229
463.9321, 2030.711
464.4142, 2045.816
464.8963, 2058.513
465.3784, 2066.328
465.8606, 2069.779
466.3427, 2069.265
466.8248, 2064.767
467.3069, 2056.412
467.7890, 2039.639
468.2711, 2025.806
468.7533, 2019.526
469.2354, 2019.129
469.7175, 2023.381
470.1996, 2034.440
470.6817, 2043.601
471.1638, 2040.300
471.6460, 2027.977
472.1281, 2018.468
472.6102, 2013.554
473.0923, 2015.780
473.5744, 2030.815
474.0565, 2060.455
474.5387, 2079.531
475.0208, 2086.305
475.5029, 2084.165
475.9850, 2070.653
476.4671, 2050.134
476.9492, 2028.485
477.4313, 2008.222
477.9135, 1992.139
478.3956, 1986.502
478.8777, 1995.822
479.3598, 2002.431
479.8419, 2002.644
480.3240, 2003.409
480.8062, 2010.047
481.2883, 2019.496
481.7704, 2023.519
482.2525, 2015.041
482.7346, 2004.234
483.2167, 2008.036
483.6989, 2026.101
484.1810, 2042.713
484.6631, 2054.500
485.1452, 2061.250
485.6273, 2063.016
486.1094, 2060.414
486.5916, 2049.671
487.0737, 2016.801
487.5558, 1986.450
488.0379, 1980.432
488.5200, 1993.736
489.0021, 2007.993
489.4843, 2013.785
489.9664, 2014.472
490.4485, 2018.333
490.9306, 2028.226
491.4127, 2035.858
491.8948, 2044.190
492.3770, 2047.874
492.8591, 2041.532
493.3412, 2027.557
493.8233, 2012.985
494.3054, 2000.755
494.7875, 1992.183
495.2697, 1991.810
495.7518, 2000.515
496.2339, 2008.423
496.7160, 2015.878
497.1981, 2017.300
497.6802, 2000.428
498.1624, 1963.448
498.6445, 1940.990
499.1266, 1955.661
499.6087, 1979.237
500.0908, 1982.067
500.5729, 1968.636
501.0551, 1965.788
501.5372, 1990.196
502.0193, 2028.214
502.5014, 2042.144
502.9835, 2011.392
503.4656, 1992.151
503.9478, 1989.863
504.4299, 1994.285
504.9120, 2003.683
505.3941, 2014.667
505.8762, 2020.058
506.3583, 2014.670
506.8405, 2001.611
507.3226, 1984.670
507.8047, 1962.610
508.2868, 1950.433
508.7689, 1958.256
509.2510, 1972.680
509.7332, 1974.975
510.2153, 1964.419
510.6974, 1960.082
511.1795, 1973.305
511.6616, 1989.863
512.1437, 1997.443
512.6259, 1997.118
513.1080, 1994.949
513.5901, 1993.819
514.0722, 1994.058
514.5543, 1997.716
515.0364, 2014.894
515.5186, 2014.921
516.0007, 1977.724
516.4828, 1943.310
516.9649, 1936.008
517.4470, 1949.828
517.9291, 1964.711
518.4113, 1970.829
518.8934, 1970.620
519.3755, 1963.616
519.8576, 1949.730
520.3397, 1951.586
520.8218, 1984.556
521.3040, 2021.841
521.7861, 2027.031
522.2682, 2001.816
522.7503, 1981.564
523.2324, 1974.567
523.7145, 1971.288
524.1967, 1965.267
524.6788, 1958.141
525.1609, 1954.231
525.6430, 1955.368
526.1251, 1960.226
526.6072, 1968.005
527.0894, 1965.399
527.5715, 1984.701
528.0536, 1995.172
528.5357, 1997.288
529.0178, 1966.019
529.4999, 1977.859
529.9821, 1972.423
530.4642, 1966.278
530.9463, 1984.185
531.4284, 1957.772
531.9105, 1975.298
532.3926, 1975.284
532.8748, 1983.298
533.3569, 1973.929
533.8390, 1969.929
534.3211, 1983.317
534.8032, 1987.077
535.2853, 1975.707
535.7675, 1984.231
536.2496, 1957.211
536.7317, 1961.381
537.2138, 1979.009
537.6959, 1968.513
538.1780, 1977.354
538.6602, 1954.068
539.1423, 1928.853
539.6244, 1913.941
540.1065, 1913.483
540.5886, 1915.902
541.0707, 1915.162
541.5529, 1915.262
542.0350, 1923.479
542.5171, 1943.359
542.9992, 1956.809
543.4813, 1947.371
543.9634, 1927.497
544.4456, 1915.980
544.9277, 1914.558
545.4098, 1918.344
545.8919, 1925.555
546.3740, 1933.919
546.8561, 1934.140
547.3383, 1919.173
547.8204, 1905.658
548.3025, 1889.758
548.7846, 1878.892
549.2667, 1883.296
549.7488, 1898.680
550.2310, 1908.968
550.7131, 1901.922
551.1952, 1885.065
551.6773, 1874.060
552.1594, 1869.174
552.6415, 1865.018
553.1237, 1857.724
553.6058, 1853.660
554.0879, 1866.894
554.5700, 1896.980
555.0521, 1910.708
555.5342, 1887.999
556.0164, 1862.289
556.4985, 1858.482
556.9806, 1866.306
557.4627, 1858.659
557.9448, 1826.152
558.4269, 1793.892
558.9091, 1805.533
559.3912, 1872.748
559.8733, 1909.180
560.3554, 1898.650
560.8375, 1877.786
561.3196, 1853.116
561.8018, 1831.305
562.2839, 1825.032
562.7660, 1841.300
563.2481, 1855.767
563.7302, 1847.151
564.2123, 1825.564
564.6945, 1810.864
565.1766, 1805.541
565.6587, 1802.300
566.1408, 1796.137
566.6229, 1787.671
567.1050, 1779.974
567.5872, 1769.383
568.0693, 1764.844
568.5514, 1773.280
569.0335, 1782.847
569.5156, 1782.069
569.9977, 1773.286
570.4799, 1769.116
570.9620, 1779.240
571.4441, 1797.309
571.9262, 1812.812
572.4083, 1825.882
572.8904, 1828.878
573.3726, 1815.098
573.8547, 1798.082
574.3368, 1795.455
574.8189, 1807.552
575.3010, 1813.809
575.7831, 1805.649
576.2653, 1798.656
576.7474, 1804.324
577.2295, 1815.150
577.7116, 1817.135
578.1937, 1806.623
578.6758, 1794.328
579.1580, 1795.478
579.6401, 1810.162
580.1222, 1813.644
580.6042, 1799.186
581.0864, 1786.744
581.5685, 1789.134
582.0506, 1796.519
582.5327, 1796.158
583.0148, 1784.709
583.4969, 1777.647
583.9791, 1787.082
584.4612, 1801.434
584.9433, 1807.708
585.4254, 1805.775
585.9075, 1800.583
586.3896, 1794.625
586.8718, 1788.036
587.3539, 1780.412
587.8360, 1768.422
588.3181, 1763.491
588.8002, 1775.116
589.2823, 1784.972
589.7645, 1786.373
590.2466, 1779.613
590.7287, 1763.763
591.2108, 1732.091
591.6929, 1707.432
592.1750, 1720.225
592.6572, 1756.468
593.1393, 1776.266
593.6214, 1772.218
594.1035, 1761.051
594.5856, 1755.047
595.0677, 1754.086
595.5499, 1757.138
596.0320, 1771.296
596.5141, 1780.121
596.9962, 1780.731
597.4783, 1776.592
597.9604, 1767.801
598.4426, 1756.368
598.9247, 1748.028
599.4068, 1747.228
599.8889, 1750.928
600.3710, 1754.914
600.8531, 1759.043
601.3353, 1760.293
601.8174, 1757.497
602.2995, 1752.367
602.7816, 1746.500
603.2637, 1739.850
603.7458, 1733.067
604.2280, 1722.087
604.7101, 1715.684
605.1922, 1722.600
605.6743, 1732.888
606.1564, 1731.518
606.6385, 1717.000
607.1207, 1705.001
607.6028, 1715.051
608.0849, 1739.684
608.5670, 1742.214
609.0491, 1717.296
609.5313, 1700.533
610.0134, 1710.228
610.4955, 1729.807
610.9776, 1733.757
611.4597, 1720.645
611.9418, 1711.726
612.4240, 1713.617
612.9061, 1717.287
613.3882, 1715.835
613.8703, 1712.572
614.3524, 1715.948
614.8345, 1728.489
615.3167, 1740.710
615.7988, 1738.507
616.2809, 1722.091
616.7630, 1712.427
617.2451, 1712.904
617.7272, 1711.565
618.2094, 1698.549
618.6915, 1682.863
619.1736, 1679.374
619.6557, 1691.910
620.1378, 1700.924
620.6199, 1697.290
621.1021, 1690.476
621.5842, 1688.351
622.0663, 1690.024
622.5484, 1691.762
623.0305, 1691.884
623.5126, 1690.019
623.9948, 1684.531
624.4769, 1674.523
624.9590, 1668.035
625.4411, 1664.679
625.9232, 1665.889
626.4053, 1677.887
626.8875, 1693.139
627.3696, 1699.660
627.8517, 1693.934
628.3338, 1687.294
628.8159, 1683.870
629.2980, 1682.252
629.7802, 1682.606
630.2623, 1683.637
630.7444, 1679.490
631.2265, 1666.225
631.7086, 1652.801
632.1907, 1661.069
632.6729, 1698.489
633.1550, 1720.908
633.6371, 1723.054
634.1192, 1713.618
634.6013, 1685.627
635.0834, 1652.497
635.5656, 1641.371
636.0477, 1666.397
636.5298, 1685.768
637.0119, 1671.522
637.4940, 1645.650
637.9761, 1634.254
638.4583, 1637.619
638.9404, 1642.277
639.4225, 1640.028
639.9046, 1636.131
640.3867, 1646.182
640.8688, 1677.813
641.3510, 1689.574
641.8331, 1663.107
642.3152, 1636.375
642.7973, 1633.196
643.2794, 1643.996
643.7615, 1650.717
644.2437, 1649.789
644.7258, 1645.633
645.2079, 1634.845
645.6900, 1625.292
646.1721, 1630.733
646.6542, 1648.267
647.1364, 1660.862
647.6185, 1658.286
648.1006, 1644.388
648.5827, 1625.125
649.0648, 1596.715
649.5469, 1581.388
650.0291, 1582.498
650.5112, 1595.183
650.9933, 1628.536
651.4754, 1668.730
651.9575, 1688.024
652.4396, 1677.836
652.9218, 1657.472
653.4039, 1619.040
653.8860, 1585.577
654.3681, 1589.323
654.8502, 1624.317
655.3323, 1658.012
655.8145, 1672.100
656.2966, 1671.651
656.7787, 1666.785
657.2608, 1657.789
657.7429, 1640.078
658.2250, 1603.614
658.7072, 1574.455
659.1893, 1574.847
659.6714, 1592.223
660.1535, 1603.050
660.6356, 1603.472
661.1177, 1602.252
661.5999, 1603.272
662.0820, 1603.193
662.5641, 1596.183
663.0462, 1585.112
663.5283, 1577.974
664.0104, 1578.634
664.4926, 1587.341
664.9747, 1612.340
665.4568, 1654.457
665.9389, 1662.835
666.4210, 1620.300
666.9031, 1580.045
667.3853, 1573.101
667.8674, 1588.747
668.3495, 1601.143
668.8316, 1609.507
669.3137, 1616.902
669.7958, 1628.349
670.2780, 1635.060
670.7601, 1624.993
671.2422, 1606.270
671.7243, 1597.378
672.2064, 1605.968
672.6885, 1619.653
673.1707, 1620.925
673.6528, 1612.431
674.1349, 1612.914
674.6170, 1624.939
675.0991, 1634.778
675.5812, 1634.966
676.0634, 1629.512
676.5455, 1627.050
677.0276, 1631.965
677.5097, 1626.234
677.9918, 1592.447
678.4739, 1565.901
678.9561, 1569.922
679.4382, 1589.088
679.9203, 1599.516
680.4024, 1594.500
680.8845, 1586.792
681.3666, 1586.752
681.8488, 1592.678
682.3309, 1603.971
682.8130, 1619.875
683.2951, 1625.723
683.7772, 1614.024
684.2593, 1595.571
684.7415, 1585.847
685.2236, 1586.361
685.7057, 1586.487
686.1878, 1584.920
686.6699, 1584.604
687.1520, 1590.107
687.6342, 1594.813
688.1163, 1590.372
688.5984, 1576.595
689.0805, 1563.364
689.5626, 1555.780
690.0447, 1551.891
690.5269, 1548.945
691.0090, 1547.777
691.4911, 1551.502
691.9732, 1560.929
692.4553, 1573.287
692.9374, 1586.911
693.4196, 1600.987
693.9017, 1604.873
694.3838, 1594.228
694.8659, 1582.757
695.3480, 1571.591
695.8301, 1562.123
696.3123, 1553.975
696.7944, 1548.072
697.2765, 1548.654
697.7586, 1565.206
698.2407, 1578.733
698.7228, 1576.963
699.2050, 1567.279
699.6871, 1539.773
700.1692, 1558.567
700.6513, 1568.530
701.1334, 1570.137
701.6155, 1538.360
702.0977, 1549.691
702.5798, 1543.747
703.0619, 1537.094
703.5440, 1554.492
704.0261, 1527.571
704.5082, 1544.589
704.9904, 1544.066
705.4725, 1551.571
705.9546, 1541.694
706.4367, 1537.186
706.9188, 1550.065
707.4009, 1553.317
707.8831, 1538.530
708.3652, 1541.880
708.8473, 1545.299
709.3294, 1548.987
709.8115, 1550.968
710.2936, 1545.466
710.7758, 1537.157
711.2579, 1541.914
711.7400, 1560.045
712.2221, 1573.664
712.7042, 1573.774
713.1863, 1566.077
713.6685, 1559.958
714.1506, 1554.734
714.6327, 1554.148
715.1148, 1561.414
715.5969, 1569.508
716.0790, 1581.603
716.5612, 1590.556
717.0433, 1585.344
717.5254, 1565.272
718.0075, 1550.063
718.4896, 1553.631
718.9717, 1561.184
719.4539, 1559.310
719.9360, 1551.687
720.4181, 1545.207
720.9002, 1542.160
721.3823, 1543.932
721.8644, 1551.916
722.3465, 1565.712
722.8286, 1588.052
723.3107, 1624.007
723.7928, 1637.912
724.2750, 1611.675
724.7571, 1578.287
725.2392, 1567.337
725.7213, 1575.896
726.2034, 1579.203
726.6855, 1576.648
727.1677, 1569.506
727.6498, 1547.587
728.1319, 1529.677
728.6140, 1537.231
729.0961, 1561.743
729.5782, 1576.789
730.0604, 1569.050
730.5425, 1554.510
731.0246, 1552.035
731.5067, 1556.505
731.9888, 1553.039
732.4709, 1540.802
732.9531, 1529.539
733.4352, 1524.075
733.9173, 1523.916
734.3994, 1528.574
734.8815, 1539.281
735.3636, 1550.017
735.8458, 1566.116
736.3279, 1574.420
736.8100, 1564.117
737.2921, 1547.515
737.7742, 1538.597
738.2563, 1538.640
738.7385, 1538.505
739.2206, 1521.140
739.7027, 1540.879
740.1848, 1551.787
740.6669, 1554.340
741.1490, 1523.509
741.6312, 1535.785
742.1133, 1530.787
742.5954, 1525.079
743.0775, 1543.423
743.5596, 1517.448
744.0417, 1535.411
744.5239, 1535.834
745.0060, 1544.284
745.4881, 1535.353
745.9702, 1531.790
746.4523, 1545.615
746.9344, 1549.812
747.4166, 1538.879
747.8987, 1547.840
748.3808, 1521.257
748.8629, 1525.865
749.3450, 1543.929
749.8271, 1533.870
750.3093, 1543.149
750.7914, 1534.239
751.2735, 1545.846
751.7556, 1552.233
752.2377, 1555.930
752.7198, 1560.450
753.2020, 1564.781
753.6841, 1563.830
754.1662, 1555.999
754.6483, 1549.398
755.1304, 1557.729
755.6125, 1577.133
756.0947, 1573.401
756.5768, 1541.639
757.0589, 1518.245
757.5410, 1516.617
758.0231, 1522.963
758.5052, 1521.975
758.9874, 1513.766
759.4695, 1513.173
759.9516, 1527.590
760.4337, 1538.799
760.9158, 1544.401
761.3979, 1545.463
761.8801, 1544.332
762.3622, 1539.377
762.8443, 1523.431
763.3264, 1487.382
763.8085, 1458.428
764.2906, 1469.303
764.7728, 1494.927
765.2549, 1493.306
765.7370, 1467.178
766.2191, 1444.531
766.7012, 1438.513
767.1833, 1447.385
767.6655, 1477.147
768.1476, 1527.517
768.6297, 1539.100
769.1118, 1499.240
769.5939, 1474.425
770.0760, 1496.927
770.5582, 1535.414
771.0403, 1548.810
771.5224, 1534.273
772.0045, 1527.973
772.4866, 1535.115
772.9688, 1543.280
773.4509, 1558.046
773.9330, 1566.209
774.4151, 1547.362
774.8972, 1510.313
775.3793, 1490.500
775.8615, 1508.542
776.3436, 1535.863
776.8257, 1554.244
777.3078, 1564.800
777.7899, 1567.951
778.2720, 1564.893
778.7542, 1559.365
779.2363, 1553.254
779.7184, 1546.297
780.2005, 1536.794
780.6826, 1525.035
781.1647, 1518.495
781.6469, 1517.683
782.1290, 1521.204
782.6111, 1531.679
783.0932, 1540.718
783.5753, 1532.699
784.0574, 1503.378
784.5396, 1500.172
785.0217, 1563.252
785.5038, 1598.277
785.9859, 1559.786
786.4680, 1509.542
786.9501, 1499.354
787.4323, 1523.898
787.9144, 1546.692
788.3965, 1555.426
788.8786, 1558.476
789.3607, 1559.925
789.8428, 1559.427
790.3250, 1555.784
790.8071, 1549.764
791.2892, 1544.028
791.7713, 1539.880
792.2534, 1535.417
792.7355, 1527.402
793.2177, 1516.703
793.6998, 1507.788
794.1819, 1500.776
794.6640, 1495.614
795.1461, 1492.714
795.6282, 1490.173
796.1104, 1485.400
796.5925, 1478.413
797.0746, 1473.885
797.5567, 1477.744
798.0388, 1473.829
798.5209, 1443.989
799.0031, 1419.397
799.4852, 1426.908
799.9673, 1456.229
800.4494, 1473.236
800.9315, 1463.706
801.4136, 1459.106
801.8958, 1481.022
802.3779, 1502.782
802.8600, 1500.590
803.3421, 1481.328
803.8242, 1457.969
804.3063, 1435.509
804.7885, 1426.579
805.2706, 1455.710
805.7527, 1499.670
806.2348, 1511.630
806.7169, 1498.330
807.1990, 1492.595
807.6812, 1503.548
808.1633, 1516.777
808.6454, 1518.235
809.1275, 1511.311
809.6096, 1512.474
810.0917, 1525.200
810.5739, 1526.362
811.0560, 1506.367
811.5381, 1488.012
812.0202, 1485.541
812.5023, 1495.478
812.9844, 1510.019
813.4666, 1536.116
813.9487, 1549.156
814.4308, 1540.430
814.9129, 1527.808
815.3950, 1510.867
815.8771, 1498.483
816.3593, 1506.367
816.8414, 1533.978
817.3235, 1551.518
817.8056, 1538.945
818.2877, 1517.790
818.7698, 1496.927
819.2520, 1481.033
819.7341, 1480.409
820.2162, 1492.610
820.6983, 1501.994
821.1804, 1498.932
821.6625, 1491.406
822.1447, 1491.134
822.6268, 1496.776
823.1089, 1504.624
823.5910, 1514.160
824.0731, 1516.296
824.5552, 1505.870
825.0374, 1492.104
825.5195, 1488.023
826.0016, 1493.693
826.4837, 1503.869
826.9658, 1523.540
827.4479, 1534.508
827.9301, 1526.553
828.4122, 1515.643
828.8943, 1516.766
829.3764, 1527.178
829.8585, 1532.925
830.3406, 1530.931
830.8228, 1528.720
831.3049, 1529.945
831.7870, 1528.406
832.2691, 1516.339
832.7512, 1500.481
833.2333, 1491.675
833.7155, 1492.497
834.1976, 1498.800
834.6797, 1517.339
835.1618, 1531.988
835.6439, 1520.397
836.1260, 1497.278
836.6082, 1492.425
837.0903, 1508.136
837.5724, 1520.211
838.0545, 1510.293
838.5366, 1490.770
839.0187, 1481.128
839.5009, 1480.370
839.9830, 1485.613
840.4651, 1496.272
840.9472, 1504.838
841.4293, 1507.301
841.9114, 1506.600
842.3936, 1508.570
842.8757, 1513.755
843.3578, 1506.966
843.8399, 1480.914
844.3220, 1464.875
844.8041, 1472.772
845.2863, 1485.163
845.7684, 1479.482
846.2505, 1459.393
846.7326, 1458.967
847.2147, 1505.079
847.6968, 1529.852
848.1790, 1510.347
848.6611, 1487.917
849.1432, 1485.215
849.6253, 1495.095
850.1074, 1505.303
850.5895, 1514.025
851.0717, 1517.451
851.5538, 1515.091
852.0359, 1505.696
852.5180, 1477.726
853.0001, 1447.900
853.4822, 1443.064
853.9644, 1462.466
854.4465, 1479.818
854.9286, 1478.535
855.4107, 1471.286
855.8928, 1473.415
856.3749, 1480.977
856.8571, 1486.667
857.3392, 1489.311
857.8213, 1484.832
858.3034, 1471.163
858.7855, 1461.780
859.2676, 1479.049
859.7498, 1516.768
860.2319, 1534.619
860.7140, 1531.938
861.1961, 1518.275
861.6782, 1492.442
862.1603, 1471.712
862.6425, 1472.098
863.1245, 1488.298
863.6066, 1498.986
864.0887, 1503.064
864.5709, 1504.272
865.0530, 1498.916
865.5351, 1496.603
866.0172, 1508.019
866.4993, 1521.199
866.9814, 1515.230
867.4636, 1487.726
867.9457, 1474.329
868.4278, 1495.489
868.9099, 1508.237
869.3920, 1488.933
869.8741, 1466.466
870.3563, 1465.749
870.8384, 1482.536
871.3205, 1500.232
871.8026, 1516.472
872.2847, 1523.816
872.7668, 1510.703
873.2490, 1493.871
873.7311, 1489.367
874.2132, 1491.938
874.6953, 1488.477
875.1774, 1477.127
875.6595, 1470.548
876.1417, 1482.017
876.6238, 1497.963
877.1059, 1496.676
877.5880, 1486.220
878.0701, 1485.847
878.5522, 1497.060
879.0344, 1512.954
879.5165, 1530.415
879.9986, 1541.783
880.4807, 1531.746
880.9628, 1504.060
881.4449, 1481.485
881.9271, 1464.135
882.4092, 1459.523
882.8913, 1471.265
883.3734, 1487.775
883.8555, 1499.591
884.3376, 1505.795
884.8198, 1499.803
885.3019, 1475.748
885.7840, 1463.638
886.2661, 1469.611
886.7482, 1479.520
887.2303, 1490.345
887.7125, 1497.475
888.1946, 1490.394
888.6767, 1464.948
889.1588, 1455.363
889.6409, 1481.864
890.1230, 1496.860
890.6052, 1484.705
891.0873, 1466.020
891.5694, 1455.013
892.0515, 1449.455
892.5336, 1439.717
893.0157, 1417.537
893.4979, 1410.388
893.9800, 1444.668
894.4621, 1474.837
894.9442, 1465.599
895.4263, 1441.863
895.9084, 1440.803
896.3906, 1464.360
896.8727, 1482.198
897.3548, 1477.814
897.8369, 1466.638
898.3190, 1452.316
898.8011, 1442.113
899.2833, 1451.123
899.7654, 1471.308
900.2475, 1477.494
900.7296, 1460.637
901.2117, 1442.547
901.6938, 1445.740
902.1760, 1458.520
902.6581, 1462.624
903.1402, 1461.103
903.6223, 1463.901
904.1044, 1471.885
904.5865, 1475.465
905.0687, 1467.258
905.5508, 1457.181
906.0329, 1467.796
906.5150, 1492.237
906.9971, 1492.022
907.4792, 1467.003
907.9614, 1451.670
908.4435, 1458.737
908.9256, 1471.049
909.4077, 1470.950
909.8898, 1460.613
910.3719, 1447.634
910.8541, 1430.410
911.3362, 1429.672
911.8183, 1454.005
912.3004, 1468.527
912.7825, 1449.389
913.2646, 1418.386
913.7468, 1414.505
914.2289, 1441.030
914.7110, 1458.229
915.1931, 1463.469
915.6752, 1465.155
916.1573, 1464.873
916.6395, 1461.629
917.1216, 1452.341
917.6037, 1439.750
918.0858, 1433.437
918.5679, 1437.730
919.0500, 1438.662
919.5322, 1431.792
920.0143, 1427.049
920.4964, 1427.825
920.9785, 1432.095
921.4606, 1436.647
921.9427, 1442.164
922.4249, 1454.601
922.9070, 1490.493
923.3891, 1510.269
923.8712, 1493.396
924.3533, 1469.674
924.8354, 1455.390
925.3176, 1448.537
925.7997, 1443.440
926.2818, 1439.135
926.7639, 1440.482
927.2460, 1457.602
927.7281, 1471.182
928.2103, 1465.341
928.6924, 1454.420
929.1745, 1454.648
929.6566, 1463.338
930.1387, 1468.218
930.6208, 1464.614
931.1030, 1461.333
931.5851, 1468.751
932.0672, 1475.637
932.5493, 1465.984
933.0314, 1449.812
933.5135, 1446.067
933.9957, 1455.334
934.4778, 1463.255
934.9599, 1461.621
935.4420, 1456.099
935.9241, 1448.566
936.4063, 1443.684
936.8884, 1454.155
937.3705, 1474.321
937.8526, 1484.203
938.3347, 1479.315
938.8168, 1475.982
939.2990, 1491.390
939.7811, 1508.549
940.2632, 1487.076
940.7453, 1442.421
941.2274, 1429.973
941.7095, 1450.594
942.1917, 1470.594
942.6738, 1475.690
943.1559, 1471.276
943.6380, 1461.893
944.1201, 1449.226
944.6022, 1435.086
945.0844, 1421.085
945.5665, 1430.710
946.0486, 1467.882
946.5307, 1489.313
947.0128, 1467.619
947.4949, 1431.346
947.9771, 1430.230
948.4592, 1461.403
948.9413, 1473.511
949.4234, 1465.174
949.9055, 1453.645
950.3876, 1441.570
950.8698, 1433.973
951.3519, 1435.013
951.8340, 1442.271
952.3161, 1449.467
952.7982, 1456.003
953.2803, 1469.470
953.7625, 1495.992
954.2446, 1503.512
954.7267, 1474.609
955.2088, 1442.431
955.6909, 1440.224
956.1730, 1459.818
956.6552, 1463.777
957.1373, 1445.019
957.6194, 1432.873
958.1015, 1428.264
958.5836, 1430.411
959.0657, 1441.187
959.5479, 1456.130
960.0300, 1473.173
960.5121, 1491.096
960.9942, 1492.282
961.4763, 1464.659
961.9584, 1444.877
962.4406, 1435.576
962.9227, 1434.185
963.4048, 1446.270
963.8869, 1460.825
964.3690, 1459.350
964.8511, 1440.157
965.3333, 1431.870
965.8154, 1441.521
966.2975, 1451.620
966.7796, 1463.354
967.2617, 1472.055
967.7438, 1476.849
968.2260, 1476.250
968.7081, 1463.917
969.1902, 1435.586
969.6723, 1423.709
970.1544, 1452.397
970.6365, 1467.298
971.1187, 1444.505
971.6008, 1415.927
972.0829, 1398.442
972.5650, 1393.117
973.0471, 1403.648
973.5292, 1436.871
974.0114, 1439.715
974.4935, 1458.195
974.9756, 1467.844
975.4577, 1469.138
975.9398, 1437.047
976.4219, 1448.065
976.9041, 1441.807
977.3862, 1434.840
977.8683, 1451.926
978.3504, 1424.691
978.8325, 1441.395
979.3146, 1440.559
979.7968, 1447.750
980.2789, 1437.559
980.7610, 1432.737
981.2431, 1445.303
981.7252, 1448.242
982.2073, 1436.050
982.6895, 1443.751
983.1716, 1425.040
983.6537, 1423.497
984.1358, 1420.801
984.6179, 1417.834
985.1000, 1415.374
985.5822, 1413.558
986.0643, 1412.325
986.5464, 1411.383
987.0285, 1411.676
987.5106, 1403.377
987.9927, 1423.683
988.4749, 1435.158
988.9570, 1438.277
989.4391, 1408.012
989.9212, 1420.856
990.4033, 1416.423
990.8854, 1411.282
991.3676, 1430.193
991.8497, 1404.784
992.3318, 1423.313
992.8139, 1424.303
993.2960, 1433.320
993.7781, 1424.955
994.2603, 1421.958
994.7424, 1436.350
995.2245, 1441.114
995.7066, 1430.748
996.1887, 1440.275
996.6708, 1414.259
997.1530, 1419.432
997.6351, 1438.063
998.1172, 1428.571
998.5993, 1438.417
999.0814, 1440.897
999.5635, 1425.051
1000.046, 1427.139
1000.528, 1435.612
1001.010, 1440.990
1001.492, 1426.510
1001.974, 1407.156
1002.456, 1413.134
1002.938, 1447.475
1003.420, 1474.200
1003.903, 1475.081
1004.385, 1468.521
1004.867, 1459.658
1005.349, 1450.541
1005.831, 1443.682
1006.313, 1437.629
1006.795, 1429.611
1007.277, 1419.145
1007.759, 1408.108
1008.242, 1391.196
1008.724, 1381.881
1009.206, 1391.627
1009.688, 1406.991
1010.170, 1418.720
1010.652, 1426.708
1011.134, 1433.778
1011.616, 1440.189
1012.099, 1440.254
1012.581, 1420.975
1013.063, 1408.822
1013.545, 1424.204
1014.027, 1443.932
1014.509, 1448.269
1014.991, 1442.842
1015.473, 1440.709
1015.955, 1444.176
1016.438, 1445.121
1016.920, 1448.204
1017.402, 1437.970
1017.884, 1386.501
1018.366, 1339.593
1018.848, 1340.261
1019.330, 1368.654
1019.812, 1391.383
1020.294, 1402.149
1020.777, 1397.155
1021.259, 1358.414
1021.741, 1326.583
1022.223, 1314.263
1022.705, 1316.155
1023.187, 1339.106
1023.669, 1368.589
1024.151, 1377.155
1024.634, 1361.495
1025.116, 1361.580
1025.598, 1413.257
1026.080, 1446.277
1026.562, 1425.855
1027.044, 1395.327
1027.526, 1378.229
1028.008, 1373.126
1028.490, 1376.197
1028.973, 1386.907
1029.455, 1401.127
1029.937, 1433.275
1030.419, 1446.833
1030.901, 1413.990
1031.383, 1381.851
1031.865, 1380.206
1032.347, 1395.319
1032.830, 1406.669
1033.312, 1412.849
1033.794, 1421.170
1034.276, 1438.186
1034.758, 1448.680
1035.240, 1451.436
1035.722, 1446.415
1036.204, 1424.152
1036.687, 1399.632
1037.169, 1395.507
1037.651, 1411.615
1038.133, 1420.659
1038.615, 1418.466
1039.097, 1414.948
1039.579, 1410.461
1040.061, 1404.516
1040.543, 1389.346
1041.026, 1379.031
1041.508, 1397.231
1041.990, 1439.668
1042.472, 1456.277
1042.954, 1430.150
1043.436, 1413.947
1043.918, 1412.891
1044.400, 1416.024
1044.882, 1421.130
1045.365, 1426.025
1045.847, 1428.132
1046.329, 1427.946
1046.811, 1429.239
1047.293, 1435.576
1047.775, 1429.920
1048.257, 1403.252
1048.739, 1388.906
1049.222, 1402.866
1049.704, 1422.653
1050.186, 1426.475
1050.668, 1419.393
1051.150, 1419.409
1051.632, 1427.029
1052.114, 1441.470
1052.596, 1466.617
1053.078, 1475.243
1053.561, 1456.405
1054.043, 1431.113
1054.525, 1415.326
1055.007, 1407.843
1055.489, 1408.122
1055.971, 1416.161
1056.453, 1414.411
1056.935, 1402.380
1057.417, 1393.692
1057.900, 1391.525
1058.382, 1396.464
1058.864, 1410.561
1059.346, 1423.144
1059.828, 1407.126
1060.310, 1371.387
1060.792, 1373.808
1061.274, 1408.234
1061.757, 1430.206
1062.239, 1431.519
1062.721, 1420.679
1063.203, 1401.745
1063.685, 1385.553
1064.167, 1393.182
1064.649, 1410.763
1065.131, 1398.399
1065.614, 1367.605
1066.096, 1353.863
1066.578, 1359.055
1067.060, 1363.595
1067.542, 1359.316
1068.024, 1361.897
1068.506, 1396.566
1068.988, 1435.905
1069.470, 1437.277
1069.953, 1418.050
1070.435, 1404.694
1070.917, 1399.375
1071.399, 1400.313
1071.881, 1405.615
1072.363, 1403.103
1072.845, 1375.607
1073.327, 1351.285
1073.809, 1358.407
1074.292, 1377.742
1074.774, 1392.443
1075.256, 1401.146
1075.738, 1403.860
1076.220, 1401.415
1076.702, 1397.546
1077.184, 1390.809
1077.666, 1389.417
1078.148, 1404.306
1078.631, 1418.456
1079.113, 1419.328
1079.595, 1412.779
1080.077, 1405.297
1080.559, 1398.215
1081.041, 1392.709
1081.523, 1389.000
1082.005, 1387.075
1082.488, 1384.679
1082.970, 1386.926
1083.452, 1402.017
1083.934, 1417.275
1084.416, 1423.785
1084.898, 1421.003
1085.380, 1405.074
1085.862, 1365.917
1086.344, 1351.238
1086.827, 1379.413
1087.309, 1400.389
1087.791, 1401.359
1088.273, 1398.650
1088.755, 1403.028
1089.237, 1409.317
1089.719, 1406.706
1090.201, 1394.876
1090.683, 1397.345
1091.166, 1420.936
1091.648, 1429.901
1092.130, 1417.693
1092.612, 1397.114
1093.094, 1370.787
1093.576, 1351.661
1094.058, 1358.524
1094.540, 1382.249
1095.023, 1378.706
1095.505, 1350.073
1095.987, 1356.590
1096.469, 1400.791
1096.951, 1425.702
1097.433, 1412.940
1097.915, 1391.524
1098.397, 1385.439
1098.880, 1387.032
1099.362, 1382.080
1099.844, 1373.871
1100.326, 1373.482
1100.808, 1377.902
1101.290, 1373.390
1101.772, 1359.658
1102.254, 1351.760
1102.736, 1358.165
1103.219, 1369.838
1103.701, 1381.948
1104.183, 1390.684
1104.665, 1385.508
1105.147, 1377.551
1105.629, 1388.087
1106.111, 1411.074
1106.593, 1424.842
1107.075, 1422.607
1107.558, 1411.362
1108.040, 1384.318
1108.522, 1362.981
1109.004, 1360.625
1109.486, 1366.806
1109.968, 1377.213
1110.450, 1387.888
1110.932, 1395.222
1111.415, 1398.387
1111.897, 1393.970
1112.379, 1373.579
1112.861, 1358.295
1113.343, 1356.212
1113.825, 1353.207
1114.307, 1334.231
1114.789, 1320.481
1115.271, 1339.953
1115.754, 1378.978
1116.236, 1385.763
1116.718, 1346.229
1117.200, 1333.627
1117.682, 1358.196
1118.164, 1379.667
1118.646, 1391.378
1119.128, 1390.177
1119.610, 1370.159
1120.093, 1346.991
1120.575, 1349.852
1121.057, 1373.626
1121.539, 1372.965
1122.021, 1349.563
1122.503, 1343.410
1122.985, 1358.251
1123.467, 1370.457
1123.950, 1370.383
1124.432, 1365.265
1124.914, 1362.113
1125.396, 1357.901
1125.878, 1341.652
1126.360, 1322.940
1126.842, 1325.026
1127.324, 1342.650
1127.807, 1363.219
1128.289, 1380.578
1128.771, 1380.887
1129.253, 1352.482
1129.735, 1331.210
1130.217, 1354.503
1130.699, 1386.483
1131.181, 1399.760
1131.663, 1401.498
1132.146, 1398.677
1132.628, 1393.686
1133.110, 1389.321
1133.592, 1386.262
1134.074, 1381.589
1134.556, 1370.304
1135.038, 1363.354
1135.520, 1368.247
1136.002, 1373.219
1136.485, 1369.305
1136.967, 1363.165
1137.449, 1362.359
1137.931, 1366.939
1138.413, 1378.175
1138.895, 1402.861
1139.377, 1414.446
1139.859, 1409.093
1140.342, 1401.630
1140.824, 1396.109
1141.306, 1388.854
1141.788, 1375.487
1142.270, 1363.146
1142.752, 1367.978
1143.234, 1387.355
1143.716, 1400.702
1144.198, 1408.023
1144.681, 1407.617
1145.163, 1399.789
1145.645, 1387.119
1146.127, 1371.043
1146.609, 1360.295
1147.091, 1365.795
1147.573, 1376.010
1148.055, 1371.126
1148.537, 1362.198
1149.020, 1372.183
1149.502, 1390.417
1149.984, 1389.429
1150.466, 1368.849
1150.948, 1353.191
1151.430, 1354.319
1151.912, 1355.030
1152.394, 1343.511
1152.877, 1332.666
1153.359, 1327.134
1153.841, 1327.794
1154.323, 1339.148
1154.805, 1355.736
1155.287, 1367.222
1155.769, 1372.787
1156.251, 1372.901
1156.734, 1359.181
1157.216, 1357.376
1157.698, 1380.379
1158.180, 1392.569
1158.662, 1375.492
1159.144, 1350.517
1159.626, 1337.081
1160.108, 1334.462
1160.590, 1343.596
1161.073, 1364.435
1161.555, 1377.976
1162.037, 1383.723
1162.519, 1367.268
1163.001, 1328.108
1163.483, 1304.872
1163.965, 1318.323
1164.447, 1339.117
1164.929, 1331.945
1165.412, 1314.912
1165.894, 1316.730
1166.376, 1329.877
1166.858, 1342.815
1167.340, 1355.624
1167.822, 1375.748
1168.304, 1401.137
1168.786, 1412.066
1169.269, 1396.774
1169.751, 1374.840
1170.233, 1347.962
1170.715, 1326.609
1171.197, 1315.807
1171.679, 1313.669
1172.161, 1321.873
1172.643, 1336.239
1173.125, 1349.165
1173.608, 1361.093
1174.090, 1361.353
1174.572, 1338.437
1175.054, 1332.734
1175.536, 1354.065
1176.018, 1375.741
1176.500, 1387.938
1176.982, 1395.155
1177.464, 1402.913
1177.947, 1405.952
1178.429, 1383.459
1178.911, 1342.291
1179.393, 1334.051
1179.875, 1353.372
1180.357, 1365.582
1180.839, 1365.998
1181.321, 1369.762
1181.804, 1383.451
1182.286, 1393.126
1182.768, 1383.617
1183.250, 1368.615
1183.732, 1359.653
1184.214, 1355.010
1184.696, 1355.992
1185.178, 1358.130
1185.661, 1351.964
1186.143, 1339.414
1186.625, 1335.407
1187.107, 1345.904
1187.589, 1357.534
1188.071, 1372.735
1188.553, 1381.712
1189.035, 1380.766
1189.517, 1374.144
1190.000, 1361.375
1190.482, 1347.572
1190.964, 1341.035
1191.446, 1340.526
1191.928, 1334.820
1192.410, 1323.033
1192.892, 1324.346
1193.374, 1339.925
1193.856, 1347.453
1194.339, 1341.192
1194.821, 1338.449
1195.303, 1350.957
1195.785, 1368.687
1196.267, 1384.516
1196.749, 1392.503
1197.231, 1374.009
1197.713, 1346.998
1198.196, 1342.585
1198.678, 1354.989
1199.160, 1367.879
1199.642, 1375.180
1200.124, 1363.352
1200.606, 1310.054
1201.088, 1274.129
1201.570, 1286.798
1202.052, 1305.594
1202.535, 1316.979
1203.017, 1321.578
1203.499, 1317.141
1203.981, 1309.203
1204.463, 1309.681
1204.945, 1318.532
1205.427, 1316.066
1205.909, 1298.594
1206.391, 1300.026
1206.874, 1324.701
1207.356, 1347.884
1207.838, 1361.288
1208.320, 1368.342
1208.802, 1371.830
1209.284, 1369.983
1209.766, 1355.806
1210.248, 1337.588
1210.731, 1332.119
1211.213, 1332.521
1211.695, 1323.861
1212.177, 1309.656
1212.659, 1305.048
1213.141, 1312.829
1213.623, 1317.213
1214.105, 1301.519
1214.588, 1300.412
1215.070, 1346.565
1215.552, 1382.186
1216.034, 1369.177
1216.516, 1346.067
1216.998, 1339.947
1217.480, 1350.183
1217.962, 1383.064
1218.444, 1437.943
1218.927, 1428.864
1219.409, 1347.456
1219.891, 1307.431
1220.373, 1319.702
1220.855, 1339.706
1221.337, 1352.153
1221.819, 1357.661
1222.301, 1355.955
1222.783, 1351.677
1223.266, 1353.066
1223.748, 1353.726
1224.230, 1339.177
1224.712, 1321.607
1225.194, 1322.538
1225.676, 1335.335
1226.158, 1338.303
1226.640, 1328.643
1227.122, 1327.820
1227.605, 1352.339
1228.087, 1366.777
1228.569, 1358.576
1229.051, 1348.489
1229.533, 1342.907
1230.015, 1336.132
1230.497, 1321.985
1230.979, 1308.148
1231.462, 1309.351
1231.944, 1322.307
1232.426, 1324.728
1232.908, 1317.533
1233.390, 1310.659
1233.872, 1304.359
1234.354, 1293.366
1234.836, 1277.340
1235.318, 1263.791
1235.801, 1257.022
1236.283, 1253.958
1236.765, 1249.117
1237.247, 1250.199
1237.729, 1272.432
1238.211, 1295.264
1238.693, 1293.308
1239.175, 1281.173
1239.657, 1285.652
1240.140, 1306.508
1240.622, 1320.224
1241.104, 1320.893
1241.586, 1331.644
1242.068, 1363.919
1242.550, 1367.836
1243.032, 1326.109
1243.514, 1293.033
1243.997, 1297.144
1244.479, 1318.363
1244.961, 1338.666
1245.443, 1350.306
1245.925, 1321.367
1246.407, 1279.659
1246.889, 1299.341
1247.371, 1352.411
1247.854, 1374.389
1248.336, 1361.109
1248.818, 1334.299
1249.300, 1300.587
1249.782, 1284.180
1250.264, 1309.138
1250.746, 1331.390
1251.228, 1327.463
1251.710, 1332.422
1252.193, 1379.147
1252.675, 1419.107
1253.157, 1409.490
1253.639, 1368.514
1254.121, 1287.066
1254.603, 1344.551
1255.085, 1376.383
1255.567, 1383.941
1256.049, 1294.521
1256.532, 1330.326
1257.014, 1315.948
1257.496, 1299.512
1257.978, 1352.944
1258.460, 1277.629
1258.942, 1329.954
1259.424, 1331.327
1259.906, 1356.019
1260.389, 1330.214
1260.871, 1320.007
1261.353, 1360.312
1261.835, 1372.648
1262.317, 1341.032
1262.799, 1367.207
1263.281, 1290.128
1263.763, 1303.656
1264.245, 1356.276
1264.728, 1345.968
1265.210, 1350.070
1265.692, 1304.717
1266.174, 1278.610
1266.656, 1302.838
1267.138, 1333.516
1267.620, 1329.328
1268.102, 1313.372
1268.584, 1318.692
1269.067, 1331.361
1269.549, 1336.783
1270.031, 1334.585
##END=



