##NAMES=Aravaipaite
##RRUFFID=R100004
##IDEAL CHEMISTRY=Pb^2+^_3_AlF_9_&#183;H_2_O
##LOCALITY=Grand Reef mine, Klondyke, Aravaipa District, Graham County, Arizona, USA
##OWNER=RRUFF
##SOURCE=William W. Pinch
##DESCRIPTION=Colorless thin plates. Same sample as used in Kampf (2001) and Kampf et al (2011).
##STATUS=The identification of this mineral has been confirmed by single-crystal X-ray diffraction.
##URL=rruff.info/R100004
91.53320, 474.1880
92.01532, 470.2881
92.49744, 467.5844
92.97955, 473.4411
93.46167, 481.2493
93.94379, 485.0111
94.42590, 487.5883
94.90802, 489.3871
95.39014, 489.5541
95.87225, 487.7930
96.35437, 485.8983
96.83649, 485.1070
97.31860, 484.8700
97.80072, 484.5669
98.28284, 483.3114
98.76495, 480.8931
99.24707, 478.6352
99.72919, 476.7604
100.2113, 475.0234
100.6934, 473.3002
101.1755, 471.5658
101.6577, 469.8563
102.1398, 468.1866
102.6219, 466.5582
103.1040, 464.8565
103.5861, 462.6666
104.0682, 460.6420
104.5504, 459.2798
105.0325, 458.5815
105.5146, 457.9894
105.9967, 456.7023
106.4788, 454.5295
106.9609, 451.9092
107.4431, 448.7300
107.9252, 445.1150
108.4073, 441.1871
108.8894, 436.9142
109.3715, 432.4512
109.8536, 428.1425
110.3358, 424.0139
110.8179, 419.7729
111.3000, 415.0608
111.7821, 409.9516
112.2642, 405.2090
112.7463, 401.3583
113.2285, 397.8971
113.7106, 394.2065
114.1927, 390.0537
114.6748, 386.0619
115.1569, 383.3116
115.6390, 382.3685
116.1212, 381.1585
116.6033, 378.6438
117.0854, 375.7322
117.5675, 373.3102
118.0496, 371.8226
118.5317, 371.1134
119.0139, 370.4529
119.4960, 369.4083
119.9781, 368.9248
120.4602, 369.5146
120.9423, 370.7730
121.4244, 371.9967
121.9066, 372.6281
122.3887, 372.6074
122.8708, 372.8329
123.3529, 373.4055
123.8350, 374.0674
124.3171, 374.7525
124.7993, 375.4338
125.2814, 376.0488
125.7635, 376.5162
126.2456, 376.7880
126.7277, 377.1630
127.2098, 377.5572
127.6920, 378.0923
128.1741, 378.9505
128.6562, 380.1962
129.1383, 381.5960
129.6204, 382.8629
130.1025, 384.0129
130.5847, 385.1896
131.0668, 386.6299
131.5489, 388.1826
132.0310, 389.3151
132.5131, 389.8566
132.9952, 389.9588
133.4774, 389.6488
133.9595, 388.9444
134.4416, 388.3863
134.9237, 388.6096
135.4058, 389.7727
135.8879, 390.6427
136.3701, 390.8032
136.8522, 390.7226
137.3343, 390.6078
137.8164, 390.5188
138.2985, 390.4513
138.7806, 390.4485
139.2628, 390.7977
139.7449, 390.6346
140.2270, 389.4296
140.7091, 387.9742
141.1912, 387.0390
141.6733, 386.9727
142.1555, 387.4719
142.6376, 387.5022
143.1197, 386.6227
143.6018, 385.7194
144.0839, 384.7052
144.5660, 383.7398
145.0482, 383.1325
145.5303, 383.1276
146.0124, 383.5802
146.4945, 383.3932
146.9766, 382.2073
147.4587, 380.8951
147.9409, 379.6953
148.4230, 378.6396
148.9051, 377.8377
149.3872, 377.4834
149.8693, 377.4697
150.3514, 377.1186
150.8336, 376.0635
151.3157, 374.8874
151.7978, 374.0960
152.2799, 373.7188
152.7620, 373.5667
153.2441, 373.6865
153.7263, 373.9305
154.2084, 374.0396
154.6905, 373.9014
155.1726, 373.5746
155.6547, 373.1093
156.1368, 372.2811
156.6190, 371.7555
157.1011, 371.9875
157.5832, 372.7285
158.0653, 373.5091
158.5474, 374.0119
159.0295, 374.2634
159.5117, 374.6321
159.9938, 375.3633
160.4759, 375.9644
160.9580, 376.1562
161.4401, 376.0484
161.9222, 375.9414
162.4044, 376.1250
162.8865, 376.6678
163.3686, 377.0986
163.8507, 377.7528
164.3328, 378.0317
164.8149, 377.4078
165.2971, 376.0065
165.7792, 374.4986
166.2613, 373.6748
166.7434, 373.8441
167.2255, 373.8775
167.7076, 373.6380
168.1898, 373.3791
168.6719, 373.2759
169.1540, 373.3647
169.6361, 373.5677
170.1182, 373.7635
170.6003, 373.8696
171.0825, 374.2263
171.5646, 375.3504
172.0467, 376.5412
172.5288, 376.8255
173.0109, 375.8404
173.4930, 374.4334
173.9752, 374.0729
174.4573, 374.8262
174.9394, 375.5956
175.4215, 376.2328
175.9036, 376.6564
176.3857, 376.6529
176.8679, 376.0844
177.3500, 375.1524
177.8321, 374.1173
178.3142, 372.9635
178.7963, 371.8353
179.2784, 370.8400
179.7606, 369.9542
180.2427, 369.0738
180.7248, 368.2899
181.2069, 367.3800
181.6890, 366.1113
182.1711, 364.4493
182.6533, 362.7294
183.1354, 361.2577
183.6175, 360.0545
184.0996, 358.9466
184.5817, 358.1953
185.0638, 357.3409
185.5460, 356.0490
186.0281, 354.2565
186.5102, 352.2426
186.9923, 350.2998
187.4744, 348.2507
187.9565, 346.7951
188.4387, 346.2250
188.9208, 346.0556
189.4029, 346.0744
189.8850, 346.1877
190.3671, 346.2555
190.8492, 345.9711
191.3314, 344.9277
191.8135, 344.2001
192.2956, 343.8290
192.7777, 343.7685
193.2598, 344.1778
193.7419, 345.0903
194.2241, 346.1006
194.7062, 346.2303
195.1883, 344.2448
195.6704, 342.7455
196.1525, 342.1381
196.6346, 341.9350
197.1168, 341.5192
197.5989, 340.6118
198.0810, 339.4621
198.5631, 338.8103
199.0452, 339.0429
199.5273, 339.2217
200.0095, 339.2356
200.4916, 339.0971
200.9737, 338.8369
201.4558, 338.4746
201.9379, 337.9789
202.4200, 337.1659
202.9022, 335.5571
203.3843, 334.4806
203.8664, 334.8496
204.3485, 336.1783
204.8306, 337.1057
205.3127, 336.9773
205.7949, 336.1620
206.2770, 335.5439
206.7591, 335.2071
207.2412, 334.8606
207.7233, 334.2847
208.2054, 333.5207
208.6876, 332.8324
209.1697, 332.2859
209.6518, 331.9191
210.1339, 331.7578
210.6160, 331.8400
211.0981, 332.0246
211.5803, 332.1954
212.0624, 332.3521
212.5445, 332.5800
213.0266, 332.8882
213.5087, 333.3060
213.9908, 333.8902
214.4730, 334.6684
214.9551, 335.4990
215.4372, 336.1602
215.9193, 336.5965
216.4014, 337.2333
216.8836, 338.1715
217.3657, 339.3854
217.8478, 340.9852
218.3299, 342.9971
218.8120, 345.1385
219.2941, 346.9847
219.7763, 348.4212
220.2584, 349.9299
220.7405, 351.8490
221.2226, 353.7187
221.7047, 355.0868
222.1868, 355.8558
222.6690, 356.5008
223.1511, 357.7919
223.6332, 359.9833
224.1153, 362.3011
224.5974, 364.8310
225.0795, 367.3300
225.5617, 369.6387
226.0438, 371.7076
226.5259, 373.5678
227.0080, 375.2588
227.4901, 376.6717
227.9722, 378.0946
228.4544, 379.5854
228.9365, 381.0624
229.4186, 382.4809
229.9007, 383.8166
230.3828, 385.0318
230.8649, 386.0387
231.3471, 386.6980
231.8292, 387.3575
232.3113, 387.9517
232.7934, 388.5785
233.2755, 389.4511
233.7576, 390.5847
234.2398, 391.6412
234.7219, 392.0238
235.2040, 391.1295
235.6861, 390.5978
236.1682, 391.0742
236.6503, 391.5594
237.1325, 390.9293
237.6146, 388.9346
238.0967, 386.5201
238.5788, 385.1620
239.0609, 385.6870
239.5430, 385.3475
240.0252, 383.4612
240.5073, 380.9675
240.9894, 378.7830
241.4715, 377.1170
241.9536, 375.6803
242.4357, 374.1234
242.9179, 372.4774
243.4000, 370.5605
243.8821, 367.9701
244.3642, 365.2838
244.8463, 363.2617
245.3284, 362.0750
245.8106, 361.0396
246.2927, 359.3138
246.7748, 356.8745
247.2569, 354.4450
247.7390, 352.1110
248.2211, 349.8395
248.7033, 347.5361
249.1854, 345.1607
249.6675, 342.9296
250.1496, 341.1371
250.6317, 339.7083
251.1138, 338.2777
251.5960, 336.6678
252.0781, 335.0545
252.5602, 333.7038
253.0423, 332.6892
253.5244, 331.6940
254.0065, 330.3512
254.4887, 328.8060
254.9708, 327.4742
255.4529, 326.6253
255.9350, 325.9854
256.4171, 325.0918
256.8992, 323.8319
257.3813, 322.7792
257.8635, 322.7415
258.3456, 323.1683
258.8277, 323.0891
259.3098, 321.8081
259.7919, 320.1244
260.2740, 319.3478
260.7562, 319.7346
261.2383, 319.9137
261.7204, 318.8605
262.2025, 317.1796
262.6846, 315.5492
263.1667, 314.2110
263.6489, 312.9443
264.1310, 311.3230
264.6131, 309.2041
265.0952, 307.3524
265.5773, 306.5201
266.0594, 305.9789
266.5416, 305.0133
267.0237, 303.3619
267.5058, 301.4238
267.9879, 299.7574
268.4700, 298.4625
268.9521, 297.0063
269.4343, 294.9403
269.9164, 292.7772
270.3985, 290.9790
270.8806, 289.6828
271.3627, 288.4854
271.8448, 286.8343
272.3270, 284.6118
272.8091, 282.5101
273.2912, 280.7156
273.7733, 279.0803
274.2554, 277.5362
274.7375, 276.0588
275.2197, 274.6483
275.7018, 273.3320
276.1839, 272.1476
276.6660, 270.8361
277.1481, 268.8950
277.6302, 267.1725
278.1124, 266.3291
278.5945, 266.3008
279.0766, 266.3327
279.5587, 265.6252
280.0408, 264.0857
280.5229, 262.6509
281.0051, 261.5575
281.4872, 260.4096
281.9693, 258.8123
282.4514, 256.9503
282.9335, 255.4322
283.4156, 254.9859
283.8978, 255.6477
284.3799, 255.6624
284.8620, 254.3420
285.3441, 253.0212
285.8262, 252.0996
286.3083, 251.5346
286.7905, 251.1987
287.2726, 251.1146
287.7547, 251.2038
288.2368, 250.6698
288.7189, 248.7262
289.2010, 247.0752
289.6832, 246.4261
290.1653, 246.3134
290.6474, 245.9637
291.1295, 244.8798
291.6116, 243.3319
292.0938, 242.4891
292.5759, 243.2190
293.0580, 243.4110
293.5401, 242.3642
294.0222, 240.7275
294.5043, 239.1838
294.9865, 238.0317
295.4686, 237.1963
295.9507, 236.4909
296.4328, 235.8495
296.9149, 235.4929
297.3970, 235.5667
297.8792, 235.8204
298.3613, 236.0787
298.8434, 236.2780
299.3255, 236.4014
299.8076, 236.4010
300.2897, 236.1882
300.7719, 236.0501
301.2540, 236.2440
301.7361, 236.3305
302.2182, 235.9262
302.7003, 235.0258
303.1824, 234.0095
303.6646, 233.3540
304.1467, 233.1962
304.6288, 232.9122
305.1109, 232.3033
305.5930, 231.7453
306.0751, 231.4613
306.5573, 231.4110
307.0394, 231.3714
307.5215, 231.0805
308.0036, 230.4870
308.4857, 230.3958
308.9678, 231.5680
309.4500, 232.5108
309.9321, 232.6833
310.4142, 232.2937
310.8963, 231.8051
311.3784, 231.5060
311.8605, 231.3923
312.3427, 231.4486
312.8248, 232.1510
313.3069, 232.4481
313.7890, 231.7858
314.2711, 230.7257
314.7532, 230.0322
315.2354, 230.1010
315.7175, 230.6335
316.1996, 230.7687
316.6817, 230.2670
317.1638, 229.7165
317.6459, 229.2121
318.1281, 228.6824
318.6102, 228.0643
319.0923, 227.3379
319.5744, 226.5288
320.0565, 225.6884
320.5386, 224.8680
321.0208, 223.8863
321.5029, 222.5033
321.9850, 221.1568
322.4671, 220.1717
322.9492, 219.5466
323.4313, 219.0116
323.9135, 218.3117
324.3956, 217.4834
324.8777, 216.2795
325.3598, 213.8811
325.8419, 211.8598
326.3240, 211.0915
326.8062, 211.2642
327.2883, 211.4057
327.7704, 210.7149
328.2525, 209.2570
328.7346, 208.1846
329.2167, 208.0200
329.6989, 207.6568
330.1810, 206.5982
330.6631, 205.2246
331.1452, 204.1446
331.6273, 203.7115
332.1094, 203.6921
332.5916, 203.3804
333.0737, 202.7753
333.5558, 201.8342
334.0379, 200.0123
334.5200, 198.1789
335.0021, 197.3150
335.4843, 197.7081
335.9664, 198.5923
336.4485, 198.6864
336.9306, 197.6496
337.4127, 196.8352
337.8948, 196.6196
338.3770, 196.4624
338.8591, 195.9710
339.3412, 195.1546
339.8233, 194.3788
340.3055, 193.9669
340.7876, 193.9235
341.2697, 194.2304
341.7518, 195.6215
342.2339, 196.6286
342.7160, 196.3059
343.1982, 195.1217
343.6803, 194.2605
344.1624, 194.6728
344.6445, 196.0285
345.1266, 196.6199
345.6087, 195.9559
346.0909, 195.2996
346.5730, 194.9586
347.0551, 194.9008
347.5372, 195.1538
348.0193, 195.7894
348.5014, 196.5371
348.9836, 196.9147
349.4657, 196.8667
349.9478, 196.6257
350.4299, 195.9578
350.9120, 195.2989
351.3941, 194.9193
351.8763, 194.8753
352.3584, 195.1864
352.8405, 196.0434
353.3226, 197.4723
353.8047, 198.6025
354.2868, 199.1981
354.7690, 199.5713
355.2511, 199.8335
355.7332, 200.0325
356.2153, 200.3188
356.6974, 200.9253
357.1795, 201.7204
357.6617, 202.0865
358.1438, 201.6871
358.6259, 201.5525
359.1080, 202.5666
359.5901, 204.1539
360.0722, 205.4109
360.5544, 205.9678
361.0365, 206.1098
361.5186, 206.0834
362.0007, 205.8197
362.4828, 205.9596
362.9649, 207.1194
363.4471, 208.6316
363.9292, 209.7474
364.4113, 210.3525
364.8934, 210.7409
365.3755, 211.1777
365.8576, 211.6127
366.3398, 211.7393
366.8219, 211.3881
367.3040, 210.8460
367.7861, 210.3540
368.2682, 209.9145
368.7503, 209.6320
369.2325, 209.8681
369.7146, 210.1934
370.1967, 209.7169
370.6788, 208.2369
371.1609, 206.7417
371.6430, 206.1169
372.1252, 206.1036
372.6073, 205.8421
373.0894, 205.3249
373.5715, 204.4420
374.0536, 202.7822
374.5357, 200.5247
375.0179, 198.7759
375.5000, 198.2856
375.9821, 198.4663
376.4642, 197.8241
376.9463, 195.8823
377.4284, 194.3284
377.9106, 194.0019
378.3927, 194.4261
378.8748, 194.8337
379.3569, 195.0329
379.8390, 195.0949
380.3211, 195.0816
380.8033, 194.9714
381.2854, 194.9203
381.7675, 195.1428
382.2496, 195.2839
382.7317, 194.8755
383.2138, 193.9959
383.6960, 193.3184
384.1781, 193.3630
384.6602, 194.0872
385.1423, 194.8297
385.6244, 195.7886
386.1065, 196.5439
386.5887, 196.7299
387.0708, 196.6552
387.5529, 196.9211
388.0350, 197.8094
388.5171, 198.9522
388.9992, 199.5363
389.4814, 199.0014
389.9635, 198.7396
390.4456, 198.8886
390.9277, 199.2152
391.4098, 199.5122
391.8919, 199.7638
392.3741, 200.1396
392.8562, 200.8763
393.3383, 202.0929
393.8204, 202.7672
394.3025, 202.3024
394.7846, 201.9556
395.2668, 202.2141
395.7489, 202.8994
396.2310, 203.5988
396.7131, 204.0587
397.1952, 204.4180
397.6773, 205.2252
398.1595, 207.1281
398.6416, 208.3801
399.1237, 208.6101
399.6058, 208.2785
400.0879, 207.7237
400.5700, 207.0444
401.0522, 206.2206
401.5343, 205.1463
402.0164, 203.7502
402.4985, 202.5746
402.9806, 202.4502
403.4627, 201.7402
403.9449, 199.1319
404.4270, 195.3157
404.9091, 192.1077
405.3912, 190.8316
405.8733, 190.8734
406.3554, 190.3527
406.8376, 189.1374
407.3197, 187.6645
407.8018, 185.8190
408.2839, 183.9431
408.7660, 182.3980
409.2481, 181.2600
409.7303, 180.4259
410.2124, 179.9701
410.6945, 179.8493
411.1766, 179.3033
411.6587, 177.8387
412.1408, 176.3326
412.6230, 175.7240
413.1051, 175.8885
413.5872, 175.9119
414.0693, 175.1275
414.5514, 174.0707
415.0335, 173.7543
415.5157, 174.3127
415.9978, 174.7178
416.4799, 174.1656
416.9620, 172.9657
417.4441, 172.1341
417.9262, 171.8109
418.4084, 171.7211
418.8905, 171.7260
419.3726, 171.8447
419.8547, 172.2661
420.3368, 173.1782
420.8189, 173.9978
421.3011, 173.6208
421.7832, 171.6788
422.2653, 170.1911
422.7474, 169.4549
423.2295, 169.2040
423.7116, 169.4462
424.1938, 170.0559
424.6759, 170.4573
425.1580, 170.1431
425.6401, 169.1704
426.1222, 168.5999
426.6043, 168.6451
427.0865, 168.7745
427.5686, 168.8880
428.0507, 168.9961
428.5328, 169.1600
429.0149, 169.3982
429.4970, 169.6010
429.9792, 169.5631
430.4613, 169.1392
430.9434, 168.7817
431.4255, 168.5343
431.9076, 168.3017
432.3897, 167.9552
432.8719, 167.5587
433.3540, 167.3384
433.8361, 167.5277
434.3182, 168.0377
434.8003, 168.2035
435.2824, 167.8000
435.7646, 167.3826
436.2467, 167.0345
436.7288, 166.7720
437.2109, 166.6621
437.6930, 166.7285
438.1751, 166.7838
438.6573, 166.4881
439.1394, 165.7933
439.6215, 165.4592
440.1036, 165.9003
440.5857, 166.3804
441.0678, 166.3689
441.5500, 165.9723
442.0321, 165.6230
442.5142, 165.6245
442.9963, 165.7767
443.4784, 165.6375
443.9605, 165.1469
444.4427, 164.8530
444.9248, 165.2574
445.4069, 165.9125
445.8890, 165.9944
446.3711, 165.2578
446.8532, 164.5440
447.3354, 164.2827
447.8175, 164.3836
448.2996, 164.7792
448.7817, 165.5224
449.2638, 166.1128
449.7459, 165.8988
450.2281, 164.8173
450.7102, 164.0560
451.1923, 163.7215
451.6744, 163.6613
452.1565, 163.8758
452.6386, 164.2978
453.1208, 164.8001
453.6029, 165.3458
454.0850, 165.8379
454.5671, 166.0029
455.0492, 165.4332
455.5313, 165.0839
456.0135, 165.3088
456.4956, 165.5288
456.9777, 165.0624
457.4598, 163.9689
457.9419, 163.0581
458.4240, 163.1731
458.9062, 164.3345
459.3883, 165.0824
459.8704, 165.2584
460.3525, 165.1589
460.8346, 164.4798
461.3167, 163.6978
461.7989, 163.4924
462.2810, 164.1312
462.7631, 165.0557
463.2452, 165.3783
463.7273, 164.9948
464.2094, 164.6189
464.6916, 164.2957
465.1737, 164.0429
465.6558, 163.9379
466.1379, 163.9249
466.6200, 163.8046
467.1021, 163.2912
467.5843, 162.6786
468.0664, 162.6469
468.5485, 163.2815
469.0306, 163.8823
469.5127, 164.1513
469.9948, 164.1874
470.4770, 164.1934
470.9591, 164.2270
471.4412, 164.0401
471.9233, 163.1222
472.4054, 161.9941
472.8875, 161.8547
473.3697, 162.9808
473.8518, 164.0382
474.3339, 163.6306
474.8160, 161.7869
475.2981, 160.9686
475.7802, 162.0582
476.2624, 163.2147
476.7445, 163.6072
477.2266, 163.4820
477.7087, 163.3157
478.1908, 163.2944
478.6729, 163.3853
479.1551, 163.5491
479.6372, 163.9171
480.1193, 164.0313
480.6014, 163.7512
481.0835, 163.3788
481.5656, 162.9317
482.0478, 162.5307
482.5299, 162.4680
483.0120, 163.0010
483.4941, 163.8905
483.9762, 164.1701
484.4583, 163.4838
484.9405, 162.9105
485.4226, 162.6126
485.9047, 162.5300
486.3868, 162.6930
486.8689, 163.0779
487.3510, 163.4941
487.8332, 163.8944
488.3153, 164.2182
488.7974, 164.0803
489.2795, 163.2416
489.7616, 162.4956
490.2437, 162.2839
490.7259, 162.4908
491.2080, 163.0695
491.6901, 164.2677
492.1722, 165.3237
492.6543, 165.5503
493.1364, 165.1862
493.6186, 164.9103
494.1007, 164.8931
494.5828, 165.0061
495.0649, 165.1390
495.5470, 165.2991
496.0291, 165.3395
496.5113, 165.0167
496.9934, 164.7959
497.4755, 165.0354
497.9576, 165.5952
498.4397, 166.1388
498.9218, 166.5070
499.4040, 166.7228
499.8861, 166.8207
500.3682, 166.6986
500.8503, 166.6435
501.3324, 166.6574
501.8145, 166.7269
502.2967, 166.8812
502.7788, 167.0882
503.2609, 167.2352
503.7430, 167.1953
504.2251, 167.0933
504.7072, 167.5056
505.1894, 168.8313
505.6715, 169.7536
506.1536, 169.3981
506.6357, 168.8724
507.1178, 169.0368
507.5999, 169.9941
508.0821, 171.2846
508.5642, 172.9459
509.0463, 174.6708
509.5284, 175.3816
510.0105, 174.7939
510.4926, 174.1725
510.9748, 174.2551
511.4569, 174.8781
511.9390, 175.6163
512.4211, 176.4656
512.9032, 177.3910
513.3853, 178.4431
513.8674, 179.5391
514.3495, 180.4546
514.8317, 181.1484
515.3138, 181.9435
515.7959, 183.2298
516.2780, 185.0682
516.7601, 186.4978
517.2422, 187.4202
517.7244, 188.1220
518.2065, 188.4057
518.6886, 188.6272
519.1707, 189.3909
519.6528, 190.8796
520.1349, 192.5620
520.6171, 193.5168
521.0992, 193.4220
521.5813, 193.9216
522.0634, 195.5947
522.5455, 197.3183
523.0276, 198.7616
523.5098, 199.9549
523.9919, 200.9737
524.4740, 201.8281
524.9561, 202.6062
525.4382, 203.4986
525.9203, 204.5054
526.4025, 205.2849
526.8846, 205.6145
527.3667, 205.8725
527.8488, 206.5621
528.3309, 207.5823
528.8130, 208.2583
529.2952, 208.1076
529.7773, 207.7460
530.2594, 207.8351
530.7415, 208.2559
531.2236, 208.4353
531.7057, 208.1301
532.1879, 207.4191
532.6700, 206.4160
533.1521, 204.8842
533.6342, 203.5880
534.1163, 202.7393
534.5984, 201.9673
535.0806, 201.0585
535.5627, 200.0149
536.0448, 198.9150
536.5269, 197.8108
537.0090, 196.6907
537.4911, 195.5549
537.9733, 194.4702
538.4554, 193.1911
538.9375, 191.4794
539.4196, 189.7477
539.9017, 188.1449
540.3839, 186.7294
540.8660, 185.6252
541.3481, 185.0292
541.8302, 184.7314
542.3123, 184.2766
542.7944, 183.6562
543.2766, 182.9735
543.7587, 182.2831
544.2408, 181.5370
544.7229, 180.6359
545.2050, 179.5495
545.6871, 178.5833
546.1693, 177.7997
546.6514, 177.2191
547.1335, 176.8996
547.6156, 176.8206
548.0977, 176.8880
548.5798, 177.0940
549.0620, 177.3246
549.5441, 177.1970
550.0262, 176.2599
550.5083, 175.5534
550.9904, 175.2126
551.4725, 175.0012
551.9547, 174.8719
552.4368, 174.7245
552.9189, 174.2892
553.4010, 173.2852
553.8831, 171.9328
554.3652, 171.1960
554.8474, 171.3718
555.3295, 171.4233
555.8116, 171.0332
556.2937, 170.4603
556.7758, 169.8267
557.2579, 169.1615
557.7401, 168.5428
558.2222, 168.0590
558.7043, 167.6371
559.1864, 167.1280
559.6685, 166.5301
560.1506, 165.9709
560.6328, 165.5789
561.1149, 165.2042
561.5970, 164.4018
562.0791, 162.9068
562.5612, 161.9032
563.0433, 161.9447
563.5255, 162.3096
564.0076, 162.5444
564.4897, 162.5476
564.9718, 162.2067
565.4539, 161.4146
565.9360, 160.3420
566.4182, 159.5604
566.9003, 159.0719
567.3824, 158.8857
567.8645, 159.4373
568.3466, 159.8889
568.8287, 159.5351
569.3109, 158.5590
569.7930, 157.7596
570.2751, 157.7119
570.7572, 158.0634
571.2393, 158.1193
571.7214, 157.8768
572.2036, 157.3415
572.6857, 156.2530
573.1678, 155.1625
573.6499, 154.8206
574.1320, 155.2040
574.6141, 155.4157
575.0963, 155.0906
575.5784, 154.5912
576.0605, 154.2210
576.5426, 153.9516
577.0247, 153.6098
577.5068, 153.1067
577.9890, 152.5689
578.4711, 152.2293
578.9532, 152.1100
579.4353, 152.1537
579.9174, 152.5549
580.3995, 152.9056
580.8817, 153.0791
581.3638, 153.0439
581.8459, 152.6949
582.3280, 151.9463
582.8101, 151.1582
583.2922, 150.9783
583.7744, 151.4541
584.2565, 151.8771
584.7386, 152.3001
585.2207, 152.4431
585.7029, 151.7416
586.1850, 150.6182
586.6671, 150.2207
587.1492, 151.3245
587.6313, 152.5510
588.1135, 152.7944
588.5956, 152.4078
589.0777, 152.1939
589.5598, 152.3540
590.0419, 152.7214
590.5240, 153.1445
591.0062, 153.6255
591.4883, 154.0739
591.9704, 154.5028
592.4525, 154.8896
592.9346, 155.3040
593.4167, 155.6359
593.8989, 155.6712
594.3810, 155.4112
594.8631, 155.2059
595.3452, 155.5109
595.8273, 156.2578
596.3094, 156.5880
596.7916, 156.2533
597.2737, 156.0733
597.7558, 156.5572
598.2379, 157.3026
598.7200, 157.9211
599.2021, 158.3695
599.6843, 158.7155
600.1664, 158.8839
600.6485, 159.0247
601.1306, 159.3929
601.6127, 159.9803
602.0948, 160.5172
602.5770, 160.7982
603.0591, 161.0098
603.5412, 161.6817
604.0233, 163.3382
604.5054, 164.5969
604.9875, 165.3489
605.4697, 165.8103
605.9518, 165.9240
606.4339, 165.8665
606.9160, 166.0385
607.3981, 166.6992
607.8802, 167.5427
608.3624, 167.8770
608.8445, 167.6012
609.3266, 167.6419
609.8087, 168.3739
610.2908, 169.1564
610.7729, 169.3305
611.2551, 169.1594
611.7372, 169.4725
612.2193, 170.9751
612.7014, 172.4027
613.1835, 172.6550
613.6656, 172.1917
614.1478, 172.0193
614.6299, 172.3857
615.1120, 172.9680
615.5941, 173.5330
616.0762, 174.0822
616.5583, 173.8967
617.0405, 171.8223
617.5226, 170.4585
618.0047, 170.9141
618.4868, 171.8502
618.9689, 171.9240
619.4510, 170.9735
619.9332, 169.7797
620.4153, 168.9725
620.8974, 168.4517
621.3795, 167.8903
621.8616, 167.2964
622.3438, 166.6225
622.8259, 165.8197
623.3080, 164.9561
623.7901, 164.0247
624.2722, 162.9958
624.7543, 162.3876
625.2365, 162.9342
625.7186, 163.4525
626.2007, 162.8979
626.6828, 161.4891
627.1649, 159.8568
627.6470, 158.2480
628.1292, 156.8320
628.6113, 155.8738
629.0934, 155.4149
629.5755, 155.2334
630.0576, 155.8385
630.5397, 156.1728
631.0219, 155.7733
631.5040, 154.9719
631.9861, 154.2276
632.4682, 153.6734
632.9503, 153.1432
633.4324, 152.4540
633.9146, 151.6659
634.3967, 150.9781
634.8788, 150.4133
635.3609, 149.8983
635.8430, 149.3457
636.3251, 148.8394
636.8073, 148.6977
637.2894, 149.2348
637.7715, 149.3428
638.2536, 148.3808
638.7357, 147.3174
639.2178, 146.9780
639.7000, 147.2072
640.1821, 147.3586
640.6642, 147.0747
641.1463, 146.5626
641.6284, 146.2296
642.1105, 146.0982
642.5927, 146.0537
643.0748, 146.3404
643.5569, 146.3779
644.0390, 145.6764
644.5211, 144.5481
645.0032, 143.5898
645.4854, 142.8682
645.9675, 142.5122
646.4496, 142.9394
646.9317, 143.6925
647.4138, 143.8814
647.8959, 143.3983
648.3781, 142.7267
648.8602, 142.2205
649.3423, 141.8275
649.8244, 141.3137
650.3065, 140.4264
650.7886, 139.8029
651.2708, 139.5184
651.7529, 139.4417
652.2350, 139.6636
652.7171, 140.0224
653.1992, 140.0783
653.6813, 139.4810
654.1635, 138.7683
654.6456, 138.9928
655.1277, 140.0390
655.6098, 140.4031
656.0919, 139.6795
656.5740, 138.5542
657.0562, 137.3869
657.5383, 136.2824
658.0204, 135.8004
658.5025, 136.4787
658.9846, 137.1098
659.4667, 137.2941
659.9489, 137.2915
660.4310, 137.4417
660.9131, 137.7228
661.3952, 137.7596
661.8773, 137.2048
662.3594, 136.3374
662.8416, 136.2124
663.3237, 137.1917
663.8058, 137.5561
664.2879, 136.4977
664.7700, 135.2531
665.2521, 134.6867
665.7343, 134.6699
666.2164, 134.7391
666.6985, 134.7549
667.1806, 134.8328
667.6627, 135.1350
668.1448, 135.5367
668.6270, 135.8693
669.1091, 136.0776
669.5912, 135.9557
670.0733, 135.2300
670.5554, 134.0529
671.0375, 133.5369
671.5197, 134.1897
672.0018, 134.6847
672.4839, 134.9660
672.9660, 134.9905
673.4481, 134.5269
673.9302, 133.7572
674.4124, 133.2462
674.8945, 133.3720
675.3766, 133.7391
675.8587, 133.9285
676.3408, 133.9400
676.8229, 133.7083
677.3051, 133.1752
677.7872, 132.6936
678.2693, 132.6325
678.7514, 132.9348
679.2335, 132.9272
679.7156, 132.1257
680.1978, 131.6981
680.6799, 132.1532
681.1620, 132.7879
681.6441, 133.0702
682.1262, 132.9632
682.6083, 132.6024
683.0905, 131.9854
683.5726, 131.3654
684.0547, 131.2882
684.5368, 131.7524
685.0189, 132.1934
685.5010, 132.5541
685.9832, 132.7525
686.4653, 132.6647
686.9474, 132.3368
687.4295, 132.0384
687.9116, 131.8546
688.3937, 131.5932
688.8759, 130.9304
689.3580, 130.3413
689.8401, 130.5483
690.3222, 131.3803
690.8043, 131.8611
691.2864, 131.2973
691.7686, 130.1957
692.2507, 129.7654
692.7328, 130.0740
693.2149, 130.6926
693.6970, 131.9634
694.1791, 132.9558
694.6613, 132.7948
695.1434, 131.9105
695.6255, 131.2327
696.1076, 130.9423
696.5897, 130.7824
697.0718, 130.7409
697.5540, 130.7018
698.0361, 130.5479
698.5182, 130.2589
699.0003, 129.8058
699.4824, 129.1549
699.9645, 128.4233
700.4467, 127.9009
700.9288, 127.6187
701.4109, 127.4320
701.8930, 127.2309
702.3751, 127.2636
702.8572, 127.8557
703.3394, 128.6826
703.8215, 129.2060
704.3036, 129.3013
704.7857, 129.1469
705.2678, 128.7667
705.7499, 128.2389
706.2321, 127.3888
706.7142, 126.4021
707.1963, 126.2831
707.6784, 127.6432
708.1605, 129.6114
708.6426, 130.4258
709.1248, 129.7480
709.6069, 129.1129
710.0890, 128.2042
710.5711, 127.7292
711.0532, 128.3557
711.5353, 129.3461
712.0175, 129.6756
712.4996, 129.1206
712.9817, 128.5195
713.4638, 128.4649
713.9459, 128.6264
714.4280, 128.5057
714.9102, 128.1481
715.3923, 127.9060
715.8744, 127.9381
716.3565, 128.0665
716.8386, 128.0232
717.3207, 127.7762
717.8029, 127.5895
718.2850, 127.4091
718.7671, 127.3668
719.2492, 127.6227
719.7313, 127.9460
720.2134, 128.1208
720.6956, 128.1198
721.1777, 128.0298
721.6598, 127.8748
722.1419, 127.6771
722.6240, 127.4669
723.1061, 127.2402
723.5883, 126.9340
724.0704, 126.5169
724.5525, 126.2192
725.0346, 126.3230
725.5167, 126.8123
725.9988, 127.0772
726.4810, 126.9575
726.9631, 126.8379
727.4452, 126.7348
727.9273, 126.6727
728.4094, 126.7198
728.8915, 126.8317
729.3737, 126.8352
729.8558, 126.5570
730.3379, 126.2994
730.8200, 126.4482
731.3021, 126.8704
731.7842, 127.2829
732.2664, 127.6281
732.7485, 127.6352
733.2306, 127.0191
733.7127, 125.9951
734.1948, 125.4170
734.6769, 125.4752
735.1591, 125.6453
735.6412, 126.0725
736.1233, 126.4397
736.6054, 126.5453
737.0875, 126.4843
737.5696, 126.4518
738.0518, 126.5182
738.5339, 126.5607
739.0160, 126.5069
739.4981, 126.3520
739.9802, 125.9618
740.4623, 125.3905
740.9445, 125.1363
741.4266, 125.4770
741.9087, 126.1455
742.3908, 126.7257
742.8729, 127.3486
743.3550, 127.3102
743.8372, 125.7230
744.3193, 124.5365
744.8014, 124.4987
745.2835, 124.9898
745.7656, 125.4429
746.2477, 125.7471
746.7299, 125.7831
747.2120, 125.2686
747.6941, 124.6161
748.1762, 124.3539
748.6583, 124.3628
749.1404, 124.2051
749.6226, 123.7612
750.1047, 123.3766
750.5868, 123.4252
751.0689, 123.8637
751.5510, 124.2286
752.0331, 124.5454
752.5153, 124.7345
752.9974, 124.8509
753.4795, 124.7745
753.9616, 124.2117
754.4437, 123.3757
754.9258, 122.9341
755.4080, 123.2157
755.8901, 123.6855
756.3722, 124.1115
756.8543, 124.4318
757.3364, 124.5045
757.8185, 124.3525
758.3007, 124.1703
758.7828, 124.0765
759.2649, 124.0150
759.7470, 123.8658
760.2291, 123.6168
760.7112, 123.3365
761.1934, 123.0508
761.6755, 122.6938
762.1576, 122.0213
762.6397, 121.3609
763.1218, 121.1903
763.6039, 121.5965
764.0861, 122.0306
764.5682, 122.4511
765.0503, 122.6938
765.5324, 122.4837
766.0145, 122.0340
766.4966, 121.7086
766.9788, 121.6306
767.4609, 121.8323
767.9430, 122.4577
768.4251, 123.3457
768.9072, 123.5987
769.3893, 123.0730
769.8715, 122.6486
770.3536, 122.5423
770.8357, 122.5974
771.3178, 122.7292
771.7999, 122.9130
772.2820, 123.0201
772.7642, 122.9442
773.2463, 122.9245
773.7284, 123.3348
774.2105, 123.5892
774.6926, 122.8948
775.1747, 121.5660
775.6569, 120.6108
776.1390, 120.5409
776.6211, 120.9417
777.1032, 121.4012
777.5853, 121.8643
778.0674, 121.9429
778.5496, 121.5603
779.0317, 121.2160
779.5138, 121.1241
779.9959, 121.2602
780.4780, 121.6700
780.9601, 122.5763
781.4423, 122.8123
781.9244, 121.5633
782.4065, 120.6631
782.8886, 121.2336
783.3707, 122.1167
783.8528, 121.8177
784.3350, 120.3410
784.8171, 119.1866
785.2992, 119.4847
785.7813, 120.3273
786.2634, 120.6790
786.7455, 120.5797
787.2277, 119.9290
787.7098, 118.7309
788.1919, 117.9871
788.6740, 118.5896
789.1561, 120.0983
789.6382, 120.8521
790.1204, 120.3841
790.6025, 120.2859
791.0846, 121.0359
791.5667, 121.7242
792.0488, 121.9897
792.5309, 121.9283
793.0131, 121.6714
793.4952, 121.2211
793.9773, 120.7222
794.4594, 120.1836
794.9415, 119.6766
795.4236, 119.2098
795.9058, 118.8398
796.3879, 118.7294
796.8700, 118.9083
797.3521, 119.1350
797.8342, 119.1079
798.3163, 119.5065
798.7985, 119.2640
799.2806, 120.2180
799.7627, 120.9736
800.2448, 121.4213
800.7269, 121.4869
801.2090, 120.8780
801.6912, 119.7784
802.1733, 119.2045
802.6554, 119.7439
803.1375, 119.8751
803.6196, 118.7023
804.1017, 117.5848
804.5839, 117.7236
805.0660, 118.6580
805.5481, 119.2799
806.0302, 119.1805
806.5123, 118.8570
806.9944, 118.7521
807.4766, 118.8127
807.9587, 118.9287
808.4408, 119.0939
808.9229, 119.3211
809.4050, 119.6444
809.8871, 119.8319
810.3693, 119.5417
810.8514, 118.7827
811.3335, 118.4062
811.8156, 118.5421
812.2977, 118.8480
812.7798, 119.7047
813.2620, 120.3208
813.7441, 119.9588
814.2262, 118.9299
814.7083, 118.1692
815.1904, 118.0181
815.6725, 117.9271
816.1547, 117.3163
816.6368, 116.7863
817.1189, 117.2466
817.6010, 118.4317
818.0831, 119.3622
818.5652, 119.6212
819.0474, 119.5820
819.5295, 119.8148
820.0116, 120.2342
820.4937, 119.9176
820.9758, 118.6976
821.4579, 117.7494
821.9401, 117.4824
822.4222, 117.5633
822.9043, 117.7433
823.3864, 118.0054
823.8685, 117.9769
824.3506, 117.3262
824.8328, 116.8657
825.3149, 116.8585
825.7970, 116.9567
826.2791, 116.7698
826.7612, 116.5032
827.2433, 116.7697
827.7255, 117.8732
828.2076, 118.8919
828.6897, 118.9898
829.1718, 118.5251
829.6539, 117.8602
830.1360, 117.1510
830.6182, 117.0380
831.1003, 117.7706
831.5824, 118.5828
832.0645, 118.5078
832.5466, 117.6354
833.0287, 117.0936
833.5109, 116.9849
833.9930, 116.8976
834.4751, 116.6806
834.9572, 116.5419
835.4393, 116.7711
835.9214, 117.2148
836.4036, 117.4032
836.8857, 117.1041
837.3678, 116.9476
837.8499, 117.2506
838.3320, 117.5962
838.8141, 117.7638
839.2963, 117.7239
839.7784, 117.3684
840.2605, 116.6968
840.7426, 116.1611
841.2247, 116.3995
841.7068, 116.9409
842.1890, 116.6506
842.6711, 115.7336
843.1532, 115.4622
843.6353, 116.1853
844.1174, 117.0001
844.5995, 117.0820
845.0817, 116.6185
845.5638, 116.4807
846.0459, 116.8758
846.5280, 117.0099
847.0101, 116.6820
847.4922, 116.2703
847.9744, 115.8102
848.4565, 115.4526
848.9386, 115.5069
849.4207, 116.0720
849.9028, 116.4883
850.3849, 116.6053
850.8671, 116.4959
851.3492, 115.9792
851.8313, 115.3810
852.3134, 115.1624
852.7955, 115.3559
853.2776, 115.6250
853.7598, 115.7498
854.2419, 115.8209
854.7240, 116.0526
855.2061, 116.3589
855.6882, 116.2892
856.1703, 115.8002
856.6525, 115.5193
857.1346, 115.8482
857.6167, 116.3992
858.0988, 116.4101
858.5809, 115.7778
859.0630, 115.2935
859.5452, 115.0655
860.0273, 114.7928
860.5094, 114.3019
860.9915, 113.7984
861.4736, 113.4535
861.9557, 113.2601
862.4379, 113.1467
862.9200, 113.0296
863.4021, 113.0957
863.8842, 113.6351
864.3663, 114.1990
864.8484, 114.4569
865.3306, 114.3944
865.8127, 113.9838
866.2948, 113.2205
866.7769, 112.5798
867.2590, 112.6613
867.7411, 113.1505
868.2233, 113.3664
868.7054, 113.3589
869.1875, 113.5533
869.6696, 114.0760
870.1517, 114.4643
870.6339, 114.2251
871.1160, 114.4583
871.5981, 114.4850
872.0802, 114.0803
872.5623, 114.2500
873.0444, 113.5423
873.5266, 112.7482
874.0087, 112.2300
874.4908, 111.9426
874.9729, 111.8424
875.4550, 111.9802
875.9371, 112.0052
876.4193, 111.8000
876.9014, 111.5582
877.3835, 111.3828
877.8656, 111.1979
878.3477, 110.7901
878.8298, 110.2634
879.3120, 110.0968
879.7941, 110.6532
880.2762, 111.3166
880.7583, 111.4704
881.2404, 111.3305
881.7225, 111.1965
882.2047, 111.1329
882.6868, 111.3146
883.1689, 111.8152
883.6510, 112.2838
884.1331, 112.2589
884.6152, 111.7976
885.0974, 111.2570
885.5795, 110.5822
886.0616, 110.3002
886.5437, 110.6885
887.0258, 111.1185
887.5079, 111.0921
887.9901, 110.6899
888.4722, 110.2259
888.9543, 109.5669
889.4364, 109.1015
889.9185, 108.9094
890.4006, 108.8166
890.8828, 108.8213
891.3649, 108.8485
891.8470, 108.7922
892.3291, 108.6504
892.8112, 108.5567
893.2933, 108.4704
893.7755, 108.5554
894.2576, 109.1922
894.7397, 109.8857
895.2218, 109.9370
895.7039, 109.4269
896.1860, 108.9213
896.6682, 108.6905
897.1503, 108.5029
897.6324, 107.9627
898.1145, 107.2577
898.5966, 106.9728
899.0787, 107.0898
899.5609, 107.3089
900.0430, 107.5469
900.5251, 107.7053
901.0072, 107.6593
901.4893, 107.4831
901.9714, 107.5971
902.4536, 108.1860
902.9357, 108.3516
903.4178, 107.7605
903.8999, 107.2042
904.3820, 107.2339
904.8641, 107.4795
905.3463, 107.2100
905.8284, 106.3187
906.3105, 105.8324
906.7926, 106.1255
907.2747, 106.4487
907.7568, 106.7220
908.2390, 106.8130
908.7211, 106.3712
909.2032, 105.6612
909.6853, 105.5431
910.1674, 106.5228
910.6495, 107.3024
911.1317, 106.6358
911.6138, 105.6159
912.0959, 105.5779
912.5780, 106.2040
913.0601, 106.5445
913.5422, 106.3688
914.0244, 106.2306
914.5065, 106.7251
914.9886, 107.3653
915.4707, 106.8170
915.9528, 105.3619
916.4349, 104.9397
916.9171, 105.8248
917.3992, 106.7409
917.8813, 106.9961
918.3634, 106.9133
918.8455, 107.0847
919.3276, 107.5558
919.8098, 107.3836
920.2919, 106.1631
920.7740, 105.3473
921.2561, 105.4469
921.7382, 105.8396
922.2203, 106.2114
922.7025, 106.4618
923.1846, 106.1867
923.6667, 104.9675
924.1488, 104.1408
924.6309, 104.0386
925.1130, 104.1161
925.5952, 104.1405
926.0773, 104.1943
926.5594, 104.4595
927.0415, 104.9089
927.5236, 105.2291
928.0057, 105.3017
928.4879, 105.1876
928.9700, 104.7091
929.4521, 104.2174
929.9342, 104.1507
930.4163, 104.4432
930.8984, 104.8691
931.3806, 105.3271
931.8627, 105.6239
932.3448, 105.5322
932.8269, 105.1652
933.3090, 104.6999
933.7911, 104.1617
934.2733, 103.5978
934.7554, 103.0358
935.2375, 102.7819
935.7196, 103.0800
936.2017, 103.6294
936.6838, 103.7623
937.1660, 103.4523
937.6481, 103.2992
938.1302, 103.3457
938.6123, 103.3551
939.0944, 103.1934
939.5765, 103.0998
940.0587, 103.4037
940.5408, 103.2335
941.0229, 103.1307
941.5050, 103.3465
941.9871, 103.3319
942.4692, 103.2558
942.9514, 103.6576
943.4335, 104.1199
943.9156, 104.4207
944.3977, 104.1337
944.8798, 103.2561
945.3619, 102.7145
945.8441, 102.9029
946.3262, 103.1969
946.8083, 103.6628
947.2904, 103.8950
947.7725, 103.3263
948.2546, 102.3006
948.7368, 101.5294
949.2189, 101.2192
949.7010, 101.4130
950.1831, 102.6616
950.6652, 103.9555
951.1473, 104.2403
951.6295, 103.8461
952.1116, 103.2033
952.5937, 102.5133
953.0758, 102.1591
953.5579, 102.3834
954.0400, 102.8103
954.5222, 102.9645
955.0043, 102.9033
955.4864, 102.7950
955.9685, 102.6385
956.4506, 102.2519
956.9327, 101.5834
957.4149, 101.2867
957.8970, 102.0568
958.3791, 103.3881
958.8612, 103.6373
959.3433, 102.7100
959.8254, 102.0569
960.3076, 101.8258
960.7897, 101.5910
961.2718, 101.0725
961.7539, 100.7031
962.2360, 101.1852
962.7181, 102.4482
963.2003, 102.7586
963.6824, 101.3825
964.1645, 100.5719
964.6466, 100.8565
965.1287, 101.3462
965.6108, 101.5284
966.0930, 101.6457
966.5751, 102.2084
967.0572, 103.3227
967.5393, 103.7834
968.0214, 102.8732
968.5035, 102.0847
968.9857, 101.7971
969.4678, 101.7997
969.9499, 102.2273
970.4320, 102.7351
970.9141, 102.5055
971.3962, 101.2389
971.8784, 100.2515
972.3605, 100.3194
972.8426, 100.6876
973.3247, 100.8556
973.8068, 101.0012
974.2889, 101.5445
974.7711, 102.3344
975.2532, 102.6631
975.7353, 102.1466
976.2174, 101.5046
976.6995, 101.3626
977.1816, 101.5066
977.6638, 101.7159
978.1459, 101.9424
978.6280, 102.1286
979.1101, 102.2502
979.5922, 102.2417
980.0743, 102.0383
980.5565, 101.7726
981.0386, 101.7686
981.5207, 101.3273
982.0028, 101.4604
982.4849, 100.5540
982.9670, 99.78692
983.4492, 99.37179
983.9313, 99.29229
984.4134, 99.59885
984.8955, 100.1000
985.3776, 100.0971
985.8597, 99.56487
986.3419, 99.38876
986.8240, 99.69239
987.3061, 100.0127
987.7882, 100.1825
988.2703, 100.1786
988.7524, 99.92739
989.2346, 99.46910
989.7167, 99.24927
990.1988, 99.32800
990.6809, 99.46494
991.1630, 99.65324
991.6451, 99.86172
992.1273, 100.0017
992.6094, 100.2249
993.0915, 100.8744
993.5736, 102.0016
994.0557, 102.5690
994.5378, 102.2107
995.0200, 101.8193
995.5021, 101.4858
995.9842, 101.1322
996.4663, 100.5162
996.9484, 99.93551
997.4305, 100.0322
997.9127, 100.9379
998.3948, 101.3317
998.8769, 100.7252
999.3590, 99.94389
999.8411, 98.97292
1000.323, 98.16447
1000.805, 97.80293
1001.287, 97.80593
1001.770, 98.00084
1002.252, 98.35485
1002.734, 98.80807
1003.216, 99.74207
1003.698, 100.2905
1004.180, 99.49205
1004.662, 98.37682
1005.144, 98.08897
1005.627, 98.50662
1006.109, 98.97803
1006.591, 99.28439
1007.073, 99.47218
1007.555, 99.54372
1008.037, 99.53953
1008.519, 99.42983
1009.001, 99.30558
1009.483, 99.35662
1009.966, 99.54192
1010.448, 99.66241
1010.930, 99.62878
1011.412, 99.40230
1011.894, 98.63541
1012.376, 97.86098
1012.858, 98.10881
1013.340, 98.99281
1013.823, 99.51904
1014.305, 99.53871
1014.787, 99.38126
1015.269, 99.22178
1015.751, 99.15807
1016.233, 99.36324
1016.715, 99.75872
1017.197, 100.2621
1017.679, 100.7735
1018.162, 100.6788
1018.644, 99.91006
1019.126, 99.39664
1019.608, 99.78940
1020.090, 100.5291
1020.572, 100.5950
1021.054, 100.1027
1021.536, 99.91486
1022.018, 100.0248
1022.501, 100.0986
1022.983, 100.0645
1023.465, 99.72169
1023.947, 98.85149
1024.429, 97.84363
1024.911, 97.56196
1025.393, 98.02142
1025.875, 98.58967
1026.358, 99.32327
1026.840, 99.66634
1027.322, 99.42944
1027.804, 98.93355
1028.286, 98.32494
1028.768, 97.81685
1029.250, 98.02876
1029.732, 99.09756
1030.214, 99.83827
1030.697, 100.2510
1031.179, 100.2962
1031.661, 99.85940
1032.143, 99.29856
1032.625, 98.91704
1033.107, 98.59522
1033.589, 97.92561
1034.071, 96.66640
1034.553, 96.20234
1035.036, 96.98249
1035.518, 97.56778
1036.000, 97.48156
1036.482, 97.25818
1036.964, 97.34878
1037.446, 97.22760
1037.928, 97.60058
1038.410, 97.17075
1038.893, 96.97932
1039.375, 96.97791
1039.857, 97.30714
1040.339, 98.49403
1040.821, 99.50944
1041.303, 99.31718
1041.785, 98.38692
1042.267, 98.12639
1042.750, 98.91008
1043.232, 99.11240
1043.714, 97.98189
1044.196, 97.26382
1044.678, 97.78873
1045.160, 98.45134
1045.642, 98.29449
1046.124, 97.68340
1046.606, 97.54053
1047.089, 98.00172
1047.571, 98.58251
1048.053, 99.74154
1048.535, 100.3267
1049.017, 99.59815
1049.499, 98.58135
1049.981, 97.97560
1050.463, 97.70214
1050.945, 97.52204
1051.428, 97.42089
1051.910, 97.33552
1052.392, 97.01643
1052.874, 97.03152
1053.356, 98.11976
1053.838, 99.08900
1054.320, 98.75320
1054.802, 97.69260
1055.285, 97.18450
1055.767, 97.46474
1056.249, 97.70405
1056.731, 97.62023
1057.213, 97.54839
1057.695, 97.57148
1058.177, 97.68913
1058.659, 98.00803
1059.141, 98.37874
1059.624, 98.48850
1060.106, 98.28350
1060.588, 98.19218
1061.070, 98.65688
1061.552, 98.85120
1062.034, 98.08536
1062.516, 97.27431
1062.998, 97.31970
1063.480, 97.75183
1063.963, 97.61906
1064.445, 96.80288
1064.927, 96.18096
1065.409, 96.19587
1065.891, 96.29981
1066.373, 96.42603
1066.855, 96.40459
1067.337, 95.78687
1067.820, 95.09128
1068.302, 95.31845
1068.784, 96.46590
1069.266, 97.17444
1069.748, 96.64439
1070.230, 96.08777
1070.712, 95.99477
1071.194, 96.11761
1071.677, 96.33925
1072.159, 96.61471
1072.641, 96.97990
1073.123, 97.38174
1073.605, 97.55849
1074.087, 97.42847
1074.569, 97.03178
1075.051, 96.00212
1075.533, 95.11748
1076.016, 95.02299
1076.498, 95.35411
1076.980, 95.74521
1077.462, 96.06750
1077.944, 96.08170
1078.426, 95.56255
1078.908, 95.25700
1079.390, 95.71458
1079.873, 96.27375
1080.355, 96.56594
1080.837, 96.66716
1081.319, 96.59596
1081.801, 96.44437
1082.283, 96.47575
1082.765, 96.82626
1083.247, 96.96890
1083.729, 96.33350
1084.212, 95.81718
1084.694, 96.18613
1085.176, 96.73727
1085.658, 96.71423
1086.140, 96.25830
1086.622, 95.77372
1087.104, 95.33747
1087.586, 95.36935
1088.068, 96.77661
1088.551, 97.76161
1089.033, 96.89298
1089.515, 95.70741
1089.997, 95.62864
1090.479, 96.23103
1090.961, 96.58221
1091.443, 96.50597
1091.925, 96.21235
1092.408, 95.52415
1092.890, 94.98310
1093.372, 94.90127
1093.854, 94.94695
1094.336, 94.89635
1094.818, 94.80504
1095.300, 94.79476
1095.782, 94.86559
1096.265, 94.88954
1096.747, 94.75751
1097.229, 94.71582
1097.711, 94.87057
1098.193, 95.11184
1098.675, 95.60001
1099.157, 95.98039
1099.639, 95.58823
1100.121, 94.67904
1100.604, 94.52412
1101.086, 95.79189
1101.568, 96.55769
1102.050, 95.90075
1102.532, 95.16421
1103.014, 95.05614
1103.496, 95.01973
1103.978, 94.20638
1104.460, 93.09332
1104.943, 93.06941
1105.425, 94.54422
1105.907, 95.80014
1106.389, 96.54282
1106.871, 97.01225
1107.353, 97.42730
1107.835, 97.44139
1108.317, 96.24685
1108.800, 94.73738
1109.282, 94.71877
1109.764, 96.39249
1110.246, 97.13609
1110.728, 95.90820
1111.210, 94.94122
1111.692, 94.45074
1112.174, 94.37881
1112.656, 94.90781
1113.139, 95.69882
1113.621, 96.47353
1114.103, 97.18755
1114.585, 97.44514
1115.067, 96.91851
1115.549, 96.51564
1116.031, 95.95132
1116.513, 95.94767
1116.995, 97.51750
1117.478, 98.88753
1117.960, 98.15690
1118.442, 96.07594
1118.924, 95.05472
1119.406, 95.35925
1119.888, 95.68263
1120.370, 96.02644
1120.852, 96.40677
1121.335, 96.97211
1121.817, 97.29675
1122.299, 96.96483
1122.781, 96.37781
1123.263, 96.33456
1123.745, 96.85600
1124.227, 96.72832
1124.709, 95.59659
1125.192, 95.17211
1125.674, 95.98048
1126.156, 96.47226
1126.638, 95.75158
1127.120, 94.86728
1127.602, 95.13579
1128.084, 96.26476
1128.566, 96.80188
1129.048, 96.68364
1129.531, 96.48744
1130.013, 96.19534
1130.495, 96.21440
1130.977, 96.72623
1131.459, 97.25536
1131.941, 97.45487
1132.423, 97.28122
1132.905, 96.34953
1133.387, 96.50153
1133.870, 96.48948
1134.352, 96.08553
1134.834, 96.90541
1135.316, 96.80035
1135.798, 96.78654
1136.280, 97.43568
1136.762, 98.11865
1137.244, 97.94109
1137.727, 97.24247
1138.209, 97.03941
1138.691, 97.23818
1139.173, 97.48662
1139.655, 97.73320
1140.137, 97.94725
1140.619, 98.11851
1141.101, 98.28591
1141.583, 98.53288
1142.066, 98.62281
1142.548, 97.96413
1143.030, 97.00307
1143.512, 96.60988
1143.994, 96.72321
1144.476, 97.19245
1144.958, 97.86215
1145.440, 98.28135
1145.922, 98.21584
1146.405, 97.97119
1146.887, 97.79111
1147.369, 97.62438
1147.851, 97.22968
1148.333, 96.92712
1148.815, 97.24873
1149.297, 98.08157
1149.779, 99.24921
1150.262, 100.5895
1150.744, 101.1279
1151.226, 99.75841
1151.708, 98.33672
1152.190, 98.25774
1152.672, 98.43420
1153.154, 97.69971
1153.636, 96.75568
1154.119, 96.89156
1154.601, 97.94301
1155.083, 98.49451
1155.565, 98.05935
1156.047, 97.45703
1156.529, 96.32400
1157.011, 95.89005
1157.493, 97.57152
1157.975, 99.36018
1158.458, 99.21801
1158.940, 98.03085
1159.422, 97.95769
1159.904, 99.30075
1160.386, 99.85418
1160.868, 98.39726
1161.350, 97.74532
1161.832, 99.09030
1162.314, 100.1107
1162.797, 99.43945
1163.279, 98.40592
1163.761, 98.52847
1164.243, 99.50352
1164.725, 99.88081
1165.207, 99.46141
1165.689, 99.11045
1166.171, 98.72896
1166.654, 98.76592
1167.136, 99.47678
1167.618, 100.1989
1168.100, 100.5370
1168.582, 100.5141
1169.064, 100.0898
1169.546, 99.34157
1170.028, 99.02819
1170.510, 99.16012
1170.993, 99.26051
1171.475, 99.27792
1171.957, 99.26448
1172.439, 99.23525
1172.921, 99.36215
1173.403, 99.87010
1173.885, 100.3728
1174.367, 99.85851
1174.849, 98.74303
1175.332, 98.50614
1175.814, 98.98990
1176.296, 99.48724
1176.778, 99.83205
1177.260, 100.0290
1177.742, 100.0803
1178.224, 99.91084
1178.706, 99.32773
1179.189, 98.62114
1179.671, 98.08874
1180.153, 97.73094
1180.635, 97.70290
1181.117, 97.80193
1181.599, 97.48239
1182.081, 96.75524
1182.563, 96.36166
1183.046, 96.74295
1183.528, 97.20081
1184.010, 97.46297
1184.492, 97.50191
1184.974, 96.95428
1185.456, 96.45876
1185.938, 96.85795
1186.420, 97.80630
1186.902, 98.46951
1187.385, 98.72130
1187.867, 98.44814
1188.349, 96.69238
1188.831, 95.82059
1189.313, 97.16140
1189.795, 98.40773
1190.277, 98.20919
1190.759, 97.58927
1191.241, 97.63293
1191.724, 98.11389
1192.206, 98.14389
1192.688, 97.66154
1193.170, 96.90964
1193.652, 95.59315
1194.134, 95.01458
1194.616, 95.67812
1195.098, 96.26235
1195.581, 95.97456
1196.063, 95.37589
1196.545, 95.20387
1197.027, 95.41508
1197.509, 95.90456
1197.991, 96.64638
1198.473, 97.19358
1198.955, 97.51836
1199.438, 97.67060
1199.920, 97.65583
1200.402, 97.29333
1200.884, 96.43273
1201.366, 95.50914
1201.848, 95.08607
1202.330, 95.00481
1202.812, 94.93278
1203.294, 94.98656
1203.776, 95.57790
1204.259, 96.49818
1204.741, 97.01250
1205.223, 96.98016
1205.705, 97.11778
1206.187, 98.04637
1206.669, 98.68881
1207.151, 98.05814
1207.633, 97.11161
1208.116, 96.32680
1208.598, 95.86575
1209.080, 96.14938
1209.562, 96.80512
1210.044, 96.76433
1210.526, 95.75926
1211.008, 95.22023
1211.490, 95.74768
1211.973, 96.26186
1212.455, 96.80097
1212.937, 96.98122
1213.419, 96.38789
1213.901, 95.62383
1214.383, 95.23537
1214.865, 95.18414
1215.347, 95.38544
1215.829, 95.91511
1216.312, 96.15010
1216.794, 96.02231
1217.276, 95.90812
1217.758, 95.84462
1218.240, 96.05939
1218.722, 96.72330
1219.204, 97.27067
1219.686, 96.97998
1220.168, 97.45650
1220.651, 96.60697
1221.133, 97.54296
1221.615, 97.88551
1222.097, 97.62473
1222.579, 96.75357
1223.061, 95.46826
1223.543, 94.66878
1224.025, 94.77977
1224.508, 95.28883
1224.990, 95.98565
1225.472, 96.56662
1225.954, 96.67354
1226.436, 96.53683
1226.918, 96.18222
1227.400, 95.90662
1227.882, 96.31976
1228.365, 97.28744
1228.847, 97.87780
1229.329, 97.73768
1229.811, 97.61161
1230.293, 97.93380
1230.775, 97.98528
1231.257, 97.30727
1231.739, 96.53073
1232.221, 95.79286
1232.703, 95.38823
1233.186, 95.88781
1233.668, 97.09696
1234.150, 97.71528
1234.632, 97.65411
1235.114, 97.20641
1235.596, 96.11803
1236.078, 96.02952
1236.560, 97.48409
1237.043, 98.84348
1237.525, 99.18270
1238.007, 98.80447
1238.489, 97.94640
1238.971, 96.92379
1239.453, 96.72389
1239.935, 97.06850
1240.417, 96.95443
1240.900, 96.50931
1241.382, 96.46933
1241.864, 96.90767
1242.346, 97.32751
1242.828, 97.49367
1243.310, 97.45712
1243.792, 97.11258
1244.274, 96.75559
1244.756, 96.31303
1245.239, 96.26324
1245.721, 97.72615
1246.203, 99.50497
1246.685, 99.50640
1247.167, 97.93440
1247.649, 96.96577
1248.131, 97.07500
1248.613, 97.43505
1249.095, 98.31252
1249.578, 98.87012
1250.060, 98.74977
1250.542, 98.63506
1251.024, 98.93945
1251.506, 99.30479
1251.988, 99.29208
1252.470, 98.99209
1252.952, 98.71339
1253.435, 98.44993
1253.917, 98.46970
1254.399, 98.76622
1254.881, 99.05939
1255.363, 99.29135
1255.845, 99.43480
1256.327, 99.47935
1256.809, 99.51883
1257.292, 99.67611
1257.774, 99.79330
1258.256, 99.54516
1258.738, 99.20544
1259.220, 99.19943
1259.702, 99.36995
1260.184, 99.44742
1260.666, 99.40275
1261.148, 99.20985
1261.630, 98.85761
1262.113, 98.90562
1262.595, 100.0568
1263.077, 100.8870
1263.559, 100.5194
1264.041, 100.3259
1264.523, 101.4036
1265.005, 102.5345
1265.487, 102.5896
1265.970, 101.9497
1266.452, 101.3962
1266.934, 100.9190
1267.416, 101.2702
1267.898, 102.6675
1268.380, 103.1372
1268.862, 102.4460
1269.344, 101.6350
1269.827, 101.0362
1270.309, 100.6716
1270.791, 100.5563
1271.273, 100.6715
1271.755, 101.0438
1272.237, 101.5898
1272.719, 102.1889
1273.201, 102.8273
1273.683, 103.7652
1274.166, 104.6191
1274.648, 104.2198
1275.130, 102.6988
1275.612, 101.8922
1276.094, 102.6244
1276.576, 103.4790
1277.058, 103.9836
1277.540, 104.3810
1278.022, 105.0906
1278.505, 105.3591
1278.987, 104.1106
1279.469, 102.6017
1279.951, 102.2694
1280.433, 102.9145
1280.915, 103.8410
1281.397, 105.2115
1281.879, 105.5596
1282.362, 104.7658
1282.844, 104.3243
1283.326, 104.4796
1283.808, 104.6284
1284.290, 104.5097
1284.772, 104.3296
1285.254, 104.1983
1285.736, 104.1128
##END=



