##NAMES=Aravaipaite
##RRUFFID=R100032
##IDEAL CHEMISTRY=Pb^2+^_3_AlF_9_&#183;H_2_O
##LOCALITY=Grand Reef mine, Klondyke, Aravaipa District, Graham County, Arizona, USA
##OWNER=RRUFF
##SOURCE=William W. Pinch
##DESCRIPTION=Transparent sheets, associated with laurelite R100011 and scotlandite R100043
##STATUS=The identification of this mineral has been confirmed by single-crystal X-ray diffraction.
##URL=rruff.info/R100032
91.53320, 1371.590
92.01532, 1353.747
92.49744, 1343.621
92.97955, 1365.068
93.46167, 1395.664
93.94379, 1411.813
94.42590, 1420.768
94.90802, 1425.867
95.39014, 1427.168
95.87225, 1424.275
96.35437, 1420.103
96.83649, 1416.940
97.31860, 1414.346
97.80072, 1411.618
98.28284, 1406.678
98.76495, 1398.826
99.24707, 1391.584
99.72919, 1385.895
100.2113, 1380.405
100.6934, 1373.724
101.1755, 1366.603
101.6577, 1360.769
102.1398, 1357.779
102.6219, 1358.076
103.1040, 1358.525
103.5861, 1359.789
104.0682, 1360.427
104.5504, 1358.976
105.0325, 1355.443
105.5146, 1351.565
105.9967, 1349.734
106.4788, 1351.012
106.9609, 1351.264
107.4431, 1349.704
107.9252, 1347.066
108.4073, 1344.237
108.8894, 1341.380
109.3715, 1338.616
109.8536, 1335.944
110.3358, 1332.975
110.8179, 1331.113
111.3000, 1331.834
111.7821, 1334.840
112.2642, 1337.206
112.7463, 1337.499
113.2285, 1336.766
113.7106, 1335.943
114.1927, 1335.091
114.6748, 1334.404
115.1569, 1334.285
115.6390, 1335.071
116.1212, 1335.520
116.6033, 1335.165
117.0854, 1334.370
117.5675, 1333.296
118.0496, 1331.885
118.5317, 1330.431
119.0139, 1330.438
119.4960, 1334.375
119.9781, 1337.174
120.4602, 1337.324
120.9423, 1335.698
121.4244, 1333.891
121.9066, 1333.130
122.3887, 1333.507
122.8708, 1333.615
123.3529, 1333.124
123.8350, 1332.716
124.3171, 1332.875
124.7993, 1333.538
125.2814, 1334.073
125.7635, 1333.637
126.2456, 1331.844
126.7277, 1331.595
127.2098, 1334.863
127.6920, 1338.820
128.1741, 1340.131
128.6562, 1337.803
129.1383, 1334.412
129.6204, 1333.151
130.1025, 1333.736
130.5847, 1334.674
131.0668, 1335.655
131.5489, 1336.576
132.0310, 1337.003
132.5131, 1336.469
132.9952, 1335.827
133.4774, 1336.012
133.9595, 1337.031
134.4416, 1337.888
134.9237, 1337.439
135.4058, 1335.416
135.8879, 1334.012
136.3701, 1334.099
136.8522, 1334.683
137.3343, 1335.371
137.8164, 1336.051
138.2985, 1336.642
138.7806, 1337.006
139.2628, 1337.098
139.7449, 1337.024
140.2270, 1336.364
140.7091, 1335.765
141.1912, 1335.861
141.6733, 1336.934
142.1555, 1338.724
142.6376, 1340.345
143.1197, 1342.443
143.6018, 1343.579
144.0839, 1342.884
144.5660, 1341.178
145.0482, 1339.756
145.5303, 1339.385
146.0124, 1339.915
146.4945, 1340.232
146.9766, 1339.154
147.4587, 1339.014
147.9409, 1341.868
148.4230, 1346.994
148.9051, 1351.071
149.3872, 1351.575
149.8693, 1348.850
150.3514, 1346.626
150.8336, 1344.974
151.3157, 1343.839
151.7978, 1343.379
152.2799, 1343.700
152.7620, 1343.952
153.2441, 1342.854
153.7263, 1341.253
154.2084, 1340.714
154.6905, 1343.105
155.1726, 1346.726
155.6547, 1347.353
156.1368, 1343.023
156.6190, 1339.229
157.1011, 1339.325
157.5832, 1342.011
158.0653, 1344.820
158.5474, 1346.166
159.0295, 1346.161
159.5117, 1346.336
159.9938, 1346.879
160.4759, 1347.424
160.9580, 1347.852
161.4401, 1348.167
161.9222, 1348.390
162.4044, 1348.471
162.8865, 1348.307
163.3686, 1348.622
163.8507, 1349.947
164.3328, 1351.256
164.8149, 1352.261
165.2971, 1352.862
165.7792, 1352.954
166.2613, 1352.341
166.7434, 1350.582
167.2255, 1349.436
167.7076, 1349.107
168.1898, 1349.154
168.6719, 1349.583
169.1540, 1350.305
169.6361, 1350.685
170.1182, 1349.636
170.6003, 1346.018
171.0825, 1344.007
171.5646, 1344.630
172.0467, 1346.639
172.5288, 1348.947
173.0109, 1351.365
173.4930, 1353.357
173.9752, 1353.462
174.4573, 1351.280
174.9394, 1350.223
175.4215, 1352.768
175.9036, 1357.141
176.3857, 1359.022
176.8679, 1356.250
177.3500, 1351.985
177.8321, 1350.770
178.3142, 1352.845
178.7963, 1354.735
179.2784, 1353.786
179.7606, 1350.417
180.2427, 1348.150
180.7248, 1348.414
181.2069, 1349.790
181.6890, 1351.314
182.1711, 1352.955
182.6533, 1353.997
183.1354, 1353.403
183.6175, 1350.909
184.0996, 1348.903
184.5817, 1347.949
185.0638, 1347.679
185.5460, 1348.309
186.0281, 1349.834
186.5102, 1351.352
186.9923, 1351.336
187.4744, 1348.800
187.9565, 1347.378
188.4387, 1348.343
188.9208, 1349.920
189.4029, 1350.723
189.8850, 1350.363
190.3671, 1349.615
190.8492, 1350.038
191.3314, 1352.722
191.8135, 1354.834
192.2956, 1356.407
192.7777, 1357.310
193.2598, 1357.318
193.7419, 1356.357
194.2241, 1354.699
194.7062, 1352.994
195.1883, 1350.304
195.6704, 1348.744
196.1525, 1349.507
196.6346, 1351.058
197.1168, 1351.280
197.5989, 1349.184
198.0810, 1345.976
198.5631, 1345.266
199.0452, 1350.029
199.5273, 1353.203
200.0095, 1352.647
200.4916, 1349.919
200.9737, 1347.347
201.4558, 1345.795
201.9379, 1345.356
202.4200, 1346.541
202.9022, 1350.474
203.3843, 1353.744
203.8664, 1355.026
204.3485, 1354.709
204.8306, 1353.633
205.3127, 1351.695
205.7949, 1349.741
206.2770, 1349.587
206.7591, 1351.853
207.2412, 1354.368
207.7233, 1356.646
208.2054, 1358.456
208.6876, 1357.948
209.1697, 1352.381
209.6518, 1345.617
210.1339, 1343.525
210.6160, 1347.497
211.0981, 1352.772
211.5803, 1355.713
212.0624, 1356.313
212.5445, 1356.322
213.0266, 1356.298
213.5087, 1355.917
213.9908, 1354.579
214.4730, 1352.001
214.9551, 1349.598
215.4372, 1349.378
215.9193, 1351.822
216.4014, 1353.465
216.8836, 1352.471
217.3657, 1350.770
217.8478, 1349.359
218.3299, 1348.468
218.8120, 1348.299
219.2941, 1349.368
219.7763, 1352.151
220.2584, 1354.578
220.7405, 1356.297
221.2226, 1357.545
221.7047, 1358.321
222.1868, 1358.648
222.6690, 1358.821
223.1511, 1359.499
223.6332, 1361.497
224.1153, 1362.035
224.5974, 1358.917
225.0795, 1355.694
225.5617, 1355.255
226.0438, 1358.307
226.5259, 1363.061
227.0080, 1366.506
227.4901, 1368.278
227.9722, 1369.208
228.4544, 1369.133
228.9365, 1368.513
229.4186, 1367.501
229.9007, 1366.214
230.3828, 1364.955
230.8649, 1364.307
231.3471, 1365.048
231.8292, 1365.129
232.3113, 1363.330
232.7934, 1361.617
233.2755, 1362.121
233.7576, 1365.266
234.2398, 1369.171
234.7219, 1370.649
235.2040, 1367.707
235.6861, 1365.701
236.1682, 1364.987
236.6503, 1364.976
237.1325, 1365.280
237.6146, 1365.771
238.0967, 1366.340
238.5788, 1366.947
239.0609, 1368.189
239.5430, 1367.805
240.0252, 1363.886
240.5073, 1359.202
240.9894, 1356.926
241.4715, 1357.793
241.9536, 1359.469
242.4357, 1358.601
242.9179, 1354.342
243.4000, 1351.373
243.8821, 1350.621
244.3642, 1351.155
244.8463, 1352.217
245.3284, 1353.697
245.8106, 1355.189
246.2927, 1356.476
246.7748, 1357.628
247.2569, 1357.345
247.7390, 1353.900
248.2211, 1349.570
248.7033, 1347.312
249.1854, 1347.731
249.6675, 1348.869
250.1496, 1348.745
250.6317, 1347.556
251.1138, 1346.594
251.5960, 1346.090
252.0781, 1345.964
252.5602, 1346.575
253.0423, 1348.248
253.5244, 1348.991
254.0065, 1345.759
254.4887, 1340.011
254.9708, 1335.818
255.4529, 1335.283
255.9350, 1336.441
256.4171, 1336.440
256.8992, 1334.921
257.3813, 1333.529
257.8635, 1333.455
258.3456, 1334.310
258.8277, 1335.672
259.3098, 1338.175
259.7919, 1340.662
260.2740, 1341.079
260.7562, 1338.888
261.2383, 1336.907
261.7204, 1337.387
262.2025, 1338.874
262.6846, 1339.621
263.1667, 1339.007
263.6489, 1337.584
264.1310, 1335.878
264.6131, 1333.692
265.0952, 1332.086
265.5773, 1332.353
266.0594, 1333.138
266.5416, 1333.164
267.0237, 1332.032
267.5058, 1330.223
267.9879, 1328.147
268.4700, 1325.648
268.9521, 1323.690
269.4343, 1323.013
269.9164, 1322.825
270.3985, 1322.564
270.8806, 1322.083
271.3627, 1321.644
271.8448, 1321.748
272.3270, 1322.604
272.8091, 1322.884
273.2912, 1321.589
273.7733, 1320.015
274.2554, 1318.979
274.7375, 1318.601
275.2197, 1318.377
275.7018, 1317.576
276.1839, 1316.010
276.6660, 1315.072
277.1481, 1317.055
277.6302, 1318.136
278.1124, 1315.038
278.5945, 1308.193
279.0766, 1301.957
279.5587, 1301.433
280.0408, 1307.454
280.5229, 1311.675
281.0051, 1312.545
281.4872, 1312.464
281.9693, 1312.303
282.4514, 1312.056
282.9335, 1311.323
283.4156, 1309.532
283.8978, 1306.645
284.3799, 1304.460
284.8620, 1303.509
285.3441, 1302.783
285.8262, 1302.095
286.3083, 1301.356
286.7905, 1300.342
287.2726, 1298.626
287.7547, 1296.426
288.2368, 1296.081
288.7189, 1300.137
289.2010, 1303.028
289.6832, 1302.577
290.1653, 1300.167
290.6474, 1297.942
291.1295, 1297.177
291.6116, 1297.451
292.0938, 1297.011
292.5759, 1294.987
293.0580, 1293.516
293.5401, 1293.631
294.0222, 1294.243
294.5043, 1293.965
294.9865, 1292.146
295.4686, 1289.603
295.9507, 1288.408
296.4328, 1289.571
296.9149, 1290.326
297.3970, 1289.782
297.8792, 1289.047
298.3613, 1289.486
298.8434, 1291.403
299.3255, 1293.377
299.8076, 1292.673
300.2897, 1287.147
300.7719, 1283.829
301.2540, 1283.983
301.7361, 1285.370
302.2182, 1287.105
302.7003, 1288.774
303.1824, 1289.845
303.6646, 1289.479
304.1467, 1287.086
304.6288, 1285.385
305.1109, 1284.162
305.5930, 1283.744
306.0751, 1284.973
306.5573, 1287.363
307.0394, 1289.343
307.5215, 1289.279
308.0036, 1286.950
308.4857, 1285.821
308.9678, 1287.676
309.4500, 1289.011
309.9321, 1288.637
310.4142, 1286.958
310.8963, 1284.885
311.3784, 1282.943
311.8605, 1281.181
312.3427, 1280.035
312.8248, 1280.011
313.3069, 1280.063
313.7890, 1279.967
314.2711, 1279.845
314.7532, 1279.973
315.2354, 1280.512
315.7175, 1281.169
316.1996, 1281.054
316.6817, 1279.600
317.1638, 1278.240
317.6459, 1276.904
318.1281, 1275.844
318.6102, 1275.502
319.0923, 1275.957
319.5744, 1276.577
320.0565, 1276.198
320.5386, 1274.078
321.0208, 1272.670
321.5029, 1272.751
321.9850, 1272.940
322.4671, 1272.016
322.9492, 1270.052
323.4313, 1268.367
323.9135, 1268.637
324.3956, 1271.445
324.8777, 1273.208
325.3598, 1273.933
325.8419, 1273.597
326.3240, 1270.992
326.8062, 1267.132
327.2883, 1264.569
327.7704, 1265.651
328.2525, 1270.084
328.7346, 1272.566
329.2167, 1271.681
329.6989, 1270.288
330.1810, 1268.485
330.6631, 1266.770
331.1452, 1265.994
331.6273, 1266.755
332.1094, 1268.296
332.5916, 1268.035
333.0737, 1264.063
333.5558, 1261.608
334.0379, 1262.366
334.5200, 1264.383
335.0021, 1266.176
335.4843, 1267.218
335.9664, 1267.270
336.4485, 1265.426
336.9306, 1260.312
337.4127, 1257.429
337.8948, 1259.793
338.3770, 1262.526
338.8591, 1262.262
339.3412, 1259.016
339.8233, 1255.629
340.3055, 1255.378
340.7876, 1258.714
341.2697, 1260.633
341.7518, 1260.166
342.2339, 1259.093
342.7160, 1257.661
343.1982, 1256.161
343.6803, 1255.090
344.1624, 1254.775
344.6445, 1255.164
345.1266, 1256.202
345.6087, 1259.094
346.0909, 1260.581
346.5730, 1258.597
347.0551, 1255.183
347.5372, 1252.952
348.0193, 1253.043
348.5014, 1254.440
348.9836, 1255.483
349.4657, 1256.286
349.9478, 1256.319
350.4299, 1254.141
350.9120, 1251.936
351.3941, 1251.598
351.8763, 1253.440
352.3584, 1255.744
352.8405, 1256.784
353.3226, 1256.534
353.8047, 1256.035
354.2868, 1255.192
354.7690, 1254.352
355.2511, 1253.460
355.7332, 1252.667
356.2153, 1252.547
356.6974, 1254.523
357.1795, 1257.647
357.6617, 1257.514
358.1438, 1251.856
358.6259, 1247.620
359.1080, 1250.527
359.5901, 1257.023
360.0722, 1261.419
360.5544, 1261.006
361.0365, 1258.409
361.5186, 1257.277
362.0007, 1257.791
362.4828, 1258.386
362.9649, 1258.539
363.4471, 1258.372
363.9292, 1257.983
364.4113, 1257.334
364.8934, 1256.657
365.3755, 1256.313
365.8576, 1256.169
366.3398, 1255.348
366.8219, 1253.109
367.3040, 1250.953
367.7861, 1250.606
368.2682, 1251.895
368.7503, 1253.294
369.2325, 1254.276
369.7146, 1254.965
370.1967, 1255.822
370.6788, 1257.057
371.1609, 1257.398
371.6430, 1255.301
372.1252, 1251.441
372.6073, 1248.145
373.0894, 1245.500
373.5715, 1243.697
374.0536, 1243.300
374.5357, 1244.092
375.0179, 1244.830
375.5000, 1245.102
375.9821, 1244.751
376.4642, 1243.324
376.9463, 1240.217
377.4284, 1237.582
377.9106, 1236.752
378.3927, 1236.804
378.8748, 1235.800
379.3569, 1233.073
379.8390, 1230.487
380.3211, 1230.898
380.8033, 1235.143
381.2854, 1237.385
381.7675, 1236.128
382.2496, 1233.499
382.7317, 1230.189
383.2138, 1226.696
383.6960, 1225.066
384.1781, 1227.306
384.6602, 1233.002
385.1423, 1236.095
385.6244, 1235.397
386.1065, 1233.959
386.5887, 1232.039
387.0708, 1230.174
387.5529, 1229.324
388.0350, 1229.942
388.5171, 1231.386
388.9992, 1232.272
389.4814, 1232.609
389.9635, 1232.256
390.4456, 1230.813
390.9277, 1228.968
391.4098, 1227.273
391.8919, 1225.809
392.3741, 1224.203
392.8562, 1221.846
393.3383, 1218.336
393.8204, 1217.245
394.3025, 1220.990
394.7846, 1224.479
395.2668, 1226.584
395.7489, 1227.106
396.2310, 1225.596
396.7131, 1221.552
397.1952, 1216.157
397.6773, 1213.633
398.1595, 1215.897
398.6416, 1217.980
399.1237, 1219.610
399.6058, 1220.586
400.0879, 1220.568
400.5700, 1219.548
401.0522, 1218.103
401.5343, 1216.843
402.0164, 1215.768
402.4985, 1214.907
402.9806, 1213.861
403.4627, 1213.463
403.9449, 1214.476
404.4270, 1216.457
404.9091, 1218.286
405.3912, 1219.264
405.8733, 1219.591
406.3554, 1219.831
406.8376, 1219.866
407.3197, 1220.104
407.8018, 1221.412
408.2839, 1222.679
408.7660, 1222.564
409.2481, 1220.585
409.7303, 1218.111
410.2124, 1216.473
410.6945, 1215.631
411.1766, 1214.872
411.6587, 1214.274
412.1408, 1213.409
412.6230, 1211.295
413.1051, 1208.230
413.5872, 1206.580
414.0693, 1208.674
414.5514, 1212.301
415.0335, 1213.918
415.5157, 1213.233
415.9978, 1211.536
416.4799, 1208.899
416.9620, 1206.002
417.4441, 1204.847
417.9262, 1206.910
418.4084, 1208.851
418.8905, 1208.156
419.3726, 1205.849
419.8547, 1204.987
420.3368, 1207.005
420.8189, 1209.513
421.3011, 1207.979
421.7832, 1200.765
422.2653, 1196.741
422.7474, 1199.932
423.2295, 1204.629
423.7116, 1205.312
424.1938, 1202.036
424.6759, 1199.174
425.1580, 1200.393
425.6401, 1205.363
426.1222, 1207.983
426.6043, 1207.161
427.0865, 1205.646
427.5686, 1203.289
428.0507, 1200.888
428.5328, 1199.630
429.0149, 1199.943
429.4970, 1201.022
429.9792, 1201.350
430.4613, 1199.893
430.9434, 1200.012
431.4255, 1203.690
431.9076, 1206.939
432.3897, 1207.171
432.8719, 1204.823
433.3540, 1201.979
433.8361, 1200.127
434.3182, 1199.245
434.8003, 1199.328
435.2824, 1201.847
435.7646, 1203.014
436.2467, 1201.319
436.7288, 1198.264
437.2109, 1195.059
437.6930, 1192.064
438.1751, 1190.001
438.6573, 1190.532
439.1394, 1193.976
439.6215, 1195.351
440.1036, 1192.290
440.5857, 1188.859
441.0678, 1187.608
441.5500, 1188.236
442.0321, 1189.417
442.5142, 1190.930
442.9963, 1192.396
443.4784, 1193.038
443.9605, 1192.769
444.4427, 1192.350
444.9248, 1192.210
445.4069, 1192.115
445.8890, 1191.619
446.3711, 1190.529
446.8532, 1189.538
447.3354, 1189.315
447.8175, 1189.440
448.2996, 1188.661
448.7817, 1186.505
449.2638, 1184.734
449.7459, 1185.706
450.2281, 1189.635
450.7102, 1191.883
451.1923, 1191.242
451.6744, 1189.797
452.1565, 1188.570
452.6386, 1187.608
453.1208, 1186.778
453.6029, 1185.989
454.0850, 1185.355
454.5671, 1185.221
455.0492, 1187.085
455.5313, 1187.333
456.0135, 1184.869
456.4956, 1181.495
456.9777, 1178.019
457.4598, 1174.935
457.9419, 1173.190
458.4240, 1173.914
458.9062, 1177.157
459.3883, 1179.581
459.8704, 1180.595
460.3525, 1181.411
460.8346, 1182.768
461.3167, 1183.901
461.7989, 1183.472
462.2810, 1180.937
462.7631, 1177.939
463.2452, 1177.327
463.7273, 1179.644
464.2094, 1181.081
464.6916, 1180.611
465.1737, 1179.603
465.6558, 1178.568
466.1379, 1177.631
466.6200, 1177.073
467.1021, 1177.347
467.5843, 1177.963
468.0664, 1178.029
468.5485, 1177.555
469.0306, 1176.343
469.5127, 1173.206
469.9948, 1169.975
470.4770, 1169.977
470.9591, 1174.499
471.4412, 1177.817
471.9233, 1175.472
472.4054, 1170.386
472.8875, 1168.062
473.3697, 1169.563
473.8518, 1172.517
474.3339, 1175.276
474.8160, 1177.728
475.2981, 1178.550
475.7802, 1176.897
476.2624, 1174.549
476.7445, 1171.612
477.2266, 1168.633
477.7087, 1166.641
478.1908, 1166.027
478.6729, 1166.306
479.1551, 1166.663
479.6372, 1167.342
480.1193, 1167.464
480.6014, 1166.801
481.0835, 1165.859
481.5656, 1164.806
482.0478, 1163.716
482.5299, 1162.503
483.0120, 1160.953
483.4941, 1159.550
483.9762, 1160.625
484.4583, 1166.705
484.9405, 1170.032
485.4226, 1166.987
485.9047, 1162.295
486.3868, 1159.303
486.8689, 1158.534
487.3510, 1158.931
487.8332, 1159.929
488.3153, 1161.417
488.7974, 1163.021
489.2795, 1165.017
489.7616, 1166.400
490.2437, 1166.636
490.7259, 1165.825
491.2080, 1163.661
491.6901, 1159.058
492.1722, 1155.159
492.6543, 1154.821
493.1364, 1157.033
493.6186, 1159.107
494.1007, 1160.527
494.5828, 1160.929
495.0649, 1159.384
495.5470, 1155.600
496.0291, 1153.717
496.5113, 1155.838
496.9934, 1158.056
497.4755, 1157.910
497.9576, 1156.025
498.4397, 1154.223
498.9218, 1153.405
499.4040, 1152.986
499.8861, 1151.624
500.3682, 1148.492
500.8503, 1145.940
501.3324, 1143.744
501.8145, 1142.224
502.2967, 1141.972
502.7788, 1142.620
503.2609, 1143.010
503.7430, 1142.184
504.2251, 1140.662
504.7072, 1140.555
505.1894, 1142.401
505.6715, 1144.446
506.1536, 1147.602
506.6357, 1149.893
507.1178, 1149.014
507.5999, 1144.883
508.0821, 1140.818
508.5642, 1139.234
509.0463, 1139.609
509.5284, 1140.754
510.0105, 1142.931
510.4926, 1144.403
510.9748, 1143.614
511.4569, 1141.458
511.9390, 1140.102
512.4211, 1139.945
512.9032, 1140.072
513.3853, 1140.428
513.8674, 1140.660
514.3495, 1139.834
514.8317, 1137.739
515.3138, 1135.855
515.7959, 1135.910
516.2780, 1138.126
516.7601, 1138.707
517.2422, 1135.941
517.7244, 1133.729
518.2065, 1133.939
518.6886, 1135.341
519.1707, 1136.187
519.6528, 1135.844
520.1349, 1134.743
520.6171, 1133.460
521.0992, 1131.932
521.5813, 1130.512
522.0634, 1129.146
522.5455, 1127.970
523.0276, 1126.994
523.5098, 1126.257
523.9919, 1125.968
524.4740, 1126.428
524.9561, 1126.767
525.4382, 1124.987
525.9203, 1121.023
526.4025, 1119.420
526.8846, 1122.754
527.3667, 1126.746
527.8488, 1126.649
528.3309, 1123.165
528.8130, 1120.849
529.2952, 1122.255
529.7773, 1124.451
530.2594, 1124.600
530.7415, 1123.051
531.2236, 1121.620
531.7057, 1121.072
532.1879, 1121.182
532.6700, 1121.589
533.1521, 1122.633
533.6342, 1123.172
534.1163, 1122.471
534.5984, 1121.871
535.0806, 1122.404
535.5627, 1123.828
536.0448, 1125.324
536.5269, 1126.413
537.0090, 1127.091
537.4911, 1127.393
537.9733, 1127.604
538.4554, 1126.760
538.9375, 1123.280
539.4196, 1119.968
539.9017, 1118.995
540.3839, 1119.972
540.8660, 1120.610
541.3481, 1119.109
541.8302, 1116.468
542.3123, 1114.963
542.7944, 1114.711
543.2766, 1114.649
543.7587, 1114.574
544.2408, 1114.315
544.7229, 1113.628
545.2050, 1112.485
545.6871, 1111.259
546.1693, 1109.788
546.6514, 1108.483
547.1335, 1107.965
547.6156, 1108.144
548.0977, 1108.130
548.5798, 1107.242
549.0620, 1105.982
549.5441, 1106.043
550.0262, 1108.374
550.5083, 1110.832
550.9904, 1115.162
551.4725, 1118.273
551.9547, 1116.628
552.4368, 1111.214
552.9189, 1106.496
553.4010, 1106.068
553.8831, 1108.635
554.3652, 1108.656
554.8474, 1104.509
555.3295, 1101.932
555.8116, 1104.645
556.2937, 1107.911
556.7758, 1108.072
557.2579, 1105.060
557.7401, 1101.794
558.2222, 1099.628
558.7043, 1098.444
559.1864, 1098.349
559.6685, 1099.347
560.1506, 1100.008
560.6328, 1099.425
561.1149, 1098.277
561.5970, 1098.154
562.0791, 1099.381
562.5612, 1100.334
563.0433, 1101.175
563.5255, 1101.275
564.0076, 1099.657
564.4897, 1096.675
564.9718, 1093.700
565.4539, 1091.565
565.9360, 1090.218
566.4182, 1089.569
566.9003, 1090.167
567.3824, 1090.443
567.8645, 1090.464
568.3466, 1090.045
568.8287, 1088.631
569.3109, 1086.591
569.7930, 1085.164
570.2751, 1085.299
570.7572, 1086.328
571.2393, 1086.924
571.7214, 1087.078
572.2036, 1086.939
572.6857, 1086.710
573.1678, 1086.006
573.6499, 1083.848
574.1320, 1080.284
574.6141, 1078.127
575.0963, 1079.262
575.5784, 1081.229
576.0605, 1081.894
576.5426, 1081.517
577.0247, 1081.413
577.5068, 1082.236
577.9890, 1083.254
578.4711, 1083.042
578.9532, 1080.972
579.4353, 1079.257
579.9174, 1077.861
580.3995, 1076.812
580.8817, 1076.052
581.3638, 1075.666
581.8459, 1076.005
582.3280, 1077.326
582.8101, 1078.722
583.2922, 1078.684
583.7744, 1077.141
584.2565, 1075.063
584.7386, 1071.785
585.2207, 1069.094
585.7029, 1068.423
586.1850, 1069.254
586.6671, 1070.399
587.1492, 1072.045
587.6313, 1073.286
588.1135, 1073.346
588.5956, 1072.512
589.0777, 1071.151
589.5598, 1069.323
590.0419, 1068.136
590.5240, 1069.169
591.0062, 1072.627
591.4883, 1073.386
591.9704, 1068.773
592.4525, 1065.044
592.9346, 1064.077
593.4167, 1064.645
593.8989, 1065.693
594.3810, 1066.778
594.8631, 1067.322
595.3452, 1066.485
595.8273, 1064.427
596.3094, 1062.945
596.7916, 1062.187
597.2737, 1061.665
597.7558, 1061.429
598.2379, 1061.193
598.7200, 1060.519
599.2021, 1059.282
599.6843, 1058.345
600.1664, 1058.526
600.6485, 1059.067
601.1306, 1058.476
601.6127, 1056.860
602.0948, 1056.311
602.5770, 1058.330
603.0591, 1061.706
603.5412, 1063.088
604.0233, 1060.836
604.5054, 1059.169
604.9875, 1058.290
605.4697, 1057.797
605.9518, 1057.557
606.4339, 1057.487
606.9160, 1057.484
607.3981, 1057.495
607.8802, 1057.536
608.3624, 1057.665
608.8445, 1057.913
609.3266, 1058.019
609.8087, 1057.757
610.2908, 1057.598
610.7729, 1058.216
611.2551, 1059.240
611.7372, 1059.511
612.2193, 1058.297
612.7014, 1056.794
613.1835, 1055.727
613.6656, 1055.019
614.1478, 1054.460
614.6299, 1054.000
615.1120, 1053.883
615.5941, 1054.475
616.0762, 1055.778
616.5583, 1056.307
617.0405, 1055.697
617.5226, 1054.754
618.0047, 1053.687
618.4868, 1052.290
618.9689, 1050.031
619.4510, 1047.042
619.9332, 1044.413
620.4153, 1043.099
620.8974, 1042.875
621.3795, 1043.273
621.8616, 1044.608
622.3438, 1044.813
622.8259, 1042.149
623.3080, 1038.857
623.7901, 1038.144
624.2722, 1040.143
624.7543, 1041.855
625.2365, 1043.078
625.7186, 1043.213
626.2007, 1040.598
626.6828, 1036.441
627.1649, 1034.275
627.6470, 1035.606
628.1292, 1038.411
628.6113, 1039.317
629.0934, 1037.579
629.5755, 1037.015
630.0576, 1039.799
630.5397, 1041.406
631.0219, 1039.420
631.5040, 1035.862
631.9861, 1033.579
632.4682, 1033.415
632.9503, 1033.887
633.4324, 1033.716
633.9146, 1033.097
634.3967, 1032.713
634.8788, 1032.670
635.3609, 1032.373
635.8430, 1031.240
636.3251, 1029.749
636.8073, 1029.389
637.2894, 1030.741
637.7715, 1031.664
638.2536, 1031.716
638.7357, 1031.323
639.2178, 1030.592
639.7000, 1029.698
640.1821, 1028.993
640.6642, 1028.668
641.1463, 1028.568
641.6284, 1028.501
642.1105, 1028.598
642.5927, 1027.924
643.0748, 1025.577
643.5569, 1023.499
644.0390, 1023.189
644.5211, 1023.820
645.0032, 1023.619
645.4854, 1021.792
645.9675, 1020.010
646.4496, 1019.605
646.9317, 1019.953
647.4138, 1020.044
647.8959, 1019.700
648.3781, 1018.656
648.8602, 1016.431
649.3423, 1013.616
649.8244, 1013.169
650.3065, 1019.021
650.7886, 1021.277
651.2708, 1016.116
651.7529, 1010.429
652.2350, 1008.890
652.7171, 1010.858
653.1992, 1013.416
653.6813, 1015.408
654.1635, 1016.284
654.6456, 1014.223
655.1277, 1009.598
655.6098, 1007.474
656.0919, 1009.435
656.5740, 1012.266
657.0562, 1013.493
657.5383, 1013.167
658.0204, 1012.316
658.5025, 1010.199
658.9846, 1008.483
659.4667, 1007.801
659.9489, 1007.674
660.4310, 1007.780
660.9131, 1007.964
661.3952, 1007.998
661.8773, 1007.734
662.3594, 1007.150
662.8416, 1006.084
663.3237, 1004.342
663.8058, 1002.829
664.2879, 1001.687
664.7700, 1000.854
665.2521, 1000.079
665.7343, 999.5259
666.2164, 999.7659
666.6985, 1001.324
667.1806, 1003.239
667.6627, 1005.460
668.1448, 1007.400
668.6270, 1007.788
669.1091, 1006.426
669.5912, 1004.146
670.0733, 1001.475
670.5554, 998.6206
671.0375, 997.0856
671.5197, 997.8211
672.0018, 998.3469
672.4839, 998.2072
672.9660, 997.9523
673.4481, 998.2585
673.9302, 998.8219
674.4124, 998.4783
674.8945, 996.1025
675.3766, 993.4357
675.8587, 993.0530
676.3408, 994.4072
676.8229, 994.7421
677.3051, 993.2828
677.7872, 992.0462
678.2693, 993.3033
678.7514, 996.6318
679.2335, 997.0471
679.7156, 990.9534
680.1978, 987.0959
680.6799, 987.9713
681.1620, 990.6061
681.6441, 993.4329
682.1262, 995.7145
682.6083, 996.1552
683.0905, 993.4993
683.5726, 989.6126
684.0547, 988.1617
684.5368, 989.1440
685.0189, 990.1534
685.5010, 990.8869
685.9832, 991.2038
686.4653, 990.8747
686.9474, 989.9833
687.4295, 989.0613
687.9116, 988.2899
688.3937, 987.2599
688.8759, 985.1310
689.3580, 983.1698
689.8401, 983.1182
690.3222, 984.6656
690.8043, 985.9660
691.2864, 985.8680
691.7686, 984.5809
692.2507, 982.0892
692.7328, 977.8987
693.2149, 975.8158
693.6970, 977.4031
694.1791, 979.6818
694.6613, 980.7271
695.1434, 980.9119
695.6255, 981.0697
696.1076, 981.5373
696.5897, 981.5323
697.0718, 979.9659
697.5540, 978.1506
698.0361, 978.0994
698.5182, 979.5653
699.0003, 980.4296
699.4824, 979.3419
699.9645, 977.1149
700.4467, 975.7061
700.9288, 975.2706
701.4109, 975.1174
701.8930, 975.4503
702.3751, 975.7765
702.8572, 975.6993
703.3394, 975.5051
703.8215, 975.9033
704.3036, 977.3978
704.7857, 978.0065
705.2678, 975.3608
705.7499, 971.8179
706.2321, 971.0732
706.7142, 972.8394
707.1963, 974.0710
707.6784, 973.1666
708.1605, 970.9182
708.6426, 968.6959
709.1248, 966.0620
709.6069, 965.0475
710.0890, 966.9891
710.5711, 969.0157
711.0532, 970.3763
711.5353, 971.1479
712.0175, 971.4207
712.4996, 971.2059
712.9817, 970.6605
713.4638, 969.2031
713.9459, 967.8594
714.4280, 968.8358
714.9102, 971.5381
715.3923, 972.5522
715.8744, 970.3188
716.3565, 966.7853
716.8386, 964.7614
717.3207, 964.4284
717.8029, 964.3477
718.2850, 965.0483
718.7671, 965.3314
719.2492, 964.5181
719.7313, 963.4296
720.2134, 963.1061
720.6956, 963.5480
721.1777, 963.4736
721.6598, 961.7117
722.1419, 959.3066
722.6240, 957.1354
723.1061, 955.4284
723.5883, 955.6237
724.0704, 958.2889
724.5525, 960.6155
725.0346, 959.3281
725.5167, 954.5720
725.9988, 951.8833
726.4810, 952.9215
726.9631, 953.6779
727.4452, 953.4935
727.9273, 953.0073
728.4094, 952.4510
728.8915, 952.0107
729.3737, 952.1906
729.8558, 953.5807
730.3379, 955.0723
730.8200, 955.2449
731.3021, 954.5963
731.7842, 954.8133
732.2664, 956.1615
732.7485, 956.7472
733.2306, 954.9244
733.7127, 951.4660
734.1948, 949.3889
734.6769, 948.8414
735.1591, 949.4745
735.6412, 953.2897
736.1233, 956.1753
736.6054, 955.2744
737.0875, 952.1241
737.5696, 949.6783
738.0518, 948.8849
738.5339, 948.7205
739.0160, 948.6144
739.4981, 948.4754
739.9802, 947.9795
740.4623, 947.1865
740.9445, 946.9162
741.4266, 947.7108
741.9087, 948.5964
742.3908, 947.6289
742.8729, 944.0171
743.3550, 941.9497
743.8372, 942.5039
744.3193, 943.3625
744.8014, 944.7319
745.2835, 945.6140
745.7656, 944.4269
746.2477, 941.1305
746.7299, 938.4377
747.2120, 938.5314
747.6941, 939.4762
748.1762, 938.6379
748.6583, 936.7512
749.1404, 936.6686
749.6226, 939.1615
750.1047, 941.3403
750.5868, 939.9738
751.0689, 935.5270
751.5510, 933.0164
752.0331, 932.9048
752.5153, 933.8771
752.9974, 937.2885
753.4795, 940.3539
753.9616, 940.4744
754.4437, 938.7153
754.9258, 938.7995
755.4080, 943.2365
755.8901, 947.0619
756.3722, 946.1859
756.8543, 942.9035
757.3364, 940.4893
757.8185, 939.2565
758.3007, 938.2196
758.7828, 936.8448
759.2649, 934.9808
759.7470, 931.8148
760.2291, 926.4510
760.7112, 924.2325
761.1934, 927.2713
761.6755, 930.3647
762.1576, 930.8040
762.6397, 930.0462
763.1218, 929.9961
763.6039, 930.9534
764.0861, 931.2792
764.5682, 929.6611
765.0503, 927.8952
765.5324, 927.5977
766.0145, 928.1663
766.4966, 928.2401
766.9788, 927.4694
767.4609, 926.6037
767.9430, 926.4078
768.4251, 926.7629
768.9072, 927.2813
769.3893, 928.1974
769.8715, 927.9268
770.3536, 925.4645
770.8357, 922.5588
771.3178, 920.5007
771.7999, 919.3359
772.2820, 919.3643
772.7642, 922.5114
773.2463, 924.2631
773.7284, 921.6413
774.2105, 918.4805
774.6926, 918.6523
775.1747, 921.4208
775.6569, 923.6512
776.1390, 923.7690
776.6211, 922.8856
777.1032, 922.4686
777.5853, 922.4081
778.0674, 921.9149
778.5496, 920.8410
779.0317, 920.2690
779.5138, 920.9665
779.9959, 922.1110
780.4780, 922.2344
780.9601, 921.0620
781.4423, 919.9391
781.9244, 919.0602
782.4065, 917.9989
782.8886, 915.8837
783.3707, 913.9691
783.8528, 914.1901
784.3350, 916.3434
784.8171, 917.5780
785.2992, 915.2526
785.7813, 912.1290
786.2634, 912.3848
786.7455, 914.8895
787.2277, 915.7068
787.7098, 914.0741
788.1919, 912.3243
788.6740, 912.3643
789.1561, 913.5892
789.6382, 913.6647
790.1204, 911.6271
790.6025, 910.7866
791.0846, 912.9052
791.5667, 914.4761
792.0488, 913.2437
792.5309, 910.7676
793.0131, 909.5680
793.4952, 910.1998
793.9773, 911.0557
794.4594, 911.8439
794.9415, 912.1458
795.4236, 911.2948
795.9058, 909.6805
796.3879, 908.1027
796.8700, 906.8473
797.3521, 905.9706
797.8342, 905.5601
798.3163, 905.5589
798.7985, 905.6848
799.2806, 905.9388
799.7627, 906.3322
800.2448, 907.0728
800.7269, 907.6027
801.2090, 907.3963
801.6912, 906.5330
802.1733, 905.5768
802.6554, 904.6031
803.1375, 903.4058
803.6196, 900.6387
804.1017, 898.8156
804.5839, 901.4717
805.0660, 906.1713
805.5481, 907.1824
806.0302, 902.3685
806.5123, 896.8895
806.9944, 896.1013
807.4766, 898.4655
807.9587, 900.9523
808.4408, 903.3096
808.9229, 903.7618
809.4050, 901.4703
809.8871, 898.2842
810.3693, 896.3654
810.8514, 895.7079
811.3335, 895.0781
811.8156, 894.4266
812.2977, 893.8877
812.7798, 892.9398
813.2620, 892.5812
813.7441, 894.1779
814.2262, 896.8834
814.7083, 898.2350
815.1904, 897.1064
815.6725, 895.7133
816.1547, 895.2264
816.6368, 895.1658
817.1189, 895.1504
817.6010, 895.0447
818.0831, 894.4170
818.5652, 893.1102
819.0474, 892.1613
819.5295, 893.5360
820.0116, 896.7609
820.4937, 896.9562
820.9758, 893.4250
821.4579, 891.1134
821.9401, 891.9645
822.4222, 893.9683
822.9043, 895.3923
823.3864, 896.1840
823.8685, 895.5898
824.3506, 891.7460
824.8328, 889.2074
825.3149, 889.7959
825.7970, 890.9090
826.2791, 890.5760
826.7612, 889.2367
827.2433, 888.2923
827.7255, 888.2642
828.2076, 888.5742
828.6897, 888.7217
829.1718, 888.8968
829.6539, 889.5189
830.1360, 890.4957
830.6182, 891.5428
831.1003, 892.5578
831.5824, 892.8205
832.0645, 891.4149
832.5466, 888.4283
833.0287, 884.5910
833.5109, 878.5980
833.9930, 875.9243
834.4751, 880.0428
834.9572, 884.9708
835.4393, 885.3555
835.9214, 882.6650
836.4036, 881.1514
836.8857, 881.7453
837.3678, 882.2624
837.8499, 881.8707
838.3320, 881.5049
838.8141, 882.2178
839.2963, 883.3512
839.7784, 883.6473
840.2605, 882.7234
840.7426, 881.1884
841.2247, 879.1215
841.7068, 877.0316
842.1890, 875.7391
842.6711, 875.2938
843.1532, 876.3948
843.6353, 879.2850
844.1174, 881.8591
844.5995, 882.1688
845.0817, 880.6981
845.5638, 879.6328
846.0459, 879.2194
846.5280, 878.4767
847.0101, 876.8104
847.4922, 875.4855
847.9744, 875.1258
848.4565, 875.5063
848.9386, 876.4752
849.4207, 878.1509
849.9028, 879.4464
850.3849, 880.5681
850.8671, 880.6971
851.3492, 878.3939
851.8313, 875.3098
852.3134, 873.8456
852.7955, 874.1654
853.2776, 874.4962
853.7598, 873.6836
854.2419, 872.1860
854.7240, 870.2828
855.2061, 868.2512
855.6882, 867.5103
856.1703, 868.1996
856.6525, 868.6567
857.1346, 867.8470
857.6167, 866.6483
858.0988, 866.8112
858.5809, 868.5945
859.0630, 870.0705
859.5452, 871.7295
860.0273, 872.2017
860.5094, 870.3361
860.9915, 867.6842
861.4736, 865.3749
861.9557, 863.4628
862.4379, 862.0483
862.9200, 861.2631
863.4021, 860.8506
863.8842, 860.7935
864.3663, 861.0275
864.8484, 861.9005
865.3306, 862.9528
865.8127, 863.0869
866.2948, 861.8901
866.7769, 860.3837
867.2590, 859.4953
867.7411, 859.0450
868.2233, 858.6188
868.7054, 858.2645
869.1875, 858.5332
869.6696, 859.5926
870.1517, 860.3126
870.6339, 859.6058
871.1160, 857.6996
871.5981, 855.4964
872.0802, 852.7218
872.5623, 850.4908
873.0444, 848.1128
873.5266, 847.6964
874.0087, 852.4396
874.4908, 859.0321
874.9729, 861.0347
875.4550, 857.5266
875.9371, 854.7413
876.4193, 853.6589
876.9014, 853.2639
877.3835, 853.5767
877.8656, 854.0783
878.3477, 854.3928
878.8298, 854.3883
879.3120, 853.7813
879.7941, 852.0519
880.2762, 850.6732
880.7583, 851.4956
881.2404, 853.4564
881.7225, 855.1539
882.2047, 856.2191
882.6868, 855.6215
883.1689, 852.9218
883.6510, 849.6198
884.1331, 847.3965
884.6152, 846.2766
885.0974, 847.0475
885.5795, 850.2124
886.0616, 851.3480
886.5437, 848.6610
887.0258, 845.6927
887.5079, 845.7950
887.9901, 847.8327
888.4722, 847.1215
888.9543, 840.5418
889.4364, 837.1906
889.9185, 839.5228
890.4006, 842.1772
890.8828, 843.4570
891.3649, 843.6623
891.8470, 842.8963
892.3291, 841.3180
892.8112, 840.3096
893.2933, 841.3596
893.7755, 842.0858
894.2576, 840.0770
894.7397, 837.4686
895.2218, 837.4896
895.7039, 839.5931
896.1860, 840.5910
896.6682, 838.9139
897.1503, 836.5169
897.6324, 835.8143
898.1145, 836.2802
898.5966, 836.2645
899.0787, 835.8126
899.5609, 836.1416
900.0430, 837.7286
900.5251, 838.6271
901.0072, 836.6768
901.4893, 832.7199
901.9714, 831.0049
902.4536, 832.1825
902.9357, 833.3513
903.4178, 834.9916
903.8999, 835.2346
904.3820, 831.7166
904.8641, 826.9699
905.3463, 825.7238
905.8284, 828.5104
906.3105, 830.2532
906.7926, 830.1896
907.2747, 829.5823
907.7568, 828.4105
908.2390, 827.1986
908.7211, 826.0366
909.2032, 825.2421
909.6853, 825.7462
910.1674, 828.3043
910.6495, 830.4507
911.1317, 830.0203
911.6138, 828.7339
912.0959, 828.6812
912.5780, 829.3704
913.0601, 829.2074
913.5422, 827.8631
914.0244, 826.6481
914.5065, 826.8730
914.9886, 827.6379
915.4707, 826.9175
915.9528, 824.9319
916.4349, 822.7283
916.9171, 820.4326
917.3992, 819.6573
917.8813, 821.4948
918.3634, 824.5231
918.8455, 826.4655
919.3276, 827.3055
919.8098, 827.2817
920.2919, 826.0275
920.7740, 824.8483
921.2561, 823.9844
921.7382, 823.3874
922.2203, 823.3153
922.7025, 823.4930
923.1846, 822.7377
923.6667, 819.9603
924.1488, 818.6436
924.6309, 821.0399
925.1130, 822.7686
925.5952, 820.8849
926.0773, 817.7960
926.5594, 816.3302
927.0415, 816.7945
927.5236, 818.0969
928.0057, 820.6932
928.4879, 822.6376
928.9700, 821.9888
929.4521, 820.4597
929.9342, 820.3998
930.4163, 821.2646
930.8984, 820.7178
931.3806, 817.9584
931.8627, 815.2455
932.3448, 815.1588
932.8269, 816.5051
933.3090, 816.9224
933.7911, 816.5636
934.2733, 815.9556
934.7554, 815.2316
935.2375, 814.6326
935.7196, 814.2843
936.2017, 814.3412
936.6838, 815.5360
937.1660, 818.0223
937.6481, 818.2950
938.1302, 815.7418
938.6123, 813.6215
939.0944, 812.8987
939.5765, 813.2896
940.0587, 814.9220
940.5408, 817.4649
941.0229, 818.4078
941.5050, 816.9353
941.9871, 815.3583
942.4692, 813.1747
942.9514, 811.5439
943.4335, 811.8442
943.9156, 812.4392
944.3977, 810.4898
944.8798, 805.9443
945.3619, 803.8982
945.8441, 807.8745
946.3262, 811.3050
946.8083, 811.5390
947.2904, 810.5511
947.7725, 809.8710
948.2546, 809.4095
948.7368, 808.3959
949.2189, 806.5742
949.7010, 805.1705
950.1831, 805.2036
950.6652, 805.8384
951.1473, 806.7557
951.6295, 807.4448
952.1116, 806.7650
952.5937, 804.8353
953.0758, 802.8401
953.5579, 801.3754
954.0400, 800.7936
954.5222, 802.2844
955.0043, 804.8971
955.4864, 805.6143
955.9685, 804.5777
956.4506, 803.6593
956.9327, 803.4161
957.4149, 803.2392
957.8970, 802.5228
958.3791, 801.5930
958.8612, 801.6818
959.3433, 802.9255
959.8254, 802.9800
960.3076, 801.3714
960.7897, 800.0635
961.2718, 800.1130
961.7539, 800.3394
962.2360, 798.9600
962.7181, 796.1234
963.2003, 795.4958
963.6824, 798.9657
964.1645, 800.7076
964.6466, 798.4130
965.1287, 796.4991
965.6108, 798.0011
966.0930, 801.0246
966.5751, 803.1015
967.0572, 804.2504
967.5393, 803.6270
968.0214, 798.6189
968.5035, 795.1984
968.9857, 796.5733
969.4678, 798.6695
969.9499, 797.6521
970.4320, 795.0184
970.9141, 795.0082
971.3962, 799.0261
971.8784, 801.7848
972.3605, 800.1285
972.8426, 797.1756
973.3247, 794.0692
973.8068, 791.5770
974.2889, 790.6109
974.7711, 791.1080
975.2532, 792.6111
975.7353, 795.1304
976.2174, 797.0551
976.6995, 796.4681
977.1816, 794.7269
977.6638, 793.3023
978.1459, 792.4182
978.6280, 792.7352
979.1101, 794.1461
979.5922, 795.1765
980.0743, 794.7530
980.5565, 793.5835
981.0386, 792.6978
981.5207, 792.0477
982.0028, 791.4747
982.4849, 790.9704
982.9670, 790.4489
983.4492, 789.8798
983.9313, 789.6773
984.4134, 790.3162
984.8955, 791.4680
985.3776, 792.1453
985.8597, 792.3444
986.3419, 792.0049
986.8240, 791.0281
987.3061, 790.0631
987.7882, 789.3627
988.2703, 788.8446
988.7524, 788.3778
989.2346, 787.9911
989.7167, 788.1197
990.1988, 789.1605
990.6809, 789.4291
991.1630, 788.1948
991.6451, 787.2715
992.1273, 787.6595
992.6094, 788.8030
993.0915, 790.0824
993.5736, 791.5563
994.0557, 792.0822
994.5378, 791.4275
995.0200, 790.1426
995.5021, 787.3378
995.9842, 784.9160
996.4663, 783.8684
996.9484, 783.8760
997.4305, 784.3638
997.9127, 785.2675
998.3948, 786.9230
998.8769, 791.4133
999.3590, 793.9530
999.8411, 791.6027
1000.323, 788.1168
1000.805, 785.9610
1001.287, 785.0712
1001.770, 784.7758
1002.252, 784.9052
1002.734, 786.0782
1003.216, 790.7033
1003.698, 793.9280
1004.180, 791.6257
1004.662, 787.3792
1005.144, 784.3080
1005.627, 782.9863
1006.109, 784.1819
1006.591, 788.3490
1007.073, 790.9947
1007.555, 787.1098
1008.037, 782.0754
1008.519, 781.0865
1009.001, 782.5109
1009.483, 784.3011
1009.966, 785.6954
1010.448, 785.4930
1010.930, 783.0411
1011.412, 780.7020
1011.894, 781.4902
1012.376, 783.4620
1012.858, 783.3461
1013.340, 781.9551
1013.823, 781.7336
1014.305, 782.8394
1014.787, 783.3768
1015.269, 782.2241
1015.751, 780.5857
1016.233, 780.2812
1016.715, 780.7328
1017.197, 779.7914
1017.679, 777.9802
1018.162, 778.3231
1018.644, 781.3000
1019.126, 784.2878
1019.608, 785.5977
1020.090, 785.4897
1020.572, 783.8905
1021.054, 781.1277
1021.536, 779.5297
1022.018, 779.0878
1022.501, 779.1430
1022.983, 779.5682
1023.465, 779.5662
1023.947, 778.3239
1024.429, 777.1249
1024.911, 779.5594
1025.393, 785.7858
1025.875, 787.4249
1026.358, 783.8929
1026.840, 780.4633
1027.322, 778.3658
1027.804, 777.3231
1028.286, 777.2662
1028.768, 777.8608
1029.250, 778.2807
1029.732, 778.5014
1030.214, 778.8046
1030.697, 779.3758
1031.179, 779.2700
1031.661, 777.8371
1032.143, 776.6929
1032.625, 777.5673
1033.107, 779.2671
1033.589, 778.0604
1034.071, 772.6224
1034.553, 770.4254
1035.036, 773.1820
1035.518, 775.4286
1036.000, 775.6333
1036.482, 775.1099
1036.964, 774.6854
1037.446, 774.4039
1037.928, 774.4723
1038.410, 775.1942
1038.893, 775.1887
1039.375, 773.6639
1039.857, 772.6868
1040.339, 772.8351
1040.821, 773.6124
1041.303, 775.3770
1041.785, 777.3862
1042.267, 777.0918
1042.750, 772.9496
1043.232, 771.6541
1043.714, 776.6026
1044.196, 779.8840
1044.678, 778.8888
1045.160, 776.3764
1045.642, 773.5129
1046.124, 770.8453
1046.606, 769.6565
1047.089, 770.3715
1047.571, 771.0487
1048.053, 771.3884
1048.535, 771.7935
1049.017, 772.7106
1049.499, 773.4218
1049.981, 773.3843
1050.463, 772.7288
1050.945, 771.6373
1051.428, 769.9804
1051.910, 768.9186
1052.392, 769.3350
1052.874, 769.5059
1053.356, 768.4371
1053.838, 767.3432
1054.320, 767.2746
1054.802, 767.8617
1055.285, 768.3124
1055.767, 768.5150
1056.249, 768.4813
1056.731, 768.0678
1057.213, 767.6085
1057.695, 767.6677
1058.177, 767.3107
1058.659, 764.7786
1059.141, 761.6866
1059.624, 761.5056
1060.106, 764.8311
1060.588, 767.1592
1061.070, 766.4326
1061.552, 765.2892
1062.034, 764.3459
1062.516, 763.7874
1062.998, 763.5875
1063.480, 763.9398
1063.963, 765.5999
1064.445, 768.5323
1064.927, 770.3616
1065.409, 769.4299
1065.891, 768.2976
1066.373, 768.1349
1066.855, 768.0330
1067.337, 767.2843
1067.820, 766.1178
1068.302, 764.8030
1068.784, 763.4635
1069.266, 762.5184
1069.748, 762.0190
1070.230, 762.1312
1070.712, 764.2865
1071.194, 765.7018
1071.677, 762.8480
1072.159, 758.7159
1072.641, 757.9583
1073.123, 760.6572
1073.605, 763.3613
1074.087, 765.2711
1074.569, 765.9187
1075.051, 764.0466
1075.533, 761.9268
1076.016, 760.9680
1076.498, 760.8890
1076.980, 761.7882
1077.462, 763.1379
1077.944, 763.0132
1078.426, 760.1803
1078.908, 757.9662
1079.390, 758.5975
1079.873, 759.5948
1080.355, 759.0778
1080.837, 758.2012
1081.319, 758.7370
1081.801, 760.2070
1082.283, 760.3917
1082.765, 758.2780
1083.247, 757.2770
1083.729, 760.8409
1084.212, 763.6788
1084.694, 761.6157
1085.176, 758.1669
1085.658, 756.7597
1086.140, 757.1443
1086.622, 758.0024
1087.104, 759.0569
1087.586, 759.5535
1088.068, 758.9430
1088.551, 757.9962
1089.033, 756.6369
1089.515, 755.5271
1089.997, 755.4861
1090.479, 756.0303
1090.961, 756.3749
1091.443, 756.3398
1091.925, 755.5973
1092.408, 752.8453
1092.890, 750.9799
1093.372, 751.8205
1093.854, 753.2872
1094.336, 754.1662
1094.818, 754.5251
1095.300, 754.6071
1095.782, 754.4560
1096.265, 754.0040
1096.747, 752.4957
1097.229, 752.1254
1097.711, 755.7823
1098.193, 758.3438
1098.675, 755.2892
1099.157, 750.5535
1099.639, 748.7357
1100.121, 749.6911
1100.604, 750.8511
1101.086, 751.8052
1101.568, 752.5256
1102.050, 752.9043
1102.532, 753.1637
1103.014, 753.7156
1103.496, 753.9167
1103.978, 752.9010
1104.460, 751.1081
1104.943, 749.4562
1105.425, 747.7888
1105.907, 747.9704
1106.389, 752.4391
1106.871, 755.9015
1107.353, 756.5350
1107.835, 755.9572
1108.317, 754.8515
1108.800, 753.5043
1109.282, 752.4222
1109.764, 751.6665
1110.246, 750.3052
1110.728, 746.7866
1111.210, 744.8576
1111.692, 746.2660
1112.174, 747.9230
1112.656, 748.3135
1113.139, 748.1743
1113.621, 748.6749
1114.103, 749.6697
1114.585, 749.4191
1115.067, 746.2549
1115.549, 744.8506
1116.031, 746.2787
1116.513, 747.9723
1116.995, 749.6018
1117.478, 750.6886
1117.960, 750.5448
1118.442, 749.5897
1118.924, 749.2006
1119.406, 749.6230
1119.888, 749.6182
1120.370, 748.8768
1120.852, 748.3598
1121.335, 748.3503
1121.817, 748.4518
1122.299, 748.3179
1122.781, 748.2548
1123.263, 748.9944
1123.745, 750.5731
1124.227, 750.7536
1124.709, 748.9564
1125.192, 747.9114
1125.674, 748.3027
1126.156, 748.2924
1126.638, 746.8029
1127.120, 745.0967
1127.602, 744.6742
1128.084, 745.3254
1128.566, 746.2218
1129.048, 747.5104
1129.531, 747.4369
1130.013, 745.6367
1130.495, 744.7874
1130.977, 745.8840
1131.459, 747.0560
1131.941, 746.6755
1132.423, 745.7001
1132.905, 746.4810
1133.387, 748.8431
1133.870, 749.8539
1134.352, 749.5657
1134.834, 749.3281
1135.316, 749.3979
1135.798, 749.2341
1136.280, 748.5309
1136.762, 747.5971
1137.244, 746.7624
1137.727, 746.0629
1138.209, 745.5417
1138.691, 745.2528
1139.173, 745.5291
1139.655, 746.3260
1140.137, 747.4648
1140.619, 748.7850
1141.101, 749.1396
1141.583, 747.3427
1142.066, 744.9203
1142.548, 744.3832
1143.030, 744.8509
1143.512, 744.2550
1143.994, 743.1534
1144.476, 743.7823
1144.958, 746.0230
1145.440, 747.0711
1145.922, 745.4474
1146.405, 743.3309
1146.887, 742.4103
1147.369, 742.4092
1147.851, 743.8417
1148.333, 745.4584
1148.815, 744.7762
1149.297, 742.7476
1149.779, 742.3902
1150.262, 744.4301
1150.744, 746.7661
1151.226, 748.9926
1151.708, 749.8522
1152.190, 747.1072
1152.672, 744.0742
1153.154, 743.5344
1153.636, 744.5665
1154.119, 746.2274
1154.601, 747.9158
1155.083, 747.9100
1155.565, 744.8792
1156.047, 743.2110
1156.529, 745.5909
1157.011, 748.0196
1157.493, 748.6353
1157.975, 748.6747
1158.458, 749.8857
1158.940, 751.0963
1159.422, 749.0964
1159.904, 743.2465
1160.386, 740.0853
1160.868, 742.0763
1161.350, 743.8487
1161.832, 744.8592
1162.314, 745.5314
1162.797, 746.0668
1163.279, 746.3038
1163.761, 745.9024
1164.243, 745.0702
1164.725, 744.8544
1165.207, 745.6690
1165.689, 745.5507
1166.171, 743.9795
1166.654, 743.0906
1167.136, 743.5603
1167.618, 744.3240
1168.100, 744.7050
1168.582, 744.9277
1169.064, 745.3996
1169.546, 746.0676
1170.028, 746.4328
1170.510, 746.4902
1170.993, 746.3873
1171.475, 746.1385
1171.957, 745.3257
1172.439, 743.7472
1172.921, 742.7328
1173.403, 743.6155
1173.885, 745.3268
1174.367, 745.5532
1174.849, 744.8623
1175.332, 745.4508
1175.814, 746.9200
1176.296, 747.4031
1176.778, 746.7137
1177.260, 745.9060
1177.742, 745.4933
1178.224, 745.3822
1178.706, 745.7656
1179.189, 746.0764
1179.671, 745.1504
1180.153, 743.9756
1180.635, 744.0218
1181.117, 745.0630
1181.599, 746.7054
1182.081, 748.5585
1182.563, 749.3563
1183.046, 748.2666
1183.528, 746.8251
1184.010, 745.9628
1184.492, 745.0270
1184.974, 742.4403
1185.456, 740.4885
1185.938, 742.7783
1186.420, 747.3383
1186.902, 749.2485
1187.385, 747.6368
1187.867, 745.0660
1188.349, 739.4235
1188.831, 736.7871
1189.313, 740.9401
1189.795, 745.1307
1190.277, 745.8071
1190.759, 745.2257
1191.241, 745.7390
1191.724, 746.8832
1192.206, 746.7399
1192.688, 744.7913
1193.170, 743.6876
1193.652, 743.3547
1194.134, 744.4325
1194.616, 747.8570
1195.098, 749.7993
1195.581, 747.6691
1196.063, 744.3871
1196.545, 744.1073
1197.027, 745.9679
1197.509, 745.8759
1197.991, 744.0411
1198.473, 744.2727
1198.955, 746.5406
1199.438, 746.9262
1199.920, 744.4808
1200.402, 741.5840
1200.884, 739.7060
1201.366, 739.4528
1201.848, 743.5477
1202.330, 748.5323
1202.812, 746.6849
1203.294, 741.1812
1203.776, 737.7458
1204.259, 737.0086
1204.741, 739.2323
1205.223, 743.8094
1205.705, 746.2235
1206.187, 742.9044
1206.669, 739.4020
1207.151, 739.4635
1207.633, 740.9671
1208.116, 743.0923
1208.598, 745.0670
1209.080, 746.2400
1209.562, 746.5858
1210.044, 746.2358
1210.526, 745.1985
1211.008, 743.6090
1211.490, 739.4611
1211.973, 737.8094
1212.455, 742.1031
1212.937, 745.9183
1213.419, 746.3495
1213.901, 745.1384
1214.383, 743.5546
1214.865, 741.8888
1215.347, 741.1713
1215.829, 741.5098
1216.312, 742.2496
1216.794, 743.7115
1217.276, 743.7348
1217.758, 741.6718
1218.240, 739.9846
1218.722, 739.8756
1219.204, 740.7227
1219.686, 742.0352
1220.168, 743.3210
1220.651, 742.8884
1221.133, 741.3652
1221.615, 741.6923
1222.097, 743.3497
1222.579, 743.4835
1223.061, 741.8553
1223.543, 740.3695
1224.025, 739.9341
1224.508, 740.7049
1224.990, 743.9185
1225.472, 747.0219
1225.954, 746.8678
1226.436, 745.6714
1226.918, 746.0504
1227.400, 747.2020
1227.882, 747.5230
1228.365, 746.8915
1228.847, 745.9935
1229.329, 744.8476
1229.811, 744.1712
1230.293, 744.6544
1230.775, 744.9455
1231.257, 744.3221
1231.739, 743.6814
1232.221, 744.1119
1232.703, 744.4552
1233.186, 742.6276
1233.668, 739.2604
1234.150, 738.7181
1234.632, 741.8317
1235.114, 744.7422
1235.596, 747.7766
1236.078, 748.6794
1236.560, 746.6930
1237.043, 743.9622
1237.525, 741.5300
1238.007, 740.3609
1238.489, 742.2246
1238.971, 745.4695
1239.453, 745.1126
1239.935, 742.3596
1240.417, 741.0728
1240.900, 741.2486
1241.382, 742.1185
1241.864, 743.2792
1242.346, 743.8071
1242.828, 743.2242
1243.310, 742.7260
1243.792, 743.7999
1244.274, 744.7049
1244.756, 743.5111
1245.239, 741.9886
1245.721, 741.9426
1246.203, 742.6934
1246.685, 743.0021
1247.167, 742.8640
1247.649, 743.1998
1248.131, 744.6888
1248.613, 744.9057
1249.095, 741.9984
1249.578, 740.2013
1250.060, 740.7933
1250.542, 741.7684
1251.024, 742.2736
1251.506, 742.4120
1251.988, 742.2294
1252.470, 741.8491
1252.952, 741.9257
1253.435, 742.4951
1253.917, 741.5808
1254.399, 739.2404
1254.881, 738.2406
1255.363, 738.9998
1255.845, 739.8130
1256.327, 739.8816
1256.809, 739.4533
1257.292, 738.3885
1257.774, 737.8486
1258.256, 740.3883
1258.738, 743.7016
1259.220, 744.5420
1259.702, 743.7048
1260.184, 742.1913
1260.666, 740.7169
1261.148, 740.8658
1261.630, 743.0850
1262.113, 744.3080
1262.595, 741.7054
1263.077, 740.5209
1263.559, 744.4042
1264.041, 747.3631
1264.523, 745.2620
1265.005, 742.1073
1265.487, 741.3251
1265.970, 742.1389
1266.452, 742.8479
1266.934, 743.4562
1267.416, 744.0474
1267.898, 744.7651
1268.380, 744.0234
1268.862, 741.5417
1269.344, 740.2663
1269.827, 741.1613
1270.309, 742.1362
1270.791, 741.5897
1271.273, 741.0765
1271.755, 743.5457
1272.237, 747.0021
1272.719, 747.9181
1273.201, 747.0207
1273.683, 744.8114
1274.166, 742.2000
1274.648, 740.8815
1275.130, 741.0533
1275.612, 741.5620
1276.094, 741.8323
1276.576, 743.0552
1277.058, 747.9601
1277.540, 750.7621
1278.022, 747.5712
1278.505, 743.3560
1278.987, 740.3458
1279.469, 739.0225
1279.951, 740.7682
1280.433, 744.4090
1280.915, 744.7249
1281.397, 741.0296
1281.879, 740.7003
1282.362, 744.1472
1282.844, 745.9458
1283.326, 745.1945
1283.808, 745.4212
1284.290, 748.0318
1284.772, 749.7050
1285.254, 747.4087
1285.736, 741.1330
##END=



