##NAMES=Aravaipaite
##RRUFFID=R100032
##IDEAL CHEMISTRY=Pb^2+^_3_AlF_9_&#183;H_2_O
##LOCALITY=Grand Reef mine, Klondyke, Aravaipa District, Graham County, Arizona, USA
##OWNER=RRUFF
##SOURCE=William W. Pinch
##DESCRIPTION=Transparent sheets, associated with laurelite R100011 and scotlandite R100043
##STATUS=The identification of this mineral has been confirmed by single-crystal X-ray diffraction.
##URL=rruff.info/R100032
123.7582, 110.6905
124.2404, 115.9510
124.7225, 120.6176
125.2046, 125.3994
125.6867, 131.2444
126.1688, 138.6007
126.6509, 146.3721
127.1331, 153.0120
127.6152, 158.8273
128.0973, 165.3443
128.5794, 173.1863
129.0615, 182.4935
129.5436, 193.7253
130.0258, 207.4292
130.5079, 222.6241
130.9900, 237.0503
131.4721, 250.5862
131.9542, 266.5442
132.4363, 287.8565
132.9185, 314.2091
133.4006, 343.3417
133.8827, 374.4008
134.3648, 407.6114
134.8469, 446.5217
135.3290, 491.6317
135.8112, 540.4644
136.2933, 590.4807
136.7754, 642.0313
137.2575, 692.9051
137.7396, 743.0108
138.2217, 791.4847
138.7039, 838.6788
139.1860, 885.4720
139.6681, 929.6915
140.1502, 968.6325
140.6323, 1001.148
141.1144, 1030.922
141.5966, 1058.436
142.0787, 1082.323
142.5608, 1109.193
143.0429, 1138.267
143.5250, 1170.648
144.0071, 1208.854
144.4893, 1253.139
144.9714, 1302.328
145.4535, 1355.666
145.9356, 1415.757
146.4177, 1476.049
146.8998, 1537.730
147.3820, 1599.869
147.8641, 1661.227
148.3462, 1720.123
148.8283, 1779.043
149.3104, 1840.074
149.7925, 1906.085
150.2747, 1970.067
150.7568, 2031.604
151.2389, 2090.552
151.7210, 2144.566
152.2031, 2190.347
152.6852, 2232.691
153.1674, 2275.073
153.6495, 2320.620
154.1316, 2362.656
154.6137, 2398.877
155.0958, 2429.161
155.5779, 2460.367
156.0601, 2492.011
156.5422, 2525.555
157.0243, 2561.897
157.5064, 2601.698
157.9885, 2643.866
158.4706, 2687.541
158.9528, 2732.396
159.4349, 2781.478
159.9170, 2837.034
160.3991, 2896.799
160.8812, 2958.158
161.3633, 3017.302
161.8455, 3080.329
162.3276, 3151.348
162.8097, 3231.148
163.2918, 3312.120
163.7739, 3389.970
164.2560, 3462.834
164.7382, 3511.735
165.2203, 3558.468
165.7024, 3605.173
166.1845, 3647.766
166.6666, 3684.575
167.1487, 3721.969
167.6309, 3764.948
168.1130, 3811.580
168.5951, 3856.995
169.0772, 3900.872
169.5593, 3942.078
170.0414, 3979.219
170.5236, 4011.183
171.0057, 4041.515
171.4878, 4072.433
171.9699, 4104.104
172.4520, 4136.379
172.9341, 4169.624
173.4163, 4203.549
173.8984, 4238.031
174.3805, 4273.970
174.8626, 4309.030
175.3447, 4344.160
175.8268, 4378.306
176.3090, 4406.520
176.7911, 4423.240
177.2732, 4432.071
177.7553, 4438.814
178.2374, 4446.106
178.7195, 4450.628
179.2017, 4448.509
179.6838, 4439.877
180.1659, 4425.836
180.6480, 4404.514
181.1301, 4378.396
181.6122, 4352.827
182.0944, 4329.860
182.5765, 4307.924
183.0586, 4283.526
183.5407, 4257.110
184.0228, 4229.981
184.5049, 4202.922
184.9871, 4176.111
185.4692, 4151.275
185.9513, 4128.542
186.4334, 4108.069
186.9155, 4089.438
187.3976, 4072.665
187.8798, 4058.440
188.3619, 4047.854
188.8440, 4040.571
189.3261, 4035.205
189.8082, 4031.862
190.2903, 4030.010
190.7725, 4027.607
191.2546, 4024.511
191.7367, 4021.429
192.2188, 4019.185
192.7009, 4017.711
193.1830, 4016.394
193.6652, 4015.841
194.1473, 4015.525
194.6294, 4011.764
195.1115, 4004.058
195.5936, 3994.608
196.0757, 3986.488
196.5579, 3979.775
197.0400, 3972.182
197.5221, 3963.083
198.0042, 3952.521
198.4863, 3939.640
198.9684, 3924.025
199.4506, 3907.182
199.9327, 3891.180
200.4148, 3875.871
200.8969, 3861.973
201.3790, 3851.199
201.8611, 3843.863
202.3433, 3830.533
202.8254, 3809.910
203.3075, 3785.179
203.7896, 3761.577
204.2717, 3738.907
204.7538, 3717.356
205.2360, 3697.561
205.7181, 3679.864
206.2002, 3660.364
206.6823, 3638.691
207.1644, 3615.653
207.6465, 3592.613
208.1287, 3569.872
208.6108, 3546.981
209.0929, 3522.988
209.5750, 3496.856
210.0571, 3475.614
210.5392, 3460.798
211.0214, 3449.443
211.5035, 3434.730
211.9856, 3415.122
212.4677, 3397.001
212.9498, 3383.345
213.4319, 3374.985
213.9140, 3368.148
214.3962, 3362.782
214.8783, 3358.873
215.3604, 3356.276
215.8425, 3354.461
216.3246, 3354.920
216.8067, 3358.661
217.2889, 3366.493
217.7710, 3374.377
218.2531, 3381.937
218.7352, 3389.551
219.2173, 3398.171
219.6994, 3407.297
220.1816, 3418.363
220.6637, 3432.304
221.1458, 3449.772
221.6279, 3468.544
222.1100, 3489.424
222.5921, 3511.393
223.0743, 3532.531
223.5564, 3552.988
224.0385, 3572.322
224.5206, 3589.690
225.0027, 3604.400
225.4848, 3619.823
225.9670, 3635.801
226.4491, 3652.499
226.9312, 3670.817
227.4133, 3691.386
227.8954, 3712.384
228.3775, 3732.473
228.8597, 3751.561
229.3418, 3770.667
229.8239, 3790.246
230.3060, 3809.627
230.7881, 3826.270
231.2702, 3838.881
231.7524, 3850.772
232.2345, 3863.394
232.7166, 3877.957
233.1987, 3890.710
233.6808, 3901.399
234.1629, 3910.295
234.6451, 3918.185
235.1272, 3924.660
235.6093, 3930.835
236.0914, 3937.120
236.5735, 3943.142
237.0556, 3950.642
237.5378, 3960.918
238.0199, 3972.473
238.5020, 3981.074
238.9841, 3984.696
239.4662, 3988.668
239.9483, 3995.465
240.4305, 4006.482
240.9126, 4016.742
241.3947, 4025.476
241.8768, 4033.609
242.3589, 4043.622
242.8410, 4056.543
243.3232, 4069.547
243.8053, 4081.049
244.2874, 4089.495
244.7695, 4100.235
245.2516, 4114.184
245.7337, 4130.103
246.2159, 4144.960
246.6980, 4156.975
247.1801, 4170.864
247.6622, 4189.495
248.1443, 4216.541
248.6264, 4237.928
249.1086, 4251.146
249.5907, 4260.150
250.0728, 4273.015
250.5549, 4290.927
251.0370, 4310.697
251.5191, 4331.358
252.0013, 4352.837
252.4834, 4374.687
252.9655, 4396.653
253.4476, 4418.825
253.9297, 4441.682
254.4118, 4466.359
254.8940, 4488.977
255.3761, 4507.505
255.8582, 4520.504
256.3403, 4535.390
256.8224, 4552.238
257.3046, 4570.958
257.7867, 4591.894
258.2688, 4618.122
258.7509, 4640.607
259.2330, 4655.448
259.7151, 4661.370
260.1973, 4668.502
260.6794, 4677.786
261.1615, 4687.361
261.6436, 4694.507
262.1257, 4699.501
262.6078, 4701.656
263.0900, 4701.421
263.5721, 4699.215
264.0542, 4689.931
264.5363, 4672.338
265.0184, 4648.917
265.5005, 4622.157
265.9827, 4592.573
266.4648, 4558.534
266.9469, 4519.093
267.4290, 4474.310
267.9111, 4428.694
268.3932, 4383.025
268.8754, 4335.758
269.3575, 4284.979
269.8396, 4229.424
270.3217, 4173.220
270.8038, 4117.216
271.2859, 4061.026
271.7681, 4005.879
272.2502, 3951.630
272.7323, 3898.801
273.2144, 3850.019
273.6965, 3805.940
274.1786, 3761.109
274.6608, 3713.249
275.1429, 3663.262
275.6250, 3615.917
276.1071, 3571.301
276.5892, 3529.246
277.0714, 3491.134
277.5535, 3457.090
278.0356, 3424.226
278.5177, 3392.270
278.9998, 3361.052
279.4819, 3329.489
279.9641, 3296.848
280.4462, 3265.782
280.9283, 3238.679
281.4104, 3215.896
281.8925, 3193.409
282.3746, 3170.305
282.8568, 3147.354
283.3389, 3127.116
283.8210, 3109.837
284.3031, 3093.156
284.7852, 3075.356
285.2673, 3056.609
285.7495, 3037.835
286.2316, 3019.128
286.7137, 3000.348
287.1958, 2981.872
287.6779, 2963.733
288.1600, 2943.650
288.6422, 2919.570
289.1243, 2891.712
289.6064, 2863.943
290.0885, 2836.538
290.5706, 2808.564
291.0527, 2778.108
291.5349, 2745.344
292.0170, 2712.272
292.4991, 2679.415
292.9812, 2647.102
293.4633, 2618.250
293.9454, 2593.360
294.4276, 2569.713
294.9097, 2542.698
295.3918, 2513.293
295.8739, 2487.198
296.3560, 2467.945
296.8381, 2453.954
297.3203, 2442.804
297.8024, 2434.674
298.2845, 2427.335
298.7666, 2418.218
299.2487, 2407.981
299.7308, 2398.392
300.2130, 2389.638
300.6951, 2382.185
301.1772, 2377.461
301.6593, 2375.491
302.1414, 2373.534
302.6235, 2368.706
303.1057, 2362.228
303.5878, 2356.752
304.0699, 2354.492
304.5520, 2352.569
305.0341, 2347.560
305.5162, 2339.699
305.9984, 2330.620
306.4805, 2319.960
306.9626, 2309.236
307.4447, 2300.913
307.9268, 2296.531
308.4089, 2293.346
308.8911, 2288.838
309.3732, 2283.356
309.8553, 2278.401
310.3374, 2274.077
310.8195, 2271.038
311.3016, 2270.349
311.7838, 2273.266
312.2659, 2276.336
312.7480, 2277.132
313.2301, 2276.346
313.7122, 2275.695
314.1943, 2275.952
314.6765, 2276.694
315.1586, 2278.067
315.6407, 2280.738
316.1228, 2281.814
316.6049, 2279.085
317.0870, 2273.933
317.5692, 2268.679
318.0513, 2266.282
318.5334, 2262.160
319.0155, 2253.936
319.4976, 2241.035
319.9797, 2226.000
320.4619, 2208.673
320.9440, 2189.850
321.4261, 2170.671
321.9082, 2152.077
322.3903, 2132.305
322.8724, 2110.325
323.3546, 2086.088
323.8367, 2062.246
324.3188, 2039.922
324.8009, 2017.808
325.2830, 1995.174
325.7651, 1969.486
326.2473, 1945.848
326.7294, 1925.968
327.2115, 1909.364
327.6936, 1891.947
328.1757, 1872.096
328.6578, 1852.625
329.1400, 1834.869
329.6221, 1820.157
330.1042, 1805.610
330.5863, 1790.637
331.0684, 1775.713
331.5505, 1762.625
332.0327, 1752.566
332.5148, 1742.747
332.9969, 1731.884
333.4790, 1719.490
333.9611, 1707.827
334.4432, 1696.505
334.9254, 1686.082
335.4075, 1678.030
335.8896, 1673.924
336.3717, 1668.818
336.8538, 1660.488
337.3359, 1648.255
337.8180, 1639.879
338.3001, 1636.652
338.7823, 1635.343
339.2644, 1632.520
339.7465, 1628.016
340.2286, 1622.584
340.7107, 1615.911
341.1928, 1608.315
341.6750, 1602.793
342.1571, 1599.496
342.6392, 1597.349
343.1213, 1595.857
343.6034, 1595.042
344.0855, 1593.221
344.5677, 1589.759
345.0498, 1585.496
345.5319, 1582.100
346.0140, 1579.534
346.4961, 1578.841
346.9782, 1581.992
347.4604, 1588.031
347.9425, 1591.783
348.4246, 1592.355
348.9067, 1592.002
349.3888, 1593.918
349.8709, 1597.849
350.3531, 1602.299
350.8352, 1606.540
351.3173, 1610.783
351.7994, 1615.582
352.2815, 1620.971
352.7636, 1626.501
353.2458, 1630.724
353.7279, 1634.758
354.2100, 1641.069
354.6921, 1652.668
355.1742, 1665.514
355.6563, 1675.090
356.1385, 1681.631
356.6206, 1688.194
357.1027, 1697.195
357.5848, 1707.235
358.0669, 1716.777
358.5490, 1725.141
359.0312, 1733.237
359.5133, 1740.847
359.9954, 1748.520
360.4775, 1758.049
360.9596, 1772.090
361.4417, 1787.075
361.9239, 1800.420
362.4060, 1810.850
362.8881, 1822.170
363.3702, 1837.516
363.8523, 1854.319
364.3344, 1868.639
364.8166, 1876.727
365.2987, 1884.595
365.7808, 1895.032
366.2629, 1908.854
366.7450, 1920.312
367.2271, 1927.144
367.7093, 1931.939
368.1914, 1936.972
368.6735, 1946.022
369.1556, 1951.400
369.6377, 1950.609
370.1198, 1944.412
370.6020, 1939.174
371.0841, 1936.350
371.5662, 1933.111
372.0483, 1928.017
372.5304, 1920.692
373.0125, 1912.079
373.4947, 1901.954
373.9768, 1890.721
374.4589, 1879.073
374.9410, 1866.692
375.4231, 1854.512
375.9052, 1843.228
376.3874, 1833.188
376.8695, 1820.478
377.3516, 1803.836
377.8337, 1786.443
378.3158, 1772.204
378.7979, 1761.553
379.2801, 1750.259
379.7622, 1736.059
380.2443, 1720.384
380.7264, 1709.527
381.2085, 1703.948
381.6906, 1700.310
382.1728, 1695.509
382.6549, 1689.945
383.1370, 1686.675
383.6191, 1686.632
384.1012, 1688.275
384.5833, 1689.161
385.0655, 1689.392
385.5476, 1689.757
386.0297, 1690.451
386.5118, 1691.659
386.9939, 1693.986
387.4760, 1697.616
387.9582, 1701.367
388.4403, 1704.266
388.9224, 1706.497
389.4045, 1708.424
389.8866, 1710.336
390.3687, 1711.949
390.8509, 1712.190
391.3330, 1711.305
391.8151, 1712.042
392.2972, 1717.333
392.7793, 1724.419
393.2614, 1730.641
393.7436, 1734.528
394.2257, 1738.446
394.7078, 1742.454
395.1899, 1747.131
395.6720, 1753.999
396.1541, 1765.585
396.6363, 1777.865
397.1184, 1789.178
397.6005, 1799.548
398.0826, 1808.372
398.5647, 1816.396
399.0468, 1822.559
399.5290, 1825.568
400.0111, 1825.668
400.4932, 1822.205
400.9753, 1814.731
401.4574, 1803.194
401.9395, 1789.586
402.4217, 1774.478
402.9038, 1756.572
403.3859, 1734.490
403.8680, 1705.849
404.3501, 1678.473
404.8322, 1653.012
405.3144, 1629.180
405.7965, 1607.277
406.2786, 1587.673
406.7607, 1568.331
407.2428, 1547.563
407.7249, 1525.141
408.2071, 1506.860
408.6892, 1493.121
409.1713, 1481.982
409.6534, 1471.331
410.1355, 1461.216
410.6176, 1451.592
411.0998, 1442.087
411.5819, 1433.214
412.0640, 1426.811
412.5461, 1422.834
413.0282, 1418.702
413.5103, 1412.010
413.9925, 1403.865
414.4746, 1396.378
414.9567, 1389.797
415.4388, 1384.191
415.9209, 1379.627
416.4030, 1376.047
416.8852, 1373.172
417.3673, 1371.900
417.8494, 1370.647
418.3315, 1367.699
418.8136, 1362.958
419.2957, 1358.568
419.7779, 1355.642
420.2600, 1353.728
420.7421, 1352.425
421.2242, 1352.471
421.7063, 1352.209
422.1884, 1350.296
422.6706, 1347.445
423.1527, 1346.254
423.6348, 1349.988
424.1169, 1353.414
424.5990, 1353.776
425.0811, 1348.516
425.5633, 1345.652
426.0454, 1347.528
426.5275, 1351.064
427.0096, 1352.239
427.4917, 1348.683
427.9738, 1346.398
428.4560, 1347.074
428.9381, 1350.541
429.4202, 1352.793
429.9023, 1353.427
430.3844, 1353.527
430.8665, 1353.933
431.3487, 1354.788
431.8308, 1354.649
432.3129, 1352.591
432.7950, 1350.492
433.2771, 1353.077
433.7592, 1360.507
434.2414, 1367.637
434.7235, 1371.344
435.2056, 1372.694
435.6877, 1376.675
436.1698, 1383.508
436.6519, 1389.933
437.1341, 1391.895
437.6162, 1390.790
438.0983, 1390.465
438.5804, 1392.706
439.0625, 1395.105
439.5446, 1394.829
440.0268, 1392.324
440.5089, 1389.178
440.9910, 1385.039
441.4731, 1381.452
441.9552, 1380.152
442.4373, 1381.785
442.9195, 1383.292
443.4016, 1382.130
443.8837, 1380.292
444.3658, 1380.204
444.8479, 1383.656
445.3300, 1387.888
445.8122, 1392.014
446.2943, 1396.076
446.7764, 1400.939
447.2585, 1407.578
447.7406, 1414.383
448.2227, 1420.590
448.7049, 1425.904
449.1870, 1431.074
449.6691, 1436.228
450.1512, 1441.153
450.6333, 1445.363
451.1154, 1448.633
451.5976, 1451.740
452.0797, 1454.886
452.5618, 1458.054
453.0439, 1460.777
453.5260, 1462.824
454.0081, 1464.969
454.4903, 1467.450
454.9724, 1470.262
455.4545, 1474.834
455.9366, 1481.383
456.4187, 1489.588
456.9008, 1499.037
457.3830, 1509.771
457.8651, 1520.977
458.3472, 1532.134
458.8293, 1543.711
459.3114, 1557.505
459.7935, 1573.380
460.2757, 1588.746
460.7578, 1601.477
461.2399, 1612.251
461.7220, 1621.935
462.2041, 1630.787
462.6862, 1638.737
463.1684, 1647.061
463.6505, 1654.547
464.1326, 1658.182
464.6147, 1657.469
465.0968, 1652.012
465.5789, 1640.260
466.0611, 1621.269
466.5432, 1603.099
467.0253, 1588.835
467.5074, 1575.364
467.9895, 1560.138
468.4716, 1540.575
468.9538, 1522.000
469.4359, 1504.583
469.9180, 1488.526
470.4001, 1474.558
470.8822, 1463.504
471.3643, 1453.285
471.8465, 1442.862
472.3286, 1432.041
472.8107, 1423.319
473.2928, 1417.079
473.7749, 1412.295
474.2570, 1408.310
474.7392, 1405.126
475.2213, 1401.585
475.7034, 1397.027
476.1855, 1392.470
476.6676, 1390.329
477.1497, 1390.396
477.6319, 1390.807
478.1140, 1389.997
478.5961, 1388.914
479.0782, 1389.456
479.5603, 1391.847
480.0424, 1394.260
480.5246, 1394.902
481.0067, 1394.709
481.4888, 1395.036
481.9709, 1396.841
482.4530, 1398.658
482.9352, 1399.721
483.4173, 1400.181
483.8994, 1400.523
484.3815, 1400.661
484.8636, 1400.920
485.3457, 1401.509
485.8279, 1402.561
486.3100, 1403.488
486.7921, 1403.841
487.2742, 1404.273
487.7563, 1405.419
488.2384, 1407.940
488.7206, 1410.074
489.2027, 1411.632
489.6848, 1412.673
490.1669, 1413.142
490.6490, 1412.643
491.1311, 1412.801
491.6133, 1414.748
492.0954, 1418.456
492.5775, 1421.034
493.0596, 1422.155
493.5417, 1423.518
494.0238, 1427.390
494.5060, 1433.266
494.9881, 1438.759
495.4702, 1443.153
495.9523, 1446.999
496.4344, 1450.922
496.9165, 1454.886
497.3987, 1458.738
497.8808, 1461.504
498.3629, 1464.686
498.8450, 1470.211
499.3271, 1478.367
499.8092, 1486.135
500.2914, 1491.193
500.7735, 1495.459
501.2556, 1500.913
501.7377, 1509.335
502.2198, 1517.313
502.7019, 1523.458
503.1841, 1528.607
503.6662, 1535.096
504.1483, 1544.852
504.6304, 1554.226
505.1125, 1561.593
505.5946, 1566.612
506.0768, 1574.359
506.5589, 1585.926
507.0410, 1598.569
507.5231, 1609.988
508.0052, 1619.884
508.4873, 1630.416
508.9695, 1641.699
509.4516, 1653.612
509.9337, 1665.583
510.4158, 1677.671
510.8979, 1690.954
511.3800, 1706.405
511.8622, 1723.319
512.3443, 1740.414
512.8264, 1757.546
513.3085, 1774.913
513.7906, 1792.208
514.2728, 1809.938
514.7549, 1828.882
515.2370, 1849.439
515.7191, 1870.455
516.2012, 1891.735
516.6833, 1912.836
517.1655, 1933.429
517.6476, 1951.695
518.1297, 1971.138
518.6118, 1993.494
519.0939, 2018.540
519.5760, 2043.444
520.0582, 2068.269
520.5403, 2092.358
521.0224, 2114.598
521.5045, 2133.120
521.9866, 2156.007
522.4688, 2185.790
522.9509, 2217.125
523.4330, 2243.470
523.9151, 2263.871
524.3972, 2284.585
524.8793, 2306.997
525.3615, 2330.212
525.8436, 2352.641
526.3257, 2374.355
526.8078, 2394.375
527.2899, 2412.289
527.7720, 2428.347
528.2542, 2443.700
528.7363, 2458.469
529.2184, 2469.449
529.7005, 2471.533
530.1826, 2468.796
530.6647, 2466.942
531.1469, 2469.347
531.6290, 2469.962
532.1111, 2465.454
532.5932, 2456.728
533.0753, 2445.688
533.5574, 2431.711
534.0396, 2416.531
534.5217, 2400.825
535.0038, 2384.800
535.4859, 2366.382
535.9680, 2343.193
536.4501, 2320.042
536.9323, 2300.139
537.4144, 2285.388
537.8965, 2267.793
538.3786, 2246.471
538.8607, 2223.341
539.3428, 2201.302
539.8250, 2180.145
540.3071, 2160.555
540.7892, 2143.198
541.2713, 2127.369
541.7534, 2111.785
542.2355, 2096.547
542.7177, 2082.658
543.1998, 2070.812
543.6819, 2060.533
544.1640, 2051.715
544.6461, 2044.432
545.1282, 2036.448
545.6104, 2024.243
546.0925, 2011.347
546.5746, 2001.807
547.0567, 1998.591
547.5388, 1996.255
548.0209, 1993.521
548.5031, 1990.393
548.9852, 1986.826
549.4673, 1982.806
549.9494, 1978.316
550.4315, 1972.910
550.9136, 1966.599
551.3958, 1962.142
551.8779, 1960.753
552.3600, 1959.170
552.8421, 1955.179
553.3242, 1948.557
553.8063, 1941.523
554.2885, 1933.976
554.7706, 1926.567
555.2527, 1920.870
555.7348, 1916.429
556.2169, 1910.237
556.6990, 1900.875
557.1812, 1890.112
557.6633, 1880.452
558.1454, 1871.604
558.6275, 1862.424
559.1096, 1851.913
559.5917, 1841.124
560.0739, 1831.319
560.5560, 1822.562
561.0381, 1813.187
561.5202, 1802.730
562.0023, 1791.372
562.4844, 1779.199
562.9666, 1764.899
563.4487, 1751.717
563.9308, 1740.037
564.4129, 1729.434
564.8950, 1719.404
565.3771, 1710.352
565.8593, 1701.114
566.3414, 1691.199
566.8235, 1680.952
567.3056, 1671.479
567.7877, 1662.830
568.2698, 1654.895
568.7520, 1648.007
569.2341, 1641.814
569.7162, 1634.264
570.1983, 1625.254
570.6804, 1616.731
571.1625, 1611.233
571.6447, 1607.373
572.1268, 1602.852
572.6089, 1596.678
573.0910, 1590.635
573.5731, 1585.949
574.0552, 1582.150
574.5374, 1578.300
575.0195, 1574.807
575.5016, 1570.579
575.9837, 1564.232
576.4658, 1556.174
576.9479, 1550.922
577.4301, 1550.373
577.9122, 1550.566
578.3943, 1549.900
578.8764, 1548.277
579.3585, 1546.230
579.8406, 1543.482
580.3228, 1540.914
580.8049, 1539.299
581.2870, 1538.633
581.7691, 1539.150
582.2512, 1541.239
582.7333, 1543.648
583.2155, 1544.072
583.6975, 1543.142
584.1796, 1542.908
584.6617, 1545.271
585.1439, 1548.018
585.6260, 1548.565
586.1081, 1547.449
586.5902, 1547.446
587.0723, 1552.094
587.5544, 1556.464
588.0366, 1557.212
588.5187, 1552.784
589.0008, 1550.062
589.4829, 1550.243
589.9650, 1552.217
590.4471, 1555.376
590.9293, 1560.468
591.4114, 1565.112
591.8935, 1569.230
592.3756, 1572.837
592.8577, 1575.612
593.3398, 1577.439
593.8220, 1580.109
594.3041, 1584.340
594.7862, 1589.670
595.2683, 1595.171
595.7504, 1600.804
596.2325, 1606.636
596.7147, 1613.088
597.1968, 1619.541
597.6789, 1624.972
598.1610, 1629.286
598.6431, 1634.536
599.1252, 1642.361
599.6074, 1651.270
600.0895, 1660.158
600.5716, 1669.083
601.0537, 1677.583
601.5358, 1684.459
602.0179, 1691.267
602.5001, 1700.134
602.9822, 1712.162
603.4643, 1723.904
603.9464, 1734.886
604.4285, 1745.163
604.9106, 1755.123
605.3928, 1764.586
605.8749, 1774.389
606.3570, 1784.862
606.8391, 1795.965
607.3212, 1807.905
607.8033, 1820.595
608.2855, 1833.479
608.7676, 1846.568
609.2497, 1859.282
609.7318, 1870.421
610.2139, 1879.639
610.6960, 1888.729
611.1782, 1899.170
611.6603, 1909.765
612.1424, 1919.371
612.6245, 1927.925
613.1066, 1935.098
613.5887, 1941.078
614.0709, 1945.661
614.5530, 1948.162
615.0351, 1947.122
615.5172, 1947.167
615.9993, 1950.271
616.4814, 1955.491
616.9636, 1957.751
617.4457, 1956.965
617.9278, 1954.456
618.4099, 1950.811
618.8920, 1946.132
619.3741, 1940.229
619.8563, 1933.029
620.3384, 1925.997
620.8205, 1921.092
621.3026, 1916.686
621.7847, 1910.913
622.2668, 1903.309
622.7490, 1894.233
623.2311, 1883.361
623.7132, 1871.197
624.1953, 1858.388
624.6774, 1842.833
625.1595, 1829.440
625.6417, 1820.005
626.1238, 1812.875
626.6059, 1803.428
627.0880, 1790.839
627.5701, 1778.326
628.0522, 1767.126
628.5344, 1756.945
629.0165, 1746.193
629.4986, 1734.858
629.9807, 1723.627
630.4628, 1712.151
630.9449, 1701.374
631.4271, 1693.422
631.9092, 1688.540
632.3913, 1683.720
632.8734, 1676.832
633.3555, 1668.854
633.8376, 1660.581
634.3198, 1651.855
634.8019, 1643.670
635.2840, 1636.767
635.7661, 1630.403
636.2482, 1623.324
636.7303, 1614.119
637.2125, 1606.624
637.6946, 1602.209
638.1767, 1599.476
638.6588, 1594.134
639.1409, 1585.733
639.6230, 1577.675
640.1052, 1571.410
640.5873, 1566.399
641.0694, 1561.020
641.5515, 1555.324
642.0336, 1550.166
642.5157, 1547.404
642.9979, 1544.833
643.4800, 1539.233
643.9621, 1530.137
644.4442, 1522.240
644.9263, 1518.352
645.4084, 1516.239
645.8906, 1514.208
646.3727, 1512.166
646.8548, 1509.797
647.3369, 1506.841
647.8190, 1503.658
648.3011, 1500.681
648.7833, 1497.814
649.2654, 1495.315
649.7475, 1493.341
650.2296, 1491.512
650.7117, 1488.897
651.1938, 1485.534
651.6760, 1482.168
652.1581, 1478.332
652.6402, 1475.256
653.1223, 1475.856
653.6044, 1479.214
654.0865, 1481.432
654.5687, 1480.738
655.0508, 1477.875
655.5329, 1471.962
656.0150, 1462.847
656.4971, 1456.730
656.9792, 1457.645
657.4614, 1459.807
657.9435, 1460.002
658.4256, 1457.427
658.9077, 1455.806
659.3898, 1455.736
659.8719, 1455.539
660.3541, 1452.913
660.8362, 1447.974
661.3183, 1444.696
661.8004, 1444.059
662.2825, 1444.087
662.7646, 1441.986
663.2468, 1438.521
663.7289, 1435.557
664.2110, 1433.885
664.6931, 1432.810
665.1752, 1432.373
665.6573, 1432.184
666.1395, 1431.289
666.6216, 1428.176
667.1037, 1425.599
667.5858, 1424.863
668.0679, 1425.640
668.5500, 1425.664
669.0322, 1424.559
669.5143, 1423.422
669.9964, 1422.669
670.4785, 1422.285
670.9606, 1422.224
671.4427, 1422.505
671.9249, 1422.788
672.4070, 1422.679
672.8891, 1422.382
673.3712, 1422.475
673.8533, 1423.065
674.3354, 1423.392
674.8176, 1423.255
675.2997, 1422.407
675.7818, 1420.446
676.2639, 1416.221
676.7460, 1412.879
677.2281, 1411.110
677.7103, 1410.712
678.1924, 1411.719
678.6745, 1415.628
679.1566, 1417.519
679.6387, 1416.082
680.1208, 1412.905
680.6030, 1411.301
681.0851, 1411.285
681.5672, 1411.990
682.0493, 1413.492
682.5314, 1415.143
683.0135, 1415.603
683.4957, 1415.137
683.9778, 1414.797
684.4599, 1415.586
684.9420, 1416.346
685.4241, 1416.194
685.9063, 1415.164
686.3884, 1414.130
686.8705, 1413.285
687.3526, 1412.547
687.8347, 1411.617
688.3168, 1410.246
688.7990, 1411.109
689.2811, 1415.431
689.7632, 1419.347
690.2453, 1419.131
690.7274, 1415.197
691.2095, 1412.994
691.6917, 1412.988
692.1738, 1413.865
692.6559, 1414.281
693.1380, 1414.609
693.6201, 1415.677
694.1022, 1418.121
694.5844, 1419.990
695.0665, 1419.778
695.5486, 1418.429
696.0307, 1417.154
696.5128, 1416.115
696.9949, 1415.266
697.4771, 1414.472
697.9592, 1413.914
698.4413, 1414.001
698.9234, 1414.828
699.4055, 1415.995
699.8876, 1417.532
700.3698, 1419.245
700.8519, 1421.042
701.3340, 1422.761
701.8161, 1423.179
702.2982, 1420.533
702.7803, 1417.038
703.2625, 1414.837
703.7446, 1413.883
704.2267, 1413.840
704.7088, 1415.121
705.1909, 1416.784
705.6730, 1418.376
706.1552, 1419.864
706.6373, 1421.492
707.1194, 1423.459
707.6015, 1425.268
708.0836, 1426.487
708.5657, 1427.038
709.0479, 1428.335
709.5300, 1430.534
710.0121, 1432.318
710.4942, 1431.516
710.9763, 1429.490
711.4584, 1429.841
711.9406, 1433.314
712.4227, 1436.757
712.9048, 1438.243
713.3869, 1438.323
713.8690, 1437.380
714.3511, 1434.093
714.8333, 1432.413
715.3154, 1434.871
715.7975, 1438.419
716.2796, 1439.804
716.7617, 1438.384
717.2438, 1436.677
717.7260, 1434.706
718.2081, 1433.103
718.6902, 1433.477
719.1723, 1435.540
719.6544, 1436.829
720.1365, 1435.993
720.6187, 1434.938
721.1008, 1436.349
721.5829, 1439.275
722.0650, 1441.534
722.5471, 1440.872
723.0292, 1440.605
723.5114, 1442.755
723.9935, 1446.609
724.4756, 1449.050
724.9577, 1449.354
725.4398, 1449.123
725.9219, 1448.633
726.4041, 1447.971
726.8862, 1447.502
727.3683, 1447.193
727.8504, 1447.571
728.3325, 1450.046
728.8146, 1453.106
729.2968, 1452.786
729.7789, 1449.479
730.2610, 1446.769
730.7431, 1447.147
731.2252, 1448.812
731.7073, 1450.698
732.1895, 1452.736
732.6716, 1454.412
733.1537, 1455.375
733.6358, 1456.143
734.1179, 1456.984
734.6000, 1457.947
735.0822, 1458.661
735.5643, 1459.235
736.0464, 1459.150
736.5285, 1457.108
737.0106, 1453.914
737.4927, 1453.225
737.9749, 1455.699
738.4570, 1457.812
738.9391, 1455.199
739.4212, 1451.141
739.9033, 1449.656
740.3854, 1452.990
740.8676, 1455.514
741.3497, 1455.182
741.8318, 1453.573
742.3139, 1452.294
742.7960, 1451.411
743.2781, 1450.683
743.7603, 1450.006
744.2424, 1449.573
744.7245, 1449.748
745.2066, 1450.448
745.6887, 1451.122
746.1708, 1451.501
746.6530, 1452.082
747.1351, 1454.175
747.6172, 1456.719
748.0993, 1457.842
748.5814, 1455.869
749.0635, 1453.499
749.5457, 1451.004
750.0278, 1448.857
750.5099, 1448.150
750.9920, 1449.838
751.4741, 1451.165
751.9562, 1451.550
752.4384, 1451.377
752.9205, 1451.912
753.4026, 1453.123
753.8847, 1453.084
754.3668, 1450.426
754.8489, 1446.841
755.3311, 1444.977
755.8132, 1444.249
756.2953, 1443.004
756.7774, 1439.187
757.2595, 1435.901
757.7416, 1434.668
758.2238, 1435.317
758.7059, 1436.546
759.1880, 1439.014
759.6701, 1440.869
760.1522, 1441.748
760.6343, 1441.574
761.1165, 1439.393
761.5986, 1435.087
762.0807, 1431.353
762.5628, 1429.523
763.0449, 1429.276
763.5270, 1431.035
764.0092, 1434.261
764.4913, 1436.129
764.9734, 1433.787
765.4555, 1430.685
765.9376, 1428.855
766.4197, 1428.391
766.9019, 1428.029
767.3840, 1427.858
767.8661, 1427.547
768.3482, 1426.901
768.8303, 1425.940
769.3124, 1425.386
769.7946, 1425.320
770.2767, 1424.814
770.7588, 1421.979
771.2409, 1418.711
771.7230, 1419.144
772.2051, 1423.223
772.6873, 1426.737
773.1694, 1427.067
773.6515, 1426.054
774.1336, 1424.683
774.6157, 1422.907
775.0978, 1421.675
775.5800, 1421.157
776.0621, 1420.967
776.5442, 1421.061
777.0263, 1421.476
777.5084, 1421.019
777.9905, 1419.609
778.4727, 1418.072
778.9548, 1416.987
779.4369, 1416.303
779.9190, 1416.277
780.4011, 1416.999
780.8832, 1416.900
781.3654, 1413.639
781.8475, 1410.255
782.3296, 1409.313
782.8117, 1412.434
783.2938, 1413.800
783.7759, 1412.667
784.2581, 1410.850
784.7402, 1409.487
785.2223, 1408.584
785.7044, 1408.927
786.1865, 1410.686
786.6686, 1412.380
787.1508, 1412.197
787.6329, 1411.155
788.1150, 1410.816
788.5971, 1411.447
789.0792, 1412.440
789.5613, 1413.767
790.0435, 1415.123
790.5256, 1416.357
791.0077, 1417.800
791.4898, 1417.958
791.9719, 1416.114
792.4540, 1414.157
792.9362, 1414.385
793.4183, 1416.500
793.9004, 1416.633
794.3825, 1414.323
794.8646, 1411.619
795.3467, 1410.152
795.8289, 1409.641
796.3110, 1409.876
796.7931, 1411.057
797.2752, 1411.979
797.7573, 1412.309
798.2394, 1412.148
798.7216, 1411.558
799.2037, 1410.284
799.6858, 1409.206
800.1679, 1408.196
800.6500, 1407.648
801.1321, 1408.195
801.6143, 1409.589
802.0964, 1410.815
802.5785, 1411.806
803.0606, 1412.015
803.5427, 1409.882
804.0248, 1407.234
804.5070, 1406.308
804.9891, 1408.348
805.4712, 1409.521
805.9533, 1408.092
806.4354, 1406.200
806.9175, 1405.458
807.3997, 1406.280
807.8818, 1406.369
808.3639, 1405.426
808.8460, 1404.743
809.3281, 1406.885
809.8102, 1410.222
810.2924, 1409.787
810.7745, 1404.468
811.2566, 1399.703
811.7387, 1400.197
812.2208, 1402.496
812.7029, 1403.496
813.1851, 1402.087
813.6672, 1401.055
814.1493, 1400.529
814.6314, 1400.382
815.1135, 1400.842
815.5956, 1401.983
816.0778, 1401.521
816.5599, 1399.218
817.0420, 1396.455
817.5241, 1393.427
818.0062, 1391.251
818.4883, 1392.373
818.9705, 1397.597
819.4526, 1401.799
819.9347, 1402.115
820.4168, 1400.832
820.8989, 1399.409
821.3810, 1397.786
821.8632, 1396.666
822.3453, 1396.079
822.8274, 1395.928
823.3095, 1396.330
823.7916, 1397.155
824.2737, 1397.869
824.7559, 1398.463
825.2380, 1398.225
825.7201, 1395.711
826.2022, 1392.624
826.6843, 1390.598
827.1664, 1389.876
827.6486, 1389.818
828.1307, 1390.819
828.6128, 1391.960
829.0949, 1392.724
829.5770, 1393.038
830.0591, 1394.161
830.5413, 1396.237
831.0234, 1398.214
831.5055, 1399.326
831.9876, 1399.775
832.4697, 1400.033
832.9518, 1400.083
833.4340, 1399.537
833.9161, 1397.122
834.3982, 1394.886
834.8803, 1394.624
835.3624, 1396.627
835.8445, 1396.434
836.3267, 1392.429
836.8088, 1389.445
837.2909, 1390.524
837.7730, 1394.731
838.2551, 1396.082
838.7372, 1394.778
839.2194, 1393.816
839.7015, 1396.213
840.1836, 1399.123
840.6657, 1399.192
841.1478, 1396.918
841.6299, 1395.720
842.1121, 1399.049
842.5942, 1400.964
843.0763, 1398.713
843.5584, 1393.298
844.0405, 1390.469
844.5226, 1390.443
845.0048, 1391.333
845.4869, 1392.596
845.9690, 1393.990
846.4511, 1395.243
846.9332, 1396.242
847.4153, 1396.631
847.8975, 1395.214
848.3796, 1394.172
848.8617, 1394.981
849.3438, 1397.055
849.8259, 1398.379
850.3080, 1398.911
850.7902, 1398.627
851.2723, 1397.073
851.7544, 1395.261
852.2365, 1396.203
852.7186, 1399.292
853.2007, 1400.712
853.6829, 1398.076
854.1650, 1394.953
854.6471, 1394.767
855.1292, 1396.173
855.6113, 1396.914
856.0934, 1395.193
856.5756, 1394.360
857.0577, 1395.220
857.5398, 1396.751
858.0219, 1397.539
858.5040, 1397.550
858.9861, 1397.116
859.4683, 1396.129
859.9504, 1395.271
860.4325, 1395.365
860.9146, 1396.184
861.3967, 1397.498
861.8788, 1399.643
862.3610, 1401.165
862.8431, 1401.229
863.3252, 1400.565
863.8073, 1399.862
864.2894, 1399.067
864.7715, 1398.516
865.2537, 1398.404
865.7358, 1397.987
866.2179, 1395.601
866.7000, 1392.429
867.1821, 1392.328
867.6642, 1395.834
868.1464, 1398.747
868.6285, 1397.575
869.1106, 1395.271
869.5927, 1394.151
870.0748, 1394.778
870.5569, 1394.731
871.0391, 1393.426
871.5212, 1392.482
872.0033, 1392.999
872.4854, 1394.760
872.9675, 1396.387
873.4496, 1397.857
873.9318, 1398.790
874.4139, 1397.976
874.8960, 1397.200
875.3781, 1398.433
875.8602, 1401.421
876.3423, 1403.725
876.8245, 1404.758
877.3066, 1404.911
877.7887, 1403.786
878.2708, 1401.951
878.7529, 1402.339
879.2350, 1404.973
879.7172, 1406.171
880.1993, 1403.205
880.6814, 1399.334
881.1635, 1399.392
881.6456, 1401.883
882.1277, 1403.299
882.6099, 1401.309
883.0920, 1399.306
883.5741, 1397.985
884.0562, 1397.297
884.5383, 1397.476
885.0204, 1398.863
885.5026, 1398.557
885.9847, 1395.412
886.4668, 1392.251
886.9489, 1393.744
887.4310, 1397.969
887.9131, 1401.046
888.3953, 1401.877
888.8774, 1401.796
889.3595, 1400.499
889.8416, 1399.085
890.3237, 1398.519
890.8058, 1398.694
891.2880, 1400.357
891.7701, 1404.057
892.2522, 1407.475
892.7343, 1408.042
893.2164, 1406.744
893.6985, 1406.247
894.1807, 1406.759
894.6628, 1407.326
895.1449, 1408.037
895.6270, 1408.022
896.1091, 1405.958
896.5912, 1401.560
897.0734, 1400.118
897.5555, 1403.068
898.0376, 1405.508
898.5197, 1404.514
899.0018, 1401.385
899.4839, 1400.978
899.9661, 1402.891
900.4482, 1404.760
900.9303, 1405.646
901.4124, 1405.735
901.8945, 1404.939
902.3766, 1403.452
902.8588, 1401.748
903.3409, 1398.981
903.8230, 1397.832
904.3051, 1399.240
904.7872, 1401.973
905.2693, 1403.777
905.7515, 1404.719
906.2336, 1405.253
906.7157, 1405.436
907.1978, 1405.387
907.6799, 1404.620
908.1620, 1403.927
908.6442, 1404.380
909.1263, 1408.012
909.6084, 1409.389
910.0905, 1407.446
910.5726, 1404.557
911.0547, 1402.736
911.5369, 1401.935
912.0190, 1401.200
912.5011, 1400.464
912.9832, 1400.549
913.4653, 1403.209
913.9474, 1406.289
914.4296, 1407.462
914.9117, 1406.422
915.3938, 1406.071
915.8759, 1407.445
916.3580, 1408.671
916.8401, 1408.828
917.3223, 1408.170
917.8044, 1408.320
918.2865, 1409.225
918.7686, 1410.220
919.2507, 1411.263
919.7328, 1411.955
920.2150, 1411.958
920.6971, 1411.305
921.1792, 1410.074
921.6613, 1406.644
922.1434, 1404.982
922.6255, 1406.378
923.1077, 1409.127
923.5898, 1409.964
924.0719, 1409.049
924.5540, 1409.573
925.0361, 1412.552
925.5182, 1415.503
926.0004, 1415.615
926.4825, 1414.411
926.9646, 1413.679
927.4467, 1413.777
927.9288, 1414.342
928.4109, 1416.021
928.8931, 1417.238
929.3752, 1416.575
929.8573, 1414.089
930.3394, 1412.468
930.8215, 1411.732
931.3036, 1411.987
931.7858, 1414.663
932.2679, 1417.424
932.7500, 1417.658
933.2321, 1415.627
933.7142, 1414.020
934.1964, 1413.476
934.6785, 1413.450
935.1606, 1414.034
935.6427, 1414.942
936.1248, 1415.279
936.6069, 1415.071
937.0891, 1414.572
937.5712, 1413.294
938.0533, 1412.816
938.5354, 1415.727
939.0175, 1420.061
939.4996, 1422.887
939.9818, 1422.950
940.4639, 1422.087
940.9460, 1419.781
941.4281, 1417.446
941.9102, 1416.608
942.3923, 1417.144
942.8745, 1418.038
943.3566, 1419.244
943.8387, 1420.293
944.3208, 1420.593
944.8029, 1420.720
945.2850, 1421.209
945.7672, 1422.121
946.2493, 1422.957
946.7314, 1424.107
947.2135, 1424.348
947.6956, 1422.704
948.1777, 1420.016
948.6599, 1419.568
949.1420, 1421.051
949.6241, 1422.751
950.1062, 1424.039
950.5883, 1425.071
951.0704, 1425.652
951.5526, 1426.126
952.0347, 1427.203
952.5168, 1429.532
952.9989, 1431.330
953.4810, 1432.680
953.9631, 1433.034
954.4453, 1430.721
954.9274, 1426.792
955.4095, 1424.922
955.8916, 1425.662
956.3737, 1427.799
956.8558, 1431.821
957.3380, 1435.926
957.8201, 1438.823
958.3022, 1440.405
958.7843, 1441.280
959.2664, 1441.285
959.7485, 1441.004
960.2307, 1440.250
960.7128, 1439.714
961.1949, 1441.808
961.6770, 1445.719
962.1591, 1448.538
962.6412, 1447.334
963.1234, 1446.606
963.6055, 1448.477
964.0876, 1451.931
964.5697, 1455.267
965.0518, 1458.389
965.5339, 1461.855
966.0161, 1465.779
966.4982, 1470.034
966.9803, 1474.484
967.4624, 1479.184
967.9445, 1484.406
968.4266, 1490.401
968.9088, 1495.335
969.3909, 1496.236
969.8730, 1498.196
970.3551, 1504.631
970.8372, 1515.038
971.3193, 1521.514
971.8015, 1523.803
972.2836, 1527.702
972.7657, 1538.100
973.2478, 1550.210
973.7299, 1558.040
974.2120, 1563.131
974.6942, 1569.408
975.1763, 1580.356
975.6584, 1589.313
976.1405, 1594.803
976.6226, 1598.781
977.1047, 1605.126
977.5869, 1613.305
978.0690, 1616.474
978.5511, 1613.390
979.0332, 1607.891
979.5153, 1603.686
979.9974, 1598.188
980.4796, 1588.111
980.9617, 1572.281
981.4438, 1559.226
981.9259, 1550.169
982.4080, 1541.532
982.8901, 1531.317
983.3723, 1520.360
983.8544, 1511.030
984.3365, 1503.270
984.8186, 1496.857
985.3007, 1492.318
985.7828, 1488.377
986.2650, 1483.702
986.7471, 1479.492
987.2292, 1478.028
987.7113, 1480.855
988.1934, 1480.316
988.6755, 1475.059
989.1577, 1469.051
989.6398, 1467.461
990.1219, 1467.879
990.6040, 1465.674
991.0861, 1460.283
991.5682, 1456.326
992.0504, 1457.041
992.5325, 1458.235
993.0146, 1458.143
993.4967, 1456.957
993.9788, 1455.318
994.4609, 1453.252
994.9431, 1452.182
995.4252, 1453.690
995.9073, 1454.991
996.3894, 1451.720
996.8715, 1446.557
997.3536, 1443.828
997.8358, 1447.483
998.3179, 1449.373
998.8000, 1448.481
999.2821, 1447.035
999.7642, 1446.848
1000.246, 1447.934
1000.728, 1451.299
1001.211, 1456.834
1001.693, 1460.561
1002.175, 1458.225
1002.657, 1454.677
1003.139, 1452.848
1003.621, 1452.695
1004.103, 1452.946
1004.585, 1453.829
1005.068, 1454.158
1005.550, 1453.386
1006.032, 1452.350
1006.514, 1452.772
1006.996, 1453.870
1007.478, 1453.875
1007.960, 1451.449
1008.442, 1450.110
1008.924, 1451.992
1009.407, 1454.450
1009.889, 1455.688
1010.371, 1455.640
1010.853, 1456.518
1011.335, 1458.344
1011.817, 1459.601
1012.299, 1458.965
1012.781, 1457.572
1013.263, 1455.955
1013.746, 1454.410
1014.228, 1453.910
1014.710, 1455.537
1015.192, 1456.326
1015.674, 1455.438
1016.156, 1454.223
1016.638, 1455.138
1017.120, 1457.417
1017.603, 1458.442
1018.085, 1457.604
1018.567, 1457.025
1019.049, 1458.051
1019.531, 1459.694
1020.013, 1461.637
1020.495, 1463.796
1020.977, 1464.221
1021.459, 1462.755
1021.942, 1460.822
1022.424, 1458.562
1022.906, 1456.821
1023.388, 1457.258
1023.870, 1458.982
1024.352, 1460.242
1024.834, 1460.613
1025.316, 1460.242
1025.799, 1458.550
1026.281, 1457.027
1026.763, 1457.662
1027.245, 1460.014
1027.727, 1461.081
1028.209, 1460.737
1028.691, 1460.152
1029.173, 1459.566
1029.656, 1459.498
1030.138, 1460.658
1030.620, 1462.725
1031.102, 1463.911
1031.584, 1463.790
1032.066, 1464.666
1032.548, 1467.620
1033.030, 1470.532
1033.512, 1468.996
1033.995, 1465.592
1034.477, 1465.233
1034.959, 1470.234
1035.441, 1473.536
1035.923, 1472.103
1036.405, 1470.055
1036.887, 1469.683
1037.369, 1470.727
1037.851, 1470.562
1038.334, 1469.344
1038.816, 1468.419
1039.298, 1468.692
1039.780, 1469.401
1040.262, 1470.634
1040.744, 1471.805
1041.226, 1471.625
1041.708, 1469.240
1042.191, 1468.118
1042.673, 1468.691
1043.155, 1469.802
1043.637, 1469.934
1044.119, 1469.906
1044.601, 1471.829
1045.083, 1475.677
1045.565, 1477.638
1046.047, 1474.418
1046.530, 1471.335
1047.012, 1470.049
1047.494, 1470.042
1047.976, 1469.790
1048.458, 1469.416
1048.940, 1470.078
1049.422, 1472.448
1049.904, 1474.772
1050.386, 1475.810
1050.869, 1476.095
1051.351, 1475.908
1051.833, 1474.994
1052.315, 1475.561
1052.797, 1477.871
1053.279, 1480.471
1053.761, 1482.934
1054.243, 1484.890
1054.726, 1485.661
1055.208, 1485.415
1055.690, 1484.616
1056.172, 1482.681
1056.654, 1481.156
1057.136, 1479.802
1057.618, 1479.441
1058.100, 1482.261
1058.583, 1487.361
1059.065, 1488.058
1059.547, 1483.949
1060.029, 1479.842
1060.511, 1478.272
1060.993, 1478.581
1061.475, 1481.935
1061.957, 1487.044
1062.439, 1488.160
1062.922, 1484.428
1063.404, 1482.364
1063.886, 1484.198
1064.368, 1486.492
1064.850, 1483.858
1065.332, 1479.561
1065.814, 1478.458
1066.296, 1482.552
1066.778, 1484.737
1067.261, 1483.436
1067.743, 1481.867
1068.225, 1481.651
1068.707, 1482.414
1069.189, 1483.227
1069.671, 1483.975
1070.153, 1484.194
1070.635, 1483.047
1071.118, 1482.201
1071.600, 1482.340
1072.082, 1483.143
1072.564, 1484.626
1073.046, 1486.943
1073.528, 1487.302
1074.010, 1485.533
1074.492, 1484.330
1074.974, 1487.575
1075.457, 1490.773
1075.939, 1488.348
1076.421, 1482.140
1076.903, 1480.441
1077.385, 1486.039
1077.867, 1489.422
1078.349, 1488.427
1078.831, 1486.371
1079.313, 1488.271
1079.796, 1491.992
1080.278, 1493.482
1080.760, 1492.081
1081.242, 1490.901
1081.724, 1491.353
1082.206, 1491.791
1082.688, 1491.803
1083.170, 1491.303
1083.652, 1489.391
1084.135, 1486.520
1084.617, 1485.224
1085.099, 1486.878
1085.581, 1488.872
1086.063, 1489.845
1086.545, 1490.272
1087.027, 1490.593
1087.509, 1490.820
1087.992, 1491.263
1088.474, 1491.970
1088.956, 1492.462
1089.438, 1492.627
1089.920, 1492.269
1090.402, 1490.344
1090.884, 1487.861
1091.366, 1487.032
1091.849, 1488.877
1092.331, 1490.932
1092.813, 1493.097
1093.295, 1495.263
1093.777, 1497.742
1094.259, 1499.954
1094.741, 1500.709
1095.223, 1500.040
1095.705, 1498.694
1096.188, 1495.592
1096.670, 1493.797
1097.152, 1494.755
1097.634, 1496.759
1098.116, 1496.319
1098.598, 1494.000
1099.080, 1492.882
1099.562, 1493.548
1100.044, 1494.663
1100.527, 1495.568
1101.009, 1496.468
1101.491, 1497.895
1101.973, 1499.541
1102.455, 1498.452
1102.937, 1494.412
1103.419, 1493.915
1103.901, 1500.765
1104.384, 1507.796
1104.866, 1506.369
1105.348, 1501.403
1105.830, 1498.803
1106.312, 1500.078
1106.794, 1500.615
1107.276, 1500.163
1107.758, 1499.837
1108.240, 1500.774
1108.723, 1501.827
1109.205, 1499.770
1109.687, 1496.377
1110.169, 1495.694
1110.651, 1502.618
1111.133, 1506.986
1111.615, 1507.496
1112.097, 1506.391
1112.579, 1505.430
1113.062, 1504.594
1113.544, 1503.406
1114.026, 1502.078
1114.508, 1502.028
1114.990, 1506.044
1115.472, 1508.971
1115.954, 1508.123
1116.436, 1505.747
1116.919, 1505.445
1117.401, 1507.005
1117.883, 1506.521
1118.365, 1503.433
1118.847, 1501.805
1119.329, 1506.730
1119.811, 1512.321
1120.293, 1513.936
1120.776, 1512.568
1121.258, 1513.043
1121.740, 1515.735
1122.222, 1516.373
1122.704, 1513.477
1123.186, 1510.226
1123.668, 1510.023
1124.150, 1511.206
1124.632, 1512.181
1125.115, 1512.770
1125.597, 1512.373
1126.079, 1510.383
1126.561, 1509.642
1127.043, 1511.890
1127.525, 1514.999
1128.007, 1515.245
1128.489, 1513.923
1128.971, 1513.311
1129.454, 1514.447
1129.936, 1514.803
1130.418, 1513.480
1130.900, 1512.634
1131.382, 1513.871
1131.864, 1516.373
1132.346, 1517.885
1132.828, 1518.593
1133.311, 1519.101
1133.793, 1519.457
1134.275, 1519.924
1134.757, 1520.909
1135.239, 1521.620
1135.721, 1521.000
1136.203, 1519.326
1136.685, 1518.990
1137.167, 1519.903
1137.650, 1520.900
1138.132, 1521.265
1138.614, 1521.608
1139.096, 1522.282
1139.578, 1523.075
1140.060, 1523.800
1140.542, 1524.474
1141.024, 1524.259
1141.506, 1523.076
1141.989, 1522.092
1142.471, 1522.516
1142.953, 1523.150
1143.435, 1522.951
1143.917, 1522.271
1144.399, 1522.265
1144.881, 1522.906
1145.363, 1524.930
1145.846, 1528.805
1146.328, 1531.777
1146.810, 1529.892
1147.292, 1526.553
1147.774, 1524.653
1148.256, 1524.588
1148.738, 1526.333
1149.220, 1530.555
1149.703, 1533.869
1150.185, 1535.266
1150.667, 1535.599
1151.149, 1535.164
1151.631, 1534.785
1152.113, 1535.777
1152.595, 1538.580
1153.077, 1541.034
1153.559, 1543.279
1154.042, 1544.298
1154.524, 1543.160
1155.006, 1541.302
1155.488, 1541.819
1155.970, 1543.479
1156.452, 1543.615
1156.934, 1540.425
1157.416, 1539.428
1157.898, 1542.258
1158.381, 1545.287
1158.863, 1546.734
1159.345, 1546.816
1159.827, 1545.631
1160.309, 1543.635
1160.791, 1542.066
1161.273, 1541.465
1161.755, 1541.303
1162.238, 1542.136
1162.720, 1542.542
1163.202, 1541.082
1163.684, 1538.262
1164.166, 1536.425
1164.648, 1535.559
1165.130, 1535.647
1165.612, 1537.465
1166.094, 1539.221
1166.577, 1540.474
1167.059, 1541.233
1167.541, 1541.357
1168.023, 1540.874
1168.505, 1540.069
1168.987, 1539.015
1169.469, 1538.481
1169.951, 1539.238
1170.433, 1540.213
1170.916, 1541.072
1171.398, 1541.784
1171.880, 1542.726
1172.362, 1543.812
1172.844, 1541.850
1173.326, 1536.742
1173.808, 1532.917
1174.290, 1535.247
1174.773, 1538.006
1175.255, 1537.516
1175.737, 1535.280
1176.219, 1534.073
1176.701, 1533.902
1177.183, 1533.817
1177.665, 1533.686
1178.147, 1533.870
1178.630, 1534.682
1179.112, 1535.872
1179.594, 1537.751
1180.076, 1539.821
1180.558, 1540.105
1181.040, 1538.429
1181.522, 1538.664
1182.004, 1541.848
1182.486, 1544.809
1182.969, 1544.284
1183.451, 1542.670
1183.933, 1541.661
1184.415, 1541.337
1184.897, 1541.673
1185.379, 1542.734
1185.861, 1543.818
1186.343, 1544.927
1186.825, 1545.234
1187.308, 1542.908
1187.790, 1540.143
1188.272, 1539.347
1188.754, 1540.582
1189.236, 1540.881
1189.718, 1540.043
1190.200, 1540.658
1190.682, 1544.175
1191.165, 1547.722
1191.647, 1548.109
1192.129, 1546.970
1192.611, 1546.005
1193.093, 1545.414
1193.575, 1544.045
1194.057, 1541.599
1194.539, 1540.483
1195.021, 1542.043
1195.504, 1544.419
1195.986, 1545.688
1196.468, 1546.402
1196.950, 1547.155
1197.432, 1547.942
1197.914, 1549.319
1198.396, 1551.401
1198.878, 1553.286
1199.360, 1554.885
1199.843, 1555.529
1200.325, 1553.517
1200.807, 1550.472
1201.289, 1548.791
1201.771, 1549.110
1202.253, 1549.059
1202.735, 1548.510
1203.217, 1548.626
1203.700, 1550.679
1204.182, 1553.008
1204.664, 1553.540
1205.146, 1553.119
1205.628, 1553.117
1206.110, 1553.847
1206.592, 1554.411
1207.074, 1554.794
1207.557, 1554.997
1208.039, 1554.826
1208.521, 1554.626
1209.003, 1554.817
1209.485, 1555.229
1209.967, 1555.483
1210.449, 1555.026
1210.931, 1556.221
1211.413, 1559.440
1211.896, 1561.989
1212.378, 1560.977
1212.860, 1559.258
1213.342, 1560.734
1213.824, 1563.583
1214.306, 1563.720
1214.788, 1559.671
1215.270, 1557.326
1215.752, 1556.891
1216.235, 1557.601
1216.717, 1559.912
1217.199, 1562.202
1217.681, 1562.849
1218.163, 1562.228
1218.645, 1561.089
1219.127, 1559.133
1219.609, 1558.301
1220.092, 1558.745
1220.574, 1559.605
1221.056, 1561.125
1221.538, 1561.915
1222.020, 1559.534
1222.502, 1555.694
1222.984, 1554.339
1223.466, 1555.998
1223.948, 1558.121
1224.431, 1560.591
1224.913, 1562.996
1225.395, 1565.033
1225.877, 1566.833
1226.359, 1568.957
1226.841, 1570.785
1227.323, 1570.723
1227.805, 1568.289
1228.287, 1567.578
1228.770, 1568.960
1229.252, 1570.504
1229.734, 1570.734
1230.216, 1570.463
1230.698, 1569.828
1231.180, 1569.266
1231.662, 1569.835
1232.144, 1571.665
1232.627, 1572.653
1233.109, 1572.607
1233.591, 1572.251
1234.073, 1571.938
1234.555, 1571.706
1235.037, 1571.717
1235.519, 1571.783
1236.001, 1571.337
1236.484, 1570.393
1236.966, 1570.904
1237.448, 1573.045
1237.930, 1574.714
1238.412, 1573.782
1238.894, 1572.731
1239.376, 1573.326
1239.858, 1574.497
1240.340, 1574.264
1240.823, 1572.806
1241.305, 1572.456
1241.787, 1573.380
1242.269, 1573.868
1242.751, 1571.677
1243.233, 1570.244
1243.715, 1571.336
1244.197, 1573.774
1244.679, 1576.011
1245.162, 1578.045
1245.644, 1579.673
1246.126, 1580.911
1246.608, 1582.012
1247.090, 1583.553
1247.572, 1584.324
1248.054, 1583.622
1248.536, 1582.485
1249.019, 1582.784
1249.501, 1583.921
1249.983, 1583.346
1250.465, 1581.131
1250.947, 1580.870
1251.429, 1587.169
1251.911, 1591.121
1252.393, 1590.204
1252.875, 1587.507
1253.358, 1587.010
1253.840, 1587.993
1254.322, 1589.238
1254.804, 1590.509
1255.286, 1590.764
1255.768, 1588.795
1256.250, 1587.469
1256.732, 1587.381
1257.214, 1587.713
1257.697, 1587.325
1258.179, 1586.780
1258.661, 1587.532
1259.143, 1589.253
1259.625, 1588.942
1260.107, 1584.907
1260.589, 1582.672
1261.071, 1583.236
1261.554, 1584.849
1262.036, 1586.068
1262.518, 1586.969
1263.000, 1587.159
1263.482, 1587.042
1263.964, 1588.632
1264.446, 1592.656
1264.928, 1595.364
1265.411, 1596.252
1265.893, 1595.868
1266.375, 1593.281
1266.857, 1590.893
1267.339, 1590.889
1267.821, 1592.852
1268.303, 1595.371
1268.785, 1598.621
1269.267, 1599.960
1269.750, 1599.049
1270.232, 1597.975
1270.714, 1598.374
1271.196, 1599.052
1271.678, 1599.591
1272.160, 1599.733
1272.642, 1598.674
1273.124, 1596.577
1273.606, 1595.636
1274.089, 1596.009
1274.571, 1597.075
1275.053, 1600.241
1275.535, 1601.672
1276.017, 1598.545
1276.499, 1594.699
1276.981, 1596.193
1277.463, 1601.316
1277.946, 1603.463
1278.428, 1602.505
1278.910, 1600.998
1279.392, 1599.307
1279.874, 1598.308
1280.356, 1598.318
1280.838, 1598.633
1281.320, 1598.036
1281.802, 1597.349
1282.285, 1599.041
1282.767, 1602.413
1283.249, 1603.983
1283.731, 1601.199
1284.213, 1599.925
1284.695, 1600.865
1285.177, 1602.414
1285.659, 1603.388
1286.141, 1603.926
1286.624, 1604.011
1287.106, 1603.820
1287.588, 1603.571
1288.070, 1602.572
1288.552, 1605.288
1289.034, 1612.410
1289.516, 1617.610
1289.998, 1614.265
1290.481, 1608.812
1290.963, 1604.780
1291.445, 1603.028
1291.927, 1605.059
1292.409, 1611.253
1292.891, 1613.702
1293.373, 1612.480
1293.855, 1611.358
1294.338, 1612.611
1294.820, 1614.486
1295.302, 1616.907
1295.784, 1618.934
1296.266, 1619.397
1296.748, 1618.631
1297.230, 1618.875
1297.712, 1620.012
1298.194, 1621.128
1298.677, 1620.280
1299.159, 1621.061
1299.641, 1624.872
1300.123, 1628.384
1300.605, 1628.285
1301.087, 1626.372
1301.569, 1627.464
1302.051, 1629.786
1302.533, 1629.446
1303.016, 1624.214
##END=



