##NAMES=Ardealite
##RRUFFID=R060233
##IDEAL CHEMISTRY=Ca_2_(PO_3_OH)(S^6+^O_4_)&#183;4H_2_O
##LOCALITY=Moorba Cave, Jurien Bay, Western Australia, Australia
##OWNER=RRUFF
##SOURCE=Michael Scott
##DESCRIPTION=Tan colored powder
##STATUS=The identification of this mineral has been confirmed by X-ray diffraction and chemical analysis
##URL=rruff.info/R060233
##MEASURED CHEMISTRY=(Ca_1.98_Fe_0.02_)_Σ=2_(HP_1.00_O_4_)(S_1.00_O_4_)·4H_2_O ; H not measured but assumed
215.9821, 27266.16
216.4642, 27278.11
216.9463, 27309.13
217.4284, 27342.44
217.9105, 27372.31
218.3927, 27399.71
218.8748, 27417.96
219.3569, 27422.16
219.8390, 27419.69
220.3211, 27427.01
220.8032, 27446.38
221.2854, 27471.34
221.7675, 27500.51
222.2496, 27535.38
222.7317, 27569.13
223.2138, 27603.68
223.6959, 27635.88
224.1781, 27658.44
224.6602, 27665.21
225.1423, 27672.68
225.6244, 27687.85
226.1065, 27714.43
226.5886, 27737.71
227.0708, 27756.24
227.5529, 27772.31
228.0350, 27791.69
228.5171, 27819.43
228.9992, 27842.50
229.4813, 27855.37
229.9635, 27854.76
230.4456, 27854.58
230.9277, 27856.04
231.4098, 27857.60
231.8919, 27855.35
232.3740, 27844.64
232.8562, 27838.16
233.3383, 27840.98
233.8204, 27855.55
234.3025, 27872.24
234.7846, 27893.28
235.2667, 27915.54
235.7489, 27932.26
236.2310, 27939.05
236.7131, 27947.76
237.1952, 27962.91
237.6773, 27986.00
238.1594, 28010.66
238.6416, 28040.36
239.1237, 28069.88
239.6058, 28089.06
240.0879, 28087.63
240.5700, 28093.10
241.0521, 28116.10
241.5343, 28161.51
242.0164, 28200.72
242.4985, 28228.73
242.9806, 28253.39
243.4627, 28287.02
243.9448, 28336.21
244.4270, 28381.88
244.9091, 28417.66
245.3912, 28441.30
245.8733, 28464.81
246.3554, 28488.71
246.8375, 28511.34
247.3197, 28530.22
247.8018, 28542.53
248.2839, 28556.04
248.7660, 28575.00
249.2481, 28601.72
249.7302, 28616.30
250.2124, 28610.51
250.6945, 28601.17
251.1766, 28608.91
251.6587, 28644.21
252.1408, 28677.41
252.6229, 28701.94
253.1051, 28717.68
253.5872, 28732.48
254.0693, 28744.48
254.5514, 28758.23
255.0335, 28779.70
255.5156, 28814.31
255.9978, 28843.67
256.4799, 28862.22
256.9620, 28869.87
257.4441, 28880.95
257.9262, 28894.59
258.4083, 28911.93
258.8904, 28935.59
259.3726, 28971.57
259.8547, 28998.15
260.3368, 29006.97
260.8189, 29000.59
261.3010, 29008.97
261.7831, 29039.56
262.2653, 29073.13
262.7474, 29093.54
263.2295, 29096.42
263.7116, 29099.92
264.1937, 29106.76
264.6758, 29116.54
265.1580, 29126.03
265.6401, 29133.82
266.1222, 29144.55
266.6043, 29163.62
267.0864, 29196.24
267.5685, 29218.54
268.0507, 29223.06
268.5328, 29217.17
269.0149, 29232.49
269.4970, 29280.40
269.9791, 29323.38
270.4612, 29333.25
270.9434, 29297.98
271.4255, 29288.39
271.9076, 29315.54
272.3897, 29366.24
272.8718, 29407.61
273.3539, 29438.10
273.8361, 29462.87
274.3182, 29482.94
274.8003, 29497.19
275.2824, 29512.53
275.7645, 29528.91
276.2466, 29545.91
276.7288, 29562.39
277.2109, 29577.59
277.6930, 29594.81
278.1751, 29617.04
278.6572, 29644.96
279.1393, 29668.13
279.6215, 29687.21
280.1036, 29701.35
280.5857, 29706.65
281.0678, 29702.27
281.5499, 29701.37
282.0320, 29712.69
282.5142, 29734.96
282.9963, 29745.32
283.4784, 29741.33
283.9605, 29733.54
284.4426, 29733.84
284.9247, 29742.22
285.4069, 29756.81
285.8890, 29779.79
286.3711, 29808.47
286.8532, 29828.27
287.3353, 29836.96
287.8174, 29848.27
288.2996, 29881.33
288.7817, 29933.93
289.2638, 29979.16
289.7459, 30008.73
290.2280, 30026.76
290.7101, 30042.45
291.1923, 30055.54
291.6744, 30072.84
292.1565, 30102.05
292.6386, 30141.27
293.1207, 30181.99
293.6028, 30224.70
294.0850, 30264.58
294.5671, 30291.35
295.0492, 30305.43
295.5313, 30319.00
296.0134, 30343.10
296.4955, 30373.30
296.9777, 30397.26
297.4598, 30412.62
297.9419, 30420.94
298.4240, 30419.20
298.9061, 30410.03
299.3882, 30406.92
299.8704, 30424.82
300.3525, 30453.86
300.8346, 30474.19
301.3167, 30482.74
301.7988, 30488.79
302.2809, 30502.04
302.7631, 30521.34
303.2452, 30543.03
303.7273, 30565.84
304.2094, 30589.93
304.6915, 30615.18
305.1736, 30641.93
305.6558, 30668.95
306.1379, 30695.47
306.6200, 30721.28
307.1021, 30745.93
307.5842, 30764.68
308.0663, 30784.30
308.5485, 30814.96
309.0306, 30855.63
309.5127, 30891.14
309.9948, 30904.07
310.4769, 30907.17
310.9590, 30916.98
311.4412, 30946.10
311.9233, 30976.33
312.4054, 30994.22
312.8875, 31001.70
313.3696, 31008.01
313.8517, 31017.74
314.3339, 31029.22
314.8160, 31040.92
315.2981, 31050.64
315.7802, 31064.65
316.2623, 31091.74
316.7444, 31127.00
317.2266, 31156.90
317.7087, 31169.56
318.1908, 31179.69
318.6729, 31198.79
319.1550, 31235.33
319.6371, 31262.63
320.1193, 31261.17
320.6014, 31245.85
321.0835, 31241.11
321.5656, 31261.17
322.0477, 31286.24
322.5298, 31307.99
323.0120, 31324.39
323.4941, 31342.06
323.9762, 31364.34
324.4583, 31387.27
324.9404, 31406.71
325.4225, 31412.90
325.9047, 31424.97
326.3868, 31451.85
326.8689, 31494.89
327.3510, 31529.83
327.8331, 31551.93
328.3152, 31568.33
328.7974, 31583.97
329.2795, 31595.02
329.7616, 31610.74
330.2437, 31633.98
330.7258, 31663.13
331.2079, 31690.00
331.6901, 31713.99
332.1722, 31735.79
332.6543, 31755.59
333.1364, 31772.75
333.6185, 31786.98
334.1006, 31793.72
334.5828, 31798.06
335.0649, 31812.38
335.5470, 31839.30
336.0291, 31871.20
336.5112, 31907.18
336.9933, 31950.33
337.4755, 31981.88
337.9576, 31996.62
338.4397, 32005.93
338.9218, 32025.95
339.4039, 32059.24
339.8860, 32094.71
340.3681, 32132.35
340.8503, 32171.42
341.3324, 32193.21
341.8145, 32194.19
342.2966, 32189.17
342.7787, 32190.03
343.2608, 32196.76
343.7430, 32211.87
344.2251, 32239.07
344.7072, 32272.63
345.1893, 32294.04
345.6714, 32302.74
346.1535, 32308.34
346.6357, 32313.13
347.1178, 32318.95
347.5999, 32340.03
348.0820, 32382.38
348.5641, 32429.94
349.0462, 32453.48
349.5284, 32456.33
350.0105, 32465.35
350.4926, 32502.60
350.9747, 32554.87
351.4568, 32591.65
351.9389, 32610.54
352.4211, 32624.20
352.9032, 32645.97
353.3853, 32672.49
353.8674, 32695.47
354.3495, 32710.29
354.8316, 32721.17
355.3138, 32731.76
355.7959, 32742.43
356.2780, 32755.20
356.7601, 32776.61
357.2422, 32799.70
357.7243, 32814.34
358.2065, 32810.45
358.6886, 32808.86
359.1707, 32824.00
359.6528, 32853.07
360.1349, 32887.63
360.6170, 32929.97
361.0992, 32971.76
361.5813, 33006.22
362.0634, 33029.70
362.5455, 33052.45
363.0276, 33076.60
363.5097, 33102.45
363.9919, 33130.66
364.4740, 33168.25
364.9561, 33201.52
365.4382, 33223.27
365.9203, 33232.18
366.4024, 33241.99
366.8846, 33259.14
367.3667, 33276.43
367.8488, 33288.10
368.3309, 33287.98
368.8130, 33288.86
369.2951, 33298.93
369.7773, 33314.95
370.2594, 33312.97
370.7415, 33263.61
371.2236, 33224.18
371.7057, 33223.08
372.1878, 33292.23
372.6700, 33338.72
373.1521, 33352.63
373.6342, 33348.05
374.1163, 33352.49
374.5984, 33372.35
375.0805, 33387.85
375.5627, 33388.99
376.0448, 33373.12
376.5269, 33373.63
377.0090, 33393.57
377.4911, 33423.65
377.9732, 33456.83
378.4554, 33494.18
378.9375, 33524.87
379.4196, 33546.38
379.9017, 33559.80
380.3838, 33568.29
380.8659, 33571.25
381.3481, 33574.80
381.8302, 33584.85
382.3123, 33600.55
382.7944, 33612.93
383.2765, 33620.07
383.7586, 33627.50
384.2408, 33645.66
384.7229, 33673.05
385.2050, 33700.25
385.6871, 33721.16
386.1692, 33738.83
386.6513, 33760.24
387.1335, 33785.54
387.6156, 33811.02
388.0977, 33829.44
388.5798, 33845.44
389.0619, 33868.46
389.5440, 33906.79
390.0262, 33947.25
390.5083, 33977.09
390.9904, 33998.11
391.4725, 34018.59
391.9546, 34042.05
392.4367, 34067.24
392.9189, 34095.01
393.4010, 34129.07
393.8831, 34155.68
394.3652, 34159.64
394.8473, 34152.91
395.3294, 34155.34
395.8116, 34179.40
396.2937, 34209.13
396.7758, 34240.00
397.2579, 34272.24
397.7400, 34300.84
398.2221, 34319.45
398.7043, 34336.68
399.1864, 34359.41
399.6685, 34402.73
400.1506, 34434.42
400.6327, 34446.49
401.1148, 34442.86
401.5970, 34442.02
402.0791, 34442.08
402.5612, 34447.08
403.0433, 34460.88
403.5254, 34491.37
404.0075, 34508.48
404.4897, 34505.02
404.9718, 34495.66
405.4539, 34504.43
405.9360, 34538.33
406.4181, 34570.62
406.9002, 34593.82
407.3824, 34608.88
407.8645, 34624.38
408.3466, 34639.55
408.8287, 34657.39
409.3108, 34680.63
409.7929, 34708.70
410.2751, 34738.34
410.7572, 34767.89
411.2393, 34799.62
411.7214, 34839.90
412.2035, 34887.48
412.6856, 34932.67
413.1678, 34970.03
413.6499, 35000.92
414.1320, 35030.43
414.6141, 35059.90
415.0962, 35082.13
415.5783, 35083.28
416.0605, 35074.02
416.5426, 35074.46
417.0247, 35102.62
417.5068, 35134.54
417.9889, 35147.86
418.4710, 35145.97
418.9532, 35144.35
419.4353, 35144.98
419.9174, 35152.57
420.3995, 35172.13
420.8816, 35208.46
421.3637, 35244.89
421.8459, 35271.67
422.3280, 35293.97
422.8101, 35320.45
423.2922, 35369.10
423.7743, 35405.63
424.2564, 35413.91
424.7386, 35391.41
425.2207, 35373.19
425.7028, 35365.62
426.1849, 35361.92
426.6670, 35357.87
427.1491, 35351.30
427.6313, 35349.56
428.1134, 35353.36
428.5955, 35363.21
429.0776, 35381.61
429.5597, 35416.94
430.0418, 35445.86
430.5240, 35458.24
431.0061, 35452.87
431.4882, 35447.33
431.9703, 35439.69
432.4524, 35435.82
432.9345, 35442.79
433.4167, 35460.38
433.8988, 35482.73
434.3809, 35509.29
434.8630, 35537.87
435.3451, 35563.27
435.8272, 35585.44
436.3094, 35606.36
436.7915, 35628.06
437.2736, 35649.59
437.7557, 35665.66
438.2378, 35674.29
438.7199, 35688.02
439.2020, 35728.82
439.6841, 35783.87
440.1663, 35826.77
440.6484, 35830.21
441.1305, 35829.20
441.6126, 35855.34
442.0947, 35904.73
442.5768, 35953.36
443.0590, 35994.20
443.5411, 36025.52
444.0232, 36043.09
444.5053, 36035.91
444.9874, 36036.91
445.4695, 36065.73
445.9517, 36107.37
446.4338, 36138.06
446.9159, 36140.94
447.3980, 36144.67
447.8801, 36159.66
448.3622, 36187.34
448.8444, 36205.87
449.3265, 36207.23
449.8086, 36206.89
450.2907, 36215.71
450.7728, 36240.68
451.2549, 36260.21
451.7371, 36271.05
452.2192, 36277.81
452.7013, 36290.54
453.1834, 36310.58
453.6655, 36332.26
454.1476, 36355.05
454.6298, 36378.14
455.1119, 36391.88
455.5940, 36394.25
456.0761, 36396.26
456.5582, 36405.11
457.0403, 36421.49
457.5225, 36453.13
458.0046, 36506.48
458.4867, 36564.36
458.9688, 36598.57
459.4509, 36613.29
459.9330, 36625.17
460.4152, 36647.07
460.8973, 36669.57
461.3794, 36677.82
461.8615, 36670.88
462.3436, 36667.93
462.8257, 36684.17
463.3079, 36710.51
463.7900, 36736.95
464.2721, 36766.38
464.7542, 36789.05
465.2363, 36797.48
465.7184, 36795.96
466.2006, 36796.44
466.6827, 36801.51
467.1648, 36809.82
467.6469, 36821.70
468.1290, 36838.50
468.6111, 36854.13
469.0933, 36867.92
469.5754, 36881.17
470.0575, 36895.16
470.5396, 36909.88
471.0217, 36925.65
471.5038, 36943.07
471.9860, 36961.64
472.4681, 36979.69
472.9502, 36996.89
473.4323, 37014.45
473.9144, 37030.54
474.3965, 37045.35
474.8787, 37071.63
475.3608, 37110.98
475.8429, 37151.96
476.3250, 37180.81
476.8071, 37199.14
477.2892, 37216.44
477.7714, 37235.90
478.2535, 37253.73
478.7356, 37259.98
479.2177, 37258.12
479.6998, 37262.89
480.1819, 37293.61
480.6641, 37329.80
481.1462, 37345.64
481.6283, 37337.92
482.1104, 37337.18
482.5925, 37369.86
483.0746, 37415.58
483.5568, 37453.43
484.0389, 37476.68
484.5210, 37492.31
485.0031, 37492.30
485.4852, 37484.74
485.9673, 37494.64
486.4495, 37541.14
486.9316, 37590.60
487.4137, 37631.04
487.8958, 37659.73
488.3779, 37691.05
488.8600, 37727.21
489.3422, 37762.59
489.8243, 37791.71
490.3064, 37811.29
490.7885, 37833.78
491.2706, 37863.20
491.7527, 37893.89
492.2349, 37909.64
492.7170, 37908.83
493.1991, 37911.52
493.6812, 37932.91
494.1633, 37966.99
494.6454, 37988.18
495.1276, 37996.25
495.6097, 37999.34
496.0918, 38002.51
496.5739, 38006.59
497.0560, 38012.42
497.5381, 38019.19
498.0203, 38030.58
498.5024, 38053.68
498.9845, 38084.04
499.4666, 38112.28
499.9487, 38133.68
500.4308, 38151.83
500.9130, 38168.36
501.3951, 38183.33
501.8772, 38197.68
502.3593, 38207.57
502.8414, 38219.45
503.3235, 38237.95
503.8057, 38272.77
504.2878, 38300.68
504.7699, 38319.26
505.2520, 38331.06
505.7341, 38338.92
506.2162, 38336.63
506.6984, 38341.79
507.1805, 38361.27
507.6626, 38392.63
508.1447, 38414.57
508.6268, 38424.67
509.1089, 38432.88
509.5911, 38443.25
510.0732, 38456.39
510.5553, 38484.32
511.0374, 38532.09
511.5195, 38579.11
512.0016, 38596.98
512.4838, 38592.00
512.9659, 38584.04
513.4480, 38577.18
513.9301, 38574.24
514.4122, 38580.52
514.8943, 38594.46
515.3765, 38608.73
515.8586, 38622.29
516.3407, 38632.54
516.8228, 38636.23
517.3049, 38631.81
517.7870, 38627.16
518.2692, 38616.45
518.7513, 38610.59
519.2334, 38620.24
519.7155, 38668.07
520.1976, 38706.14
520.6797, 38729.11
521.1619, 38739.20
521.6440, 38739.93
522.1261, 38720.33
522.6082, 38711.80
523.0903, 38730.19
523.5724, 38776.50
524.0546, 38807.18
524.5367, 38819.01
525.0188, 38825.79
525.5009, 38837.30
525.9830, 38853.94
526.4651, 38879.57
526.9473, 38916.52
527.4294, 38957.78
527.9115, 38995.85
528.3936, 39029.48
528.8757, 39055.71
529.3578, 39065.94
529.8400, 39071.62
530.3221, 39080.21
530.8042, 39092.50
531.2863, 39115.98
531.7684, 39173.48
532.2505, 39230.84
532.7327, 39256.89
533.2148, 39234.13
533.6969, 39223.29
534.1790, 39252.95
534.6611, 39297.96
535.1432, 39329.79
535.6254, 39343.68
536.1075, 39348.20
536.5896, 39338.25
537.0717, 39320.53
537.5538, 39319.78
538.0359, 39345.19
538.5181, 39367.51
539.0002, 39372.19
539.4823, 39359.94
539.9644, 39357.83
540.4465, 39366.64
540.9286, 39382.18
541.4108, 39401.95
541.8929, 39425.35
542.3750, 39449.07
542.8571, 39471.81
543.3392, 39495.75
543.8214, 39525.36
544.3035, 39558.21
544.7856, 39589.65
545.2677, 39626.38
545.7498, 39653.68
546.2319, 39650.52
546.7141, 39623.10
547.1962, 39608.65
547.6783, 39633.77
548.1604, 39667.18
548.6425, 39690.38
549.1246, 39694.81
549.6068, 39708.68
550.0889, 39744.27
550.5710, 39784.29
551.0531, 39813.70
551.5352, 39832.52
552.0173, 39839.42
552.4995, 39828.32
552.9816, 39809.11
553.4637, 39808.13
553.9458, 39827.90
554.4279, 39849.54
554.9100, 39866.68
555.3922, 39879.70
555.8743, 39888.03
556.3564, 39891.77
556.8385, 39896.20
557.3206, 39907.68
557.8027, 39922.10
558.2849, 39930.23
558.7670, 39928.25
559.2491, 39931.88
559.7312, 39959.45
560.2133, 39998.12
560.6954, 40030.36
561.1776, 40047.55
561.6597, 40059.27
562.1418, 40062.24
562.6239, 40060.64
563.1060, 40069.80
563.5881, 40104.96
564.0703, 40137.65
564.5524, 40157.96
565.0345, 40164.40
565.5166, 40177.48
565.9987, 40202.96
566.4808, 40225.57
566.9630, 40229.20
567.4451, 40211.41
567.9272, 40209.87
568.4093, 40229.78
568.8914, 40261.20
569.3735, 40295.18
569.8557, 40330.07
570.3378, 40357.93
570.8199, 40370.48
571.3020, 40380.55
571.7841, 40409.31
572.2662, 40450.93
572.7484, 40483.97
573.2305, 40485.23
573.7126, 40482.45
574.1947, 40497.45
574.6768, 40532.65
575.1589, 40564.38
575.6411, 40581.62
576.1232, 40594.08
576.6053, 40607.87
577.0874, 40619.54
577.5695, 40638.96
578.0516, 40673.99
578.5338, 40710.99
579.0159, 40725.48
579.4980, 40705.02
579.9801, 40708.26
580.4622, 40757.62
580.9443, 40833.93
581.4265, 40874.13
581.9086, 40878.45
582.3907, 40876.89
582.8728, 40882.48
583.3549, 40895.45
583.8370, 40923.45
584.3192, 40966.02
584.8013, 40996.59
585.2834, 40975.96
585.7655, 40941.95
586.2476, 40938.00
586.7297, 40979.05
587.2118, 41032.50
587.6939, 41109.81
588.1760, 41182.90
588.6581, 41216.02
589.1403, 41150.91
589.6224, 41106.30
590.1045, 41103.98
590.5866, 41133.77
591.0687, 41164.59
591.5508, 41199.80
592.0330, 41227.06
592.5151, 41240.00
592.9972, 41239.83
593.4793, 41238.29
593.9614, 41234.54
594.4435, 41237.55
594.9257, 41262.43
595.4078, 41300.57
595.8899, 41324.77
596.3720, 41331.14
596.8541, 41331.93
597.3362, 41333.50
597.8184, 41338.62
598.3005, 41351.15
598.7826, 41370.34
599.2647, 41400.07
599.7468, 41453.34
600.2289, 41517.90
600.7111, 41566.88
601.1932, 41571.48
601.6753, 41581.91
602.1574, 41614.96
602.6395, 41667.95
603.1216, 41711.36
603.6038, 41742.00
604.0859, 41767.41
604.5680, 41790.38
605.0501, 41810.31
605.5322, 41833.51
606.0143, 41861.79
606.4965, 41884.71
606.9786, 41882.75
607.4607, 41865.83
607.9428, 41870.81
608.4249, 41912.65
608.9070, 41956.21
609.3892, 41959.01
609.8713, 41939.30
610.3534, 41930.88
610.8355, 41968.96
611.3176, 42001.42
611.7997, 41994.95
612.2819, 41961.07
612.7640, 41943.20
613.2461, 41970.56
613.7282, 41994.80
614.2103, 41995.32
614.6924, 41969.85
615.1746, 41965.43
615.6567, 41992.33
616.1388, 42020.17
616.6209, 42024.21
617.1030, 42003.32
617.5851, 41999.21
618.0673, 42016.35
618.5494, 42040.70
619.0315, 42058.31
619.5136, 42070.09
619.9957, 42076.66
620.4778, 42076.42
620.9600, 42075.83
621.4421, 42081.40
621.9242, 42091.07
622.4063, 42100.48
622.8884, 42102.23
623.3705, 42108.21
623.8527, 42123.88
624.3348, 42147.80
624.8169, 42172.65
625.2990, 42197.75
625.7811, 42222.15
626.2632, 42246.91
626.7454, 42272.68
627.2275, 42283.49
627.7096, 42273.96
628.1917, 42264.01
628.6738, 42274.35
629.1559, 42302.82
629.6381, 42315.79
630.1202, 42308.10
630.6023, 42300.61
631.0844, 42322.22
631.5665, 42361.48
632.0486, 42393.52
632.5308, 42407.74
633.0129, 42418.79
633.4950, 42435.81
633.9771, 42456.73
634.4592, 42477.86
634.9413, 42490.44
635.4235, 42509.95
635.9056, 42543.16
636.3877, 42587.80
636.8698, 42632.59
637.3519, 42685.67
637.8340, 42722.54
638.3162, 42723.70
638.7983, 42690.09
639.2804, 42695.65
639.7625, 42746.27
640.2446, 42800.86
640.7267, 42822.37
641.2089, 42820.21
641.6910, 42826.45
642.1731, 42845.70
642.6552, 42862.61
643.1373, 42858.57
643.6194, 42845.63
644.1016, 42840.64
644.5837, 42855.41
645.0658, 42867.77
645.5479, 42860.19
646.0300, 42846.84
646.5121, 42850.59
646.9943, 42895.32
647.4764, 42933.45
647.9585, 42958.26
648.4406, 42971.87
648.9227, 42982.00
649.4048, 42987.67
649.8870, 42990.66
650.3691, 42985.60
650.8512, 42978.08
651.3333, 43000.97
651.8154, 43053.18
652.2975, 43100.16
652.7797, 43103.87
653.2618, 43092.47
653.7439, 43110.30
654.2260, 43161.63
654.7081, 43216.33
655.1902, 43268.63
655.6724, 43308.93
656.1545, 43327.22
656.6366, 43305.39
657.1187, 43294.64
657.6008, 43311.24
658.0829, 43337.30
658.5651, 43352.98
659.0472, 43349.21
659.5293, 43361.02
660.0114, 43398.43
660.4935, 43446.77
660.9756, 43477.89
661.4578, 43491.85
661.9399, 43494.78
662.4220, 43479.00
662.9041, 43463.15
663.3862, 43483.13
663.8683, 43530.75
664.3505, 43574.04
664.8326, 43589.90
665.3147, 43599.29
665.7968, 43618.95
666.2789, 43648.85
666.7610, 43668.68
667.2432, 43658.54
667.7253, 43650.64
668.2074, 43660.42
668.6895, 43690.46
669.1716, 43727.29
669.6537, 43775.01
670.1359, 43821.64
670.6180, 43860.45
671.1001, 43890.68
671.5822, 43899.15
672.0643, 43881.69
672.5464, 43855.47
673.0286, 43831.59
673.5107, 43815.39
673.9928, 43820.72
674.4749, 43862.65
674.9570, 43904.37
675.4391, 43919.81
675.9213, 43918.23
676.4034, 43914.55
676.8855, 43911.79
677.3676, 43909.13
677.8497, 43905.73
678.3318, 43902.55
678.8140, 43902.10
679.2961, 43904.52
679.7782, 43909.74
680.2603, 43919.71
680.7424, 43932.32
681.2245, 43936.52
681.7067, 43932.41
682.1888, 43930.40
682.6709, 43937.39
683.1530, 43951.01
683.6351, 43973.13
684.1172, 44002.35
684.5994, 44019.37
685.0815, 43994.69
685.5636, 43964.96
686.0457, 43959.53
686.5278, 43988.27
687.0099, 44018.21
687.4921, 44042.65
687.9742, 44067.27
688.4563, 44095.13
688.9384, 44124.04
689.4205, 44163.27
689.9026, 44217.13
690.3848, 44272.92
690.8669, 44311.99
691.3490, 44336.21
691.8311, 44361.13
692.3132, 44389.54
692.7953, 44419.63
693.2775, 44458.60
693.7596, 44496.70
694.2417, 44514.86
694.7238, 44476.15
695.2059, 44445.63
695.6880, 44461.09
696.1702, 44507.56
696.6523, 44543.12
697.1344, 44549.50
697.6165, 44561.15
698.0986, 44591.00
698.5807, 44633.44
699.0629, 44652.21
699.5450, 44641.91
700.0271, 44634.89
700.5092, 44650.65
700.9913, 44681.58
701.4734, 44703.76
701.9556, 44717.20
702.4377, 44721.90
702.9198, 44710.30
703.4019, 44694.54
703.8840, 44686.80
704.3661, 44688.26
704.8483, 44694.13
705.3304, 44705.64
705.8125, 44718.82
706.2946, 44731.31
706.7767, 44743.50
707.2589, 44753.88
707.7410, 44760.18
708.2231, 44768.21
708.7052, 44785.93
709.1873, 44813.70
709.6694, 44831.50
710.1516, 44835.23
710.6337, 44836.50
711.1158, 44851.67
711.5979, 44874.90
712.0800, 44892.15
712.5621, 44895.61
713.0443, 44901.47
713.5264, 44926.85
714.0085, 44959.74
714.4906, 44982.64
714.9727, 44976.79
715.4548, 44978.25
715.9370, 44995.31
716.4191, 45022.31
716.9012, 45049.06
717.3833, 45077.65
717.8654, 45097.68
718.3475, 45103.00
718.8297, 45100.75
719.3118, 45108.45
719.7939, 45125.45
720.2760, 45148.73
720.7581, 45180.86
721.2402, 45215.02
721.7224, 45245.06
722.2045, 45270.44
722.6866, 45290.07
723.1687, 45294.36
723.6508, 45300.73
724.1329, 45322.04
724.6151, 45358.52
725.0972, 45377.08
725.5793, 45369.79
726.0614, 45357.64
726.5435, 45347.56
727.0256, 45340.38
727.5078, 45352.18
727.9899, 45384.23
728.4720, 45422.75
728.9541, 45466.38
729.4362, 45506.04
729.9183, 45521.68
730.4005, 45510.70
730.8826, 45493.30
731.3647, 45471.68
731.8468, 45455.06
732.3289, 45452.55
732.8110, 45472.13
733.2932, 45487.50
733.7753, 45491.52
734.2574, 45495.58
734.7395, 45512.06
735.2216, 45545.52
735.7037, 45564.58
736.1859, 45565.79
736.6680, 45558.38
737.1501, 45547.75
737.6322, 45538.02
738.1143, 45543.65
738.5964, 45571.85
739.0786, 45604.06
739.5607, 45627.54
740.0428, 45644.75
740.5249, 45658.71
741.0070, 45670.54
741.4891, 45678.70
741.9713, 45675.50
742.4534, 45670.79
742.9355, 45680.87
743.4176, 45711.92
743.8997, 45734.95
744.3818, 45738.91
744.8640, 45738.66
745.3461, 45772.51
745.8282, 45834.12
746.3103, 45882.50
746.7924, 45895.45
747.2745, 45896.07
747.7567, 45907.19
748.2388, 45924.86
748.7209, 45938.98
749.2030, 45947.79
749.6851, 45950.87
750.1672, 45943.99
750.6494, 45931.07
751.1315, 45924.73
751.6136, 45921.84
752.0957, 45935.50
752.5778, 45980.26
753.0599, 46041.86
753.5421, 46058.38
754.0242, 46032.41
754.5063, 46009.82
754.9884, 46018.05
755.4705, 46043.59
755.9526, 46074.22
756.4348, 46108.34
756.9169, 46137.65
757.3990, 46146.78
757.8811, 46159.80
758.3632, 46193.34
758.8453, 46247.39
759.3275, 46286.67
759.8096, 46305.48
760.2917, 46317.92
760.7738, 46331.20
761.2559, 46344.14
761.7380, 46342.97
762.2202, 46327.02
762.7023, 46321.34
763.1844, 46354.57
763.6665, 46404.76
764.1486, 46442.28
764.6307, 46465.48
765.1129, 46479.58
765.5950, 46479.35
766.0771, 46477.38
766.5592, 46482.20
767.0413, 46496.46
767.5234, 46508.46
768.0056, 46519.21
768.4877, 46526.19
768.9698, 46525.68
769.4519, 46518.05
769.9340, 46517.84
770.4161, 46526.23
770.8983, 46534.55
771.3804, 46525.82
771.8625, 46515.98
772.3446, 46534.36
772.8267, 46587.35
773.3088, 46638.06
773.7910, 46670.79
774.2731, 46691.80
774.7552, 46702.36
775.2373, 46690.67
775.7194, 46703.49
776.2015, 46753.04
776.6837, 46808.07
777.1658, 46841.59
777.6479, 46853.87
778.1300, 46862.70
778.6121, 46868.39
779.0942, 46877.07
779.5764, 46894.58
780.0585, 46919.54
780.5406, 46952.77
781.0227, 46998.42
781.5048, 47036.35
781.9869, 47048.30
782.4691, 47053.46
782.9512, 47069.98
783.4332, 47109.40
783.9153, 47136.80
784.3975, 47147.37
784.8796, 47151.97
785.3617, 47156.88
785.8438, 47163.18
786.3259, 47197.18
786.8080, 47269.53
787.2902, 47328.81
787.7723, 47299.38
788.2544, 47230.56
788.7365, 47195.08
789.2186, 47220.48
789.7007, 47251.07
790.1829, 47266.25
790.6650, 47278.00
791.1471, 47299.97
791.6292, 47344.95
792.1113, 47370.25
792.5934, 47368.54
793.0756, 47359.32
793.5577, 47366.89
794.0398, 47389.25
794.5219, 47415.14
795.0040, 47444.82
795.4861, 47469.39
795.9683, 47473.03
796.4504, 47469.92
796.9325, 47479.55
797.4146, 47514.71
797.8967, 47547.17
798.3788, 47567.66
798.8610, 47583.46
799.3431, 47601.50
799.8252, 47622.20
800.3073, 47641.16
800.7894, 47654.90
801.2715, 47673.21
801.7537, 47721.49
802.2358, 47786.52
802.7179, 47820.08
803.2000, 47805.54
803.6821, 47781.12
804.1642, 47769.71
804.6464, 47768.55
805.1285, 47774.86
805.6106, 47795.92
806.0927, 47811.93
806.5748, 47820.75
807.0569, 47825.39
807.5391, 47827.36
808.0212, 47825.74
808.5033, 47834.21
808.9854, 47857.13
809.4675, 47881.21
809.9496, 47892.11
810.4318, 47891.56
810.9139, 47878.89
811.3960, 47846.52
811.8781, 47828.00
812.3602, 47853.28
812.8423, 47896.85
813.3245, 47930.92
813.8066, 47941.30
814.2887, 47960.96
814.7708, 47994.05
815.2529, 48029.32
815.7350, 48052.39
816.2172, 48063.86
816.6993, 48082.32
817.1814, 48111.60
817.6635, 48137.15
818.1456, 48137.09
818.6277, 48126.50
819.1099, 48125.90
819.5920, 48140.82
820.0741, 48164.01
820.5562, 48199.84
821.0383, 48239.53
821.5204, 48276.21
822.0026, 48311.07
822.4847, 48339.88
822.9668, 48361.52
823.4489, 48379.00
823.9310, 48397.40
824.4131, 48413.54
824.8953, 48411.91
825.3774, 48387.65
825.8595, 48369.87
826.3416, 48381.72
826.8237, 48409.61
827.3058, 48445.02
827.7880, 48495.27
828.2701, 48522.44
828.7522, 48510.30
829.2343, 48490.26
829.7164, 48485.02
830.1985, 48496.58
830.6807, 48508.67
831.1628, 48521.54
831.6449, 48537.89
832.1270, 48565.00
832.6091, 48595.74
833.0912, 48619.39
833.5734, 48634.63
834.0555, 48639.09
834.5376, 48604.02
835.0197, 48577.98
835.5018, 48604.51
835.9839, 48696.64
836.4661, 48740.30
836.9482, 48719.21
837.4303, 48687.16
837.9124, 48679.26
838.3945, 48691.02
838.8766, 48699.08
839.3588, 48703.93
839.8409, 48717.96
840.3230, 48761.16
840.8051, 48810.67
841.2872, 48846.57
841.7693, 48868.07
842.2515, 48887.08
842.7336, 48908.46
843.2157, 48925.09
843.6978, 48931.30
844.1799, 48928.45
844.6620, 48936.91
845.1442, 48956.69
845.6263, 48980.07
846.1084, 49004.14
846.5905, 49027.22
847.0726, 49047.43
847.5547, 49064.29
848.0369, 49076.98
848.5190, 49080.01
849.0011, 49083.69
849.4832, 49096.48
849.9653, 49115.49
850.4474, 49122.22
850.9296, 49111.32
851.4117, 49106.08
851.8938, 49115.11
852.3759, 49135.39
852.8580, 49163.88
853.3401, 49198.02
853.8223, 49223.99
854.3044, 49226.17
854.7865, 49227.32
855.2686, 49245.46
855.7507, 49274.55
856.2328, 49300.02
856.7150, 49317.64
857.1971, 49333.25
857.6792, 49345.49
858.1613, 49357.69
858.6434, 49377.76
859.1255, 49405.05
859.6077, 49430.52
860.0898, 49447.11
860.5719, 49468.89
861.0540, 49520.24
861.5361, 49585.11
862.0182, 49638.09
862.5004, 49666.75
862.9825, 49686.62
863.4646, 49691.06
863.9467, 49692.94
864.4288, 49708.26
864.9109, 49742.06
865.3931, 49762.33
865.8752, 49764.12
866.3573, 49760.94
866.8394, 49773.92
867.3215, 49794.11
867.8036, 49801.05
868.2858, 49789.77
868.7679, 49776.23
869.2500, 49765.96
869.7321, 49760.16
870.2142, 49760.43
870.6964, 49767.93
871.1785, 49779.34
871.6606, 49797.11
872.1427, 49812.35
872.6248, 49810.62
873.1069, 49798.69
873.5891, 49810.12
874.0712, 49845.52
874.5533, 49881.21
875.0354, 49898.17
875.5175, 49909.01
875.9996, 49923.01
876.4818, 49940.62
876.9639, 49958.23
877.4460, 49972.94
877.9281, 49990.20
878.4102, 50014.68
878.8923, 50043.76
879.3745, 50060.23
879.8566, 50064.69
880.3387, 50065.08
880.8208, 50062.55
881.3029, 50061.44
881.7850, 50071.69
882.2672, 50088.56
882.7493, 50094.82
883.2314, 50065.12
883.7135, 50051.66
884.1956, 50077.05
884.6777, 50123.45
885.1599, 50139.83
885.6420, 50124.68
886.1241, 50106.62
886.6062, 50086.36
887.0883, 50081.63
887.5704, 50131.53
888.0526, 50211.00
888.5347, 50272.95
889.0168, 50286.66
889.4989, 50300.94
889.9810, 50339.00
890.4631, 50378.10
890.9453, 50389.07
891.4274, 50360.77
891.9095, 50355.71
892.3916, 50384.45
892.8737, 50416.77
893.3558, 50414.75
893.8380, 50391.84
894.3201, 50372.81
894.8022, 50361.07
895.2843, 50362.38
895.7664, 50402.94
896.2485, 50441.33
896.7307, 50439.86
897.2128, 50387.94
897.6949, 50367.79
898.1770, 50385.94
898.6591, 50414.52
899.1412, 50435.30
899.6234, 50451.38
900.1055, 50472.93
900.5876, 50499.32
901.0697, 50528.15
901.5518, 50563.45
902.0339, 50594.68
902.5161, 50609.75
902.9982, 50611.75
903.4803, 50630.45
903.9624, 50678.40
904.4445, 50712.27
904.9266, 50711.75
905.4088, 50695.13
905.8909, 50713.09
906.3730, 50756.82
906.8551, 50789.31
907.3372, 50787.40
907.8193, 50781.14
908.3015, 50788.82
908.7836, 50805.68
909.2657, 50824.13
909.7478, 50846.44
910.2299, 50863.72
910.7120, 50875.29
911.1942, 50881.89
911.6763, 50882.93
912.1584, 50879.78
912.6405, 50878.62
913.1226, 50880.73
913.6047, 50885.55
914.0869, 50898.64
914.5690, 50911.20
915.0511, 50911.70
915.5332, 50891.37
916.0153, 50893.38
916.4974, 50932.30
916.9796, 50970.79
917.4617, 50981.65
917.9438, 50970.46
918.4259, 50981.84
918.9080, 51013.61
919.3901, 51041.17
919.8723, 51044.27
920.3544, 51039.64
920.8365, 51037.61
921.3186, 51038.94
921.8007, 51045.59
922.2828, 51059.41
922.7650, 51076.60
923.2471, 51099.11
923.7292, 51122.14
924.2113, 51129.11
924.6934, 51123.00
925.1755, 51124.50
925.6577, 51141.15
926.1398, 51165.89
926.6219, 51202.01
927.1040, 51238.93
927.5861, 51261.43
928.0682, 51246.76
928.5504, 51245.73
929.0325, 51259.48
929.5146, 51284.86
929.9967, 51328.91
930.4788, 51385.75
930.9609, 51405.74
931.4431, 51383.38
931.9252, 51361.67
932.4073, 51382.56
932.8894, 51413.82
933.3715, 51421.75
933.8536, 51400.61
934.3358, 51409.48
934.8179, 51480.14
935.3000, 51533.37
935.7821, 51528.66
936.2642, 51482.54
936.7463, 51459.00
937.2285, 51456.83
937.7106, 51468.64
938.1927, 51498.53
938.6748, 51532.84
939.1569, 51561.27
939.6390, 51586.04
940.1212, 51613.05
940.6033, 51651.75
941.0854, 51674.81
941.5675, 51672.04
942.0496, 51662.73
942.5317, 51681.23
943.0139, 51720.43
943.4960, 51745.17
943.9781, 51748.20
944.4602, 51746.10
944.9423, 51744.87
945.4244, 51749.17
945.9066, 51767.37
946.3887, 51810.02
946.8708, 51826.44
947.3529, 51806.52
947.8350, 51784.77
948.3171, 51785.68
948.7993, 51802.24
949.2814, 51802.95
949.7635, 51791.08
950.2456, 51788.49
950.7277, 51819.76
951.2098, 51852.86
951.6920, 51862.99
952.1741, 51858.96
952.6562, 51875.87
953.1383, 51923.58
953.6204, 51966.26
954.1025, 51997.91
954.5847, 52018.44
955.0668, 52022.55
955.5489, 52016.08
956.0310, 52014.07
956.5131, 52019.68
956.9952, 52032.21
957.4774, 52063.19
957.9595, 52092.87
958.4416, 52102.65
958.9237, 52087.38
959.4058, 52074.91
959.8879, 52063.87
960.3701, 52063.79
960.8522, 52092.04
961.3343, 52132.94
961.8164, 52149.46
962.2985, 52145.40
962.7806, 52149.77
963.2628, 52190.92
963.7449, 52225.66
964.2270, 52223.89
964.7091, 52266.92
965.1912, 52232.51
965.6733, 52315.34
966.1555, 52372.56
966.6376, 52380.93
967.1197, 52361.64
967.6018, 52313.00
968.0839, 52266.03
968.5660, 52279.77
969.0482, 52416.95
969.5303, 52508.09
970.0124, 52495.61
970.4945, 52453.36
970.9766, 52430.37
971.4587, 52427.13
971.9409, 52430.07
972.4230, 52438.55
972.9051, 52460.48
973.3872, 52514.45
973.8693, 52574.21
974.3514, 52614.59
974.8336, 52635.28
975.3157, 52645.89
975.7978, 52631.74
976.2799, 52632.44
976.7620, 52661.82
977.2441, 52706.98
977.7263, 52735.44
978.2084, 52751.68
978.6905, 52777.14
979.1726, 52819.23
979.6547, 52871.49
980.1368, 52954.25
980.6190, 53032.44
981.1010, 53061.25
981.5831, 53012.01
982.0652, 52988.67
982.5474, 52995.69
983.0295, 53016.75
983.5116, 53044.71
983.9937, 53075.40
984.4758, 53089.46
984.9579, 53090.46
985.4401, 53108.35
985.9222, 53174.07
986.4043, 53244.22
986.8864, 53297.71
987.3685, 53338.68
987.8506, 53377.08
988.3328, 53410.36
988.8149, 53456.04
989.2970, 53520.28
989.7791, 53593.76
990.2612, 53669.58
990.7433, 53744.20
991.2255, 53808.75
991.7076, 53851.12
992.1897, 53913.20
992.6718, 54024.57
993.1539, 54136.83
993.6360, 54211.99
994.1182, 54251.25
994.6003, 54341.86
995.0824, 54483.56
995.5645, 54615.00
996.0466, 54685.30
996.5287, 54740.23
997.0109, 54820.82
997.4930, 54920.02
997.9751, 55011.44
998.4572, 55091.80
998.9393, 55165.29
999.4214, 55229.44
999.9036, 55293.75
1000.386, 55379.62
1000.868, 55478.26
1001.350, 55562.87
1001.832, 55630.31
1002.314, 55668.27
1002.796, 55664.61
1003.278, 55630.35
1003.760, 55566.20
1004.243, 55470.16
1004.725, 55395.22
1005.207, 55346.07
1005.689, 55284.17
1006.171, 55175.37
1006.653, 55048.47
1007.135, 54947.27
1007.617, 54864.14
1008.100, 54776.82
1008.582, 54664.25
1009.064, 54564.06
1009.546, 54484.66
1010.028, 54419.11
1010.510, 54359.32
1010.992, 54305.41
1011.474, 54261.04
1011.956, 54227.59
1012.439, 54192.43
1012.921, 54134.59
1013.403, 54078.93
1013.885, 54050.64
1014.367, 54053.77
1014.849, 54057.09
1015.331, 54061.01
1015.813, 54063.42
1016.296, 54062.35
1016.778, 54060.70
1017.260, 54061.54
1017.742, 54066.82
1018.224, 54083.26
1018.706, 54116.95
1019.188, 54153.37
1019.670, 54189.43
1020.152, 54220.50
1020.635, 54240.45
1021.117, 54245.54
1021.599, 54253.95
1022.081, 54265.26
1022.563, 54280.41
1023.045, 54307.64
1023.527, 54334.16
1024.009, 54347.13
1024.492, 54346.50
1024.974, 54334.25
1025.456, 54298.50
1025.938, 54271.41
1026.420, 54259.24
1026.902, 54261.36
1027.384, 54283.27
1027.866, 54319.83
1028.349, 54349.34
1028.831, 54368.20
1029.313, 54374.70
1029.795, 54362.94
1030.277, 54342.34
1030.759, 54316.00
1031.241, 54281.88
1031.723, 54273.88
1032.205, 54295.08
1032.688, 54323.16
1033.170, 54348.54
1033.652, 54370.69
1034.134, 54376.95
1034.616, 54379.20
1035.098, 54407.41
1035.580, 54508.46
1036.062, 54583.44
1036.544, 54610.74
1037.027, 54617.95
1037.509, 54642.39
1037.991, 54678.40
1038.473, 54683.51
1038.955, 54653.64
1039.437, 54617.49
1039.919, 54585.35
1040.401, 54563.20
1040.884, 54557.37
1041.366, 54566.96
1041.848, 54583.88
1042.330, 54613.74
1042.812, 54627.25
1043.294, 54610.21
1043.776, 54587.27
1044.258, 54600.95
1044.740, 54632.70
1045.223, 54647.10
1045.705, 54622.67
1046.187, 54620.71
1046.669, 54673.13
1047.151, 54724.29
1047.633, 54728.64
1048.115, 54695.81
1048.597, 54706.64
1049.079, 54757.36
1049.562, 54819.67
1050.044, 54892.15
1050.526, 54953.65
1051.008, 54985.63
1051.490, 54996.07
1051.972, 55000.75
1052.454, 54992.11
1052.936, 55009.54
1053.419, 55062.34
1053.901, 55116.77
1054.383, 55139.52
1054.865, 55139.83
1055.347, 55124.94
1055.829, 55096.71
1056.311, 55079.33
1056.793, 55086.94
1057.276, 55099.55
1057.758, 55115.93
1058.240, 55131.83
1058.722, 55130.80
1059.204, 55117.23
1059.686, 55109.03
1060.168, 55114.31
1060.650, 55118.35
1061.132, 55098.31
1061.615, 55082.57
1062.097, 55099.67
1062.579, 55153.54
1063.061, 55200.32
1063.543, 55238.94
1064.025, 55273.21
1064.507, 55314.14
1064.989, 55345.39
1065.471, 55336.61
1065.954, 55302.43
1066.436, 55279.13
1066.918, 55274.14
1067.400, 55287.77
1067.882, 55331.39
1068.364, 55373.36
1068.846, 55356.48
1069.328, 55308.61
1069.811, 55326.89
1070.293, 55415.49
1070.775, 55492.36
1071.257, 55505.70
1071.739, 55504.82
1072.221, 55514.51
1072.703, 55527.62
1073.185, 55513.01
1073.667, 55471.54
1074.150, 55453.43
1074.632, 55476.39
1075.114, 55512.30
1075.596, 55541.92
1076.078, 55566.12
1076.560, 55584.23
1077.042, 55594.98
1077.524, 55610.89
1078.006, 55635.49
1078.489, 55653.92
1078.971, 55655.03
1079.453, 55647.46
1079.935, 55644.56
1080.417, 55646.48
1080.899, 55653.88
1081.381, 55676.54
1081.863, 55689.48
1082.345, 55678.80
1082.828, 55671.76
1083.310, 55699.11
1083.792, 55755.66
1084.274, 55806.27
1084.756, 55849.81
1085.238, 55888.88
1085.720, 55929.72
1086.202, 55961.91
1086.685, 55975.59
1087.167, 55976.73
1087.649, 55974.62
1088.131, 55966.58
1088.613, 55982.25
1089.095, 56028.93
1089.577, 56086.05
1090.059, 56149.30
1090.542, 56200.40
1091.024, 56206.27
1091.506, 56159.97
1091.988, 56162.75
1092.470, 56239.64
1092.952, 56308.59
1093.434, 56336.76
1093.916, 56344.84
1094.398, 56375.82
1094.880, 56417.54
1095.363, 56439.13
1095.845, 56418.06
1096.327, 56415.30
1096.809, 56462.32
1097.291, 56510.51
1097.773, 56530.00
1098.255, 56523.97
1098.737, 56510.52
1099.220, 56492.31
1099.702, 56485.54
1100.184, 56509.54
1100.666, 56536.42
1101.148, 56564.55
1101.630, 56581.82
1102.112, 56567.33
1102.594, 56515.30
1103.077, 56482.91
1103.559, 56473.88
1104.041, 56480.54
1104.523, 56511.72
1105.005, 56543.82
1105.487, 56540.65
1105.969, 56514.39
1106.451, 56538.36
1106.933, 56647.23
1107.416, 56707.85
1107.898, 56684.58
1108.380, 56638.58
1108.862, 56648.70
1109.344, 56690.64
1109.826, 56727.46
1110.308, 56752.72
1110.790, 56775.54
1111.272, 56788.74
1111.755, 56815.88
1112.237, 56878.72
1112.719, 56949.21
1113.201, 56937.75
1113.683, 56871.34
1114.165, 56842.42
1114.647, 56895.67
1115.129, 56936.72
1115.612, 56898.07
1116.094, 56855.68
1116.576, 56863.89
1117.058, 56918.58
1117.540, 56950.55
1118.022, 56961.00
1118.504, 56969.88
1118.986, 56981.36
1119.469, 57000.75
1119.951, 57041.70
1120.433, 57087.38
1120.915, 57113.36
1121.397, 57115.71
1121.879, 57109.80
1122.361, 57094.41
1122.843, 57087.91
1123.325, 57130.06
1123.807, 57169.50
1124.290, 57131.65
1124.772, 57043.20
1125.254, 57003.64
1125.736, 57044.50
1126.218, 57075.63
1126.700, 57082.10
1127.182, 57092.89
1127.664, 57154.38
1128.147, 57236.77
1128.629, 57288.23
1129.111, 57305.84
1129.593, 57316.46
1130.075, 57313.12
1130.557, 57324.91
1131.039, 57367.00
1131.521, 57415.57
1132.004, 57416.47
1132.486, 57388.00
1132.968, 57385.42
1133.450, 57423.18
1133.932, 57460.18
1134.414, 57468.66
1134.896, 57484.81
1135.378, 57531.99
1135.860, 57599.23
1136.343, 57639.67
1136.825, 57656.11
1137.307, 57659.32
1137.789, 57642.31
1138.271, 57639.17
1138.753, 57683.58
1139.235, 57740.66
1139.717, 57780.21
1140.199, 57801.60
1140.682, 57805.43
1141.164, 57791.44
1141.646, 57783.80
1142.128, 57795.80
1142.610, 57819.11
1143.092, 57868.61
1143.574, 57916.14
1144.056, 57914.83
1144.539, 57843.01
1145.021, 57804.87
1145.503, 57804.16
1145.985, 57821.63
1146.467, 57858.30
1146.949, 57894.24
1147.431, 57904.91
1147.913, 57896.71
1148.396, 57886.02
1148.878, 57861.13
1149.360, 57872.68
1149.842, 57936.07
1150.324, 57995.42
1150.806, 57974.60
1151.288, 57922.00
1151.770, 57905.96
1152.252, 57927.96
1152.734, 57963.89
1153.217, 58029.95
1153.699, 58069.34
1154.181, 58065.45
1154.663, 58042.89
1155.145, 58030.61
1155.627, 58028.49
1156.109, 58041.28
1156.591, 58069.80
1157.074, 58087.83
1157.556, 58079.03
1158.038, 58066.52
1158.520, 58053.50
1159.002, 58043.69
1159.484, 58047.82
1159.966, 58062.11
1160.448, 58076.38
1160.931, 58089.70
1161.413, 58096.38
1161.895, 58079.31
1162.377, 58072.23
1162.859, 58095.46
1163.341, 58138.82
1163.823, 58161.24
1164.305, 58166.46
1164.787, 58173.18
1165.270, 58189.58
1165.752, 58202.98
1166.234, 58206.07
1166.716, 58204.00
1167.198, 58200.21
1167.680, 58194.88
1168.162, 58184.10
1168.644, 58170.05
1169.126, 58174.19
1169.609, 58226.13
1170.091, 58268.69
1170.573, 58239.54
1171.055, 58203.55
1171.537, 58239.04
1172.019, 58356.62
1172.501, 58408.77
1172.983, 58395.57
1173.466, 58369.98
1173.948, 58341.95
1174.430, 58336.02
1174.912, 58396.58
1175.394, 58478.23
1175.876, 58500.81
1176.358, 58447.20
1176.840, 58453.30
1177.323, 58527.88
1177.805, 58581.24
1178.287, 58511.36
1178.769, 58423.42
1179.251, 58417.34
1179.733, 58373.36
1180.215, 58358.67
1180.697, 58386.82
1181.179, 58388.15
1181.661, 58485.54
1182.144, 58582.49
1182.626, 58585.12
1183.108, 58551.98
1183.590, 58529.56
1184.072, 58522.25
1184.554, 58533.25
1185.036, 58563.83
1185.518, 58608.08
1186.001, 58669.82
1186.483, 58721.25
1186.965, 58719.46
1187.447, 58700.13
1187.929, 58701.23
1188.411, 58724.31
1188.893, 58751.14
1189.375, 58790.96
1189.858, 58792.92
1190.340, 58734.48
1190.822, 58675.40
1191.304, 58693.61
1191.786, 58750.93
1192.268, 58806.27
1192.750, 58854.79
1193.232, 58894.75
1193.714, 58929.33
1194.197, 58942.78
1194.679, 58923.06
1195.161, 58897.13
1195.643, 58895.29
1196.125, 58913.86
1196.607, 58954.70
1197.089, 59022.32
1197.571, 59064.88
1198.053, 59073.54
1198.536, 59077.21
1199.018, 59087.61
1199.500, 59097.52
1199.982, 59094.13
1200.464, 59084.39
1200.946, 59080.76
1201.428, 59091.10
1201.910, 59085.25
1202.393, 59055.11
1202.875, 59034.95
1203.357, 59043.38
1203.839, 59068.00
1204.321, 59088.35
1204.803, 59109.77
1205.285, 59142.14
1205.767, 59192.48
1206.250, 59239.31
1206.732, 59284.08
1207.214, 59315.59
1207.696, 59319.94
1208.178, 59312.96
1208.660, 59317.13
1209.142, 59331.68
1209.624, 59356.68
1210.106, 59402.16
1210.589, 59437.20
1211.071, 59462.13
1211.553, 59476.23
1212.035, 59470.71
1212.517, 59461.82
1212.999, 59481.55
1213.481, 59519.04
1213.963, 59550.21
1214.445, 59571.86
1214.928, 59581.64
1215.410, 59574.77
1215.892, 59573.93
1216.374, 59602.64
1216.856, 59644.06
1217.338, 59677.82
1217.820, 59700.95
1218.302, 59705.51
1218.785, 59658.75
1219.267, 59655.82
1219.749, 59708.35
1220.231, 59770.00
1220.713, 59803.63
1221.195, 59823.68
1221.677, 59852.18
1222.159, 59885.21
1222.641, 59910.93
1223.124, 59931.94
1223.606, 59930.82
1224.088, 59899.42
1224.570, 59878.81
1225.052, 59926.77
1225.534, 59992.00
1226.016, 59995.31
1226.498, 60026.92
1226.980, 60049.99
1227.463, 60031.77
1227.945, 60062.57
1228.427, 60033.30
1228.909, 59996.64
1229.391, 60006.48
1229.873, 60031.73
1230.355, 60032.26
1230.837, 60016.03
1231.320, 60019.83
1231.802, 60054.50
1232.284, 60076.69
1232.766, 60081.68
1233.248, 60079.52
1233.730, 60081.96
1234.212, 60073.25
1234.694, 60069.57
1235.177, 60048.96
1235.659, 60029.43
1236.141, 60008.19
1236.623, 60008.30
1237.105, 60033.04
1237.587, 60080.50
1238.069, 60176.68
1238.551, 60270.38
1239.033, 60298.80
1239.516, 60282.18
1239.998, 60309.11
1240.480, 60382.71
1240.962, 60459.91
1241.444, 60535.15
1241.926, 60597.42
1242.408, 60630.35
1242.890, 60652.76
1243.372, 60681.32
1243.855, 60694.70
1244.337, 60703.21
1244.819, 60711.35
1245.301, 60702.31
1245.783, 60697.30
1246.265, 60683.90
1246.747, 60637.62
1247.229, 60598.05
1247.712, 60601.57
1248.194, 60631.18
1248.676, 60651.83
1249.158, 60664.01
1249.640, 60647.24
1250.122, 60597.45
1250.604, 60563.31
1251.086, 60580.44
1251.568, 60620.77
1252.051, 60680.68
1252.533, 60744.01
1253.015, 60767.71
1253.497, 60759.89
1253.979, 60769.75
1254.461, 60804.13
1254.943, 60845.25
1255.425, 60900.82
1255.907, 60935.07
1256.390, 60924.07
1256.872, 60896.01
1257.354, 60909.91
1257.836, 60955.33
1258.318, 61000.55
1258.800, 61041.42
1259.282, 61074.96
1259.764, 61106.93
1260.247, 61121.36
1260.729, 61107.73
1261.211, 61086.49
1261.693, 61088.30
1262.175, 61111.13
1262.657, 61160.30
1263.139, 61236.79
1263.621, 61282.85
1264.104, 61268.42
1264.586, 61255.54
1265.068, 61261.56
1265.550, 61267.54
1266.032, 61224.63
1266.514, 61172.84
1266.996, 61187.32
1267.478, 61273.96
1267.960, 61328.58
1268.443, 61324.85
1268.925, 61350.98
1269.407, 61438.07
1269.889, 61528.09
1270.371, 61549.39
1270.853, 61536.27
1271.335, 61522.29
1271.817, 61511.89
1272.299, 61510.00
1272.782, 61516.47
1273.264, 61535.58
1273.746, 61571.82
1274.228, 61602.42
1274.710, 61595.60
1275.192, 61582.11
1275.674, 61592.96
1276.156, 61621.27
1276.639, 61631.94
1277.121, 61624.74
1277.603, 61624.98
1278.085, 61637.90
1278.567, 61657.35
1279.049, 61691.32
1279.531, 61717.37
1280.013, 61716.49
1280.495, 61700.77
1280.978, 61694.46
1281.460, 61699.50
1281.942, 61737.17
1282.424, 61812.83
1282.906, 61870.51
1283.388, 61856.74
1283.870, 61848.36
1284.352, 61879.45
1284.834, 61876.46
1285.317, 61888.15
1285.799, 61910.40
1286.281, 61911.68
1286.763, 61939.71
1287.245, 61961.42
1287.727, 61951.26
1288.209, 61960.54
1288.691, 62010.23
1289.173, 62063.66
1289.656, 62054.40
1290.138, 62021.72
1290.620, 62036.80
1291.102, 62102.54
1291.584, 62147.24
1292.066, 62161.71
1292.548, 62160.35
1293.030, 62140.84
1293.513, 62126.76
1293.995, 62145.81
1294.477, 62183.21
1294.959, 62231.17
1295.441, 62283.64
1295.923, 62316.04
1296.405, 62326.62
1296.887, 62331.18
1297.370, 62331.13
1297.852, 62337.98
1298.334, 62358.20
1298.816, 62399.88
1299.298, 62480.71
1299.780, 62557.88
1300.262, 62594.38
1300.744, 62593.40
1301.226, 62582.14
1301.708, 62562.21
1302.191, 62561.56
1302.673, 62612.88
1303.155, 62637.63
1303.637, 62581.22
1304.119, 62416.21
##END=



