##NAMES=Ardealite
##RRUFFID=R060233
##IDEAL CHEMISTRY=Ca_2_(PO_3_OH)(S^6+^O_4_)&#183;4H_2_O
##LOCALITY=Moorba Cave, Jurien Bay, Western Australia, Australia
##OWNER=RRUFF
##SOURCE=Michael Scott
##DESCRIPTION=Tan colored powder
##STATUS=The identification of this mineral has been confirmed by X-ray diffraction and chemical analysis
##URL=rruff.info/R060233
##MEASURED CHEMISTRY=(Ca_1.98_Fe_0.02_)_Σ=2_(HP_1.00_O_4_)(S_1.00_O_4_)·4H_2_O ; H not measured but assumed
107.2549, 7156.570
107.7370, 7157.521
108.2191, 7159.033
108.7012, 7160.096
109.1833, 7160.369
109.6655, 7163.123
110.1476, 7171.177
110.6297, 7181.180
111.1118, 7187.727
111.5939, 7188.550
112.0760, 7187.840
112.5582, 7189.847
113.0403, 7194.308
113.5224, 7200.050
114.0045, 7206.767
114.4866, 7214.391
114.9688, 7221.681
115.4509, 7229.333
115.9330, 7235.682
116.4151, 7239.917
116.8972, 7241.844
117.3793, 7241.617
117.8615, 7238.433
118.3436, 7229.346
118.8257, 7224.721
119.3078, 7226.479
119.7899, 7231.737
120.2720, 7238.532
120.7542, 7246.040
121.2363, 7254.435
121.7184, 7264.386
122.2005, 7281.599
122.6826, 7293.755
123.1647, 7298.957
123.6468, 7298.714
124.1290, 7294.655
124.6111, 7287.315
125.0932, 7277.227
125.5753, 7269.053
126.0574, 7261.999
126.5395, 7256.963
127.0217, 7254.921
127.5038, 7255.524
127.9859, 7257.272
128.4680, 7259.962
128.9501, 7262.950
129.4323, 7263.373
129.9144, 7258.714
130.3965, 7252.778
130.8786, 7250.092
131.3607, 7251.583
131.8428, 7252.753
132.3250, 7248.724
132.8071, 7241.918
133.2892, 7236.716
133.7713, 7235.213
134.2534, 7236.781
134.7355, 7239.344
135.2177, 7243.261
135.6998, 7247.752
136.1819, 7252.110
136.6640, 7256.565
137.1461, 7261.748
137.6282, 7269.148
138.1104, 7279.319
138.5925, 7285.343
139.0746, 7282.907
139.5567, 7279.724
140.0388, 7278.997
140.5209, 7280.600
141.0031, 7282.163
141.4852, 7280.413
141.9673, 7272.297
142.4494, 7269.343
142.9315, 7275.460
143.4136, 7283.074
143.8958, 7287.088
144.3779, 7286.318
144.8600, 7283.337
145.3421, 7282.257
145.8242, 7284.502
146.3063, 7286.193
146.7885, 7286.134
147.2706, 7285.803
147.7527, 7287.404
148.2348, 7291.984
148.7169, 7297.743
149.1990, 7300.915
149.6812, 7301.292
150.1633, 7300.991
150.6454, 7300.077
151.1275, 7298.919
151.6096, 7298.821
152.0917, 7300.603
152.5739, 7303.375
153.0560, 7305.564
153.5381, 7306.914
154.0202, 7308.327
154.5023, 7311.087
154.9844, 7315.292
155.4665, 7318.000
155.9487, 7316.580
156.4308, 7313.813
156.9129, 7311.609
157.3950, 7310.328
157.8771, 7310.006
158.3592, 7311.104
158.8414, 7314.660
159.3235, 7316.954
159.8056, 7317.030
160.2877, 7315.708
160.7698, 7312.960
161.2519, 7308.604
161.7341, 7304.081
162.2162, 7303.793
162.6983, 7311.728
163.1804, 7318.936
163.6625, 7325.712
164.1446, 7330.694
164.6268, 7331.855
165.1089, 7327.883
165.5910, 7319.719
166.0731, 7313.265
166.5552, 7309.164
167.0373, 7306.042
167.5195, 7303.980
168.0016, 7302.705
168.4837, 7301.737
168.9658, 7300.748
169.4479, 7299.780
169.9300, 7299.502
170.4122, 7300.480
170.8943, 7301.461
171.3764, 7301.682
171.8585, 7301.318
172.3406, 7301.374
172.8227, 7303.072
173.3049, 7305.903
173.7870, 7306.276
174.2691, 7301.658
174.7512, 7296.362
175.2333, 7293.804
175.7154, 7294.133
176.1976, 7295.842
176.6797, 7299.056
177.1618, 7302.815
177.6439, 7304.644
178.1260, 7302.592
178.6081, 7298.829
179.0903, 7296.365
179.5724, 7295.268
180.0545, 7295.331
180.5366, 7297.063
181.0187, 7299.724
181.5008, 7302.127
181.9830, 7303.288
182.4651, 7303.866
182.9472, 7306.282
183.4293, 7312.597
183.9114, 7317.511
184.3935, 7318.499
184.8757, 7316.826
185.3578, 7314.586
185.8399, 7312.983
186.3220, 7311.993
186.8041, 7311.354
187.2862, 7312.741
187.7684, 7312.620
188.2505, 7308.790
188.7326, 7302.660
189.2147, 7296.975
189.6968, 7293.906
190.1789, 7293.505
190.6611, 7293.581
191.1432, 7294.575
191.6253, 7295.540
192.1074, 7295.644
192.5895, 7295.331
193.0716, 7296.006
193.5538, 7299.265
194.0359, 7305.905
194.5180, 7308.001
195.0001, 7301.370
195.4822, 7295.029
195.9643, 7294.098
196.4465, 7297.907
196.9286, 7302.057
197.4107, 7302.602
197.8928, 7299.023
198.3749, 7294.295
198.8570, 7287.688
199.3392, 7280.630
199.8213, 7273.079
200.3034, 7265.343
200.7855, 7259.637
201.2676, 7258.393
201.7497, 7262.016
202.2319, 7265.610
202.7140, 7270.380
203.1961, 7274.299
203.6782, 7274.852
204.1603, 7271.662
204.6424, 7267.854
205.1246, 7265.783
205.6067, 7265.375
206.0888, 7266.510
206.5709, 7271.322
207.0530, 7276.888
207.5351, 7279.442
208.0173, 7278.721
208.4994, 7275.107
208.9815, 7266.426
209.4636, 7254.962
209.9457, 7245.562
210.4278, 7239.891
210.9100, 7237.459
211.3921, 7237.759
211.8742, 7242.190
212.3563, 7246.330
212.8384, 7246.946
213.3205, 7245.466
213.8027, 7244.464
214.2848, 7245.511
214.7669, 7248.000
215.2490, 7249.857
215.7311, 7251.187
216.2132, 7251.547
216.6954, 7250.837
217.1775, 7249.202
217.6596, 7246.704
218.1417, 7242.828
218.6238, 7238.133
219.1059, 7236.148
219.5881, 7239.526
220.0702, 7242.546
220.5523, 7243.950
221.0344, 7243.841
221.5165, 7242.320
221.9986, 7239.163
222.4808, 7234.688
222.9629, 7231.773
223.4450, 7230.796
223.9271, 7231.306
224.4092, 7234.253
224.8913, 7238.535
225.3735, 7242.498
225.8556, 7245.110
226.3377, 7246.390
226.8198, 7246.688
227.3019, 7245.135
227.7840, 7243.410
228.2662, 7241.375
228.7483, 7239.410
229.2304, 7238.280
229.7125, 7238.583
230.1946, 7240.053
230.6767, 7239.936
231.1589, 7236.890
231.6410, 7233.814
232.1231, 7231.352
232.6052, 7229.368
233.0873, 7227.721
233.5694, 7226.502
234.0516, 7225.415
234.5337, 7222.081
235.0158, 7213.278
235.4979, 7206.233
235.9800, 7203.207
236.4621, 7203.588
236.9443, 7206.460
237.4264, 7211.995
237.9085, 7218.991
238.3906, 7221.737
238.8727, 7220.451
239.3548, 7215.868
239.8370, 7205.822
240.3191, 7192.458
240.8012, 7180.706
241.2833, 7172.497
241.7654, 7168.198
242.2475, 7168.899
242.7297, 7178.484
243.2118, 7185.950
243.6939, 7184.322
244.1760, 7176.392
244.6581, 7170.612
245.1402, 7170.711
245.6224, 7174.651
246.1045, 7178.242
246.5866, 7181.567
247.0687, 7184.339
247.5508, 7186.631
248.0329, 7188.290
248.5151, 7188.839
248.9972, 7188.139
249.4793, 7186.067
249.9614, 7181.968
250.4435, 7175.240
250.9256, 7170.128
251.4078, 7170.469
251.8899, 7174.872
252.3720, 7177.269
252.8541, 7176.041
253.3362, 7172.171
253.8183, 7165.822
254.3005, 7156.982
254.7826, 7150.470
255.2647, 7151.406
255.7468, 7158.017
256.2289, 7160.907
256.7110, 7156.333
257.1931, 7150.418
257.6753, 7148.537
258.1574, 7150.159
258.6395, 7151.860
259.1216, 7150.509
259.6037, 7147.007
260.0858, 7146.865
260.5680, 7153.711
261.0501, 7159.717
261.5322, 7159.604
262.0143, 7154.737
262.4964, 7149.303
262.9785, 7145.659
263.4607, 7143.626
263.9428, 7142.305
264.4249, 7142.919
264.9070, 7142.402
265.3891, 7138.000
265.8712, 7131.571
266.3534, 7126.914
266.8355, 7126.760
267.3176, 7130.086
267.7997, 7132.566
268.2818, 7133.854
268.7639, 7134.727
269.2461, 7136.436
269.7282, 7137.818
270.2103, 7136.899
270.6924, 7132.147
271.1745, 7124.958
271.6566, 7120.080
272.1388, 7119.095
272.6209, 7117.883
273.1030, 7115.354
273.5851, 7112.013
274.0672, 7108.198
274.5493, 7103.913
275.0315, 7099.800
275.5136, 7097.776
275.9957, 7099.647
276.4778, 7100.159
276.9599, 7097.810
277.4420, 7094.237
277.9242, 7090.459
278.4063, 7086.863
278.8884, 7084.235
279.3705, 7084.731
279.8526, 7091.838
280.3347, 7094.492
280.8169, 7088.558
281.2990, 7080.594
281.7811, 7075.762
282.2632, 7075.188
282.7453, 7075.938
283.2274, 7073.552
283.7096, 7066.544
284.1917, 7060.073
284.6738, 7052.990
285.1559, 7047.307
285.6380, 7044.533
286.1201, 7044.636
286.6023, 7046.249
287.0844, 7047.895
287.5665, 7049.454
288.0486, 7051.331
288.5307, 7054.111
289.0128, 7056.568
289.4950, 7057.869
289.9771, 7058.209
290.4592, 7058.518
290.9413, 7059.861
291.4234, 7062.468
291.9055, 7062.877
292.3877, 7060.182
292.8698, 7056.255
293.3519, 7051.307
293.8340, 7045.591
294.3161, 7039.155
294.7982, 7031.790
295.2804, 7023.768
295.7625, 7018.855
296.2446, 7019.498
296.7267, 7020.868
297.2088, 7023.433
297.6909, 7025.923
298.1731, 7026.555
298.6552, 7024.315
299.1373, 7019.754
299.6194, 7014.938
300.1015, 7009.743
300.5836, 7004.423
301.0658, 6998.058
301.5479, 6992.000
302.0300, 6987.408
302.5121, 6984.790
302.9942, 6984.263
303.4763, 6986.401
303.9585, 6995.729
304.4406, 7000.681
304.9227, 6998.367
305.4048, 6993.726
305.8869, 6990.535
306.3690, 6989.722
306.8512, 6989.915
307.3333, 6989.234
307.8154, 6987.338
308.2975, 6985.411
308.7796, 6983.850
309.2617, 6981.952
309.7439, 6979.148
310.2260, 6975.515
310.7081, 6971.646
311.1902, 6968.173
311.6723, 6965.163
312.1544, 6961.852
312.6366, 6957.162
313.1187, 6953.250
313.6008, 6951.032
314.0829, 6950.304
314.5650, 6950.319
315.0471, 6950.474
315.5293, 6950.882
316.0114, 6953.092
316.4935, 6962.087
316.9756, 6967.323
317.4577, 6964.107
317.9398, 6956.226
318.4220, 6949.161
318.9041, 6945.681
319.3862, 6944.994
319.8683, 6944.615
320.3504, 6945.307
320.8326, 6945.297
321.3147, 6942.752
321.7968, 6940.315
322.2789, 6941.831
322.7610, 6948.183
323.2431, 6955.227
323.7253, 6955.403
324.2074, 6942.795
324.6895, 6934.856
325.1716, 6934.527
325.6537, 6935.944
326.1358, 6935.229
326.6180, 6931.905
327.1001, 6927.817
327.5822, 6924.998
328.0643, 6923.833
328.5464, 6921.923
329.0285, 6919.110
329.5107, 6915.826
329.9928, 6912.147
330.4749, 6908.132
330.9570, 6903.913
331.4391, 6899.601
331.9212, 6895.182
332.4034, 6890.373
332.8855, 6884.291
333.3676, 6878.772
333.8497, 6873.579
334.3318, 6869.348
334.8139, 6866.522
335.2961, 6865.282
335.7782, 6866.327
336.2603, 6872.178
336.7424, 6889.904
337.2245, 6901.786
337.7066, 6905.624
338.1888, 6904.236
338.6709, 6898.756
339.1530, 6889.986
339.6351, 6880.337
340.1172, 6873.430
340.5993, 6870.202
341.0815, 6867.469
341.5636, 6866.033
342.0457, 6864.362
342.5278, 6861.144
343.0099, 6856.683
343.4920, 6852.567
343.9742, 6850.518
344.4563, 6850.721
344.9384, 6849.483
345.4205, 6845.083
345.9026, 6840.834
346.3847, 6836.456
346.8669, 6832.966
347.3490, 6832.347
347.8311, 6836.213
348.3132, 6843.074
348.7953, 6846.990
349.2774, 6847.438
349.7596, 6845.365
350.2417, 6839.271
350.7238, 6831.916
351.2059, 6825.838
351.6880, 6821.899
352.1701, 6819.662
352.6523, 6818.756
353.1344, 6819.864
353.6165, 6820.204
354.0986, 6818.025
354.5807, 6816.141
355.0628, 6816.253
355.5450, 6818.430
356.0271, 6821.609
356.5092, 6825.567
356.9913, 6830.416
357.4734, 6832.579
357.9555, 6831.206
358.4377, 6827.788
358.9198, 6821.073
359.4019, 6812.988
359.8840, 6807.454
360.3661, 6807.557
360.8482, 6811.229
361.3304, 6812.105
361.8125, 6809.332
362.2946, 6805.588
362.7767, 6801.153
363.2588, 6796.606
363.7409, 6792.504
364.2231, 6788.987
364.7052, 6785.983
365.1873, 6783.569
365.6694, 6781.818
366.1515, 6779.747
366.6336, 6776.292
367.1158, 6773.118
367.5979, 6771.142
368.0800, 6770.440
368.5621, 6771.150
369.0442, 6775.065
369.5263, 6780.957
370.0085, 6782.658
370.4906, 6778.421
370.9727, 6772.116
371.4548, 6766.239
371.9369, 6760.447
372.4190, 6753.749
372.9012, 6744.491
373.3833, 6735.000
373.8654, 6729.120
374.3475, 6727.245
374.8296, 6725.917
375.3117, 6723.449
375.7939, 6720.615
376.2760, 6718.678
376.7581, 6718.172
377.2402, 6717.488
377.7223, 6715.097
378.2044, 6711.430
378.6866, 6708.451
379.1687, 6706.940
379.6508, 6705.831
380.1329, 6703.966
380.6150, 6701.411
381.0971, 6697.900
381.5793, 6691.838
382.0614, 6685.332
382.5435, 6681.746
383.0256, 6681.537
383.5077, 6681.990
383.9898, 6681.021
384.4720, 6678.797
384.9541, 6676.901
385.4362, 6676.512
385.9183, 6675.462
386.4004, 6671.687
386.8825, 6666.005
387.3647, 6661.241
387.8468, 6658.919
388.3289, 6658.083
388.8110, 6656.334
389.2931, 6653.609
389.7752, 6650.396
390.2574, 6645.573
390.7395, 6640.861
391.2216, 6638.930
391.7037, 6640.253
392.1858, 6642.103
392.6679, 6641.220
393.1501, 6636.858
393.6322, 6633.386
394.1143, 6630.632
394.5964, 6628.800
395.0785, 6628.467
395.5606, 6629.230
396.0428, 6630.135
396.5249, 6630.656
397.0070, 6630.689
397.4891, 6629.635
397.9712, 6625.104
398.4533, 6622.388
398.9355, 6623.085
399.4176, 6625.386
399.8997, 6627.757
400.3818, 6629.579
400.8639, 6630.408
401.3460, 6629.370
401.8282, 6625.434
402.3103, 6622.472
402.7924, 6620.875
403.2745, 6619.711
403.7566, 6617.675
404.2387, 6615.522
404.7209, 6615.800
405.2030, 6621.224
405.6851, 6630.597
406.1672, 6634.311
406.6493, 6628.561
407.1314, 6622.250
407.6136, 6617.717
408.0957, 6613.672
408.5778, 6607.986
409.0599, 6599.883
409.5420, 6592.186
410.0241, 6589.798
410.5063, 6594.023
410.9884, 6596.656
411.4705, 6595.085
411.9526, 6592.787
412.4347, 6591.479
412.9168, 6591.208
413.3990, 6591.398
413.8811, 6591.625
414.3632, 6592.013
414.8453, 6593.549
415.3274, 6597.500
415.8095, 6599.446
416.2917, 6596.062
416.7738, 6589.521
417.2559, 6582.050
417.7380, 6573.386
418.2201, 6565.630
418.7022, 6560.460
419.1844, 6557.867
419.6665, 6558.207
420.1486, 6563.048
420.6307, 6568.964
421.1128, 6571.707
421.5949, 6571.398
422.0771, 6569.972
422.5592, 6567.101
423.0413, 6563.949
423.5234, 6562.720
424.0055, 6563.657
424.4876, 6563.648
424.9698, 6560.104
425.4519, 6553.438
425.9340, 6547.377
426.4161, 6541.771
426.8982, 6536.891
427.3803, 6533.170
427.8625, 6530.256
428.3446, 6527.521
428.8267, 6524.753
429.3088, 6521.873
429.7909, 6518.631
430.2730, 6514.319
430.7552, 6511.515
431.2373, 6511.297
431.7194, 6511.857
432.2015, 6512.588
432.6836, 6513.032
433.1657, 6512.016
433.6479, 6508.338
434.1300, 6502.326
434.6121, 6498.199
435.0942, 6498.175
435.5763, 6497.498
436.0584, 6495.269
436.5406, 6492.049
437.0227, 6488.322
437.5048, 6484.308
437.9869, 6480.284
438.4690, 6476.741
438.9511, 6473.868
439.4333, 6470.852
439.9154, 6466.918
440.3975, 6463.516
440.8796, 6461.160
441.3617, 6459.915
441.8438, 6459.923
442.3260, 6461.794
442.8081, 6464.655
443.2902, 6465.354
443.7723, 6463.127
444.2544, 6460.676
444.7365, 6458.201
445.2187, 6456.318
445.7008, 6456.065
446.1829, 6457.735
446.6650, 6459.328
447.1471, 6458.821
447.6292, 6456.580
448.1114, 6454.722
448.5935, 6453.666
449.0756, 6452.744
449.5577, 6451.556
450.0398, 6450.058
450.5219, 6448.031
451.0041, 6444.371
451.4862, 6440.896
451.9683, 6439.873
452.4504, 6440.926
452.9325, 6441.533
453.4146, 6440.550
453.8968, 6438.500
454.3789, 6436.699
454.8610, 6435.873
455.3431, 6433.279
455.8252, 6426.619
456.3073, 6418.836
456.7895, 6412.813
457.2716, 6409.048
457.7537, 6407.021
458.2358, 6406.528
458.7179, 6407.589
459.2000, 6407.835
459.6822, 6407.701
460.1643, 6406.441
460.6464, 6403.108
461.1285, 6398.763
461.6106, 6394.744
462.0927, 6391.565
462.5748, 6389.119
463.0569, 6387.552
463.5391, 6388.120
464.0212, 6386.045
464.5033, 6378.432
464.9854, 6371.023
465.4675, 6366.843
465.9496, 6365.137
466.4318, 6363.351
466.9139, 6359.660
467.3960, 6354.970
467.8781, 6352.613
468.3602, 6354.302
468.8423, 6353.838
469.3245, 6348.040
469.8066, 6340.261
470.2887, 6331.835
470.7708, 6323.132
471.2529, 6317.370
471.7350, 6318.356
472.2172, 6324.518
472.6993, 6330.469
473.1814, 6336.481
473.6635, 6340.093
474.1456, 6338.039
474.6277, 6332.287
475.1099, 6327.010
475.5920, 6322.587
476.0741, 6319.084
476.5562, 6316.853
477.0383, 6315.596
477.5204, 6314.578
478.0026, 6313.695
478.4847, 6312.490
478.9668, 6310.334
479.4489, 6307.143
479.9310, 6303.291
480.4131, 6297.306
480.8953, 6291.980
481.3774, 6289.750
481.8595, 6289.997
482.3416, 6290.532
482.8237, 6290.144
483.3058, 6288.919
483.7880, 6287.080
484.2701, 6283.930
484.7522, 6281.191
485.2343, 6279.897
485.7164, 6278.304
486.1985, 6274.326
486.6807, 6268.261
487.1628, 6262.739
487.6449, 6260.144
488.1270, 6260.295
488.6091, 6260.782
489.0912, 6262.546
489.5734, 6263.040
490.0555, 6260.410
490.5376, 6256.778
491.0197, 6254.863
491.5018, 6255.506
491.9839, 6256.212
492.4661, 6253.629
492.9482, 6248.290
493.4303, 6245.159
493.9124, 6245.331
494.3945, 6246.986
494.8766, 6249.717
495.3588, 6252.849
495.8409, 6254.388
496.3230, 6253.859
496.8051, 6251.542
497.2872, 6246.701
497.7693, 6240.057
498.2515, 6234.658
498.7336, 6232.078
499.2157, 6229.951
499.6978, 6224.034
500.1799, 6212.750
500.6620, 6203.885
501.1442, 6198.422
501.6263, 6195.173
502.1084, 6193.704
502.5905, 6193.771
503.0726, 6195.389
503.5547, 6198.866
504.0369, 6202.981
504.5190, 6203.452
505.0011, 6198.832
505.4832, 6192.556
505.9653, 6182.490
506.4474, 6172.679
506.9296, 6166.013
507.4117, 6162.586
507.8938, 6160.836
508.3759, 6159.906
508.8580, 6159.490
509.3401, 6157.979
509.8223, 6155.057
510.3044, 6151.591
510.7865, 6147.444
511.2686, 6143.115
511.7507, 6139.170
512.2328, 6135.740
512.7150, 6132.221
513.1971, 6126.605
513.6792, 6120.575
514.1613, 6120.358
514.6434, 6128.151
515.1255, 6134.904
515.6077, 6133.623
516.0898, 6125.515
516.5719, 6117.102
517.0540, 6108.359
517.5361, 6099.685
518.0182, 6090.148
518.5004, 6081.099
518.9825, 6075.163
519.4646, 6072.997
519.9467, 6072.631
520.4288, 6071.772
520.9109, 6070.281
521.3931, 6069.194
521.8752, 6069.528
522.3573, 6069.036
522.8394, 6066.287
523.3215, 6062.373
523.8036, 6058.997
524.2858, 6056.848
524.7679, 6055.151
525.2500, 6052.001
525.7321, 6046.294
526.2142, 6044.800
526.6964, 6052.601
527.1785, 6059.692
527.6606, 6060.932
528.1427, 6057.959
528.6248, 6054.756
529.1069, 6053.209
529.5891, 6051.779
530.0712, 6048.192
530.5533, 6042.571
531.0354, 6037.242
531.5175, 6033.272
531.9996, 6029.169
532.4818, 6022.102
532.9639, 6012.410
533.4460, 6005.143
533.9281, 6002.011
534.4102, 6001.123
534.8923, 6002.998
535.3745, 6006.111
535.8566, 6005.226
536.3387, 5997.479
536.8208, 5986.759
537.3029, 5981.289
537.7850, 5985.338
538.2672, 5985.824
538.7493, 5979.908
539.2314, 5973.344
539.7135, 5969.080
540.1956, 5966.973
540.6777, 5965.942
541.1599, 5965.563
541.6420, 5965.025
542.1241, 5961.873
542.6062, 5954.926
543.0883, 5949.078
543.5704, 5945.850
544.0526, 5943.507
544.5347, 5941.075
545.0168, 5938.557
545.4989, 5936.424
545.9810, 5935.816
546.4631, 5935.203
546.9453, 5931.330
547.4274, 5924.306
547.9095, 5919.055
548.3916, 5918.434
548.8737, 5919.557
549.3558, 5916.623
549.8380, 5908.704
550.3201, 5903.498
550.8022, 5903.911
551.2843, 5906.452
551.7664, 5909.078
552.2485, 5911.327
552.7307, 5912.776
553.2128, 5913.219
553.6949, 5912.570
554.1770, 5910.510
554.6591, 5905.880
555.1412, 5901.890
555.6234, 5899.184
556.1055, 5896.551
556.5876, 5893.339
557.0697, 5889.534
557.5518, 5885.275
558.0339, 5880.394
558.5161, 5875.517
558.9982, 5872.203
559.4803, 5870.689
559.9624, 5869.608
560.4445, 5869.711
560.9266, 5869.030
561.4088, 5865.541
561.8909, 5859.458
562.3730, 5853.135
562.8551, 5846.721
563.3372, 5841.010
563.8193, 5837.441
564.3015, 5835.596
564.7836, 5832.946
565.2657, 5828.027
565.7478, 5822.798
566.2299, 5821.051
566.7120, 5824.885
567.1942, 5827.119
567.6763, 5826.194
568.1584, 5825.042
568.6405, 5825.537
569.1226, 5827.110
569.6047, 5828.196
570.0869, 5827.948
570.5690, 5826.904
571.0511, 5826.411
571.5332, 5827.008
572.0153, 5825.949
572.4974, 5820.782
572.9796, 5816.123
573.4617, 5815.722
573.9438, 5817.803
574.4259, 5817.521
574.9080, 5812.063
575.3901, 5804.764
575.8723, 5798.830
576.3544, 5794.279
576.8365, 5791.431
577.3186, 5790.859
577.8007, 5790.591
578.2828, 5788.054
578.7650, 5783.072
579.2471, 5779.755
579.7292, 5778.557
580.2113, 5778.641
580.6934, 5781.474
581.1755, 5784.749
581.6577, 5784.477
582.1398, 5779.429
582.6219, 5772.046
583.1040, 5764.912
583.5861, 5757.417
584.0682, 5755.120
584.5504, 5762.166
585.0325, 5769.696
585.5146, 5777.142
585.9967, 5782.702
586.4788, 5783.900
586.9609, 5779.974
587.4431, 5773.446
587.9252, 5765.832
588.4073, 5757.507
588.8894, 5749.717
589.3715, 5742.393
589.8536, 5736.307
590.3358, 5731.865
590.8179, 5729.109
591.3000, 5727.869
591.7821, 5728.922
592.2642, 5729.958
592.7463, 5731.345
593.2285, 5731.681
593.7106, 5728.475
594.1927, 5722.101
594.6748, 5715.865
595.1569, 5712.431
595.6390, 5711.323
596.1212, 5710.006
596.6033, 5707.750
597.0854, 5706.610
597.5675, 5709.366
598.0496, 5711.231
598.5317, 5707.307
599.0139, 5698.724
599.4960, 5691.684
599.9781, 5690.433
600.4602, 5692.989
600.9423, 5696.340
601.4244, 5700.515
601.9066, 5703.648
602.3887, 5705.638
602.8708, 5705.581
603.3529, 5701.094
603.8350, 5692.131
604.3171, 5684.819
604.7993, 5680.199
605.2814, 5677.204
605.7635, 5676.702
606.2456, 5677.049
606.7277, 5674.258
607.2098, 5666.922
607.6920, 5658.729
608.1741, 5655.952
608.6562, 5660.371
609.1383, 5660.409
609.6204, 5651.367
610.1025, 5643.282
610.5847, 5640.425
611.0668, 5639.919
611.5489, 5637.722
612.0310, 5632.671
612.5131, 5627.005
612.9952, 5622.103
613.4774, 5618.259
613.9595, 5617.326
614.4416, 5620.101
614.9237, 5620.803
615.4058, 5614.502
615.8879, 5603.955
616.3701, 5598.267
616.8522, 5600.399
617.3343, 5600.665
617.8164, 5594.329
618.2985, 5587.283
618.7806, 5585.558
619.2628, 5588.378
619.7449, 5590.856
620.2270, 5589.892
620.7091, 5586.272
621.1912, 5582.023
621.6733, 5576.710
622.1555, 5572.021
622.6376, 5568.099
623.1197, 5564.964
623.6018, 5563.540
624.0839, 5562.998
624.5660, 5561.043
625.0482, 5556.152
625.5303, 5550.659
626.0124, 5547.156
626.4945, 5545.090
626.9766, 5542.429
627.4587, 5538.626
627.9409, 5534.928
628.4230, 5532.587
628.9051, 5531.596
629.3872, 5530.070
629.8693, 5528.729
630.3514, 5526.047
630.8336, 5519.562
631.3157, 5512.811
631.7978, 5509.653
632.2799, 5510.331
632.7620, 5512.149
633.2441, 5512.880
633.7263, 5512.885
634.2084, 5514.229
634.6905, 5518.001
635.1726, 5518.622
635.6547, 5513.015
636.1368, 5504.751
636.6190, 5496.758
637.1011, 5489.206
637.5832, 5483.560
638.0653, 5481.185
638.5474, 5480.134
639.0295, 5479.338
639.5117, 5478.586
639.9938, 5477.580
640.4759, 5476.233
640.9580, 5474.171
641.4401, 5470.800
641.9222, 5465.951
642.4044, 5461.400
642.8865, 5457.011
643.3686, 5453.085
643.8507, 5449.388
644.3328, 5446.336
644.8149, 5444.803
645.2971, 5444.769
645.7792, 5444.461
646.2613, 5442.245
646.7434, 5438.727
647.2255, 5435.155
647.7076, 5431.524
648.1898, 5428.596
648.6719, 5426.576
649.1540, 5425.608
649.6361, 5426.542
650.1182, 5430.235
650.6003, 5431.391
651.0825, 5428.894
651.5646, 5424.476
652.0467, 5418.110
652.5288, 5410.796
653.0109, 5404.148
653.4930, 5398.746
653.9752, 5393.747
654.4573, 5387.623
654.9394, 5380.291
655.4215, 5375.569
655.9036, 5374.197
656.3857, 5373.993
656.8679, 5375.819
657.3500, 5377.428
657.8321, 5375.679
658.3142, 5369.873
658.7963, 5364.600
659.2784, 5362.398
659.7606, 5361.458
660.2427, 5360.176
660.7248, 5358.332
661.2069, 5355.377
661.6890, 5350.929
662.1711, 5346.164
662.6533, 5343.231
663.1354, 5342.579
663.6175, 5342.120
664.0996, 5343.006
664.5817, 5342.779
665.0638, 5339.532
665.5460, 5335.154
666.0281, 5332.072
666.5102, 5330.919
666.9923, 5331.103
667.4744, 5333.933
667.9565, 5337.373
668.4387, 5335.600
668.9208, 5328.259
669.4029, 5320.973
669.8850, 5316.554
670.3671, 5314.115
670.8492, 5312.064
671.3314, 5310.940
671.8135, 5308.657
672.2956, 5303.932
672.7777, 5299.284
673.2598, 5296.632
673.7419, 5294.828
674.2241, 5291.709
674.7062, 5286.508
675.1883, 5280.443
675.6704, 5274.485
676.1525, 5268.776
676.6346, 5264.594
677.1168, 5261.752
677.5989, 5261.322
678.0810, 5265.419
678.5631, 5271.325
679.0452, 5274.540
679.5273, 5275.112
680.0095, 5273.145
680.4916, 5267.351
680.9737, 5260.196
681.4558, 5252.266
681.9379, 5244.625
682.4200, 5239.430
682.9022, 5237.538
683.3843, 5237.486
683.8664, 5237.755
684.3485, 5238.542
684.8306, 5236.320
685.3127, 5228.919
685.7949, 5222.381
686.2770, 5219.376
686.7591, 5218.434
687.2412, 5218.742
687.7233, 5220.368
688.2054, 5220.522
688.6876, 5215.583
689.1697, 5210.368
689.6518, 5211.291
690.1339, 5216.560
690.6160, 5219.844
691.0981, 5218.625
691.5803, 5214.435
692.0624, 5209.208
692.5445, 5202.875
693.0266, 5196.260
693.5087, 5188.398
693.9908, 5181.626
694.4730, 5176.741
694.9551, 5173.036
695.4372, 5169.950
695.9193, 5167.357
696.4014, 5164.889
696.8835, 5162.170
697.3657, 5159.547
697.8478, 5156.841
698.3299, 5154.468
698.8120, 5155.116
699.2941, 5160.103
699.7762, 5165.146
700.2584, 5164.584
700.7405, 5157.940
701.2226, 5151.951
701.7047, 5146.696
702.1868, 5142.103
702.6689, 5138.439
703.1511, 5135.298
703.6332, 5132.239
704.1153, 5129.264
704.5974, 5126.655
705.0795, 5124.529
705.5616, 5122.937
706.0438, 5122.437
706.5259, 5122.738
707.0080, 5121.908
707.4901, 5119.234
707.9722, 5115.999
708.4543, 5113.195
708.9365, 5110.836
709.4186, 5110.556
709.9007, 5115.717
710.3828, 5118.331
710.8649, 5115.898
711.3470, 5111.411
711.8292, 5107.425
712.3113, 5103.875
712.7934, 5098.990
713.2755, 5090.896
713.7576, 5082.597
714.2397, 5079.458
714.7219, 5080.714
715.2040, 5080.878
715.6861, 5078.978
716.1682, 5075.523
716.6503, 5070.234
717.1324, 5063.796
717.6146, 5059.961
718.0967, 5060.106
718.5788, 5060.791
719.0609, 5063.159
719.5430, 5064.791
720.0251, 5063.930
720.5073, 5060.889
720.9894, 5056.604
721.4715, 5051.361
721.9536, 5046.071
722.4357, 5041.623
722.9178, 5038.071
723.4000, 5036.559
723.8821, 5037.636
724.3642, 5037.513
724.8463, 5033.249
725.3284, 5026.766
725.8105, 5023.303
726.2927, 5024.761
726.7748, 5024.238
727.2569, 5019.875
727.7390, 5014.909
728.2211, 5009.919
728.7032, 5005.949
729.1854, 5004.225
729.6675, 5005.186
730.1496, 5008.945
730.6317, 5018.545
731.1138, 5031.116
731.5959, 5035.505
732.0781, 5031.188
732.5602, 5023.175
733.0423, 5012.101
733.5244, 5000.491
734.0065, 4991.999
734.4886, 4987.059
734.9708, 4983.026
735.4529, 4980.116
735.9350, 4977.831
736.4171, 4976.241
736.8992, 4975.060
737.3813, 4973.824
737.8635, 4972.580
738.3456, 4972.101
738.8277, 4973.939
739.3098, 4975.933
739.7919, 4972.437
740.2740, 4963.948
740.7562, 4958.377
741.2383, 4958.201
741.7204, 4959.502
742.2025, 4959.359
742.6846, 4957.665
743.1667, 4953.085
743.6489, 4942.014
744.1310, 4933.409
744.6131, 4928.229
745.0952, 4925.865
745.5773, 4927.766
746.0594, 4932.011
746.5416, 4933.921
747.0237, 4930.965
747.5058, 4926.539
747.9879, 4924.632
748.4700, 4924.696
748.9521, 4924.931
749.4343, 4925.142
749.9164, 4925.366
750.3985, 4926.142
750.8806, 4926.058
751.3627, 4921.514
751.8448, 4909.200
752.3270, 4900.976
752.8091, 4900.854
753.2912, 4899.917
753.7733, 4893.466
754.2554, 4884.655
754.7375, 4877.562
755.2197, 4873.165
755.7018, 4870.472
756.1839, 4869.913
756.6660, 4870.022
757.1481, 4868.425
757.6302, 4865.263
758.1124, 4861.396
758.5945, 4857.127
759.0766, 4852.074
759.5587, 4845.395
760.0408, 4837.225
760.5229, 4831.663
761.0051, 4829.981
761.4872, 4829.147
761.9693, 4828.907
762.4514, 4829.189
762.9335, 4830.525
763.4156, 4832.377
763.8978, 4833.082
764.3799, 4831.735
764.8620, 4829.567
765.3441, 4825.769
765.8262, 4822.452
766.3083, 4825.125
766.7905, 4833.416
767.2726, 4839.850
767.7547, 4839.831
768.2368, 4835.315
768.7189, 4830.377
769.2010, 4824.232
769.6832, 4820.466
770.1653, 4820.019
770.6474, 4820.626
771.1295, 4822.937
771.6116, 4824.897
772.0938, 4823.588
772.5759, 4818.538
773.0580, 4812.925
773.5401, 4807.613
774.0222, 4802.571
774.5043, 4797.264
774.9865, 4792.383
775.4686, 4789.514
775.9507, 4788.958
776.4328, 4789.130
776.9149, 4788.581
777.3970, 4787.443
777.8792, 4786.319
778.3613, 4785.365
778.8434, 4783.546
779.3255, 4780.040
779.8076, 4776.565
780.2897, 4774.939
780.7719, 4774.624
781.2540, 4773.388
781.7361, 4770.127
782.2182, 4767.495
782.7003, 4767.657
783.1824, 4767.353
783.6646, 4763.030
784.1467, 4756.058
784.6288, 4750.178
785.1109, 4746.979
785.5930, 4745.142
786.0751, 4743.339
786.5573, 4741.565
787.0394, 4739.642
787.5215, 4737.565
788.0036, 4736.015
788.4857, 4735.244
788.9678, 4735.244
789.4500, 4735.612
789.9321, 4735.890
790.4142, 4740.341
790.8963, 4755.475
791.3784, 4766.196
791.8605, 4767.910
792.3427, 4765.053
792.8248, 4759.945
793.3069, 4753.812
793.7890, 4749.475
794.2711, 4749.531
794.7532, 4749.584
795.2354, 4745.109
795.7175, 4737.515
796.1996, 4729.254
796.6817, 4720.888
797.1638, 4713.403
797.6459, 4707.329
798.1281, 4702.780
798.6102, 4700.461
799.0923, 4701.276
799.5744, 4700.507
800.0565, 4696.920
800.5386, 4693.759
801.0208, 4694.188
801.5029, 4694.868
801.9850, 4691.014
802.4671, 4682.159
802.9492, 4675.577
803.4313, 4674.182
803.9135, 4674.754
804.3956, 4675.931
804.8777, 4677.563
805.3598, 4680.250
805.8419, 4683.585
806.3240, 4685.245
806.8062, 4683.021
807.2883, 4679.014
807.7704, 4678.549
808.2525, 4681.348
808.7346, 4680.444
809.2167, 4673.611
809.6989, 4668.784
810.1810, 4672.427
810.6631, 4680.855
811.1452, 4683.778
811.6273, 4678.049
812.1094, 4673.858
812.5916, 4673.025
813.0737, 4671.660
813.5558, 4667.881
814.0379, 4662.812
814.5200, 4657.374
815.0021, 4651.984
815.4843, 4648.266
815.9664, 4647.728
816.4485, 4649.003
816.9306, 4651.808
817.4127, 4655.011
817.8948, 4655.350
818.3770, 4652.295
818.8591, 4648.266
819.3412, 4644.923
819.8233, 4642.733
820.3054, 4644.214
820.7875, 4651.236
821.2697, 4652.958
821.7518, 4645.220
822.2339, 4637.602
822.7160, 4638.066
823.1981, 4641.111
823.6802, 4635.714
824.1624, 4618.886
824.6445, 4606.971
825.1266, 4607.193
825.6087, 4608.932
826.0908, 4606.075
826.5729, 4601.278
827.0551, 4599.163
827.5372, 4600.128
828.0193, 4600.188
828.5014, 4595.631
828.9835, 4589.585
829.4656, 4587.735
829.9478, 4589.208
830.4299, 4589.693
830.9120, 4588.383
831.3941, 4587.488
831.8762, 4588.955
832.3583, 4591.033
832.8404, 4588.719
833.3225, 4579.828
833.8046, 4572.603
834.2867, 4566.089
834.7689, 4562.601
835.2510, 4565.414
835.7331, 4570.048
836.2152, 4571.554
836.6973, 4569.508
837.1794, 4565.852
837.6616, 4558.630
838.1437, 4552.814
838.6258, 4553.173
839.1079, 4555.872
839.5900, 4555.532
840.0721, 4551.862
840.5543, 4547.870
841.0364, 4545.351
841.5185, 4543.974
842.0006, 4543.297
842.4827, 4543.292
842.9648, 4544.244
843.4470, 4546.354
843.9291, 4547.024
844.4112, 4544.812
844.8933, 4540.717
845.3754, 4536.116
845.8575, 4530.616
846.3397, 4527.076
846.8218, 4527.533
847.3039, 4527.184
847.7860, 4524.241
848.2681, 4520.822
848.7502, 4518.670
849.2324, 4517.651
849.7145, 4516.611
850.1966, 4514.498
850.6787, 4513.563
851.1608, 4517.688
851.6429, 4521.852
852.1251, 4519.014
852.6072, 4510.968
853.0893, 4504.267
853.5714, 4501.771
854.0535, 4501.848
854.5356, 4503.350
855.0178, 4505.770
855.4999, 4507.157
855.9820, 4507.554
856.4641, 4504.930
856.9462, 4498.006
857.4283, 4490.524
857.9105, 4485.945
858.3926, 4484.158
858.8747, 4484.299
859.3568, 4490.306
859.8389, 4491.346
860.3210, 4481.834
860.8032, 4472.671
861.2853, 4469.858
861.7674, 4470.670
862.2495, 4469.821
862.7316, 4465.984
863.2137, 4464.627
863.6959, 4471.885
864.1780, 4478.667
864.6601, 4476.290
865.1422, 4469.196
865.6243, 4465.090
866.1064, 4465.202
866.5886, 4466.040
867.0707, 4465.494
867.5528, 4463.077
868.0349, 4456.533
868.5170, 4446.859
868.9991, 4440.694
869.4813, 4438.969
869.9634, 4437.674
870.4455, 4434.788
870.9276, 4430.583
871.4097, 4425.319
871.8918, 4418.650
872.3740, 4413.567
872.8561, 4410.407
873.3382, 4408.377
873.8203, 4408.073
874.3024, 4408.271
874.7845, 4408.807
875.2667, 4409.181
875.7488, 4407.188
876.2309, 4400.979
876.7130, 4394.788
877.1951, 4389.757
877.6772, 4385.599
878.1594, 4382.135
878.6415, 4379.345
879.1236, 4377.315
879.6057, 4376.044
880.0878, 4375.228
880.5699, 4375.152
881.0521, 4375.044
881.5342, 4372.634
882.0163, 4368.815
882.4984, 4367.419
882.9805, 4369.302
883.4626, 4372.461
883.9448, 4375.227
884.4269, 4378.398
884.9090, 4385.445
885.3911, 4398.182
885.8732, 4404.615
886.3553, 4403.985
886.8375, 4397.194
887.3196, 4381.483
887.8017, 4362.340
888.2838, 4346.925
888.7659, 4335.194
889.2480, 4328.073
889.7302, 4329.636
890.2123, 4330.377
890.6944, 4326.497
891.1765, 4322.158
891.6586, 4321.596
892.1407, 4323.454
892.6229, 4323.243
893.1050, 4319.125
893.5871, 4314.501
894.0692, 4312.132
894.5513, 4310.091
895.0334, 4305.213
895.5156, 4299.005
895.9977, 4295.812
896.4798, 4296.549
896.9619, 4297.404
897.4440, 4294.405
897.9261, 4290.067
898.4083, 4291.273
898.8904, 4297.488
899.3725, 4303.556
899.8546, 4309.057
900.3367, 4310.375
900.8188, 4304.589
901.3010, 4295.195
901.7831, 4289.196
902.2652, 4287.505
902.7473, 4282.875
903.2294, 4271.735
903.7115, 4263.957
904.1937, 4264.077
904.6758, 4266.920
905.1579, 4268.791
905.6400, 4269.759
906.1221, 4270.243
906.6042, 4270.290
907.0864, 4269.897
907.5685, 4269.760
908.0506, 4268.529
908.5327, 4264.886
909.0148, 4259.709
909.4969, 4253.625
909.9791, 4247.118
910.4612, 4242.669
910.9433, 4243.972
911.4254, 4246.103
911.9075, 4243.307
912.3896, 4237.597
912.8718, 4232.980
913.3539, 4229.837
913.8360, 4225.996
914.3181, 4220.158
914.8002, 4214.356
915.2823, 4211.898
915.7645, 4212.497
916.2466, 4214.246
916.7287, 4217.207
917.2108, 4219.818
917.6929, 4221.751
918.1750, 4222.565
918.6572, 4221.869
919.1393, 4219.662
919.6214, 4215.656
920.1035, 4208.287
920.5856, 4202.961
921.0677, 4201.388
921.5499, 4199.935
922.0320, 4197.136
922.5141, 4193.272
922.9962, 4188.021
923.4783, 4181.162
923.9604, 4176.649
924.4426, 4175.708
924.9247, 4176.246
925.4068, 4179.086
925.8889, 4181.871
926.3710, 4181.983
926.8531, 4180.381
927.3353, 4180.504
927.8174, 4184.023
928.2995, 4185.384
928.7816, 4178.427
929.2637, 4169.390
929.7458, 4164.802
930.2280, 4163.521
930.7101, 4162.312
931.1922, 4160.644
931.6743, 4160.873
932.1564, 4165.331
932.6385, 4170.597
933.1207, 4169.682
933.6028, 4164.274
934.0849, 4162.041
934.5670, 4163.490
935.0491, 4164.966
935.5313, 4164.952
936.0134, 4164.139
936.4955, 4163.804
936.9776, 4163.483
937.4597, 4157.283
937.9418, 4142.404
938.4240, 4134.168
938.9061, 4138.153
939.3882, 4142.175
939.8703, 4137.399
940.3524, 4128.234
940.8345, 4124.725
941.3167, 4129.224
941.7988, 4130.406
942.2809, 4125.351
942.7630, 4120.922
943.2451, 4119.552
943.7272, 4118.677
944.2094, 4116.319
944.6915, 4112.596
945.1736, 4108.091
945.6557, 4101.809
946.1378, 4097.723
946.6199, 4097.821
947.1021, 4100.037
947.5842, 4105.583
948.0663, 4110.959
948.5484, 4110.437
949.0305, 4103.859
949.5126, 4097.204
949.9948, 4093.974
950.4769, 4091.900
950.9590, 4088.480
951.4411, 4084.857
951.9232, 4083.097
952.4053, 4082.941
952.8875, 4083.022
953.3696, 4082.764
953.8517, 4081.794
954.3338, 4079.344
954.8159, 4076.196
955.2980, 4075.019
955.7802, 4075.317
956.2623, 4073.051
956.7444, 4067.515
957.2265, 4062.634
957.7086, 4060.656
958.1907, 4060.954
958.6729, 4062.850
959.1550, 4066.405
959.6371, 4068.277
960.1192, 4068.660
960.6013, 4065.894
961.0834, 4057.525
961.5656, 4050.470
962.0477, 4051.836
962.5298, 4058.394
963.0119, 4058.804
963.4940, 4050.437
963.9761, 4042.501
964.4583, 4032.266
964.9404, 4026.172
965.4225, 4027.727
965.9046, 4032.959
966.3867, 4040.452
966.8688, 4048.963
967.3510, 4051.784
967.8331, 4044.395
968.3152, 4037.683
968.7973, 4034.701
969.2794, 4032.359
969.7615, 4028.649
970.2437, 4024.508
970.7258, 4021.629
971.2079, 4020.128
971.6900, 4018.264
972.1721, 4014.897
972.6542, 4011.448
973.1364, 4008.230
973.6185, 4005.823
974.1006, 4005.993
974.5827, 4007.302
975.0648, 4005.937
975.5469, 4000.829
976.0291, 3995.522
976.5112, 3992.519
976.9933, 3991.344
977.4754, 3992.275
977.9575, 3994.249
978.4396, 3994.216
978.9218, 3992.459
979.4039, 3992.673
979.8860, 3996.733
980.3681, 4002.383
980.8502, 4006.641
981.3323, 4010.045
981.8145, 4015.481
982.2966, 4022.320
982.7787, 4024.878
983.2608, 4021.903
983.7429, 4016.656
984.2250, 4010.927
984.7072, 4006.128
985.1893, 4005.654
985.6714, 4005.126
986.1535, 4005.984
986.6356, 4011.104
987.1177, 4013.539
987.5999, 4021.125
988.0820, 4031.020
988.5641, 4041.016
989.0462, 4051.150
989.5283, 4061.776
990.0104, 4073.924
990.4926, 4083.007
990.9747, 4087.361
991.4568, 4091.597
991.9389, 4095.810
992.4210, 4102.104
992.9031, 4113.313
993.3853, 4128.720
993.8674, 4143.577
994.3495, 4158.018
994.8316, 4171.714
995.3137, 4185.416
995.7958, 4197.505
996.2780, 4205.805
996.7601, 4213.151
997.2422, 4222.388
997.7243, 4233.631
998.2064, 4246.296
998.6885, 4262.542
999.1707, 4276.479
999.6528, 4287.292
1000.135, 4294.622
1000.617, 4298.433
1001.099, 4298.428
1001.581, 4294.228
1002.063, 4285.736
1002.545, 4273.085
1003.028, 4256.125
1003.510, 4235.290
1003.992, 4208.575
1004.474, 4180.072
1004.956, 4152.708
1005.438, 4127.037
1005.920, 4102.706
1006.402, 4079.813
1006.885, 4059.369
1007.367, 4043.239
1007.849, 4028.446
1008.331, 4010.476
1008.813, 3993.304
1009.295, 3984.424
1009.777, 3981.487
1010.259, 3975.822
1010.741, 3964.531
1011.224, 3951.922
1011.706, 3940.873
1012.188, 3931.694
1012.670, 3924.620
1013.152, 3919.755
1013.634, 3918.333
1014.116, 3919.576
1014.598, 3919.579
1015.081, 3916.661
1015.563, 3913.321
1016.045, 3912.574
1016.527, 3913.264
1017.009, 3913.353
1017.491, 3912.380
1017.973, 3907.260
1018.455, 3898.003
1018.937, 3889.220
1019.420, 3883.183
1019.902, 3879.639
1020.384, 3879.108
1020.866, 3880.415
1021.348, 3876.891
1021.830, 3868.796
1022.312, 3864.009
1022.794, 3863.970
1023.276, 3864.504
1023.759, 3863.268
1024.241, 3861.287
1024.723, 3860.362
1025.205, 3860.313
1025.687, 3858.395
1026.169, 3854.356
1026.651, 3850.334
1027.133, 3846.571
1027.616, 3843.222
1028.098, 3840.003
1028.580, 3838.172
1029.062, 3840.604
1029.544, 3847.505
1030.026, 3850.965
1030.508, 3850.457
1030.990, 3848.388
1031.473, 3845.006
1031.955, 3840.422
1032.437, 3833.935
1032.919, 3827.191
1033.401, 3823.466
1033.883, 3823.164
1034.365, 3821.874
1034.847, 3817.538
1035.329, 3817.078
1035.812, 3824.442
1036.294, 3831.800
1036.776, 3834.497
1037.258, 3833.752
1037.740, 3831.779
1038.222, 3828.482
1038.704, 3824.288
1039.186, 3816.652
1039.668, 3812.281
1040.151, 3815.094
1040.633, 3818.193
1041.115, 3817.113
1041.597, 3813.527
1042.079, 3810.194
1042.561, 3806.774
1043.043, 3805.777
1043.525, 3809.122
1044.008, 3812.265
1044.490, 3817.206
1044.972, 3818.947
1045.454, 3811.207
1045.936, 3799.438
1046.418, 3793.762
1046.900, 3795.437
1047.382, 3796.823
1047.865, 3797.672
1048.347, 3797.388
1048.829, 3795.020
1049.311, 3792.306
1049.793, 3790.600
1050.275, 3789.209
1050.757, 3786.897
1051.239, 3783.527
1051.721, 3779.657
1052.203, 3772.333
1052.686, 3768.801
1053.168, 3774.043
1053.650, 3780.812
1054.132, 3785.030
1054.614, 3786.967
1055.096, 3787.453
1055.578, 3786.608
1056.060, 3784.927
1056.543, 3781.535
1057.025, 3778.724
1057.507, 3776.205
1057.989, 3775.531
1058.471, 3780.255
1058.953, 3786.378
1059.435, 3787.462
1059.917, 3782.843
1060.400, 3777.314
1060.882, 3771.487
1061.364, 3766.296
1061.846, 3762.945
1062.328, 3759.444
1062.810, 3752.991
1063.292, 3746.163
1063.774, 3743.530
1064.256, 3745.195
1064.739, 3746.248
1065.221, 3745.136
1065.703, 3742.867
1066.185, 3739.430
1066.667, 3735.407
1067.149, 3730.137
1067.631, 3725.138
1068.113, 3722.593
1068.595, 3722.537
1069.078, 3723.269
1069.560, 3724.969
1070.042, 3725.696
1070.524, 3723.252
1071.006, 3720.961
1071.488, 3722.709
1071.970, 3725.083
1072.452, 3722.785
1072.935, 3716.252
1073.417, 3710.602
1073.899, 3707.661
1074.381, 3705.442
1074.863, 3702.933
1075.345, 3700.941
1075.827, 3701.113
1076.309, 3701.362
1076.792, 3698.097
1077.274, 3692.420
1077.756, 3689.548
1078.238, 3691.720
1078.720, 3693.795
1079.202, 3693.244
1079.684, 3691.999
1080.166, 3690.345
1080.648, 3689.345
1081.130, 3690.567
1081.613, 3693.342
1082.095, 3695.911
1082.577, 3697.957
1083.059, 3698.112
1083.541, 3693.699
1084.023, 3689.726
1084.505, 3689.647
1084.987, 3690.858
1085.469, 3691.431
1085.952, 3690.942
1086.434, 3688.064
1086.916, 3682.403
1087.398, 3680.576
1087.880, 3689.130
1088.362, 3697.250
1088.844, 3700.404
1089.326, 3700.323
1089.809, 3697.293
1090.291, 3692.702
1090.773, 3688.060
1091.255, 3683.781
1091.737, 3681.414
1092.219, 3681.164
1092.701, 3683.381
1093.183, 3691.165
1093.666, 3698.419
1094.148, 3702.211
1094.630, 3701.768
1095.112, 3695.260
1095.594, 3683.374
1096.076, 3671.398
1096.558, 3658.592
1097.040, 3650.427
1097.522, 3651.875
1098.005, 3654.884
1098.487, 3655.165
1098.969, 3654.197
1099.451, 3654.395
1099.933, 3655.312
1100.415, 3653.993
1100.897, 3648.560
1101.379, 3644.623
1101.861, 3645.068
1102.344, 3645.449
1102.826, 3643.948
1103.308, 3641.406
1103.790, 3638.792
1104.272, 3635.797
1104.754, 3631.003
1105.236, 3623.381
1105.718, 3618.211
1106.201, 3615.440
1106.683, 3616.582
1107.165, 3625.531
1107.647, 3635.095
1108.129, 3641.260
1108.611, 3644.123
1109.093, 3643.956
1109.575, 3640.696
1110.057, 3636.158
1110.540, 3629.095
1111.022, 3622.917
1111.504, 3619.304
1111.986, 3615.363
1112.468, 3608.516
1112.950, 3601.169
1113.432, 3596.521
1113.914, 3594.479
1114.396, 3592.919
1114.879, 3591.268
1115.361, 3591.101
1115.843, 3593.547
1116.325, 3595.904
1116.807, 3597.681
1117.289, 3598.535
1117.771, 3597.752
1118.253, 3595.839
1118.736, 3594.773
1119.218, 3594.864
1119.700, 3594.724
1120.182, 3593.452
1120.664, 3594.056
1121.146, 3598.419
1121.628, 3602.843
1122.110, 3604.867
1122.593, 3604.951
1123.075, 3603.827
1123.557, 3601.380
1124.039, 3599.416
1124.521, 3597.723
1125.003, 3597.301
1125.485, 3598.517
1125.967, 3600.389
1126.449, 3602.733
1126.932, 3604.605
1127.414, 3604.417
1127.896, 3602.723
1128.378, 3604.007
1128.860, 3608.992
1129.342, 3609.281
1129.824, 3603.667
1130.306, 3597.969
1130.788, 3594.167
1131.271, 3592.154
1131.753, 3592.124
1132.235, 3593.172
1132.717, 3592.610
1133.199, 3590.668
1133.681, 3590.868
1134.163, 3593.206
1134.645, 3595.940
1135.128, 3598.611
1135.610, 3598.961
1136.092, 3595.421
1136.574, 3590.135
1137.056, 3585.393
1137.538, 3581.870
1138.020, 3583.097
1138.502, 3587.662
1138.984, 3588.862
1139.467, 3586.485
1139.949, 3586.000
1140.431, 3589.415
1140.913, 3591.000
1141.395, 3584.385
1141.877, 3574.605
1142.359, 3569.411
1142.841, 3567.304
1143.323, 3565.742
1143.806, 3564.464
1144.288, 3563.332
1144.770, 3562.460
1145.252, 3562.809
1145.734, 3565.246
1146.216, 3567.551
1146.698, 3568.361
1147.180, 3567.166
1147.663, 3562.430
1148.145, 3555.812
1148.627, 3548.576
1149.109, 3542.073
1149.591, 3539.729
1150.073, 3542.751
1150.555, 3545.269
1151.037, 3542.702
1151.520, 3539.837
1152.002, 3540.552
1152.484, 3541.697
1152.966, 3539.705
1153.448, 3536.242
1153.930, 3535.257
1154.412, 3536.796
1154.894, 3535.685
1155.376, 3527.896
1155.859, 3522.152
1156.341, 3523.089
1156.823, 3524.328
1157.305, 3522.371
1157.787, 3519.334
1158.269, 3517.243
1158.751, 3516.054
1159.233, 3515.012
1159.715, 3513.583
1160.198, 3514.031
1160.680, 3518.656
1161.162, 3521.910
1161.644, 3522.139
1162.126, 3521.647
1162.608, 3522.354
1163.090, 3522.453
1163.572, 3518.580
1164.055, 3511.013
1164.537, 3506.908
1165.019, 3507.305
1165.501, 3507.882
1165.983, 3508.323
1166.465, 3509.393
1166.947, 3511.814
1167.429, 3513.605
1167.911, 3512.789
1168.394, 3510.542
1168.876, 3510.267
1169.358, 3512.006
1169.840, 3510.140
1170.322, 3504.645
1170.804, 3498.855
1171.286, 3493.376
1171.768, 3490.521
1172.250, 3491.513
1172.733, 3495.448
1173.215, 3502.650
1173.697, 3509.928
1174.179, 3507.338
1174.661, 3498.034
1175.143, 3492.620
1175.625, 3491.127
1176.107, 3489.386
1176.590, 3486.358
1177.072, 3483.958
1177.554, 3483.328
1178.036, 3484.317
1178.518, 3487.734
1179.000, 3491.870
1179.482, 3495.750
1179.964, 3498.032
1180.447, 3495.844
1180.929, 3490.219
1181.411, 3484.698
1181.893, 3480.431
1182.375, 3476.746
1182.857, 3473.460
1183.339, 3470.407
1183.821, 3466.814
1184.303, 3464.094
1184.786, 3463.404
1185.268, 3464.252
1185.750, 3466.702
1186.232, 3470.069
1186.714, 3471.552
1187.196, 3470.128
1187.678, 3468.194
1188.160, 3464.679
1188.642, 3462.656
1189.125, 3464.251
1189.607, 3466.367
1190.089, 3467.121
1190.571, 3466.923
1191.053, 3466.523
1191.535, 3465.935
1192.017, 3464.410
1192.499, 3462.050
1192.982, 3458.270
1193.464, 3452.100
1193.946, 3447.872
1194.428, 3447.639
1194.910, 3448.121
1195.392, 3446.375
1195.874, 3443.527
1196.356, 3442.310
1196.839, 3442.578
1197.321, 3442.200
1197.803, 3441.253
1198.285, 3441.716
1198.767, 3443.583
1199.249, 3442.147
1199.731, 3435.367
1200.213, 3429.040
1200.695, 3429.340
1201.177, 3432.696
1201.660, 3434.218
1202.142, 3433.902
1202.624, 3430.023
1203.106, 3424.890
1203.588, 3424.718
1204.070, 3429.418
1204.552, 3433.701
1205.034, 3435.474
1205.517, 3433.622
1205.999, 3424.406
1206.481, 3414.923
1206.963, 3410.471
1207.445, 3408.085
1207.927, 3404.357
1208.409, 3400.688
1208.891, 3401.113
1209.374, 3405.287
1209.856, 3405.868
1210.338, 3398.154
1210.820, 3393.172
1211.302, 3394.243
1211.784, 3396.081
1212.266, 3397.846
1212.748, 3398.632
1213.230, 3396.954
1213.713, 3394.433
1214.195, 3394.654
1214.677, 3397.660
1215.159, 3397.575
1215.641, 3393.458
1216.123, 3390.435
1216.605, 3389.162
1217.087, 3388.004
1217.569, 3386.465
1218.052, 3384.181
1218.534, 3380.628
1219.016, 3377.079
1219.498, 3377.135
1219.980, 3373.403
1220.462, 3376.494
1220.944, 3370.072
1221.426, 3367.382
1221.909, 3368.913
1222.391, 3371.311
1222.873, 3373.269
1223.355, 3375.477
1223.837, 3378.233
1224.319, 3381.994
1224.801, 3387.852
1225.283, 3394.409
1225.766, 3402.336
1226.248, 3408.405
1226.730, 3407.535
1227.212, 3400.516
1227.694, 3390.857
1228.176, 3379.153
1228.658, 3369.481
1229.140, 3364.627
1229.622, 3359.943
1230.104, 3352.090
1230.587, 3346.383
1231.069, 3347.692
1231.551, 3351.240
1232.033, 3351.712
1232.515, 3349.875
1232.997, 3348.653
1233.479, 3348.334
1233.961, 3347.022
1234.444, 3344.206
1234.926, 3342.336
1235.408, 3341.721
1235.890, 3343.412
1236.372, 3348.547
1236.854, 3352.090
1237.336, 3347.798
1237.818, 3339.100
1238.301, 3334.272
1238.783, 3332.650
1239.265, 3332.444
1239.747, 3332.941
1240.229, 3331.540
1240.711, 3328.280
1241.193, 3325.873
1241.675, 3325.501
1242.157, 3325.430
1242.640, 3324.008
1243.122, 3322.643
1243.604, 3322.380
1244.086, 3322.925
1244.568, 3324.474
1245.050, 3326.329
1245.532, 3328.171
1246.014, 3329.417
1246.496, 3328.141
1246.979, 3323.424
1247.461, 3318.836
1247.943, 3313.948
1248.425, 3310.807
1248.907, 3311.114
1249.389, 3311.346
1249.871, 3309.553
1250.353, 3307.418
1250.836, 3306.792
1251.318, 3307.315
1251.800, 3308.034
1252.282, 3309.119
1252.764, 3306.883
1253.246, 3301.220
1253.728, 3298.315
1254.210, 3299.219
1254.693, 3303.086
1255.175, 3309.445
1255.657, 3313.124
1256.139, 3308.454
1256.621, 3300.289
1257.103, 3294.850
1257.585, 3291.597
1258.067, 3289.667
1258.549, 3289.270
1259.031, 3291.570
1259.514, 3295.810
1259.996, 3299.944
1260.478, 3303.356
1260.960, 3304.647
1261.442, 3301.538
1261.924, 3298.694
1262.406, 3296.931
1262.888, 3296.769
1263.371, 3298.751
1263.853, 3302.270
1264.335, 3308.360
1264.817, 3314.828
1265.299, 3316.226
1265.781, 3312.332
1266.263, 3306.639
1266.745, 3298.269
1267.228, 3292.597
1267.710, 3290.300
1268.192, 3289.857
1268.674, 3290.865
1269.156, 3291.083
1269.638, 3288.645
1270.120, 3285.025
1270.602, 3281.958
1271.084, 3279.840
1271.567, 3279.903
1272.049, 3281.429
1272.531, 3283.570
1273.013, 3285.581
1273.495, 3285.795
1273.977, 3284.129
1274.459, 3282.797
1274.941, 3283.211
1275.423, 3282.665
1275.906, 3278.467
1276.388, 3274.878
1276.870, 3274.409
1277.352, 3274.923
1277.834, 3275.001
1278.316, 3274.898
1278.798, 3275.529
1279.280, 3276.587
1279.763, 3274.963
1280.245, 3268.450
1280.727, 3268.207
1281.209, 3276.007
1281.691, 3282.154
1282.173, 3284.664
1282.655, 3284.093
1283.137, 3280.564
1283.620, 3277.380
1284.102, 3278.150
1284.584, 3279.998
1285.066, 3278.934
##END=



