##NAMES=Arfvedsonite
##RRUFFID=R040127
##IDEAL CHEMISTRY=NaNa_2_(Fe^2+^_4_Fe^3+^)Si_8_O_22_(OH)_2_
##LOCALITY=Mont Saint-Hilaire, Rouville County, Quebec, Canada
##OWNER=RRUFF
##SOURCE=Bob Downs
##DESCRIPTION=Black prismatic crystal associated with white analcime, R040128
##STATUS=The identification of this mineral has been confirmed by X-ray diffraction and chemical analysis
##URL=rruff.info/R040127
##MEASURED CHEMISTRY=(Na_0.61_K_0.39_)Na_2.00_(Fe^2+^_2.40_Mg_0.80_Mn_0.75_Ca_0.05_)_&#931;=4_(Fe^3+^_0.60_Al_0.25_Mn_0.15_)(Si_0.99_Ti_0.01_)_8_O_22_((OH)_0.67_F_0.33_)_2_
151.5903, 663.9064
152.0724, 678.7995
152.5545, 691.0506
153.0366, 696.6844
153.5188, 699.2285
154.0009, 705.5882
154.4830, 723.1302
154.9651, 740.0081
155.4472, 750.9878
155.9293, 752.0350
156.4115, 752.0961
156.8936, 750.9233
157.3757, 749.6241
157.8578, 751.9584
158.3399, 764.0235
158.8221, 777.1802
159.3042, 785.8986
159.7863, 784.1797
160.2684, 782.4019
160.7505, 783.1157
161.2326, 786.3519
161.7148, 792.3590
162.1969, 804.6619
162.6790, 818.5204
163.1611, 829.2134
163.6432, 833.3433
164.1253, 835.5132
164.6075, 838.0692
165.0896, 841.0917
165.5717, 843.4030
166.0538, 843.8735
166.5359, 843.2972
167.0180, 842.8186
167.5002, 841.9343
167.9823, 841.9271
168.4644, 844.6329
168.9465, 850.7110
169.4286, 855.8442
169.9107, 857.6530
170.3929, 856.2124
170.8750, 851.7146
171.3571, 841.7524
171.8392, 829.9048
172.3213, 819.6589
172.8034, 811.3474
173.2856, 805.3249
173.7677, 803.2811
174.2498, 804.2452
174.7319, 804.9178
175.2140, 803.6805
175.6961, 800.8155
176.1783, 796.0118
176.6604, 787.6716
177.1425, 780.2557
177.6246, 782.4250
178.1067, 792.4394
178.5888, 799.1125
179.0710, 788.1495
179.5531, 767.8273
180.0352, 757.4537
180.5173, 765.5101
180.9994, 781.7844
181.4815, 789.0067
181.9637, 787.5008
182.4458, 785.4130
182.9279, 789.7690
183.4100, 799.3958
183.8921, 810.1124
184.3742, 821.9913
184.8564, 833.6625
185.3385, 840.0948
185.8206, 840.8655
186.3027, 842.2025
186.7848, 853.7574
187.2669, 873.6163
187.7491, 887.5634
188.2312, 888.3765
188.7133, 879.3445
189.1954, 871.4727
189.6775, 864.4672
190.1596, 860.2219
190.6418, 862.0970
191.1239, 869.9680
191.6060, 878.5876
192.0881, 885.6213
192.5702, 891.3726
193.0524, 899.1500
193.5345, 909.7224
194.0166, 920.2802
194.4987, 925.2193
194.9808, 924.1023
195.4629, 923.9782
195.9451, 929.4072
196.4272, 940.2924
196.9093, 947.2364
197.3914, 948.8839
197.8735, 948.2587
198.3556, 952.6228
198.8378, 963.3069
199.3199, 970.5139
199.8020, 966.0895
200.2841, 948.8491
200.7662, 938.7982
201.2483, 938.6718
201.7305, 944.9003
202.2126, 949.0999
202.6947, 951.0495
203.1768, 951.7944
203.6589, 952.7106
204.1410, 954.4301
204.6232, 951.4799
205.1053, 942.2781
205.5874, 928.5751
206.0695, 915.3181
206.5516, 901.5136
207.0337, 890.7661
207.5159, 887.6259
207.9980, 895.0522
208.4801, 895.6053
208.9622, 884.2240
209.4443, 864.4002
209.9264, 854.0480
210.4086, 856.1394
210.8907, 861.7495
211.3728, 864.1108
211.8549, 862.3693
212.3370, 860.2677
212.8191, 857.9302
213.3013, 855.5557
213.7834, 855.5573
214.2655, 860.5432
214.7476, 863.6965
215.2297, 857.2380
215.7118, 835.2605
216.1940, 820.1123
216.6761, 817.1862
217.1582, 825.8734
217.6403, 833.7218
218.1224, 841.2958
218.6045, 847.1666
219.0867, 850.0190
219.5688, 849.8394
220.0509, 846.3748
220.5330, 838.2889
221.0151, 825.2966
221.4972, 816.6223
221.9794, 814.0081
222.4615, 813.6767
222.9436, 811.4257
223.4257, 805.9491
223.9078, 801.1922
224.3899, 798.0996
224.8721, 796.7048
225.3542, 796.2454
225.8363, 797.9868
226.3184, 799.4653
226.8005, 797.3745
227.2827, 789.5021
227.7648, 782.2263
228.2469, 776.5912
228.7290, 772.3273
229.2111, 772.3365
229.6932, 779.6123
230.1754, 788.7343
230.6575, 792.1278
231.1396, 785.7317
231.6217, 780.7950
232.1038, 781.1075
232.5859, 788.1830
233.0681, 792.2195
233.5502, 791.8544
234.0323, 789.4297
234.5144, 788.9457
234.9965, 794.1682
235.4786, 794.7161
235.9608, 784.5587
236.4429, 758.5887
236.9250, 746.8494
237.4071, 755.5649
237.8892, 774.7770
238.3713, 789.2161
238.8535, 798.2827
239.3356, 803.5214
239.8177, 804.7126
240.2998, 800.5020
240.7819, 797.5356
241.2640, 796.6588
241.7462, 796.4866
242.2283, 794.5015
242.7104, 789.6232
243.1925, 784.6758
243.6746, 780.1200
244.1567, 775.0403
244.6389, 773.8535
245.1210, 778.6895
245.6031, 786.1385
246.0852, 790.1376
246.5673, 789.5416
247.0494, 787.4289
247.5316, 784.6410
248.0137, 780.8557
248.4958, 777.5721
248.9779, 775.4087
249.4600, 773.4130
249.9421, 769.5415
250.4243, 762.0835
250.9064, 755.7809
251.3885, 752.8884
251.8706, 755.1254
252.3527, 754.7859
252.8348, 750.5620
253.3170, 744.5837
253.7991, 741.2119
254.2812, 742.1733
254.7633, 742.4731
255.2454, 739.4880
255.7275, 731.2515
256.2097, 727.5409
256.6918, 730.5735
257.1739, 736.6485
257.6560, 738.4061
258.1381, 733.2251
258.6202, 729.1973
259.1024, 731.0127
259.5845, 742.2161
260.0666, 743.4694
260.5487, 729.8713
261.0308, 710.0400
261.5129, 699.5449
261.9951, 701.0649
262.4772, 705.7792
262.9593, 710.9202
263.4414, 716.9695
263.9235, 721.3156
264.4056, 723.7836
264.8878, 724.7501
265.3699, 725.1228
265.8520, 725.3113
266.3341, 723.7368
266.8162, 719.4424
267.2983, 712.0622
267.7805, 704.4099
268.2626, 696.2548
268.7447, 688.1563
269.2268, 680.5723
269.7089, 672.8865
270.1910, 667.9741
270.6732, 668.0741
271.1553, 674.0012
271.6374, 676.5622
272.1195, 674.6796
272.6016, 671.0110
273.0837, 670.0881
273.5659, 672.4252
274.0480, 674.8512
274.5301, 676.5660
275.0122, 677.5954
275.4943, 676.4433
275.9764, 672.6334
276.4586, 667.5373
276.9407, 663.2985
277.4228, 660.1412
277.9049, 656.3366
278.3870, 650.2384
278.8691, 642.0940
279.3513, 637.6873
279.8334, 637.2903
280.3155, 639.9333
280.7976, 646.7056
281.2798, 657.9431
281.7619, 664.0015
282.2440, 657.7692
282.7261, 641.6750
283.2082, 635.4106
283.6903, 640.5966
284.1725, 649.6503
284.6546, 653.8767
285.1367, 653.3522
285.6188, 650.7775
286.1009, 644.7618
286.5830, 637.2367
287.0652, 638.7264
287.5473, 650.6677
288.0294, 662.9637
288.5115, 662.7145
288.9936, 651.3987
289.4757, 641.2530
289.9579, 635.8146
290.4400, 634.5650
290.9221, 636.9828
291.4042, 643.3199
291.8863, 650.1801
292.3684, 654.8823
292.8506, 657.3928
293.3327, 657.4960
293.8148, 653.4552
294.2969, 647.9301
294.7790, 647.0015
295.2611, 650.6782
295.7433, 654.0630
296.2254, 650.6120
296.7075, 643.2259
297.1896, 640.4517
297.6717, 647.3179
298.1538, 657.7449
298.6360, 663.3519
299.1181, 664.2927
299.6002, 661.7960
300.0823, 651.1588
300.5644, 638.3684
301.0465, 635.7397
301.5287, 652.2863
302.0108, 672.9987
302.4929, 679.9089
302.9750, 674.9645
303.4571, 668.9474
303.9392, 669.5515
304.4214, 673.3381
304.9035, 675.4081
305.3856, 673.2225
305.8677, 671.1874
306.3498, 674.2912
306.8319, 681.1367
307.3141, 686.8635
307.7962, 687.4045
308.2783, 685.9271
308.7604, 686.1346
309.2425, 690.5732
309.7246, 692.7735
310.2068, 684.0114
310.6889, 669.1971
311.1710, 660.9469
311.6531, 671.6323
312.1352, 687.3674
312.6173, 698.2352
313.0995, 702.1161
313.5816, 702.2988
314.0637, 697.3650
314.5458, 689.9653
315.0279, 685.0477
315.5100, 684.8664
315.9922, 687.3954
316.4743, 693.1355
316.9564, 704.0659
317.4385, 710.1874
317.9206, 703.3226
318.4027, 690.7792
318.8849, 682.7704
319.3670, 689.1809
319.8491, 694.3059
320.3312, 690.2434
320.8133, 674.0226
321.2954, 663.3149
321.7776, 665.1105
322.2597, 672.6295
322.7418, 678.6445
323.2239, 683.1910
323.7060, 685.0717
324.1881, 682.6844
324.6703, 675.4907
325.1524, 670.6151
325.6345, 669.7232
326.1166, 670.7667
326.5987, 672.1404
327.0808, 677.3362
327.5630, 678.6642
328.0451, 672.2571
328.5272, 658.7626
329.0093, 652.5737
329.4914, 659.0530
329.9735, 668.0787
330.4557, 672.8480
330.9378, 669.1011
331.4199, 668.7942
331.9020, 675.3148
332.3841, 686.4030
332.8662, 690.3749
333.3484, 683.1328
333.8305, 674.9302
334.3126, 671.3877
334.7947, 673.8662
335.2768, 676.7840
335.7589, 679.3393
336.2411, 682.4720
336.7232, 690.1672
337.2053, 705.2543
337.6874, 716.4514
338.1695, 715.3694
338.6516, 699.4706
339.1338, 694.4692
339.6159, 703.2118
340.0980, 719.1862
340.5801, 733.1959
341.0622, 745.7890
341.5443, 752.4512
342.0265, 747.2815
342.5086, 732.4349
342.9907, 729.0052
343.4728, 738.5800
343.9549, 753.4793
344.4370, 765.0783
344.9192, 773.5687
345.4013, 781.2794
345.8834, 788.9336
346.3655, 796.3021
346.8476, 802.6953
347.3297, 808.1115
347.8119, 812.0958
348.2940, 813.0563
348.7761, 812.0391
349.2582, 812.2255
349.7403, 815.0982
350.2225, 818.9980
350.7046, 822.1652
351.1867, 824.5293
351.6688, 825.3204
352.1509, 821.5964
352.6331, 816.5615
353.1152, 815.6633
353.5973, 822.2739
354.0794, 829.2175
354.5615, 828.4194
355.0436, 822.3253
355.5258, 818.3792
356.0079, 824.8510
356.4900, 832.9428
356.9721, 833.9556
357.4542, 824.3230
357.9363, 815.1836
358.4185, 814.5582
358.9006, 818.4656
359.3827, 820.0180
359.8648, 816.7127
360.3469, 810.2160
360.8290, 799.3930
361.3112, 782.9164
361.7933, 771.2592
362.2754, 771.4261
362.7575, 776.6341
363.2396, 779.5231
363.7217, 777.4806
364.2039, 773.8806
364.6860, 768.2556
365.1681, 760.5925
365.6502, 756.0085
366.1323, 759.0577
366.6144, 762.9218
367.0966, 762.8843
367.5787, 755.4092
368.0608, 748.1312
368.5429, 740.1760
369.0250, 732.3434
369.5071, 729.1916
369.9893, 734.9487
370.4714, 740.4729
370.9535, 741.3569
371.4356, 736.2460
371.9177, 729.1293
372.3998, 717.8954
372.8820, 705.7513
373.3641, 700.4496
373.8462, 704.0438
374.3283, 709.1890
374.8104, 713.5622
375.2925, 717.3148
375.7747, 718.9872
376.2568, 718.6833
376.7389, 716.1301
377.2210, 709.5923
377.7031, 698.6211
378.1852, 690.4565
378.6674, 689.3436
379.1495, 692.6948
379.6316, 686.6257
380.1137, 669.8961
380.5958, 655.4480
381.0779, 658.9469
381.5601, 676.6692
382.0422, 689.9767
382.5243, 694.6970
383.0064, 693.3463
383.4885, 688.4774
383.9706, 680.4995
384.4528, 672.7748
384.9349, 668.3243
385.4170, 665.3821
385.8991, 660.3856
386.3812, 651.9151
386.8633, 644.1130
387.3455, 641.4312
387.8276, 642.3923
388.3097, 643.5902
388.7918, 642.2109
389.2739, 641.0896
389.7560, 644.3995
390.2382, 653.1927
390.7203, 657.4577
391.2024, 646.4655
391.6845, 629.8036
392.1666, 618.3852
392.6487, 621.6761
393.1309, 625.4872
393.6130, 623.3322
394.0951, 615.7547
394.5772, 610.2083
395.0593, 609.9305
395.5414, 611.4245
396.0236, 612.5210
396.5057, 615.0074
396.9878, 614.6030
397.4699, 609.0273
397.9520, 600.0052
398.4341, 593.0710
398.9163, 590.8104
399.3984, 587.9391
399.8805, 581.8572
400.3626, 569.8185
400.8447, 562.9512
401.3268, 563.3268
401.8090, 567.3555
402.2911, 570.5531
402.7732, 573.7112
403.2553, 573.6591
403.7374, 567.9299
404.2195, 557.0999
404.7017, 551.8429
405.1838, 552.8302
405.6659, 557.6273
406.1480, 566.5189
406.6301, 579.7137
407.1122, 585.5986
407.5944, 579.6988
408.0765, 567.7506
408.5586, 563.5886
409.0407, 567.0701
409.5228, 572.5686
410.0049, 578.3292
410.4871, 583.2424
410.9692, 583.0862
411.4513, 576.2860
411.9334, 569.0408
412.4155, 569.7278
412.8976, 575.9137
413.3798, 580.5270
413.8619, 577.7840
414.3440, 573.3904
414.8261, 573.5278
415.3082, 578.3366
415.7903, 584.2557
416.2725, 590.0917
416.7546, 595.3495
417.2367, 599.6649
417.7188, 604.7241
418.2009, 606.6927
418.6830, 600.8807
419.1652, 589.6829
419.6473, 582.1129
420.1294, 583.2393
420.6115, 587.1965
421.0937, 591.2432
421.5758, 596.0576
422.0579, 598.5325
422.5400, 596.8306
423.0221, 592.8590
423.5042, 589.6829
423.9864, 587.0806
424.4685, 585.7094
424.9506, 586.5408
425.4327, 589.9520
425.9148, 590.3164
426.3969, 585.9245
426.8791, 580.4380
427.3612, 577.6369
427.8433, 579.4524
428.3254, 577.4531
428.8075, 568.5753
429.2896, 555.8222
429.7718, 549.7964
430.2539, 551.1837
430.7360, 555.3878
431.2181, 561.4556
431.7002, 569.0023
432.1823, 571.8746
432.6645, 569.1342
433.1466, 563.8173
433.6287, 559.0574
434.1108, 555.0372
434.5929, 552.7704
435.0750, 553.8575
435.5572, 556.4816
436.0393, 558.4061
436.5214, 559.5359
437.0035, 557.8467
437.4856, 546.9421
437.9677, 533.6623
438.4499, 528.3604
438.9320, 537.6943
439.4141, 548.7371
439.8962, 552.9125
440.3783, 551.6618
440.8604, 548.8210
441.3426, 546.4999
441.8247, 542.7723
442.3068, 535.4133
442.7889, 522.7801
443.2710, 513.3389
443.7531, 511.1841
444.2353, 512.6730
444.7174, 513.7412
445.1995, 515.4761
445.6816, 514.9249
446.1637, 509.0978
446.6458, 498.9921
447.1280, 495.3813
447.6101, 503.9305
448.0922, 512.7410
448.5743, 514.3777
449.0564, 503.9542
449.5385, 499.8623
450.0207, 504.7061
450.5028, 514.1255
450.9849, 520.8116
451.4670, 525.0150
451.9491, 524.6947
452.4312, 516.1151
452.9134, 501.2239
453.3955, 496.5760
453.8776, 503.3503
454.3597, 511.9635
454.8418, 512.6622
455.3239, 507.0580
455.8061, 501.4849
456.2882, 496.5548
456.7703, 493.4801
457.2524, 495.7912
457.7345, 502.0769
458.2166, 506.6157
458.6988, 505.5291
459.1809, 501.1050
459.6630, 494.4287
460.1451, 484.8399
460.6272, 478.3854
461.1093, 480.8088
461.5915, 488.0089
462.0736, 494.8698
462.5557, 497.9398
463.0378, 502.1069
463.5199, 512.1442
464.0020, 526.4796
464.4842, 533.7057
464.9663, 523.4256
465.4484, 511.2693
465.9305, 505.7897
466.4126, 513.7767
466.8947, 516.7974
467.3769, 511.3184
467.8590, 502.4281
468.3411, 498.4505
468.8232, 501.1467
469.3053, 505.5420
469.7874, 511.5357
470.2696, 518.8112
470.7517, 520.7601
471.2338, 516.1239
471.7159, 510.0471
472.1980, 507.4869
472.6801, 508.3099
473.1623, 506.5556
473.6444, 500.1164
474.1265, 493.2002
474.6086, 495.3796
475.0907, 505.0017
475.5728, 511.3763
476.0550, 503.8918
476.5371, 491.2672
477.0192, 488.4640
477.5013, 496.0387
477.9834, 506.0800
478.4655, 515.6175
478.9477, 523.0052
479.4298, 525.6845
479.9119, 518.6609
480.3940, 512.1830
480.8761, 512.9446
481.3582, 518.6671
481.8404, 522.8083
482.3225, 523.9678
482.8046, 522.4557
483.2867, 517.0091
483.7688, 504.7204
484.2509, 498.2776
484.7331, 503.4885
485.2152, 512.6049
485.6973, 518.4623
486.1794, 518.4311
486.6615, 519.6361
487.1436, 523.1891
487.6258, 528.7485
488.1079, 535.1607
488.5900, 543.1348
489.0721, 549.8817
489.5542, 552.6913
490.0363, 551.5132
490.5185, 554.5869
491.0006, 563.0789
491.4827, 572.5444
491.9648, 577.6087
492.4470, 578.6054
492.9291, 576.8788
493.4112, 571.2083
493.8933, 564.5411
494.3754, 561.8188
494.8575, 562.5689
495.3397, 563.9781
495.8218, 561.1151
496.3039, 559.4551
496.7860, 566.2893
497.2681, 585.0666
497.7502, 603.1509
498.2324, 616.7955
498.7145, 624.9752
499.1966, 626.5464
499.6787, 612.2082
500.1608, 600.1402
500.6429, 596.7200
501.1251, 601.5565
501.6072, 606.3779
502.0893, 608.5859
502.5714, 612.5012
503.0535, 621.1674
503.5356, 640.3049
504.0178, 649.7368
504.4999, 644.9317
504.9820, 634.4454
505.4641, 631.6335
505.9462, 637.9634
506.4283, 644.2469
506.9105, 647.3796
507.3926, 648.5420
507.8747, 654.1005
508.3568, 664.4757
508.8389, 671.6107
509.3210, 666.8724
509.8032, 654.3568
510.2853, 644.9993
510.7674, 640.1172
511.2495, 638.6228
511.7316, 639.4598
512.2137, 642.8774
512.6959, 649.3157
513.1780, 662.2241
513.6601, 675.5327
514.1422, 685.9607
514.6243, 693.4929
515.1064, 698.4115
515.5886, 699.1670
516.0707, 698.5086
516.5528, 697.6715
517.0349, 694.9360
517.5170, 695.9376
517.9991, 703.8690
518.4813, 714.7891
518.9634, 723.7910
519.4455, 729.9655
519.9276, 735.8098
520.4097, 742.1033
520.8918, 748.4894
521.3740, 752.9812
521.8561, 755.0035
522.3382, 757.0370
522.8203, 759.9360
523.3024, 763.8067
523.7845, 772.0884
524.2667, 786.1746
524.7488, 800.2643
525.2309, 805.6354
525.7130, 804.9287
526.1951, 807.3519
526.6772, 818.2793
527.1594, 831.8735
527.6415, 841.7809
528.1236, 848.3896
528.6057, 853.6080
529.0878, 855.1279
529.5699, 857.8356
530.0521, 866.8642
530.5342, 885.1638
531.0163, 899.6028
531.4984, 902.3029
531.9805, 900.7277
532.4626, 902.8373
532.9448, 919.2416
533.4269, 927.6659
533.9090, 921.5829
534.3911, 905.2754
534.8732, 895.5298
535.3553, 893.6326
535.8375, 895.8785
536.3196, 902.6456
536.8017, 914.5812
537.2838, 918.1000
537.7659, 911.5203
538.2480, 902.1632
538.7302, 898.8083
539.2123, 900.2921
539.6944, 898.2201
540.1765, 889.2242
540.6586, 878.7350
541.1407, 874.8623
541.6229, 876.0867
542.1050, 876.8613
542.5871, 872.5781
543.0692, 867.5766
543.5513, 866.6161
544.0334, 869.9028
544.5156, 871.9206
544.9977, 869.9545
545.4798, 865.7319
545.9619, 860.5327
546.4440, 853.5765
546.9261, 847.1712
547.4083, 840.4870
547.8904, 834.7861
548.3725, 832.6749
548.8546, 837.1724
549.3367, 840.3052
549.8188, 840.2077
550.3010, 837.0176
550.7831, 831.9091
551.2652, 824.3254
551.7473, 816.6531
552.2294, 810.3441
552.7115, 805.3817
553.1937, 802.4968
553.6758, 802.2488
554.1579, 801.9927
554.6400, 797.8917
555.1221, 791.0435
555.6042, 784.4534
556.0864, 776.5363
556.5685, 771.9371
557.0506, 779.2096
557.5327, 794.7676
558.0148, 805.1376
558.4969, 798.2468
558.9791, 788.2847
559.4612, 784.5886
559.9433, 789.7684
560.4254, 792.6888
560.9075, 790.9481
561.3896, 786.2458
561.8718, 779.7125
562.3539, 766.0617
562.8360, 760.2094
563.3181, 767.4498
563.8002, 781.1874
564.2823, 784.9992
564.7645, 777.0520
565.2466, 767.0826
565.7287, 757.3663
566.2108, 748.6818
566.6929, 746.4519
567.1750, 750.9504
567.6572, 756.1083
568.1393, 756.8511
568.6214, 754.5545
569.1035, 752.1678
569.5856, 750.4947
570.0677, 747.2756
570.5499, 737.5011
571.0320, 725.5496
571.5141, 718.2725
571.9962, 726.1965
572.4783, 731.2899
572.9604, 722.3014
573.4426, 702.6990
573.9247, 690.4955
574.4068, 698.6395
574.8889, 705.5681
575.3710, 702.0312
575.8531, 685.2398
576.3353, 673.0878
576.8174, 667.0704
577.2995, 663.6497
577.7816, 660.0264
578.2637, 656.3507
578.7458, 650.4656
579.2280, 641.0840
579.7101, 631.1485
580.1922, 627.8200
580.6743, 629.5975
581.1564, 628.0056
581.6385, 615.8647
582.1207, 599.8688
582.6028, 588.2978
583.0849, 581.0033
583.5670, 575.9836
584.0491, 573.8552
584.5313, 572.4124
585.0134, 569.9205
585.4955, 565.8783
585.9776, 561.6016
586.4597, 555.5745
586.9418, 550.2949
587.4240, 548.8501
587.9061, 555.2643
588.3882, 559.3791
588.8703, 560.5891
589.3524, 558.6782
589.8345, 551.3033
590.3167, 535.9361
590.7988, 525.0285
591.2809, 527.3199
591.7630, 539.0845
592.2451, 539.3699
592.7272, 527.7470
593.2094, 515.1281
593.6915, 511.1627
594.1736, 512.5433
594.6557, 513.1141
595.1378, 511.8276
595.6199, 509.8980
596.1021, 505.0167
596.5842, 500.9157
597.0663, 502.9297
597.5485, 524.1356
598.0306, 539.7692
598.5127, 538.3250
598.9948, 523.7620
599.4769, 513.6161
599.9590, 511.7708
600.4412, 510.9252
600.9233, 508.3760
601.4054, 503.8064
601.8875, 502.6189
602.3696, 505.6598
602.8517, 510.0428
603.3339, 513.8082
603.8160, 516.9335
604.2981, 518.7010
604.7802, 519.1618
605.2623, 517.7234
605.7444, 512.1528
606.2266, 503.9245
606.7087, 497.3118
607.1908, 495.1936
607.6729, 493.7730
608.1550, 488.4247
608.6371, 480.9684
609.1193, 477.1344
609.6014, 480.6436
610.0835, 487.1661
610.5656, 496.5023
611.0477, 509.7669
611.5298, 516.1335
612.0120, 510.6627
612.4941, 502.8481
612.9762, 499.1912
613.4583, 501.3425
613.9404, 501.4829
614.4225, 498.6288
614.9047, 494.8951
615.3868, 492.8553
615.8689, 492.5060
616.3510, 494.3237
616.8331, 499.6538
617.3152, 505.6259
617.7974, 508.0036
618.2795, 507.1973
618.7616, 504.9803
619.2437, 500.6017
619.7258, 496.4751
620.2079, 495.0602
620.6901, 496.4421
621.1722, 496.6136
621.6543, 492.2742
622.1364, 487.6023
622.6185, 485.5395
623.1006, 487.9780
623.5828, 489.1580
624.0649, 489.0800
624.5470, 487.7425
625.0291, 483.9709
625.5112, 476.3927
625.9933, 474.4737
626.4755, 481.8241
626.9576, 493.1679
627.4397, 496.6346
627.9218, 493.2518
628.4039, 490.8628
628.8860, 495.0355
629.3682, 501.5419
629.8503, 503.5658
630.3324, 501.8726
630.8145, 502.3300
631.2966, 513.4973
631.7787, 524.4440
632.2609, 526.0382
632.7430, 513.9587
633.2251, 505.0717
633.7072, 502.3732
634.1893, 504.4763
634.6714, 511.0599
635.1536, 527.0352
635.6357, 536.3716
636.1178, 536.3823
636.5999, 530.7713
637.0820, 525.2220
637.5641, 519.6899
638.0463, 516.0433
638.5284, 514.6117
639.0105, 515.6354
639.4926, 521.6759
639.9747, 531.6120
640.4568, 538.8079
640.9390, 534.4529
641.4211, 528.7149
641.9032, 533.2915
642.3853, 548.9484
642.8674, 560.6766
643.3495, 560.9720
643.8317, 556.2233
644.3138, 550.3146
644.7959, 540.2083
645.2780, 536.0435
645.7601, 540.8394
646.2422, 548.9158
646.7244, 552.8391
647.2065, 550.9490
647.6886, 554.2018
648.1707, 566.7610
648.6528, 582.1613
649.1349, 586.9109
649.6171, 582.1008
650.0992, 575.7136
650.5813, 569.0363
651.0634, 564.3255
651.5455, 565.5175
652.0276, 571.7159
652.5098, 578.0596
652.9919, 581.7482
653.4740, 584.9402
653.9561, 589.2428
654.4382, 595.1908
654.9203, 599.8914
655.4025, 602.6099
655.8846, 604.2989
656.3667, 604.9064
656.8488, 602.4626
657.3309, 605.5889
657.8130, 616.3067
658.2952, 629.5298
658.7773, 637.7433
659.2594, 641.4490
659.7415, 645.5002
660.2236, 650.3204
660.7057, 657.5332
661.1879, 671.4274
661.6700, 689.7829
662.1521, 706.2527
662.6342, 715.7374
663.1163, 724.1011
663.5984, 735.6100
664.0806, 749.7727
664.5627, 761.9294
665.0448, 767.4429
665.5269, 773.7688
666.0090, 783.9559
666.4911, 798.1723
666.9733, 815.0560
667.4554, 836.7031
667.9375, 856.8602
668.4196, 867.2123
668.9017, 868.4271
669.3839, 882.4637
669.8660, 913.9100
670.3481, 945.5504
670.8302, 954.7607
671.3123, 949.1705
671.7944, 945.1840
672.2766, 948.4858
672.7587, 953.7318
673.2408, 958.3495
673.7229, 962.3021
674.2050, 965.6141
674.6871, 970.1235
675.1693, 971.9847
675.6514, 970.6980
676.1335, 966.1021
676.6156, 957.0340
677.0977, 943.2491
677.5798, 925.5463
678.0620, 903.3160
678.5441, 876.9850
679.0262, 851.5635
679.5083, 826.6506
679.9904, 805.8031
680.4725, 794.8408
680.9547, 788.9664
681.4368, 778.9277
681.9189, 763.2723
682.4010, 748.1476
682.8831, 740.3520
683.3652, 734.0035
683.8474, 722.8447
684.3295, 698.3763
684.8116, 680.3502
685.2937, 675.0704
685.7758, 676.1963
686.2579, 676.4254
686.7401, 676.5561
687.2222, 673.0893
687.7043, 663.6186
688.1864, 651.9027
688.6685, 648.4576
689.1506, 652.7021
689.6328, 655.2582
690.1149, 650.7770
690.5970, 642.9127
691.0791, 634.4604
691.5612, 626.5315
692.0433, 624.8529
692.5255, 641.3407
693.0076, 657.8980
693.4897, 660.5312
693.9718, 646.5876
694.4539, 639.5644
694.9360, 648.8175
695.4182, 660.0468
695.9003, 666.0478
696.3824, 665.9393
696.8645, 663.2432
697.3466, 656.8832
697.8287, 650.7609
698.3109, 650.0209
698.7930, 653.5667
699.2751, 655.2163
699.7572, 653.3395
700.2393, 651.3967
700.7214, 654.3340
701.2036, 659.4046
701.6857, 661.9726
702.1678, 657.0814
702.6499, 653.2697
703.1320, 653.9426
703.6141, 658.0359
704.0963, 663.0887
704.5784, 671.6825
705.0605, 676.9019
705.5426, 676.0417
706.0247, 670.7660
706.5068, 668.5647
706.9890, 669.6747
707.4711, 671.7558
707.9532, 674.6507
708.4353, 677.3978
708.9174, 676.5312
709.3995, 672.4457
709.8817, 669.0303
710.3638, 669.6483
710.8459, 671.6956
711.3280, 673.5342
711.8101, 675.2359
712.2922, 674.3951
712.7744, 664.8164
713.2565, 656.6110
713.7386, 657.3034
714.2207, 673.5745
714.7028, 681.0984
715.1849, 677.9550
715.6671, 669.5026
716.1492, 658.4247
716.6313, 645.6631
717.1134, 643.0795
717.5955, 655.0175
718.0776, 670.2424
718.5598, 674.5873
719.0419, 672.1685
719.5240, 670.9971
720.0061, 675.8396
720.4882, 680.2347
720.9703, 681.1938
721.4525, 679.5654
721.9346, 677.2735
722.4167, 673.5161
722.8988, 670.4894
723.3809, 668.8646
723.8630, 668.2469
724.3452, 666.9970
724.8273, 665.0255
725.3094, 663.0885
725.7915, 661.4303
726.2736, 660.1161
726.7557, 659.2966
727.2379, 658.9720
727.7200, 659.1423
728.2021, 660.5347
728.6842, 661.9039
729.1663, 662.2551
729.6484, 661.4863
730.1306, 660.1324
730.6127, 656.3741
731.0948, 653.7717
731.5769, 654.7454
732.0590, 660.8987
732.5411, 663.7797
733.0233, 662.7061
733.5054, 659.8909
733.9875, 656.9421
734.4696, 653.9203
734.9517, 651.4537
735.4338, 649.6568
735.9160, 648.0500
736.3981, 646.2774
736.8802, 644.3391
737.3623, 642.2102
737.8444, 639.7443
738.3266, 637.3516
738.8087, 636.8878
739.2908, 635.9842
739.7729, 630.9271
740.2551, 618.0250
740.7372, 607.3162
741.2193, 599.2012
741.7014, 594.4953
742.1835, 596.9517
742.6656, 606.6663
743.1478, 613.1639
743.6299, 612.3904
744.1120, 607.5223
744.5941, 601.6693
745.0762, 595.6931
745.5583, 592.0840
746.0405, 597.1931
746.5226, 600.2925
747.0047, 590.9613
747.4868, 572.5219
747.9689, 565.1713
748.4510, 582.9671
748.9332, 596.9218
749.4153, 596.0619
749.8974, 582.1096
750.3795, 576.4696
750.8616, 580.2141
751.3438, 584.0388
751.8259, 582.2094
752.3080, 576.1275
752.7901, 567.2512
753.2722, 555.9847
753.7543, 547.9545
754.2365, 548.3323
754.7186, 552.5067
755.2007, 558.1183
755.6828, 565.8855
756.1649, 569.0208
756.6470, 562.6308
757.1292, 554.6384
757.6113, 549.8756
758.0934, 549.3837
758.5755, 547.3798
759.0576, 543.6038
759.5397, 539.1090
760.0219, 534.7458
760.5040, 530.5298
760.9861, 525.4285
761.4682, 518.3099
761.9503, 515.9551
762.4324, 530.0651
762.9146, 549.2903
763.3967, 560.1231
763.8788, 554.4785
764.3609, 548.1405
764.8430, 543.7249
765.3251, 539.8397
765.8073, 534.4063
766.2894, 526.3560
766.7715, 521.2673
767.2536, 520.5810
767.7357, 521.9780
768.2178, 521.2464
768.7000, 519.0991
769.1821, 518.7161
769.6642, 522.3344
770.1463, 526.1011
770.6284, 526.4601
771.1105, 524.6049
771.5927, 522.8427
772.0748, 523.5938
772.5569, 522.4155
773.0390, 516.0612
773.5211, 507.5064
774.0032, 504.6778
774.4854, 508.8056
774.9675, 514.3283
775.4496, 520.6263
775.9317, 526.3463
776.4138, 527.6199
776.8959, 524.9685
777.3781, 521.2855
777.8602, 515.0373
778.3423, 510.8606
778.8244, 516.7591
779.3065, 529.2358
779.7886, 533.5426
780.2708, 513.2907
780.7529, 496.7770
781.2350, 494.7100
781.7171, 505.2937
782.1992, 511.9134
782.6813, 514.1356
783.1635, 513.8182
783.6456, 509.7657
784.1277, 504.2077
784.6098, 506.5986
785.0919, 515.9221
785.5740, 522.2405
786.0562, 515.7369
786.5383, 506.0087
787.0204, 500.6543
787.5025, 500.1512
787.9846, 501.5883
788.4667, 508.2783
788.9489, 512.7972
789.4310, 511.1091
789.9131, 502.7254
790.3952, 497.5347
790.8773, 495.7428
791.3594, 496.3794
791.8416, 502.9789
792.3237, 510.9275
792.8058, 504.5077
793.2879, 483.2104
793.7700, 464.9756
794.2521, 464.4797
794.7343, 470.7738
795.2164, 475.2470
795.6985, 476.3659
796.1806, 477.9946
796.6627, 482.1109
797.1448, 485.1976
797.6270, 483.4002
798.1091, 475.1107
798.5912, 477.2135
799.0733, 491.9150
799.5554, 505.7704
800.0375, 502.6681
800.5197, 490.1903
801.0018, 483.4365
801.4839, 485.1887
801.9660, 486.5386
802.4481, 482.8778
802.9302, 475.9623
803.4124, 466.0829
803.8945, 446.3580
804.3766, 441.0284
804.8587, 458.4673
805.3408, 479.2569
805.8229, 484.4672
806.3051, 474.2110
806.7872, 465.6983
807.2693, 460.1228
807.7514, 457.8840
808.2335, 461.2711
808.7156, 467.5344
809.1978, 472.8790
809.6799, 476.9854
810.1620, 478.5455
810.6441, 474.6196
811.1262, 469.2195
811.6083, 466.5370
812.0905, 469.1079
812.5726, 468.3423
813.0547, 462.7910
813.5368, 456.3904
814.0189, 453.4797
814.5010, 453.7953
814.9832, 456.3424
815.4653, 461.4525
815.9474, 466.3210
816.4295, 469.4161
816.9116, 470.3373
817.3937, 468.1969
817.8759, 460.2714
818.3580, 454.2553
818.8401, 452.7490
819.3222, 453.2183
819.8043, 453.6808
820.2864, 454.4172
820.7686, 453.4345
821.2507, 449.9632
821.7328, 446.5636
822.2149, 446.2610
822.6970, 448.6898
823.1791, 453.5070
823.6613, 461.5197
824.1434, 468.7931
824.6255, 472.4656
825.1076, 474.0264
825.5897, 475.0726
826.0718, 477.5247
826.5540, 476.6396
827.0361, 470.0199
827.5182, 462.8080
828.0003, 461.7284
828.4824, 466.7094
828.9645, 471.1182
829.4467, 474.0988
829.9288, 475.7682
830.4109, 473.8694
830.8930, 471.5033
831.3751, 474.0876
831.8572, 485.9147
832.3394, 496.0803
832.8215, 502.2375
833.3036, 503.9462
833.7857, 500.5089
834.2678, 488.9569
834.7499, 481.1194
835.2321, 478.1229
835.7142, 478.1039
836.1963, 479.9782
836.6784, 483.0065
837.1605, 483.9799
837.6426, 481.7265
838.1248, 479.9175
838.6069, 481.4390
839.0890, 484.9496
839.5711, 489.0558
840.0532, 494.2368
840.5353, 498.7298
841.0175, 503.6875
841.4996, 506.6865
841.9817, 503.0862
842.4638, 492.3027
842.9459, 490.4909
843.4280, 500.4337
843.9102, 512.8355
844.3923, 519.3719
844.8744, 520.9144
845.3565, 517.4350
845.8386, 506.6109
846.3207, 499.6247
846.8029, 503.5734
847.2850, 511.7685
847.7671, 518.6587
848.2492, 525.1005
848.7313, 526.8129
849.2134, 521.9973
849.6956, 517.0110
850.1777, 520.3779
850.6598, 529.0026
851.1419, 530.5128
851.6240, 522.6249
852.1061, 516.2088
852.5883, 520.4053
853.0704, 529.3486
853.5525, 538.0555
854.0346, 545.9276
854.5167, 552.9035
854.9988, 560.6620
855.4810, 565.4725
855.9631, 562.7960
856.4452, 552.4250
856.9273, 548.8164
857.4094, 552.6187
857.8915, 558.8994
858.3737, 564.3861
858.8558, 569.2137
859.3379, 573.4917
859.8200, 577.1852
860.3021, 580.5146
860.7842, 583.9493
861.2664, 586.5325
861.7485, 586.7847
862.2306, 583.9487
862.7127, 587.8181
863.1948, 600.1083
863.6769, 611.6871
864.1591, 615.0589
864.6412, 613.1885
865.1233, 612.2091
865.6054, 612.4878
866.0875, 615.6528
866.5696, 624.7548
867.0518, 635.3559
867.5339, 645.2613
868.0160, 654.3698
868.4981, 661.1740
868.9802, 664.9925
869.4623, 667.9875
869.9445, 670.8482
870.4266, 673.7003
870.9087, 677.3787
871.3908, 681.8184
871.8729, 685.8359
872.3550, 686.7058
872.8372, 688.5273
873.3193, 696.5961
873.8014, 709.5167
874.2835, 718.7498
874.7656, 717.0797
875.2477, 718.1277
875.7299, 727.5811
876.2120, 741.8182
876.6941, 744.1392
877.1762, 734.5705
877.6583, 731.0207
878.1404, 746.1667
878.6226, 766.3451
879.1047, 774.1680
879.5869, 772.3774
880.0690, 768.2516
880.5511, 758.8737
881.0332, 754.1456
881.5153, 761.0936
881.9974, 773.2092
882.4796, 776.6636
882.9617, 769.5974
883.4438, 764.3704
883.9259, 764.0469
884.4080, 766.6097
884.8901, 770.7864
885.3723, 775.2331
885.8544, 776.6064
886.3365, 771.7307
886.8186, 766.8600
887.3007, 766.5664
887.7828, 767.1283
888.2650, 762.5212
888.7471, 747.7924
889.2292, 741.9473
889.7113, 748.5803
890.1934, 759.8403
890.6755, 766.8822
891.1577, 770.1667
891.6398, 771.6329
892.1219, 771.9448
892.6040, 768.7295
893.0861, 758.0215
893.5682, 744.3976
894.0504, 731.2870
894.5325, 715.7124
895.0146, 711.4909
895.4967, 724.3034
895.9788, 737.9672
896.4609, 735.8635
896.9431, 721.4362
897.4252, 717.8512
897.9073, 726.4470
898.3894, 734.3948
898.8715, 730.2247
899.3536, 722.5252
899.8358, 718.5330
900.3179, 719.2780
900.8000, 720.1010
901.2821, 721.7767
901.7642, 721.4628
902.2463, 716.2842
902.7285, 707.6068
903.2106, 706.8394
903.6927, 713.6513
904.1748, 719.1329
904.6569, 714.8248
905.1390, 708.8144
905.6212, 712.2260
906.1033, 721.9787
906.5854, 724.3203
907.0675, 707.1769
907.5496, 691.7939
908.0317, 682.7003
908.5139, 679.0092
908.9960, 679.1541
909.4781, 683.1566
909.9602, 686.2388
910.4423, 686.6663
910.9244, 685.4499
911.4066, 682.0535
911.8887, 678.2197
912.3708, 677.1310
912.8529, 684.7057
913.3350, 688.8799
913.8171, 686.4109
914.2993, 680.4127
914.7814, 673.8300
915.2635, 666.3139
915.7456, 663.4955
916.2277, 666.8851
916.7098, 672.0063
917.1920, 675.1589
917.6741, 676.0837
918.1562, 673.5540
918.6383, 665.7701
919.1204, 660.3253
919.6025, 662.0118
920.0847, 664.8023
920.5668, 664.2130
921.0489, 659.2856
921.5310, 658.8664
922.0131, 663.6377
922.4952, 667.2593
922.9774, 663.4898
923.4595, 655.8411
923.9416, 648.3647
924.4237, 641.5676
924.9058, 637.6785
925.3879, 639.5353
925.8701, 642.6323
926.3522, 646.5981
926.8343, 650.6011
927.3164, 645.7150
927.7985, 630.4441
928.2806, 619.9979
928.7628, 623.9780
929.2449, 634.4114
929.7270, 639.6240
930.2091, 640.9768
930.6912, 642.3079
931.1733, 648.0944
931.6555, 650.5682
932.1376, 644.2499
932.6197, 634.5269
933.1018, 631.0565
933.5839, 634.9926
934.0660, 635.6607
934.5482, 630.0319
935.0303, 624.0015
935.5124, 625.7858
935.9945, 632.3411
936.4766, 638.6621
936.9587, 644.4499
937.4409, 647.7212
937.9230, 644.7892
938.4051, 641.4431
938.8872, 642.4535
939.3693, 648.8798
939.8514, 653.1965
940.3336, 655.0432
940.8157, 657.0458
941.2978, 662.6340
941.7799, 669.1533
942.2620, 672.0281
942.7441, 671.2505
943.2263, 671.7151
943.7084, 678.5026
944.1905, 683.3281
944.6726, 681.3824
945.1547, 674.4244
945.6368, 674.3094
946.1190, 681.4506
946.6011, 688.4077
947.0832, 691.1251
947.5653, 692.6844
948.0474, 698.8973
948.5295, 707.1528
949.0117, 711.3785
949.4938, 702.4294
949.9759, 698.3956
950.4580, 704.0956
950.9401, 715.1282
951.4222, 727.2631
951.9044, 740.7474
952.3865, 742.7080
952.8686, 728.8508
953.3507, 713.9535
953.8328, 714.8088
954.3149, 723.5058
954.7971, 729.7079
955.2792, 729.7239
955.7613, 733.8851
956.2434, 747.9440
956.7255, 761.3950
957.2076, 766.9916
957.6898, 765.0521
958.1719, 767.4800
958.6540, 774.2054
959.1361, 779.2085
959.6182, 774.8875
960.1003, 769.7062
960.5825, 773.7642
961.0646, 785.0819
961.5467, 790.1247
962.0288, 776.9282
962.5109, 772.4100
962.9930, 786.0920
963.4752, 809.5629
963.9573, 822.2370
964.4394, 825.2424
964.9215, 825.6998
965.4036, 824.2122
965.8857, 824.4642
966.3679, 832.4709
966.8500, 842.7047
967.3321, 847.6346
967.8142, 838.5505
968.2963, 838.6357
968.7784, 850.2475
969.2606, 866.4702
969.7427, 882.3964
970.2248, 897.0569
970.7069, 906.3381
971.1890, 909.9493
971.6711, 911.6537
972.1533, 911.2805
972.6354, 911.9675
973.1175, 917.1656
973.5996, 926.7102
974.0817, 931.7325
974.5638, 930.9496
975.0460, 930.2473
975.5281, 932.6321
976.0102, 936.1275
976.4923, 935.5389
976.9744, 932.4329
977.4565, 931.4125
977.9387, 938.4945
978.4208, 943.3093
978.9029, 938.6422
979.3850, 931.3701
979.8671, 932.0628
980.3492, 943.1613
980.8314, 947.0543
981.3135, 940.7764
981.7956, 931.8447
982.2777, 929.0400
982.7598, 928.5726
983.2419, 924.8107
983.7241, 916.5829
984.2062, 907.9929
984.6883, 899.4704
985.1704, 891.6561
985.6525, 884.6855
986.1346, 878.5998
986.6168, 873.5866
987.0989, 869.6761
987.5810, 867.7976
988.0631, 873.3171
988.5452, 877.0500
989.0273, 867.2561
989.5095, 848.8862
989.9916, 834.7545
990.4737, 830.4810
990.9558, 825.5000
991.4379, 817.9211
991.9200, 810.1991
992.4022, 808.1118
992.8843, 809.6439
993.3664, 805.0773
993.8485, 791.7988
994.3306, 777.9191
994.8127, 766.1159
995.2949, 758.1630
995.7770, 757.9892
996.2591, 767.7660
996.7412, 767.2458
997.2233, 753.2474
997.7054, 740.5760
998.1876, 739.2487
998.6697, 745.1568
999.1518, 751.9365
999.6339, 758.3324
1000.116, 759.5190
1000.598, 749.9676
1001.080, 738.6335
1001.562, 725.7428
1002.044, 714.2795
1002.527, 710.5413
1003.009, 715.1448
1003.491, 719.0098
1003.973, 720.3940
1004.455, 720.8963
1004.937, 722.5164
1005.419, 724.1470
1005.901, 724.1087
1006.384, 721.5123
1006.866, 719.8669
1007.348, 720.0956
1007.830, 720.4948
1008.312, 719.3902
1008.794, 717.5283
1009.276, 720.9343
1009.758, 728.7674
1010.240, 734.1657
1010.723, 733.4539
1011.205, 728.7179
1011.687, 716.4872
1012.169, 701.7329
1012.651, 698.0678
1013.133, 710.9144
1013.615, 718.7490
1014.097, 716.9950
1014.580, 712.9482
1015.062, 719.2632
1015.544, 729.9048
1016.026, 732.1968
1016.508, 722.2251
1016.990, 713.2529
1017.472, 712.6681
1017.954, 712.6381
1018.436, 707.7225
1018.919, 698.4050
1019.401, 695.7911
1019.883, 699.9006
1020.365, 703.3087
1020.847, 699.6693
1021.329, 695.0039
1021.811, 695.9487
1022.293, 700.5436
1022.776, 704.0196
1023.258, 706.5920
1023.740, 705.5923
1024.222, 699.0396
1024.704, 691.6947
1025.186, 692.5179
1025.668, 698.1548
1026.150, 695.1262
1026.632, 680.6998
1027.115, 669.5942
1027.597, 674.6045
1028.079, 682.7236
1028.561, 684.8171
1029.043, 681.0848
1029.525, 679.3849
1030.007, 679.9703
1030.489, 680.8188
1030.972, 681.8211
1031.454, 681.6512
1031.936, 676.8184
1032.418, 669.5845
1032.900, 664.8644
1033.382, 665.3182
1033.864, 666.9979
1034.346, 670.0892
1034.828, 673.3135
1035.311, 675.2537
1035.793, 676.0157
1036.275, 676.2992
1036.757, 676.1656
1037.239, 674.9905
1037.721, 670.6943
1038.203, 666.6034
1038.685, 665.4698
1039.167, 667.0519
1039.650, 667.5367
1040.132, 666.0590
1040.614, 667.6470
1041.096, 675.3252
1041.578, 684.5780
1042.060, 687.4468
1042.542, 686.6317
1043.024, 687.4087
1043.507, 693.2868
1043.989, 696.7917
1044.471, 695.2304
1044.953, 692.5491
1045.435, 691.4742
1045.917, 691.9687
1046.399, 695.0211
1046.881, 700.3481
1047.364, 702.2947
1047.846, 691.8126
1048.328, 681.4666
1048.810, 681.7451
1049.292, 689.9894
1049.774, 692.8134
1050.256, 688.3191
1050.738, 685.0186
1051.220, 685.1271
1051.703, 685.6607
1052.185, 681.5687
1052.667, 675.2114
1053.149, 670.2884
1053.631, 667.3270
1054.113, 666.8317
1054.595, 669.8175
1055.077, 674.4438
1055.559, 681.0637
1056.042, 688.7422
1056.524, 690.0491
1057.006, 685.7927
1057.488, 682.5845
1057.970, 685.8909
1058.452, 689.4510
1058.934, 688.5977
1059.416, 685.5317
1059.899, 684.6490
1060.381, 686.9757
1060.863, 688.1589
1061.345, 687.8058
1061.827, 686.4558
1062.309, 683.0976
1062.791, 679.8694
1063.273, 681.4811
1063.755, 688.0899
1064.238, 690.8796
1064.720, 685.1028
1065.202, 677.7285
1065.684, 668.9771
1066.166, 661.3088
1066.648, 664.3309
1067.130, 675.4829
1067.612, 682.8883
1068.094, 681.4750
1068.577, 678.5752
1069.059, 676.4078
1069.541, 676.4640
1070.023, 681.4543
1070.505, 693.8839
1070.987, 694.2363
1071.469, 681.1223
1071.951, 669.5918
1072.434, 671.9101
1072.916, 680.0972
1073.398, 686.5102
1073.880, 690.8302
1074.362, 692.5549
1074.844, 690.3408
1075.326, 687.4586
1075.808, 683.6495
1076.291, 680.4204
1076.773, 681.0513
1077.255, 683.8602
1077.737, 683.2180
1078.219, 678.0965
1078.701, 674.6714
1079.183, 680.1132
1079.665, 683.8160
1080.147, 679.0717
1080.630, 668.0107
1081.112, 663.4371
1081.594, 665.1880
1082.076, 668.6079
1082.558, 673.3550
1083.040, 676.4013
1083.522, 673.5687
1084.004, 668.0451
1084.486, 664.2148
1084.969, 663.5298
1085.451, 661.9539
1085.933, 659.9271
1086.415, 655.4236
1086.897, 641.6132
1087.379, 626.9443
1087.861, 628.2530
1088.343, 642.7468
1088.826, 657.3605
1089.308, 670.0037
1089.790, 678.3365
1090.272, 680.9814
1090.754, 680.5269
1091.236, 682.3727
1091.718, 684.9557
1092.200, 677.9114
1092.682, 658.6108
1093.165, 646.4363
1093.647, 664.3326
1094.129, 683.3369
1094.611, 682.4563
1095.093, 665.3768
1095.575, 660.9875
1096.057, 670.0070
1096.539, 672.9415
1097.022, 658.7867
1097.504, 643.2053
1097.986, 643.4963
1098.468, 651.9627
1098.950, 658.7043
1099.432, 664.5983
1099.914, 660.4799
1100.396, 643.0346
1100.879, 626.5831
1101.361, 622.3173
1101.843, 625.8332
1102.325, 631.0703
1102.807, 636.7646
1103.289, 638.5409
1103.771, 628.7115
1104.253, 623.3968
1104.735, 627.2942
1105.218, 634.0881
1105.700, 634.2697
1106.182, 629.4108
1106.664, 627.2379
1107.146, 628.6151
1107.628, 630.1428
1108.110, 630.9112
1108.592, 629.9856
1109.074, 625.1963
1109.557, 618.3678
1110.039, 619.2910
1110.521, 628.1630
1111.003, 627.8991
1111.485, 610.2773
1111.967, 591.9998
1112.449, 589.9589
1112.931, 595.5295
1113.414, 600.1491
1113.896, 603.3411
1114.378, 601.5460
1114.860, 592.9859
1115.342, 587.4370
1115.824, 595.0345
1116.306, 605.0493
1116.788, 595.4964
1117.271, 575.5428
1117.753, 565.5367
1118.235, 585.4048
1118.717, 594.6453
1119.199, 586.7122
1119.681, 575.4642
1120.163, 575.1613
1120.645, 582.4916
1121.127, 589.5895
1121.609, 595.5574
1122.092, 596.4166
1122.574, 585.8782
1123.056, 574.7930
1123.538, 565.2168
1124.020, 558.4503
1124.502, 559.0739
1124.984, 565.9030
1125.466, 568.6684
1125.949, 565.2632
1126.431, 559.7820
1126.913, 553.4122
1127.395, 547.4180
1127.877, 541.7269
1128.359, 536.8060
1128.841, 538.6204
1129.323, 547.6742
1129.806, 554.6946
1130.288, 556.4259
1130.770, 554.5563
1131.252, 549.9993
1131.734, 543.1997
1132.216, 533.9229
1132.698, 519.6577
1133.180, 512.6346
1133.662, 513.9449
1134.145, 518.1372
1134.627, 524.0957
1135.109, 529.2544
1135.591, 528.1816
1136.073, 523.0455
1136.555, 519.3668
1137.037, 519.5648
1137.519, 520.6044
1138.001, 523.8270
1138.484, 524.6266
1138.966, 513.7992
1139.448, 497.9782
1139.930, 496.6729
1140.412, 508.8563
1140.894, 515.9205
1141.376, 505.5692
1141.858, 494.5284
1142.341, 485.2047
1142.823, 479.7328
1143.305, 485.4480
1143.787, 498.9798
1144.269, 503.5898
1144.751, 495.4934
1145.233, 489.7225
1145.715, 498.5613
1146.198, 508.4453
1146.680, 512.3771
1147.162, 511.1106
1147.644, 506.7719
1148.126, 499.7079
1148.608, 495.1961
1149.090, 496.0442
1149.572, 496.6229
1150.054, 490.9286
1150.536, 484.2065
1151.019, 482.0496
1151.501, 485.0675
1151.983, 485.2124
1152.465, 482.4835
1152.947, 477.0911
1153.429, 466.4037
1153.911, 456.2017
1154.393, 452.2252
1154.876, 452.5965
1155.358, 454.4510
1155.840, 458.1959
1156.322, 461.1086
1156.804, 463.2664
1157.286, 463.8951
1157.768, 460.9558
1158.250, 457.1198
1158.733, 457.2709
1159.215, 459.6917
1159.697, 456.9310
1160.179, 441.6235
1160.661, 436.3653
1161.143, 446.9771
1161.625, 458.9991
1162.107, 452.4344
1162.589, 437.4413
1163.072, 431.0682
1163.554, 434.2860
1164.036, 439.0680
1164.518, 444.9706
1165.000, 449.7623
1165.482, 453.1662
1165.964, 454.7725
1166.446, 453.0160
1166.928, 449.0591
1167.411, 445.8873
1167.893, 444.4586
1168.375, 440.5627
1168.857, 427.3509
1169.339, 418.5247
1169.821, 420.8081
1170.303, 430.1524
1170.785, 436.0692
1171.268, 438.9276
1171.750, 440.1262
1172.232, 440.1660
1172.714, 438.3591
1173.196, 432.9311
1173.678, 426.8513
1174.160, 420.8967
1174.642, 415.7275
1175.125, 418.1276
1175.607, 426.6203
1176.089, 432.9275
1176.571, 430.6414
1177.053, 428.7111
1177.535, 433.2472
1178.017, 438.2724
1178.499, 437.2357
1178.981, 430.2496
1179.464, 428.8350
1179.946, 432.7410
1180.428, 435.8899
1180.910, 434.7466
1181.392, 431.5132
1181.874, 424.6920
1182.356, 417.8447
1182.838, 417.4530
1183.320, 423.8630
1183.803, 425.3227
1184.285, 420.7641
1184.767, 416.5098
1185.249, 418.3764
1185.731, 421.1480
1186.213, 419.5119
1186.695, 416.2330
1187.177, 420.9204
1187.660, 434.5411
1188.142, 440.3794
1188.624, 435.0136
1189.106, 427.1054
1189.588, 420.3318
1190.070, 417.4390
1190.552, 424.8617
1191.034, 439.7302
1191.516, 440.9771
1191.999, 426.9145
1192.481, 414.3701
1192.963, 406.5955
1193.445, 404.9618
1193.927, 416.5981
1194.409, 431.1650
1194.891, 437.6820
1195.373, 435.2892
1195.855, 433.5459
1196.338, 432.7588
1196.820, 429.2905
1197.302, 419.3246
1197.784, 411.1882
1198.266, 419.4791
1198.748, 432.1609
1199.230, 431.5813
1199.712, 412.1544
1200.195, 407.4593
1200.677, 419.7459
1201.159, 430.9521
1201.641, 430.1059
1202.123, 424.9280
1202.605, 422.8577
1203.087, 423.0115
1203.569, 424.1103
1204.052, 426.8478
1204.534, 427.6029
1205.016, 426.0670
1205.498, 424.4308
1205.980, 425.2080
1206.462, 425.8781
1206.944, 421.4662
1207.426, 415.0150
1207.908, 414.0057
1208.391, 420.4901
1208.873, 428.8201
1209.355, 439.8937
1209.837, 447.1024
1210.319, 442.0933
1210.801, 432.2774
1211.283, 424.9550
1211.765, 420.1047
1212.247, 416.5845
1212.730, 412.8092
1213.212, 415.7149
1213.694, 427.6797
1214.176, 438.3441
1214.658, 433.8987
1215.140, 425.5135
1215.622, 428.0681
1216.104, 439.5497
1216.587, 443.1999
1217.069, 435.2330
1217.551, 429.6055
1218.033, 428.8535
1218.515, 429.7261
1218.997, 429.7356
1219.479, 428.6036
1219.961, 424.2900
1220.443, 417.4528
1220.926, 417.2622
1221.408, 425.7014
1221.890, 434.2476
1222.372, 441.5867
1222.854, 446.0529
1223.336, 444.6957
1223.818, 439.9555
1224.300, 432.9690
1224.782, 423.9209
1225.265, 421.9985
1225.747, 428.6636
1226.229, 435.6302
1226.711, 440.8039
1227.193, 444.0409
1227.675, 445.6315
1228.157, 444.9054
1228.639, 439.7560
1229.122, 429.2826
1229.604, 424.2786
1230.086, 425.3802
1230.568, 427.4323
1231.050, 428.1073
1231.532, 429.6116
1232.014, 436.1053
1232.496, 443.9973
1232.979, 448.8991
1233.461, 450.3073
1233.943, 450.9831
1234.425, 451.0963
1234.907, 448.3159
1235.389, 438.5245
1235.871, 430.2697
1236.353, 436.6141
1236.835, 446.9615
1237.318, 445.4348
1237.800, 428.9152
1238.282, 423.0606
1238.764, 428.3575
1239.246, 435.3462
1239.728, 441.2986
1240.210, 443.5583
1240.692, 434.1664
1241.175, 422.7519
1241.657, 424.3778
1242.139, 443.4217
1242.621, 444.6105
1243.103, 427.7709
1243.585, 413.8840
1244.067, 419.4977
1244.549, 428.2859
1245.031, 431.7623
1245.514, 430.0091
1245.996, 421.4181
1246.478, 404.1964
1246.960, 404.3846
1247.442, 421.5796
1247.924, 439.5082
1248.406, 452.1347
1248.888, 457.4270
1249.370, 449.5393
1249.853, 436.2726
1250.335, 426.5895
1250.817, 420.6009
1251.299, 421.3467
1251.781, 428.3191
1252.263, 432.2576
1252.745, 420.5353
1253.227, 412.7960
1253.710, 421.6074
1254.192, 436.0363
1254.674, 443.1943
1255.156, 443.7422
1255.638, 440.8153
1256.120, 435.1232
1256.602, 431.9937
1257.084, 437.8954
1257.567, 442.3589
1258.049, 442.1399
1258.531, 438.9164
1259.013, 432.2575
1259.495, 424.6200
1259.977, 426.7818
1260.459, 438.6173
1260.941, 449.4517
1261.423, 457.9322
1261.906, 458.9445
1262.388, 449.0643
1262.870, 435.5476
1263.352, 428.1451
1263.834, 425.4758
1264.316, 425.2361
1264.798, 427.0060
1265.280, 428.7468
1265.762, 430.3687
1266.245, 430.9983
1266.727, 430.3556
1267.209, 428.9522
1267.691, 425.5850
1268.173, 422.8672
1268.655, 427.3689
1269.137, 438.8598
1269.619, 443.1167
1270.102, 436.2613
1270.584, 429.1436
1271.066, 423.6237
1271.548, 419.9289
1272.030, 418.2930
1272.512, 418.8139
1272.994, 423.1257
1273.476, 430.7042
1273.958, 433.4789
1274.441, 429.6975
1274.923, 429.0872
1275.405, 434.3083
1275.887, 440.7891
1276.369, 446.9688
1276.851, 449.6240
1277.333, 441.0579
1277.815, 424.7971
1278.297, 424.5545
1278.780, 441.3059
1279.262, 453.2039
1279.744, 454.9948
1280.226, 452.4105
1280.708, 447.9432
1281.190, 442.7064
1281.672, 436.3531
1282.154, 430.0808
1282.637, 429.3105
1283.119, 433.4319
1283.601, 437.1227
1284.083, 439.5859
1284.565, 439.2521
1285.047, 433.2745
1285.529, 426.0336
1286.011, 418.3163
1286.494, 412.0136
1286.976, 414.7212
1287.458, 423.5997
1287.940, 429.0671
1288.422, 428.9262
1288.904, 427.3359
1289.386, 422.4034
1289.868, 421.7020
1290.350, 430.4359
1290.833, 440.9688
1291.315, 434.0012
1291.797, 418.6123
1292.279, 413.7652
1292.761, 424.3544
1293.243, 432.1291
1293.725, 434.1442
1294.207, 435.3088
1294.689, 437.1830
1295.172, 439.1248
1295.654, 440.2687
1296.136, 440.8636
1296.618, 441.3209
1297.100, 441.6917
1297.582, 441.2088
1298.064, 439.8761
##END=



