##NAMES=Argentojarosite
##RRUFFID=R060097
##IDEAL CHEMISTRY=Ag^1+^Fe^3+^_3_(S^6+^O_4_)_2_(OH)_6_
##LOCALITY=unknown
##OWNER=RRUFF
##SOURCE=University of Arizona Mineral Museum
##DESCRIPTION=Yellowish-brown flat hexagonal plates
##STATUS=The identification of this mineral has been confirmed by X-ray diffraction and chemical analysis
##URL=rruff.info/R060097
##MEASURED CHEMISTRY=Ag_1.00_Fe^3+^_3.00_(S_1.00_O_4_)_2_(OH)_6_
93.74609, 3.705103
94.22821, 3.600655
94.71033, 3.639701
95.19244, 3.805620
95.67456, 4.039125
96.15668, 4.339470
96.63879, 4.691878
97.12091, 5.050102
97.60303, 5.414641
98.08514, 5.791945
98.56726, 6.159246
99.04938, 6.515285
99.53149, 6.957712
100.0136, 7.544310
100.4957, 8.273463
100.9778, 9.060949
101.4600, 9.919854
101.9421, 10.81371
102.4242, 11.62520
102.9063, 12.33867
103.3884, 13.02903
103.8705, 13.73106
104.3527, 14.45846
104.8348, 15.17762
105.3169, 15.88011
105.7990, 16.57055
106.2811, 17.35343
106.7632, 18.34829
107.2454, 19.30432
107.7275, 20.00895
108.2096, 20.29147
108.6917, 20.57192
109.1738, 20.88071
109.6559, 21.21176
110.1381, 21.65544
110.6202, 22.23923
111.1023, 22.92930
111.5844, 23.69232
112.0665, 24.44818
112.5486, 25.36152
113.0308, 26.51075
113.5129, 27.97916
113.9950, 29.41821
114.4771, 30.79170
114.9592, 32.10145
115.4413, 33.36986
115.9235, 34.55225
116.4056, 35.72399
116.8877, 36.89949
117.3698, 38.09822
117.8519, 39.31084
118.3340, 40.54098
118.8162, 41.78447
119.2983, 43.02595
119.7804, 44.46724
120.2625, 45.81330
120.7446, 46.79974
121.2267, 47.19336
121.7089, 47.47588
122.1910, 47.93104
122.6731, 48.52926
123.1552, 49.13250
123.6373, 49.63316
124.1194, 50.09397
124.6016, 50.60390
125.0837, 51.21087
125.5658, 51.85318
126.0479, 52.41172
126.5300, 52.89497
127.0121, 53.49349
127.4943, 54.43519
127.9764, 55.61543
128.4585, 56.81733
128.9406, 57.93501
129.4227, 59.01388
129.9048, 60.10502
130.3869, 61.20156
130.8691, 62.36526
131.3512, 63.67300
131.8333, 64.90192
132.3154, 65.86580
132.7975, 66.60029
133.2796, 67.33278
133.7618, 68.66535
134.2439, 70.64098
134.7260, 73.11035
135.2081, 75.92769
135.6902, 79.11470
136.1723, 82.33060
136.6545, 85.74052
137.1366, 89.33928
137.6187, 91.84525
138.1008, 93.39165
138.5829, 93.68779
139.0650, 91.81929
139.5472, 87.46583
140.0293, 82.15569
140.5114, 76.43741
140.9935, 69.96680
141.4756, 64.50160
141.9577, 60.21531
142.4399, 56.95150
142.9220, 54.12626
143.4041, 51.71364
143.8862, 49.71796
144.3683, 48.12486
144.8504, 46.99111
145.3326, 46.16146
145.8147, 45.75646
146.2968, 45.73909
146.7789, 45.41418
147.2610, 44.49485
147.7431, 43.52728
148.2253, 42.97964
148.7074, 43.22053
149.1895, 43.37119
149.6716, 43.26371
150.1537, 42.86798
150.6358, 42.50927
151.1180, 42.18781
151.6001, 41.90246
152.0822, 41.65685
152.5643, 41.45275
153.0464, 41.28213
153.5285, 41.12791
154.0107, 40.96730
154.4928, 40.91523
154.9749, 41.16301
155.4570, 41.46972
155.9391, 41.53141
156.4212, 41.02914
156.9034, 40.52630
157.3855, 40.19587
157.8676, 40.07263
158.3497, 40.07389
158.8318, 40.26421
159.3139, 40.56099
159.7961, 40.82380
160.2782, 41.06225
160.7603, 41.22673
161.2424, 41.26824
161.7245, 41.09587
162.2066, 40.99295
162.6888, 41.02434
163.1709, 41.19029
163.6530, 41.49246
164.1351, 42.11940
164.6172, 42.76573
165.0993, 43.22031
165.5815, 43.36382
166.0636, 43.44637
166.5457, 43.55165
167.0278, 43.68549
167.5099, 43.86819
167.9921, 44.12359
168.4742, 44.42469
168.9563, 44.74724
169.4384, 45.08205
169.9205, 45.44286
170.4026, 45.85699
170.8848, 46.31384
171.3669, 46.76022
171.8490, 47.14576
172.3311, 47.51010
172.8132, 47.89841
173.2953, 48.31556
173.7775, 48.77385
174.2596, 49.27990
174.7417, 49.83661
175.2238, 50.45190
175.7059, 51.13228
176.1880, 51.87023
176.6702, 52.64377
177.1523, 53.37780
177.6344, 54.19576
178.1165, 55.29560
178.5986, 56.67574
179.0807, 58.11396
179.5629, 59.55410
180.0450, 60.93715
180.5271, 62.10562
181.0092, 63.06063
181.4913, 63.75770
181.9734, 64.14856
182.4556, 64.23597
182.9377, 63.93103
183.4198, 63.01659
183.9019, 61.59679
184.3840, 60.06794
184.8661, 58.55596
185.3483, 56.95922
185.8304, 55.39949
186.3125, 53.63116
186.7946, 51.84521
187.2767, 50.04596
187.7588, 48.26882
188.2409, 46.82772
188.7231, 46.01706
189.2052, 45.65229
189.6873, 45.00056
190.1694, 44.00508
190.6515, 42.97147
191.1336, 42.25588
191.6158, 41.84837
192.0979, 41.61452
192.5800, 41.54018
193.0621, 41.60763
193.5442, 41.68502
194.0263, 41.75958
194.5085, 41.88604
194.9906, 42.16438
195.4727, 42.59413
195.9548, 43.04415
196.4369, 43.36738
196.9190, 43.58844
197.4012, 44.16919
197.8833, 45.16721
198.3654, 46.39234
198.8475, 47.50185
199.3296, 48.48421
199.8117, 49.52771
200.2939, 50.65950
200.7760, 51.86987
201.2581, 53.36953
201.7402, 55.14344
202.2223, 57.21830
202.7044, 59.69038
203.1866, 62.57039
203.6687, 65.65392
204.1508, 68.83314
204.6329, 72.09570
205.1150, 75.62716
205.5971, 79.50243
206.0793, 83.55913
206.5614, 87.49220
207.0435, 91.23162
207.5256, 94.97962
208.0077, 98.83634
208.4898, 102.8279
208.9720, 106.7553
209.4541, 110.5840
209.9362, 114.3773
210.4183, 118.2648
210.9004, 122.2072
211.3825, 126.2719
211.8647, 130.5347
212.3468, 135.0321
212.8289, 139.4900
213.3110, 143.7047
213.7931, 148.0388
214.2752, 153.2814
214.7574, 159.6916
215.2395, 166.4852
215.7216, 173.3262
216.2037, 179.9649
216.6858, 187.3262
217.1679, 195.4446
217.6501, 204.3096
218.1322, 213.7222
218.6143, 223.6899
219.0964, 234.3983
219.5785, 245.7467
220.0606, 257.9473
220.5428, 270.6537
221.0249, 284.1671
221.5070, 297.9844
221.9891, 310.7025
222.4712, 322.7650
222.9533, 333.1591
223.4355, 341.5140
223.9176, 348.6256
224.3997, 351.8307
224.8818, 351.0106
225.3639, 346.3918
225.8460, 338.1923
226.3282, 325.7319
226.8103, 310.9205
227.2924, 294.6172
227.7745, 275.8715
228.2566, 257.4230
228.7387, 239.0198
229.2209, 220.9702
229.7030, 204.4691
230.1851, 189.4242
230.6672, 175.7826
231.1493, 163.5090
231.6314, 152.6452
232.1136, 143.0683
232.5957, 135.0417
233.0778, 128.1602
233.5599, 121.7667
234.0420, 115.9651
234.5241, 110.4900
235.0063, 105.2348
235.4884, 100.1389
235.9705, 95.62009
236.4526, 91.81409
236.9347, 88.48840
237.4168, 85.11113
237.8990, 81.53409
238.3811, 78.14719
238.8632, 75.12812
239.3453, 72.52627
239.8274, 70.13520
240.3095, 68.01177
240.7917, 66.05395
241.2738, 64.04338
241.7559, 61.82456
242.2380, 59.81581
242.7201, 58.22647
243.2022, 57.20540
243.6844, 56.08348
244.1665, 54.78799
244.6486, 53.42799
245.1307, 52.19273
245.6128, 51.12218
246.0949, 50.10824
246.5771, 49.10022
247.0592, 48.05878
247.5413, 47.18922
248.0234, 46.58677
248.5055, 46.09578
248.9876, 45.46560
249.4697, 44.54286
249.9519, 43.75529
250.4340, 43.27629
250.9161, 43.19447
251.3982, 42.93603
251.8803, 42.37559
252.3624, 41.74288
252.8446, 41.40462
253.3267, 41.58002
253.8088, 41.60543
254.2909, 41.23077
254.7730, 40.37083
255.2551, 39.79268
255.7373, 39.61662
256.2194, 39.59992
256.7015, 39.45221
257.1836, 39.11892
257.6657, 38.77140
258.1479, 38.44431
258.6300, 38.14051
259.1121, 37.84496
259.5942, 37.54638
260.0763, 37.26759
260.5584, 37.01278
261.0406, 36.75441
261.5227, 36.60456
262.0048, 36.64663
262.4869, 36.87342
262.9690, 36.86827
263.4511, 36.49491
263.9333, 36.09045
264.4154, 36.00529
264.8975, 36.36623
265.3796, 36.65771
265.8617, 36.75986
266.3438, 36.69638
266.8260, 36.73170
267.3081, 36.89771
267.7902, 37.10555
268.2723, 37.26575
268.7544, 37.35398
269.2365, 37.50048
269.7187, 37.73661
270.2008, 38.04885
270.6829, 38.35454
271.1650, 38.65666
271.6471, 38.94409
272.1292, 39.18884
272.6114, 39.37572
273.0935, 39.59494
273.5756, 39.83070
274.0577, 40.11242
274.5398, 40.58765
275.0219, 41.30840
275.5041, 42.04781
275.9862, 42.61446
276.4683, 42.96822
276.9504, 43.51044
277.4325, 44.33451
277.9146, 45.31630
278.3968, 46.09594
278.8788, 46.61225
279.3610, 47.22566
279.8431, 48.20282
280.3252, 49.55121
280.8073, 50.78529
281.2894, 51.81876
281.7715, 52.82045
282.2537, 54.11332
282.7358, 55.71135
283.2179, 57.46887
283.7000, 59.34278
284.1821, 61.33877
284.6642, 63.35432
285.1464, 65.37664
285.6285, 67.47266
286.1106, 69.75284
286.5927, 72.21664
287.0748, 74.77741
287.5569, 77.39545
288.0391, 80.08607
288.5212, 82.86115
289.0033, 85.73319
289.4854, 88.68863
289.9675, 91.72849
290.4496, 94.86114
290.9318, 98.01016
291.4139, 101.1861
291.8960, 104.3908
292.3781, 107.5513
292.8602, 110.6922
293.3423, 113.8197
293.8245, 116.8880
294.3066, 119.9507
294.7887, 123.2795
295.2708, 126.9715
295.7529, 130.9373
296.2350, 134.9247
296.7172, 138.9194
297.1993, 143.1516
297.6814, 147.9746
298.1635, 153.2503
298.6456, 158.4818
299.1277, 163.5528
299.6099, 168.6264
300.0920, 173.7566
300.5741, 179.0157
301.0562, 184.4056
301.5383, 190.3365
302.0204, 196.4207
302.5026, 201.8961
302.9847, 206.7657
303.4668, 210.8081
303.9489, 214.2148
304.4310, 216.7193
304.9131, 217.5831
305.3953, 216.2570
305.8774, 213.0308
306.3595, 208.2255
306.8416, 201.8573
307.3237, 194.0984
307.8058, 184.7277
308.2880, 174.1145
308.7701, 163.1374
309.2522, 151.3879
309.7343, 139.8353
310.2164, 129.3837
310.6985, 120.0498
311.1807, 111.4342
311.6628, 103.1720
312.1449, 95.38207
312.6270, 88.50093
313.1091, 82.88416
313.5912, 78.00999
314.0734, 73.50137
314.5555, 69.36855
315.0376, 65.76765
315.5197, 63.00928
316.0018, 60.71556
316.4839, 58.56360
316.9661, 56.30937
317.4482, 54.27184
317.9303, 52.69051
318.4124, 51.50646
318.8945, 50.29622
319.3766, 48.68505
319.8588, 47.11597
320.3409, 45.94997
320.8230, 45.72023
321.3051, 45.28277
321.7872, 44.10892
322.2693, 42.45375
322.7515, 41.09699
323.2336, 40.47887
323.7157, 40.01206
324.1978, 39.40930
324.6799, 38.56115
325.1620, 37.73999
325.6442, 36.93987
326.1263, 36.19532
326.6084, 35.56744
327.0905, 35.21145
327.5726, 34.83669
328.0547, 34.34155
328.5369, 33.67869
329.0190, 33.05541
329.5011, 32.48742
329.9832, 31.95867
330.4653, 31.45269
330.9474, 30.94166
331.4296, 30.48829
331.9117, 30.10633
332.3938, 29.79926
332.8759, 29.53875
333.3580, 29.35615
333.8401, 29.18773
334.3223, 28.98142
334.8044, 28.70454
335.2865, 28.44757
335.7686, 28.19959
336.2507, 27.97586
336.7328, 27.62910
337.2150, 27.92525
337.6971, 28.08229
338.1792, 28.10823
338.6613, 27.58076
339.1434, 27.79060
339.6255, 27.71883
340.1077, 27.64501
340.5898, 27.98694
341.0719, 27.59091
341.5540, 27.94621
342.0361, 28.01544
342.5182, 28.23003
343.0004, 28.16123
343.4825, 28.19291
343.9646, 28.20611
344.4467, 28.38674
344.9288, 28.70722
345.4109, 28.92645
345.8931, 28.87267
346.3752, 28.64870
346.8573, 28.72089
347.3394, 29.11623
347.8215, 29.58350
348.3036, 29.87392
348.7858, 30.01860
349.2679, 30.16555
349.7500, 30.34372
350.2321, 30.55292
350.7142, 30.76245
351.1964, 30.97931
351.6785, 31.28968
352.1606, 31.86920
352.6427, 32.56607
353.1248, 33.06449
353.6069, 33.26485
354.0891, 33.41051
354.5712, 33.78112
355.0533, 34.31586
355.5354, 34.84966
356.0175, 35.30676
356.4996, 35.70453
356.9818, 36.02080
357.4639, 36.23527
357.9460, 36.54999
358.4281, 37.26892
358.9102, 38.14822
359.3923, 38.82092
359.8745, 38.98233
360.3566, 39.02151
360.8387, 39.21869
361.3208, 39.55621
361.8029, 39.73800
362.2850, 39.51263
362.7672, 39.13265
363.2493, 38.81194
363.7314, 38.77339
364.2135, 38.59425
364.6956, 38.03091
365.1777, 37.20478
365.6599, 36.49840
366.1420, 36.17733
366.6241, 35.86339
367.1062, 35.35913
367.5883, 34.51271
368.0704, 33.76712
368.5526, 33.27235
369.0347, 32.88456
369.5168, 32.37176
369.9989, 31.42233
370.4810, 30.66153
370.9631, 30.29197
371.4453, 30.38421
371.9274, 30.30927
372.4095, 29.97582
372.8916, 29.55342
373.3737, 29.18101
373.8558, 28.87522
374.3380, 28.58639
374.8201, 28.31422
375.3022, 28.05261
375.7843, 27.77205
376.2664, 27.45859
376.7485, 27.15057
377.2307, 26.86202
377.7128, 26.58483
378.1949, 26.36794
378.6770, 26.21631
379.1591, 26.12625
379.6412, 26.12146
380.1234, 26.21490
380.6055, 26.27297
381.0876, 26.23409
381.5697, 26.10864
382.0518, 25.93035
382.5339, 25.68317
383.0161, 25.48223
383.4982, 25.51967
383.9803, 25.74455
384.4624, 25.87510
384.9445, 25.78851
385.4266, 25.60156
385.9088, 25.49862
386.3909, 25.47852
386.8730, 25.52335
387.3551, 25.69974
387.8372, 25.91512
388.3193, 25.99349
388.8015, 25.87282
389.2836, 25.70860
389.7657, 25.61710
390.2478, 25.59200
390.7299, 25.62095
391.2120, 25.73347
391.6942, 25.87428
392.1763, 26.00294
392.6584, 26.11566
393.1405, 26.21601
393.6226, 26.30875
394.1047, 26.38926
394.5869, 26.45126
395.0690, 26.37837
395.5511, 26.40013
396.0332, 26.70198
396.5153, 27.21408
396.9974, 27.56037
397.4796, 27.40438
397.9617, 27.22968
398.4438, 27.30952
398.9259, 27.85057
399.4080, 28.33253
399.8901, 28.65493
400.3723, 28.89938
400.8544, 29.21503
401.3365, 29.71698
401.8186, 30.15841
402.3007, 30.46624
402.7828, 30.62541
403.2649, 30.77448
403.7470, 30.86044
404.2292, 30.99409
404.7113, 31.29714
405.1934, 31.85336
405.6755, 32.33020
406.1576, 32.63839
406.6397, 32.84424
407.1219, 33.19211
407.6040, 33.71020
408.0861, 34.25923
408.5682, 34.74194
409.0503, 35.15234
409.5324, 35.66837
410.0146, 36.31468
410.4967, 37.01586
410.9788, 37.63821
411.4609, 38.19268
411.9430, 38.83874
412.4251, 39.65455
412.9073, 40.59247
413.3894, 41.55138
413.8715, 42.53897
414.3536, 43.67740
414.8357, 45.14188
415.3178, 46.83316
415.8000, 48.52870
416.2821, 50.15638
416.7642, 51.85971
417.2463, 53.71080
417.7284, 55.75152
418.2105, 58.03587
418.6927, 60.69065
419.1748, 63.55291
419.6569, 66.46706
420.1390, 69.41204
420.6211, 72.69305
421.1032, 76.48124
421.5854, 80.73209
422.0675, 85.39127
422.5496, 90.71217
423.0317, 96.20634
423.5138, 101.7741
423.9959, 107.3933
424.4781, 113.2951
424.9602, 119.4937
425.4423, 125.8604
425.9244, 132.4115
426.4065, 139.3028
426.8886, 145.9621
427.3708, 152.0352
427.8529, 158.0747
428.3350, 165.0386
428.8171, 173.4069
429.2992, 181.7785
429.7813, 189.5018
430.2635, 196.6011
430.7456, 205.4293
431.2277, 216.3390
431.7098, 228.0990
432.1919, 239.5901
432.6740, 250.7129
433.1562, 262.7710
433.6383, 275.8753
434.1204, 290.0603
434.6025, 305.7788
435.0846, 322.9951
435.5667, 340.1729
436.0489, 356.6722
436.5310, 372.6782
437.0131, 389.0506
437.4952, 405.9889
437.9773, 421.7986
438.4594, 435.5254
438.9416, 446.8819
439.4237, 455.3580
439.9058, 461.4632
440.3879, 463.8129
440.8700, 461.0223
441.3521, 453.3906
441.8343, 441.9479
442.3164, 425.8674
442.7985, 407.0856
443.2806, 386.5731
443.7627, 364.2594
444.2448, 341.9600
444.7270, 319.7961
445.2091, 298.4779
445.6912, 278.9682
446.1733, 261.7718
446.6554, 246.0493
447.1375, 231.8484
447.6197, 219.0693
448.1018, 207.4189
448.5839, 197.0235
449.0660, 187.7145
449.5481, 179.6456
450.0302, 173.5648
450.5124, 167.0354
450.9945, 159.9250
451.4766, 152.5261
451.9587, 145.3092
452.4408, 138.1666
452.9229, 131.4246
453.4051, 125.1280
453.8872, 119.2749
454.3693, 113.3441
454.8514, 107.2510
455.3335, 101.3660
455.8156, 95.85139
456.2978, 90.73457
456.7799, 86.08377
457.2620, 81.89236
457.7441, 78.09597
458.2262, 74.53773
458.7083, 71.24828
459.1905, 68.20863
459.6726, 65.41856
460.1547, 62.90281
460.6368, 60.76641
461.1189, 58.98253
461.6010, 57.33220
462.0832, 55.73250
462.5653, 54.14032
463.0474, 52.51760
463.5295, 50.74792
464.0116, 49.09398
464.4937, 47.70299
464.9759, 46.52730
465.4580, 45.51429
465.9401, 44.78638
466.4222, 44.09229
466.9043, 43.34962
467.3864, 42.55289
467.8686, 41.70356
468.3507, 40.61666
468.8328, 39.59441
469.3149, 38.86913
469.7970, 38.70995
470.2791, 38.40138
470.7613, 37.85157
471.2434, 37.13655
471.7255, 36.43705
472.2076, 35.70419
472.6897, 35.11125
473.1718, 34.77380
473.6540, 34.69348
474.1361, 34.43204
474.6182, 33.95576
475.1003, 33.42193
475.5824, 32.99372
476.0645, 32.65834
476.5467, 32.30909
477.0288, 31.90556
477.5109, 31.50695
477.9930, 31.25170
478.4751, 31.10498
478.9572, 30.90066
479.4394, 30.49260
479.9215, 29.99609
480.4036, 29.55364
480.8857, 29.17078
481.3678, 28.82392
481.8499, 28.52898
482.3321, 28.24693
482.8142, 27.93416
483.2963, 27.51172
483.7784, 27.13843
484.2605, 26.90123
484.7426, 26.76232
485.2248, 26.63086
485.7069, 26.51273
486.1890, 26.37604
486.6711, 26.19036
487.1532, 25.92860
487.6353, 25.75701
488.1175, 25.79175
488.5996, 25.82171
489.0817, 25.64755
489.5638, 25.11197
490.0459, 24.77094
490.5280, 24.71516
491.0102, 24.86111
491.4923, 25.02557
491.9744, 25.22456
492.4565, 25.36205
492.9386, 25.39083
493.4207, 25.32116
493.9029, 25.22185
494.3850, 25.09247
494.8671, 24.93023
495.3492, 24.64896
495.8313, 24.32734
496.3134, 24.22107
496.7956, 24.46569
497.2777, 24.75019
497.7598, 24.69621
498.2419, 24.40919
498.7240, 24.15504
499.2061, 24.01895
499.6883, 23.99477
500.1704, 24.15323
500.6525, 24.48712
501.1346, 24.69628
501.6167, 24.57055
502.0988, 24.33100
502.5810, 24.13433
503.0631, 23.97767
503.5452, 23.90391
504.0273, 23.99738
504.5094, 24.16139
504.9915, 24.22545
505.4737, 24.12700
505.9558, 24.01914
506.4379, 23.92447
506.9200, 23.84521
507.4021, 23.82683
507.8842, 23.87662
508.3664, 23.97027
508.8485, 24.10988
509.3306, 24.29714
509.8127, 24.45336
510.2948, 24.58258
510.7769, 24.65183
511.2591, 24.56417
511.7412, 24.35066
512.2233, 24.18919
512.7054, 24.14938
513.1875, 24.19013
513.6696, 24.26092
514.1517, 24.36145
514.6339, 24.48975
515.1160, 24.66185
515.5981, 24.85124
516.0802, 25.04023
516.5623, 25.22989
517.0444, 25.40046
517.5266, 25.52267
518.0087, 25.62930
518.4908, 25.75606
518.9729, 25.94437
519.4550, 26.11735
519.9371, 26.23319
520.4193, 26.31478
520.9014, 26.45972
521.3835, 26.77270
521.8656, 27.01338
522.3477, 27.05550
522.8298, 26.85378
523.3120, 26.84106
523.7941, 27.07473
524.2762, 27.37944
524.7583, 27.59452
525.2404, 27.71819
525.7225, 27.81399
526.2047, 27.88436
526.6868, 27.94610
527.1689, 28.01080
527.6510, 28.08523
528.1331, 28.21279
528.6152, 28.44539
529.0974, 28.72915
529.5795, 28.98821
530.0616, 29.22619
530.5437, 29.47703
531.0258, 29.79815
531.5079, 30.12613
531.9901, 30.38674
532.4722, 30.50883
532.9543, 30.72512
533.4364, 31.22188
533.9185, 31.83772
534.4006, 32.36313
534.8828, 32.59147
535.3649, 32.90734
535.8470, 33.44174
536.3291, 34.14788
536.8112, 34.72588
537.2933, 35.12854
537.7755, 35.47363
538.2576, 35.77217
538.7397, 35.99859
539.2218, 36.42808
539.7039, 37.09052
540.1860, 37.85647
540.6682, 38.59301
541.1503, 39.29821
541.6324, 39.97899
542.1145, 40.60950
542.5966, 41.25727
543.0787, 42.01332
543.5609, 42.87468
544.0430, 43.82984
544.5251, 44.99726
545.0072, 46.17877
545.4893, 47.10970
545.9714, 47.80671
546.4536, 48.55433
546.9357, 49.48074
547.4178, 50.53239
547.8999, 51.69761
548.3820, 53.07831
548.8641, 54.32746
549.3463, 55.22799
549.8284, 56.01023
550.3105, 56.98678
550.7926, 58.39040
551.2747, 59.63626
551.7568, 60.60157
552.2390, 61.35766
552.7211, 62.21465
553.2032, 63.17204
553.6853, 64.23517
554.1674, 65.48296
554.6495, 66.89124
555.1317, 68.05206
555.6138, 68.92723
556.0959, 69.70717
556.5780, 70.64609
557.0601, 71.62840
557.5422, 72.33175
558.0244, 72.67078
558.5065, 72.77657
558.9886, 72.68736
559.4707, 72.46614
559.9528, 72.24112
560.4349, 72.10398
560.9171, 71.94064
561.3992, 71.74924
561.8813, 71.50256
562.3634, 71.04622
562.8455, 70.28789
563.3276, 69.34900
563.8098, 68.22540
564.2919, 66.81882
564.7740, 65.61385
565.2561, 64.69640
565.7382, 63.89424
566.2203, 63.06245
566.7025, 62.22381
567.1846, 61.22768
567.6667, 60.02653
568.1488, 58.67167
568.6309, 57.20646
569.1130, 55.63176
569.5952, 54.24294
570.0773, 53.24064
570.5594, 52.46326
571.0415, 51.59930
571.5236, 50.64591
572.0057, 49.61616
572.4879, 48.36811
572.9700, 47.11625
573.4521, 46.10006
573.9342, 45.37386
574.4163, 44.70685
574.8984, 44.01464
575.3806, 43.31920
575.8627, 42.63425
576.3448, 41.98242
576.8269, 41.32690
577.3090, 40.65902
577.7911, 39.98330
578.2733, 39.28363
578.7554, 38.54630
579.2375, 37.83342
579.7196, 37.16367
580.2017, 36.53148
580.6838, 35.93736
581.1660, 35.38190
581.6481, 34.87166
582.1302, 34.42990
582.6123, 34.04347
583.0944, 33.66781
583.5765, 33.29917
584.0587, 32.94263
584.5408, 32.67554
585.0229, 32.41440
585.5050, 31.99875
585.9871, 31.25917
586.4692, 30.54614
586.9514, 30.06104
587.4335, 29.74930
587.9156, 29.50906
588.3977, 29.36239
588.8798, 29.22860
589.3619, 29.08126
589.8441, 28.91945
590.3262, 28.76132
590.8083, 28.59068
591.2904, 28.44632
591.7725, 28.34825
592.2546, 28.29962
592.7368, 28.29511
593.2189, 28.36211
593.7010, 28.40189
594.1831, 28.23843
594.6652, 27.91385
595.1473, 27.74532
595.6295, 27.81773
596.1116, 28.00863
596.5937, 28.18994
597.0758, 28.36013
597.5579, 28.51632
598.0400, 28.55984
598.5222, 28.66532
599.0043, 28.93283
599.4864, 29.36339
599.9685, 29.95751
600.4506, 30.80549
600.9327, 31.73426
601.4149, 32.60394
601.8970, 33.30267
602.3791, 34.38689
602.8612, 35.84216
603.3433, 37.71279
603.8254, 40.02546
604.3076, 42.83757
604.7897, 45.96924
605.2718, 49.48104
605.7539, 53.24584
606.2360, 57.06853
606.7181, 60.96808
607.2003, 64.57171
607.6824, 67.70084
608.1645, 70.61735
608.6466, 73.60081
609.1287, 76.69201
609.6108, 79.94009
610.0930, 83.21941
610.5751, 86.77258
611.0572, 90.64504
611.5393, 94.85336
612.0214, 99.98754
612.5035, 106.2512
612.9857, 113.5349
613.4678, 121.8644
613.9499, 130.9977
614.4320, 141.5126
614.9141, 153.9134
615.3962, 167.3568
615.8784, 181.1185
616.3605, 195.4816
616.8426, 209.4136
617.3247, 222.6595
617.8068, 235.6146
618.2889, 248.7690
618.7711, 262.0729
619.2532, 274.6686
619.7353, 287.4922
620.2174, 298.6004
620.6995, 306.7116
621.1816, 311.1899
621.6638, 308.8629
622.1459, 296.6118
622.6280, 277.9159
623.1101, 253.5855
623.5922, 223.2316
624.0743, 194.1487
624.5565, 166.7773
625.0386, 142.3262
625.5207, 121.8317
626.0028, 105.7582
626.4849, 92.34390
626.9670, 81.83100
627.4492, 73.55066
627.9313, 66.80889
628.4134, 61.70015
628.8955, 57.27431
629.3776, 53.41708
629.8597, 50.09882
630.3419, 47.26288
630.8240, 44.89314
631.3061, 42.91319
631.7882, 41.35030
632.2703, 40.11650
632.7524, 39.20709
633.2346, 38.58315
633.7167, 38.00025
634.1988, 37.28645
634.6809, 36.63062
635.1630, 36.13952
635.6451, 35.83020
636.1273, 35.64290
636.6094, 35.63049
637.0915, 35.68830
637.5736, 35.74401
638.0557, 35.75899
638.5378, 35.89962
639.0200, 36.18913
639.5021, 36.56798
639.9842, 37.00639
640.4663, 37.49021
640.9484, 37.83702
641.4305, 37.93026
641.9127, 38.00864
642.3948, 38.50620
642.8769, 39.27522
643.3590, 39.92039
643.8411, 40.14131
644.3232, 40.26878
644.8054, 40.54946
645.2875, 40.94271
645.7696, 41.26244
646.2517, 41.41903
646.7338, 41.51609
647.2159, 41.62756
647.6981, 41.77624
648.1802, 41.70769
648.6623, 41.34701
649.1444, 40.88343
649.6265, 40.43299
650.1086, 39.99475
650.5908, 39.53982
651.0729, 39.07014
651.5550, 38.55499
652.0371, 37.93837
652.5192, 37.24033
653.0013, 36.53789
653.4835, 35.82423
653.9656, 35.16561
654.4477, 34.68714
654.9298, 34.30200
655.4119, 33.85780
655.8940, 33.18041
656.3762, 32.56227
656.8583, 32.18860
657.3404, 31.97266
657.8225, 31.58640
658.3046, 30.87885
658.7867, 30.20633
659.2689, 29.68339
659.7510, 29.29215
660.2331, 28.84759
660.7152, 28.33465
661.1973, 27.84392
661.6794, 27.42450
662.1616, 27.07340
662.6437, 26.78184
663.1258, 26.54984
663.6079, 26.37136
664.0900, 26.32935
664.5721, 26.29922
665.0543, 26.09348
665.5364, 25.61362
666.0185, 25.21058
666.5006, 25.13450
666.9827, 25.16764
667.4648, 25.08380
667.9470, 24.66660
668.4291, 24.38480
668.9112, 24.33401
669.3933, 24.37702
669.8754, 24.26558
670.3575, 23.97272
670.8397, 23.65186
671.3218, 23.30266
671.8039, 22.98857
672.2860, 22.92255
672.7681, 23.06516
673.2502, 23.15261
673.7324, 22.96617
674.2145, 22.70342
674.6966, 22.62299
675.1787, 22.68756
675.6608, 22.67834
676.1429, 22.37329
676.6251, 22.06122
677.1072, 21.92524
677.5893, 22.01800
678.0714, 22.02050
678.5535, 21.84439
679.0356, 21.66022
679.5178, 21.60104
679.9999, 21.72269
680.4820, 21.63746
680.9641, 21.28318
681.4462, 20.91624
681.9283, 20.85975
682.4105, 21.03604
682.8926, 21.12156
683.3747, 21.03897
683.8568, 20.92249
684.3389, 20.89654
684.8210, 20.92480
685.3032, 20.95074
685.7853, 21.00262
686.2674, 20.99218
686.7495, 20.82975
687.2316, 20.58787
687.7137, 20.43649
688.1959, 20.45859
688.6780, 20.44961
689.1601, 20.34633
689.6422, 20.18415
690.1243, 20.10659
690.6064, 20.11966
691.0886, 20.16663
691.5707, 20.25884
692.0528, 20.35209
692.5349, 20.30869
693.0170, 20.14400
693.4991, 19.98958
693.9813, 19.94748
694.4634, 19.94546
694.9455, 19.90845
695.4276, 19.82877
695.9097, 19.79290
696.3918, 19.93725
696.8740, 20.05239
697.3561, 19.96894
697.8382, 19.54460
698.3203, 19.40139
698.8024, 19.66599
699.2845, 20.01630
699.7667, 20.14823
700.2488, 20.06400
700.7309, 19.90315
701.2130, 19.65814
701.6951, 19.43114
702.1772, 19.35929
702.6594, 19.39896
703.1415, 19.46020
703.6236, 19.53489
704.1057, 19.59107
704.5878, 19.56414
705.0699, 19.51571
705.5521, 19.54503
706.0342, 19.83659
706.5163, 20.01369
706.9984, 19.97688
707.4805, 19.79443
707.9626, 19.62317
708.4448, 19.45100
708.9269, 19.32880
709.4090, 19.26856
709.8911, 19.27240
710.3732, 19.40429
710.8553, 19.64546
711.3374, 19.79719
711.8195, 19.68698
712.3016, 19.46492
712.7838, 19.26574
713.2659, 19.10024
713.7480, 19.00214
714.2301, 19.05355
714.7122, 19.12160
715.1943, 19.12623
715.6765, 19.04879
716.1586, 19.01425
716.6407, 19.05377
717.1228, 19.09317
717.6049, 19.08461
718.0870, 19.02271
718.5692, 18.96561
719.0513, 18.90895
719.5334, 18.88272
720.0155, 18.96884
720.4976, 19.09771
720.9797, 19.10521
721.4619, 18.95659
721.9440, 18.76250
722.4261, 18.54156
722.9082, 18.35201
723.3903, 18.26206
723.8724, 18.39234
724.3546, 18.44014
724.8367, 18.26533
725.3188, 18.04620
725.8009, 17.99944
726.2830, 18.20996
726.7651, 18.29472
727.2473, 18.17409
727.7294, 17.96659
728.2115, 17.87815
728.6936, 17.88790
729.1757, 17.88531
729.6578, 17.83031
730.1400, 17.75499
730.6221, 17.68707
731.1042, 17.62395
731.5863, 17.56157
732.0684, 17.52157
732.5505, 17.45766
733.0327, 17.32120
733.5148, 17.14267
733.9969, 17.04373
734.4790, 17.06462
734.9611, 17.09150
735.4432, 17.10293
735.9254, 17.09308
736.4075, 17.02362
736.8896, 16.89454
737.3717, 16.77167
737.8538, 16.68112
738.3359, 16.62546
738.8181, 16.63181
739.3002, 16.68774
739.7823, 16.72017
740.2644, 16.63885
740.7465, 16.56389
741.2286, 16.59237
741.7108, 16.73809
742.1929, 16.80115
742.6750, 16.74316
743.1571, 16.63806
743.6392, 16.50309
744.1213, 16.33532
744.6035, 16.23542
745.0856, 16.20812
745.5677, 16.21930
746.0498, 16.27157
746.5319, 16.33551
747.0140, 16.33303
747.4962, 16.25553
747.9783, 16.18417
748.4604, 16.17144
748.9425, 16.19159
749.4246, 16.23014
749.9067, 16.30287
750.3889, 16.33575
750.8710, 16.30693
751.3531, 16.24687
751.8352, 16.17390
752.3173, 16.08404
752.7994, 15.98846
753.2816, 15.87498
753.7637, 15.79129
754.2458, 15.80267
754.7279, 15.88721
755.2100, 15.98826
755.6921, 16.10412
756.1743, 16.19134
756.6564, 16.19412
757.1385, 16.15464
757.6206, 16.12630
758.1027, 16.16859
758.5848, 16.15169
759.0670, 15.94016
759.5491, 15.72367
760.0312, 15.76922
760.5133, 16.19864
760.9954, 16.42480
761.4775, 16.31809
761.9597, 16.08030
762.4418, 16.04546
762.9239, 16.16885
763.4060, 16.26823
763.8881, 16.28745
764.3702, 16.26325
764.8524, 16.20121
765.3345, 16.12377
765.8166, 16.07055
766.2987, 16.05729
766.7808, 16.06409
767.2629, 16.07963
767.7451, 16.11335
768.2272, 16.20402
768.7093, 16.39035
769.1914, 16.48490
769.6735, 16.40175
770.1556, 16.25284
770.6378, 16.32792
771.1199, 16.57806
771.6020, 16.75124
772.0841, 16.68853
772.5662, 16.55419
773.0483, 16.46033
773.5305, 16.41165
774.0126, 16.42000
774.4947, 16.54385
774.9768, 16.66560
775.4589, 16.74846
775.9410, 16.80280
776.4232, 16.87859
776.9053, 17.00774
777.3874, 17.04251
777.8695, 16.90192
778.3516, 16.65466
778.8337, 16.45567
779.3159, 16.31070
779.7980, 16.25402
780.2801, 16.38064
780.7622, 16.54383
781.2443, 16.61532
781.7264, 16.61207
782.2086, 16.60941
782.6907, 16.66884
783.1728, 16.68793
783.6549, 16.60224
784.1370, 16.44082
784.6191, 16.39132
785.1013, 16.47969
785.5834, 16.56743
786.0655, 16.56030
786.5476, 16.51955
787.0297, 16.68397
787.5118, 17.01569
787.9940, 17.24832
788.4761, 17.14920
788.9582, 16.95602
789.4403, 16.80846
789.9224, 16.71910
790.4045, 16.73468
790.8867, 17.03866
791.3688, 17.26328
791.8509, 17.25877
792.3330, 17.04918
792.8151, 16.88490
793.2972, 16.76203
793.7794, 16.69966
794.2615, 16.74820
794.7436, 16.85329
795.2257, 16.85153
795.7078, 16.76549
796.1899, 16.73386
796.6721, 16.94193
797.1542, 17.14654
797.6363, 17.15116
798.1184, 16.95853
798.6005, 16.83993
799.0826, 16.85684
799.5648, 16.90873
800.0469, 16.96679
800.5290, 17.02970
801.0111, 17.08327
801.4932, 17.12670
801.9753, 17.16944
802.4575, 17.22785
802.9396, 17.28461
803.4217, 17.32512
803.9038, 17.34315
804.3859, 17.30215
804.8680, 17.09713
805.3502, 16.90407
805.8323, 16.80816
806.3144, 16.81992
806.7965, 16.91464
807.2786, 17.16539
807.7607, 17.35420
808.2429, 17.35266
808.7250, 17.20263
809.2071, 17.15969
809.6892, 17.22190
810.1713, 17.33489
810.6534, 17.55917
811.1356, 17.75264
811.6177, 17.70172
812.0998, 17.43891
812.5819, 17.22925
813.0640, 17.18473
813.5461, 17.20811
814.0283, 17.28418
814.5104, 17.40405
814.9925, 17.45791
815.4746, 17.42710
815.9567, 17.39509
816.4388, 17.40767
816.9210, 17.44787
817.4031, 17.46011
817.8852, 17.44689
818.3673, 17.42849
818.8494, 17.42855
819.3315, 17.41827
819.8137, 17.34627
820.2958, 17.22823
820.7779, 17.18442
821.2600, 17.31523
821.7421, 17.43610
822.2242, 17.48092
822.7064, 17.46940
823.1885, 17.53399
823.6706, 17.68328
824.1527, 17.78582
824.6348, 17.75612
825.1169, 17.65104
825.5991, 17.53722
826.0812, 17.42900
826.5633, 17.37249
827.0454, 17.43739
827.5275, 17.51414
828.0096, 17.53736
828.4918, 17.52120
828.9739, 17.56499
829.4560, 17.72193
829.9381, 17.82439
830.4202, 17.81728
830.9023, 17.72465
831.3845, 17.59324
831.8666, 17.43138
832.3487, 17.29353
832.8308, 17.20914
833.3129, 17.15929
833.7950, 17.12791
834.2772, 17.11695
834.7593, 17.13130
835.2414, 17.21515
835.7235, 17.27258
836.2056, 17.26663
836.6877, 17.22587
837.1699, 17.23040
837.6520, 17.28805
838.1341, 17.32541
838.6162, 17.30412
839.0983, 17.27986
839.5804, 17.37874
840.0626, 17.55294
840.5447, 17.67724
841.0268, 17.68179
841.5089, 17.64785
841.9910, 17.59828
842.4731, 17.53992
842.9553, 17.48483
843.4374, 17.42663
843.9195, 17.38328
844.4016, 17.34917
844.8837, 17.34236
845.3658, 17.42008
845.8480, 17.56481
846.3301, 17.65784
846.8122, 17.65295
847.2943, 17.63562
847.7764, 17.69296
848.2585, 17.78835
848.7407, 17.87005
849.2228, 17.92678
849.7049, 17.96608
850.1870, 17.98326
850.6691, 17.98858
851.1512, 17.99017
851.6334, 17.98620
852.1155, 17.98564
852.5976, 17.98429
853.0797, 18.00677
853.5618, 18.09561
854.0439, 18.22426
854.5261, 18.35026
855.0082, 18.46819
855.4903, 18.56353
855.9724, 18.62746
856.4545, 18.66617
856.9366, 18.68157
857.4188, 18.66268
857.9009, 18.66407
858.3830, 18.69415
858.8651, 18.72446
859.3472, 18.74288
859.8293, 18.74193
860.3115, 18.68412
860.7936, 18.56682
861.2757, 18.43313
861.7578, 18.25122
862.2399, 18.11031
862.7220, 18.10279
863.2042, 18.25587
863.6863, 18.38021
864.1684, 18.47189
864.6505, 18.51133
865.1326, 18.46030
865.6147, 18.33224
866.0969, 18.34076
866.5790, 18.48553
867.0611, 18.56969
867.5432, 18.38433
868.0253, 18.11923
868.5074, 17.97702
868.9896, 17.95398
869.4717, 17.99446
869.9538, 18.17462
870.4359, 18.31107
870.9180, 18.33882
871.4001, 18.27339
871.8823, 18.17247
872.3644, 18.02697
872.8465, 17.91649
873.3286, 17.88013
873.8107, 17.88608
874.2928, 17.87231
874.7750, 17.85212
875.2571, 17.86294
875.7392, 18.01257
876.2213, 18.09566
876.7034, 17.99000
877.1855, 17.76404
877.6677, 17.56753
878.1498, 17.39205
878.6319, 17.27140
879.1140, 17.21469
879.5961, 17.21124
880.0782, 17.26955
880.5604, 17.36772
881.0425, 17.43007
881.5246, 17.42468
882.0067, 17.41299
882.4888, 17.46566
882.9709, 17.52210
883.4531, 17.50861
883.9352, 17.32330
884.4173, 17.24363
884.8994, 17.31909
885.3815, 17.42086
885.8636, 17.39598
886.3458, 17.26938
886.8279, 17.24339
887.3100, 17.34114
887.7921, 17.41508
888.2742, 17.33255
888.7563, 16.90849
889.2385, 17.22495
889.7206, 17.39305
890.2027, 17.42078
890.6848, 16.88584
891.1669, 17.07896
891.6490, 16.98120
892.1312, 16.87213
892.6133, 17.16955
893.0954, 16.71976
893.5775, 17.01203
894.0596, 17.00899
894.5417, 17.14204
895.0239, 16.98242
895.5060, 16.91404
895.9881, 17.13971
896.4702, 17.20356
896.9523, 17.01275
897.4344, 17.15827
897.9166, 16.70466
898.3987, 16.77801
898.8808, 17.07907
899.3629, 16.90622
899.8450, 17.06032
900.3271, 17.09079
900.8093, 16.55713
901.2914, 17.00631
901.7735, 17.03136
902.2556, 16.62091
902.7377, 17.03837
903.2198, 16.68933
903.7020, 16.61476
904.1841, 16.74690
904.6662, 16.66486
905.1483, 16.92215
905.6304, 16.85381
906.1125, 16.75696
906.5947, 16.78797
907.0768, 16.45912
907.5589, 16.79971
908.0410, 16.68410
908.5231, 16.79623
909.0052, 16.96047
909.4874, 16.73123
909.9695, 16.91988
910.4516, 16.46212
910.9337, 16.54642
911.4158, 16.90473
911.8979, 17.06006
912.3801, 17.02774
912.8622, 16.91102
913.3443, 16.97998
913.8264, 17.19980
914.3085, 17.34107
914.7906, 17.17316
915.2728, 17.00781
915.7549, 17.03362
916.2370, 17.19901
916.7191, 17.26313
917.2012, 17.19103
917.6833, 17.15035
918.1655, 17.20359
918.6476, 17.29536
919.1297, 17.30307
919.6118, 17.26154
920.0939, 17.27167
920.5760, 17.42955
921.0582, 17.55355
921.5403, 17.48384
922.0224, 17.36472
922.5045, 17.40802
922.9866, 17.72131
923.4688, 17.87606
923.9509, 17.81089
924.4330, 17.69051
924.9151, 17.71704
925.3972, 17.83176
925.8793, 17.88980
926.3615, 17.87045
926.8436, 17.84871
927.3257, 17.87222
927.8078, 17.90591
928.2899, 17.92112
928.7720, 17.91531
929.2542, 17.94663
929.7363, 18.04679
930.2184, 18.07372
930.7005, 17.87457
931.1826, 17.57949
931.6647, 17.57995
932.1469, 17.80921
932.6290, 17.98129
933.1111, 17.89212
933.5932, 17.77546
934.0753, 17.74138
934.5574, 17.76318
935.0396, 17.75956
935.5217, 17.72418
936.0038, 17.67988
936.4859, 17.62387
936.9680, 17.57468
937.4501, 17.56863
937.9323, 17.59070
938.4144, 17.60934
938.8965, 17.62273
939.3786, 17.61230
939.8607, 17.51753
940.3428, 17.43033
940.8250, 17.44842
941.3071, 17.62246
941.7892, 17.68184
942.2713, 17.61221
942.7534, 17.48413
943.2355, 17.32853
943.7177, 17.16220
944.1998, 16.97697
944.6819, 16.78998
945.1640, 16.72671
945.6461, 17.02664
946.1282, 17.29029
946.6104, 17.27055
947.0925, 17.05373
947.5746, 16.97907
948.0567, 17.07457
948.5388, 17.14268
949.0209, 17.10889
949.5031, 17.03789
949.9852, 17.02908
950.4673, 17.06225
950.9494, 17.09647
951.4315, 17.13436
951.9136, 17.14563
952.3958, 17.13080
952.8779, 17.07761
953.3600, 16.94681
953.8421, 16.70920
954.3242, 16.61842
954.8063, 16.69897
955.2885, 16.83720
955.7706, 16.97537
956.2527, 17.08308
956.7348, 17.11576
957.2169, 17.07029
957.6990, 16.98229
958.1811, 16.74183
958.6632, 16.60079
959.1453, 16.69311
959.6274, 16.95896
960.1096, 17.06835
960.5917, 17.02180
961.0738, 16.98269
961.5559, 17.04310
962.0380, 17.11040
962.5201, 17.04412
963.0023, 16.91870
963.4844, 16.86911
963.9665, 17.02015
964.4486, 17.12636
964.9307, 17.15100
965.4128, 17.14613
965.8950, 17.18230
966.3771, 17.25147
966.8592, 17.27106
967.3413, 17.23200
967.8234, 17.16212
968.3055, 17.00780
968.7877, 16.88805
969.2698, 16.93856
969.7519, 17.18515
970.2340, 17.38137
970.7161, 17.54684
971.1982, 17.59411
971.6804, 17.43180
972.1625, 17.15721
972.6446, 17.10305
973.1267, 17.22428
973.6088, 17.31130
974.0909, 17.20077
974.5731, 17.11037
975.0552, 17.19946
975.5373, 17.37424
976.0194, 17.47116
976.5015, 17.43880
976.9836, 17.45733
977.4658, 17.54683
977.9479, 17.66599
978.4300, 17.76702
978.9121, 17.86082
979.3942, 17.99710
979.8763, 18.18366
980.3585, 18.28778
980.8406, 18.12416
981.3227, 17.97175
981.8048, 17.98021
982.2869, 18.13706
982.7690, 18.32315
983.2512, 18.54347
983.7333, 18.73987
984.2154, 18.87481
984.6975, 18.98739
985.1796, 19.12003
985.6617, 19.27634
986.1439, 19.46106
986.6260, 19.74010
987.1081, 19.95452
987.5902, 20.01622
988.0723, 20.07752
988.5544, 20.33053
989.0366, 20.76647
989.5187, 21.16225
990.0008, 21.49917
990.4829, 21.83468
990.9650, 22.22366
991.4471, 22.63297
991.9293, 23.01017
992.4114, 23.34976
992.8935, 23.80029
993.3756, 24.35071
993.8577, 25.03741
994.3398, 25.84815
994.8220, 26.81570
995.3041, 27.95629
995.7862, 29.30844
996.2683, 31.06142
996.7504, 33.31444
997.2325, 35.90025
997.7147, 38.60444
998.1968, 41.67380
998.6789, 45.50570
999.1610, 50.47674
999.6431, 54.88668
1000.125, 58.56263
1000.607, 61.97642
1001.089, 65.31532
1001.572, 68.70972
1002.054, 72.33492
1002.536, 76.17809
1003.018, 80.31277
1003.500, 84.47790
1003.982, 89.16749
1004.464, 94.20736
1004.946, 99.94350
1005.429, 107.1222
1005.911, 115.8121
1006.393, 126.2176
1006.875, 138.6065
1007.357, 152.5326
1007.839, 168.3135
1008.321, 185.3214
1008.803, 203.1739
1009.285, 222.2801
1009.768, 241.1579
1010.250, 261.4505
1010.732, 278.5334
1011.214, 290.7805
1011.696, 297.0195
1012.178, 291.1833
1012.660, 274.1120
1013.142, 250.8844
1013.625, 218.9106
1014.107, 187.2247
1014.589, 159.6710
1015.071, 136.0206
1015.553, 116.7246
1016.035, 102.0102
1016.517, 90.51747
1016.999, 82.30109
1017.481, 76.18752
1017.964, 71.34808
1018.446, 67.57191
1018.928, 64.53376
1019.410, 62.21666
1019.892, 60.45122
1020.374, 59.47471
1020.856, 58.68202
1021.338, 57.88385
1021.820, 57.03175
1022.303, 55.88604
1022.785, 54.45363
1023.267, 52.80634
1023.749, 50.83740
1024.231, 48.82632
1024.713, 46.94651
1025.195, 45.15379
1025.677, 43.34874
1026.160, 41.47482
1026.642, 39.78449
1027.124, 38.31116
1027.606, 36.96342
1028.088, 35.62487
1028.570, 34.35608
1029.052, 33.28658
1029.534, 32.42265
1030.016, 31.52569
1030.499, 30.33936
1030.981, 29.29184
1031.463, 28.54808
1031.945, 28.03817
1032.427, 27.51253
1032.909, 26.98243
1033.391, 26.59869
1033.873, 26.46634
1034.356, 26.34910
1034.838, 26.00385
1035.320, 25.56392
1035.802, 25.18680
1036.284, 24.88945
1036.766, 24.67534
1037.248, 24.57039
1037.730, 24.47821
1038.213, 24.34277
1038.695, 24.16845
1039.177, 23.93079
1039.659, 23.65639
1040.141, 23.46329
1040.623, 23.50431
1041.105, 23.51735
1041.587, 23.40966
1042.069, 23.23237
1042.552, 23.03296
1043.034, 22.81078
1043.516, 22.68772
1043.998, 22.68274
1044.480, 22.74029
1044.962, 22.88772
1045.444, 23.01859
1045.926, 23.01668
1046.408, 22.86385
1046.891, 22.72038
1047.373, 22.57982
1047.855, 22.48405
1048.337, 22.45617
1048.819, 22.47366
1049.301, 22.46255
1049.783, 22.45998
1050.265, 22.57198
1050.748, 22.93180
1051.230, 23.21765
1051.712, 23.29176
1052.194, 23.26585
1052.676, 23.18647
1053.158, 23.04410
1053.640, 23.06753
1054.122, 23.25535
1054.604, 23.44799
1055.087, 23.53885
1055.569, 23.58584
1056.051, 23.61747
1056.533, 23.64473
1057.015, 23.70314
1057.497, 23.81872
1057.979, 23.89113
1058.461, 23.88616
1058.943, 23.89031
1059.426, 24.06826
1059.908, 24.32076
1060.390, 24.43146
1060.872, 24.36131
1061.354, 24.35040
1061.836, 24.57533
1062.318, 24.78339
1062.800, 24.85501
1063.283, 24.83501
1063.765, 24.93431
1064.247, 25.13531
1064.729, 25.26077
1065.211, 25.16357
1065.693, 25.15502
1066.175, 25.58997
1066.657, 26.17758
1067.140, 26.58866
1067.622, 26.79986
1068.104, 26.84310
1068.586, 26.67054
1069.068, 26.57515
1069.550, 26.87438
1070.032, 27.31713
1070.514, 27.48740
1070.996, 27.45935
1071.479, 27.49072
1071.961, 27.67569
1072.443, 27.91559
1072.925, 28.20392
1073.407, 28.53087
1073.889, 28.93972
1074.371, 29.38161
1074.853, 29.65501
1075.335, 29.73423
1075.818, 29.81293
1076.300, 29.96552
1076.782, 30.19446
1077.264, 30.50593
1077.746, 30.89511
1078.228, 31.35824
1078.710, 31.89987
1079.192, 32.40719
1079.675, 32.83754
1080.157, 33.23463
1080.639, 33.55357
1081.121, 33.92059
1081.603, 34.50703
1082.085, 35.43389
1082.567, 36.28811
1083.049, 37.04188
1083.531, 37.78804
1084.014, 38.56615
1084.496, 39.39058
1084.978, 40.30024
1085.460, 41.28681
1085.942, 42.34515
1086.424, 43.47609
1086.906, 44.68882
1087.388, 45.90268
1087.870, 47.28071
1088.353, 48.96239
1088.835, 50.96269
1089.317, 53.40405
1089.799, 56.28473
1090.281, 59.27656
1090.763, 62.00165
1091.245, 64.92522
1091.727, 68.35194
1092.209, 72.22885
1092.692, 76.33266
1093.174, 80.70801
1093.656, 85.06235
1094.138, 89.30830
1094.620, 93.68019
1095.102, 98.41225
1095.584, 103.4230
1096.066, 108.6239
1096.549, 113.9581
1097.031, 119.6440
1097.513, 125.6380
1097.995, 131.9147
1098.477, 138.4207
1098.959, 145.2459
1099.441, 152.7045
1099.923, 160.5630
1100.406, 168.6235
1100.888, 176.8645
1101.370, 185.2234
1101.852, 193.8837
1102.334, 202.3420
1102.816, 210.5782
1103.298, 218.3643
1103.780, 224.5838
1104.262, 229.1548
1104.745, 231.7226
1105.227, 232.3009
1105.709, 230.6367
1106.191, 226.2508
1106.673, 219.5613
1107.155, 211.2664
1107.637, 201.2554
1108.119, 190.3912
1108.601, 178.5857
1109.084, 166.6267
1109.566, 154.3240
1110.048, 142.6820
1110.530, 132.4580
1111.012, 123.6677
1111.494, 115.7916
1111.976, 108.8331
1112.458, 102.5442
1112.941, 96.83949
1113.423, 91.75540
1113.905, 87.29440
1114.387, 83.39177
1114.869, 80.01134
1115.351, 77.10476
1115.833, 74.58257
1116.315, 72.61782
1116.797, 70.67738
1117.280, 68.44591
1117.762, 66.24883
1118.244, 65.00818
1118.726, 64.45682
1119.208, 63.74238
1119.690, 62.53773
1120.172, 61.44814
1120.654, 60.79128
1121.136, 60.27832
1121.619, 59.75701
1122.101, 59.22756
1122.583, 58.65103
1123.065, 58.04586
1123.547, 57.57473
1124.029, 57.27844
1124.511, 57.19149
1124.993, 57.53591
1125.476, 57.99459
1125.958, 58.13907
1126.440, 57.89547
1126.922, 57.73780
1127.404, 57.67155
1127.886, 57.68414
1128.368, 57.62604
1128.850, 57.76147
1129.333, 58.59559
1129.815, 59.81444
1130.297, 60.47315
1130.779, 60.19648
1131.261, 60.35027
1131.743, 61.12189
1132.225, 62.14057
1132.707, 63.07520
1133.189, 63.96959
1133.672, 64.87125
1134.154, 65.79995
1134.636, 66.90150
1135.118, 68.24815
1135.600, 69.67188
1136.082, 71.15896
1136.564, 72.67545
1137.046, 74.12974
1137.528, 75.60625
1138.011, 77.31641
1138.493, 79.31343
1138.975, 81.41378
1139.457, 83.56879
1139.939, 85.76465
1140.421, 87.98206
1140.903, 90.23399
1141.385, 92.68396
1141.868, 95.30088
1142.350, 98.08660
1142.832, 101.0791
1143.314, 104.0297
1143.796, 106.5678
1144.278, 109.2234
1144.760, 112.4531
1145.242, 116.1869
1145.724, 119.2041
1146.207, 121.5681
1146.689, 124.0042
1147.171, 126.8230
1147.653, 129.8195
1148.135, 133.0381
1148.617, 136.1684
1149.099, 138.8899
1149.581, 141.1431
1150.063, 143.2869
1150.546, 145.3150
1151.028, 147.2514
1151.510, 149.2781
1151.992, 151.0069
1152.474, 152.0764
1152.956, 152.6041
1153.438, 152.8377
1153.920, 152.8310
1154.403, 152.4366
1154.885, 151.6309
1155.367, 150.5448
1155.849, 149.4548
1156.331, 148.0529
1156.813, 145.9333
1157.295, 143.1727
1157.777, 140.1559
1158.260, 136.9339
1158.742, 133.4919
1159.224, 129.8593
1159.706, 126.0082
1160.188, 121.7338
1160.670, 117.3309
1161.152, 113.2840
1161.634, 109.6081
1162.116, 105.8149
1162.599, 101.6758
1163.081, 97.65992
1163.563, 93.82059
1164.045, 90.19959
1164.527, 86.88184
1165.009, 83.83531
1165.491, 80.96174
1165.973, 78.24607
1166.455, 75.59187
1166.938, 72.90252
1167.420, 70.32909
1167.902, 67.89326
1168.384, 65.60358
1168.866, 63.47256
1169.348, 61.50494
1169.830, 59.72300
1170.312, 58.16739
1170.795, 56.59542
1171.277, 54.89485
1171.759, 53.21277
1172.241, 51.59143
1172.723, 50.05840
1173.205, 48.62343
1173.687, 47.32931
1174.169, 46.27013
1174.651, 45.64284
1175.134, 44.89730
1175.616, 43.65408
1176.098, 42.35917
1176.580, 41.25712
1177.062, 40.34278
1177.544, 39.57072
1178.026, 38.92586
1178.508, 38.30772
1178.990, 37.70955
1179.473, 37.08152
1179.955, 36.30957
1180.437, 35.56496
1180.919, 35.02552
1181.401, 34.69281
1181.883, 34.22874
1182.365, 33.63879
1182.847, 33.03865
1183.330, 32.50389
1183.812, 31.96734
1184.294, 31.31810
1184.776, 30.70724
1185.258, 30.36423
1185.740, 30.30161
1186.222, 29.97759
1186.704, 29.37672
1187.187, 28.76998
1187.669, 28.29947
1188.151, 27.91409
1188.633, 27.64307
1189.115, 27.41433
1189.597, 27.09580
1190.079, 26.68127
1190.561, 26.31493
1191.043, 26.00666
1191.526, 25.73623
1192.008, 25.54846
1192.490, 25.33695
1192.972, 24.99075
1193.454, 24.56847
1193.936, 24.22243
1194.418, 23.95476
1194.900, 23.75916
1195.382, 23.64936
1195.865, 23.46677
1196.347, 22.94784
1196.829, 22.41758
1197.311, 22.15744
1197.793, 22.10584
1198.275, 21.99932
1198.757, 21.83953
1199.239, 21.58858
1199.722, 21.22324
1200.204, 20.87545
1200.686, 20.63485
1201.168, 20.48303
1201.650, 20.45804
1202.132, 20.52447
1202.614, 20.45008
1203.096, 20.22372
1203.578, 20.03119
1204.061, 19.93145
1204.543, 19.83825
1205.025, 19.65234
1205.507, 19.44593
1205.989, 19.31976
1206.471, 19.26135
1206.953, 19.01516
1207.435, 18.55627
1207.917, 18.30174
1208.400, 18.44404
1208.882, 18.65698
1209.364, 18.67673
1209.846, 18.57132
1210.328, 18.37068
1210.810, 18.08442
1211.292, 17.88478
1211.774, 17.77170
1212.257, 17.73682
1212.739, 17.81613
1213.221, 17.88068
1213.703, 17.77504
1214.185, 17.61125
1214.667, 17.51624
1215.149, 17.49592
1215.631, 17.46087
1216.114, 17.41132
1216.596, 17.34635
1217.078, 17.26362
1217.560, 17.16944
1218.042, 17.03238
1218.524, 16.90819
1219.006, 16.86866
1219.488, 16.92004
1219.970, 16.95563
1220.453, 16.97475
1220.935, 16.99758
1221.417, 17.07017
1221.899, 17.09567
1222.381, 16.95016
1222.863, 16.74041
1223.345, 16.60199
1223.827, 16.54796
1224.309, 16.43048
1224.792, 16.24987
1225.274, 16.15649
1225.756, 16.30919
1226.238, 16.48104
1226.720, 16.50583
1227.202, 16.46067
1227.684, 16.45387
1228.166, 16.49701
1228.649, 16.44812
1229.131, 16.31212
1229.613, 16.19955
1230.095, 16.21899
1230.577, 16.23446
1231.059, 16.11223
1231.541, 15.97311
1232.023, 15.97710
1232.505, 16.13427
1232.988, 16.23522
1233.470, 16.27815
1233.952, 16.26297
1234.434, 16.10981
1234.916, 15.98932
1235.398, 16.08308
1235.880, 16.19753
1236.362, 16.07110
1236.844, 15.71371
1237.327, 15.59015
1237.809, 15.69065
1238.291, 15.80939
1238.773, 15.84705
1239.255, 15.84871
1239.737, 15.83021
1240.219, 15.78718
1240.701, 15.68758
1241.184, 15.54680
1241.666, 15.50930
1242.148, 15.56871
1242.630, 15.62934
1243.112, 15.61101
1243.594, 15.62615
1244.076, 15.77227
1244.558, 15.89852
1245.041, 15.78972
1245.523, 15.50944
1246.005, 15.34675
1246.487, 15.30699
1246.969, 15.31265
1247.451, 15.34712
1247.933, 15.40338
1248.415, 15.51171
1248.897, 15.59117
1249.380, 15.52147
1249.862, 15.35236
1250.344, 15.22816
1250.826, 15.15371
1251.308, 15.11123
1251.790, 15.13371
1252.272, 15.13002
1252.754, 15.08196
1253.236, 15.01539
1253.719, 14.94905
1254.201, 14.89088
1254.683, 14.87496
1255.165, 14.88705
1255.647, 14.85123
1256.129, 14.69599
1256.611, 14.58279
1257.093, 14.53778
1257.576, 14.50929
1258.058, 14.46104
1258.540, 14.38368
1259.022, 14.21156
1259.504, 13.98631
1259.986, 13.92140
1260.468, 14.13615
1260.950, 14.21701
1261.432, 14.09284
1261.915, 13.96395
1262.397, 14.08519
1262.879, 14.25921
1263.361, 14.23125
1263.843, 14.30925
1264.325, 14.31879
1264.807, 14.21272
1265.289, 14.18959
1265.771, 13.89464
1266.254, 13.58888
1266.736, 13.50803
1267.218, 13.51210
1267.700, 13.50960
1268.182, 13.49621
1268.664, 13.48016
1269.146, 13.46381
1269.628, 13.39639
1270.111, 13.27118
1270.593, 13.17916
1271.075, 13.22346
1271.557, 13.28390
1272.039, 13.27480
1272.521, 13.30791
1273.003, 13.31352
1273.485, 13.30204
1273.968, 13.30237
1274.450, 13.24627
1274.932, 13.21241
1275.414, 13.25180
1275.896, 13.32227
1276.378, 13.44456
1276.860, 13.54741
1277.342, 13.49194
1277.824, 13.33294
1278.307, 13.30636
1278.789, 13.41168
1279.271, 13.49153
1279.753, 13.41209
1280.235, 13.40641
1280.717, 13.57421
1281.199, 13.72373
1281.681, 13.54537
1282.163, 13.21433
1282.646, 13.13135
1283.128, 13.26873
1283.610, 13.33701
1284.092, 13.19595
1284.574, 13.11157
1285.056, 13.11719
1285.538, 13.16196
1286.020, 13.21809
1286.503, 13.26628
1286.985, 13.30177
1287.467, 13.30780
1287.949, 13.20576
1288.431, 12.91208
1288.913, 12.85091
1289.395, 13.08292
1289.877, 13.31987
1290.359, 13.29797
1290.842, 13.19041
1291.324, 13.12638
1291.806, 13.09107
1292.288, 13.03837
1292.770, 12.96579
1293.252, 12.90379
1293.734, 12.85513
1294.216, 12.83528
1294.698, 12.87754
1295.181, 12.92574
1295.663, 12.98879
1296.145, 13.01170
1296.627, 12.88129
1297.109, 12.63147
1297.591, 12.56317
1298.073, 12.66073
1298.555, 12.73906
1299.038, 12.66075
1299.520, 12.61775
1300.002, 12.67173
1300.484, 12.74592
1300.966, 12.75744
1301.448, 12.72278
1301.930, 12.70883
1302.412, 12.69841
1302.895, 12.62672
1303.377, 12.28853
1303.859, 12.23089
1304.341, 12.56120
1304.823, 12.87696
1305.305, 12.90872
##END=



