##NAMES=Argentojarosite
##RRUFFID=R060098
##IDEAL CHEMISTRY=Ag^1+^Fe^3+^_3_(S^6+^O_4_)_2_(OH)_6_
##LOCALITY=Tintic Standard mine, Dividend, Utah, USA
##OWNER=RRUFF
##SOURCE=University of Arizona Mineral Museum
##DESCRIPTION=Coating of yellowish-brown flat hexagonal plates
##STATUS=The identification of this mineral has been confirmed by X-ray diffraction and chemical analysis
##URL=rruff.info/R060098
##MEASURED CHEMISTRY=Ag_1.00_Fe^3+^_3.00_(S_1.00_O_4_)_2_(OH)_6_
93.46680, 351.6751
93.94891, 348.4472
94.43103, 349.3109
94.91315, 351.8002
95.39526, 352.8731
95.87738, 352.0490
96.35950, 350.0699
96.84161, 347.4753
97.32373, 344.5710
97.80585, 341.3609
98.28796, 338.0691
98.77008, 334.7728
99.25220, 331.5593
99.73431, 328.4960
100.2164, 325.5471
100.6985, 322.0999
101.1807, 318.8810
101.6628, 316.0182
102.1449, 313.5425
102.6270, 311.4281
103.1091, 309.5918
103.5912, 307.8230
104.0734, 306.0302
104.5555, 304.3126
105.0376, 302.6086
105.5197, 300.9508
106.0018, 299.4429
106.4839, 298.1947
106.9661, 297.2426
107.4482, 296.0977
107.9303, 294.2556
108.4124, 292.5471
108.8945, 291.6254
109.3766, 291.5195
109.8588, 291.5465
110.3409, 290.7813
110.8230, 289.0543
111.3051, 287.7538
111.7872, 287.2272
112.2693, 287.1862
112.7515, 287.2155
113.2336, 287.2336
113.7157, 287.2657
114.1978, 287.3922
114.6799, 287.6191
115.1620, 287.7332
115.6442, 287.5922
116.1263, 287.2005
116.6084, 286.6786
117.0905, 285.7552
117.5726, 284.9237
118.0547, 284.6354
118.5369, 284.9769
119.0190, 285.4292
119.5011, 285.1962
119.9832, 283.8707
120.4653, 282.8129
120.9474, 282.3304
121.4296, 282.0930
121.9117, 281.7804
122.3938, 281.2509
122.8759, 280.6675
123.3580, 280.5685
123.8401, 281.8839
124.3223, 282.7103
124.8044, 282.6529
125.2865, 282.0199
125.7686, 281.2491
126.2507, 280.5811
126.7328, 280.0252
127.2150, 279.7036
127.6971, 279.6614
128.1792, 279.7406
128.6613, 279.9036
129.1434, 280.1407
129.6255, 280.4305
130.1077, 280.7948
130.5898, 281.2117
131.0719, 281.5062
131.5540, 281.5555
132.0361, 281.5418
132.5182, 281.6373
133.0004, 281.8512
133.4825, 282.1878
133.9646, 282.7506
134.4467, 283.4507
134.9288, 284.0813
135.4109, 284.6365
135.8931, 285.0682
136.3752, 285.2562
136.8573, 285.3879
137.3394, 284.9298
137.8215, 283.5727
138.3036, 281.4504
138.7858, 278.9898
139.2679, 276.5229
139.7500, 274.0802
140.2321, 271.3846
140.7142, 267.7942
141.1963, 264.4597
141.6785, 261.8363
142.1606, 259.9702
142.6427, 258.6257
143.1248, 257.5777
143.6069, 257.0725
144.0890, 256.2928
144.5712, 254.9426
145.0533, 253.5660
145.5354, 252.5921
146.0175, 252.1258
146.4996, 251.8663
146.9817, 251.2715
147.4639, 249.9900
147.9460, 248.9245
148.4281, 248.0828
148.9102, 247.4787
149.3923, 247.2407
149.8744, 247.4874
150.3566, 247.8860
150.8387, 247.5871
151.3208, 246.4300
151.8029, 245.2129
152.2850, 244.1310
152.7671, 243.1990
153.2493, 242.5042
153.7314, 242.1604
154.2135, 242.0208
154.6956, 241.7814
155.1777, 241.4014
155.6598, 241.0159
156.1420, 240.7493
156.6241, 240.6078
157.1062, 240.4602
157.5883, 240.3066
158.0704, 240.0911
158.5525, 239.7268
159.0347, 239.1573
159.5168, 238.5317
159.9989, 238.0866
160.4810, 237.8900
160.9631, 237.7181
161.4452, 237.5697
161.9274, 237.3880
162.4095, 237.0724
162.8916, 236.5548
163.3737, 235.9538
163.8558, 235.6903
164.3379, 236.2799
164.8201, 236.5251
165.3022, 236.0600
165.7843, 235.1933
166.2664, 234.2881
166.7485, 233.5405
167.2306, 232.9654
167.7128, 232.6818
168.1949, 233.0777
168.6770, 233.3517
169.1591, 233.2648
169.6412, 232.9170
170.1233, 232.5358
170.6055, 232.2799
171.0876, 232.1435
171.5697, 231.9546
172.0518, 231.6773
172.5339, 231.3920
173.0160, 231.0715
173.4982, 230.7492
173.9803, 230.5725
174.4624, 230.7130
174.9445, 231.1497
175.4266, 231.3798
175.9087, 231.3021
176.3909, 231.0903
176.8730, 230.8188
177.3551, 230.4869
177.8372, 230.2705
178.3193, 230.4954
178.8014, 230.9689
179.2836, 231.1032
179.7657, 230.3954
180.2478, 229.4065
180.7299, 228.9920
181.2120, 229.2871
181.6941, 229.8538
182.1763, 230.6786
182.6584, 231.5495
183.1405, 232.0159
183.6226, 231.6585
184.1047, 230.7318
184.5868, 230.0883
185.0690, 229.8955
185.5511, 229.7533
186.0332, 229.4671
186.5153, 229.0853
186.9974, 228.6900
187.4795, 228.2801
187.9617, 227.8743
188.4438, 227.7630
188.9259, 228.3261
189.4080, 228.8093
189.8901, 228.8809
190.3722, 228.6747
190.8544, 228.5093
191.3365, 228.6526
191.8186, 229.1272
192.3007, 229.6091
192.7828, 229.9084
193.2649, 230.3979
193.7471, 231.2868
194.2292, 232.5015
194.7113, 233.8358
195.1934, 235.1116
195.6755, 236.3540
196.1576, 237.3904
196.6398, 237.9928
197.1219, 238.6374
197.6040, 239.4562
198.0861, 240.5040
198.5682, 241.8965
199.0503, 243.8076
199.5325, 246.3842
200.0146, 248.5566
200.4967, 250.1565
200.9788, 251.5170
201.4609, 252.7843
201.9430, 253.9972
202.4252, 255.2391
202.9073, 256.6265
203.3894, 258.1815
203.8715, 259.5977
204.3536, 260.7771
204.8357, 261.8639
205.3179, 262.9888
205.8000, 264.1748
206.2821, 265.3774
206.7642, 266.5612
207.2463, 267.7351
207.7284, 268.9215
208.2106, 270.1976
208.6927, 271.4655
209.1748, 272.5577
209.6569, 273.4255
210.1390, 274.2636
210.6211, 275.2066
211.1033, 276.2430
211.5854, 277.3784
212.0675, 278.7930
212.5496, 280.2933
213.0317, 281.4328
213.5138, 282.1028
213.9960, 282.5720
214.4781, 282.8454
214.9602, 283.0558
215.4423, 283.5058
215.9244, 284.5363
216.4065, 285.9499
216.8886, 286.9802
217.3708, 287.6053
217.8529, 287.8196
218.3350, 287.6376
218.8171, 287.1186
219.2992, 286.3767
219.7813, 285.5009
220.2635, 284.4678
220.7456, 283.1240
221.2277, 281.4701
221.7098, 279.4467
222.1919, 277.0735
222.6740, 274.3551
223.1562, 271.2089
223.6383, 267.4573
224.1204, 263.2004
224.6025, 259.6883
225.0846, 258.1783
225.5667, 256.1642
226.0489, 252.6677
226.5310, 248.2675
227.0131, 244.0484
227.4952, 240.7500
227.9773, 238.3311
228.4594, 235.8100
228.9416, 232.7181
229.4237, 230.0275
229.9058, 228.0387
230.3879, 226.6199
230.8700, 225.6038
231.3521, 224.9286
231.8343, 224.5378
232.3164, 223.5390
232.7985, 221.2618
233.2806, 219.1473
233.7627, 217.5922
234.2448, 216.4805
234.7270, 215.5452
235.2091, 214.6381
235.6912, 213.7475
236.1733, 212.7533
236.6554, 211.4108
237.1375, 210.2384
237.6197, 209.5605
238.1018, 209.1867
238.5839, 208.6128
239.0660, 207.4693
239.5481, 205.9556
240.0302, 205.1976
240.5124, 206.0025
240.9945, 206.5350
241.4766, 205.9317
241.9587, 204.5356
242.4408, 203.2110
242.9229, 202.3905
243.4051, 201.9746
243.8872, 201.5951
244.3693, 201.2740
244.8514, 200.9511
245.3335, 200.5779
245.8156, 200.1793
246.2978, 199.8709
246.7799, 199.7895
247.2620, 199.7229
247.7441, 199.1685
248.2262, 197.8688
248.7083, 196.7160
249.1905, 196.2016
249.6726, 196.2166
250.1547, 196.4182
250.6368, 196.8613
251.1189, 197.2170
251.6010, 196.9417
252.0832, 195.9113
252.5653, 194.9007
253.0474, 194.3616
253.5295, 194.2149
254.0116, 194.0941
254.4937, 193.9041
254.9759, 193.7033
255.4580, 193.5629
255.9401, 193.4842
256.4222, 193.4129
256.9043, 193.3806
257.3864, 193.3520
257.8686, 193.0910
258.3507, 192.3032
258.8328, 191.6031
259.3149, 191.6034
259.7970, 192.2270
260.2791, 192.8186
260.7613, 192.8593
261.2434, 192.4659
261.7255, 192.3131
262.2076, 192.5646
262.6897, 192.9650
263.1718, 193.3755
263.6540, 193.7823
264.1361, 194.1438
264.6182, 194.3875
265.1003, 194.5431
265.5824, 194.8258
266.0645, 195.4061
266.5467, 195.8670
267.0288, 195.9248
267.5109, 195.7210
267.9930, 195.5605
268.4751, 195.6241
268.9572, 195.8797
269.4394, 196.1745
269.9215, 196.4549
270.4036, 196.8759
270.8857, 197.7320
271.3678, 198.7086
271.8499, 199.2761
272.3321, 199.0432
272.8142, 198.2884
273.2963, 197.9905
273.7784, 198.3823
274.2605, 198.8756
274.7426, 199.3346
275.2248, 199.7672
275.7069, 200.1828
276.1890, 200.5905
276.6711, 200.9756
277.1532, 201.2891
277.6353, 201.4767
278.1175, 201.6938
278.5996, 202.0425
279.0817, 202.3965
279.5638, 202.6192
280.0459, 202.6611
280.5280, 202.6114
281.0102, 202.6201
281.4923, 202.6263
281.9744, 202.8431
282.4565, 203.4224
282.9386, 204.1031
283.4207, 204.7573
283.9029, 205.3288
284.3850, 205.7290
284.8671, 205.7469
285.3492, 205.0781
285.8313, 204.7911
286.3134, 205.2087
286.7956, 205.7464
287.2777, 206.1081
287.7598, 206.2267
288.2419, 206.1614
288.7240, 205.9634
289.2061, 205.6044
289.6883, 205.2092
290.1704, 204.6322
290.6525, 204.1465
291.1346, 204.0098
291.6167, 204.1271
292.0988, 204.1400
292.5810, 203.6809
293.0631, 202.6919
293.5452, 201.8589
294.0273, 201.0110
294.5094, 200.4796
294.9915, 200.6860
295.4737, 201.3165
295.9558, 201.6898
296.4379, 201.2774
296.9200, 200.1380
297.4021, 199.2447
297.8842, 198.8678
298.3664, 198.4607
298.8485, 197.7237
299.3306, 196.9230
299.8127, 196.5527
300.2948, 196.9222
300.7769, 197.7760
301.2591, 198.0656
301.7412, 197.1621
302.2233, 196.4079
302.7054, 196.0775
303.1875, 195.8994
303.6696, 195.5617
304.1518, 194.9394
304.6339, 194.1408
305.1160, 193.3971
305.5981, 192.8974
306.0802, 192.1566
306.5623, 191.0394
307.0445, 189.7776
307.5266, 188.5062
308.0087, 187.2807
308.4908, 186.1374
308.9729, 185.1506
309.4550, 184.4577
309.9372, 183.5679
310.4193, 182.2325
310.9014, 180.9249
311.3835, 179.9755
311.8656, 179.3748
312.3477, 178.8735
312.8299, 178.2068
313.3120, 177.3057
313.7941, 176.6799
314.2762, 176.3871
314.7583, 176.2627
315.2404, 176.4832
315.7226, 176.8386
316.2047, 176.8208
316.6868, 175.9891
317.1689, 174.4254
317.6510, 173.4419
318.1331, 173.5729
318.6153, 173.6859
319.0974, 173.5801
319.5795, 173.2973
320.0616, 172.9156
320.5437, 172.4724
321.0258, 171.9846
321.5080, 171.5029
321.9901, 171.0223
322.4722, 170.5623
322.9543, 170.0278
323.4364, 169.5609
323.9185, 169.4043
324.4007, 169.6133
324.8828, 169.8728
325.3649, 169.5749
325.8470, 168.0546
326.3291, 167.2741
326.8112, 167.7348
327.2934, 168.4539
327.7755, 168.8357
328.2576, 168.7671
328.7397, 168.4073
329.2218, 167.8880
329.7039, 167.1284
330.1861, 166.6121
330.6682, 166.4694
331.1503, 166.4087
331.6324, 166.3232
332.1145, 166.2145
332.5966, 166.1253
333.0788, 166.0860
333.5609, 166.0958
334.0430, 166.1493
334.5251, 166.2981
335.0072, 166.4366
335.4893, 166.6977
335.9715, 166.8983
336.4536, 166.6897
336.9357, 165.8786
337.4178, 164.7592
337.8999, 164.2686
338.3820, 165.0506
338.8642, 165.5224
339.3463, 165.3662
339.8284, 164.9814
340.3105, 164.7291
340.7926, 164.7066
341.2747, 164.7569
341.7568, 164.6087
342.2390, 164.0818
342.7211, 163.8151
343.2032, 163.9534
343.6853, 164.1952
344.1674, 164.4006
344.6495, 164.5518
345.1317, 164.6902
345.6138, 164.8563
346.0959, 165.0530
346.5780, 165.2307
347.0601, 165.5555
347.5422, 165.6871
348.0244, 165.4366
348.5065, 164.9328
348.9886, 164.3755
349.4707, 163.8617
349.9528, 163.4333
350.4349, 163.3029
350.9171, 163.7978
351.3992, 164.0786
351.8813, 163.9082
352.3634, 163.5128
352.8455, 163.0338
353.3276, 162.5252
353.8098, 162.1558
354.2919, 162.3277
354.7740, 163.3693
355.2561, 163.9385
355.7382, 163.4832
356.2203, 162.8396
356.7025, 162.4011
357.1846, 162.2390
357.6667, 162.2977
358.1488, 162.6772
358.6309, 163.4048
359.1130, 163.6470
359.5952, 162.9606
360.0773, 162.2544
360.5594, 161.8690
361.0415, 161.7492
361.5236, 161.7774
362.0057, 161.9640
362.4879, 162.1960
362.9700, 162.1118
363.4521, 161.6184
363.9342, 161.0036
364.4163, 160.1732
364.8984, 159.3686
365.3806, 158.8824
365.8627, 158.8270
366.3448, 158.9353
366.8269, 158.8373
367.3090, 158.4968
367.7911, 158.2872
368.2733, 158.4298
368.7554, 158.6230
369.2375, 158.6728
369.7196, 158.5675
370.2017, 158.3511
370.6838, 157.9720
371.1660, 157.4851
371.6481, 157.1581
372.1302, 157.0390
372.6123, 157.0396
373.0944, 157.1884
373.5765, 157.4047
374.0587, 157.4958
374.5408, 157.2615
375.0229, 156.9474
375.5050, 157.0221
375.9871, 157.5559
376.4692, 157.8567
376.9514, 157.3601
377.4335, 156.5329
377.9156, 156.0746
378.3977, 156.1369
378.8798, 156.3265
379.3619, 156.3695
379.8441, 156.3006
380.3262, 156.2777
380.8083, 156.3589
381.2904, 156.4738
381.7725, 156.5115
382.2546, 156.4732
382.7368, 156.5073
383.2189, 156.8492
383.7010, 157.2143
384.1831, 157.0435
384.6652, 156.2417
385.1473, 155.6318
385.6295, 156.0475
386.1116, 157.2911
386.5937, 157.9207
387.0758, 157.3185
387.5579, 156.6155
388.0400, 156.5643
388.5222, 157.0007
389.0043, 157.3277
389.4864, 157.2412
389.9685, 156.9230
390.4506, 156.8289
390.9327, 156.9990
391.4149, 157.2425
391.8970, 157.6526
392.3791, 158.0580
392.8612, 158.2221
393.3433, 158.1000
393.8254, 157.8716
394.3076, 157.7458
394.7897, 157.7573
395.2718, 157.6708
395.7539, 157.3654
396.2360, 157.0798
396.7181, 156.9791
397.2003, 157.0168
397.6824, 157.0034
398.1645, 156.7900
398.6466, 156.4755
399.1287, 156.5696
399.6108, 157.5990
400.0930, 158.4048
400.5751, 158.9059
401.0572, 159.1116
401.5393, 158.9589
402.0214, 158.4563
402.5035, 157.8155
402.9857, 157.3303
403.4678, 156.9861
403.9499, 156.8607
404.4320, 157.1229
404.9141, 157.4191
405.3962, 157.6152
405.8784, 157.6952
406.3605, 157.6766
406.8426, 157.5629
407.3247, 157.3651
407.8068, 157.1560
408.2889, 156.8445
408.7711, 156.6643
409.2532, 156.7809
409.7353, 156.9888
410.2174, 156.9802
410.6995, 156.6467
411.1816, 156.3654
411.6638, 156.8053
412.1459, 158.1513
412.6280, 159.2019
413.1101, 159.6218
413.5922, 159.8345
414.0743, 159.9536
414.5565, 160.0390
415.0386, 160.2451
415.5207, 160.7131
416.0028, 161.3861
416.4849, 162.0438
416.9670, 162.6397
417.4492, 163.3391
417.9313, 164.3118
418.4134, 165.4135
418.8955, 166.4704
419.3776, 167.4385
419.8597, 168.3629
420.3419, 169.2554
420.8240, 170.1280
421.3061, 171.1038
421.7882, 172.2599
422.2703, 173.4706
422.7524, 174.5898
423.2346, 175.6305
423.7167, 176.6033
424.1988, 177.5218
424.6809, 178.3702
425.1630, 179.1073
425.6451, 179.7254
426.1273, 180.3244
426.6094, 180.9495
427.0915, 181.6163
427.5736, 182.3755
428.0557, 183.3812
428.5378, 184.3111
429.0200, 184.8154
429.5021, 185.1600
429.9842, 185.9713
430.4663, 187.5141
430.9484, 189.3298
431.4305, 190.6776
431.9127, 191.4090
432.3948, 191.9514
432.8769, 192.0498
433.3590, 192.1544
433.8411, 192.6646
434.3232, 193.5216
434.8054, 194.3437
435.2875, 194.8183
435.7696, 194.9886
436.2517, 195.3264
436.7338, 196.4340
437.2159, 196.9912
437.6981, 196.6516
438.1802, 195.7299
438.6623, 194.4967
439.1444, 193.0673
439.6265, 191.5437
440.1086, 190.0734
440.5908, 188.6700
441.0729, 187.2816
441.5550, 186.0401
442.0371, 184.6814
442.5192, 182.9359
443.0013, 180.9719
443.4835, 179.2190
443.9656, 178.0029
444.4477, 177.1550
444.9298, 176.1714
445.4119, 174.9726
445.8940, 173.8317
446.3762, 172.8593
446.8583, 171.9684
447.3404, 171.1047
447.8225, 170.2587
448.3046, 169.4406
448.7867, 168.6897
449.2689, 167.9887
449.7510, 167.2578
450.2331, 166.5487
450.7152, 165.6829
451.1973, 164.3276
451.6794, 162.6881
452.1616, 161.3047
452.6437, 160.4969
453.1258, 159.8658
453.6079, 159.0530
454.0900, 158.0789
454.5721, 157.0920
455.0543, 156.1651
455.5364, 155.2464
456.0185, 154.1693
456.5006, 152.8269
456.9827, 151.7562
457.4648, 151.2176
457.9470, 150.9339
458.4291, 150.6802
458.9112, 150.4029
459.3933, 149.9898
459.8754, 149.2911
460.3575, 148.3244
460.8397, 147.7681
461.3218, 148.1784
461.8039, 148.2808
462.2860, 147.4085
462.7681, 146.1491
463.2502, 145.3009
463.7324, 145.1422
464.2145, 145.3936
464.6966, 145.6569
465.1787, 146.0027
465.6608, 146.1343
466.1429, 145.9837
466.6251, 145.6988
467.1072, 145.2886
467.5893, 144.7951
468.0714, 144.2685
468.5535, 143.7098
469.0356, 143.1895
469.5178, 142.9348
469.9999, 143.0350
470.4820, 143.1607
470.9641, 143.3259
471.4462, 143.4187
471.9283, 143.3223
472.4105, 143.0306
472.8926, 142.6875
473.3747, 142.3592
473.8568, 142.0629
474.3389, 141.8817
474.8210, 141.8512
475.3032, 141.8483
475.7853, 141.8232
476.2674, 141.7638
476.7495, 141.6348
477.2316, 141.3919
477.7137, 141.1392
478.1959, 140.9169
478.6780, 140.7404
479.1601, 140.6944
479.6422, 140.8423
480.1243, 140.9718
480.6064, 140.7614
481.0886, 140.1348
481.5707, 139.6798
482.0528, 139.3811
482.5349, 139.3028
483.0170, 139.7140
483.4991, 140.4080
483.9813, 140.7707
484.4634, 140.4322
484.9455, 139.6505
485.4276, 139.1964
485.9097, 139.3859
486.3918, 139.4572
486.8740, 139.3127
487.3561, 139.1171
487.8382, 138.9896
488.3203, 138.9375
488.8024, 138.8923
489.2845, 138.7738
489.7667, 138.6053
490.2488, 138.6421
490.7309, 139.1252
491.2130, 139.4156
491.6951, 139.2475
492.1772, 138.8789
492.6594, 138.5685
493.1415, 138.3820
493.6236, 138.2263
494.1057, 137.9246
494.5878, 137.5230
495.0699, 137.4971
495.5521, 138.1172
496.0342, 138.6841
496.5163, 138.5448
496.9984, 137.9666
497.4805, 137.5271
497.9626, 137.4067
498.4448, 137.4137
498.9269, 137.4470
499.4090, 137.4861
499.8911, 137.4374
500.3732, 137.2458
500.8553, 137.0255
501.3375, 136.9386
501.8196, 137.0026
502.3017, 137.1207
502.7838, 137.4388
503.2659, 137.6802
503.7480, 137.5885
504.2302, 137.2523
504.7123, 136.9450
505.1944, 136.8191
505.6765, 136.8406
506.1586, 136.9138
506.6407, 137.0998
507.1228, 137.2399
507.6049, 137.3886
508.0871, 137.4504
508.5692, 137.3457
509.0513, 137.0859
509.5334, 136.7357
510.0155, 136.3178
510.4977, 135.8606
510.9798, 135.5070
511.4619, 135.2373
511.9440, 135.1169
512.4261, 135.2959
512.9083, 135.5547
513.3904, 135.7044
513.8725, 135.7142
514.3546, 135.6737
514.8367, 135.5954
515.3188, 135.5193
515.8010, 135.6001
516.2831, 135.8943
516.7652, 136.1308
517.2473, 136.0860
517.7294, 135.8403
518.2115, 135.6862
518.6937, 135.7409
519.1758, 135.7278
519.6579, 135.3983
520.1400, 134.9569
520.6221, 134.7531
521.1042, 134.8670
521.5864, 135.1258
522.0685, 135.3661
522.5506, 135.5983
523.0327, 135.6934
523.5148, 135.4787
523.9969, 135.3456
524.4791, 135.5338
524.9612, 135.8384
525.4433, 135.9608
525.9254, 135.7976
526.4075, 135.4942
526.8896, 135.2425
527.3718, 135.0323
527.8539, 134.9275
528.3360, 134.9593
528.8181, 135.0731
529.3002, 135.2857
529.7823, 135.5540
530.2645, 135.8101
530.7466, 136.0369
531.2287, 136.2152
531.7108, 136.2590
532.1929, 136.1855
532.6750, 136.3009
533.1572, 136.8015
533.6393, 137.3040
534.1214, 137.2990
534.6035, 136.8774
535.0856, 136.6126
535.5677, 136.7741
536.0499, 136.9992
536.5320, 136.9685
537.0141, 136.7685
537.4962, 136.6982
537.9783, 136.8925
538.4604, 137.2135
538.9426, 137.4133
539.4247, 137.4095
539.9068, 137.5009
540.3889, 137.7344
540.8710, 138.0095
541.3531, 138.3111
541.8353, 138.6096
542.3174, 138.8730
542.7995, 139.0882
543.2816, 139.2253
543.7637, 139.1671
544.2458, 138.7910
544.7280, 138.6282
545.2101, 138.9286
545.6922, 139.3101
546.1743, 139.6817
546.6564, 139.9751
547.1385, 139.9915
547.6207, 139.4417
548.1028, 138.7332
548.5849, 138.4773
549.0670, 138.6629
549.5491, 139.0724
550.0313, 139.8095
550.5134, 140.4901
550.9955, 140.3523
551.4776, 139.3554
551.9597, 138.7248
552.4418, 138.9836
552.9240, 139.4547
553.4061, 139.6189
553.8882, 139.5280
554.3703, 139.4810
554.8524, 139.6406
555.3345, 139.8641
555.8167, 139.8155
556.2988, 139.3080
556.7809, 138.8843
557.2630, 138.3916
557.7451, 138.1045
558.2272, 138.4304
558.7094, 139.0815
559.1915, 139.3329
559.6736, 138.7160
560.1557, 137.6440
560.6378, 136.9889
561.1199, 136.8223
561.6021, 136.6298
562.0842, 136.2824
562.5663, 135.8999
563.0484, 135.5845
563.5305, 135.3261
564.0126, 135.0621
564.4948, 134.7874
564.9769, 134.4848
565.4590, 134.0813
565.9411, 133.6181
566.4232, 133.3100
566.9053, 133.2671
567.3875, 133.3178
567.8696, 133.1946
568.3517, 132.8358
568.8338, 132.4949
569.3159, 132.0918
569.7980, 131.7868
570.2802, 131.7628
570.7623, 131.8852
571.2444, 131.8736
571.7265, 131.5982
572.2086, 131.1974
572.6907, 130.8978
573.1729, 130.6787
573.6550, 130.6428
574.1371, 131.0773
574.6192, 131.3911
575.1013, 131.2372
575.5834, 130.7820
576.0656, 130.3705
576.5477, 130.1343
577.0298, 129.9796
577.5119, 129.8234
577.9940, 129.6643
578.4761, 129.4791
578.9583, 129.2472
579.4404, 129.0430
579.9225, 128.9564
580.4046, 128.9818
580.8867, 128.9684
581.3688, 128.8833
581.8510, 128.7921
582.3331, 128.6977
582.8152, 128.6242
583.2973, 128.6480
583.7794, 128.7747
584.2615, 128.8438
584.7437, 128.6297
585.2258, 128.1025
585.7079, 127.8242
586.1900, 127.8981
586.6721, 128.1072
587.1542, 128.6653
587.6363, 129.1892
588.1184, 129.1204
588.6005, 128.3563
589.0826, 127.6442
589.5648, 127.7807
590.0469, 128.5321
590.5290, 129.0485
591.0111, 129.2744
591.4932, 129.3154
591.9753, 129.1302
592.4575, 128.8413
592.9396, 128.7735
593.4217, 129.0701
593.9038, 129.2076
594.3859, 128.8502
594.8680, 128.3617
595.3502, 128.1118
595.8323, 128.1224
596.3144, 128.2608
596.7965, 128.4518
597.2786, 128.6676
597.7607, 128.7841
598.2429, 128.5698
598.7250, 128.6919
599.2071, 129.4551
599.6892, 130.2966
600.1713, 130.7842
600.6534, 131.0228
601.1356, 131.4461
601.6177, 132.3432
602.0998, 133.5023
602.5819, 134.6369
603.0640, 135.7470
603.5461, 136.6359
604.0283, 137.1930
604.5104, 137.6046
604.9925, 138.0563
605.4746, 138.5436
605.9567, 139.0071
606.4388, 139.4883
606.9210, 139.8981
607.4031, 140.1053
607.8852, 140.2229
608.3673, 140.4582
608.8494, 140.8754
609.3315, 141.4235
609.8137, 142.0590
610.2958, 142.8045
610.7779, 143.3965
611.2600, 143.6396
611.7421, 143.9651
612.2242, 144.5159
612.7064, 145.1791
613.1885, 145.8252
613.6706, 146.4251
614.1527, 147.0312
614.6348, 147.7133
615.1169, 148.4320
615.5991, 149.1067
616.0812, 149.7508
616.5633, 150.2067
617.0454, 150.3338
617.5275, 150.2625
618.0096, 150.3283
618.4918, 150.6622
618.9739, 150.7089
619.4560, 150.5636
619.9381, 149.9284
620.4202, 148.3647
620.9023, 146.0747
621.3845, 143.6501
621.8666, 141.4086
622.3487, 139.3048
622.8308, 137.2435
623.3129, 135.1645
623.7950, 133.3182
624.2772, 131.7498
624.7593, 130.3980
625.2414, 129.3415
625.7235, 128.4751
626.2056, 127.5839
626.6877, 126.5554
627.1699, 125.6092
627.6520, 124.9638
628.1341, 124.5801
628.6162, 124.3870
629.0983, 124.3899
629.5804, 124.4072
630.0626, 124.2903
630.5447, 124.0580
631.0268, 123.8569
631.5089, 123.7820
631.9910, 123.6078
632.4731, 123.1452
632.9553, 122.6710
633.4374, 122.4580
633.9195, 122.4989
634.4016, 122.6078
634.8837, 122.6640
635.3658, 122.6647
635.8480, 122.5960
636.3301, 122.4523
636.8122, 122.2629
637.2943, 122.0181
637.7764, 121.7455
638.2585, 121.4021
638.7407, 121.0349
639.2228, 120.8474
639.7049, 121.0058
640.1870, 121.2641
640.6691, 121.5439
641.1512, 121.7660
641.6334, 121.7014
642.1155, 121.2931
642.5976, 120.7845
643.0797, 120.4353
643.5618, 120.2451
644.0439, 119.9973
644.5261, 119.6405
645.0082, 119.2874
645.4903, 118.7852
645.9724, 118.4058
646.4545, 118.5418
646.9366, 119.1329
647.4188, 119.5854
647.9009, 119.3646
648.3830, 118.7568
648.8651, 118.4050
649.3472, 118.3165
649.8293, 118.2305
650.3115, 118.0829
650.7936, 117.8641
651.2757, 117.5071
651.7578, 116.9978
652.2399, 116.6750
652.7220, 116.6735
653.2042, 116.7460
653.6863, 116.8735
654.1684, 116.9576
654.6505, 116.7958
655.1326, 116.3632
655.6147, 115.9317
656.0969, 115.8471
656.5790, 116.0784
657.0611, 116.0313
657.5432, 115.4825
658.0253, 115.1295
658.5074, 115.6108
658.9896, 116.1431
659.4717, 115.8748
659.9538, 114.7851
660.4359, 113.9650
660.9180, 114.2310
661.4001, 114.7452
661.8823, 114.5384
662.3644, 113.7914
662.8465, 113.2535
663.3286, 113.2162
663.8107, 113.3451
664.2928, 113.1590
664.7750, 112.5809
665.2571, 112.2017
665.7392, 112.1756
666.2213, 112.1679
666.7034, 112.1256
667.1855, 112.0501
667.6677, 111.8907
668.1498, 111.6610
668.6319, 111.5606
669.1140, 111.9358
669.5961, 112.5048
670.0782, 112.5355
670.5604, 112.0228
671.0425, 111.5979
671.5246, 111.5535
672.0067, 111.6452
672.4888, 111.4862
672.9709, 110.9939
673.4531, 110.6810
673.9352, 110.6668
674.4173, 110.7134
674.8994, 110.8284
675.3815, 110.8915
675.8636, 110.7072
676.3458, 110.2423
676.8279, 109.6988
677.3100, 109.2108
677.7921, 108.8169
678.2742, 108.8682
678.7563, 109.5398
679.2385, 109.9900
679.7206, 109.7782
680.2027, 109.3008
680.6848, 109.0373
681.1669, 108.9852
681.6490, 109.0344
682.1312, 109.3061
682.6133, 109.5294
683.0954, 109.5149
683.5775, 109.3177
684.0596, 109.0190
684.5417, 108.6567
685.0239, 108.3122
685.5060, 108.0646
685.9881, 107.9162
686.4702, 107.9339
686.9523, 108.2398
687.4344, 108.4754
687.9166, 108.5845
688.3987, 108.5463
688.8808, 108.2426
689.3629, 107.7059
689.8450, 107.3068
690.3271, 107.3349
690.8093, 107.4635
691.2914, 107.3355
691.7735, 107.0493
692.2556, 106.9065
692.7377, 106.9976
693.2198, 107.1540
693.7020, 107.1972
694.1841, 107.1276
694.6662, 107.0045
695.1483, 106.7452
695.6304, 106.5569
696.1125, 106.5954
696.5947, 106.6229
697.0768, 106.3459
697.5589, 105.8293
698.0410, 105.5150
698.5231, 105.8308
699.0052, 106.2636
699.4874, 106.0893
699.9695, 105.4554
700.4516, 104.9496
700.9337, 104.7184
701.4158, 104.6940
701.8979, 104.8588
702.3801, 105.1925
702.8622, 105.3530
703.3443, 105.2163
703.8264, 105.0637
704.3085, 104.9436
704.7906, 104.7977
705.2728, 104.5284
705.7549, 104.1847
706.2370, 103.9280
706.7191, 103.8509
707.2012, 103.9000
707.6833, 104.1101
708.1655, 104.4147
708.6476, 104.3957
709.1297, 103.9330
709.6118, 103.3774
710.0939, 102.9516
710.5760, 102.6711
711.0582, 102.6295
711.5403, 103.1365
712.0224, 103.4280
712.5045, 103.2517
712.9866, 103.0137
713.4688, 103.0667
713.9509, 103.2971
714.4330, 103.3288
714.9151, 102.9511
715.3972, 102.5045
715.8793, 102.5360
716.3615, 102.9425
716.8436, 103.0394
717.3257, 102.7001
717.8078, 102.3601
718.2899, 102.3025
718.7720, 102.4189
719.2542, 102.4053
719.7363, 102.1542
720.2184, 102.0471
720.7005, 102.3445
721.1826, 102.5713
721.6647, 102.3677
722.1469, 101.9077
722.6290, 101.5193
723.1111, 101.3234
723.5932, 101.2485
724.0753, 101.2562
724.5574, 101.3231
725.0396, 101.3287
725.5217, 101.2670
726.0038, 101.1565
726.4859, 100.9707
726.9680, 100.7824
727.4501, 100.7342
727.9323, 100.8612
728.4144, 100.9010
728.8965, 100.8582
729.3786, 100.7065
729.8607, 100.3529
730.3428, 99.92286
730.8250, 99.54263
731.3071, 99.25943
731.7892, 99.12158
732.2713, 99.23608
732.7534, 99.49290
733.2355, 99.52719
733.7177, 99.32291
734.1998, 99.25216
734.6819, 99.46750
735.1640, 99.74703
735.6461, 99.86710
736.1282, 99.82899
736.6104, 99.78384
737.0925, 99.81882
737.5746, 99.73369
738.0567, 99.40897
738.5388, 98.99220
739.0209, 98.56676
739.5031, 98.17551
739.9852, 97.85359
740.4673, 97.59368
740.9494, 97.50098
741.4315, 97.91655
741.9136, 98.76791
742.3958, 99.16216
742.8779, 98.90107
743.3600, 98.46214
743.8421, 98.11312
744.3242, 97.84868
744.8063, 97.66376
745.2885, 97.59785
745.7706, 97.52302
746.2527, 97.37350
746.7348, 97.26635
747.2169, 97.31778
747.6990, 97.45232
748.1812, 97.53613
748.6633, 97.52119
749.1454, 97.43723
749.6275, 97.22729
750.1096, 96.97683
750.5917, 97.04392
751.0739, 97.45229
751.5560, 97.77817
752.0381, 97.85715
752.5202, 97.74758
753.0023, 97.49860
753.4844, 97.06771
753.9666, 96.77708
754.4487, 96.63182
754.9308, 96.60562
755.4129, 96.85500
755.8950, 97.11388
756.3771, 97.10104
756.8593, 96.80604
757.3414, 96.40829
757.8235, 95.92554
758.3056, 95.52088
758.7877, 95.51843
759.2698, 95.83030
759.7520, 96.06007
760.2341, 96.12508
760.7162, 96.08517
761.1983, 95.96603
761.6804, 95.79521
762.1625, 95.70757
762.6447, 95.78868
763.1268, 95.81458
763.6089, 95.77451
764.0910, 95.68776
764.5731, 95.49232
765.0552, 95.27540
765.5374, 95.20260
766.0195, 95.33543
766.5016, 95.53330
766.9837, 95.83732
767.4658, 96.06668
767.9479, 95.78483
768.4301, 95.07504
768.9122, 94.56241
769.3943, 94.52567
769.8764, 94.72543
770.3585, 94.81258
770.8406, 94.77827
771.3228, 94.72231
771.8049, 94.63413
772.2870, 94.54098
772.7691, 94.44291
773.2512, 94.34983
773.7333, 94.23403
774.2155, 94.11563
774.6976, 94.12464
775.1797, 94.46479
775.6618, 94.78713
776.1439, 94.88425
776.6260, 94.78619
777.1082, 94.43003
777.5903, 93.87697
778.0724, 93.48258
778.5545, 93.52116
779.0366, 93.83116
779.5187, 93.97671
780.0009, 93.92368
780.4830, 93.93233
780.9651, 94.08768
781.4472, 94.19621
781.9293, 94.13150
782.4114, 93.94397
782.8936, 93.70309
783.3757, 93.35710
783.8578, 93.15936
784.3399, 93.22939
784.8220, 93.40929
785.3041, 93.70487
785.7863, 93.99845
786.2684, 94.10069
786.7505, 93.96395
787.2326, 93.69303
787.7147, 93.30184
788.1968, 92.89317
788.6790, 92.87919
789.1611, 93.26960
789.6432, 93.49974
790.1253, 93.38596
790.6074, 93.14973
791.0895, 92.97975
791.5717, 92.87587
792.0538, 92.84056
792.5359, 92.95721
793.0180, 93.02133
793.5001, 93.09084
793.9822, 93.03400
794.4644, 92.56033
794.9465, 91.92023
795.4286, 91.71091
795.9107, 92.20173
796.3928, 92.81608
796.8749, 93.08984
797.3571, 93.11976
797.8392, 93.02636
798.3213, 92.84617
798.8034, 92.75799
799.2855, 92.84663
799.7676, 92.97083
800.2498, 92.94304
800.7319, 92.76366
801.2140, 92.36582
801.6961, 91.41328
802.1782, 90.84542
802.6603, 91.37579
803.1425, 92.01878
803.6246, 91.88782
804.1067, 91.14620
804.5888, 90.73515
805.0709, 91.17415
805.5530, 91.61645
806.0352, 91.54457
806.5173, 91.28445
806.9994, 91.17297
807.4815, 91.25173
807.9636, 91.51485
808.4457, 91.97480
808.9279, 92.39192
809.4100, 92.31745
809.8921, 91.79028
810.3742, 91.36926
810.8563, 91.07861
811.3384, 90.87746
811.8206, 90.74208
812.3027, 90.69858
812.7848, 90.83684
813.2669, 91.21330
813.7490, 91.34415
814.2311, 91.02481
814.7133, 90.72530
815.1954, 90.57207
815.6775, 90.49418
816.1596, 90.48055
816.6417, 90.48341
817.1238, 90.34705
817.6060, 89.90621
818.0881, 89.50425
818.5702, 89.58870
819.0523, 89.95571
819.5344, 90.12701
820.0165, 90.07703
820.4987, 90.14088
820.9808, 90.52685
821.4629, 90.96352
821.9450, 90.89253
822.4271, 90.19690
822.9092, 89.84916
823.3914, 90.00240
823.8735, 90.20725
824.3556, 90.37231
824.8377, 90.46794
825.3198, 90.44660
825.8019, 90.31495
826.2841, 90.16940
826.7662, 89.98911
827.2483, 89.84860
827.7304, 89.78127
828.2125, 89.76977
828.6946, 89.84914
829.1768, 89.97011
829.6589, 89.98144
830.1410, 89.79339
830.6231, 89.52541
831.1052, 89.31104
831.5873, 89.15339
832.0695, 89.07887
832.5516, 89.08949
833.0337, 89.09621
833.5158, 89.03801
833.9979, 89.03252
834.4800, 89.31075
834.9622, 89.93764
835.4443, 90.11804
835.9264, 89.45603
836.4085, 88.92907
836.8906, 88.76036
837.3727, 88.74958
837.8549, 88.82364
838.3370, 88.92796
838.8191, 88.89565
839.3012, 88.56947
839.7833, 88.32263
840.2654, 88.46603
840.7476, 88.72044
841.2297, 88.75837
841.7118, 88.62196
842.1939, 88.53167
842.6760, 88.58009
843.1581, 88.65738
843.6403, 88.60125
844.1224, 88.45046
844.6045, 88.41191
845.0866, 88.49056
845.5687, 88.61788
846.0508, 88.79800
846.5330, 88.94453
847.0151, 88.97180
847.4972, 88.88391
847.9793, 88.73045
848.4614, 88.44306
848.9435, 88.19396
849.4257, 88.07320
849.9078, 87.90709
850.3899, 87.45664
850.8720, 86.93501
851.3541, 86.79440
851.8362, 87.18594
852.3184, 87.49525
852.8005, 87.30390
853.2826, 86.95280
853.7647, 86.70586
854.2468, 86.57388
854.7289, 86.56775
855.2111, 86.67628
855.6932, 86.82661
856.1753, 86.97364
856.6574, 87.08576
857.1395, 87.02242
857.6216, 86.78515
858.1038, 86.75565
858.5859, 87.03499
859.0680, 87.32402
859.5501, 87.46745
860.0322, 87.45522
860.5143, 87.24213
860.9965, 86.71531
861.4786, 86.33590
861.9607, 86.16850
862.4428, 86.06184
862.9249, 86.01437
863.4070, 85.97950
863.8892, 85.93030
864.3713, 85.85546
864.8534, 85.70982
865.3355, 85.32738
865.8176, 85.07413
866.2997, 85.34064
866.7819, 85.78407
867.2640, 85.94202
867.7461, 85.83405
868.2282, 85.75786
868.7103, 85.85997
869.1924, 85.95190
869.6746, 85.67547
870.1567, 85.14848
870.6388, 85.03777
871.1209, 85.36284
871.6030, 85.62418
872.0851, 85.66639
872.5673, 85.56039
873.0494, 85.36324
873.5315, 85.08561
874.0136, 84.83352
874.4957, 84.61428
874.9778, 84.40516
875.4600, 84.13738
875.9421, 83.95086
876.4242, 83.92611
876.9063, 84.02353
877.3884, 84.19517
877.8705, 84.44896
878.3527, 84.66526
878.8348, 84.90263
879.3169, 84.98423
879.7990, 84.67082
880.2811, 84.18484
880.7632, 83.73826
881.2454, 83.44040
881.7275, 83.53973
882.2096, 84.34809
882.6917, 85.23875
883.1738, 85.18031
883.6559, 84.44564
884.1381, 83.87448
884.6202, 83.56351
885.1023, 83.53034
885.5844, 83.80830
886.0665, 84.21014
886.5486, 84.46490
887.0308, 84.57202
887.5129, 84.51211
887.9950, 84.17318
888.4771, 83.97978
888.9592, 84.18241
889.4413, 84.37748
889.9235, 84.14510
890.4056, 83.61037
890.8877, 83.27258
891.3698, 83.23503
891.8519, 83.21204
892.3340, 83.11808
892.8162, 83.07458
893.2983, 83.22751
893.7804, 83.43982
894.2625, 83.51285
894.7446, 83.41140
895.2267, 83.23050
895.7089, 82.95014
896.1910, 82.69317
896.6731, 82.59728
897.1552, 82.60718
897.6373, 82.66586
898.1194, 82.73628
898.6016, 82.70828
899.0837, 82.51357
899.5658, 82.25813
900.0479, 82.07060
900.5300, 81.96324
901.0121, 82.10200
901.4943, 82.51606
901.9764, 82.80640
902.4585, 82.82949
902.9406, 82.70804
903.4227, 82.55678
903.9048, 82.37731
904.3870, 82.17699
904.8691, 81.82767
905.3512, 81.72185
905.8333, 82.18156
906.3154, 82.55741
906.7975, 82.45515
907.2797, 82.11291
907.7618, 81.86732
908.2439, 81.74646
908.7260, 81.73534
909.2081, 81.89082
909.6902, 82.08589
910.1724, 82.38912
910.6545, 82.60928
911.1366, 82.45454
911.6187, 82.01217
912.1008, 81.66413
912.5829, 81.59188
913.0651, 81.63713
913.5472, 81.71246
914.0293, 81.77540
914.5114, 81.69502
914.9935, 81.53284
915.4756, 81.55684
915.9578, 81.83974
916.4398, 82.13010
916.9219, 82.17746
917.4041, 82.03970
917.8862, 81.86430
918.3683, 81.64992
918.8504, 81.59219
919.3325, 81.75392
919.8146, 81.87661
920.2968, 81.79371
920.7789, 81.61372
921.2610, 81.54373
921.7431, 81.60732
922.2252, 81.63224
922.7073, 81.61169
923.1895, 81.56273
923.6716, 81.40286
924.1537, 81.29062
924.6358, 81.39110
925.1179, 81.63579
925.6000, 81.80602
926.0822, 81.90608
926.5643, 81.86060
927.0464, 81.50716
927.5285, 81.15356
928.0106, 80.99249
928.4927, 80.94971
928.9749, 80.91118
929.4570, 80.85898
929.9391, 80.84859
930.4212, 80.95358
930.9033, 81.04788
931.3854, 80.95550
931.8676, 80.80631
932.3497, 80.83046
932.8318, 81.00549
933.3139, 81.16517
933.7960, 81.23582
934.2781, 81.24040
934.7603, 81.17700
935.2424, 81.07908
935.7245, 81.06684
936.2066, 81.13353
936.6887, 81.20027
937.1708, 81.25024
937.6530, 81.29160
938.1351, 81.33509
938.6172, 81.36131
939.0993, 81.29221
939.5814, 81.07125
940.0635, 81.10878
940.5457, 81.59807
941.0278, 81.84230
941.5099, 81.40398
941.9920, 80.87997
942.4741, 80.91017
942.9562, 81.43889
943.4384, 81.91177
943.9205, 82.44939
944.4026, 82.74783
944.8847, 82.59017
945.3668, 82.41349
945.8489, 82.47163
946.3311, 82.61913
946.8132, 82.60731
947.2953, 82.41877
947.7774, 82.35365
948.2595, 82.65528
948.7416, 82.93499
949.2238, 82.95717
949.7059, 82.88885
950.1880, 82.87186
950.6701, 82.92147
951.1522, 83.01271
951.6343, 83.13701
952.1165, 83.31738
952.5986, 83.64361
953.0807, 83.98734
953.5628, 84.13089
954.0449, 84.16085
954.5270, 84.30164
955.0092, 84.57764
955.4913, 84.86550
955.9734, 85.09361
956.4555, 85.23129
956.9376, 85.11260
957.4197, 84.83941
957.9019, 85.02383
958.3840, 85.67201
958.8661, 86.28352
959.3482, 86.71642
959.8303, 86.90416
960.3124, 86.71782
960.7946, 86.32216
961.2767, 86.42898
961.7588, 87.18749
962.2409, 87.66660
962.7230, 87.70582
963.2051, 87.76161
963.6873, 88.10351
964.1694, 88.46492
964.6515, 88.45605
965.1336, 88.07732
965.6157, 87.87887
966.0978, 87.96571
966.5800, 88.06838
967.0621, 88.18881
967.5442, 88.29469
968.0263, 88.38577
968.5084, 88.44372
968.9905, 88.40659
969.4727, 88.25649
969.9548, 88.22476
970.4369, 88.55461
970.9190, 88.76431
971.4011, 88.56303
971.8832, 88.25657
972.3654, 88.09584
972.8475, 88.06377
973.3296, 88.07826
973.8117, 88.12874
974.2938, 88.06702
974.7759, 87.62605
975.2581, 87.21614
975.7402, 87.26624
976.2223, 87.54243
976.7044, 87.74712
977.1865, 87.79987
977.6686, 87.62249
978.1508, 87.14246
978.6329, 86.67019
979.1150, 86.61355
979.5971, 86.75365
980.0792, 86.67712
980.5613, 86.43436
981.0435, 86.24295
981.5256, 86.15829
982.0077, 86.12521
982.4898, 86.09924
982.9719, 86.11298
983.4540, 86.28319
983.9362, 86.56310
984.4183, 86.68999
984.9004, 86.64808
985.3825, 86.42758
985.8646, 86.01196
986.3467, 85.54057
986.8289, 85.10730
987.3110, 84.79102
987.7931, 84.99925
988.2752, 85.83524
988.7573, 86.36704
989.2394, 86.49305
989.7216, 86.41187
990.2037, 86.11378
990.6858, 85.83968
991.1679, 85.90447
991.6500, 86.29396
992.1321, 86.74720
992.6143, 87.30489
993.0964, 87.82751
993.5785, 88.26170
994.0606, 88.72049
994.5427, 89.21107
995.0248, 89.78799
995.5070, 90.58416
995.9891, 91.61954
996.4712, 92.54459
996.9533, 93.32450
997.4354, 94.03374
997.9175, 94.64174
998.3997, 95.21986
998.8818, 95.82882
999.3639, 96.43131
999.8460, 96.93519
1000.328, 97.31694
1000.810, 97.79457
1001.292, 98.44524
1001.774, 99.17088
1002.257, 100.1113
1002.739, 100.9529
1003.221, 101.1446
1003.703, 101.0885
1004.185, 101.8065
1004.667, 103.6058
1005.149, 105.1549
1005.631, 105.6199
1006.114, 105.7903
1006.596, 106.0612
1007.078, 106.4521
1007.560, 107.1295
1008.042, 107.9199
1008.524, 108.4006
1009.006, 108.4113
1009.488, 107.9768
1009.970, 107.1124
1010.453, 105.8229
1010.935, 104.0019
1011.417, 101.8018
1011.899, 99.32832
1012.381, 96.72619
1012.863, 94.33201
1013.345, 92.31450
1013.827, 90.54966
1014.310, 88.84840
1014.792, 87.31664
1015.274, 86.14294
1015.756, 85.30874
1016.238, 84.85461
1016.720, 84.71620
1017.202, 84.47374
1017.684, 83.86671
1018.166, 83.10112
1018.649, 82.39394
1019.131, 81.78897
1019.613, 81.53896
1020.095, 81.57787
1020.577, 81.34154
1021.059, 80.71604
1021.541, 80.33544
1022.023, 80.68718
1022.505, 81.26909
1022.988, 81.06927
1023.470, 80.15797
1023.952, 79.40065
1024.434, 78.80183
1024.916, 78.28320
1025.398, 77.80751
1025.880, 77.57908
1026.362, 77.79190
1026.845, 78.24758
1027.327, 78.49731
1027.809, 78.53699
1028.291, 78.38653
1028.773, 77.99735
1029.255, 77.69810
1029.737, 77.59647
1030.219, 77.53909
1030.702, 77.39833
1031.184, 77.21557
1031.666, 77.11405
1032.148, 77.11427
1032.630, 77.08122
1033.112, 77.01064
1033.594, 76.91662
1034.076, 76.79427
1034.558, 76.66108
1035.041, 76.50174
1035.523, 76.36044
1036.005, 76.38914
1036.487, 76.67379
1036.969, 76.82368
1037.451, 76.84661
1037.933, 76.70925
1038.415, 76.26220
1038.897, 75.83210
1039.380, 75.69986
1039.862, 75.79191
1040.344, 75.87837
1040.826, 75.97745
1041.308, 76.01170
1041.790, 75.80395
1042.272, 75.78848
1042.754, 76.39816
1043.237, 76.93851
1043.719, 76.71191
1044.201, 76.00051
1044.683, 75.62696
1045.165, 75.69416
1045.647, 75.83174
1046.129, 76.14274
1046.611, 76.36568
1047.094, 76.45768
1047.576, 76.41360
1048.058, 76.14948
1048.540, 75.75902
1049.022, 75.45803
1049.504, 75.22310
1049.986, 75.23512
1050.468, 75.86186
1050.950, 76.28638
1051.432, 75.99372
1051.915, 75.63163
1052.397, 75.86302
1052.879, 76.41430
1053.361, 76.52248
1053.843, 75.98457
1054.325, 75.58299
1054.807, 75.60670
1055.289, 75.63672
1055.772, 75.47232
1056.254, 75.29848
1056.736, 75.26192
1057.218, 75.33929
1057.700, 75.49461
1058.182, 75.74669
1058.664, 75.82915
1059.146, 75.49538
1059.629, 75.20375
1060.111, 75.07108
1060.593, 75.11527
1061.075, 75.50993
1061.557, 76.03561
1062.039, 76.22876
1062.521, 75.99319
1063.003, 75.79177
1063.485, 75.85278
1063.968, 75.88519
1064.450, 75.62397
1064.932, 75.41263
1065.414, 75.59405
1065.896, 76.01818
1066.378, 76.42570
1066.860, 76.75890
1067.342, 76.92165
1067.824, 76.75401
1068.307, 76.57236
1068.789, 76.52563
1069.271, 76.51005
1069.753, 76.48808
1070.235, 76.41411
1070.717, 76.18397
1071.199, 75.80200
1071.681, 75.50050
1072.164, 75.30471
1072.646, 75.30643
1073.128, 75.68649
1073.610, 76.14201
1074.092, 76.39842
1074.574, 76.58773
1075.056, 77.05468
1075.538, 77.75385
1076.021, 78.05613
1076.503, 77.44558
1076.985, 76.95519
1077.467, 77.11719
1077.949, 77.53867
1078.431, 78.05067
1078.913, 78.56304
1079.395, 79.01893
1079.877, 79.38699
1080.359, 79.55888
1080.842, 79.36683
1081.324, 79.34903
1081.806, 79.94813
1082.288, 80.59983
1082.770, 80.81978
1083.252, 80.94277
1083.734, 81.44832
1084.216, 82.27834
1084.698, 83.00050
1085.181, 83.43909
1085.663, 83.99786
1086.145, 85.08545
1086.627, 86.08695
1087.109, 86.56593
1087.591, 86.81393
1088.073, 87.03040
1088.555, 87.32005
1089.038, 87.87180
1089.520, 88.75954
1090.002, 89.64352
1090.484, 90.43996
1090.966, 91.12810
1091.448, 91.59968
1091.930, 92.03942
1092.412, 92.60732
1092.895, 93.27898
1093.377, 94.00013
1093.859, 94.76156
1094.341, 95.42013
1094.823, 95.90254
1095.305, 96.30637
1095.787, 96.59400
1096.269, 96.89271
1096.751, 97.44485
1097.234, 98.00333
1097.716, 98.10490
1098.198, 97.73067
1098.680, 97.42472
1099.162, 97.41160
1099.644, 97.38659
1100.126, 97.37501
1100.608, 97.19205
1101.090, 96.63857
1101.573, 95.90561
1102.055, 95.24129
1102.537, 94.63747
1103.019, 93.88412
1103.501, 92.87873
1103.983, 91.86670
1104.465, 90.83084
1104.947, 89.87767
1105.430, 89.16792
1105.912, 88.47045
1106.394, 87.57558
1106.876, 86.49607
1107.358, 85.29144
1107.840, 83.85407
1108.322, 82.73805
1108.804, 82.23255
1109.286, 81.77981
1109.769, 81.24478
1110.251, 80.67731
1110.733, 80.05117
1111.215, 79.44791
1111.697, 79.10997
1112.179, 79.13358
1112.661, 78.73875
1113.143, 77.18256
1113.625, 76.22433
1114.108, 76.59588
1114.590, 77.08501
1115.072, 77.08104
1115.554, 76.79568
1116.036, 76.48450
1116.518, 76.14826
1117.000, 75.86791
1117.482, 75.58694
1117.965, 75.47377
1118.447, 75.83189
1118.929, 75.89182
1119.411, 75.08187
1119.893, 74.18232
1120.375, 74.07137
1120.857, 74.52156
1121.339, 74.50986
1121.822, 73.76083
1122.304, 73.44297
1122.786, 73.79221
1123.268, 74.02689
1123.750, 73.89834
1124.232, 73.69206
1124.714, 73.58761
1125.196, 73.59013
1125.678, 73.75111
1126.161, 74.10057
1126.643, 74.10618
1127.125, 73.64713
1127.607, 73.34199
1128.089, 73.29888
1128.571, 73.38283
1129.053, 73.52478
1129.535, 73.75772
1130.017, 74.16125
1130.500, 74.68186
1130.982, 74.99799
1131.464, 75.11189
1131.946, 74.86992
1132.428, 74.20908
1132.910, 73.81419
1133.392, 73.95226
1133.874, 74.35238
1134.357, 74.80555
1134.839, 75.22012
1135.321, 75.31288
1135.803, 75.12844
1136.285, 75.13825
1136.767, 75.33559
1137.249, 75.43837
1137.731, 75.38737
1138.214, 75.38528
1138.696, 75.56235
1139.178, 75.79383
1139.660, 75.90547
1140.142, 75.92828
1140.624, 75.91004
1141.106, 75.88535
1141.588, 76.01457
1142.070, 76.28179
1142.552, 76.49196
1143.035, 76.57068
1143.517, 76.62585
1143.999, 76.76324
1144.481, 76.91406
1144.963, 76.92481
1145.445, 76.90318
1145.927, 77.08060
1146.409, 77.39275
1146.892, 77.65821
1147.374, 77.82857
1147.856, 77.91248
1148.338, 77.89143
1148.820, 77.90824
1149.302, 78.24036
1149.784, 78.52989
1150.266, 78.21595
1150.749, 77.72811
1151.231, 77.81171
1151.713, 78.31383
1152.195, 78.52970
1152.677, 78.24062
1153.159, 77.92589
1153.641, 77.78709
1154.123, 77.76759
1154.605, 78.01494
1155.088, 78.19819
1155.570, 77.89095
1156.052, 77.39954
1156.534, 77.32280
1157.016, 77.64780
1157.498, 77.64117
1157.980, 76.92113
1158.462, 76.26420
1158.944, 75.79736
1159.427, 75.50352
1159.909, 75.53791
1160.391, 75.59897
1160.873, 75.37296
1161.355, 74.94835
1161.837, 74.61083
1162.319, 74.38691
1162.801, 74.18365
1163.284, 73.97146
1163.766, 73.82381
1164.248, 73.77328
1164.730, 73.76482
1165.212, 73.85388
1165.694, 73.86819
1166.176, 73.50780
1166.658, 72.83895
1167.141, 72.50095
1167.623, 72.60163
1168.105, 72.59568
1168.587, 72.44691
1169.069, 72.23235
1169.551, 71.95684
1170.033, 71.70546
1170.515, 71.55064
1170.997, 71.44427
1171.479, 71.23964
1171.962, 70.96513
1172.444, 71.09232
1172.926, 71.58754
1173.408, 71.56304
1173.890, 70.91306
1174.372, 70.56648
1174.854, 70.95408
1175.336, 71.44616
1175.819, 71.35646
1176.301, 70.96126
1176.783, 70.83611
1177.265, 70.85300
1177.747, 70.60085
1178.229, 70.18069
1178.711, 70.09040
1179.193, 70.36036
1179.676, 70.45649
1180.158, 70.05653
1180.640, 69.58220
1181.122, 69.38671
1181.604, 69.37331
1182.086, 69.46142
1182.568, 69.64436
1183.050, 70.03073
1183.532, 70.47655
1184.015, 70.64227
1184.497, 70.45772
1184.979, 70.19316
1185.461, 69.89555
1185.943, 69.67619
1186.425, 69.72673
1186.907, 69.71571
1187.389, 69.28794
1187.871, 68.77544
1188.354, 68.56123
1188.836, 68.62740
1189.318, 68.82118
1189.800, 69.20358
1190.282, 69.40285
1190.764, 69.21748
1191.246, 69.08664
1191.728, 69.13647
1192.211, 69.19895
1192.693, 69.17721
1193.175, 69.12491
1193.657, 69.12933
1194.139, 69.17503
1194.621, 69.10661
1195.103, 68.87369
1195.585, 68.74734
1196.068, 68.75384
1196.550, 68.80781
1197.032, 68.90726
1197.514, 68.91421
1197.996, 68.71190
1198.478, 68.42399
1198.960, 68.26192
1199.442, 68.20898
1199.924, 68.18639
1200.406, 68.18806
1200.889, 68.19095
1201.371, 68.18203
1201.853, 68.05798
1202.335, 67.80010
1202.817, 67.66205
1203.299, 67.88578
1203.781, 68.18198
1204.263, 68.14731
1204.746, 67.95404
1205.228, 67.79055
1205.710, 67.70418
1206.192, 67.83880
1206.674, 68.10870
1207.156, 68.19577
1207.638, 67.99193
1208.120, 67.75127
1208.603, 67.51260
1209.085, 67.41565
1209.567, 67.70045
1210.049, 67.98156
1210.531, 67.93820
1211.013, 67.72169
1211.495, 67.50581
1211.977, 67.32751
1212.459, 67.26937
1212.942, 67.44923
1213.424, 67.43559
1213.906, 66.89233
1214.388, 66.62748
1214.870, 67.08857
1215.352, 67.39250
1215.834, 66.85391
1216.316, 66.12039
1216.798, 66.15974
1217.281, 66.83931
1217.763, 67.18209
1218.245, 67.16386
1218.727, 66.98520
1219.209, 66.63777
1219.691, 66.36586
1220.173, 66.23882
1220.655, 66.17872
1221.138, 66.13571
1221.620, 66.12657
1222.102, 66.21546
1222.584, 66.32591
1223.066, 66.19572
1223.548, 65.93813
1224.030, 65.86335
1224.512, 65.95953
1224.995, 66.08697
1225.477, 66.19772
1225.959, 66.29012
1226.441, 66.37539
1226.923, 66.38809
1227.405, 66.20615
1227.887, 66.00562
1228.369, 65.94450
1228.851, 65.93644
1229.333, 65.83544
1229.816, 65.72029
1230.298, 65.83074
1230.780, 66.18645
1231.262, 66.36156
1231.744, 66.18295
1232.226, 65.94202
1232.708, 65.55494
1233.190, 65.27833
1233.673, 65.21714
1234.155, 65.27505
1234.637, 65.43564
1235.119, 65.61393
1235.601, 65.62143
1236.083, 65.45831
1236.565, 65.27259
1237.047, 65.02616
1237.530, 65.14123
1238.012, 65.69960
1238.494, 66.01814
1238.976, 65.84549
1239.458, 65.61893
1239.940, 65.70619
1240.422, 65.84771
1240.904, 65.48833
1241.386, 64.91595
1241.869, 64.86051
1242.351, 65.16446
1242.833, 65.54969
1243.315, 65.89266
1243.797, 65.97472
1244.279, 65.74970
1244.761, 65.39265
1245.243, 64.88062
1245.725, 64.57403
1246.208, 64.89711
1246.690, 65.28683
1247.172, 65.32291
1247.654, 65.24281
1248.136, 65.35781
1248.618, 65.55023
1249.100, 65.46402
1249.582, 65.04318
1250.065, 64.81358
1250.547, 64.92463
1251.029, 64.99788
1251.511, 64.99156
1251.993, 65.00047
1252.475, 65.05462
1252.957, 65.13817
1253.439, 65.25208
1253.922, 65.35847
1254.404, 65.39377
1254.886, 65.35429
1255.368, 65.17238
1255.850, 64.87505
1256.332, 64.69955
1256.814, 64.66386
1257.296, 64.71986
1257.778, 64.84600
1258.260, 65.02574
1258.743, 65.26543
1259.225, 65.41930
1259.707, 65.27536
1260.189, 65.02176
1260.671, 64.79996
1261.153, 64.64557
1261.635, 64.64625
1262.117, 64.72486
1262.600, 64.71723
1263.082, 64.61424
1263.564, 64.55869
1264.046, 64.58959
1264.528, 64.66398
1265.010, 64.86100
1265.492, 64.97352
1265.974, 64.83104
1266.457, 64.74020
1266.939, 64.94768
1267.421, 65.21616
1267.903, 65.19624
1268.385, 64.95179
1268.867, 64.84879
1269.349, 64.89565
1269.831, 64.90611
1270.313, 64.87505
1270.796, 64.86467
1271.278, 64.88230
1271.760, 64.80315
1272.242, 64.56443
1272.724, 64.32506
1273.206, 64.25094
1273.688, 64.25051
1274.170, 64.17968
1274.652, 64.11693
1275.135, 64.17470
1275.617, 64.31808
1276.099, 64.53617
1276.581, 64.76450
1277.063, 64.82484
1277.545, 64.66354
1278.027, 64.50910
1278.509, 64.44466
1278.992, 64.37498
1279.474, 64.28254
1279.956, 64.17355
1280.438, 64.01132
1280.920, 63.88745
1281.402, 63.90649
1281.884, 63.98924
1282.366, 63.95638
1282.849, 63.81201
1283.331, 63.66118
1283.813, 63.50206
1284.295, 63.56475
1284.777, 63.85477
1285.259, 64.07980
1285.741, 64.15016
1286.223, 64.14388
1286.705, 64.11440
1287.188, 64.06348
##END=



