##NAMES=Argentopyrite
##RRUFFID=R090027
##IDEAL CHEMISTRY=Ag^1+^Fe_2_S^2-^_3_
##LOCALITY=Jáchymov, Ostrov, Krušné Hory Mts, Karlovy Vary Region, Bohemia, Czech Republic
##OWNER=RRUFF
##SOURCE=Mark N. Feinglos
##DESCRIPTION=Bronze and blue tarnished rectangular prism.  Co-type specimen. Twinned.
##STATUS=The identification of this mineral is confirmed by single-crystal X-ray diffraction and chemical analysis.
##URL=rruff.info/R090027
##MEASURED CHEMISTRY=Ag_0.97_Fe_1.99_S_3_
90.92609, 0.0000000E+00
91.40820, 12.84801
91.89032, 12.48213
92.37244, 12.82998
92.85455, 13.73291
93.33667, 14.24414
93.81879, 13.33076
94.30090, 11.43607
94.78302, 9.808538
95.26514, 8.579936
95.74725, 7.905084
96.22937, 8.421732
96.71149, 10.21093
97.19360, 12.21749
97.67572, 13.61374
98.15784, 14.37753
98.63995, 14.50953
99.12207, 13.76827
99.60419, 12.29284
100.0863, 11.27397
100.5684, 10.77900
101.0505, 10.60513
101.5327, 10.55212
102.0148, 10.68904
102.4969, 10.71234
102.9790, 10.48003
103.4611, 9.925877
103.9432, 9.453210
104.4253, 8.915440
104.9075, 8.542892
105.3896, 8.905233
105.8717, 10.76042
106.3538, 12.32522
106.8359, 12.86460
107.3180, 11.36671
107.8002, 10.60593
108.2823, 11.06742
108.7644, 12.35676
109.2465, 13.04046
109.7286, 12.82826
110.2107, 12.20472
110.6929, 11.37309
111.1750, 9.524364
111.6571, 8.380611
112.1392, 8.409867
112.6213, 9.453416
113.1034, 10.27240
113.5856, 10.53368
114.0677, 10.58615
114.5498, 10.67792
115.0319, 10.78904
115.5140, 11.01380
115.9961, 11.36026
116.4783, 11.83011
116.9604, 12.47154
117.4425, 13.56799
117.9246, 14.77288
118.4067, 15.69463
118.8888, 15.91820
119.3710, 16.03581
119.8531, 16.33687
120.3352, 16.83554
120.8173, 17.55056
121.2994, 18.70948
121.7815, 20.07801
122.2637, 21.25338
122.7458, 21.77808
123.2279, 22.13443
123.7100, 22.92116
124.1921, 24.34449
124.6742, 25.59799
125.1564, 25.63991
125.6385, 24.81168
126.1206, 24.19249
126.6027, 24.60387
127.0848, 25.62281
127.5669, 26.49169
128.0491, 27.03571
128.5312, 27.52550
129.0133, 28.31080
129.4954, 29.37638
129.9775, 30.64682
130.4596, 32.42752
130.9418, 34.45679
131.4239, 35.72441
131.9060, 35.87877
132.3881, 35.31366
132.8702, 34.85709
133.3523, 34.50506
133.8345, 34.27633
134.3166, 34.25227
134.7987, 34.43031
135.2808, 34.48431
135.7629, 34.16305
136.2450, 33.66811
136.7272, 34.11608
137.2093, 35.69649
137.6914, 37.63728
138.1735, 39.20557
138.6556, 40.36721
139.1377, 41.30292
139.6199, 42.21272
140.1020, 43.08584
140.5841, 42.80225
141.0662, 40.88572
141.5483, 38.45834
142.0304, 36.87674
142.5126, 36.23214
142.9947, 36.25978
143.4768, 36.91831
143.9589, 38.28699
144.4410, 39.42816
144.9231, 40.35551
145.4053, 41.07249
145.8874, 41.58771
146.3695, 41.82959
146.8516, 41.98264
147.3337, 42.15960
147.8158, 42.61200
148.2980, 42.44317
148.7801, 40.91126
149.2622, 38.89079
149.7443, 38.18653
150.2264, 40.17205
150.7085, 42.20703
151.1907, 43.35878
151.6728, 42.87524
152.1549, 42.84143
152.6370, 43.69149
153.1191, 45.03704
153.6012, 45.89674
154.0834, 46.04652
154.5655, 45.82196
155.0476, 45.35042
155.5297, 44.46894
156.0118, 43.59364
156.4939, 42.47255
156.9761, 41.31788
157.4582, 40.89465
157.9403, 42.16564
158.4224, 43.69452
158.9045, 44.64747
159.3866, 44.52283
159.8688, 44.19405
160.3509, 43.55022
160.8330, 42.75898
161.3151, 42.61701
161.7972, 44.43727
162.2793, 46.48095
162.7615, 47.41213
163.2436, 45.59912
163.7257, 43.81104
164.2078, 43.33293
164.6899, 44.00291
165.1720, 44.69715
165.6541, 44.83881
166.1363, 44.74850
166.6184, 44.74242
167.1005, 44.88135
167.5826, 45.16931
168.0647, 45.69087
168.5468, 46.42546
169.0290, 47.11040
169.5111, 47.65692
169.9932, 48.04112
170.4753, 48.23157
170.9574, 48.21943
171.4395, 48.00744
171.9217, 47.55806
172.4038, 46.87364
172.8859, 46.08947
173.3680, 45.24458
173.8501, 44.37957
174.3322, 43.54950
174.8144, 42.61471
175.2965, 41.79604
175.7786, 41.47576
176.2607, 41.66814
176.7428, 41.93211
177.2249, 41.90358
177.7071, 41.64220
178.1892, 41.29356
178.6713, 40.69728
179.1534, 40.11664
179.6355, 40.04729
180.1176, 40.53727
180.5998, 41.21162
181.0819, 41.83933
181.5640, 42.36553
182.0461, 42.61502
182.5282, 42.16691
183.0103, 41.40847
183.4925, 41.37143
183.9746, 42.20717
184.4567, 43.18010
184.9388, 43.32157
185.4209, 42.74581
185.9030, 42.13250
186.3852, 41.80255
186.8673, 41.69653
187.3494, 41.58709
187.8315, 41.45300
188.3136, 41.36194
188.7957, 41.48517
189.2779, 41.79972
189.7600, 41.99489
190.2421, 40.89915
190.7242, 42.07835
191.2063, 42.74347
191.6884, 42.92216
192.1706, 41.15746
192.6527, 41.90224
193.1348, 41.64134
193.6169, 41.33920
194.0990, 42.43717
194.5811, 40.95514
195.0633, 42.03091
195.5454, 42.08566
196.0275, 42.60770
196.5096, 42.11784
196.9917, 41.94054
197.4738, 42.77545
197.9560, 43.04988
198.4381, 42.44355
198.9202, 42.99529
199.4023, 41.47791
199.8844, 41.77622
200.3665, 42.85791
200.8487, 42.12913
201.3308, 42.18491
201.8129, 41.78163
202.2950, 40.84492
202.7771, 40.49445
203.2592, 40.94111
203.7414, 41.80247
204.2235, 42.25798
204.7056, 42.23825
205.1877, 42.06702
205.6698, 41.84431
206.1519, 41.53265
206.6341, 41.43284
207.1162, 41.62123
207.5983, 41.96662
208.0804, 42.17281
208.5625, 42.20686
209.0446, 42.19693
209.5268, 42.22839
210.0089, 42.34253
210.4910, 42.27943
210.9731, 41.95186
211.4552, 41.49866
211.9373, 41.23348
212.4195, 41.14911
212.9016, 41.26802
213.3837, 41.63583
213.8658, 42.32410
214.3479, 43.04698
214.8300, 43.93766
215.3121, 44.78756
215.7943, 44.96906
216.2764, 44.10012
216.7585, 43.36250
217.2406, 43.41773
217.7227, 44.71137
218.2048, 45.29967
218.6870, 44.84764
219.1691, 43.84365
219.6512, 43.46511
220.1333, 44.01599
220.6154, 44.63110
221.0975, 44.89303
221.5797, 44.54860
222.0618, 44.61374
222.5439, 45.29452
223.0260, 46.28758
223.5081, 46.96049
223.9902, 47.33842
224.4724, 47.34349
224.9545, 46.84536
225.4366, 45.51275
225.9187, 44.61477
226.4008, 44.20148
226.8829, 44.19240
227.3651, 44.42554
227.8472, 44.95788
228.3293, 45.64809
228.8114, 46.55950
229.2935, 48.00969
229.7757, 48.63440
230.2578, 47.97346
230.7399, 46.70490
231.2220, 46.20763
231.7041, 46.98010
232.1862, 47.72864
232.6684, 47.92970
233.1505, 47.29982
233.6326, 47.05468
234.1147, 47.36207
234.5968, 47.96291
235.0789, 48.38894
235.5611, 48.59222
236.0432, 48.69533
236.5253, 48.68881
237.0074, 48.47011
237.4895, 48.55143
237.9716, 49.16275
238.4538, 49.93433
238.9359, 50.21390
239.4180, 49.57466
239.9001, 49.15076
240.3822, 49.40708
240.8643, 50.59953
241.3465, 51.22449
241.8286, 50.91828
242.3107, 50.30089
242.7928, 50.28849
243.2749, 51.24537
243.7570, 52.17462
244.2392, 52.75478
244.7213, 52.88655
245.2034, 53.30466
245.6855, 54.15946
246.1676, 55.17800
246.6497, 55.99377
247.1319, 56.41246
247.6140, 56.98108
248.0961, 57.81951
248.5782, 58.93889
249.0603, 60.31422
249.5424, 62.16624
250.0246, 64.07719
250.5067, 65.57221
250.9888, 66.38305
251.4709, 67.31818
251.9530, 68.65038
252.4351, 70.42764
252.9173, 71.76031
253.3994, 72.54017
253.8815, 73.02607
254.3636, 73.55666
254.8457, 74.50362
255.3278, 74.61974
255.8100, 73.37292
256.2921, 70.80750
256.7742, 69.00464
257.2563, 68.29185
257.7384, 67.90229
258.2205, 67.18475
258.7026, 65.95375
259.1848, 64.85507
259.6669, 64.03396
260.1490, 63.44875
260.6311, 62.78282
261.1132, 61.97060
261.5953, 61.18878
262.0775, 60.56329
262.5596, 60.07723
263.0417, 59.81915
263.5238, 59.96603
264.0059, 60.35153
264.4880, 60.03596
264.9702, 58.60227
265.4523, 57.28118
265.9344, 56.93801
266.4165, 57.86158
266.8986, 58.73118
267.3807, 59.55479
267.8629, 60.21963
268.3450, 60.28587
268.8271, 59.53736
269.3092, 58.72549
269.7913, 58.33349
270.2734, 58.52940
270.7556, 58.31524
271.2377, 57.55396
271.7198, 56.43174
272.2019, 55.33407
272.6840, 54.23985
273.1661, 53.24501
273.6483, 52.45396
274.1304, 51.91618
274.6125, 51.16282
275.0946, 50.09914
275.5767, 48.94169
276.0588, 48.08492
276.5410, 47.56942
277.0231, 47.14690
277.5052, 46.75428
277.9873, 46.39034
278.4694, 45.88319
278.9515, 45.10625
279.4337, 44.45333
279.9158, 44.60157
280.3979, 45.62649
280.8800, 46.65429
281.3621, 47.45795
281.8442, 48.02174
282.3264, 47.97187
282.8085, 47.13017
283.2906, 46.29180
283.7727, 46.39861
284.2548, 47.45702
284.7369, 48.85147
285.2191, 50.60318
285.7012, 52.52740
286.1833, 53.82539
286.6654, 54.42135
287.1475, 54.90397
287.6296, 55.80551
288.1118, 57.10174
288.5939, 58.54856
289.0760, 60.18150
289.5581, 61.85867
290.0402, 63.14964
290.5223, 64.04292
291.0045, 65.05473
291.4866, 66.84825
291.9687, 69.20237
292.4508, 71.04588
292.9329, 72.13663
293.4150, 72.72106
293.8972, 72.95415
294.3793, 72.90327
294.8614, 73.35889
295.3435, 75.08794
295.8256, 77.73708
296.3077, 80.33101
296.7899, 82.71030
297.2720, 85.06661
297.7541, 87.67382
298.2362, 90.46304
298.7183, 93.18335
299.2004, 95.50772
299.6826, 97.69402
300.1647, 100.3614
300.6468, 103.6017
301.1289, 106.9206
301.6110, 109.7702
302.0931, 112.2933
302.5753, 114.9565
303.0574, 118.3739
303.5395, 121.8581
304.0216, 124.5251
304.5037, 126.3771
304.9858, 127.4773
305.4680, 128.0764
305.9501, 127.9473
306.4322, 126.6974
306.9143, 123.7333
307.3964, 119.9210
307.8785, 115.8894
308.3607, 111.6560
308.8428, 107.2306
309.3249, 102.3764
309.8070, 97.41818
310.2891, 92.72359
310.7712, 88.14340
311.2534, 84.09705
311.7355, 80.99686
312.2176, 78.68609
312.6997, 76.69161
313.1818, 74.86645
313.6639, 73.21419
314.1461, 71.77753
314.6282, 70.73454
315.1103, 69.56252
315.5924, 67.72301
316.0745, 65.57322
316.5566, 63.82904
317.0388, 62.79966
317.5209, 62.26896
318.0030, 62.32646
318.4851, 63.25745
318.9672, 63.62260
319.4493, 62.20979
319.9315, 60.13818
320.4136, 58.87479
320.8957, 59.53920
321.3778, 60.45533
321.8599, 61.02075
322.3420, 61.16549
322.8242, 61.37906
323.3063, 61.70538
323.7884, 62.17181
324.2705, 62.80222
324.7526, 63.74070
325.2347, 64.70221
325.7169, 65.72009
326.1990, 66.77524
326.6811, 67.51888
327.1632, 67.75437
327.6453, 67.78967
328.1274, 67.79446
328.6096, 67.76635
329.0917, 67.72046
329.5738, 67.86101
330.0559, 68.00777
330.5380, 67.54253
331.0201, 65.88430
331.5023, 64.24723
331.9844, 63.17852
332.4665, 63.14245
332.9486, 62.52227
333.4307, 60.97060
333.9128, 59.01735
334.3950, 57.60700
334.8771, 56.93951
335.3592, 56.41435
335.8413, 55.83046
336.3234, 55.15162
336.8055, 54.81313
337.2877, 55.05194
337.7698, 55.30717
338.2519, 54.86279
338.7340, 53.49922
339.2161, 52.33696
339.6982, 51.77246
340.1803, 51.63049
340.6624, 50.74625
341.1446, 48.90521
341.6267, 46.99726
342.1088, 45.67023
342.5909, 44.94944
343.0730, 44.37511
343.5551, 43.90196
344.0373, 43.53074
344.5194, 43.33881
345.0015, 43.33610
345.4836, 43.26290
345.9657, 42.96350
346.4478, 42.45868
346.9300, 41.82191
347.4121, 41.01595
347.8942, 40.21154
348.3763, 39.53690
348.8584, 39.02113
349.3405, 38.81043
349.8227, 39.11203
350.3048, 39.73510
350.7869, 40.30554
351.2690, 40.82148
351.7511, 41.29966
352.2332, 41.78840
352.7154, 42.24479
353.1975, 42.56623
353.6796, 42.64315
354.1617, 42.65052
354.6438, 42.92315
355.1259, 43.37090
355.6081, 43.51354
356.0902, 42.56374
356.5723, 41.33215
357.0544, 40.80479
357.5365, 41.39197
358.0186, 42.21021
358.5008, 42.79766
358.9829, 43.17051
359.4650, 43.36436
359.9471, 43.09153
360.4292, 42.86485
360.9113, 43.04211
361.3935, 43.69656
361.8756, 44.45807
362.3577, 45.12671
362.8398, 45.83964
363.3219, 46.75283
363.8040, 48.44715
364.2862, 49.82547
364.7683, 50.38489
365.2504, 50.16447
365.7325, 50.02137
366.2146, 50.13751
366.6967, 50.37828
367.1789, 50.66008
367.6610, 50.65418
368.1431, 51.07042
368.6252, 52.10194
369.1073, 53.61872
369.5894, 55.17810
370.0716, 56.97765
370.5537, 58.62954
371.0358, 60.00550
371.5179, 61.05622
372.0000, 61.96273
372.4821, 62.56230
372.9643, 63.11982
373.4464, 64.02262
373.9285, 65.45494
374.4106, 66.82983
374.8927, 68.03539
375.3748, 69.07583
375.8570, 70.08135
376.3391, 71.30910
376.8212, 71.98093
377.3033, 71.24028
377.7854, 68.87833
378.2675, 66.67535
378.7497, 64.88271
379.2318, 63.35938
379.7139, 61.68677
380.1960, 59.86591
380.6781, 58.05719
381.1602, 56.24581
381.6424, 54.49317
382.1245, 53.22841
382.6066, 52.49646
383.0887, 51.18781
383.5708, 51.68312
384.0529, 51.63327
384.5351, 51.06571
385.0172, 48.52381
385.4993, 48.46035
385.9814, 47.36007
386.4635, 46.18751
386.9456, 46.38400
387.4278, 43.96914
387.9099, 44.08117
388.3920, 43.14116
388.8741, 42.63729
389.3562, 41.09050
389.8383, 39.82517
390.3205, 39.54069
390.8026, 38.66486
391.2847, 36.95015
391.7668, 36.58776
392.2489, 36.18066
392.7310, 35.71513
393.2132, 35.12564
393.6953, 34.19912
394.1774, 33.19622
394.6595, 32.42634
395.1416, 32.25523
395.6237, 32.08195
396.1059, 31.59665
396.5880, 30.82859
397.0701, 30.32102
397.5522, 30.52708
398.0343, 30.80256
398.5164, 30.76671
398.9986, 30.13370
399.4807, 29.51592
399.9628, 28.80297
400.4449, 28.12534
400.9270, 27.81266
401.4091, 28.25849
401.8913, 28.55753
402.3734, 28.31990
402.8555, 27.36648
403.3376, 26.93069
403.8197, 27.25461
404.3018, 27.81281
404.7840, 28.03463
405.2661, 27.83265
405.7482, 27.59510
406.2303, 27.39672
406.7124, 27.21751
407.1945, 26.92850
407.6767, 26.49389
408.1588, 26.12461
408.6409, 25.90902
409.1230, 25.85774
409.6051, 26.23461
410.0872, 27.22163
410.5694, 28.18385
411.0515, 27.96000
411.5336, 26.73031
412.0157, 25.61182
412.4978, 25.09917
412.9799, 25.03022
413.4621, 25.15462
413.9442, 25.46948
414.4263, 25.79047
414.9084, 26.04833
415.3905, 26.19720
415.8727, 26.11657
416.3548, 25.57163
416.8369, 25.13223
417.3190, 25.49448
417.8011, 26.36959
418.2832, 26.99604
418.7654, 26.84286
419.2475, 26.40755
419.7296, 25.99981
420.2117, 25.64902
420.6938, 25.33276
421.1759, 24.90411
421.6581, 24.56027
422.1402, 24.50684
422.6223, 25.20415
423.1044, 25.76543
423.5865, 25.81277
424.0686, 25.43951
424.5508, 25.39236
425.0329, 26.29059
425.5150, 27.08087
425.9971, 27.24990
426.4792, 26.34121
426.9613, 25.77268
427.4435, 25.76283
427.9256, 25.97654
428.4077, 25.82288
428.8898, 24.99617
429.3719, 24.50064
429.8540, 24.74694
430.3362, 25.65563
430.8183, 26.02608
431.3004, 25.72011
431.7825, 25.26341
432.2646, 25.15411
432.7467, 25.39443
433.2289, 25.33021
433.7110, 24.76212
434.1931, 24.04928
434.6752, 23.84290
435.1573, 24.11767
435.6394, 24.59921
436.1216, 25.43389
436.6036, 26.32613
437.0858, 26.44818
437.5679, 25.76755
438.0500, 25.07227
438.5321, 25.39859
439.0142, 26.11931
439.4963, 26.08932
439.9785, 24.39697
440.4606, 22.64332
440.9427, 22.25669
441.4248, 22.89191
441.9069, 23.54075
442.3890, 23.64705
442.8712, 23.65521
443.3533, 23.89865
443.8354, 24.48899
444.3175, 24.93668
444.7996, 24.91691
445.2817, 24.73619
445.7639, 24.71474
446.2460, 25.27824
446.7281, 25.60005
447.2102, 25.31815
447.6923, 24.55453
448.1744, 24.20852
448.6566, 24.70883
449.1387, 25.17626
449.6208, 25.19136
450.1029, 24.55170
450.5850, 24.04649
451.0671, 23.62768
451.5493, 23.39779
452.0314, 23.58600
452.5135, 24.31080
452.9956, 24.93039
453.4777, 25.25535
453.9598, 25.34373
454.4420, 25.53544
454.9241, 25.87101
455.4062, 25.92800
455.8883, 25.02432
456.3704, 23.47345
456.8525, 22.86452
457.3347, 23.54471
457.8168, 24.54058
458.2989, 24.57143
458.7810, 23.91098
459.2631, 23.36556
459.7452, 23.36496
460.2274, 23.60771
460.7095, 23.85325
461.1916, 24.08543
461.6737, 24.14999
462.1558, 23.75049
462.6379, 23.24996
463.1201, 22.98252
463.6022, 23.05686
464.0843, 23.25897
464.5664, 23.66314
465.0485, 24.10805
465.5306, 24.33638
466.0128, 23.92919
466.4949, 23.65315
466.9770, 23.95660
467.4591, 24.87913
467.9412, 25.09881
468.4233, 23.76573
468.9055, 22.44409
469.3876, 22.11354
469.8697, 23.59408
470.3518, 24.21718
470.8339, 23.56268
471.3160, 22.28758
471.7982, 21.62852
472.2803, 21.71066
472.7624, 21.90519
473.2445, 21.98393
473.7266, 21.99448
474.2087, 22.30636
474.6909, 22.96280
475.1730, 23.54133
475.6551, 23.66788
476.1372, 23.40320
476.6193, 22.89663
477.1014, 22.05098
477.5836, 21.35946
478.0657, 21.68179
478.5478, 22.69795
479.0299, 23.48232
479.5120, 23.51153
479.9941, 23.17892
480.4763, 22.71044
480.9584, 22.14256
481.4405, 21.77577
481.9226, 21.97963
482.4047, 22.33402
482.8868, 22.48740
483.3690, 22.26302
483.8511, 22.05624
484.3332, 21.95761
484.8153, 21.95096
485.2974, 22.00770
485.7795, 22.44115
486.2617, 22.59255
486.7438, 22.10590
487.2259, 21.00153
487.7080, 20.54313
488.1901, 21.05843
488.6722, 21.78754
489.1544, 22.30812
489.6365, 22.59529
490.1186, 22.75970
490.6007, 22.81816
491.0828, 22.73449
491.5649, 22.36332
492.0471, 21.68888
492.5292, 21.15057
493.0113, 20.90654
493.4934, 20.89551
493.9755, 20.95166
494.4576, 21.07673
494.9398, 21.32694
495.4219, 21.97125
495.9040, 22.71738
496.3861, 22.98785
496.8682, 22.68190
497.3503, 22.11935
497.8325, 21.32935
498.3146, 20.50722
498.7967, 19.93987
499.2788, 19.90415
499.7609, 20.00460
500.2430, 19.95825
500.7252, 19.85065
501.2073, 20.06890
501.6894, 21.36839
502.1715, 22.49947
502.6536, 22.78742
503.1357, 21.77047
503.6179, 21.05748
504.1000, 20.74144
504.5821, 20.71272
505.0642, 20.91021
505.5463, 21.53401
506.0284, 21.93653
506.5106, 21.99036
506.9927, 21.76812
507.4748, 21.45386
507.9569, 21.00459
508.4390, 20.67021
508.9211, 20.67921
509.4033, 20.96570
509.8854, 20.91550
510.3675, 20.49074
510.8496, 20.04835
511.3317, 20.02975
511.8138, 20.27584
512.2960, 20.33739
512.7781, 20.04724
513.2602, 19.68249
513.7423, 19.45547
514.2244, 19.37683
514.7065, 19.47253
515.1887, 19.80485
515.6708, 20.27819
516.1529, 20.95342
516.6350, 21.81447
517.1171, 22.39476
517.5992, 22.45309
518.0814, 22.22273
518.5635, 21.81501
519.0456, 20.82073
519.5277, 20.36306
520.0098, 20.93906
520.4919, 21.88744
520.9741, 22.21366
521.4562, 21.63590
521.9383, 20.97844
522.4204, 20.33659
522.9025, 19.75226
523.3846, 19.57572
523.8668, 19.91142
524.3489, 20.21942
524.8310, 20.05506
525.3131, 19.49853
525.7952, 19.29057
526.2773, 19.49672
526.7595, 19.84283
527.2416, 20.02432
527.7237, 20.09711
528.2058, 20.22684
528.6879, 20.56363
529.1700, 20.82941
529.6522, 20.54711
530.1343, 19.94034
530.6164, 19.64983
531.0985, 20.54892
531.5806, 21.43114
532.0627, 21.38589
532.5449, 20.28695
533.0270, 19.46735
533.5091, 19.34140
533.9912, 19.59915
534.4733, 20.03292
534.9554, 21.08415
535.4376, 21.66072
535.9197, 21.57215
536.4018, 21.09976
536.8839, 20.68474
537.3660, 20.24863
537.8481, 20.08797
538.3303, 20.37035
538.8124, 20.99132
539.2945, 21.47271
539.7766, 21.83849
540.2587, 21.86298
540.7408, 21.00488
541.2230, 19.62575
541.7051, 19.27290
542.1872, 20.15854
542.6693, 21.19275
543.1514, 21.23961
543.6335, 20.67509
544.1157, 20.18332
544.5978, 19.92372
545.0799, 19.87260
545.5620, 20.21764
546.0441, 20.77128
546.5262, 21.06969
547.0084, 20.91630
547.4905, 20.49257
547.9726, 19.66413
548.4547, 18.36528
548.9368, 17.66126
549.4189, 18.12660
549.9011, 18.81635
550.3832, 19.15501
550.8653, 18.76110
551.3474, 18.97918
551.8295, 20.12002
552.3116, 21.52447
552.7938, 22.25975
553.2759, 22.30131
553.7580, 21.83951
554.2401, 20.66974
554.7222, 19.24289
555.2043, 18.77398
555.6865, 19.20264
556.1686, 19.81757
556.6507, 20.30761
557.1328, 20.65973
557.6149, 20.86848
558.0970, 20.93395
558.5792, 20.83773
559.0613, 20.38937
559.5434, 19.85916
560.0255, 19.52746
560.5076, 19.54098
560.9897, 19.61825
561.4719, 19.72231
561.9540, 19.82256
562.4361, 19.86679
562.9182, 19.68188
563.4003, 19.63542
563.8824, 19.86927
564.3646, 20.32592
564.8467, 20.60813
565.3288, 20.68076
565.8109, 20.65034
566.2930, 20.56894
566.7751, 20.43734
567.2573, 20.19050
567.7394, 19.79373
568.2215, 19.43091
568.7036, 19.29030
569.1857, 19.34266
569.6678, 19.49681
570.1500, 19.77180
570.6321, 20.04556
571.1142, 20.17199
571.5963, 20.18748
572.0784, 20.17390
572.5605, 20.25802
573.0427, 20.24638
573.5248, 19.93073
574.0069, 19.37027
574.4890, 18.93641
574.9711, 18.76309
575.4532, 18.73803
575.9354, 18.86605
576.4175, 19.26007
576.8996, 19.38279
577.3817, 19.03532
577.8638, 18.61054
578.3459, 18.50943
578.8281, 18.87380
579.3102, 18.95739
579.7923, 18.59708
580.2744, 18.04302
580.7565, 17.73994
581.2386, 17.68299
581.7208, 17.80221
582.2029, 18.18276
582.6850, 18.64511
583.1671, 18.85000
583.6492, 18.83095
584.1313, 18.78738
584.6134, 18.87390
585.0955, 18.97769
585.5776, 19.01021
586.0598, 18.96518
586.5419, 18.80940
587.0240, 18.22332
587.5061, 17.69357
587.9882, 17.63644
588.4703, 18.86946
588.9525, 19.50630
589.4346, 18.96019
589.9167, 18.00336
590.3988, 18.00367
590.8809, 19.52585
591.3630, 20.50845
591.8452, 20.31484
592.3273, 19.28822
592.8094, 18.79531
593.2915, 18.87335
593.7736, 18.89151
594.2557, 18.23644
594.7379, 17.27209
595.2200, 17.08545
595.7021, 17.69686
596.1842, 18.34176
596.6663, 18.29394
597.1484, 17.97957
597.6306, 17.94820
598.1127, 18.41291
598.5948, 18.85688
599.0769, 19.09131
599.5590, 19.14940
600.0411, 19.07241
600.5233, 18.52889
601.0054, 18.25704
601.4875, 18.57644
601.9696, 19.24595
602.4517, 19.51834
602.9338, 19.23027
603.4160, 18.90172
603.8981, 18.71579
604.3802, 18.65320
604.8623, 18.52189
605.3444, 18.31548
605.8265, 18.08155
606.3087, 17.81708
606.7908, 17.55471
607.2729, 17.40168
607.7550, 17.37654
608.2371, 17.37207
608.7192, 17.14047
609.2014, 16.91753
609.6835, 17.07916
610.1656, 18.08916
610.6477, 18.89001
611.1298, 18.97439
611.6119, 18.54985
612.0941, 17.99065
612.5762, 16.90075
613.0583, 16.22627
613.5404, 16.31853
614.0225, 17.01810
614.5046, 17.44577
614.9868, 17.44275
615.4689, 17.52866
615.9510, 18.08288
616.4331, 19.05533
616.9152, 19.34916
617.3973, 18.90346
617.8795, 18.31909
618.3616, 18.10365
618.8437, 18.16394
619.3258, 18.31134
619.8079, 18.54014
620.2900, 18.74575
620.7722, 18.83998
621.2543, 18.85477
621.7364, 18.83014
622.2185, 18.65794
622.7006, 18.59792
623.1827, 18.87178
623.6649, 19.31574
624.1470, 19.53933
624.6291, 19.40597
625.1112, 19.16324
625.5933, 18.84220
626.0754, 18.45008
626.5576, 17.96963
627.0397, 17.27095
627.5218, 16.90784
628.0039, 17.45900
628.4860, 18.75768
628.9681, 19.23252
629.4503, 18.83132
629.9324, 18.29197
630.4145, 18.18610
630.8966, 18.41182
631.3787, 18.88401
631.8608, 19.68364
632.3430, 20.29594
632.8251, 20.33666
633.3072, 20.00083
633.7893, 19.53047
634.2714, 18.60599
634.7535, 18.00162
635.2357, 18.05787
635.7178, 18.51960
636.1999, 18.79672
636.6820, 18.73374
637.1641, 18.78171
637.6462, 19.13545
638.1284, 19.69266
638.6105, 19.87244
639.0926, 19.64766
639.5747, 19.31257
640.0568, 18.98161
640.5389, 18.67732
641.0211, 18.46344
641.5032, 18.34189
641.9853, 18.33305
642.4674, 18.52322
642.9495, 18.80051
643.4316, 19.04744
643.9138, 19.24126
644.3959, 19.40818
644.8780, 19.74043
645.3601, 19.96132
645.8422, 19.79038
646.3243, 18.36618
646.8065, 17.67534
647.2886, 18.14449
647.7707, 19.17207
648.2528, 19.68221
648.7349, 19.55620
649.2170, 19.41311
649.6992, 19.46894
650.1813, 19.55453
650.6634, 18.95142
651.1455, 17.77421
651.6276, 17.14580
652.1097, 18.42776
652.5919, 20.19978
653.0740, 20.34580
653.5561, 19.04864
654.0382, 17.99831
654.5203, 18.41824
655.0024, 19.20067
655.4846, 19.66864
655.9667, 19.72598
656.4488, 19.52460
656.9309, 18.59350
657.4130, 17.80357
657.8951, 17.82512
658.3773, 19.09725
658.8594, 19.87159
659.3415, 19.99618
659.8236, 19.78801
660.3057, 19.65084
660.7878, 19.57337
661.2700, 19.37684
661.7521, 18.93225
662.2342, 18.54747
662.7163, 18.74398
663.1984, 19.33013
663.6805, 19.82573
664.1627, 20.01953
664.6448, 20.04794
665.1269, 19.88402
665.6090, 19.59570
666.0911, 19.43829
666.5732, 19.54094
667.0554, 19.71787
667.5375, 19.96085
668.0196, 20.26690
668.5017, 20.32446
668.9838, 19.98365
669.4659, 19.74736
669.9481, 20.09088
670.4302, 20.94689
670.9123, 21.08948
671.3944, 20.44973
671.8765, 19.72227
672.3586, 19.67028
672.8408, 19.95293
673.3229, 19.90749
673.8050, 19.33365
674.2871, 18.87790
674.7692, 19.09402
675.2513, 19.60866
675.7335, 20.01391
676.2156, 20.20309
676.6977, 20.27408
677.1798, 20.24394
677.6619, 20.10124
678.1440, 19.79206
678.6262, 19.21189
679.1083, 18.73392
679.5904, 18.40772
680.0725, 18.24642
680.5546, 18.30455
681.0367, 18.57550
681.5189, 18.91426
682.0010, 19.40178
682.4831, 19.82307
682.9652, 19.73444
683.4473, 19.24248
683.9294, 18.84484
684.4116, 18.82854
684.8937, 18.98973
685.3758, 19.28917
685.8579, 19.72839
686.3400, 19.96596
686.8221, 19.60962
687.3043, 19.33432
687.7864, 19.51495
688.2685, 20.28852
688.7506, 20.77857
689.2327, 20.98754
689.7148, 20.91740
690.1970, 20.41638
690.6791, 19.57598
691.1612, 18.97298
691.6433, 18.66482
692.1254, 18.67952
692.6075, 19.35776
693.0897, 20.29595
693.5718, 20.82437
694.0539, 20.50705
694.5360, 20.22209
695.0181, 20.45729
695.5002, 20.94432
695.9824, 21.26894
696.4645, 21.42066
696.9466, 21.32584
697.4287, 20.82379
697.9108, 20.13338
698.3929, 19.82629
698.8751, 19.95460
699.3572, 20.15448
699.8393, 20.33558
700.3214, 20.48637
700.8035, 20.55996
701.2856, 20.56843
701.7678, 20.58252
702.2499, 20.77308
702.7320, 20.89408
703.2141, 20.60971
703.6962, 19.98118
704.1783, 19.51206
704.6605, 19.49619
705.1426, 19.59257
705.6247, 19.69100
706.1068, 19.81105
706.5889, 19.63855
707.0710, 18.89969
707.5532, 18.34484
708.0353, 18.55634
708.5174, 19.53450
708.9995, 20.36316
709.4816, 21.03678
709.9637, 21.47273
710.4459, 21.57433
710.9280, 21.39141
711.4101, 20.94325
711.8922, 20.16483
712.3743, 19.47237
712.8564, 18.98424
713.3386, 18.79373
713.8207, 19.00826
714.3028, 20.14493
714.7849, 20.95444
715.2670, 21.19348
715.7491, 21.17252
716.2313, 21.31188
716.7134, 21.68463
717.1955, 21.91996
717.6776, 21.98411
718.1597, 21.83644
718.6418, 21.16324
719.1240, 20.13395
719.6061, 19.58187
720.0882, 20.14081
720.5703, 20.91587
721.0524, 20.93432
721.5345, 20.45390
722.0167, 20.09373
722.4988, 20.24552
722.9809, 20.39692
723.4630, 20.31510
723.9451, 20.06042
724.4272, 19.95695
724.9094, 20.07524
725.3915, 20.21790
725.8736, 20.35604
726.3557, 20.46221
726.8378, 20.33171
727.3199, 19.95969
727.8021, 19.62487
728.2842, 19.54557
728.7663, 19.59671
729.2484, 19.60756
729.7305, 19.56910
730.2126, 19.45238
730.6948, 18.90905
731.1769, 18.53512
731.6590, 18.86533
732.1411, 20.10542
732.6232, 20.98923
733.1053, 21.36475
733.5875, 21.45369
734.0696, 21.32467
734.5517, 20.93141
735.0338, 20.69749
735.5159, 20.65197
735.9980, 20.62896
736.4802, 20.41575
736.9623, 20.10005
737.4444, 19.95322
737.9265, 20.02884
738.4086, 20.10502
738.8907, 19.94129
739.3729, 19.72179
739.8550, 19.66497
740.3371, 19.96228
740.8192, 20.12459
741.3013, 20.00809
741.7834, 19.75347
742.2656, 19.40410
742.7477, 18.75984
743.2298, 18.82745
743.7119, 19.95211
744.1940, 21.30359
744.6761, 21.43155
745.1583, 20.61035
745.6404, 20.25676
746.1225, 20.98812
746.6046, 21.73739
747.0867, 21.09996
747.5688, 19.83526
748.0510, 19.24647
748.5331, 20.60284
749.0152, 21.72716
749.4973, 21.86952
749.9794, 21.42866
750.4615, 21.22024
750.9437, 21.45814
751.4258, 21.33414
751.9079, 20.42664
752.3900, 19.28115
752.8721, 19.51775
753.3542, 20.96583
753.8364, 22.05950
754.3185, 21.96749
754.8006, 21.34370
755.2827, 20.77606
755.7648, 20.29186
756.2469, 19.98612
756.7291, 19.96338
757.2112, 20.06005
757.6933, 20.27207
758.1754, 20.56640
758.6575, 20.77662
759.1396, 20.86919
759.6218, 20.94178
760.1039, 21.03576
760.5860, 21.13499
761.0681, 21.13068
761.5502, 21.02836
762.0323, 21.01446
762.5145, 21.28079
762.9966, 21.65274
763.4787, 21.93734
763.9608, 22.12513
764.4429, 22.18703
764.9250, 21.94220
765.4072, 21.71672
765.8893, 21.73917
766.3714, 22.03021
766.8535, 22.09087
767.3356, 21.74061
767.8177, 21.48734
768.2999, 21.68999
768.7820, 22.26960
769.2641, 22.32637
769.7462, 21.84523
770.2283, 21.34559
770.7104, 21.30218
771.1926, 21.42904
771.6747, 21.23993
772.1568, 20.72627
772.6389, 20.41910
773.1210, 20.85567
773.6031, 21.35681
774.0853, 21.45063
774.5674, 21.00839
775.0495, 20.80454
775.5316, 20.92532
776.0137, 21.13561
776.4958, 21.24578
776.9780, 21.27042
777.4601, 21.61926
777.9422, 22.32366
778.4243, 22.93884
778.9064, 23.14047
779.3885, 23.00762
779.8707, 22.51695
780.3528, 21.62559
780.8349, 20.97724
781.3170, 21.00411
781.7991, 21.28436
782.2812, 21.53298
782.7633, 21.71287
783.2454, 21.95358
783.7275, 22.29404
784.2097, 22.61108
784.6918, 22.86373
785.1739, 23.02840
785.6560, 22.75005
786.1381, 21.95480
786.6202, 21.32668
787.1024, 21.76786
787.5845, 22.61474
788.0666, 22.95397
788.5487, 22.51513
789.0308, 22.24070
789.5129, 22.84097
789.9951, 23.47764
790.4772, 23.45057
790.9593, 22.42443
791.4414, 21.68099
791.9235, 21.20795
792.4056, 21.01740
792.8878, 21.33032
793.3699, 21.99225
793.8520, 22.04317
794.3341, 21.30895
794.8162, 20.70769
795.2983, 21.38600
795.7805, 22.44489
796.2626, 22.83902
796.7447, 22.15986
797.2268, 21.48234
797.7089, 20.78778
798.1910, 20.40033
798.6732, 20.66369
799.1553, 21.89312
799.6374, 22.53196
800.1195, 22.41750
800.6016, 22.12857
801.0837, 22.49436
801.5659, 23.18751
802.0480, 22.95907
802.5301, 21.48226
803.0122, 20.34462
803.4943, 21.24598
803.9764, 22.77908
804.4586, 23.53384
804.9407, 22.95633
805.4228, 22.33133
805.9049, 21.59690
806.3870, 21.04373
806.8691, 20.95477
807.3513, 21.39181
807.8334, 21.75631
808.3155, 22.00894
808.7976, 22.23620
809.2797, 22.66889
809.7618, 23.10841
810.2440, 23.01949
810.7261, 22.20315
811.2082, 21.68281
811.6903, 22.52713
812.1724, 23.61630
812.6545, 23.90654
813.1367, 22.79503
813.6188, 22.20264
814.1009, 22.30712
814.5830, 22.65098
815.0651, 22.95396
815.5472, 23.19400
816.0294, 22.88630
816.5115, 21.94146
816.9936, 21.12073
817.4757, 21.42567
817.9578, 22.13511
818.4399, 22.26907
818.9221, 21.53195
819.4042, 21.05351
819.8863, 21.57922
820.3684, 22.21770
820.8505, 22.30430
821.3326, 21.60622
821.8148, 21.36057
822.2969, 21.66854
822.7790, 22.09704
823.2611, 22.30265
823.7432, 22.32035
824.2253, 22.20894
824.7075, 21.96953
825.1896, 21.78062
825.6717, 21.90150
826.1538, 22.04019
826.6359, 21.89871
827.1180, 21.35826
827.6002, 21.02574
828.0823, 21.01981
828.5644, 21.15190
829.0465, 21.33726
829.5286, 21.57490
830.0107, 21.84332
830.4929, 22.14926
830.9750, 22.38100
831.4571, 22.40491
831.9392, 22.31591
832.4213, 22.18826
832.9034, 22.04035
833.3856, 22.08769
833.8677, 22.77281
834.3498, 23.39371
834.8319, 23.45897
835.3140, 22.94061
835.7961, 22.63268
836.2783, 22.58300
836.7604, 22.61467
837.2425, 22.65045
837.7246, 22.68708
838.2067, 22.70100
838.6888, 22.69621
839.1710, 22.71357
839.6531, 22.90209
840.1352, 23.02761
840.6173, 22.77450
841.0994, 22.19440
841.5815, 21.90505
842.0637, 22.34698
842.5458, 22.69420
843.0279, 22.59389
843.5100, 22.17288
843.9921, 22.41018
844.4742, 23.34746
844.9564, 23.84932
845.4385, 22.81317
845.9206, 21.37741
846.4027, 21.49190
846.8848, 22.73952
847.3669, 23.69132
847.8491, 23.41983
848.3312, 23.02752
848.8133, 22.95795
849.2954, 23.12194
849.7775, 23.20909
850.2596, 23.21052
850.7418, 23.15889
851.2239, 23.04060
851.7060, 22.90035
852.1881, 22.89976
852.6702, 22.98050
853.1523, 22.90489
853.6345, 22.40817
854.1166, 21.93245
854.5987, 21.78376
855.0808, 21.86841
855.5629, 22.01027
856.0450, 22.46599
856.5272, 22.49004
857.0093, 21.69166
857.4914, 20.74665
857.9735, 21.11949
858.4556, 22.70671
858.9377, 23.44717
859.4199, 22.70354
859.9020, 21.54797
860.3841, 20.92127
860.8662, 20.72195
861.3483, 20.83782
861.8304, 21.57963
862.3126, 21.99780
862.7947, 21.55047
863.2768, 20.88212
863.7589, 20.56470
864.2410, 20.66469
864.7231, 20.74869
865.2053, 20.79127
865.6874, 20.81118
866.1695, 20.77629
866.6516, 20.74666
867.1337, 20.88678
867.6158, 21.24994
868.0980, 21.52886
868.5801, 21.60063
869.0622, 21.49938
869.5443, 21.16034
870.0264, 20.44412
870.5085, 20.25159
870.9907, 20.76024
871.4728, 21.33233
871.9549, 21.50680
872.4370, 21.35624
872.9191, 21.09784
873.4012, 20.74892
873.8834, 20.52459
874.3655, 20.63999
874.8476, 20.88289
875.3297, 21.12978
875.8118, 21.36851
876.2939, 21.55829
876.7761, 21.78903
877.2582, 21.81744
877.7403, 21.46423
878.2224, 20.84375
878.7045, 20.56158
879.1866, 20.59410
879.6688, 20.65303
880.1509, 20.58119
880.6330, 20.46668
881.1151, 20.35610
881.5972, 20.27242
882.0793, 20.28214
882.5615, 20.48410
883.0436, 20.69330
883.5257, 20.94698
884.0078, 21.14551
884.4899, 21.04094
884.9720, 20.62158
885.4542, 20.07881
885.9363, 19.36244
886.4184, 18.77463
886.9005, 18.83510
887.3826, 19.27585
887.8647, 19.63517
888.3469, 19.75603
888.8290, 19.80907
889.3111, 19.78059
889.7932, 19.74606
890.2753, 19.81499
890.7574, 20.06029
891.2396, 20.05095
891.7217, 19.72845
892.2038, 19.28656
892.6859, 18.81786
893.1680, 18.41426
893.6501, 18.30419
894.1323, 18.54200
894.6144, 18.78045
895.0965, 18.88670
895.5786, 18.89635
896.0607, 18.82716
896.5428, 18.67994
897.0250, 18.45762
897.5071, 18.11098
897.9892, 17.85548
898.4713, 17.89793
898.9534, 18.12427
899.4355, 18.14492
899.9177, 18.00410
900.3998, 18.00841
900.8819, 18.64737
901.3640, 19.19299
901.8461, 19.11285
902.3282, 18.50613
902.8104, 18.11544
903.2925, 17.99832
903.7746, 17.99353
904.2567, 18.09980
904.7388, 18.24269
905.2209, 18.20096
905.7031, 18.03028
906.1852, 17.96590
906.6673, 18.20037
907.1494, 18.41016
907.6315, 18.27653
908.1136, 18.01040
908.5958, 17.96257
909.0779, 18.44766
909.5600, 18.60649
910.0421, 18.27992
910.5242, 17.80316
911.0063, 17.61213
911.4885, 17.64874
911.9706, 17.61802
912.4527, 17.47994
912.9348, 17.26314
913.4169, 16.81168
913.8990, 16.40737
914.3812, 16.36364
914.8633, 16.85075
915.3454, 17.09667
915.8275, 16.96409
916.3096, 16.78103
916.7917, 16.68762
917.2739, 16.69909
917.7560, 17.06055
918.2381, 17.72594
918.7202, 18.13844
919.2023, 17.59427
919.6844, 16.94142
920.1666, 16.94057
920.6487, 17.46523
921.1308, 17.73979
921.6129, 17.53266
922.0950, 17.26723
922.5771, 16.96549
923.0593, 16.73104
923.5414, 16.94585
924.0235, 17.52776
924.5056, 17.91912
924.9877, 17.89361
925.4698, 17.70468
925.9520, 17.46568
926.4341, 17.23709
926.9162, 17.10586
927.3983, 17.20061
927.8804, 17.23434
928.3625, 17.21023
928.8447, 17.11590
929.3268, 16.85956
929.8089, 16.48748
930.2910, 16.41570
930.7731, 16.69445
931.2552, 16.93026
931.7374, 16.62444
932.2195, 16.26954
932.7016, 16.40811
933.1837, 17.15074
933.6658, 17.44522
934.1479, 16.91030
934.6301, 16.46972
935.1122, 16.63526
935.5943, 17.18711
936.0764, 17.03557
936.5585, 16.28868
937.0406, 15.76361
937.5228, 16.16490
938.0049, 16.69786
938.4870, 16.70620
938.9691, 16.39730
939.4512, 16.27854
939.9333, 16.61420
940.4155, 16.78347
940.8976, 16.67120
941.3797, 16.42727
941.8618, 16.25470
942.3439, 16.15308
942.8260, 16.15498
943.3082, 16.29501
943.7903, 16.37225
944.2724, 16.10392
944.7545, 15.78104
945.2366, 15.68798
945.7188, 15.95251
946.2009, 16.14595
946.6830, 16.27764
947.1651, 16.32131
947.6472, 16.15527
948.1293, 15.88199
948.6115, 16.07729
949.0936, 16.65867
949.5757, 16.98025
950.0578, 16.21610
950.5399, 15.48663
951.0220, 15.62076
951.5042, 16.39986
951.9863, 16.81049
952.4684, 16.82364
952.9505, 16.43998
953.4326, 15.46878
953.9147, 14.42680
954.3969, 14.31818
954.8790, 14.88284
955.3611, 15.42531
955.8432, 15.76599
956.3253, 15.99844
956.8074, 16.16077
957.2896, 16.23874
957.7717, 16.20495
958.2538, 15.99744
958.7359, 15.89619
959.2180, 15.89356
959.7001, 16.03071
960.1823, 16.58973
960.6644, 17.22921
961.1465, 17.09693
961.6286, 16.26439
962.1107, 15.54098
962.5928, 15.34099
963.0750, 15.30607
963.5571, 15.27353
964.0392, 15.27418
964.5213, 15.55889
965.0034, 16.20672
965.4855, 16.33557
965.9677, 15.44709
966.4498, 14.39764
966.9319, 14.61202
967.4140, 15.47397
967.8961, 15.84880
968.3782, 14.84391
968.8604, 14.43441
969.3425, 15.63344
969.8246, 16.97220
970.3067, 17.09119
970.7888, 15.92940
971.2709, 15.48432
971.7531, 15.84909
972.2352, 16.30252
972.7173, 16.27946
973.1994, 16.04222
973.6815, 15.79579
974.1636, 15.56586
974.6458, 15.44377
975.1279, 15.50059
975.6100, 15.58809
976.0921, 15.67160
976.5742, 15.75541
977.0563, 15.91438
977.5385, 16.11100
978.0206, 16.07400
978.5027, 15.55548
978.9848, 15.09195
979.4669, 15.16598
979.9490, 15.50408
980.4311, 15.75629
980.9132, 15.80617
981.3953, 15.97689
981.8774, 16.36694
982.3596, 16.63045
982.8417, 16.27430
983.3238, 15.56069
983.8059, 15.36157
984.2880, 15.66945
984.7701, 15.88035
985.2523, 15.39549
985.7344, 14.96734
986.2165, 15.12334
986.6986, 15.69803
987.1807, 16.01514
987.6628, 16.05297
988.1450, 15.90214
988.6271, 15.47164
989.1092, 15.10491
989.5913, 15.49165
990.0734, 16.26953
990.5555, 16.75871
991.0377, 16.60303
991.5198, 16.48294
992.0019, 16.74907
992.4840, 16.92637
992.9661, 16.51496
993.4482, 15.47736
993.9304, 15.12248
994.4125, 15.47662
994.8946, 16.02941
995.3767, 16.71767
995.8588, 17.19665
996.3409, 16.86899
996.8231, 15.92316
997.3052, 15.60998
997.7873, 16.70349
998.2694, 17.33411
998.7515, 17.00237
999.2336, 16.11754
999.7158, 15.29385
1000.198, 14.61239
1000.680, 14.49753
1001.162, 15.27594
1001.644, 15.90051
1002.126, 15.52823
1002.608, 14.80363
1003.091, 14.25320
1003.573, 13.84968
1004.055, 13.91237
1004.537, 14.52572
1005.019, 15.20223
1005.501, 15.71712
1005.983, 16.03001
1006.465, 15.88549
1006.948, 15.45313
1007.430, 15.36221
1007.912, 16.58658
1008.394, 17.25948
1008.876, 16.55666
1009.358, 15.30626
1009.840, 15.06329
1010.322, 15.79282
1010.804, 16.26826
1011.287, 16.26178
1011.769, 16.13245
1012.251, 16.18962
1012.733, 16.31693
1013.215, 16.39705
1013.697, 16.40449
1014.179, 16.44531
1014.661, 16.59647
1015.143, 16.61566
1015.626, 16.33213
1016.108, 15.85628
1016.590, 15.41210
1017.072, 15.05478
1017.554, 14.97418
1018.036, 15.46290
1018.518, 16.01104
1019.000, 16.60560
1019.483, 17.02917
1019.965, 16.92505
1020.447, 16.14919
1020.929, 15.66485
1021.411, 15.55938
1021.893, 15.60061
1022.375, 15.58698
1022.857, 15.57587
1023.339, 15.61978
1023.822, 15.72640
1024.304, 15.95958
1024.786, 16.70030
1025.268, 17.02505
1025.750, 16.50096
1026.232, 15.50153
1026.714, 14.97526
1027.196, 14.89702
1027.679, 15.19744
1028.161, 16.04790
1028.643, 16.80192
1029.125, 17.05813
1029.607, 16.98572
1030.089, 16.69576
1030.571, 16.02707
1031.053, 15.91727
1031.536, 16.48495
1032.018, 17.04259
1032.500, 17.06543
1032.982, 16.76628
1033.464, 16.30911
1033.946, 15.80410
1034.428, 15.65343
1034.910, 16.30482
1035.392, 16.98123
1035.875, 17.65236
1036.357, 18.12565
1036.839, 17.91218
1037.321, 17.10213
1037.803, 16.55157
1038.285, 16.42378
1038.767, 16.35738
1039.249, 15.90094
1039.731, 15.50007
1040.214, 15.66824
1040.696, 16.48038
1041.178, 16.68659
1041.660, 16.06289
1042.142, 15.68241
1042.624, 16.14987
1043.106, 16.98581
1043.588, 17.45559
1044.071, 17.60552
1044.553, 17.54445
1045.035, 17.19851
1045.517, 16.80234
1045.999, 16.31052
1046.481, 15.88005
1046.963, 15.61117
1047.445, 15.51373
1047.927, 15.94005
1048.410, 16.88436
1048.892, 17.65363
1049.374, 17.74163
1049.856, 17.48923
1050.338, 16.92765
1050.820, 16.20609
1051.302, 15.93966
1051.784, 16.25744
1052.266, 16.63390
1052.749, 17.02317
1053.231, 17.26844
1053.713, 17.04373
1054.195, 16.56646
1054.677, 16.18870
1055.159, 15.99496
1055.641, 15.79347
1056.123, 15.36297
1056.606, 15.12426
1057.088, 15.35811
1057.570, 15.94483
1058.052, 16.24051
1058.534, 16.26658
1059.016, 16.15175
1059.498, 15.75443
1059.980, 15.50201
1060.463, 15.95124
1060.945, 16.57221
1061.427, 16.54923
1061.909, 15.55867
1062.391, 15.14707
1062.873, 15.44980
1063.355, 15.81928
1063.837, 15.55055
1064.319, 15.09278
1064.802, 15.15380
1065.284, 15.65968
1065.766, 15.98557
1066.248, 15.80795
1066.730, 15.65124
1067.212, 15.63608
1067.694, 15.65172
1068.176, 15.39772
1068.658, 14.98972
1069.141, 14.91843
1069.623, 15.32478
1070.105, 15.70424
1070.587, 15.70580
1071.069, 15.63482
1071.551, 15.75577
1072.033, 16.03653
1072.515, 15.87020
1072.998, 15.23591
1073.480, 14.87186
1073.962, 15.21700
1074.444, 15.80966
1074.926, 16.29877
1075.408, 16.65056
1075.890, 16.79181
1076.372, 16.54704
1076.854, 16.43552
1077.337, 16.53813
1077.819, 16.55854
1078.301, 16.17392
1078.783, 15.55005
1079.265, 14.95091
1079.747, 14.44594
1080.229, 14.32777
1080.711, 15.27783
1081.193, 15.92227
1081.676, 15.79753
1082.158, 15.29362
1082.640, 15.02364
1083.122, 14.97038
1083.604, 14.98808
1084.086, 15.06256
1084.568, 15.12252
1085.050, 15.03238
1085.532, 14.97538
1086.015, 15.15995
1086.497, 15.54383
1086.979, 15.70228
1087.461, 15.60992
1087.943, 15.46407
1088.425, 15.33244
1088.907, 15.17069
1089.389, 14.71455
1089.872, 14.27524
1090.354, 14.37926
1090.836, 15.50510
1091.318, 16.08272
1091.800, 15.83455
1092.282, 15.48097
1092.764, 15.55226
1093.246, 15.19724
1093.729, 15.51424
1094.211, 14.78133
1094.693, 14.24647
1095.175, 14.12075
1095.657, 14.30954
1096.139, 15.08360
1096.621, 15.89599
1097.103, 16.11248
1097.585, 15.75735
1098.068, 15.40191
1098.550, 15.08040
1099.032, 14.78187
1099.514, 14.43606
1099.996, 14.17089
1100.478, 14.17145
1100.960, 14.32546
1101.442, 14.15110
1101.924, 13.51906
1102.407, 13.36880
1102.889, 13.96262
1103.371, 14.70353
1103.853, 15.17603
1104.335, 15.26508
1104.817, 14.59492
1105.299, 12.98968
1105.781, 12.30189
1106.264, 12.96409
1106.746, 13.77001
1107.228, 14.33774
1107.710, 14.68977
1108.192, 14.85841
1108.674, 14.86000
1109.156, 14.72094
1109.638, 14.39241
1110.120, 14.06056
1110.603, 13.57676
1111.085, 13.34776
1111.567, 13.86228
1112.049, 14.91526
1112.531, 14.75574
1113.013, 13.62115
1113.495, 13.00763
1113.977, 14.35925
1114.459, 15.66513
1114.942, 16.02993
1115.424, 15.75066
1115.906, 15.07749
1116.388, 13.92570
1116.870, 13.36011
1117.352, 13.44788
1117.834, 13.78219
1118.316, 14.27014
1118.799, 14.67329
1119.281, 14.74696
1119.763, 14.54826
1120.245, 14.35766
1120.727, 14.17984
1121.209, 14.02643
1121.691, 13.88542
1122.173, 13.82286
1122.656, 13.99975
1123.138, 14.25829
1123.620, 14.39027
1124.102, 14.36914
1124.584, 14.31046
1125.066, 14.38614
1125.548, 14.06159
1126.030, 12.93509
1126.512, 11.65558
1126.995, 11.62940
1127.477, 12.46190
1127.959, 13.28010
1128.441, 13.93007
1128.923, 14.35101
1129.405, 14.53070
1129.887, 14.44373
1130.369, 13.91275
1130.851, 13.12210
1131.334, 13.04352
1131.816, 13.52999
1132.298, 13.87497
1132.780, 13.62164
1133.262, 13.41083
1133.744, 13.71739
1134.226, 14.06918
1134.708, 13.95135
1135.191, 13.31252
1135.673, 13.15783
1136.155, 13.47145
1136.637, 13.75937
1137.119, 13.49441
1137.601, 13.30518
1138.083, 13.97731
1138.565, 13.51453
1139.047, 14.85571
1139.530, 13.42877
1140.012, 12.78986
1140.494, 13.17941
1140.976, 13.67733
1141.458, 13.32535
1141.940, 12.77137
1142.422, 12.69499
1142.904, 13.04743
1143.386, 13.33296
1143.869, 13.49790
1144.351, 13.68104
1144.833, 13.92914
1145.315, 14.12742
1145.797, 14.08980
1146.279, 13.92582
1146.761, 13.76214
1147.243, 13.61335
1147.726, 13.58929
1148.208, 13.90918
1148.690, 13.90244
1149.172, 13.25461
1149.654, 12.34251
1150.136, 11.78095
1150.618, 11.53436
1151.100, 11.56926
1151.583, 11.93246
1152.065, 12.33704
1152.547, 12.72692
1153.029, 13.12332
1153.511, 13.56365
1153.993, 13.99738
1154.475, 14.30368
1154.957, 14.47154
1155.439, 14.44907
1155.922, 14.12169
1156.404, 13.80350
1156.886, 13.60472
1157.368, 13.46020
1157.850, 13.40067
1158.332, 13.38464
1158.814, 12.79982
1159.296, 11.78044
1159.778, 11.20044
1160.261, 11.89849
1160.743, 12.70466
1161.225, 13.18622
1161.707, 13.40061
1162.189, 13.32244
1162.671, 12.94070
1163.153, 12.75832
1163.635, 12.78536
1164.118, 12.92093
1164.600, 13.19095
1165.082, 13.44993
1165.564, 13.56767
1166.046, 13.62280
1166.528, 13.85038
1167.010, 14.32379
1167.492, 14.06182
1167.974, 12.91525
1168.457, 12.02108
1168.939, 12.65378
1169.421, 13.61749
1169.903, 14.04088
1170.385, 13.94572
1170.867, 13.64646
1171.349, 13.03793
1171.831, 12.94343
1172.313, 13.59614
1172.796, 14.22281
1173.278, 13.85612
1173.760, 13.19692
1174.242, 12.96796
1174.724, 13.20258
1175.206, 13.17236
1175.688, 12.77146
1176.170, 12.55342
1176.653, 12.68687
1177.135, 12.97674
1177.617, 13.35499
1178.099, 13.64417
1178.581, 13.49309
1179.063, 12.77797
1179.545, 12.67437
1180.027, 13.44008
1180.510, 13.97529
1180.992, 13.77633
1181.474, 13.33169
1181.956, 13.30338
1182.438, 13.55205
1182.920, 13.91675
1183.402, 14.48010
1183.884, 14.63776
1184.366, 14.25928
1184.849, 13.80349
1185.331, 13.49550
1185.813, 13.23930
1186.295, 12.75252
1186.777, 12.21418
1187.259, 11.97487
1187.741, 12.26030
1188.223, 12.56790
1188.705, 12.89543
1189.188, 13.17952
1189.670, 13.47787
1190.152, 13.64192
1190.634, 13.07461
1191.116, 12.14457
1191.598, 11.74214
1192.080, 12.93500
1192.562, 13.37991
1193.045, 12.65347
1193.527, 11.82544
1194.009, 11.82340
1194.491, 12.34436
1194.973, 12.72523
1195.455, 13.00480
1195.937, 13.34477
1196.419, 14.29059
1196.901, 14.47364
1197.384, 13.42491
1197.866, 12.23998
1198.348, 11.97506
1198.830, 12.36668
1199.312, 12.91580
1199.794, 13.54805
1200.276, 14.03703
1200.758, 14.49051
1201.240, 14.38709
1201.723, 13.31769
1202.205, 12.29848
1202.687, 13.06966
1203.169, 14.71240
1203.651, 14.58339
1204.133, 12.78730
1204.615, 11.77611
1205.097, 13.48690
1205.580, 14.67803
1206.062, 14.66862
1206.544, 14.01293
1207.026, 13.22765
1207.508, 12.49447
1207.990, 12.44547
1208.472, 13.09695
1208.954, 13.49826
1209.437, 12.82917
1209.919, 12.55296
1210.401, 13.19427
1210.883, 14.08698
1211.365, 14.10825
1211.847, 13.50290
1212.329, 12.67085
1212.811, 11.66014
1213.293, 11.22522
1213.776, 12.28046
1214.258, 13.03881
1214.740, 12.95601
1215.222, 12.42667
1215.704, 12.00766
1216.186, 11.79279
1216.668, 12.14218
1217.150, 13.19301
1217.632, 13.88130
1218.115, 13.69244
1218.597, 13.43366
1219.079, 13.36324
1219.561, 13.37319
1220.043, 13.14454
1220.525, 12.84473
1221.007, 12.97776
1221.489, 13.81369
1221.972, 13.95800
1222.454, 12.43419
1222.936, 11.45269
1223.418, 12.08588
1223.900, 13.46624
1224.382, 13.77194
1224.864, 13.38120
1225.346, 13.07315
1225.828, 13.05228
1226.311, 12.99257
1226.793, 12.72921
1227.275, 12.69279
1227.757, 13.27981
1228.239, 13.97266
1228.721, 13.36207
1229.203, 12.11381
1229.685, 11.66832
1230.167, 12.77774
1230.650, 13.35101
1231.132, 13.07007
1231.614, 12.61744
1232.096, 12.23565
1232.578, 12.01482
1233.060, 12.35595
1233.542, 12.92915
1234.024, 13.02825
1234.507, 12.01520
1234.989, 11.93854
1235.471, 13.22737
1235.953, 14.32124
1236.435, 14.12963
1236.917, 13.42625
1237.399, 13.54760
1237.881, 14.10041
1238.364, 14.36603
1238.846, 14.03709
1239.328, 13.75730
1239.810, 13.49496
1240.292, 13.42409
1240.774, 13.78800
1241.256, 14.27076
1241.738, 14.65014
1242.220, 14.77413
1242.703, 14.25588
1243.185, 12.49627
1243.667, 11.87332
1244.149, 12.52541
1244.631, 13.51898
1245.113, 14.65991
1245.595, 15.41776
1246.077, 14.74250
1246.559, 13.41207
1247.042, 12.85121
1247.524, 13.45122
1248.006, 13.56709
1248.488, 13.15247
1248.970, 12.84012
1249.452, 13.23262
1249.934, 13.72491
1250.416, 13.75322
1250.899, 13.55231
1251.381, 13.49527
1251.863, 13.60589
1252.345, 13.86896
1252.827, 14.28450
1253.309, 14.44289
1253.791, 13.73843
1254.273, 13.04024
1254.755, 13.03779
1255.238, 13.34513
1255.720, 13.39326
1256.202, 13.16744
1256.684, 13.05509
1257.166, 13.06352
1257.648, 13.16601
1258.130, 13.49476
1258.612, 13.74232
1259.094, 13.67396
1259.577, 13.49143
1260.059, 13.43478
1260.541, 13.48059
1261.023, 13.17323
1261.505, 12.58275
1261.987, 12.32782
1262.469, 13.28166
1262.951, 13.92124
1263.434, 13.55913
1263.916, 12.90788
1264.398, 12.55890
1264.880, 12.51988
1265.362, 13.00059
1265.844, 13.88535
1266.326, 14.54640
1266.808, 14.84642
1267.291, 14.61147
1267.773, 13.64229
1268.255, 12.52268
1268.737, 11.58309
1269.219, 11.02578
1269.701, 11.73237
1270.183, 13.33619
1270.665, 14.36572
1271.147, 13.79811
1271.630, 13.46347
1272.112, 13.54031
1272.594, 13.71539
1273.076, 13.54638
1273.558, 13.38298
1274.040, 14.11411
1274.522, 15.32775
1275.004, 15.61370
1275.486, 14.24010
1275.969, 13.33500
1276.451, 13.05147
1276.933, 13.10988
1277.415, 13.55320
1277.897, 13.98383
1278.379, 13.78256
1278.861, 13.27256
1279.343, 13.30591
1279.825, 14.07922
1280.308, 14.56147
1280.790, 14.70009
1281.272, 14.59726
1281.754, 14.05951
1282.236, 13.58694
1282.718, 13.78411
1283.200, 13.20649
1283.682, 13.78993
1284.165, 12.64821
1284.647, 11.99183
1285.129, 11.86518
1285.611, 12.14950
1286.093, 13.38335
1286.575, 14.27822
1287.057, 14.04866
1287.539, 13.34865
1288.021, 12.66814
1288.504, 12.08518
1288.986, 12.09053
1289.468, 12.63434
1289.950, 13.31614
1290.432, 14.38056
1290.914, 14.90243
1291.396, 14.62726
1291.878, 13.99387
1292.360, 13.15372
1292.843, 12.37025
1293.325, 12.41573
1293.807, 13.12062
1294.289, 13.84052
1294.771, 14.53387
1295.253, 14.95550
1295.735, 15.09086
1296.217, 14.97505
1296.700, 14.41748
1297.182, 13.78651
1297.664, 13.73675
1298.146, 13.24857
1298.628, 13.84986
1299.110, 12.93966
1299.592, 12.63463
1300.074, 13.01353
1300.557, 13.56238
1301.039, 14.12004
1301.521, 14.49460
1302.003, 14.41474
1302.485, 14.09563
1302.967, 13.87736
1303.449, 13.76778
##END=



