##NAMES=Argentopyrite
##RRUFFID=R090027
##IDEAL CHEMISTRY=Ag^1+^Fe_2_S^2-^_3_
##LOCALITY=Jáchymov, Ostrov, Krušné Hory Mts, Karlovy Vary Region, Bohemia, Czech Republic
##OWNER=RRUFF
##SOURCE=Mark N. Feinglos
##DESCRIPTION=Bronze and blue tarnished rectangular prism.  Co-type specimen. Twinned.
##STATUS=The identification of this mineral is confirmed by single-crystal X-ray diffraction and chemical analysis.
##URL=rruff.info/R090027
##MEASURED CHEMISTRY=Ag_0.97_Fe_1.99_S_3_
92.37695, 362.5877
92.85907, 366.9394
93.34119, 367.2496
93.82330, 360.7010
94.30542, 349.6351
94.78754, 334.5232
95.26965, 316.6779
95.75177, 300.1959
96.23389, 286.2641
96.71600, 274.6554
97.19812, 265.6225
97.68024, 259.5639
98.16235, 254.6347
98.64447, 248.3891
99.12659, 240.3685
99.60870, 231.7836
100.0908, 222.7914
100.5729, 214.3512
101.0551, 207.4265
101.5372, 202.4765
102.0193, 199.1385
102.5014, 195.8774
102.9835, 192.2547
103.4656, 189.0739
103.9478, 186.4661
104.4299, 184.3627
104.9120, 182.7174
105.3941, 181.5674
105.8762, 180.9917
106.3583, 179.7000
106.8405, 177.7140
107.3226, 175.1295
107.8047, 171.3877
108.2868, 166.6266
108.7689, 162.3761
109.2510, 160.8407
109.7332, 162.2723
110.2153, 162.5199
110.6974, 160.1594
111.1795, 156.5310
111.6616, 153.5435
112.1437, 151.5838
112.6259, 150.4459
113.1080, 150.0569
113.5901, 150.3547
114.0722, 150.6360
114.5543, 150.4339
115.0364, 149.7698
115.5185, 149.1178
116.0007, 148.5747
116.4828, 148.0709
116.9649, 147.5411
117.4470, 146.9812
117.9291, 146.4551
118.4112, 146.0781
118.8934, 145.9703
119.3755, 145.7128
119.8576, 145.0011
120.3397, 144.2750
120.8218, 143.9777
121.3039, 144.2788
121.7861, 144.8852
122.2682, 144.9519
122.7503, 144.5247
123.2324, 143.3667
123.7145, 140.7171
124.1966, 137.4330
124.6788, 134.8180
125.1609, 133.6791
125.6430, 133.7883
126.1251, 133.1366
126.6072, 131.1585
127.0893, 129.1789
127.5715, 127.9289
128.0536, 127.2589
128.5357, 126.3444
129.0178, 124.4662
129.4999, 121.7646
129.9821, 119.3880
130.4642, 117.4846
130.9463, 115.8502
131.4284, 114.2114
131.9105, 112.5016
132.3926, 111.0648
132.8748, 110.4344
133.3569, 110.2598
133.8390, 109.9428
134.3211, 109.0367
134.8032, 107.7626
135.2853, 106.9417
135.7674, 107.0511
136.2496, 106.9655
136.7317, 105.8703
137.2138, 104.1097
137.6959, 102.5690
138.1780, 102.1585
138.6601, 103.0566
139.1423, 103.1933
139.6244, 101.3805
140.1065, 99.76835
140.5886, 99.40401
141.0707, 100.1794
141.5528, 101.1866
142.0350, 101.3320
142.5171, 100.2064
142.9992, 99.20827
143.4813, 98.19733
143.9634, 97.37678
144.4455, 96.92154
144.9277, 96.86299
145.4098, 97.04458
145.8919, 97.24535
146.3740, 97.69733
146.8561, 97.68272
147.3382, 96.69678
147.8204, 95.37724
148.3025, 94.59569
148.7846, 94.72657
149.2667, 95.25650
149.7488, 95.01439
150.2309, 93.73945
150.7131, 92.75023
151.1952, 92.83927
151.6773, 93.66626
152.1594, 94.10214
152.6415, 93.51249
153.1236, 92.52406
153.6058, 92.27842
154.0879, 93.09561
154.5700, 93.67886
155.0521, 92.60093
155.5342, 89.76714
156.0163, 87.49236
156.4985, 87.08946
156.9806, 87.45638
157.4627, 87.79362
157.9448, 87.91258
158.4269, 87.97948
158.9090, 88.29118
159.3912, 89.01481
159.8733, 89.55038
160.3554, 89.88793
160.8375, 89.94440
161.3196, 89.49959
161.8017, 88.41539
162.2839, 87.02644
162.7660, 86.40929
163.2481, 87.77378
163.7302, 88.26336
164.2123, 86.73554
164.6944, 84.35033
165.1766, 82.55862
165.6587, 82.19801
166.1408, 83.04129
166.6229, 83.59277
167.1050, 83.81902
167.5871, 83.79712
168.0693, 83.33517
168.5514, 82.63210
169.0335, 82.11260
169.5156, 82.11904
169.9977, 82.57212
170.4798, 82.27499
170.9620, 80.33522
171.4441, 78.65152
171.9262, 78.24070
172.4083, 78.93169
172.8904, 79.85010
173.3725, 80.51629
173.8547, 80.82644
174.3368, 80.57474
174.8189, 79.01041
175.3010, 77.40237
175.7831, 76.94306
176.2652, 77.70462
176.7474, 78.58080
177.2295, 78.81499
177.7116, 78.53651
178.1937, 78.02347
178.6758, 77.14499
179.1579, 76.12846
179.6401, 75.25062
180.1222, 74.47153
180.6043, 73.97634
181.0864, 73.94270
181.5685, 74.24187
182.0506, 74.73942
182.5328, 75.65536
183.0149, 76.69630
183.4970, 76.78934
183.9791, 75.03606
184.4612, 73.73606
184.9433, 74.27586
185.4255, 75.85910
185.9076, 77.10369
186.3897, 77.04073
186.8718, 75.79131
187.3539, 74.68327
187.8360, 73.51900
188.3182, 72.75044
188.8003, 72.62930
189.2824, 73.00063
189.7645, 73.59045
190.2466, 74.24562
190.7287, 74.98908
191.2109, 75.27789
191.6930, 74.84580
192.1751, 74.22401
192.6572, 73.33250
193.1393, 72.35406
193.6214, 71.72692
194.1036, 71.96446
194.5857, 73.33414
195.0678, 73.28707
195.5499, 70.04702
196.0320, 67.31145
196.5141, 67.39030
196.9963, 69.89226
197.4784, 72.52093
197.9605, 73.06295
198.4426, 71.12299
198.9247, 70.01153
199.4068, 70.33228
199.8890, 70.93467
200.3711, 70.91898
200.8532, 70.26768
201.3353, 69.83046
201.8174, 70.61899
202.2995, 72.70519
202.7817, 73.74510
203.2638, 72.78085
203.7459, 71.23717
204.2280, 70.30785
204.7101, 70.11392
205.1922, 70.53693
205.6744, 72.04338
206.1565, 74.28620
206.6386, 75.46782
207.1207, 74.25546
207.6028, 72.15926
208.0849, 71.37862
208.5671, 72.34042
209.0492, 73.56370
209.5313, 73.93574
210.0134, 73.69228
210.4955, 73.21774
210.9776, 72.46908
211.4598, 71.60499
211.9419, 70.98129
212.4240, 70.65652
212.9061, 70.47819
213.3882, 70.25818
213.8703, 70.09959
214.3525, 70.23100
214.8346, 70.92635
215.3167, 72.00101
215.7988, 72.79082
216.2809, 73.31636
216.7630, 73.47317
217.2451, 72.98972
217.7273, 72.18993
218.2094, 71.65739
218.6915, 71.85612
219.1736, 72.61753
219.6557, 72.89568
220.1378, 72.18947
220.6200, 71.59094
221.1021, 71.45398
221.5842, 71.64120
222.0663, 71.87644
222.5484, 71.92850
223.0305, 71.86721
223.5127, 72.38583
223.9948, 74.48628
224.4769, 76.12087
224.9590, 76.93880
225.4411, 76.99043
225.9232, 76.31180
226.4054, 74.82332
226.8875, 72.65769
227.3696, 71.30531
227.8517, 71.16714
228.3338, 71.47234
228.8159, 72.29552
229.2981, 73.44325
229.7802, 74.73232
230.2623, 76.11774
230.7444, 77.50542
231.2265, 77.74683
231.7086, 75.47663
232.1908, 73.64549
232.6729, 73.27096
233.1550, 73.86620
233.6371, 74.41635
234.1192, 74.29800
234.6013, 73.61535
235.0835, 73.14114
235.5656, 72.90144
236.0477, 72.78812
236.5298, 72.75183
237.0119, 72.81774
237.4940, 73.06059
237.9762, 73.54309
238.4583, 74.21489
238.9404, 74.84019
239.4225, 75.94259
239.9046, 76.45850
240.3867, 75.39633
240.8689, 73.41015
241.3510, 72.20876
241.8331, 72.81193
242.3152, 74.57507
242.7973, 75.50544
243.2794, 75.10845
243.7616, 74.81387
244.2437, 75.49688
244.7258, 76.81322
245.2079, 77.68808
245.6900, 77.57178
246.1721, 76.87563
246.6543, 76.47862
247.1364, 76.49020
247.6185, 76.47330
248.1006, 76.15480
248.5827, 75.61533
249.0648, 75.11893
249.5470, 74.69698
250.0291, 74.43840
250.5112, 74.55457
250.9933, 75.14833
251.4754, 75.49141
251.9576, 74.79252
252.4397, 73.37793
252.9218, 72.78027
253.4039, 73.87283
253.8860, 75.32341
254.3681, 75.60963
254.8503, 74.74223
255.3324, 73.76086
255.8145, 73.60143
256.2966, 73.98696
256.7787, 73.32030
257.2608, 70.42311
257.7430, 67.61501
258.2251, 66.94029
258.7072, 68.14365
259.1893, 69.53624
259.6714, 70.12397
260.1535, 70.01094
260.6357, 69.71334
261.1178, 68.97459
261.5999, 68.48577
262.0820, 68.96728
262.5641, 70.08382
263.0462, 70.80315
263.5284, 70.11430
264.0105, 68.32212
264.4926, 67.29461
264.9747, 67.58373
265.4568, 67.88520
265.9389, 67.32170
266.4211, 66.29996
266.9032, 65.69087
267.3853, 66.25536
267.8674, 67.62731
268.3495, 68.15871
268.8316, 67.32777
269.3138, 66.39425
269.7959, 65.72517
270.2780, 65.29286
270.7601, 65.08023
271.2422, 65.13278
271.7243, 65.34267
272.2065, 65.35951
272.6886, 65.17103
273.1707, 64.78078
273.6528, 63.64711
274.1349, 62.53383
274.6170, 62.50158
275.0992, 64.12729
275.5813, 66.62373
276.0634, 67.97509
276.5455, 67.53028
277.0276, 67.11538
277.5097, 66.96882
277.9919, 67.05212
278.4740, 67.41664
278.9561, 68.07737
279.4382, 68.80647
279.9203, 69.08752
280.4024, 68.41401
280.8846, 68.40172
281.3667, 69.72097
281.8488, 71.31997
282.3309, 72.44712
282.8130, 72.91011
283.2951, 72.98615
283.7773, 73.05650
284.2594, 73.11635
284.7415, 73.18262
285.2236, 72.80204
285.7057, 72.76086
286.1878, 73.93556
286.6700, 76.18613
287.1521, 78.33733
287.6342, 78.86362
288.1163, 77.09695
288.5984, 76.32446
289.0805, 77.30580
289.5627, 78.51271
290.0448, 79.33669
290.5269, 79.75243
291.0090, 80.00780
291.4911, 80.31810
291.9732, 80.68694
292.4554, 81.05448
292.9375, 81.48626
293.4196, 81.85298
293.9017, 82.30905
294.3838, 82.66950
294.8659, 82.48003
295.3481, 81.31516
295.8302, 79.30348
296.3123, 78.25440
296.7944, 79.07668
297.2765, 79.94300
297.7586, 80.70627
298.2408, 81.25695
298.7229, 81.42899
299.2050, 81.11496
299.6871, 80.45078
300.1692, 79.96004
300.6513, 79.82941
301.1335, 79.66338
301.6156, 79.49532
302.0977, 79.25147
302.5798, 78.76954
303.0619, 77.99753
303.5440, 77.16680
304.0262, 76.78650
304.5083, 77.43618
304.9904, 77.66959
305.4725, 77.06591
305.9546, 76.31944
306.4367, 76.14748
306.9189, 76.64825
307.4010, 77.17567
307.8831, 76.74081
308.3652, 74.67461
308.8473, 73.40563
309.3294, 73.44780
309.8116, 73.72261
310.2937, 73.60910
310.7758, 73.06278
311.2579, 72.35064
311.7400, 71.69608
312.2221, 71.04052
312.7043, 70.86652
313.1864, 71.27087
313.6685, 71.97683
314.1506, 73.15544
314.6327, 74.57030
315.1148, 75.78543
315.5970, 76.51662
316.0791, 76.74816
316.5612, 76.22888
317.0433, 73.35679
317.5254, 71.51340
318.0075, 72.00992
318.4897, 73.86940
318.9718, 75.78618
319.4539, 77.12114
319.9360, 77.76521
320.4181, 77.32593
320.9002, 73.95199
321.3824, 71.82894
321.8645, 71.93420
322.3466, 72.99380
322.8287, 73.84774
323.3108, 74.08439
323.7929, 73.92628
324.2751, 73.73506
324.7572, 73.46181
325.2393, 73.25192
325.7214, 73.09207
326.2035, 72.99301
326.6856, 73.09673
327.1678, 73.34019
327.6499, 73.36747
328.1320, 72.67937
328.6141, 70.94474
329.0962, 70.17245
329.5783, 71.06657
330.0605, 72.11079
330.5426, 72.79123
331.0247, 73.08495
331.5068, 73.09233
331.9889, 72.84209
332.4710, 72.36900
332.9532, 72.24545
333.4353, 73.38924
333.9174, 73.88412
334.3995, 72.95203
334.8816, 71.24007
335.3637, 69.62460
335.8459, 68.55231
336.3280, 67.90682
336.8101, 67.36109
337.2922, 66.71657
337.7743, 66.51389
338.2564, 67.47321
338.7386, 68.47354
339.2206, 68.36337
339.7028, 66.88948
340.1849, 64.87718
340.6670, 63.61268
341.1491, 63.55004
341.6312, 63.11145
342.1133, 61.82446
342.5955, 60.60497
343.0776, 60.02719
343.5597, 60.04826
344.0418, 60.20894
344.5239, 60.04585
345.0060, 59.52167
345.4882, 59.33174
345.9703, 59.98917
346.4524, 60.49421
346.9345, 60.60865
347.4166, 60.37234
347.8987, 59.87977
348.3809, 59.17172
348.8630, 58.28263
349.3451, 57.32315
349.8272, 55.92199
350.3093, 55.05885
350.7914, 55.04293
351.2736, 55.51693
351.7557, 56.20516
352.2378, 57.00689
352.7199, 57.81731
353.2020, 58.42543
353.6841, 58.72438
354.1663, 59.14777
354.6484, 59.92227
355.1305, 60.69499
355.6126, 61.39958
356.0947, 61.95456
356.5768, 62.11835
357.0590, 61.37609
357.5411, 59.66616
358.0232, 58.75863
358.5053, 59.21719
358.9874, 59.92152
359.4695, 60.55621
359.9517, 61.06555
360.4338, 61.34920
360.9159, 61.22510
361.3980, 60.91700
361.8801, 61.19377
362.3622, 62.38585
362.8444, 63.43227
363.3265, 63.60523
363.8086, 63.60643
364.2907, 64.30676
364.7728, 66.07389
365.2549, 68.00576
365.7371, 68.87701
366.2192, 68.58322
366.7013, 68.21630
367.1834, 68.01555
367.6655, 67.82396
368.1476, 67.49667
368.6298, 67.03706
369.1119, 66.60889
369.5940, 66.24818
370.0761, 65.99538
370.5582, 66.11925
371.0403, 66.87033
371.5225, 67.58353
372.0046, 67.92075
372.4867, 67.89441
372.9688, 67.46412
373.4509, 66.28051
373.9330, 64.89005
374.4152, 64.20574
374.8973, 64.31886
375.3794, 64.36308
375.8615, 63.58803
376.3436, 62.65250
376.8257, 62.72506
377.3079, 64.44298
377.7900, 65.83022
378.2721, 64.89432
378.7542, 62.23928
379.2363, 60.63816
379.7184, 61.23138
380.2006, 62.52312
380.6827, 62.60315
381.1648, 61.52779
381.6469, 60.23467
382.1290, 58.77915
382.6111, 57.37088
383.0933, 56.37477
383.5754, 55.84391
384.0575, 55.38011
384.5396, 54.51246
385.0217, 53.39236
385.5038, 52.98357
385.9860, 54.42665
386.4681, 55.58428
386.9502, 54.76581
387.4323, 52.47616
387.9144, 50.50792
388.3965, 49.77237
388.8787, 49.79555
389.3608, 49.32884
389.8429, 48.12520
390.3250, 47.04655
390.8071, 46.08901
391.2892, 45.42615
391.7714, 45.43209
392.2535, 46.16022
392.7356, 47.04137
393.2177, 47.44227
393.6998, 47.30600
394.1819, 46.78532
394.6641, 45.34481
395.1462, 44.03109
395.6283, 43.55486
396.1104, 43.73993
396.5925, 43.91536
397.0746, 43.60567
397.5568, 42.97992
398.0389, 42.99397
398.5210, 44.70505
399.0031, 45.78467
399.4852, 45.58315
399.9673, 44.80464
400.4495, 44.18396
400.9316, 43.96389
401.4137, 43.95545
401.8958, 43.91039
402.3779, 43.94180
402.8600, 43.60604
403.3422, 42.35735
403.8243, 41.27469
404.3064, 41.05869
404.7885, 41.52909
405.2706, 42.00320
405.7527, 41.93553
406.2349, 41.41362
406.7170, 41.14434
407.1991, 41.29982
407.6812, 41.47866
408.1633, 41.56842
408.6454, 41.63545
409.1276, 41.71775
409.6097, 41.82509
410.0918, 42.05867
410.5739, 42.82053
411.0560, 44.39544
411.5381, 44.94072
412.0203, 43.09264
412.5024, 41.00858
412.9845, 39.85114
413.4666, 39.60186
413.9487, 39.70258
414.4308, 39.85820
414.9130, 40.06719
415.3951, 40.36479
415.8772, 40.84425
416.3593, 41.18061
416.8414, 40.95144
417.3235, 40.53864
417.8057, 40.49764
418.2878, 41.08374
418.7699, 41.82953
419.2520, 42.38979
419.7341, 42.75267
420.2162, 42.77966
420.6984, 42.35006
421.1805, 41.65710
421.6626, 40.78317
422.1447, 39.69727
422.6268, 39.12760
423.1089, 39.71932
423.5911, 40.80775
424.0732, 41.45469
424.5553, 41.55454
425.0374, 41.64205
425.5195, 42.30446
426.0016, 43.31834
426.4838, 43.33971
426.9659, 41.29813
427.4480, 39.42543
427.9301, 38.98811
428.4122, 39.43742
428.8943, 39.47977
429.3765, 38.56536
429.8586, 37.48041
430.3407, 37.67938
430.8228, 40.21159
431.3049, 41.73515
431.7870, 41.41630
432.2692, 40.68394
432.7513, 40.76868
433.2334, 41.55614
433.7155, 41.93019
434.1976, 40.89957
434.6797, 38.60151
435.1619, 37.02212
435.6440, 35.94561
436.1261, 35.89506
436.6082, 38.25133
437.0903, 41.14647
437.5724, 42.15155
438.0546, 40.48962
438.5367, 37.84289
439.0188, 37.08358
439.5009, 39.20788
439.9830, 39.99273
440.4651, 37.82421
440.9473, 35.64184
441.4294, 34.81247
441.9115, 35.12804
442.3936, 35.67619
442.8757, 35.81479
443.3578, 35.76326
443.8400, 36.39934
444.3221, 38.18569
444.8042, 39.50302
445.2863, 39.30033
445.7684, 38.61692
446.2505, 38.40513
446.7327, 38.87671
447.2148, 39.47997
447.6969, 39.71386
448.1790, 39.64762
448.6611, 39.70955
449.1432, 40.07710
449.6254, 40.35662
450.1075, 40.16009
450.5896, 39.59781
451.0717, 38.95359
451.5538, 37.90776
452.0359, 37.09699
452.5181, 37.37727
453.0002, 38.59159
453.4823, 39.65295
453.9644, 40.07815
454.4465, 40.04604
454.9286, 39.96179
455.4108, 39.94096
455.8929, 39.58406
456.3750, 38.09423
456.8571, 36.60265
457.3392, 36.73846
457.8214, 38.56038
458.3035, 40.26045
458.7856, 40.13337
459.2677, 38.14850
459.7498, 37.02749
460.2319, 37.32330
460.7141, 37.69419
461.1962, 37.87992
461.6783, 37.87453
462.1604, 37.59696
462.6425, 37.03446
463.1246, 36.48215
463.6068, 36.47992
464.0889, 37.27163
464.5710, 37.97380
465.0531, 38.90313
465.5352, 39.45905
466.0173, 38.97535
466.4995, 37.85146
466.9816, 37.17550
467.4637, 37.82367
467.9458, 39.22564
468.4279, 39.37453
468.9100, 37.55122
469.3922, 36.34739
469.8743, 37.31234
470.3564, 38.72206
470.8385, 39.15040
471.3206, 38.39084
471.8027, 37.35211
472.2849, 36.58720
472.7670, 36.09752
473.2491, 35.91346
473.7312, 36.05908
474.2133, 36.45607
474.6954, 37.38951
475.1776, 38.51973
475.6597, 38.99501
476.1418, 38.36849
476.6239, 37.43549
477.1060, 36.45751
477.5881, 35.59264
478.0703, 35.42701
478.5524, 36.27475
479.0345, 37.44712
479.5166, 37.93220
479.9987, 37.56398
480.4808, 37.25313
480.9630, 36.96691
481.4451, 36.81750
481.9272, 37.10740
482.4093, 37.63815
482.8914, 37.70834
483.3735, 36.81947
483.8557, 35.38868
484.3378, 34.92489
484.8199, 36.46022
485.3020, 37.52123
485.7841, 38.06677
486.2662, 38.09331
486.7484, 37.20381
487.2305, 35.62307
487.7126, 34.41146
488.1947, 34.67524
488.6768, 36.29444
489.1589, 37.30114
489.6411, 37.33173
490.1232, 37.30813
490.6053, 37.85851
491.0874, 38.37317
491.5695, 37.98076
492.0516, 36.37963
492.5338, 34.64931
493.0159, 33.92301
493.4980, 34.11166
493.9801, 34.43156
494.4622, 34.71732
494.9443, 35.22458
495.4265, 36.54726
495.9086, 38.30726
496.3907, 39.35785
496.8728, 39.32606
497.3549, 38.57180
497.8370, 36.84917
498.3192, 34.53517
498.8013, 33.16364
499.2834, 33.46798
499.7655, 34.55042
500.2476, 34.86954
500.7297, 33.97879
501.2119, 33.96793
501.6940, 36.09282
502.1761, 38.21134
502.6582, 38.71790
503.1403, 37.83231
503.6224, 36.59293
504.1045, 35.58370
504.5866, 34.87847
505.0688, 34.76854
505.5509, 35.84245
506.0330, 36.59637
506.5151, 36.95148
506.9972, 36.98466
507.4793, 36.58284
507.9615, 35.85809
508.4436, 35.23457
508.9257, 35.14728
509.4078, 35.46976
509.8899, 35.38772
510.3720, 34.67852
510.8542, 34.04974
511.3363, 33.83075
511.8184, 33.78695
512.3005, 33.67363
512.7827, 33.43373
513.2648, 33.27660
513.7469, 33.34058
514.2290, 33.60942
514.7111, 34.08162
515.1932, 34.79790
515.6754, 35.53285
516.1575, 36.15817
516.6396, 36.65594
517.1217, 36.99713
517.6038, 37.39827
518.0859, 37.38710
518.5681, 36.14500
519.0502, 34.50195
519.5323, 34.06816
520.0144, 35.27644
520.4965, 36.97139
520.9786, 37.80733
521.4608, 37.73313
521.9429, 37.04475
522.4250, 34.80282
522.9071, 33.05672
523.3892, 32.83420
523.8713, 33.49886
524.3535, 34.09531
524.8356, 34.22582
525.3177, 34.07259
525.7998, 33.85711
526.2819, 33.50946
526.7640, 33.45659
527.2462, 33.96014
527.7283, 34.52638
528.2104, 35.07494
528.6925, 35.49435
529.1746, 35.51239
529.6567, 34.81337
530.1389, 33.98230
530.6210, 33.97837
531.1031, 34.73584
531.5852, 35.03783
532.0673, 34.34449
532.5494, 33.36398
533.0316, 32.84816
533.5137, 32.76177
533.9958, 33.18470
534.4779, 34.95882
534.9600, 36.56633
535.4421, 36.56498
535.9243, 35.31896
536.4064, 34.12040
536.8885, 33.55449
537.3706, 33.54853
537.8527, 33.99491
538.3348, 35.34476
538.8170, 36.24529
539.2991, 36.84702
539.7812, 36.90442
540.2633, 35.69841
540.7454, 33.81254
541.2275, 32.78712
541.7097, 33.69812
542.1918, 35.61520
542.6739, 35.92300
543.1560, 33.93554
543.6381, 32.53465
544.1202, 32.48011
544.6024, 33.04991
545.0845, 34.25104
545.5666, 35.83451
546.0487, 36.73326
546.5308, 36.00132
547.0129, 34.44987
547.4951, 33.19804
547.9772, 32.24595
548.4593, 31.78496
548.9414, 32.03710
549.4235, 32.65717
549.9056, 32.93203
550.3878, 32.70424
550.8699, 33.02003
551.3520, 34.77020
551.8341, 36.60310
552.3162, 37.54388
552.7983, 37.55133
553.2805, 36.66221
553.7626, 34.76679
554.2447, 32.51078
554.7268, 31.84238
555.2089, 34.06411
555.6910, 35.58443
556.1732, 36.19352
556.6553, 36.27012
557.1374, 35.80378
557.6195, 34.99402
558.1016, 34.29211
558.5837, 33.98572
559.0659, 33.95632
559.5480, 33.97059
560.0301, 34.05455
560.5122, 33.99652
560.9943, 33.44138
561.4764, 33.01624
561.9586, 33.51854
562.4407, 34.86763
562.9228, 35.83595
563.4049, 35.70722
563.8870, 35.16098
564.3691, 34.84003
564.8513, 34.74723
565.3334, 34.82660
565.8155, 35.12000
566.2976, 35.36727
566.7797, 35.01132
567.2618, 33.49843
567.7440, 32.70120
568.2261, 33.13107
568.7082, 33.80370
569.1903, 34.24291
569.6724, 34.45048
570.1545, 34.55764
570.6367, 34.62597
571.1188, 34.69808
571.6009, 34.91391
572.0830, 35.38347
572.5651, 35.57661
573.0472, 35.28190
573.5294, 34.83739
574.0115, 34.27546
574.4936, 33.70679
574.9757, 33.44840
575.4578, 33.89204
575.9399, 34.34284
576.4221, 33.74283
576.9042, 32.32630
577.3863, 31.50364
577.8684, 31.79824
578.3505, 32.44527
578.8326, 32.57690
579.3148, 32.14819
579.7969, 31.74917
580.2790, 31.04128
580.7611, 30.73491
581.2432, 31.61179
581.7253, 32.99887
582.2075, 33.68669
582.6896, 33.28165
583.1717, 32.54096
583.6538, 32.55130
584.1359, 33.45985
584.6180, 34.07225
585.1002, 34.43422
585.5823, 34.41559
586.0643, 33.42249
586.5464, 32.26064
587.0286, 32.23013
587.5107, 33.79392
587.9928, 35.27719
588.4749, 34.47296
588.9570, 32.16423
589.4391, 31.77760
589.9213, 34.12091
590.4034, 36.26442
590.8855, 35.97249
591.3676, 33.92281
591.8497, 32.84679
592.3318, 33.45042
592.8140, 33.79613
593.2961, 32.82853
593.7782, 31.54495
594.2603, 31.16651
594.7424, 31.74907
595.2245, 32.48690
595.7067, 32.72984
596.1888, 32.58007
596.6709, 32.62988
597.1530, 33.04198
597.6351, 33.37468
598.1172, 33.59763
598.5994, 33.71111
599.0815, 33.58579
599.5636, 33.30868
600.0457, 33.26440
600.5278, 33.92860
601.0099, 34.82849
601.4921, 34.97599
601.9742, 34.36094
602.4563, 33.73769
602.9384, 33.34091
603.4205, 33.08559
603.9026, 32.88733
604.3848, 32.74720
604.8669, 32.58178
605.3490, 32.46200
605.8311, 32.23459
606.3132, 31.58361
606.7953, 30.77521
607.2775, 30.42001
607.7596, 30.75119
608.2417, 31.40564
608.7238, 31.84049
609.2059, 32.03279
609.6880, 32.12531
610.1702, 32.32598
610.6523, 32.16549
611.1344, 31.06355
611.6165, 29.67724
612.0986, 28.89985
612.5807, 28.99109
613.0629, 29.58734
613.5450, 30.57926
614.0271, 31.81162
614.5092, 32.86265
614.9913, 33.72324
615.4734, 34.12098
615.9556, 33.68678
616.4377, 32.71695
616.9198, 32.24152
617.4019, 32.33693
617.8840, 32.70461
618.3661, 33.71400
618.8483, 34.66644
619.3304, 34.75261
619.8125, 34.11943
620.2946, 33.56244
620.7767, 33.59761
621.2589, 34.08873
621.7410, 34.75555
622.2231, 35.89433
622.7052, 36.32054
623.1873, 35.16459
623.6694, 33.89262
624.1516, 33.44743
624.6337, 33.58487
625.1158, 33.46239
625.5979, 32.47446
626.0800, 31.50634
626.5621, 31.71140
627.0443, 32.72283
627.5264, 33.14894
628.0085, 32.58585
628.4906, 31.95594
628.9727, 32.17533
629.4548, 33.24744
629.9370, 34.29531
630.4191, 35.70148
630.9012, 36.60682
631.3833, 36.78846
631.8654, 36.40299
632.3475, 35.27725
632.8297, 33.61641
633.3118, 32.34861
633.7939, 32.38519
634.2760, 33.41460
634.7581, 34.20002
635.2402, 34.73511
635.7224, 35.04699
636.2045, 35.08192
636.6866, 34.93773
637.1687, 34.67991
637.6508, 34.31917
638.1329, 34.02407
638.6151, 33.90302
639.0972, 33.81942
639.5793, 33.58702
640.0614, 33.30217
640.5435, 33.25589
641.0256, 33.55226
641.5078, 33.95753
641.9899, 34.12565
642.4720, 33.98686
642.9541, 34.18818
643.4362, 35.52501
643.9183, 36.26076
644.4005, 35.28845
644.8826, 33.90141
645.3647, 33.71244
645.8468, 34.97089
646.3289, 36.26745
646.8110, 36.32934
647.2932, 35.59369
647.7753, 35.18769
648.2574, 35.15787
648.7395, 34.88251
649.2216, 33.85610
649.7037, 32.73469
650.1859, 32.91583
650.6680, 34.89568
651.1501, 35.85969
651.6322, 34.34719
652.1143, 32.98325
652.5964, 33.73693
653.0786, 35.64812
653.5607, 36.82923
654.0428, 36.57159
654.5249, 35.56356
655.0070, 34.51317
655.4891, 33.39159
655.9713, 33.12258
656.4534, 34.17259
656.9355, 35.16900
657.4176, 35.37705
657.8997, 35.20890
658.3818, 35.18746
658.8640, 35.42492
659.3461, 35.34415
659.8282, 34.17242
660.3103, 32.88767
660.7924, 32.69209
661.2745, 33.46078
661.7567, 34.38699
662.2388, 35.09968
662.7209, 35.60773
663.2030, 35.91717
663.6851, 35.97858
664.1672, 36.00528
664.6494, 35.95417
665.1315, 35.91470
665.6136, 35.91359
666.0957, 35.94352
666.5778, 36.00188
667.0599, 36.08978
667.5421, 36.16581
668.0242, 36.32082
668.5063, 36.41407
668.9884, 35.92875
669.4705, 34.82476
669.9526, 34.03954
670.4348, 34.19122
670.9169, 34.80946
671.3990, 34.81138
671.8811, 33.63306
672.3632, 33.25463
672.8453, 34.47226
673.3275, 35.74414
673.8096, 36.27852
674.2917, 36.25539
674.7738, 36.05451
675.2559, 35.82545
675.7380, 35.60099
676.2202, 35.55712
676.7023, 35.63023
677.1844, 34.97754
677.6665, 33.19999
678.1486, 31.96472
678.6307, 32.34046
679.1129, 33.67860
679.5950, 34.83966
680.0771, 35.96281
680.5592, 36.36574
681.0413, 35.12963
681.5234, 33.76438
682.0056, 33.43279
682.4877, 33.93114
682.9698, 34.67061
683.4519, 35.39100
683.9340, 35.97322
684.4161, 36.15425
684.8983, 35.87088
685.3804, 35.97476
685.8625, 36.79507
686.3446, 37.42304
686.8267, 37.41483
687.3088, 37.03096
687.7910, 36.45597
688.2731, 35.68188
688.7552, 35.06911
689.2373, 34.66603
689.7194, 34.58088
690.2015, 35.13885
690.6837, 36.14156
691.1658, 36.93311
691.6479, 37.23915
692.1300, 37.28073
692.6121, 37.35310
693.0942, 37.42827
693.5764, 37.75960
694.0585, 38.90534
694.5406, 39.53772
695.0227, 38.95365
695.5048, 37.90100
695.9869, 37.04761
696.4691, 36.51867
696.9512, 36.39382
697.4333, 37.11816
697.9154, 38.02607
698.3975, 38.05768
698.8796, 37.39006
699.3618, 37.05626
699.8439, 37.46203
700.3260, 38.09534
700.8081, 38.29511
701.2902, 38.03122
701.7723, 37.61774
702.2545, 36.67223
702.7366, 36.05038
703.2187, 36.31665
703.7008, 36.72681
704.1829, 36.33623
704.6650, 35.19261
705.1472, 34.42470
705.6293, 34.93917
706.1114, 36.15946
706.5935, 37.35441
707.0756, 38.47906
707.5577, 39.28682
708.0399, 39.73393
708.5220, 39.66217
709.0041, 38.75264
709.4862, 37.00125
709.9683, 35.86986
710.4504, 35.41017
710.9326, 35.45782
711.4147, 36.37472
711.8968, 37.50927
712.3789, 38.34803
712.8610, 38.85447
713.3431, 39.21474
713.8253, 39.56048
714.3074, 39.79065
714.7895, 39.83186
715.2716, 39.65105
715.7537, 38.80059
716.2358, 37.00474
716.7180, 35.48709
717.2001, 35.41415
717.6822, 36.52925
718.1643, 37.12519
718.6464, 36.60589
719.1285, 36.44348
719.6107, 37.23743
720.0928, 38.04419
720.5749, 38.07026
721.0570, 37.51860
721.5391, 37.07240
722.0212, 37.06134
722.5034, 37.30953
722.9855, 37.78102
723.4676, 38.36635
723.9497, 38.24928
724.4318, 37.21216
724.9139, 36.31818
725.3961, 36.31277
725.8782, 36.84962
726.3603, 36.95500
726.8424, 36.38684
727.3245, 35.95968
727.8066, 35.42548
728.2888, 35.32839
728.7709, 36.42866
729.2530, 38.05482
729.7351, 39.03591
730.2172, 38.97294
730.6993, 38.43456
731.1815, 37.83226
731.6636, 37.25009
732.1457, 37.07173
732.6278, 37.33583
733.1099, 37.58954
733.5920, 37.62302
734.0742, 37.58736
734.5563, 37.78740
735.0384, 38.36908
735.5205, 38.37530
736.0026, 37.06095
736.4847, 36.05236
736.9669, 36.24642
737.4490, 36.88124
737.9311, 37.05678
738.4132, 36.63465
738.8953, 36.04504
739.3774, 35.32415
739.8596, 34.89968
740.3417, 36.13001
740.8238, 38.86377
741.3059, 40.47433
741.7880, 40.06461
742.2701, 39.15670
742.7523, 39.32824
743.2344, 40.44850
743.7165, 40.48531
744.1986, 37.78865
744.6807, 36.37494
745.1628, 38.03227
745.6450, 40.07707
746.1271, 40.25063
746.6092, 38.97312
747.0913, 38.11846
747.5734, 38.71782
748.0555, 39.58523
748.5377, 38.88681
749.0198, 37.18904
749.5019, 36.86147
749.9840, 38.24463
750.4661, 39.57155
750.9482, 39.78510
751.4304, 39.23332
751.9125, 38.73719
752.3946, 38.18510
752.8767, 37.97440
753.3588, 38.34284
753.8409, 38.76112
754.3231, 39.12525
754.8052, 39.35375
755.2873, 39.32294
755.7694, 39.01079
756.2515, 38.61486
756.7336, 38.16845
757.2158, 37.79067
757.6979, 37.62165
758.1800, 37.68919
758.6621, 38.25956
759.1442, 39.48585
759.6263, 40.69986
760.1085, 41.07319
760.5906, 40.60179
761.0727, 40.37026
761.5548, 40.52454
762.0369, 40.70965
762.5190, 40.88963
763.0012, 41.06392
763.4833, 41.18361
763.9654, 41.29097
764.4475, 41.56895
764.9296, 42.30376
765.4117, 42.85150
765.8939, 42.59929
766.3760, 41.81730
766.8581, 40.84594
767.3402, 39.80682
767.8223, 39.07987
768.3044, 38.91585
768.7866, 39.16919
769.2687, 39.51511
769.7508, 40.01159
770.2329, 40.39540
770.7150, 40.68944
771.1971, 40.82637
771.6793, 40.79524
772.1614, 40.58881
772.6435, 39.93378
773.1256, 38.66042
773.6077, 38.37420
774.0898, 40.86763
774.5720, 43.53398
775.0541, 44.16095
775.5362, 43.33163
776.0183, 42.21108
776.5004, 41.22314
776.9825, 40.56004
777.4647, 40.45810
777.9468, 40.82932
778.4289, 41.25068
778.9110, 41.72994
779.3931, 42.25187
779.8752, 42.90459
780.3574, 43.46093
780.8395, 43.78337
781.3216, 43.84377
781.8037, 43.48090
782.2858, 41.92693
782.7679, 41.05566
783.2501, 42.01411
783.7322, 43.26062
784.2143, 43.36945
784.6964, 42.65115
785.1785, 42.31561
785.6606, 42.93437
786.1428, 43.69665
786.6249, 43.56536
787.1070, 42.71307
787.5891, 41.68856
788.0712, 40.49999
788.5533, 39.88911
789.0355, 40.34953
789.5176, 41.20048
789.9997, 41.31123
790.4818, 40.44666
790.9639, 40.32752
791.4460, 41.94453
791.9282, 43.01316
792.4103, 42.93555
792.8924, 42.15747
793.3745, 40.46721
793.8566, 38.32136
794.3387, 37.58563
794.8209, 40.05404
795.3030, 42.94136
795.7851, 43.05589
796.2672, 41.66590
796.7493, 41.95215
797.2314, 44.14794
797.7136, 45.40626
798.1957, 43.70144
798.6778, 40.56956
799.1599, 40.05897
799.6420, 43.17574
800.1241, 44.70446
800.6063, 43.76838
801.0884, 42.44597
801.5705, 41.30296
802.0526, 40.50864
802.5347, 40.37820
803.0168, 40.96638
803.4990, 41.68074
803.9811, 42.62003
804.4632, 43.35802
804.9453, 43.50075
805.4274, 43.32215
805.9095, 43.12142
806.3917, 43.02710
806.8738, 43.28229
807.3559, 44.25355
807.8380, 45.38396
808.3201, 45.18222
808.8022, 43.72089
809.2844, 42.76360
809.7665, 42.65873
810.2486, 42.84690
810.7307, 43.06378
811.2128, 43.20522
811.6949, 42.90778
812.1771, 41.66450
812.6592, 41.03011
813.1413, 41.52219
813.6234, 42.03949
814.1055, 41.90440
814.5876, 41.60176
815.0698, 42.03108
815.5519, 43.29353
816.0340, 44.09758
816.5161, 43.10919
816.9982, 41.65055
817.4803, 41.28252
817.9625, 41.71231
818.4446, 42.21946
818.9267, 42.60600
819.4088, 42.74206
819.8909, 42.44344
820.3730, 41.95103
820.8552, 42.34520
821.3373, 44.09682
821.8194, 44.54612
822.3015, 42.63354
822.7836, 40.67504
823.2657, 40.04686
823.7479, 40.33569
824.2300, 40.77041
824.7121, 41.35398
825.1942, 41.99248
825.6763, 42.81003
826.1584, 43.52480
826.6406, 43.97897
827.1227, 44.22462
827.6048, 44.29108
828.0869, 44.22213
828.5690, 44.20170
829.0511, 44.49043
829.5333, 44.77880
830.0154, 44.32630
830.4975, 43.33764
830.9796, 42.85358
831.4617, 43.08379
831.9438, 43.61713
832.4260, 44.22435
832.9081, 44.79739
833.3902, 44.97625
833.8723, 44.50933
834.3544, 44.32198
834.8365, 44.92585
835.3187, 45.15324
835.8008, 44.07895
836.2829, 42.65394
836.7650, 42.17376
837.2471, 42.77816
837.7292, 43.17225
838.2114, 42.32571
838.6935, 41.79699
839.1756, 43.39964
839.6577, 45.50746
840.1398, 45.38906
840.6219, 43.11346
841.1041, 41.23723
841.5862, 41.50560
842.0683, 42.94903
842.5504, 44.09174
843.0325, 44.92389
843.5146, 45.26979
843.9968, 45.06765
844.4789, 44.87016
844.9610, 44.95701
845.4431, 45.26081
845.9252, 45.74359
846.4073, 46.59031
846.8895, 46.66088
847.3716, 45.28249
847.8537, 44.01666
848.3358, 43.13369
848.8179, 42.54388
849.3000, 42.17898
849.7822, 42.02900
850.2643, 42.11052
850.7464, 42.72700
851.2285, 43.09726
851.7106, 42.21620
852.1927, 41.22210
852.6749, 41.82222
853.1570, 43.57685
853.6391, 44.66145
854.1212, 44.23571
854.6033, 43.17231
855.0854, 42.43292
855.5676, 42.01280
856.0497, 42.07812
856.5318, 42.65587
857.0139, 42.68035
857.4960, 41.66805
857.9781, 40.52682
858.4603, 40.29408
858.9424, 40.85836
859.4245, 40.87868
859.9066, 39.80505
860.3887, 39.13394
860.8708, 39.08674
861.3530, 39.34111
861.8351, 39.98746
862.3172, 40.74098
862.7993, 41.10810
863.2814, 40.97976
863.7635, 40.62018
864.2457, 39.64128
864.7278, 38.95000
865.2099, 39.63208
865.6920, 40.97998
866.1741, 41.78545
866.6563, 41.79159
867.1384, 41.40127
867.6205, 40.82074
868.1026, 40.23965
868.5847, 40.02571
869.0668, 40.14988
869.5490, 40.47764
870.0311, 41.00164
870.5132, 41.50508
870.9953, 41.92269
871.4774, 42.08756
871.9595, 41.57503
872.4417, 40.14140
872.9238, 39.36965
873.4059, 39.68808
873.8880, 39.98476
874.3701, 39.90576
874.8522, 39.69207
875.3344, 39.47128
875.8165, 39.27488
876.2986, 39.24849
876.7807, 39.61518
877.2628, 39.86757
877.7449, 40.01299
878.2271, 39.81347
878.7092, 38.75541
879.1913, 37.23822
879.6734, 36.09949
880.1555, 35.63860
880.6376, 35.61170
881.1198, 35.90324
881.6019, 36.42884
882.0840, 37.21078
882.5661, 38.11371
883.0482, 38.56217
883.5303, 38.41194
884.0125, 37.87941
884.4946, 37.08213
884.9767, 36.17877
885.4588, 35.76812
885.9409, 35.99086
886.4230, 35.86373
886.9052, 35.06975
887.3873, 34.49968
887.8694, 34.73855
888.3515, 35.34632
888.8336, 35.63558
889.3157, 35.58839
889.7979, 35.35611
890.2800, 34.68132
890.7621, 34.16034
891.2442, 34.04876
891.7263, 34.07678
892.2084, 34.00164
892.6906, 33.85761
893.1727, 33.80016
893.6548, 33.85373
894.1369, 34.11239
894.6190, 34.96946
895.1011, 35.82549
895.5833, 35.95527
896.0654, 35.47050
896.5475, 34.58073
897.0296, 33.43955
897.5117, 32.64236
897.9938, 32.88380
898.4760, 33.72522
898.9581, 33.97387
899.4402, 33.68113
899.9223, 33.44104
900.4044, 33.33843
900.8865, 33.48588
901.3687, 34.06889
901.8508, 34.69627
902.3329, 34.43428
902.8150, 32.97889
903.2971, 32.16302
903.7792, 32.31339
904.2614, 32.54435
904.7435, 32.69105
905.2256, 32.73227
905.7077, 32.68077
906.1898, 32.51817
906.6719, 32.12613
907.1541, 31.10761
907.6362, 30.47384
908.1183, 30.77489
908.6004, 31.26089
909.0825, 31.56264
909.5646, 31.60593
910.0468, 31.18768
910.5289, 30.30560
911.0110, 29.72352
911.4931, 30.20889
911.9752, 31.03510
912.4573, 31.48105
912.9395, 31.64844
913.4216, 31.74160
913.9037, 31.79947
914.3858, 31.81817
914.8679, 31.80635
915.3500, 31.65524
915.8321, 30.96735
916.3142, 29.88976
916.7963, 29.67892
917.2784, 30.41501
917.7606, 31.16470
918.2427, 31.63995
918.7248, 31.86638
919.2069, 31.85220
919.6890, 31.61822
920.1711, 31.31129
920.6533, 30.87480
921.1354, 30.50829
921.6175, 30.36232
922.0996, 30.11121
922.5817, 29.27361
923.0638, 28.36553
923.5460, 28.28140
924.0281, 29.16782
924.5102, 29.72512
924.9923, 29.22985
925.4744, 29.07076
925.9565, 30.43853
926.4387, 31.81007
926.9208, 31.36476
927.4029, 29.67228
927.8850, 28.89601
928.3671, 30.04921
928.8492, 30.94393
929.3314, 29.31476
929.8135, 27.24818
930.2956, 27.42347
930.7777, 28.96492
931.2598, 29.56056
931.7419, 28.78482
932.2241, 28.16796
932.7062, 29.05353
933.1883, 30.44839
933.6704, 30.35163
934.1525, 29.13362
934.6346, 28.45226
935.1168, 28.46695
935.5989, 28.73311
936.0810, 29.08903
936.5631, 29.23799
937.0452, 28.66878
937.5273, 27.45721
938.0095, 26.90720
938.4916, 27.18692
938.9737, 27.43906
939.4558, 27.51907
939.9379, 27.49925
940.4200, 27.28228
940.9022, 27.08417
941.3843, 27.55810
941.8664, 29.24953
942.3485, 29.93284
942.8306, 28.50510
943.3127, 27.52694
943.7949, 28.18050
944.2770, 29.16408
944.7591, 29.40539
945.2412, 28.92829
945.7233, 28.07690
946.2054, 26.47896
946.6876, 25.50417
947.1697, 26.12458
947.6518, 27.08118
948.1339, 27.43154
948.6160, 27.47464
949.0981, 27.90811
949.5803, 28.77929
950.0624, 29.30095
950.5445, 28.81998
951.0266, 28.05335
951.5087, 27.39956
951.9908, 27.10379
952.4730, 28.11871
952.9551, 29.95088
953.4372, 30.47486
953.9193, 28.84624
954.4014, 26.72665
954.8835, 25.96811
955.3657, 26.19424
955.8478, 26.29218
956.3299, 26.33283
956.8120, 27.19533
957.2941, 29.05990
957.7762, 29.76641
958.2584, 27.66983
958.7405, 24.57871
959.2226, 24.45676
959.7047, 27.59542
960.1868, 28.58678
960.6689, 26.61871
961.1511, 25.97650
961.6332, 28.62003
962.1153, 31.35791
962.5974, 31.09003
963.0795, 28.58553
963.5616, 27.21973
964.0438, 27.54156
964.5259, 27.82097
965.0080, 28.18035
965.4901, 28.33706
965.9722, 28.04839
966.4543, 27.62084
966.9365, 27.33950
967.4186, 27.20843
967.9007, 27.16734
968.3828, 27.12804
968.8649, 27.29427
969.3470, 28.21303
969.8292, 28.84036
970.3113, 28.08271
970.7934, 26.77502
971.2755, 26.29661
971.7576, 26.85446
972.2397, 27.46373
972.7219, 27.70417
973.2040, 27.79519
973.6861, 27.92432
974.1682, 27.94738
974.6503, 27.54393
975.1324, 26.90461
975.6146, 26.58392
976.0967, 26.77107
976.5788, 27.03125
977.0609, 26.90839
977.5430, 26.69561
978.0251, 26.97512
978.5073, 27.44666
978.9894, 27.28627
979.4715, 26.49427
979.9536, 25.77750
980.4357, 25.51126
980.9178, 25.67881
981.4000, 26.48523
981.8821, 27.69181
982.3642, 28.34461
982.8463, 28.48238
983.3284, 28.51379
983.8105, 28.53685
984.2927, 28.50602
984.7748, 28.38548
985.2569, 28.19600
985.7390, 27.89853
986.2211, 27.46584
986.7032, 27.70415
987.1854, 28.87745
987.6675, 29.10788
988.1496, 27.43628
988.6317, 25.78476
989.1138, 26.14250
989.5959, 27.90957
990.0781, 28.44832
990.5602, 27.26640
991.0423, 26.23661
991.5244, 25.14494
992.0065, 24.71837
992.4886, 25.90568
992.9708, 27.19412
993.4529, 26.58380
993.9350, 24.30492
994.4171, 23.10277
994.8992, 23.47912
995.3813, 24.14941
995.8635, 25.48032
996.3456, 26.63819
996.8277, 27.28001
997.3098, 27.52590
997.7919, 27.33918
998.2740, 26.78573
998.7562, 26.68346
999.2383, 28.03017
999.7204, 28.66280
1000.203, 27.12343
1000.685, 25.58062
1001.167, 25.74051
1001.649, 26.81812
1002.131, 27.46897
1002.613, 27.47066
1003.095, 27.35677
1003.577, 27.28707
1004.059, 27.25436
1004.542, 27.27488
1005.024, 27.31356
1005.506, 27.40337
1005.988, 27.46386
1006.470, 27.31377
1006.952, 26.91265
1007.434, 26.46684
1007.916, 26.01076
1008.398, 25.68377
1008.881, 25.54389
1009.363, 25.66407
1009.845, 26.49602
1010.327, 27.68612
1010.809, 28.05290
1011.291, 27.16268
1011.773, 26.01825
1012.255, 25.44296
1012.738, 25.28578
1013.220, 25.46648
1013.702, 25.82999
1014.184, 25.90976
1014.666, 25.73947
1015.148, 25.95895
1015.630, 26.87823
1016.112, 27.57701
1016.594, 26.61356
1017.077, 24.74050
1017.559, 23.87690
1018.041, 23.95124
1018.523, 24.90200
1019.005, 26.59712
1019.487, 27.79110
1019.969, 27.76834
1020.451, 27.05819
1020.934, 26.28207
1021.416, 25.53270
1021.898, 25.44808
1022.380, 26.00727
1022.862, 26.46700
1023.344, 26.68669
1023.826, 26.66934
1024.308, 26.34829
1024.791, 26.09152
1025.273, 26.65673
1025.755, 28.01229
1026.237, 29.03012
1026.719, 29.76951
1027.201, 29.52890
1027.683, 27.89953
1028.165, 26.45816
1028.647, 26.37866
1029.130, 26.92747
1029.612, 26.45214
1030.094, 26.57393
1030.576, 26.83765
1031.058, 26.07864
1031.540, 26.96301
1032.022, 26.17398
1032.504, 25.40414
1032.986, 25.92542
1033.469, 27.18651
1033.951, 27.97382
1034.433, 28.25393
1034.915, 28.25776
1035.397, 28.04903
1035.879, 27.37529
1036.361, 25.67756
1036.843, 24.22848
1037.326, 23.91219
1037.808, 24.49246
1038.290, 25.53948
1038.772, 27.30433
1039.254, 28.42565
1039.736, 28.71901
1040.218, 28.64820
1040.700, 27.97338
1041.182, 27.30785
1041.665, 27.10259
1042.147, 27.21048
1042.629, 27.34547
1043.111, 27.59011
1043.593, 27.50186
1044.075, 26.57928
1044.557, 26.00315
1045.039, 26.46658
1045.521, 26.90808
1046.004, 26.34266
1046.486, 25.29863
1046.968, 24.99621
1047.450, 25.67521
1047.932, 26.16622
1048.414, 26.25636
1048.896, 26.26914
1049.378, 26.05464
1049.861, 26.01683
1050.343, 26.85172
1050.825, 27.94045
1051.307, 27.87432
1051.789, 26.31595
1052.271, 25.25661
1052.753, 25.54370
1053.235, 25.75917
1053.718, 25.10761
1054.200, 24.56250
1054.682, 25.22417
1055.164, 26.39381
1055.646, 26.53314
1056.128, 25.34764
1056.610, 24.65859
1057.092, 25.73056
1057.574, 26.32177
1058.057, 24.74574
1058.539, 23.25404
1059.021, 24.08340
1059.503, 26.05413
1059.985, 26.73376
1060.467, 25.74424
1060.949, 25.11710
1061.431, 26.06638
1061.913, 26.75440
1062.396, 26.09177
1062.878, 25.26336
1063.360, 25.12796
1063.842, 25.51459
1064.324, 26.20892
1064.806, 27.10719
1065.288, 27.51194
1065.770, 26.54548
1066.253, 25.88005
1066.735, 26.74964
1067.217, 27.64274
1067.699, 27.27801
1068.181, 26.20114
1068.663, 25.25390
1069.145, 24.61869
1069.627, 24.34632
1070.109, 24.68935
1070.592, 25.00056
1071.074, 25.10398
1071.556, 24.95025
1072.038, 24.12886
1072.520, 23.23202
1073.002, 23.21397
1073.484, 24.06284
1073.966, 24.81744
1074.448, 25.07574
1074.931, 25.30615
1075.413, 25.96015
1075.895, 26.42343
1076.377, 26.06542
1076.859, 25.35601
1077.341, 24.96007
1077.823, 24.88095
1078.305, 24.60901
1078.788, 23.73867
1079.270, 23.40766
1079.752, 24.91569
1080.234, 26.30875
1080.716, 26.01211
1081.198, 25.03114
1081.680, 24.62328
1082.162, 24.74662
1082.644, 24.58994
1083.127, 23.78201
1083.609, 23.32043
1084.091, 23.86112
1084.573, 24.63642
1085.055, 25.46362
1085.537, 26.05948
1086.019, 26.09086
1086.501, 25.65975
1086.984, 25.01574
1087.466, 24.18555
1087.948, 23.57374
1088.430, 23.53198
1088.912, 23.52543
1089.394, 23.38770
1089.876, 23.06054
1090.358, 22.04434
1090.840, 20.95197
1091.323, 21.24747
1091.805, 23.22500
1092.287, 24.68514
1092.769, 24.86219
1093.251, 24.29284
1093.733, 22.18499
1094.215, 20.40722
1094.697, 20.80128
1095.179, 22.36080
1095.662, 23.38577
1096.144, 23.64955
1096.626, 23.80625
1097.108, 24.22700
1097.590, 24.30680
1098.072, 23.46246
1098.554, 22.63508
1099.036, 22.17590
1099.519, 22.24009
1100.001, 23.50187
1100.483, 25.59179
1100.965, 26.23344
1101.447, 23.69268
1101.929, 22.37023
1102.411, 24.89813
1102.893, 27.08319
1103.375, 26.58612
1103.858, 25.04103
1104.340, 23.82685
1104.822, 23.13009
1105.304, 23.18552
1105.786, 24.36432
1106.268, 25.09580
1106.750, 24.61942
1107.232, 24.29353
1107.714, 24.98144
1108.197, 25.60482
1108.679, 25.06591
1109.161, 23.88107
1109.643, 23.31097
1110.125, 23.55153
1110.607, 23.65445
1111.089, 23.37299
1111.571, 23.18167
1112.054, 23.23649
1112.536, 23.33065
1113.018, 23.81990
1113.500, 24.03297
1113.982, 22.40858
1114.464, 18.88723
1114.946, 17.35352
1115.428, 18.97214
1115.911, 20.66135
1116.393, 22.67280
1116.875, 24.18042
1117.357, 24.92792
1117.839, 24.92939
1118.321, 23.82905
1118.803, 21.94809
1119.285, 21.22744
1119.767, 22.33737
1120.250, 22.89831
1120.732, 22.51244
1121.214, 22.42083
1121.696, 23.20752
1122.178, 24.02013
1122.660, 24.14730
1123.142, 23.80738
1123.624, 23.55636
1124.106, 23.40710
1124.589, 23.19421
1125.071, 22.74822
1125.553, 22.96435
1126.035, 24.37846
1126.517, 25.27997
1126.999, 24.45768
1127.481, 23.01026
1127.963, 22.74829
1128.446, 23.52484
1128.928, 23.57721
1129.410, 22.81352
1129.892, 22.08966
1130.374, 21.46024
1130.856, 21.21409
1131.338, 21.49241
1131.820, 22.12012
1132.302, 22.99655
1132.785, 23.90531
1133.267, 24.06470
1133.749, 23.53018
1134.231, 23.20725
1134.713, 23.12915
1135.195, 23.04075
1135.677, 22.86916
1136.159, 22.47362
1136.641, 21.71817
1137.124, 20.88119
1137.606, 20.37642
1138.088, 20.19177
1138.570, 20.35145
1139.052, 20.79774
1139.534, 21.23894
1140.016, 21.65173
1140.498, 22.31747
1140.981, 23.36030
1141.463, 24.22948
1141.945, 24.28139
1142.427, 23.86464
1142.909, 23.38440
1143.391, 22.99121
1143.873, 23.28888
1144.355, 23.96916
1144.838, 23.91111
1145.320, 22.88035
1145.802, 21.61547
1146.284, 20.43015
1146.766, 19.76860
1147.248, 20.40136
1147.730, 21.53901
1148.212, 22.47464
1148.694, 23.08048
1149.177, 23.09039
1149.659, 22.65930
1150.141, 22.41376
1150.623, 22.61031
1151.105, 22.84007
1151.587, 22.66383
1152.069, 22.65415
1152.551, 23.41511
1153.033, 24.36125
1153.516, 25.15183
1153.998, 25.54373
1154.480, 24.90607
1154.962, 23.22946
1155.444, 22.25377
1155.926, 23.23873
1156.408, 23.99855
1156.890, 23.64517
1157.373, 23.14697
1157.855, 22.90962
1158.337, 22.93134
1158.819, 23.43678
1159.301, 24.20670
1159.783, 24.19759
1160.265, 22.85159
1160.747, 21.99246
1161.229, 22.08961
1161.712, 22.17061
1162.194, 21.70672
1162.676, 21.54758
1163.158, 22.55227
1163.640, 24.01726
1164.122, 24.73877
1164.604, 24.71836
1165.086, 23.84107
1165.568, 21.31524
1166.051, 20.52523
1166.533, 22.48789
1167.015, 24.05868
1167.497, 23.80003
1167.979, 23.00428
1168.461, 22.94666
1168.943, 23.47763
1169.425, 24.30113
1169.908, 25.44287
1170.390, 25.53097
1170.872, 24.51020
1171.354, 23.97019
1171.836, 24.29104
1172.318, 24.34369
1172.800, 23.41245
1173.282, 22.16719
1173.765, 21.41900
1174.247, 21.19031
1174.729, 21.81860
1175.211, 23.00736
1175.693, 23.86715
1176.175, 24.22174
1176.657, 23.56947
1177.139, 21.90717
1177.621, 20.72772
1178.104, 21.26969
1178.586, 22.26677
1179.068, 22.04098
1179.550, 21.48356
1180.032, 21.90092
1180.514, 22.88060
1180.996, 23.61038
1181.478, 24.03596
1181.960, 24.65911
1182.443, 25.69645
1182.925, 26.00056
1183.407, 24.23400
1183.889, 22.35852
1184.371, 21.02426
1184.853, 20.61923
1185.335, 22.16270
1185.817, 24.49004
1186.300, 25.95359
1186.782, 26.33126
1187.264, 25.76778
1187.746, 23.17225
1188.228, 22.01550
1188.710, 24.80411
1189.192, 26.63281
1189.674, 24.30135
1190.156, 21.73266
1190.639, 22.54816
1191.121, 25.10482
1191.603, 25.78440
1192.085, 24.41267
1192.567, 23.46072
1193.049, 22.92327
1193.531, 22.89451
1194.013, 23.61455
1194.495, 24.06138
1194.978, 23.63713
1195.460, 23.37334
1195.942, 24.50474
1196.424, 26.30056
1196.906, 26.54493
1197.388, 25.30041
1197.870, 23.34314
1198.352, 20.83424
1198.835, 20.52335
1199.317, 22.77973
1199.799, 24.40449
1200.281, 23.70447
1200.763, 22.18959
1201.245, 21.31415
1201.727, 21.12899
1202.209, 22.10380
1202.692, 23.65402
1203.174, 24.69408
1203.656, 25.18552
1204.138, 25.29523
1204.620, 25.09558
1205.102, 24.58682
1205.584, 23.64968
1206.066, 23.05410
1206.548, 24.01251
1207.031, 24.78581
1207.513, 23.18447
1207.995, 21.40911
1208.477, 22.43944
1208.959, 24.96346
1209.441, 25.75528
1209.923, 24.36894
1210.405, 23.32576
1210.887, 23.37704
1211.370, 23.56180
1211.852, 23.65273
1212.334, 23.94858
1212.816, 25.23169
1213.298, 26.10217
1213.780, 24.87973
1214.262, 22.62947
1214.744, 22.14743
1215.227, 23.65561
1215.709, 24.55233
1216.191, 24.82032
1216.673, 24.40647
1217.155, 23.08305
1217.637, 22.28917
1218.119, 22.72606
1218.601, 23.42261
1219.083, 23.33454
1219.566, 22.96244
1220.048, 23.83429
1220.530, 23.69308
1221.012, 23.70983
1221.494, 24.33923
1221.976, 23.89218
1222.458, 24.45333
1222.940, 25.20811
1223.422, 25.77239
1223.905, 25.99628
1224.387, 25.45770
1224.869, 24.96935
1225.351, 25.65835
1225.833, 26.68660
1226.315, 27.56971
1226.797, 27.75956
1227.279, 25.64055
1227.762, 22.00147
1228.244, 20.51068
1228.726, 22.60511
1229.208, 24.92916
1229.690, 27.43316
1230.172, 28.47672
1230.654, 25.87635
1231.136, 23.34726
1231.619, 23.70517
1232.101, 25.30001
1232.583, 25.97023
1233.065, 25.80276
1233.547, 25.31272
1234.029, 24.21519
1234.511, 23.81185
1234.993, 24.29562
1235.475, 24.72167
1235.958, 24.83105
1236.440, 25.17726
1236.922, 26.19159
1237.404, 26.99502
1237.886, 26.24508
1238.368, 24.58187
1238.850, 23.95980
1239.332, 24.18201
1239.814, 24.61642
1240.297, 25.10840
1240.779, 25.20136
1241.261, 24.87883
1241.743, 24.65401
1242.225, 24.79399
1242.707, 25.08809
1243.189, 25.58809
1243.671, 25.88804
1244.154, 25.54347
1244.636, 24.87515
1245.118, 23.79720
1245.600, 22.88217
1246.082, 23.42382
1246.564, 25.15731
1247.046, 25.74070
1247.528, 24.06868
1248.010, 22.94594
1248.493, 22.89074
1248.975, 23.38068
1249.457, 24.95584
1249.939, 26.14475
1250.421, 26.02978
1250.903, 25.20336
1251.385, 24.38957
1251.867, 23.59002
1252.349, 22.64651
1252.832, 21.45441
1253.314, 21.75380
1253.796, 23.64646
1254.278, 24.90067
1254.760, 25.02889
1255.242, 24.99100
1255.724, 25.30774
1256.206, 25.70495
1256.689, 25.80439
1257.171, 25.90800
1257.653, 26.99752
1258.135, 28.12333
1258.617, 27.19499
1259.099, 25.16949
1259.581, 24.13329
1260.063, 24.26999
1260.546, 24.74358
1261.028, 25.33722
1261.510, 25.43147
1261.992, 23.87176
1262.474, 22.99355
1262.956, 24.58120
1263.438, 26.16932
1263.920, 26.05972
1264.402, 25.21810
1264.885, 24.69749
1265.367, 24.50496
1265.849, 24.73129
1266.331, 24.17134
1266.813, 25.38497
1267.295, 23.76795
1267.777, 22.95297
1268.259, 23.31258
1268.741, 24.33520
1269.224, 25.87932
1269.706, 26.90105
1270.188, 26.33665
1270.670, 24.94771
1271.152, 23.86171
1271.634, 23.18264
1272.116, 23.19711
1272.598, 23.80077
1273.081, 25.24107
1273.563, 26.94995
1274.045, 27.23711
1274.527, 25.72695
1275.009, 23.91796
1275.491, 21.96207
1275.973, 21.21735
1276.455, 23.23496
1276.938, 25.52197
1277.420, 27.08035
1277.902, 27.94308
1278.384, 28.10345
1278.866, 27.64988
1279.348, 26.51855
1279.830, 24.77873
1280.312, 24.26215
1280.794, 25.43710
1281.276, 25.97553
1281.759, 25.69557
1282.241, 25.14600
1282.723, 24.39936
1283.205, 24.37816
1283.687, 25.73388
1284.169, 26.96757
1284.651, 25.83146
1285.133, 23.77960
1285.616, 23.30139
1286.098, 24.39733
##END=



