##NAMES=Argyrodite
##RRUFFID=R050437
##IDEAL CHEMISTRY=Ag^1+^_8_Ge^4+^S^2-^_6_
##LOCALITY=Himmelsfurst mine, Freiberg, Saxony, Germany
##OWNER=RRUFF
##SOURCE=University of Arizona Mineral Museum
##DESCRIPTION=Steel gray with a red hint, mass of poorly formed crystals, associated with pyrargyrite.
##STATUS=The identification of this mineral is confirmed by single-crystal X-ray diffraction and chemical analysis.
##URL=rruff.info/R050437
##MEASURED CHEMISTRY=Ag_8.00_Ge_1.00_S_6.00_
197.070, 2434.573
197.552, 2433.821
198.034, 2440.049
198.516, 2446.289
198.998, 2452.238
199.480, 2456.327
199.963, 2455.312
200.445, 2448.073
200.927, 2439.315
201.409, 2428.774
201.891, 2418.928
202.373, 2418.095
202.855, 2436.622
203.337, 2462.569
203.820, 2477.927
204.302, 2480.508
204.784, 2479.843
205.266, 2483.665
205.748, 2489.627
206.230, 2491.940
206.712, 2486.580
207.194, 2477.953
207.676, 2470.588
208.159, 2464.099
208.641, 2461.629
209.123, 2468.943
209.605, 2481.905
210.087, 2491.190
210.569, 2492.186
211.051, 2490.131
211.533, 2490.566
212.016, 2493.565
212.498, 2498.477
212.980, 2506.026
213.462, 2515.165
213.944, 2523.651
214.426, 2532.765
214.908, 2539.820
215.390, 2541.130
215.872, 2536.586
216.355, 2531.108
216.837, 2526.193
217.319, 2522.668
217.801, 2521.924
218.283, 2523.618
218.765, 2528.644
219.247, 2540.723
219.729, 2559.308
220.212, 2573.726
220.694, 2578.723
221.176, 2575.262
221.658, 2567.080
222.140, 2549.665
222.622, 2533.928
223.104, 2528.540
223.586, 2532.356
224.068, 2537.753
224.551, 2542.332
225.033, 2545.840
225.515, 2547.760
225.997, 2546.284
226.479, 2546.604
226.961, 2553.146
227.443, 2564.370
227.925, 2574.844
228.408, 2583.792
228.890, 2589.283
229.372, 2586.604
229.854, 2571.211
230.336, 2560.574
230.818, 2565.411
231.300, 2580.840
231.782, 2595.229
232.264, 2605.125
232.747, 2611.901
233.229, 2618.454
233.711, 2626.364
234.193, 2628.951
234.675, 2616.132
235.157, 2598.089
235.639, 2595.774
236.121, 2617.490
236.604, 2645.077
237.086, 2649.565
237.568, 2627.172
238.050, 2609.648
238.532, 2605.127
239.014, 2607.908
239.496, 2612.072
239.978, 2616.550
240.460, 2619.929
240.943, 2619.283
241.425, 2613.117
241.907, 2613.343
242.389, 2630.859
242.871, 2649.214
243.353, 2649.479
243.835, 2630.363
244.317, 2611.043
244.799, 2611.206
245.282, 2634.686
245.764, 2647.822
246.246, 2643.477
246.728, 2634.770
247.210, 2628.357
247.692, 2625.222
248.174, 2626.068
248.656, 2632.521
249.139, 2644.612
249.621, 2650.834
250.103, 2647.042
250.585, 2642.445
251.067, 2639.360
251.549, 2638.646
252.031, 2642.280
252.513, 2652.302
252.995, 2667.478
253.478, 2677.415
253.960, 2681.453
254.442, 2681.911
254.924, 2677.316
255.406, 2669.809
255.888, 2661.697
256.370, 2653.805
256.852, 2647.785
257.335, 2649.468
257.817, 2671.585
258.299, 2686.576
258.781, 2688.042
259.263, 2683.125
259.745, 2679.536
260.227, 2680.197
260.709, 2683.041
261.191, 2683.597
261.674, 2676.739
262.156, 2676.074
262.638, 2690.184
263.120, 2704.740
263.602, 2705.556
264.084, 2690.912
264.566, 2673.078
265.048, 2670.081
265.530, 2690.971
266.013, 2701.942
266.495, 2697.190
266.977, 2688.663
267.459, 2680.121
267.941, 2673.291
268.423, 2670.518
268.905, 2675.892
269.387, 2690.929
269.870, 2698.467
270.352, 2687.117
270.834, 2678.269
271.316, 2678.417
271.798, 2686.709
272.280, 2700.603
272.762, 2721.004
273.244, 2745.656
273.727, 2756.886
274.209, 2746.482
274.691, 2733.406
275.173, 2717.900
275.655, 2705.282
276.137, 2704.778
276.619, 2723.591
277.101, 2752.343
277.583, 2770.312
278.065, 2776.183
278.548, 2774.339
279.030, 2759.274
279.512, 2740.725
279.994, 2727.508
280.476, 2722.069
280.958, 2722.377
281.440, 2728.794
281.922, 2742.197
282.405, 2750.102
282.887, 2745.049
283.369, 2735.826
283.851, 2730.445
284.333, 2729.747
284.815, 2729.589
285.297, 2725.732
285.779, 2719.405
286.262, 2716.791
286.744, 2719.751
287.226, 2725.793
287.708, 2734.258
288.190, 2744.690
288.672, 2751.195
289.154, 2748.518
289.636, 2741.180
290.118, 2736.421
290.601, 2734.892
291.083, 2736.673
291.565, 2745.141
292.047, 2758.264
292.529, 2764.072
293.011, 2751.169
293.493, 2737.249
293.975, 2741.573
294.457, 2762.385
294.940, 2778.600
295.422, 2775.432
295.904, 2756.938
296.386, 2745.615
296.868, 2745.114
297.350, 2747.099
297.832, 2748.170
298.314, 2749.261
298.797, 2753.601
299.279, 2763.345
299.761, 2774.561
300.243, 2776.446
300.725, 2755.449
301.207, 2746.314
301.689, 2762.109
302.171, 2786.788
302.654, 2803.890
303.136, 2808.998
303.618, 2806.902
304.100, 2803.859
304.582, 2799.436
305.064, 2795.218
305.546, 2789.975
306.028, 2785.929
306.510, 2783.158
306.992, 2782.496
307.475, 2786.893
307.957, 2801.035
308.439, 2825.610
308.921, 2835.481
309.403, 2810.007
309.885, 2790.222
310.367, 2788.551
310.849, 2799.309
311.332, 2812.725
311.814, 2823.985
312.296, 2832.523
312.778, 2835.866
313.260, 2831.015
313.742, 2826.464
314.224, 2823.019
314.706, 2821.199
315.189, 2821.799
315.671, 2825.086
316.153, 2829.837
316.635, 2835.199
317.117, 2841.492
317.599, 2845.409
318.081, 2842.745
318.563, 2840.630
319.045, 2845.274
319.528, 2856.351
320.010, 2866.589
320.492, 2869.259
320.974, 2866.943
321.456, 2869.991
321.938, 2882.042
322.420, 2893.292
322.902, 2893.462
323.384, 2886.498
323.867, 2882.826
324.349, 2887.293
324.831, 2895.426
325.313, 2904.322
325.795, 2913.783
326.277, 2917.786
326.759, 2909.916
327.241, 2895.055
327.724, 2889.314
328.206, 2900.721
328.688, 2909.966
329.170, 2906.944
329.652, 2895.648
330.134, 2882.898
330.616, 2870.096
331.098, 2861.478
331.581, 2866.485
332.063, 2897.049
332.545, 2913.684
333.027, 2900.818
333.509, 2881.018
333.991, 2875.481
334.473, 2886.015
334.955, 2898.650
335.437, 2898.614
335.919, 2883.409
336.402, 2875.901
336.884, 2877.687
337.366, 2884.302
337.848, 2901.229
338.330, 2921.279
338.812, 2929.677
339.294, 2916.189
339.776, 2888.289
340.259, 2875.401
340.741, 2885.508
341.223, 2898.870
341.705, 2915.722
342.187, 2932.050
342.669, 2943.476
343.151, 2948.822
343.633, 2951.949
344.116, 2957.844
344.598, 2966.940
345.080, 2975.409
345.562, 2986.426
346.044, 2992.862
346.526, 2985.180
347.008, 2967.042
347.490, 2956.333
347.973, 2971.253
348.455, 3001.283
348.937, 3017.141
349.419, 3015.282
349.901, 3008.774
350.383, 3003.569
350.865, 2999.749
351.347, 2997.562
351.829, 2996.069
352.311, 2997.329
352.794, 3007.068
353.276, 3022.518
353.758, 3029.695
354.240, 3021.230
354.722, 3003.972
355.204, 2990.635
355.686, 2978.748
356.168, 2975.302
356.651, 2990.972
357.133, 3011.470
357.615, 3019.150
358.097, 3011.324
358.579, 2998.627
359.061, 2992.162
359.543, 2993.141
360.025, 2992.318
360.508, 2987.218
360.990, 2983.070
361.472, 2980.911
361.954, 2981.537
362.436, 2986.821
362.918, 2998.303
363.400, 3013.684
363.882, 3025.216
364.364, 3034.923
364.847, 3036.606
365.329, 3021.631
365.811, 3004.069
366.293, 2995.388
366.775, 2998.396
367.257, 3008.501
367.739, 3024.061
368.221, 3045.983
368.703, 3057.147
369.186, 3049.263
369.668, 3038.084
370.150, 3031.688
370.632, 3029.382
371.114, 3028.441
371.596, 3026.957
372.078, 3026.271
372.560, 3031.862
373.043, 3045.438
373.525, 3049.956
374.007, 3028.896
374.489, 2996.593
374.971, 2982.753
375.453, 2996.813
375.935, 3012.211
376.417, 3016.375
376.900, 3011.750
377.382, 3001.866
377.864, 2986.811
378.346, 2972.157
378.828, 2965.126
379.310, 2967.847
379.792, 2971.346
380.274, 2977.103
380.756, 2982.320
381.238, 2985.371
381.721, 2986.236
382.203, 2985.183
382.685, 2982.169
383.167, 2977.630
383.649, 2974.445
384.131, 2972.217
384.613, 2972.074
385.095, 2978.303
385.578, 2984.597
386.060, 2982.511
386.542, 2970.203
387.024, 2956.559
387.506, 2955.832
387.988, 2971.645
388.470, 2977.477
388.952, 2960.436
389.435, 2944.530
389.917, 2944.539
390.399, 2956.192
390.881, 2965.504
391.363, 2963.480
391.845, 2955.063
392.327, 2949.623
392.809, 2947.423
393.291, 2946.392
393.774, 2947.679
394.256, 2948.381
394.738, 2942.667
395.220, 2926.290
395.702, 2913.536
396.184, 2914.209
396.666, 2923.035
397.148, 2931.145
397.630, 2936.720
398.113, 2938.263
398.595, 2932.950
399.077, 2918.850
399.559, 2909.559
400.041, 2909.430
400.523, 2909.894
401.005, 2905.687
401.487, 2898.320
401.970, 2892.721
402.452, 2891.935
402.934, 2893.628
403.416, 2889.482
403.898, 2869.801
404.380, 2860.543
404.862, 2872.208
405.344, 2888.104
405.827, 2894.554
406.309, 2890.195
406.791, 2884.673
407.273, 2890.667
407.755, 2907.114
408.237, 2908.978
408.719, 2884.580
409.201, 2864.788
409.683, 2872.126
410.165, 2893.263
410.648, 2904.792
411.130, 2895.476
411.612, 2880.683
412.094, 2876.657
412.576, 2881.874
413.058, 2886.104
413.540, 2886.093
414.022, 2883.544
414.505, 2880.232
414.987, 2875.684
415.469, 2873.403
415.951, 2875.581
416.433, 2879.281
416.915, 2882.480
417.397, 2884.778
417.879, 2885.899
418.362, 2885.697
418.844, 2884.132
419.326, 2880.845
419.808, 2871.631
420.290, 2865.804
420.772, 2869.110
421.254, 2874.073
421.736, 2871.409
422.218, 2859.225
422.701, 2845.252
423.183, 2838.948
423.665, 2840.922
424.147, 2846.101
424.629, 2861.817
425.111, 2871.711
425.593, 2863.089
426.075, 2843.682
426.557, 2829.835
427.040, 2828.571
427.522, 2835.838
428.004, 2852.201
428.486, 2876.989
428.968, 2886.010
429.450, 2863.053
429.932, 2829.085
430.414, 2818.146
430.897, 2833.168
431.379, 2846.680
431.861, 2849.040
432.343, 2847.963
432.825, 2852.936
433.307, 2863.751
433.789, 2872.110
434.271, 2871.558
434.754, 2863.094
435.236, 2855.550
435.718, 2844.010
436.200, 2839.511
436.682, 2850.592
437.164, 2865.895
437.646, 2872.237
438.128, 2866.855
438.610, 2858.592
439.092, 2859.333
439.575, 2870.415
440.057, 2876.018
440.539, 2873.059
441.021, 2868.214
441.503, 2863.596
441.985, 2859.621
442.467, 2857.176
442.949, 2857.407
443.432, 2857.979
443.914, 2855.851
444.396, 2851.342
444.878, 2846.701
445.360, 2841.318
445.842, 2838.207
446.324, 2845.560
446.806, 2865.434
447.289, 2872.606
447.771, 2852.291
448.253, 2825.912
448.735, 2808.837
449.217, 2801.440
449.699, 2799.605
450.181, 2801.500
450.663, 2805.593
451.145, 2805.787
451.628, 2794.002
452.110, 2790.483
452.592, 2803.997
453.074, 2820.376
453.556, 2827.265
454.038, 2824.272
454.520, 2821.091
455.002, 2828.585
455.484, 2844.114
455.967, 2848.890
456.449, 2838.292
456.931, 2827.218
457.413, 2824.588
457.895, 2824.966
458.377, 2820.000
458.859, 2804.601
459.341, 2794.927
459.823, 2808.835
460.306, 2835.507
460.788, 2849.939
461.270, 2846.482
461.752, 2835.439
462.234, 2824.991
462.716, 2815.064
463.198, 2811.674
463.681, 2820.350
464.163, 2829.015
464.645, 2833.405
465.127, 2834.637
465.609, 2834.447
466.091, 2833.552
466.573, 2832.567
467.055, 2832.697
467.537, 2834.542
468.020, 2835.207
468.502, 2830.287
468.984, 2828.559
469.466, 2839.020
469.948, 2855.419
470.430, 2862.469
470.912, 2848.882
471.394, 2829.017
471.876, 2825.952
472.359, 2838.730
472.841, 2844.218
473.323, 2831.128
473.805, 2813.770
474.287, 2815.959
474.769, 2838.945
475.251, 2853.163
475.733, 2845.889
476.216, 2833.738
476.698, 2829.889
477.180, 2833.082
477.662, 2834.851
478.144, 2829.899
478.626, 2822.375
479.108, 2825.138
479.590, 2849.546
480.072, 2864.239
480.555, 2865.790
481.037, 2860.205
481.519, 2846.813
482.001, 2828.856
482.483, 2815.987
482.965, 2816.944
483.447, 2826.733
483.929, 2832.114
484.411, 2832.792
484.894, 2830.252
485.376, 2821.658
485.858, 2812.571
486.340, 2811.126
486.822, 2818.672
487.304, 2826.805
487.786, 2833.334
488.268, 2838.260
488.750, 2841.413
489.233, 2842.869
489.715, 2843.035
490.197, 2842.052
490.679, 2840.124
491.161, 2838.309
491.643, 2839.716
492.125, 2836.938
492.608, 2826.535
493.090, 2813.861
493.572, 2800.085
494.054, 2787.427
494.536, 2782.812
495.018, 2797.962
495.500, 2826.405
495.982, 2832.654
496.464, 2807.510
496.947, 2788.399
497.429, 2798.484
497.911, 2820.024
498.393, 2830.413
498.875, 2826.595
499.357, 2817.986
499.839, 2802.609
500.321, 2787.903
500.803, 2786.044
501.286, 2797.633
501.768, 2812.940
502.250, 2825.587
502.732, 2835.609
503.214, 2843.271
503.696, 2853.126
504.178, 2854.513
504.660, 2836.676
505.142, 2816.313
505.625, 2808.791
506.107, 2815.504
506.589, 2826.866
507.071, 2836.847
507.553, 2844.458
508.035, 2842.111
508.517, 2825.578
509.000, 2811.903
509.482, 2811.028
509.964, 2815.721
510.446, 2816.857
510.928, 2813.563
511.410, 2808.012
511.892, 2794.802
512.374, 2783.028
512.856, 2789.180
513.339, 2812.656
513.821, 2834.149
514.303, 2840.222
514.785, 2833.118
515.267, 2823.905
515.749, 2802.574
516.231, 2793.099
516.713, 2808.474
517.195, 2827.652
517.678, 2834.089
518.160, 2826.771
518.642, 2814.461
519.124, 2800.775
519.606, 2788.417
520.088, 2789.241
520.570, 2806.867
521.052, 2819.065
521.534, 2811.514
522.017, 2798.252
522.499, 2801.796
522.981, 2825.817
523.463, 2843.566
523.945, 2844.221
524.427, 2836.162
524.909, 2822.698
525.391, 2807.185
525.873, 2800.180
526.356, 2808.853
526.838, 2827.612
527.320, 2840.125
527.802, 2846.823
528.284, 2846.038
528.766, 2829.788
529.248, 2813.816
529.731, 2807.165
530.213, 2809.167
530.695, 2815.241
531.177, 2825.685
531.659, 2835.302
532.141, 2833.010
532.623, 2819.105
533.105, 2808.546
533.587, 2806.824
534.070, 2808.595
534.552, 2806.609
535.034, 2800.478
535.516, 2796.845
535.998, 2798.535
536.480, 2800.824
536.962, 2799.699
537.444, 2797.219
537.927, 2798.354
538.409, 2805.117
538.891, 2814.014
539.373, 2818.810
539.855, 2818.048
540.337, 2820.183
540.819, 2831.692
541.301, 2838.240
541.783, 2829.701
542.266, 2812.894
542.748, 2800.392
543.230, 2796.456
543.712, 2795.883
544.194, 2793.818
544.676, 2791.664
545.158, 2794.028
545.640, 2802.007
546.122, 2810.798
546.605, 2816.681
547.087, 2819.620
547.569, 2818.435
548.051, 2809.698
548.533, 2801.558
549.015, 2795.737
549.497, 2791.140
549.979, 2786.729
550.461, 2782.268
550.944, 2777.824
551.426, 2771.317
551.908, 2764.855
552.390, 2771.219
552.872, 2795.118
553.354, 2812.904
553.836, 2812.045
554.318, 2801.433
554.800, 2794.486
555.283, 2791.528
555.765, 2790.364
556.247, 2792.269
556.729, 2794.265
557.211, 2792.738
557.693, 2788.572
558.175, 2785.298
558.657, 2784.704
559.140, 2786.699
559.622, 2791.429
560.104, 2800.262
560.586, 2808.306
561.068, 2822.074
561.550, 2828.527
562.032, 2813.882
562.514, 2787.557
562.997, 2772.448
563.479, 2781.888
563.961, 2796.882
564.443, 2796.053
564.925, 2784.093
565.407, 2777.919
565.889, 2781.693
566.371, 2788.534
566.854, 2792.270
567.336, 2792.889
567.818, 2793.508
568.300, 2793.567
568.782, 2794.317
569.264, 2798.957
569.746, 2802.741
570.228, 2799.111
570.710, 2787.964
571.193, 2776.822
571.675, 2771.517
572.157, 2771.683
572.639, 2778.600
573.121, 2795.133
573.603, 2802.879
574.085, 2789.285
574.567, 2767.623
575.049, 2758.460
575.532, 2763.394
576.014, 2767.963
576.496, 2768.978
576.978, 2768.554
577.460, 2767.177
577.942, 2765.745
578.424, 2766.445
578.906, 2770.313
579.388, 2775.296
579.871, 2777.785
580.353, 2777.289
580.835, 2776.775
581.317, 2777.429
581.799, 2776.537
582.281, 2770.454
582.763, 2762.705
583.245, 2760.209
583.727, 2766.810
584.210, 2772.408
584.692, 2767.439
585.174, 2758.042
585.656, 2754.823
586.138, 2759.064
586.620, 2767.498
587.102, 2779.389
587.584, 2791.873
588.067, 2790.373
588.549, 2755.431
589.031, 2738.755
589.513, 2760.203
589.995, 2785.410
590.477, 2791.188
590.959, 2779.763
591.442, 2766.170
591.924, 2756.040
592.406, 2750.457
592.888, 2755.420
593.370, 2767.972
593.852, 2767.980
594.334, 2747.417
594.816, 2726.791
595.298, 2729.902
595.781, 2758.166
596.263, 2775.601
596.745, 2774.952
597.227, 2773.684
597.709, 2778.460
598.191, 2783.509
598.673, 2780.556
599.155, 2769.415
599.638, 2759.414
600.120, 2761.415
600.602, 2770.156
601.084, 2764.985
601.566, 2743.403
602.048, 2734.179
602.530, 2753.946
603.012, 2783.919
603.494, 2795.548
603.977, 2786.807
604.459, 2779.881
604.941, 2779.603
605.423, 2778.862
605.905, 2770.888
606.387, 2760.510
606.869, 2757.323
607.351, 2764.204
607.833, 2773.681
608.316, 2776.609
608.798, 2773.168
609.280, 2767.989
609.762, 2760.267
610.244, 2753.075
610.726, 2748.549
611.208, 2745.063
611.690, 2738.848
612.172, 2727.956
612.655, 2722.709
613.137, 2730.293
613.619, 2741.409
614.101, 2750.173
614.583, 2755.557
615.065, 2756.133
615.547, 2751.110
616.029, 2743.660
616.511, 2738.850
616.994, 2736.757
617.476, 2736.538
617.958, 2736.887
618.440, 2741.186
618.922, 2758.968
619.404, 2779.432
619.886, 2782.940
620.369, 2760.139
620.851, 2742.087
621.333, 2748.977
621.815, 2764.273
622.297, 2767.563
622.779, 2760.072
623.261, 2756.773
623.743, 2767.000
624.225, 2782.961
624.708, 2785.261
625.190, 2768.384
625.672, 2758.094
626.154, 2758.840
626.636, 2763.114
627.118, 2771.534
627.600, 2779.626
628.082, 2776.840
628.565, 2755.123
629.047, 2736.867
629.529, 2742.027
630.011, 2755.134
630.493, 2750.001
630.975, 2727.201
631.457, 2710.640
631.939, 2716.578
632.421, 2737.337
632.904, 2750.730
633.386, 2754.671
633.868, 2756.822
634.350, 2756.800
634.832, 2756.027
635.314, 2755.378
635.796, 2754.529
636.278, 2752.542
636.760, 2748.491
637.243, 2744.773
637.725, 2744.061
638.207, 2744.245
638.689, 2740.758
639.171, 2733.730
639.653, 2729.089
640.135, 2731.493
640.617, 2737.803
641.099, 2736.817
641.582, 2723.613
642.064, 2715.712
642.546, 2717.482
643.028, 2722.269
643.510, 2728.506
643.992, 2734.914
644.474, 2738.818
644.956, 2739.303
645.438, 2737.531
645.921, 2732.435
646.403, 2726.331
646.885, 2724.469
647.367, 2726.536
647.849, 2724.562
648.331, 2711.834
648.813, 2694.203
649.295, 2691.321
649.778, 2708.866
650.260, 2725.441
650.742, 2742.945
651.224, 2754.973
651.706, 2755.973
652.188, 2749.263
652.670, 2742.292
653.152, 2736.590
653.635, 2731.501
654.117, 2726.232
654.599, 2721.555
655.081, 2718.066
655.563, 2716.129
656.045, 2717.441
656.527, 2723.589
657.009, 2731.844
657.492, 2734.876
657.974, 2731.597
658.456, 2727.009
658.938, 2720.039
659.420, 2713.700
659.902, 2709.326
660.384, 2706.816
660.866, 2706.256
661.348, 2708.819
661.831, 2710.513
662.313, 2705.066
662.795, 2700.544
663.277, 2709.986
663.759, 2730.281
664.241, 2745.819
664.723, 2747.813
665.205, 2740.398
665.687, 2728.978
666.170, 2711.448
666.652, 2706.589
667.134, 2723.595
667.616, 2739.365
668.098, 2737.741
668.580, 2726.962
669.062, 2721.484
669.544, 2723.391
670.026, 2727.060
670.509, 2734.923
670.991, 2740.467
671.473, 2734.562
671.955, 2721.796
672.437, 2715.900
672.919, 2723.093
673.401, 2732.516
673.883, 2724.037
674.365, 2698.765
674.848, 2692.493
675.330, 2713.182
675.812, 2729.484
676.294, 2724.940
676.776, 2707.428
677.258, 2689.577
677.740, 2668.255
678.222, 2659.257
678.705, 2676.579
679.187, 2694.739
679.669, 2698.573
680.151, 2693.565
680.633, 2688.896
681.115, 2687.653
681.597, 2688.910
682.079, 2691.935
682.562, 2696.690
683.044, 2704.973
683.526, 2717.260
684.008, 2722.259
684.490, 2713.720
684.972, 2700.065
685.454, 2693.044
685.936, 2693.939
686.419, 2693.481
686.901, 2687.712
687.383, 2685.525
687.865, 2691.890
688.347, 2701.560
688.829, 2709.839
689.311, 2715.685
689.793, 2719.193
690.275, 2719.612
690.758, 2718.360
691.240, 2718.825
691.722, 2719.703
692.204, 2712.988
692.686, 2695.994
693.168, 2682.416
693.650, 2687.323
694.132, 2708.566
694.614, 2718.104
695.097, 2707.624
695.579, 2699.918
696.061, 2699.153
696.543, 2701.199
697.025, 2706.438
697.507, 2712.495
697.989, 2711.619
698.471, 2696.453
698.953, 2681.495
699.436, 2676.302
699.918, 2677.801
700.400, 2683.855
700.882, 2692.596
701.364, 2697.591
701.846, 2694.070
702.328, 2686.034
702.810, 2683.682
703.292, 2688.039
703.775, 2691.244
704.257, 2692.238
704.739, 2692.752
705.221, 2695.987
705.703, 2698.799
706.185, 2692.804
706.667, 2670.888
707.149, 2659.366
707.632, 2676.488
708.114, 2695.230
708.596, 2693.779
709.078, 2679.302
709.560, 2668.466
710.042, 2667.483
710.524, 2671.012
711.006, 2673.988
711.489, 2676.521
711.971, 2680.461
712.453, 2686.087
712.935, 2684.652
713.417, 2669.810
713.899, 2652.963
714.381, 2651.411
714.863, 2668.092
715.346, 2679.492
715.828, 2682.965
716.310, 2684.835
716.792, 2687.177
717.274, 2688.125
717.756, 2685.722
718.238, 2679.954
718.720, 2672.329
719.202, 2662.585
719.685, 2652.432
720.167, 2641.200
720.649, 2631.297
721.131, 2629.333
721.613, 2636.134
722.095, 2646.496
722.577, 2657.151
723.059, 2666.484
723.541, 2667.649
724.024, 2657.699
724.506, 2650.666
724.988, 2648.908
725.470, 2649.326
725.952, 2651.614
726.434, 2654.345
726.916, 2654.361
727.398, 2651.238
727.880, 2645.841
728.363, 2634.374
728.845, 2624.226
729.327, 2622.076
729.809, 2625.769
730.291, 2630.448
730.773, 2634.229
731.255, 2636.604
731.737, 2635.030
732.219, 2631.693
732.702, 2636.536
733.184, 2649.706
733.666, 2656.413
734.148, 2649.920
734.630, 2637.133
735.112, 2625.482
735.594, 2613.792
736.076, 2616.704
736.559, 2653.440
737.041, 2679.122
737.523, 2681.379
738.005, 2673.086
738.487, 2661.273
738.969, 2648.262
739.451, 2639.654
739.933, 2640.117
740.416, 2642.351
740.898, 2639.834
741.380, 2636.381
741.862, 2640.710
742.344, 2651.500
742.826, 2655.674
743.308, 2643.898
743.790, 2625.704
744.273, 2621.762
744.755, 2632.525
745.237, 2641.657
745.719, 2648.459
746.201, 2651.444
746.683, 2648.114
747.165, 2641.611
747.647, 2638.975
748.129, 2642.343
748.612, 2642.737
749.094, 2636.041
749.576, 2630.675
750.058, 2634.609
750.540, 2639.514
751.022, 2632.353
751.504, 2612.199
751.986, 2594.831
752.468, 2589.426
752.951, 2592.908
753.433, 2606.306
753.915, 2625.216
754.397, 2636.602
754.879, 2637.982
755.361, 2638.655
755.843, 2646.981
756.325, 2659.913
756.807, 2666.000
757.290, 2664.309
757.772, 2660.040
758.254, 2653.687
758.736, 2644.767
759.218, 2626.629
759.700, 2607.028
760.182, 2608.580
760.664, 2644.887
761.146, 2668.242
761.629, 2658.897
762.111, 2646.867
762.593, 2656.452
763.075, 2672.877
763.557, 2666.874
764.039, 2632.134
764.521, 2599.363
765.003, 2593.781
765.486, 2604.640
765.968, 2619.275
766.450, 2635.766
766.932, 2646.895
767.414, 2650.778
767.896, 2652.233
768.378, 2656.537
768.860, 2649.812
769.343, 2656.010
769.825, 2634.425
770.307, 2618.486
770.789, 2609.323
771.271, 2609.245
771.753, 2628.761
772.235, 2657.588
772.717, 2667.538
773.200, 2650.680
773.682, 2631.193
774.164, 2608.600
774.646, 2589.622
775.128, 2574.002
775.610, 2566.523
776.092, 2581.228
776.574, 2620.126
777.056, 2650.381
777.539, 2636.301
778.021, 2603.475
778.503, 2589.079
778.985, 2590.753
779.467, 2601.620
779.949, 2619.236
780.431, 2630.240
780.913, 2620.179
781.395, 2595.908
781.878, 2590.407
782.360, 2609.518
782.842, 2620.193
783.324, 2612.855
783.806, 2605.347
784.288, 2609.798
784.770, 2622.826
785.252, 2635.659
785.734, 2652.522
786.217, 2658.829
786.699, 2640.992
787.181, 2625.107
787.663, 2629.632
788.145, 2642.118
788.627, 2641.720
789.109, 2625.284
789.591, 2612.751
790.073, 2623.127
790.556, 2638.796
791.038, 2641.856
791.520, 2634.016
792.002, 2613.962
792.484, 2584.324
792.966, 2565.031
793.448, 2573.399
793.930, 2596.935
794.413, 2601.243
794.895, 2585.036
795.377, 2582.158
795.859, 2600.355
796.341, 2616.490
796.823, 2617.428
797.305, 2608.433
797.787, 2599.176
798.269, 2587.862
798.752, 2582.580
799.234, 2587.218
799.716, 2592.607
800.198, 2598.095
800.680, 2601.747
801.162, 2600.359
801.644, 2594.589
802.127, 2590.534
802.609, 2589.547
803.091, 2592.186
803.573, 2601.875
804.055, 2613.573
804.537, 2622.297
805.019, 2626.723
805.501, 2624.331
805.983, 2613.138
806.466, 2601.303
806.948, 2602.518
807.430, 2612.767
807.912, 2616.111
808.394, 2611.884
808.876, 2604.748
809.358, 2595.445
809.840, 2590.552
810.322, 2601.006
810.805, 2626.272
811.287, 2633.033
811.769, 2609.956
812.251, 2594.234
812.733, 2597.647
813.215, 2605.479
813.697, 2607.859
814.179, 2605.741
814.661, 2601.475
815.144, 2591.648
815.626, 2586.933
816.108, 2594.906
816.590, 2603.270
817.072, 2604.117
817.554, 2600.020
818.036, 2594.929
818.518, 2590.098
819.000, 2587.712
819.483, 2592.618
819.965, 2598.054
820.447, 2595.659
820.929, 2587.698
821.411, 2577.629
821.893, 2567.135
822.375, 2561.251
822.857, 2563.984
823.340, 2572.176
823.822, 2579.736
824.304, 2586.604
824.786, 2592.663
825.268, 2598.734
825.750, 2597.200
826.232, 2581.627
826.714, 2561.737
827.196, 2554.104
827.679, 2560.873
828.161, 2563.456
828.643, 2554.551
829.125, 2552.881
829.607, 2571.596
830.089, 2591.573
830.571, 2598.015
831.054, 2592.894
831.536, 2586.078
832.018, 2575.639
832.500, 2569.769
832.982, 2573.969
833.464, 2580.853
833.946, 2587.898
834.428, 2592.389
834.910, 2588.337
835.393, 2574.384
835.875, 2562.116
836.357, 2564.117
836.839, 2569.784
837.321, 2560.050
837.803, 2543.827
838.285, 2548.461
838.767, 2576.307
839.250, 2598.289
839.732, 2591.439
840.214, 2603.736
840.696, 2603.402
841.178, 2591.805
841.660, 2592.678
842.142, 2568.024
842.624, 2546.514
843.106, 2542.354
843.589, 2547.496
844.071, 2549.599
844.553, 2548.159
845.035, 2551.074
845.517, 2562.491
845.999, 2570.452
846.481, 2571.868
846.963, 2569.529
847.445, 2564.347
847.928, 2557.203
848.410, 2550.539
848.892, 2540.148
849.374, 2539.179
849.856, 2563.221
850.338, 2583.840
850.820, 2578.909
851.302, 2561.986
851.784, 2554.580
852.267, 2560.486
852.749, 2565.867
853.231, 2562.199
853.713, 2555.570
854.195, 2548.220
854.677, 2542.750
855.159, 2544.424
855.641, 2552.516
856.123, 2561.715
856.606, 2569.349
857.088, 2575.044
857.570, 2578.400
858.052, 2579.358
858.534, 2576.404
859.016, 2570.105
859.498, 2566.659
859.981, 2568.401
860.463, 2571.177
860.945, 2571.199
861.427, 2568.005
861.909, 2555.842
862.391, 2530.374
862.873, 2523.296
863.355, 2547.750
863.837, 2567.720
864.320, 2557.197
864.802, 2531.135
865.284, 2522.743
865.766, 2538.018
866.248, 2547.921
866.730, 2548.555
867.212, 2548.720
867.694, 2553.821
868.177, 2556.558
868.659, 2546.969
869.141, 2528.355
869.623, 2517.718
870.105, 2521.897
870.587, 2527.934
871.069, 2532.718
871.551, 2537.207
872.033, 2543.251
872.516, 2549.073
872.998, 2551.943
873.480, 2551.150
873.962, 2547.149
874.444, 2536.299
874.926, 2526.108
875.408, 2524.645
875.890, 2528.472
876.372, 2531.862
876.855, 2534.376
877.337, 2539.896
877.819, 2551.096
878.301, 2560.520
878.783, 2556.476
879.265, 2543.118
879.747, 2532.220
880.229, 2523.986
880.711, 2514.368
881.194, 2501.984
881.676, 2497.335
882.158, 2513.317
882.640, 2541.091
883.122, 2545.100
883.604, 2522.746
884.086, 2509.581
884.568, 2511.393
885.050, 2514.225
885.533, 2510.037
886.015, 2503.975
886.497, 2504.838
886.979, 2513.313
887.461, 2522.428
887.943, 2537.306
888.425, 2542.708
888.907, 2526.554
889.390, 2509.421
889.872, 2507.055
890.354, 2516.001
890.836, 2527.703
891.318, 2547.794
891.800, 2556.377
892.282, 2542.076
892.764, 2526.775
893.247, 2518.331
893.729, 2514.754
894.211, 2515.560
894.693, 2519.273
895.175, 2518.022
895.657, 2501.711
896.139, 2491.266
896.621, 2504.343
897.104, 2520.959
897.586, 2520.259
898.068, 2509.035
898.550, 2506.089
899.032, 2516.406
899.514, 2523.913
899.996, 2513.505
900.478, 2497.758
900.960, 2486.032
901.443, 2480.627
901.925, 2491.672
902.407, 2514.733
902.889, 2526.234
903.371, 2512.538
903.853, 2491.480
904.335, 2485.906
904.817, 2490.691
905.299, 2492.392
905.782, 2491.459
906.264, 2493.514
906.746, 2499.983
907.228, 2506.371
907.710, 2508.719
908.192, 2513.684
908.674, 2512.323
909.156, 2518.903
909.638, 2522.287
910.121, 2522.115
910.603, 2516.816
911.085, 2504.656
911.567, 2491.004
912.049, 2482.201
912.531, 2478.124
913.013, 2477.679
913.495, 2481.051
913.977, 2488.005
914.460, 2501.132
914.942, 2512.070
915.424, 2515.346
915.906, 2513.715
916.388, 2512.548
916.870, 2512.248
917.352, 2510.095
917.834, 2504.475
918.317, 2499.474
918.799, 2492.693
919.281, 2489.856
919.763, 2501.190
920.245, 2519.464
920.727, 2521.778
921.209, 2497.792
921.692, 2482.294
922.174, 2482.169
922.656, 2487.389
923.138, 2499.674
923.620, 2511.156
924.102, 2513.128
924.584, 2506.362
925.066, 2498.395
925.548, 2489.100
926.031, 2482.960
926.513, 2484.529
926.995, 2486.998
927.477, 2483.207
927.959, 2478.008
928.441, 2480.979
928.923, 2492.744
929.405, 2502.314
929.888, 2505.397
930.370, 2502.648
930.852, 2488.399
931.334, 2473.092
931.816, 2467.730
932.298, 2471.981
932.780, 2485.261
933.262, 2506.394
933.744, 2520.169
934.227, 2508.253
934.709, 2487.960
935.191, 2478.645
935.673, 2476.657
936.155, 2475.652
936.637, 2474.766
937.119, 2475.706
937.601, 2479.354
938.083, 2483.527
938.566, 2486.719
939.048, 2488.148
939.530, 2484.952
940.012, 2478.542
940.494, 2473.828
940.976, 2471.728
941.458, 2469.782
941.940, 2465.958
942.422, 2464.198
942.905, 2476.100
943.387, 2495.974
943.869, 2493.842
944.351, 2471.695
944.833, 2464.288
945.315, 2481.601
945.797, 2495.146
946.279, 2478.890
946.761, 2485.283
947.244, 2481.707
947.726, 2468.201
948.208, 2474.373
948.690, 2459.458
949.172, 2454.216
949.654, 2471.902
950.136, 2491.123
950.619, 2488.675
951.101, 2469.744
951.583, 2457.683
952.065, 2453.097
952.547, 2451.300
953.029, 2452.740
953.511, 2453.439
953.993, 2451.397
954.475, 2448.320
954.958, 2446.222
955.440, 2445.116
955.922, 2444.993
956.404, 2445.088
956.886, 2449.027
957.368, 2458.534
957.850, 2469.395
958.332, 2482.381
958.815, 2491.916
959.297, 2488.391
959.779, 2471.224
960.261, 2454.112
960.743, 2431.000
961.225, 2421.219
961.707, 2435.374
962.189, 2451.916
962.671, 2460.139
963.154, 2461.446
963.636, 2457.718
964.118, 2448.166
964.600, 2438.598
965.082, 2424.965
965.564, 2417.595
966.046, 2418.651
966.528, 2426.008
967.010, 2446.456
967.493, 2469.996
967.975, 2471.901
968.457, 2442.521
968.939, 2431.849
969.421, 2460.572
969.903, 2482.571
970.385, 2486.007
970.867, 2480.629
971.349, 2469.944
971.832, 2456.769
972.314, 2447.457
972.796, 2443.381
973.278, 2439.588
973.760, 2431.505
974.242, 2428.748
974.724, 2441.978
975.206, 2455.304
975.688, 2452.459
976.171, 2438.721
976.653, 2431.739
977.135, 2436.724
977.617, 2438.925
978.099, 2425.917
978.581, 2421.133
979.063, 2446.993
979.545, 2475.376
980.028, 2475.871
980.510, 2455.176
980.992, 2441.925
981.474, 2443.537
981.956, 2447.098
982.438, 2447.651
982.920, 2450.864
983.402, 2463.914
983.885, 2477.767
984.367, 2483.432
984.849, 2481.183
985.331, 2475.674
985.813, 2467.847
986.295, 2457.524
986.777, 2439.515
987.259, 2424.713
987.742, 2422.147
988.224, 2424.100
988.706, 2421.406
989.188, 2414.613
989.670, 2410.297
990.152, 2411.529
990.634, 2411.644
991.116, 2406.316
991.598, 2400.916
992.081, 2399.861
992.563, 2399.898
993.045, 2394.857
993.527, 2386.718
994.009, 2385.829
994.491, 2398.635
994.973, 2408.867
995.455, 2406.854
995.937, 2402.812
996.420, 2401.694
996.902, 2403.542
997.384, 2409.945
997.866, 2419.080
998.348, 2423.904
998.830, 2420.543
999.312, 2417.854
999.794, 2421.618
1000.276, 2425.538
1000.759, 2427.190
1001.241, 2425.325
1001.723, 2414.576
1002.205, 2398.726
1002.687, 2393.867
1003.169, 2410.564
1003.651, 2420.357
1004.133, 2396.778
1004.616, 2376.259
1005.098, 2390.674
1005.580, 2416.835
1006.062, 2425.570
1006.544, 2417.734
1007.026, 2411.568
1007.508, 2413.334
1007.990, 2415.673
1008.472, 2414.298
1008.955, 2413.527
1009.437, 2419.271
1009.919, 2424.961
1010.401, 2421.094
1010.883, 2409.845
1011.365, 2401.500
1011.847, 2399.294
1012.329, 2399.352
1012.812, 2404.140
1013.294, 2405.953
1013.776, 2396.482
1014.258, 2384.410
1014.740, 2380.245
1015.222, 2382.208
1015.704, 2380.233
1016.186, 2369.152
1016.668, 2366.994
1017.151, 2394.343
1017.633, 2415.856
1018.115, 2403.884
1018.597, 2384.408
1019.079, 2386.337
1019.561, 2403.170
1020.043, 2409.974
1020.525, 2399.263
1021.008, 2390.504
1021.490, 2389.361
1021.972, 2392.456
1022.454, 2405.973
1022.936, 2416.385
1023.418, 2406.448
1023.900, 2385.130
1024.382, 2375.825
1024.864, 2384.094
1025.347, 2390.572
1025.829, 2386.512
1026.311, 2384.609
1026.793, 2393.795
1027.275, 2402.666
1027.757, 2400.176
1028.239, 2391.587
1028.721, 2390.263
1029.203, 2399.107
1029.686, 2397.056
1030.168, 2365.237
1030.650, 2343.099
1031.132, 2345.788
1031.614, 2355.867
1032.096, 2364.618
1032.578, 2372.078
1033.060, 2380.163
1033.542, 2389.176
1034.025, 2392.820
1034.507, 2387.942
1034.989, 2381.466
1035.471, 2370.246
1035.953, 2362.295
1036.435, 2362.768
1036.917, 2368.219
1037.399, 2376.146
1037.882, 2386.247
1038.364, 2388.899
1038.846, 2372.742
1039.328, 2367.454
1039.810, 2386.707
1040.292, 2400.359
1040.774, 2392.515
1041.256, 2376.918
1041.739, 2366.519
1042.221, 2361.480
1042.703, 2363.484
1043.185, 2379.076
1043.667, 2387.237
1044.149, 2385.330
1044.631, 2380.249
1045.113, 2371.687
1045.595, 2364.567
1046.078, 2363.931
1046.560, 2368.300
1047.042, 2372.463
1047.524, 2377.109
1048.006, 2378.304
1048.488, 2373.978
1048.970, 2372.729
1049.452, 2378.488
1049.934, 2383.577
1050.417, 2381.504
1050.899, 2383.760
1051.381, 2383.088
1051.863, 2379.588
1052.345, 2379.061
1052.827, 2372.263
1053.309, 2366.641
1053.791, 2363.719
1054.274, 2361.700
1054.756, 2359.512
1055.238, 2357.542
1055.720, 2356.531
1056.202, 2356.331
1056.684, 2355.328
1057.166, 2353.521
1057.648, 2355.056
1058.130, 2360.611
1058.613, 2362.242
1059.095, 2355.883
1059.577, 2347.879
1060.059, 2345.183
1060.541, 2347.291
1061.023, 2357.022
1061.505, 2370.888
1061.987, 2364.219
1062.469, 2338.721
1062.952, 2325.453
1063.434, 2334.685
1063.916, 2347.719
1064.398, 2348.709
1064.880, 2343.571
1065.362, 2340.984
1065.844, 2340.716
1066.326, 2343.770
1066.809, 2348.458
1067.291, 2348.103
1067.773, 2342.385
1068.255, 2339.847
1068.737, 2346.166
1069.219, 2354.337
1069.701, 2359.590
1070.183, 2359.764
1070.666, 2347.823
1071.148, 2330.419
1071.630, 2317.581
1072.112, 2311.772
1072.594, 2316.221
1073.076, 2332.604
1073.558, 2346.116
1074.040, 2342.246
1074.522, 2335.365
1075.005, 2339.268
1075.487, 2345.056
1075.969, 2340.067
1076.451, 2328.980
1076.933, 2324.068
1077.415, 2327.959
1077.897, 2333.098
1078.379, 2341.364
1078.862, 2342.953
1079.344, 2327.249
1079.826, 2310.176
1080.308, 2300.474
1080.790, 2298.088
1081.272, 2305.404
1081.754, 2320.183
1082.236, 2328.214
1082.719, 2326.251
1083.201, 2318.600
1083.683, 2290.204
1084.165, 2276.162
1084.647, 2307.356
1085.129, 2343.765
1085.611, 2343.206
1086.093, 2319.196
1086.575, 2315.449
1087.057, 2340.425
1087.540, 2350.971
1088.022, 2339.307
1088.504, 2328.549
1088.986, 2321.091
1089.468, 2319.196
1089.950, 2327.659
1090.432, 2337.608
1090.914, 2333.839
1091.397, 2317.210
1091.879, 2304.607
1092.361, 2295.794
1092.843, 2293.108
1093.325, 2297.552
1093.807, 2303.516
1094.289, 2309.050
1094.771, 2312.760
1095.254, 2312.425
1095.736, 2310.897
1096.218, 2319.514
1096.700, 2316.697
1097.182, 2312.989
1097.664, 2316.868
1098.146, 2304.360
1098.628, 2302.113
1099.110, 2305.850
1099.593, 2313.604
1100.075, 2318.143
1100.557, 2304.333
1101.039, 2283.305
1101.521, 2279.467
1102.003, 2286.791
1102.485, 2291.104
1102.967, 2291.571
1103.449, 2295.130
1103.932, 2303.844
1104.414, 2308.245
1104.896, 2296.139
1105.378, 2284.446
1105.860, 2293.841
1106.342, 2307.467
1106.824, 2303.875
1107.306, 2291.663
1107.789, 2290.055
1108.271, 2299.458
1108.753, 2300.980
1109.235, 2281.236
1109.717, 2271.566
1110.199, 2299.017
1110.681, 2322.329
1111.163, 2312.864
1111.646, 2294.877
1112.128, 2290.254
1112.610, 2296.800
1113.092, 2306.129
1113.574, 2319.255
1114.056, 2324.844
1114.538, 2315.769
1115.020, 2309.089
1115.502, 2307.929
1115.984, 2307.789
1116.467, 2306.943
1116.949, 2305.456
1117.431, 2303.383
1117.913, 2300.745
1118.395, 2297.812
1118.877, 2294.892
1119.359, 2289.128
1119.841, 2279.112
1120.324, 2274.253
1120.806, 2277.662
1121.288, 2284.823
1121.770, 2293.067
1122.252, 2300.262
1122.734, 2301.604
1123.216, 2304.072
1123.698, 2298.266
1124.181, 2300.094
1124.663, 2296.725
1125.145, 2288.758
1125.627, 2287.749
1126.109, 2297.978
1126.591, 2308.816
1127.073, 2311.291
1127.555, 2308.483
1128.037, 2304.225
1128.520, 2297.525
1129.002, 2281.875
1129.484, 2264.703
1129.966, 2263.748
1130.448, 2277.833
1130.930, 2286.743
1131.412, 2280.595
1131.894, 2276.710
1132.376, 2290.273
1132.859, 2301.756
1133.341, 2295.244
1133.823, 2285.639
1134.305, 2290.445
1134.787, 2301.249
1135.269, 2297.181
1135.751, 2275.618
1136.233, 2264.559
1136.716, 2276.125
1137.198, 2283.784
1137.680, 2281.449
1138.162, 2281.830
1138.644, 2292.748
1139.126, 2303.696
1139.608, 2305.351
1140.090, 2299.147
1140.573, 2287.843
1141.055, 2270.103
1141.537, 2263.353
1142.019, 2268.563
1142.501, 2277.105
1142.983, 2288.032
1143.465, 2291.759
1143.947, 2282.777
1144.429, 2273.357
1144.911, 2279.360
1145.394, 2274.615
1145.876, 2275.261
1146.358, 2279.252
1146.840, 2277.749
1147.322, 2283.725
1147.804, 2285.858
1148.286, 2281.848
1148.768, 2275.313
1149.251, 2267.564
1149.733, 2262.536
1150.215, 2266.058
1150.697, 2270.975
1151.179, 2270.919
1151.661, 2268.855
1152.143, 2268.519
1152.625, 2268.942
1153.108, 2266.182
1153.590, 2260.101
1154.072, 2258.968
1154.554, 2274.677
1155.036, 2279.473
1155.518, 2249.860
1156.000, 2232.109
1156.482, 2261.059
1156.964, 2292.922
1157.447, 2289.867
1157.929, 2265.132
1158.411, 2249.852
1158.893, 2244.087
1159.375, 2248.135
1159.857, 2264.900
1160.339, 2275.594
1160.821, 2277.344
1161.303, 2276.258
1161.786, 2274.880
1162.268, 2272.186
1162.750, 2266.981
1163.232, 2260.389
1163.714, 2253.982
1164.196, 2248.419
1164.678, 2244.973
1165.160, 2244.244
1165.643, 2249.742
1166.125, 2260.025
1166.607, 2267.617
1167.089, 2269.348
1167.571, 2266.073
1168.053, 2254.949
1168.535, 2243.467
1169.017, 2235.428
1169.500, 2231.560
1169.982, 2234.705
1170.464, 2241.150
1170.946, 2247.297
1171.428, 2251.730
1171.910, 2250.363
1172.392, 2238.707
1172.874, 2233.167
1173.356, 2244.457
1173.839, 2248.476
1174.321, 2235.122
1174.803, 2222.486
1175.285, 2220.437
1175.767, 2224.656
1176.249, 2230.068
1176.731, 2236.277
1177.213, 2241.597
1177.695, 2246.073
1178.178, 2247.366
1178.660, 2245.430
1179.142, 2241.114
1179.624, 2234.999
1180.106, 2233.504
1180.588, 2240.488
1181.070, 2251.283
1181.552, 2265.844
1182.035, 2275.210
1182.517, 2261.012
1182.999, 2235.170
1183.481, 2210.078
1183.963, 2191.743
1184.445, 2193.504
1184.927, 2212.752
1185.409, 2224.627
1185.891, 2217.237
1186.374, 2212.424
1186.856, 2220.642
1187.338, 2230.525
1187.820, 2241.660
1188.302, 2248.348
1188.784, 2242.668
1189.266, 2232.369
1189.748, 2229.697
1190.230, 2224.210
1190.713, 2219.354
1191.195, 2219.621
1191.677, 2214.843
1192.159, 2218.025
1192.641, 2222.236
1193.123, 2225.802
1193.605, 2230.064
1194.087, 2236.195
1194.570, 2239.512
1195.052, 2231.812
1195.534, 2219.486
1196.016, 2217.969
1196.498, 2222.432
1196.980, 2221.411
1197.462, 2216.654
1197.944, 2215.884
1198.427, 2219.429
1198.909, 2219.814
1199.391, 2213.016
1199.873, 2208.588
1200.355, 2214.300
1200.837, 2220.249
1201.319, 2222.025
1201.801, 2221.551
1202.283, 2221.424
1202.766, 2219.326
1203.248, 2207.807
1203.730, 2190.312
1204.212, 2186.865
1204.694, 2202.000
1205.176, 2214.960
1205.658, 2227.168
1206.140, 2228.933
1206.622, 2216.399
1207.105, 2208.778
1207.587, 2216.800
1208.069, 2223.107
1208.551, 2203.999
1209.033, 2179.356
1209.515, 2201.862
1209.997, 2245.042
1210.479, 2244.541
1210.962, 2214.157
1211.444, 2188.102
1211.926, 2174.395
1212.408, 2176.135
1212.890, 2194.329
1213.372, 2206.816
1213.854, 2193.494
1214.336, 2184.298
1214.818, 2196.330
1215.301, 2210.752
1215.783, 2217.551
1216.265, 2220.206
1216.747, 2224.627
1217.229, 2227.367
1217.711, 2217.010
1218.193, 2215.127
1218.675, 2210.546
1219.157, 2197.753
1219.640, 2201.131
1220.122, 2189.915
1220.604, 2186.284
1221.086, 2198.054
1221.568, 2212.920
1222.050, 2222.046
1222.532, 2224.822
1223.014, 2216.970
1223.497, 2204.950
1223.979, 2197.144
1224.461, 2193.979
1224.943, 2199.062
1225.425, 2207.975
1225.907, 2211.391
1226.389, 2207.949
1226.871, 2202.154
1227.354, 2192.256
1227.836, 2188.921
1228.318, 2201.468
1228.800, 2211.488
1229.282, 2214.366
1229.764, 2211.753
1230.246, 2199.960
1230.728, 2190.212
1231.210, 2199.414
1231.693, 2220.736
1232.175, 2225.486
1232.657, 2214.582
1233.139, 2206.477
1233.621, 2201.803
1234.103, 2202.819
1234.585, 2208.697
1235.067, 2213.316
1235.549, 2213.833
1236.032, 2207.495
1236.514, 2185.516
1236.996, 2170.387
1237.478, 2193.314
1237.960, 2218.874
1238.442, 2212.650
1238.924, 2195.652
1239.406, 2190.179
1239.889, 2195.711
1240.371, 2209.688
1240.853, 2232.927
1241.335, 2233.936
1241.817, 2199.388
1242.299, 2179.028
1242.781, 2178.269
1243.263, 2177.595
1243.745, 2170.932
1244.228, 2170.792
1244.710, 2186.006
1245.192, 2203.057
1245.674, 2203.423
1246.156, 2194.853
1246.638, 2192.834
1247.120, 2193.620
1247.602, 2186.872
1248.084, 2178.559
1248.567, 2183.991
1249.049, 2201.108
1249.531, 2216.634
1250.013, 2227.417
1250.495, 2224.998
1250.977, 2189.250
1251.459, 2166.648
1251.941, 2179.442
1252.424, 2191.118
1252.906, 2189.791
1253.388, 2180.503
1253.870, 2163.872
1254.352, 2148.048
1254.834, 2150.568
1255.316, 2145.577
1255.798, 2145.376
1256.281, 2155.120
1256.763, 2154.527
1257.245, 2164.674
1257.727, 2177.522
1258.209, 2189.074
1258.691, 2190.442
1259.173, 2177.037
1259.655, 2165.460
1260.137, 2167.682
1260.620, 2173.821
1261.102, 2182.198
1261.584, 2188.310
1262.066, 2190.414
1262.548, 2187.560
1263.030, 2174.216
1263.512, 2157.635
1263.994, 2155.176
1264.476, 2166.763
1264.959, 2175.174
1265.441, 2180.439
1265.923, 2180.042
1266.405, 2174.200
1266.887, 2173.176
1267.369, 2179.140
1267.851, 2184.299
1268.333, 2184.356
1268.816, 2177.700
1269.298, 2155.191
1269.780, 2134.801
1270.262, 2138.367
1270.744, 2146.765
1271.226, 2141.264
1271.708, 2130.384
1272.190, 2124.933
1272.672, 2125.318
1273.155, 2129.390
1273.637, 2136.914
##END=



