##NAMES=Armalcolite
##RRUFFID=R070260
##IDEAL CHEMISTRY=(Mg,Fe^2+^)Ti^4+^_2_O_5_
##LOCALITY=Chelyabinsk Oblast', Urals Region, Russia
##OWNER=RRUFF
##SOURCE=Michael Scott
##DESCRIPTION=Gray semimetallic, elongated tabular crystals on coal
##STATUS=The identification of this mineral has been confirmed by single-crystal X-ray diffraction.
##URL=rruff.info/R070260
127.7623, 213.9783
128.2444, 214.6137
128.7265, 215.8355
129.2086, 216.9743
129.6907, 218.4861
130.1729, 219.5155
130.6550, 219.3550
131.1371, 218.0485
131.6192, 216.3965
132.1013, 215.4284
132.5834, 215.0937
133.0656, 215.7050
133.5477, 217.7638
134.0298, 220.2870
134.5119, 222.5550
134.9940, 224.3174
135.4761, 225.7915
135.9583, 227.4466
136.4404, 229.1555
136.9225, 231.2251
137.4046, 233.8336
137.8867, 236.7918
138.3688, 239.9224
138.8510, 243.2508
139.3331, 246.5086
139.8152, 248.7222
140.2973, 249.1313
140.7794, 249.8281
141.2615, 251.9099
141.7437, 255.1141
142.2258, 258.2345
142.7079, 260.2721
143.1900, 262.0536
143.6721, 265.2615
144.1542, 270.6815
144.6364, 276.6832
145.1185, 281.5305
145.6006, 284.9931
146.0827, 288.6953
146.5648, 293.5493
147.0469, 299.0930
147.5291, 305.0319
148.0112, 311.4155
148.4933, 317.9772
148.9754, 323.9594
149.4575, 328.6317
149.9396, 334.1199
150.4218, 341.5421
150.9039, 349.9682
151.3860, 358.1611
151.8681, 365.4249
152.3502, 371.8750
152.8323, 378.1086
153.3145, 383.7450
153.7966, 389.5406
154.2787, 396.3196
154.7608, 403.4177
155.2429, 409.5637
155.7250, 413.6814
156.2072, 415.5815
156.6893, 418.0610
157.1714, 421.5406
157.6535, 425.0924
158.1356, 428.7626
158.6177, 432.3014
159.0999, 435.0656
159.5820, 436.4779
160.0641, 436.3322
160.5462, 435.1676
161.0283, 432.2719
161.5104, 428.9130
161.9926, 426.0530
162.4747, 423.8252
162.9568, 421.7246
163.4389, 419.2208
163.9210, 416.3329
164.4031, 413.5566
164.8853, 411.7299
165.3674, 409.8443
165.8495, 406.2224
166.3316, 400.2051
166.8137, 393.5446
167.2958, 387.7161
167.7780, 382.5771
168.2601, 377.8470
168.7422, 373.7873
169.2243, 370.1314
169.7064, 365.7940
170.1885, 360.1362
170.6707, 354.4449
171.1528, 349.5686
171.6349, 345.3969
172.1170, 341.3722
172.5991, 336.9520
173.0812, 332.0962
173.5634, 327.7176
174.0455, 324.4554
174.5276, 321.2015
175.0097, 317.3554
175.4918, 312.9986
175.9739, 308.7116
176.4561, 305.2242
176.9382, 302.8073
177.4203, 300.1921
177.9024, 297.3874
178.3845, 294.4102
178.8666, 291.2125
179.3488, 287.8339
179.8309, 284.3666
180.3130, 280.9741
180.7951, 277.6470
181.2772, 274.4537
181.7593, 270.9604
182.2415, 267.8525
182.7236, 266.1347
183.2057, 265.8861
183.6878, 265.7333
184.1699, 263.4896
184.6520, 257.3935
185.1342, 252.6389
185.6163, 250.0148
186.0984, 248.4843
186.5805, 247.0764
187.0626, 245.5236
187.5447, 243.8482
188.0269, 242.0338
188.5090, 240.0126
188.9911, 238.1281
189.4732, 236.3931
189.9553, 234.8545
190.4374, 233.6462
190.9196, 232.8422
191.4017, 232.2805
191.8838, 231.5812
192.3659, 230.6594
192.8480, 230.2613
193.3301, 231.1003
193.8123, 232.8316
194.2944, 234.2003
194.7765, 234.8637
195.2586, 235.0448
195.7407, 234.8625
196.2228, 234.3050
196.7050, 234.0731
197.1871, 234.7649
197.6692, 236.3472
198.1513, 238.0375
198.6334, 239.3199
199.1155, 241.0467
199.5977, 243.8697
200.0798, 247.8039
200.5619, 252.2076
201.0440, 256.6927
201.5261, 261.3927
202.0082, 265.4467
202.4904, 268.0411
202.9725, 270.4676
203.4546, 273.4845
203.9367, 277.1281
204.4188, 280.8163
204.9009, 283.7183
205.3831, 285.4450
205.8652, 287.5694
206.3473, 290.4406
206.8294, 293.4581
207.3115, 296.6382
207.7936, 299.7964
208.2758, 302.3246
208.7579, 303.2783
209.2400, 301.9785
209.7221, 300.4400
210.2042, 298.0783
210.6863, 295.9200
211.1685, 294.9071
211.6506, 295.1098
212.1327, 295.6293
212.6148, 295.1470
213.0969, 293.0844
213.5790, 291.1300
214.0612, 289.1665
214.5433, 287.3752
215.0254, 286.0034
215.5075, 285.0854
215.9896, 284.2328
216.4717, 282.8576
216.9539, 280.4968
217.4360, 278.7503
217.9181, 278.3731
218.4002, 278.2560
218.8823, 277.1984
219.3644, 274.9081
219.8466, 272.1435
220.3287, 269.8468
220.8108, 268.0105
221.2929, 266.6071
221.7750, 266.1600
222.2571, 265.9477
222.7393, 264.9604
223.2214, 262.9146
223.7035, 260.5585
224.1856, 258.8919
224.6677, 257.8600
225.1498, 256.6838
225.6320, 254.9815
226.1141, 253.0578
226.5962, 251.4249
227.0783, 250.2025
227.5604, 249.1603
228.0425, 248.0570
228.5247, 246.9233
229.0068, 245.8855
229.4889, 245.0107
229.9710, 244.2726
230.4531, 243.6607
230.9352, 243.2907
231.4174, 242.7976
231.8995, 241.8763
232.3816, 240.6257
232.8637, 239.2844
233.3458, 237.5862
233.8279, 235.8454
234.3101, 235.2176
234.7922, 236.3887
235.2743, 237.5892
235.7564, 237.7246
236.2385, 237.1534
236.7206, 236.5869
237.2028, 236.4384
237.6849, 236.6159
238.1670, 236.7209
238.6491, 236.6970
239.1312, 236.6828
239.6133, 236.6506
240.0955, 236.6730
240.5776, 236.9421
241.0597, 237.7723
241.5418, 238.8873
242.0239, 238.8579
242.5060, 236.7571
242.9882, 234.7133
243.4703, 233.3620
243.9524, 232.4566
244.4345, 231.5900
244.9166, 230.5032
245.3987, 229.3038
245.8809, 228.5455
246.3630, 228.6779
246.8451, 228.6933
247.3272, 228.5388
247.8093, 228.1151
248.2914, 227.2490
248.7736, 225.8197
249.2557, 223.9846
249.7378, 222.4100
250.2199, 221.4971
250.7020, 220.3393
251.1841, 218.8816
251.6663, 217.1115
252.1484, 214.9622
252.6305, 212.3825
253.1126, 209.5507
253.5947, 206.9654
254.0768, 205.0091
254.5590, 202.8780
255.0411, 200.3393
255.5232, 197.6722
256.0053, 195.1037
256.4874, 192.7418
256.9695, 190.6390
257.4517, 188.9273
257.9338, 188.3514
258.4159, 187.2646
258.8980, 184.8266
259.3801, 182.2268
259.8622, 181.2034
260.3444, 182.2982
260.8265, 183.7977
261.3086, 182.3936
261.7907, 174.9066
262.2728, 169.4202
262.7549, 167.2144
263.2371, 166.4549
263.7192, 165.4383
264.2013, 163.6896
264.6834, 161.6693
265.1655, 160.0556
265.6476, 159.0520
266.1298, 158.0230
266.6119, 157.0412
267.0940, 155.9782
267.5761, 154.5876
268.0582, 152.8396
268.5403, 151.1869
269.0225, 150.2243
269.5046, 150.1874
269.9867, 149.7931
270.4688, 148.8014
270.9509, 147.5767
271.4330, 146.4168
271.9152, 145.3610
272.3973, 144.2844
272.8794, 143.0391
273.3615, 141.6099
273.8436, 140.3760
274.3257, 139.2596
274.8079, 138.3909
275.2900, 138.0414
275.7721, 138.1755
276.2542, 138.2425
276.7363, 137.7684
277.2184, 136.8228
277.7006, 136.1489
278.1827, 136.2485
278.6648, 136.2254
279.1469, 135.1793
279.6290, 133.2568
280.1111, 131.6411
280.5933, 131.0599
281.0754, 131.3660
281.5575, 131.7780
282.0396, 132.6075
282.5217, 133.1707
283.0038, 132.9093
283.4860, 131.9517
283.9681, 130.9604
284.4502, 130.2153
284.9323, 129.6335
285.4144, 128.9847
285.8965, 128.1611
286.3787, 127.5237
286.8608, 127.3955
287.3429, 127.6471
287.8250, 127.8616
288.3071, 128.0347
288.7892, 127.9094
289.2714, 126.8612
289.7535, 124.6880
290.2356, 123.2162
290.7177, 123.9936
291.1998, 126.1418
291.6819, 127.2127
292.1641, 126.3461
292.6462, 124.9148
293.1283, 124.3675
293.6104, 124.6047
294.0925, 125.1248
294.5746, 126.1531
295.0568, 127.2615
295.5389, 127.4194
296.0210, 126.2252
296.5031, 124.9266
296.9852, 124.7194
297.4673, 125.2792
297.9495, 125.8037
298.4316, 126.1029
298.9137, 126.1921
299.3958, 126.0216
299.8779, 125.5332
300.3600, 125.0674
300.8422, 124.9148
301.3243, 124.9311
301.8064, 124.8807
302.2885, 124.7063
302.7706, 124.4491
303.2527, 124.1096
303.7349, 123.6747
304.2170, 123.3194
304.6991, 123.0550
305.1812, 122.9689
305.6633, 123.2367
306.1454, 124.0262
306.6276, 124.8090
307.1097, 125.0396
307.5918, 124.7533
308.0739, 124.5944
308.5560, 124.9420
309.0381, 125.3475
309.5203, 125.2002
310.0024, 124.4163
310.4845, 123.7947
310.9666, 123.9786
311.4487, 124.8238
311.9308, 125.6655
312.4130, 126.4920
312.8951, 127.0912
313.3772, 127.2708
313.8593, 127.0704
314.3414, 126.6953
314.8235, 126.0339
315.3057, 125.2803
315.7878, 125.0208
316.2699, 125.5133
316.7520, 125.9970
317.2341, 125.7384
317.7162, 125.0450
318.1984, 124.5801
318.6805, 124.5518
319.1626, 124.9029
319.6447, 125.7902
320.1268, 127.4212
320.6089, 128.5403
321.0911, 127.8530
321.5732, 126.3601
322.0553, 125.4535
322.5374, 125.6107
323.0195, 126.0919
323.5016, 126.2484
323.9838, 126.0822
324.4659, 125.5387
324.9480, 124.3012
325.4301, 122.8742
325.9122, 121.8659
326.3943, 121.3294
326.8765, 121.0524
327.3586, 120.8078
327.8407, 120.6558
328.3228, 121.0787
328.8049, 122.6930
329.2870, 124.1869
329.7692, 124.0286
330.2513, 122.3695
330.7334, 120.8162
331.2155, 120.2872
331.6976, 120.4069
332.1797, 120.2497
332.6619, 119.5988
333.1440, 119.0144
333.6261, 119.2434
334.1082, 119.9237
334.5903, 120.1540
335.0724, 119.3259
335.5546, 118.0726
336.0367, 117.1473
336.5188, 116.5630
337.0009, 116.2480
337.4830, 116.2632
337.9651, 116.5093
338.4473, 116.8244
338.9294, 117.3357
339.4115, 117.6860
339.8936, 117.4428
340.3757, 116.6939
340.8578, 116.1394
341.3400, 116.1725
341.8221, 116.3804
342.3042, 115.9197
342.7863, 114.5331
343.2684, 113.8568
343.7505, 115.6413
344.2327, 118.6965
344.7148, 119.9056
345.1969, 118.1931
345.6790, 115.6556
346.1611, 114.7992
346.6432, 115.3426
347.1254, 115.6997
347.6075, 115.4716
348.0896, 114.8329
348.5717, 113.6967
349.0538, 112.0127
349.5359, 110.9237
350.0181, 111.7468
350.5002, 113.9332
350.9823, 114.9189
351.4644, 113.2144
351.9465, 111.4272
352.4286, 111.5598
352.9108, 113.2525
353.3929, 114.8128
353.8750, 115.4794
354.3571, 115.4361
354.8392, 115.1278
355.3214, 114.4125
355.8035, 113.7911
356.2856, 113.6008
356.7677, 113.5975
357.2498, 113.2566
357.7319, 112.3743
358.2141, 111.4291
358.6962, 111.1252
359.1783, 109.8353
359.6604, 111.9553
360.1425, 113.1268
360.6246, 113.4009
361.1068, 110.0895
361.5889, 111.4080
362.0710, 110.8711
362.5531, 110.2580
363.0352, 112.2282
363.5173, 109.4383
363.9995, 111.3675
364.4816, 111.4129
364.9637, 112.3205
365.4458, 111.3611
365.9279, 110.9784
366.4100, 112.4632
366.8922, 112.9139
367.3743, 111.7397
367.8564, 112.7020
368.3385, 109.8469
368.8206, 110.3417
369.3027, 112.2818
369.7849, 111.2014
370.2670, 112.1979
370.7491, 112.4034
371.2312, 109.0141
371.7133, 111.8766
372.1954, 112.0353
372.6776, 109.4180
373.1597, 112.0662
373.6418, 109.8316
374.1239, 109.3399
374.6060, 110.1598
375.0881, 109.6124
375.5703, 111.2207
376.0524, 110.2885
376.5345, 111.5074
377.0166, 112.1176
377.4987, 111.2481
377.9808, 109.6878
378.4630, 108.5525
378.9451, 108.3565
379.4272, 108.8404
379.9093, 109.4655
380.3914, 110.8461
380.8735, 111.2703
381.3557, 109.8781
381.8378, 108.1827
382.3199, 107.2771
382.8020, 107.3130
383.2841, 107.7819
383.7662, 108.1996
384.2484, 108.6130
384.7305, 108.6484
385.2126, 107.5183
385.6947, 106.7672
386.1768, 107.2159
386.6589, 108.4060
387.1411, 109.3832
387.6232, 109.5542
388.1053, 109.1319
388.5874, 108.9031
389.0695, 109.1006
389.5516, 109.0404
390.0338, 108.3194
390.5159, 107.4417
390.9980, 106.8481
391.4801, 106.6617
391.9622, 106.7478
392.4443, 106.9949
392.9265, 107.4230
393.4086, 107.8332
393.8907, 108.4575
394.3728, 108.7876
394.8549, 108.2970
395.3370, 107.1962
395.8192, 106.2903
396.3013, 106.1608
396.7834, 106.6175
397.2655, 107.1441
397.7476, 107.9326
398.2297, 108.2851
398.7119, 107.3773
399.1940, 105.9538
399.6761, 104.9588
400.1582, 104.6815
400.6403, 104.7720
401.1224, 104.9316
401.6046, 105.1606
402.0867, 105.4358
402.5688, 105.6914
403.0509, 106.0686
403.5330, 106.9437
404.0151, 108.3486
404.4973, 109.1443
404.9794, 108.2838
405.4615, 106.6452
405.9436, 105.7848
406.4257, 105.9363
406.9078, 106.4398
407.3900, 106.8209
407.8721, 107.1177
408.3542, 107.5322
408.8363, 108.4842
409.3184, 109.1923
409.8005, 108.9518
410.2827, 107.9963
410.7648, 107.0727
411.2469, 106.4369
411.7290, 106.1627
412.2111, 106.5799
412.6932, 108.1563
413.1754, 109.1598
413.6575, 108.9652
414.1396, 108.2314
414.6217, 107.4964
415.1038, 106.9013
415.5859, 106.6181
416.0681, 106.9118
416.5502, 107.8857
417.0323, 108.2231
417.5144, 107.4051
417.9965, 106.6020
418.4786, 106.2350
418.9608, 106.2369
419.4429, 106.4636
419.9250, 106.8548
420.4071, 107.3071
420.8892, 107.5374
421.3713, 107.5084
421.8535, 107.2806
422.3356, 106.7263
422.8177, 106.0813
423.2998, 105.4322
423.7819, 104.8447
424.2640, 104.4722
424.7462, 104.4988
425.2283, 104.9493
425.7104, 105.4377
426.1925, 106.1144
426.6746, 106.6583
427.1567, 107.1322
427.6389, 107.3809
428.1210, 107.0465
428.6031, 105.8594
429.0852, 104.4096
429.5673, 103.9624
430.0494, 104.7774
430.5316, 105.6462
431.0137, 106.5819
431.4958, 107.2725
431.9779, 107.4113
432.4600, 107.0142
432.9421, 106.4638
433.4243, 105.9809
433.9064, 105.5713
434.3885, 105.2665
434.8706, 105.0947
435.3527, 104.9640
435.8348, 104.6914
436.3170, 104.4363
436.7991, 104.5246
437.2812, 105.2243
437.7633, 106.0252
438.2454, 106.3984
438.7275, 106.4107
439.2097, 106.5502
439.6918, 107.0695
440.1739, 107.6572
440.6560, 107.7582
441.1381, 107.3284
441.6202, 107.0909
442.1024, 107.6565
442.5845, 108.2939
443.0666, 108.0126
443.5487, 106.7776
444.0308, 105.4572
444.5129, 104.6340
444.9951, 104.3080
445.4772, 104.3561
445.9593, 105.1468
446.4414, 105.8243
446.9235, 105.9381
447.4056, 105.8322
447.8878, 106.1436
448.3699, 107.0757
448.8520, 108.0964
449.3341, 108.3695
449.8162, 107.5825
450.2983, 106.8923
450.7805, 106.0937
451.2626, 105.5614
451.7447, 105.6769
452.2268, 106.2362
452.7089, 106.6981
453.1910, 106.6864
453.6732, 106.3254
454.1553, 106.1333
454.6374, 106.1612
455.1195, 106.2851
455.6016, 106.7366
456.0837, 107.1034
456.5659, 106.9312
457.0480, 106.1813
457.5301, 105.3472
458.0122, 104.8987
458.4943, 104.8305
458.9764, 104.9865
459.4586, 105.4892
459.9407, 106.0316
460.4228, 106.5352
460.9049, 106.9512
461.3870, 107.1922
461.8691, 107.2343
462.3513, 107.0788
462.8334, 106.5527
463.3155, 105.6834
463.7976, 105.2354
464.2797, 105.6517
464.7618, 106.3488
465.2440, 106.6623
465.7261, 106.6094
466.2082, 106.2096
466.6903, 105.1090
467.1724, 101.7247
467.6545, 104.2281
468.1367, 105.5867
468.6188, 105.8620
469.1009, 101.8095
469.5830, 103.3455
470.0651, 102.6418
470.5472, 101.8464
471.0294, 104.1689
471.5115, 100.7459
471.9936, 103.0190
472.4757, 103.0182
472.9578, 104.0582
473.4399, 102.8447
473.9221, 102.3272
474.4042, 104.0639
474.8863, 104.5525
475.3684, 103.0796
475.8505, 104.1857
476.3326, 100.6839
476.8148, 101.2256
477.2969, 103.5119
477.7790, 102.1523
478.2611, 103.2996
478.7432, 103.4921
479.2253, 99.34570
479.7075, 102.7452
480.1896, 102.8813
480.6717, 99.66663
481.1538, 102.8076
481.6359, 100.0548
482.1180, 99.40581
482.6002, 100.3399
483.0823, 99.62362
483.5644, 101.5094
484.0465, 100.8884
484.5286, 100.0435
485.0107, 100.1759
485.4929, 99.40700
485.9750, 100.0398
486.4571, 99.03101
486.9392, 99.76687
487.4213, 100.8982
487.9034, 99.00157
488.3856, 98.86488
488.8677, 99.65182
489.3498, 100.6671
489.8319, 101.3708
490.3140, 101.7208
490.7961, 101.6787
491.2783, 100.7088
491.7604, 99.91663
492.2425, 100.1067
492.7246, 100.7716
493.2067, 100.8836
493.6888, 100.0824
494.1710, 98.93272
494.6531, 98.33756
495.1352, 98.58650
495.6173, 98.47774
496.0994, 97.50233
496.5815, 96.71434
497.0637, 96.67061
497.5458, 97.21558
498.0279, 98.06420
498.5100, 99.12061
498.9921, 100.0449
499.4742, 99.75030
499.9564, 97.31572
500.4385, 96.02099
500.9206, 97.59319
501.4027, 99.42777
501.8848, 99.85085
502.3669, 98.93867
502.8491, 97.89084
503.3312, 97.50017
503.8133, 97.57666
504.2954, 97.60623
504.7775, 97.55723
505.2596, 97.62528
505.7418, 98.08601
506.2239, 98.60945
506.7060, 98.65071
507.1881, 98.03120
507.6702, 97.57350
508.1523, 98.08311
508.6345, 98.89419
509.1166, 98.58583
509.5987, 96.94257
510.0808, 95.62931
510.5629, 96.17528
511.0450, 98.37424
511.5272, 99.71146
512.0093, 99.84497
512.4914, 99.65847
512.9735, 99.17063
513.4556, 98.60939
513.9377, 98.32738
514.4199, 98.39438
514.9020, 98.46828
515.3841, 98.03933
515.8662, 96.93472
516.3483, 96.52206
516.8304, 97.53999
517.3126, 98.48534
517.7947, 99.18202
518.2768, 99.46819
518.7589, 98.98268
519.2410, 97.54076
519.7231, 95.92986
520.2053, 95.34741
520.6874, 95.86735
521.1695, 96.37589
521.6516, 96.80770
522.1337, 97.09212
522.6158, 97.05126
523.0980, 96.82893
523.5801, 96.85702
524.0622, 97.52568
524.5443, 98.27387
525.0264, 98.52063
525.5085, 98.31573
525.9907, 97.82839
526.4728, 96.94157
526.9549, 96.19447
527.4370, 96.62950
527.9191, 98.56453
528.4012, 99.60416
528.8834, 98.91346
529.3655, 97.76954
529.8476, 96.86065
530.3297, 96.24625
530.8118, 95.89291
531.2939, 95.78908
531.7761, 95.88464
532.2582, 96.06748
532.7403, 96.44678
533.2224, 96.70596
533.7045, 96.94440
534.1866, 96.98716
534.6688, 96.53955
535.1509, 95.78273
535.6330, 95.21793
536.1151, 95.15700
536.5972, 95.52941
537.0793, 96.34683
537.5615, 97.88654
538.0436, 98.69118
538.5257, 97.61523
539.0078, 96.17813
539.4899, 95.78630
539.9720, 96.43387
540.4542, 97.04927
540.9363, 97.02925
541.4184, 96.71290
541.9005, 96.60157
542.3826, 96.70122
542.8647, 96.69901
543.3469, 96.33994
543.8290, 95.86937
544.3111, 96.01834
544.7932, 97.26663
545.2753, 97.92191
545.7574, 97.46728
546.2396, 96.52612
546.7217, 95.32462
547.2038, 94.08524
547.6859, 93.36077
548.1680, 93.57095
548.6501, 94.53246
549.1323, 95.46980
549.6144, 96.58035
550.0965, 97.29280
550.5786, 97.48804
551.0607, 97.37320
551.5428, 96.91081
552.0250, 96.22163
552.5071, 95.74014
552.9892, 95.87302
553.4713, 96.41597
553.9534, 96.81802
554.4355, 97.09147
554.9177, 97.12656
555.3998, 96.60453
555.8819, 96.02536
556.3640, 96.09941
556.8461, 96.91505
557.3282, 97.73546
557.8104, 98.49371
558.2925, 98.98247
558.7746, 98.69984
559.2567, 97.75597
559.7388, 97.12945
560.2209, 97.46614
560.7031, 98.44254
561.1852, 99.02847
561.6673, 99.13718
562.1494, 98.94663
562.6315, 98.03418
563.1136, 97.15518
563.5958, 96.85896
564.0779, 97.12466
564.5600, 97.69899
565.0421, 98.48740
565.5242, 99.30383
566.0063, 99.42144
566.4885, 98.51205
566.9706, 97.86178
567.4527, 98.02043
567.9348, 98.36053
568.4169, 98.42590
568.8990, 98.23840
569.3812, 98.15320
569.8633, 98.53525
570.3454, 99.03316
570.8275, 99.01085
571.3096, 98.51465
571.7917, 98.28333
572.2739, 98.68977
572.7560, 99.42717
573.2381, 99.98823
573.7202, 100.4004
574.2023, 100.5632
574.6844, 100.3005
575.1666, 99.93163
575.6487, 99.49394
576.1308, 99.13638
576.6129, 99.23131
577.0950, 99.99383
577.5771, 101.0788
578.0593, 101.7037
578.5414, 101.6729
579.0235, 101.7143
579.5056, 101.9487
579.9877, 102.1797
580.4698, 102.3401
580.9520, 102.4258
581.4341, 102.4426
581.9162, 102.3842
582.3983, 100.1744
582.8804, 103.0014
583.3625, 104.6835
583.8447, 105.2825
584.3268, 101.5535
584.8089, 103.4131
585.2910, 103.0330
585.7731, 102.5611
586.2552, 105.2072
586.7374, 102.1078
587.2195, 104.7044
587.7016, 105.0273
588.1837, 106.3908
588.6658, 105.5008
589.1479, 105.3069
589.6301, 107.3672
590.1122, 108.1793
590.5943, 107.0300
591.0764, 108.4597
591.5585, 105.2815
592.0406, 106.1467
592.5228, 108.7566
593.0049, 107.7206
593.4870, 109.1915
593.9691, 109.7076
594.4512, 107.5053
594.9333, 107.3395
595.4155, 107.0146
595.8976, 107.2587
596.3797, 108.2532
596.8618, 109.1844
597.3439, 109.6040
597.8260, 109.6111
598.3082, 109.4774
598.7903, 109.0958
599.2724, 108.8458
599.7545, 108.6460
600.2366, 108.7630
600.7188, 109.8262
601.2009, 111.6398
601.6830, 113.0115
602.1651, 113.0825
602.6472, 112.2462
603.1293, 111.9693
603.6115, 112.6006
604.0936, 113.1613
604.5757, 113.5045
605.0578, 113.8325
605.5399, 114.3174
606.0220, 114.9014
606.5042, 115.3747
606.9863, 115.5741
607.4684, 115.6667
607.9505, 115.9005
608.4326, 116.2759
608.9147, 116.7721
609.3969, 117.3977
609.8790, 118.1225
610.3611, 119.0925
610.8432, 120.2594
611.3253, 120.8201
611.8074, 120.1405
612.2896, 119.4099
612.7717, 119.1916
613.2538, 119.3632
613.7359, 119.7549
614.2180, 120.2963
614.7001, 120.8331
615.1823, 121.1182
615.6644, 121.1112
616.1465, 121.7364
616.6286, 123.8892
617.1107, 125.4189
617.5928, 125.2915
618.0750, 124.5934
618.5571, 124.4746
619.0392, 125.1405
619.5213, 125.8939
620.0034, 126.1509
620.4855, 126.1329
620.9677, 126.3374
621.4498, 126.7893
621.9319, 127.3317
622.4140, 127.9159
622.8961, 128.5134
623.3782, 129.0597
623.8604, 129.5320
624.3425, 130.0327
624.8246, 130.5451
625.3067, 131.1103
625.7888, 131.9492
626.2709, 132.8513
626.7531, 133.2735
627.2352, 132.9352
627.7173, 132.2951
628.1994, 132.1634
628.6815, 132.5842
629.1636, 133.2920
629.6458, 134.5988
630.1279, 135.7634
630.6100, 136.5464
631.0921, 136.9289
631.5742, 136.7408
632.0563, 135.6682
632.5385, 134.8519
633.0206, 135.4252
633.5027, 136.7576
633.9848, 137.7289
634.4669, 138.1606
634.9490, 137.9190
635.4312, 136.7306
635.9133, 134.9030
636.3954, 133.8878
636.8775, 133.9950
637.3596, 134.5677
637.8417, 136.2843
638.3239, 137.8918
638.8060, 138.4370
639.2881, 138.0421
639.7702, 137.3364
640.2523, 136.6065
640.7344, 136.0102
641.2166, 136.0826
641.6987, 136.8814
642.1808, 136.9188
642.6629, 135.5227
643.1450, 133.9137
643.6271, 133.2522
644.1093, 133.3017
644.5914, 133.2596
645.0735, 132.7069
645.5556, 132.3992
646.0377, 133.1943
646.5198, 134.2413
647.0020, 134.1012
647.4841, 132.6306
647.9662, 131.0356
648.4483, 130.4063
648.9304, 130.5961
649.4125, 130.5349
649.8947, 130.0830
650.3768, 129.6392
650.8589, 129.6367
651.3410, 129.3787
651.8231, 128.0401
652.3052, 125.8675
652.7874, 124.1673
653.2695, 123.7698
653.7516, 123.9964
654.2337, 124.1919
654.7158, 124.3230
655.1979, 124.1675
655.6801, 123.6150
656.1622, 123.0602
656.6443, 123.0361
657.1264, 123.6072
657.6085, 123.4362
658.0906, 121.6365
658.5728, 120.3124
659.0549, 120.0893
659.5370, 120.5014
660.0191, 121.3650
660.5012, 122.4477
660.9833, 123.0198
661.4655, 122.3152
661.9476, 120.7433
662.4297, 119.5203
662.9118, 118.6444
663.3939, 118.1824
663.8760, 118.3886
664.3582, 118.7439
664.8403, 118.5543
665.3224, 117.8718
665.8045, 117.3705
666.2866, 117.2392
666.7687, 117.2283
667.2509, 117.2974
667.7330, 117.3633
668.2151, 117.2721
668.6972, 116.9973
669.1793, 116.6899
669.6614, 116.5115
670.1436, 116.4498
670.6257, 116.3254
671.1078, 116.1154
671.5899, 115.8893
672.0720, 115.5899
672.5541, 115.3338
673.0363, 115.3191
673.5184, 115.5052
674.0005, 115.4474
674.4826, 114.5242
674.9647, 113.6154
675.4468, 113.9181
675.9290, 114.9789
676.4111, 115.2362
676.8932, 114.1866
677.3753, 113.0533
677.8574, 113.4396
678.3395, 115.4587
678.8217, 116.0529
679.3038, 113.5080
679.7859, 111.7085
680.2680, 111.7656
680.7501, 112.5326
681.2322, 113.1511
681.7144, 113.4425
682.1965, 113.3982
682.6786, 112.7930
683.1607, 111.9976
683.6428, 111.7587
684.1249, 111.9832
684.6071, 111.8111
685.0892, 110.8951
685.5713, 109.8058
686.0534, 109.1225
686.5355, 108.8513
687.0176, 109.0343
687.4998, 110.4102
687.9819, 111.2699
688.4640, 110.6694
688.9461, 109.6707
689.4282, 109.4587
689.9103, 110.0825
690.3925, 110.6379
690.8746, 110.3722
691.3567, 109.6314
691.8388, 109.1367
692.3209, 108.8794
692.8030, 109.2134
693.2852, 110.5735
693.7673, 111.9216
694.2494, 112.1842
694.7315, 111.3971
695.2136, 110.3822
695.6957, 108.6090
696.1779, 107.2866
696.6600, 107.1538
697.1421, 107.4948
697.6242, 107.4790
698.1063, 107.0441
698.5884, 106.7303
699.0706, 107.0289
699.5527, 107.6037
700.0348, 107.2953
700.5169, 105.8605
700.9990, 105.1632
701.4811, 105.8982
701.9633, 106.9932
702.4454, 107.6397
702.9275, 107.9122
703.4096, 108.0314
703.8917, 108.0698
704.3738, 107.8984
704.8560, 107.1813
705.3381, 106.3846
705.8202, 106.0538
706.3023, 106.2343
706.7844, 106.7566
707.2665, 107.5714
707.7487, 108.4036
708.2308, 108.3541
708.7129, 107.1514
709.1950, 106.3571
709.6771, 106.3911
710.1592, 106.5551
710.6414, 106.3203
711.1235, 105.8995
711.6056, 105.7623
712.0877, 106.0728
712.5698, 106.4671
713.0519, 106.7232
713.5341, 106.9942
714.0162, 107.6741
714.4983, 108.6042
714.9804, 108.9698
715.4625, 108.2561
715.9446, 107.0803
716.4268, 106.8617
716.9089, 107.9355
717.3910, 108.4434
717.8731, 108.0497
718.3552, 107.4672
718.8373, 106.7394
719.3195, 106.1526
719.8016, 106.2489
720.2837, 107.2442
720.7658, 108.0908
721.2479, 108.0495
721.7300, 107.7777
722.2122, 108.1421
722.6943, 108.9483
723.1764, 109.2668
723.6585, 108.6830
724.1406, 107.9256
724.6227, 108.3001
725.1049, 110.0711
725.5870, 110.3469
726.0691, 107.8149
726.5512, 105.9189
727.0333, 106.1953
727.5154, 107.4216
727.9976, 108.6073
728.4797, 109.6378
728.9618, 110.2931
729.4439, 110.4738
729.9260, 110.2401
730.4081, 109.2475
730.8903, 107.9308
731.3724, 107.1908
731.8545, 107.3118
732.3366, 108.4165
732.8187, 110.9816
733.3008, 114.7107
733.7830, 115.8619
734.2651, 112.9463
734.7472, 110.6716
735.2293, 110.3829
735.7114, 110.8445
736.1935, 111.4810
736.6757, 112.1693
737.1578, 112.5453
737.6399, 112.2084
738.1220, 111.9066
738.6041, 112.3654
739.0862, 113.0934
739.5684, 113.1792
740.0505, 112.5840
740.5326, 112.0552
741.0147, 112.1363
741.4968, 112.6681
741.9789, 113.2099
742.4611, 113.8161
742.9432, 114.1894
743.4253, 113.8273
743.9074, 113.8368
744.3895, 115.3843
744.8716, 117.5769
745.3538, 118.6608
745.8359, 118.0351
746.3180, 117.3894
746.8001, 117.8686
747.2822, 118.4210
747.7643, 117.5840
748.2465, 115.8024
748.7286, 114.7278
749.2107, 115.1162
749.6928, 116.2309
750.1749, 116.9823
750.6570, 117.3446
751.1392, 117.9836
751.6213, 119.1587
752.1034, 120.0038
752.5855, 119.8010
753.0676, 119.3527
753.5497, 119.8987
754.0319, 121.4993
754.5140, 122.1857
754.9961, 120.1807
755.4782, 118.4938
755.9603, 119.5571
756.4424, 121.8785
756.9246, 123.0569
757.4067, 122.6504
757.8888, 121.8765
758.3709, 121.7299
758.8530, 122.0795
759.3351, 122.5338
759.8173, 123.1152
760.2994, 123.5886
760.7815, 123.8536
761.2636, 124.0928
761.7457, 124.6119
762.2278, 125.2563
762.7100, 125.2871
763.1921, 123.8704
763.6742, 123.1133
764.1563, 124.0355
764.6384, 125.3684
765.1205, 126.2501
765.6027, 126.6179
766.0848, 126.6002
766.5669, 126.2433
767.0490, 125.7586
767.5311, 125.3317
768.0132, 124.9996
768.4954, 124.9696
768.9775, 125.2581
769.4596, 125.9141
769.9417, 127.2375
770.4238, 128.5356
770.9059, 128.4505
771.3881, 126.4178
771.8702, 125.2716
772.3523, 125.5050
772.8344, 125.9966
773.3165, 126.8044
773.7986, 127.4081
774.2808, 126.9831
774.7629, 125.6050
775.2450, 124.5333
775.7271, 124.9186
776.2092, 125.7889
776.6913, 125.5774
777.1735, 124.5584
777.6556, 123.8762
778.1377, 123.7963
778.6198, 123.9546
779.1019, 124.1104
779.5840, 124.1939
780.0662, 123.7889
780.5483, 122.2876
781.0304, 121.4574
781.5125, 122.0166
781.9946, 122.6393
782.4767, 122.9303
782.9589, 122.7615
783.4410, 121.7400
783.9231, 119.5020
784.4052, 117.7880
784.8873, 118.2383
785.3694, 119.3866
785.8516, 119.4192
786.3337, 118.4928
786.8158, 117.4761
787.2979, 116.7238
787.7800, 116.3298
788.2621, 116.4790
788.7443, 117.1523
789.2264, 117.8163
789.7085, 118.6639
790.1906, 118.9495
790.6727, 118.2325
791.1548, 117.0726
791.6370, 115.9016
792.1191, 114.7460
792.6012, 113.8486
793.0833, 113.2646
793.5654, 112.9128
794.0475, 112.9495
794.5297, 113.0769
795.0118, 112.9466
795.4939, 112.6014
795.9760, 112.3699
796.4581, 112.4607
796.9402, 112.5627
797.4224, 112.1624
797.9045, 111.3282
798.3866, 110.5006
798.8687, 109.7085
799.3508, 108.9988
799.8329, 108.3745
800.3151, 107.8813
800.7972, 107.6262
801.2793, 107.6671
801.7614, 107.7195
802.2435, 107.8297
802.7256, 107.8948
803.2078, 107.8185
803.6899, 107.7264
804.1720, 107.7925
804.6541, 108.0012
805.1362, 108.1396
805.6183, 108.2226
806.1005, 108.0349
806.5826, 107.0670
807.0647, 105.7178
807.5468, 104.9437
808.0289, 104.8680
808.5110, 104.9593
808.9932, 104.8584
809.4753, 104.6070
809.9574, 104.2833
810.4395, 103.8358
810.9216, 103.5613
811.4037, 103.6237
811.8859, 103.6103
812.3680, 103.1210
812.8501, 102.5233
813.3322, 102.4034
813.8143, 102.8626
814.2964, 103.2279
814.7786, 103.1732
815.2607, 103.1677
815.7428, 103.8001
816.2249, 104.5024
816.7070, 104.2336
817.1891, 102.9876
817.6713, 101.9576
818.1534, 102.1973
818.6355, 102.9945
819.1176, 102.8705
819.5997, 101.9605
820.0818, 101.4098
820.5640, 101.4679
821.0461, 101.4062
821.5282, 100.6168
822.0103, 99.43803
822.4924, 98.96022
822.9745, 99.86680
823.4567, 99.93625
823.9388, 97.99300
824.4209, 96.56532
824.9030, 96.82865
825.3851, 97.96996
825.8672, 99.07788
826.3494, 100.0035
826.8315, 100.5993
827.3136, 100.9193
827.7957, 100.7697
828.2778, 99.51223
828.7599, 97.82491
829.2421, 97.07131
829.7242, 97.39868
830.2063, 97.79050
830.6884, 97.46261
831.1705, 96.69733
831.6526, 96.10237
832.1348, 94.21317
832.6169, 95.89116
833.0990, 96.80595
833.5811, 96.99855
834.0632, 94.30597
834.5453, 95.33901
835.0275, 94.87897
835.5096, 94.35774
835.9917, 95.91515
836.4738, 93.64220
836.9559, 95.16666
837.4380, 95.17526
837.9202, 95.87761
838.4023, 95.07770
838.8844, 94.74179
839.3665, 95.90865
839.8486, 96.24342
840.3307, 95.27056
840.8129, 96.01701
841.2950, 95.32026
841.7771, 94.06181
842.2592, 94.26643
842.7413, 93.77998
843.2234, 92.97044
843.7056, 92.06474
844.1877, 91.47923
844.6698, 91.20814
845.1519, 91.44458
845.6340, 92.46597
846.1161, 93.20761
846.5983, 93.08985
847.0804, 92.59099
847.5625, 92.41808
848.0446, 92.60548
848.5267, 92.50444
849.0089, 91.61391
849.4910, 91.04403
849.9731, 91.42821
850.4552, 92.01228
850.9373, 92.20921
851.4194, 91.97514
851.9016, 91.36514
852.3837, 90.23605
852.8658, 89.34590
853.3479, 89.69400
853.8300, 90.60464
854.3121, 90.83887
854.7943, 90.43765
855.2764, 90.07861
855.7585, 90.05390
856.2406, 90.19222
856.7227, 90.29839
857.2048, 90.36564
857.6870, 90.28756
858.1691, 90.01688
858.6512, 89.79542
859.1333, 89.72874
859.6154, 89.65799
860.0975, 89.48741
860.5797, 89.19714
861.0618, 88.69012
861.5439, 87.76725
862.0260, 85.54551
862.5081, 87.18607
862.9902, 88.06345
863.4724, 88.21861
863.9545, 85.48859
864.4366, 86.48422
864.9187, 85.98678
865.4008, 85.42811
865.8829, 86.94810
866.3651, 84.63771
866.8472, 86.12473
867.3293, 86.09592
867.8114, 86.76086
868.2935, 85.92352
868.7756, 85.55019
869.2578, 86.67960
869.7399, 86.97693
870.2220, 85.96666
870.7041, 86.67570
871.1862, 84.31285
871.6683, 84.64565
872.1505, 86.14143
872.6326, 85.20669
873.1147, 85.94321
873.5968, 86.04321
874.0789, 83.25055
874.5610, 85.48853
875.0432, 85.55089
875.5253, 83.37943
876.0074, 85.44504
876.4895, 83.58154
876.9716, 83.12048
877.4537, 83.71488
877.9359, 83.20898
878.4180, 84.43778
878.9001, 83.99546
879.3822, 83.40382
879.8643, 83.46377
880.3464, 82.92278
880.8286, 83.31629
881.3107, 82.61541
881.7928, 83.07764
882.2749, 83.80350
882.7570, 82.51073
883.2391, 83.35504
883.7213, 80.88523
884.2034, 81.18846
884.6855, 81.19310
885.1676, 82.97018
885.6497, 80.51656
886.1318, 80.74275
886.6140, 82.10994
887.0961, 81.88059
887.5782, 82.31879
888.0603, 80.78081
888.5424, 81.09928
889.0245, 80.90606
889.5067, 82.48105
889.9888, 82.66012
890.4709, 81.15567
890.9530, 79.65835
891.4351, 81.36062
891.9172, 80.03030
892.3994, 80.33599
892.8815, 78.95202
893.3636, 79.02697
893.8457, 79.07879
894.3278, 79.08878
894.8099, 79.14381
895.2921, 78.74352
895.7742, 79.20657
896.2563, 79.47786
896.7384, 79.52548
897.2205, 79.11465
897.7026, 78.40278
898.1848, 78.02686
898.6669, 78.17620
899.1490, 78.51627
899.6311, 78.74082
900.1132, 78.87002
900.5953, 79.06776
901.0775, 79.38767
901.5596, 79.00716
902.0417, 77.47741
902.5238, 76.38931
903.0059, 76.91048
903.4880, 78.25051
903.9702, 78.80141
904.4523, 78.40134
904.9344, 77.84759
905.4165, 76.75697
905.8986, 76.00912
906.3807, 75.99119
906.8629, 76.23512
907.3450, 76.39331
907.8271, 76.45063
908.3092, 76.47195
908.7913, 76.47847
909.2734, 75.04321
909.7556, 76.75111
910.2377, 77.69583
910.7198, 77.91837
911.2019, 75.25571
911.6840, 76.31868
912.1661, 75.88859
912.6483, 75.39726
913.1304, 76.98460
913.6125, 74.74159
914.0946, 76.29597
914.5767, 76.33449
915.0588, 77.06679
915.5410, 76.29678
916.0231, 75.99081
916.5052, 77.18758
916.9873, 77.55228
917.4694, 76.60934
917.9515, 77.38574
918.4337, 75.09023
918.9158, 75.49037
919.3979, 77.05354
919.8800, 76.18614
920.3621, 76.99000
920.8442, 77.15736
921.3264, 74.43204
921.8085, 76.73737
922.2906, 76.86710
922.7727, 74.76300
923.2548, 76.89594
923.7369, 75.09980
924.2191, 74.70609
924.7012, 75.36783
925.1833, 74.92931
925.6654, 76.22546
926.1475, 75.85048
926.6296, 75.32619
927.1118, 75.45348
927.5939, 74.97987
928.0760, 75.44073
928.5581, 74.80721
929.0402, 75.33678
929.5223, 76.12998
930.0045, 74.90456
930.4866, 75.81622
930.9687, 73.41378
931.4508, 73.78437
931.9329, 73.85635
932.4150, 75.70078
932.8972, 73.31450
933.3793, 73.60804
933.8614, 75.04261
934.3435, 74.88062
934.8256, 75.38615
935.3077, 73.91552
935.7899, 74.30134
936.2720, 74.17546
936.7541, 75.81783
937.2362, 76.06423
937.7183, 74.62714
938.2004, 73.19717
938.6826, 74.96678
939.1647, 73.70380
939.6468, 74.07688
940.1289, 72.76025
940.6110, 72.90256
941.0931, 73.02173
941.5753, 73.88877
942.0574, 73.70142
942.5395, 74.02898
943.0216, 73.86971
943.5037, 74.21127
943.9858, 74.49712
944.4680, 74.66408
944.9501, 74.28639
945.4322, 74.92691
945.9143, 73.39639
946.3964, 72.68962
946.8785, 72.56845
947.3607, 75.21093
947.8428, 75.28464
948.3249, 72.28783
948.8070, 74.80854
949.2891, 73.93477
949.7712, 74.06973
950.2534, 73.83665
950.7355, 73.71252
951.2176, 73.81620
951.6997, 72.51893
952.1818, 74.32004
952.6639, 73.58973
953.1461, 74.57951
953.6282, 72.43451
954.1103, 72.15025
954.5924, 72.35991
955.0745, 72.74971
955.5566, 71.70022
956.0388, 72.03224
956.5209, 71.89150
957.0030, 71.69303
957.4851, 71.74622
957.9672, 71.50028
958.4493, 71.07053
958.9315, 72.95511
959.4136, 71.23853
959.8957, 72.91622
960.3778, 73.50598
960.8599, 72.62492
961.3420, 72.52542
961.8242, 70.94316
962.3063, 71.63477
962.7884, 71.54433
963.2705, 72.74241
963.7526, 71.16612
964.2347, 72.78370
964.7169, 71.28182
965.1990, 73.02871
965.6811, 71.46088
966.1632, 72.84583
966.6453, 70.70622
967.1274, 71.11767
967.6096, 71.73131
968.0917, 72.99807
968.5738, 71.75385
969.0559, 73.17554
969.5380, 72.25771
970.0201, 72.86266
970.5023, 72.62320
970.9844, 71.32689
971.4665, 73.01140
971.9486, 71.97726
972.4307, 72.77884
972.9128, 70.60709
973.3950, 72.04985
973.8771, 72.71447
974.3592, 73.21878
974.8413, 73.04886
975.3234, 72.57849
975.8055, 72.57957
976.2877, 70.81691
976.7698, 70.40781
977.2519, 70.16331
977.7340, 69.98881
978.2161, 70.07917
978.6982, 70.87901
979.1804, 71.96387
979.6625, 71.11346
980.1446, 72.83170
980.6267, 73.78695
981.1088, 74.02023
981.5909, 71.36851
982.0731, 72.44263
982.5552, 72.02390
983.0373, 71.54415
983.5194, 73.14326
984.0015, 70.91222
984.4836, 72.47879
984.9658, 72.52971
985.4479, 73.27460
985.9300, 72.51742
986.4121, 72.22444
986.8942, 73.43445
987.3763, 73.81256
987.8585, 72.88326
988.3406, 73.67349
988.8227, 71.39204
989.3048, 71.80643
989.7869, 73.38406
990.2690, 72.53133
990.7512, 73.35006
991.2333, 73.53249
991.7154, 70.82248
992.1975, 73.14329
992.6796, 73.28873
993.1617, 71.20053
993.6439, 73.34959
994.1260, 71.56976
994.6081, 71.19259
995.0902, 71.87106
995.5723, 71.44948
996.0544, 72.76278
996.5366, 72.40514
997.0187, 71.89841
997.5008, 72.04348
997.9829, 71.58784
998.4650, 72.06688
998.9471, 71.45174
999.4293, 71.99990
999.9114, 72.81190
1000.393, 71.60551
1000.876, 72.53635
1001.358, 70.15334
1001.840, 70.54356
1002.322, 70.63538
1002.804, 72.49986
1003.286, 70.13383
1003.768, 70.44782
1004.250, 71.90305
1004.733, 71.76190
1005.215, 72.28851
1005.697, 70.83916
1006.179, 71.24648
1006.661, 71.14230
1007.143, 72.80656
1007.625, 73.07508
1008.107, 71.66030
1008.589, 70.25285
1009.072, 72.04518
1009.554, 70.80514
1010.036, 71.20135
1010.518, 69.90807
1011.000, 70.07393
1011.482, 70.21687
1011.964, 71.10789
1012.446, 70.94471
1012.929, 71.29663
1013.411, 71.16195
1013.893, 71.52831
1014.375, 71.83916
1014.857, 72.03133
1015.339, 71.67905
1015.821, 72.34519
1016.303, 70.84050
1016.785, 70.15977
1017.268, 70.06482
1017.750, 72.73376
1018.232, 72.83411
1018.714, 69.86417
1019.196, 72.41195
1019.678, 71.56545
1020.160, 71.72789
1020.642, 71.52251
1021.125, 71.42626
1021.607, 71.55807
1022.089, 70.28908
1022.571, 72.11871
1023.053, 71.41711
1023.535, 72.43582
1024.017, 70.31996
1024.499, 70.06505
1024.981, 70.30425
1025.464, 70.72379
1025.946, 69.70425
1026.428, 70.06647
1026.910, 69.95610
1027.392, 69.78821
1027.874, 69.87218
1028.356, 69.65723
1028.838, 69.25866
1029.321, 71.17467
1029.803, 69.48970
1030.285, 71.19922
1030.767, 71.82100
1031.249, 70.97218
1031.731, 70.90511
1032.213, 69.35551
1032.695, 70.07996
1033.177, 70.02259
1033.660, 71.25393
1034.142, 69.71112
1034.624, 71.36237
1035.106, 69.89439
1035.588, 71.67537
1036.070, 70.14185
1036.552, 71.56129
1037.034, 69.45641
1037.516, 69.90276
1037.999, 70.55154
1038.481, 71.85364
1038.963, 70.64496
1039.445, 72.10239
1039.927, 71.22051
1040.409, 71.86162
1040.891, 71.65853
1041.373, 70.39879
1041.855, 72.12008
1042.338, 71.12294
1042.820, 71.96171
1043.302, 69.82735
1043.784, 71.30773
1044.266, 72.01016
1044.748, 72.55248
1045.230, 72.42079
1045.712, 71.98886
1046.195, 72.02858
1046.677, 71.28166
1047.159, 69.38597
1047.641, 69.87452
1048.123, 71.08448
1048.605, 71.93714
1049.087, 70.36960
1049.569, 71.40706
1050.052, 71.27195
1050.534, 72.24686
1051.016, 71.09454
1051.498, 72.47521
1051.980, 70.45068
1052.462, 72.08899
1052.944, 72.73373
1053.426, 69.63789
1053.908, 72.68581
1054.391, 70.18694
1054.873, 70.95826
1055.355, 71.52344
1055.837, 70.48350
1056.319, 72.56393
1056.801, 69.66434
1057.283, 70.27956
1057.765, 72.19846
1058.248, 70.97290
1058.730, 72.82996
1059.212, 71.58982
1059.694, 69.69920
1060.176, 72.37753
1060.658, 70.35545
1061.140, 71.42016
1061.622, 69.91922
1062.104, 69.92090
1062.587, 71.39198
1063.069, 70.20069
1063.551, 71.36832
1064.033, 72.43880
1064.515, 70.74442
1064.997, 71.12769
1065.479, 70.72594
1065.961, 72.05328
1066.443, 72.97889
1066.926, 70.37575
1067.408, 71.64359
1067.890, 71.98953
1068.372, 72.52110
1068.854, 72.92793
1069.336, 72.75615
1069.818, 72.14787
1070.300, 71.67049
1070.782, 71.51183
1071.265, 71.35483
1071.747, 70.91773
1072.229, 69.19459
1072.711, 70.95152
1073.193, 71.94527
1073.675, 72.21683
1074.157, 69.60319
1074.639, 70.71519
1075.122, 70.33414
1075.604, 69.89186
1076.086, 71.52823
1076.568, 69.33423
1077.050, 70.93764
1077.532, 71.02518
1078.014, 71.80650
1078.496, 71.08553
1078.979, 70.82861
1079.461, 72.07442
1079.943, 72.48813
1080.425, 71.59422
1080.907, 72.41964
1081.389, 70.17317
1081.871, 70.62232
1082.353, 72.23452
1082.835, 71.41615
1083.318, 72.26906
1083.800, 72.48544
1084.282, 69.80916
1084.764, 72.16351
1085.246, 72.34226
1085.728, 70.28719
1086.210, 72.46915
1086.692, 70.72204
1087.175, 70.37740
1087.657, 71.08815
1088.139, 70.69865
1088.621, 72.04383
1089.103, 71.71787
1089.585, 71.24261
1090.067, 71.41894
1090.549, 70.99435
1091.031, 71.50423
1091.514, 70.91976
1091.996, 71.49835
1092.478, 72.34058
1092.960, 71.16419
1093.442, 72.12487
1093.924, 69.77146
1094.406, 70.19107
1094.888, 70.31207
1095.370, 72.20554
1095.853, 69.86831
1096.335, 70.21088
1096.817, 71.69447
1097.299, 71.58150
1097.781, 72.13605
1098.263, 70.71445
1098.745, 71.14931
1099.227, 71.07245
1099.709, 72.76383
1100.192, 73.05930
1100.674, 71.67123
1101.156, 70.29028
1101.638, 72.10893
1102.120, 70.89497
1102.602, 71.31708
1103.084, 70.04947
1103.566, 70.24080
1104.049, 70.40902
1104.531, 71.32510
1105.013, 71.18678
1105.495, 71.56335
1105.977, 71.45311
1106.459, 71.84370
1106.941, 72.17857
1107.423, 72.39457
1107.906, 72.06590
1108.388, 72.75546
1108.870, 71.27396
1109.352, 70.61623
1109.834, 70.54408
1110.316, 73.23560
1110.798, 73.35831
1111.280, 70.41054
1111.762, 72.98027
1112.245, 72.15555
1112.727, 72.33953
1113.209, 72.15549
1113.691, 72.08038
1114.173, 72.23309
1114.655, 70.98484
1115.137, 72.83497
1115.619, 72.15369
1116.102, 73.19252
1116.584, 71.09654
1117.066, 70.86131
1117.548, 71.12000
1118.030, 71.55882
1118.512, 70.55835
1118.994, 70.93939
1119.476, 70.84769
1119.958, 70.69824
1120.441, 70.80049
1120.923, 70.60358
1121.405, 70.22284
1121.887, 72.15646
1122.369, 70.48890
1122.851, 72.21561
1123.333, 72.85439
1123.815, 72.02236
1124.297, 71.97188
1124.780, 70.43868
1125.262, 71.17931
1125.744, 71.13791
1126.226, 72.38500
1126.708, 70.85774
1127.190, 72.52434
1127.672, 71.07150
1128.154, 72.86741
1128.636, 71.34860
1129.119, 72.78260
1129.601, 70.69202
1130.083, 71.15249
1130.565, 71.81516
1131.047, 73.13094
1131.529, 71.93575
1132.011, 73.40646
1132.493, 72.53766
1132.976, 73.19166
1133.458, 73.00123
1133.940, 71.75394
1134.422, 73.48747
1134.904, 72.50237
1135.386, 73.35297
1135.868, 71.23024
1136.350, 72.72203
1136.833, 73.43570
1137.315, 73.98903
1137.797, 73.86813
1138.279, 73.44679
1138.761, 73.49689
1139.243, 72.76015
1139.725, 70.87444
1140.207, 71.37275
1140.689, 72.59227
1141.172, 73.45431
1141.654, 71.89591
1142.136, 72.94231
1142.618, 72.81593
1143.100, 73.79935
1143.582, 72.65536
1144.064, 74.04414
1144.546, 72.02752
1145.029, 73.67355
1145.511, 74.32578
1145.993, 71.23723
1146.475, 74.29224
1146.957, 71.80022
1147.439, 72.57820
1147.921, 73.14983
1148.403, 72.11614
1148.885, 74.20263
1149.368, 71.30890
1149.850, 71.92976
1150.332, 73.85409
1150.814, 72.63372
1151.296, 74.49580
1151.778, 73.26047
1152.260, 71.37444
1152.742, 74.05717
1153.224, 72.03928
1153.707, 73.10799
1154.189, 71.61082
1154.671, 71.61605
1155.153, 73.09049
1155.635, 71.90236
1156.117, 73.07292
1156.599, 74.14615
1157.081, 72.45429
1157.563, 72.83990
1158.046, 72.44030
1158.528, 73.76955
1159.010, 74.69686
1159.492, 72.09520
1159.974, 73.90489
1160.456, 72.65922
1160.938, 74.67030
1161.420, 71.58015
1161.903, 71.64552
1162.385, 74.46207
1162.867, 73.43906
1163.349, 74.83454
1163.831, 71.73921
1164.313, 71.77930
1164.795, 74.30152
1165.277, 71.97747
1165.760, 74.89487
1166.242, 72.64034
1166.724, 72.37913
1167.206, 74.38725
1167.688, 73.01630
1168.170, 73.78847
1168.652, 74.48292
1169.134, 74.44278
1169.616, 73.82779
1170.099, 73.37353
1170.581, 73.08141
1171.063, 72.71073
1171.545, 72.24271
1172.027, 72.23204
1172.509, 72.85224
1172.991, 73.74318
1173.473, 74.69198
1173.956, 75.39864
1174.438, 75.08613
1174.920, 74.17510
1175.402, 74.15590
1175.884, 74.76286
1176.366, 75.05093
1176.848, 74.88274
1177.330, 74.33086
1177.813, 72.06344
1178.295, 73.81699
1178.777, 74.80735
1179.259, 75.07552
1179.741, 72.45850
1180.223, 73.56712
1180.705, 73.18266
1181.187, 72.73698
1181.669, 74.36996
1182.151, 72.17259
1182.634, 73.77263
1183.116, 73.85680
1183.598, 74.63473
1184.080, 73.91038
1184.562, 73.65003
1185.044, 74.89246
1185.526, 75.30279
1186.008, 74.40549
1186.490, 75.22752
1186.973, 72.97769
1187.455, 73.42346
1187.937, 75.03227
1188.419, 74.21052
1188.901, 75.06002
1189.383, 75.27301
1189.865, 72.59335
1190.347, 74.94431
1190.830, 75.11971
1191.312, 73.06124
1191.794, 75.23982
1192.276, 73.48932
1192.758, 73.14127
1193.240, 73.84863
1193.722, 73.45576
1194.204, 74.79755
1194.687, 74.46823
1195.169, 73.98958
1195.651, 74.16252
1196.133, 73.73453
1196.615, 74.24104
1197.097, 73.65316
1197.579, 74.22836
1198.061, 75.06721
1198.543, 73.88744
1199.026, 74.84475
1199.508, 72.48796
1199.990, 72.90418
1200.472, 73.02180
1200.954, 74.91187
1201.436, 72.57124
1201.918, 72.91042
1202.400, 74.39062
1202.883, 74.27429
1203.365, 74.82546
1203.847, 73.40047
1204.329, 73.83194
1204.811, 73.75170
1205.293, 75.43970
1205.775, 75.73175
1206.257, 74.34029
1206.740, 72.95599
1207.222, 74.77126
1207.704, 73.55391
1208.186, 73.97263
1208.668, 72.70163
1209.150, 72.88957
1209.632, 73.05438
1210.114, 73.96708
1210.596, 73.82536
1211.078, 74.19856
1211.561, 74.08495
1212.043, 74.47215
1212.525, 74.80364
1213.007, 75.01627
1213.489, 74.68420
1213.971, 75.37035
1214.453, 73.88547
1214.935, 73.22434
1215.417, 73.14880
1215.900, 75.83696
1216.382, 75.95630
1216.864, 75.44118
1217.346, 75.83146
1217.828, 74.48801
1218.310, 73.48420
1218.792, 74.54906
1219.274, 73.77216
1219.757, 73.77686
1220.239, 74.26325
1220.721, 73.85146
1221.203, 74.54371
1221.685, 75.32956
1222.167, 75.95418
1222.649, 75.73751
1223.131, 74.56050
1223.614, 73.79438
1224.096, 74.61701
1224.578, 75.85816
1225.060, 76.31422
1225.542, 76.38950
1226.024, 76.43993
1226.506, 76.52032
1226.988, 76.79557
1227.470, 77.12048
1227.953, 76.99723
1228.435, 76.26833
1228.917, 74.30462
1229.399, 76.07033
1229.881, 77.07283
1230.363, 77.35316
1230.845, 74.74829
1231.327, 75.86906
1231.810, 75.49680
1232.292, 75.06328
1232.774, 76.70841
1233.256, 74.52319
1233.738, 76.13536
1234.220, 76.23167
1234.702, 77.02176
1235.184, 76.30956
1235.667, 76.06142
1236.149, 77.31599
1236.631, 77.73847
1237.113, 76.85333
1237.595, 77.68752
1238.077, 75.44981
1238.559, 75.90774
1239.041, 77.52870
1239.523, 76.71909
1240.005, 77.58075
1240.488, 77.80595
1240.970, 75.13844
1241.452, 77.50154
1241.934, 77.68907
1242.416, 75.64276
1242.898, 77.83350
1243.380, 76.69057
1243.862, 76.01402
1244.344, 75.24934
1244.827, 75.75420
1245.309, 76.77256
1245.791, 76.86944
1246.273, 77.57677
1246.755, 76.38915
1247.237, 77.41253
1247.719, 77.71371
1248.201, 75.12971
1248.684, 76.27142
1249.166, 75.91998
1249.648, 75.50732
1250.130, 77.17331
1250.612, 75.00895
1251.094, 76.64198
1251.576, 76.75916
1252.058, 77.57010
1252.541, 76.87885
1253.023, 76.65151
1253.505, 77.92696
1253.987, 78.37030
1254.469, 77.50602
1254.951, 78.36107
1255.433, 76.14422
1255.915, 76.62301
1256.397, 78.26482
1256.880, 77.47617
1257.362, 78.35869
1257.844, 78.60469
1258.326, 75.95805
1258.808, 78.34201
1259.290, 78.55041
1259.772, 76.52495
1260.254, 78.73655
1260.737, 77.01915
1261.219, 76.70409
1261.701, 77.44449
1262.183, 77.08462
1262.665, 78.45943
1263.147, 78.16309
1263.629, 77.71746
1264.111, 77.92340
1264.594, 77.52846
1265.076, 78.06805
1265.558, 77.51317
1266.040, 78.12140
1266.522, 78.99325
1267.004, 77.84649
1267.486, 78.83679
1267.968, 76.51302
1268.450, 76.96225
1268.932, 77.11288
1269.415, 79.03606
1269.897, 76.72843
1270.379, 77.10063
1270.861, 78.61385
1271.343, 78.53050
1271.825, 79.11469
1272.307, 77.72272
1272.789, 78.18719
1273.271, 78.13996
1273.754, 79.86107
1274.236, 80.18613
1274.718, 78.82769
1275.200, 77.47636
1275.682, 79.32465
1276.164, 78.14031
1276.646, 78.59204
1277.128, 77.35407
1277.611, 77.57511
1278.093, 77.77293
1278.575, 78.71864
1279.057, 78.60993
1279.539, 79.01614
1280.021, 78.93553
1280.503, 79.35575
1280.985, 79.72025
1281.468, 79.84893
1281.950, 77.75658
1282.432, 80.38608
1282.914, 78.93420
1283.396, 79.19057
1283.878, 79.98844
1284.360, 79.87711
1284.842, 79.25910
1285.324, 79.27937
##END=



