##NAMES=Armangite
##RRUFFID=R100041
##IDEAL CHEMISTRY=Mn^2+^_26_As^3+^_18_O_50_(CO_3_)(OH)_4_
##LOCALITY=Langban, Filipstad, Varmland, Sweden
##OWNER=RRUFF
##SOURCE=William W. Pinch
##DESCRIPTION=Elongated prismatic transparent brown, associated with green magnussonite R100027, and white nadorite
##STATUS=The identification of this mineral is confirmed by single-crystal X-ray diffraction and chemical analysis.
##URL=rruff.info/R100041
##MEASURED CHEMISTRY=(Mn_25.07_Fe_0.26_Ca_0.09_)_Î£25.42_As_18.38_O_50_(CO_3_)(OH)_4_
90.49219, 13.80088
90.97430, 11.29281
91.45642, 10.40137
91.93854, 12.59114
92.42065, 15.97245
92.90277, 17.69328
93.38489, 17.42088
93.86700, 16.27642
94.34912, 15.39913
94.83124, 14.76353
95.31335, 14.25026
95.79547, 13.88201
96.27759, 13.60545
96.75970, 13.10563
97.24182, 12.18305
97.72394, 11.21562
98.20605, 11.20923
98.68817, 12.27917
99.17029, 13.37873
99.65240, 13.54849
100.1345, 12.70793
100.6166, 12.15610
101.0988, 12.24626
101.5809, 12.87884
102.0630, 13.21540
102.5451, 13.22541
103.0272, 12.99977
103.5093, 12.57092
103.9915, 11.80610
104.4736, 11.19880
104.9557, 10.95882
105.4378, 11.20283
105.9199, 11.12419
106.4020, 10.44239
106.8842, 9.574611
107.3663, 9.262057
107.8484, 9.948557
108.3305, 10.68048
108.8126, 11.12390
109.2947, 11.04377
109.7769, 11.06712
110.2590, 11.40580
110.7411, 11.88541
111.2232, 11.95526
111.7053, 10.84634
112.1874, 9.859427
112.6696, 9.587755
113.1517, 11.45945
113.6338, 12.57182
114.1159, 11.98913
114.5980, 9.999059
115.0801, 8.654986
115.5623, 8.856340
116.0444, 9.693715
116.5265, 10.46073
117.0086, 11.15734
117.4907, 11.60098
117.9728, 11.58593
118.4550, 11.09373
118.9371, 10.73717
119.4192, 11.06859
119.9013, 11.63151
120.3834, 11.83812
120.8655, 11.06247
121.3477, 10.08829
121.8298, 9.448256
122.3119, 9.195230
122.7940, 9.202551
123.2761, 9.625305
123.7582, 10.26309
124.2404, 10.66961
124.7225, 10.38388
125.2046, 9.810508
125.6867, 9.418185
126.1688, 9.245631
126.6509, 9.329825
127.1331, 9.768450
127.6152, 10.52779
128.0973, 11.44020
128.5794, 12.45497
129.0615, 13.53950
129.5436, 14.63466
130.0258, 15.78455
130.5079, 16.87704
130.9900, 17.61307
131.4721, 17.98673
131.9542, 18.46566
132.4363, 19.46046
132.9185, 20.92992
133.4006, 22.59798
133.8827, 24.44718
134.3648, 26.41797
134.8469, 28.34023
135.3290, 30.14872
135.8112, 32.20565
136.2933, 35.00106
136.7754, 38.58951
137.2575, 42.23116
137.7396, 45.60561
138.2217, 48.67540
138.7039, 52.33600
139.1860, 56.76426
139.6681, 61.51599
140.1502, 66.10049
140.6323, 70.54408
141.1144, 74.58470
141.5966, 78.08913
142.0787, 80.96152
142.5608, 83.60673
143.0429, 85.93212
143.5250, 88.07732
144.0071, 90.32072
144.4893, 92.58484
144.9714, 95.04247
145.4535, 97.74433
145.9356, 100.7773
146.4177, 103.9174
146.8998, 106.9920
147.3820, 110.1531
147.8641, 114.2023
148.3462, 119.4896
148.8283, 125.2828
149.3104, 131.2779
149.7925, 137.7216
150.2747, 144.0045
150.7568, 149.9804
151.2389, 155.6665
151.7210, 161.2531
152.2031, 166.6501
152.6852, 171.9456
153.1674, 177.2547
153.6495, 182.8731
154.1316, 188.1499
154.6137, 193.0448
155.0958, 197.5574
155.5779, 201.5618
156.0601, 204.5547
156.5422, 207.2612
157.0243, 210.2654
157.5064, 213.7814
157.9885, 217.5049
158.4706, 221.4868
158.9528, 225.7868
159.4349, 229.7881
159.9170, 232.5231
160.3991, 235.1145
160.8812, 238.8599
161.3633, 245.4416
161.8455, 252.2079
162.3276, 257.6570
162.8097, 261.1116
163.2918, 265.5964
163.7739, 273.0759
164.2560, 281.9161
164.7382, 288.2279
165.2203, 291.4305
165.7024, 294.7471
166.1845, 300.0064
166.6666, 307.9756
167.1487, 316.0926
167.6309, 323.2986
168.1130, 329.7440
168.5951, 335.6037
169.0772, 340.5420
169.5593, 345.2473
170.0414, 350.4287
170.5236, 356.5619
171.0057, 362.3952
171.4878, 367.0112
171.9699, 370.6522
172.4520, 373.9426
172.9341, 376.8253
173.4163, 379.7420
173.8984, 383.3213
174.3805, 388.1201
174.8626, 392.9250
175.3447, 396.4249
175.8268, 398.8857
176.3090, 401.5615
176.7911, 405.6500
177.2732, 410.4218
177.7553, 414.6970
178.2374, 418.2338
178.7195, 421.1048
179.2017, 423.2988
179.6838, 424.8690
180.1659, 426.1024
180.6480, 427.1921
181.1301, 428.1250
181.6122, 428.9257
182.0944, 429.7906
182.5765, 430.3912
183.0586, 430.0605
183.5407, 428.8160
184.0228, 427.2197
184.5049, 426.0872
184.9871, 425.1123
185.4692, 423.2153
185.9513, 419.8566
186.4334, 415.4365
186.9155, 410.7253
187.3976, 405.7446
187.8798, 400.4818
188.3619, 395.0338
188.8440, 389.3170
189.3261, 383.0980
189.8082, 375.8807
190.2903, 368.0667
190.7725, 361.0392
191.2546, 354.7581
191.7367, 348.9839
192.2188, 343.4058
192.7009, 337.9721
193.1830, 332.6797
193.6652, 327.5617
194.1473, 322.5583
194.6294, 317.6752
195.1115, 312.9774
195.5936, 308.1839
196.0757, 302.5940
196.5579, 296.1534
197.0400, 290.4458
197.5221, 286.5421
198.0042, 284.2887
198.4863, 280.8442
198.9684, 275.9023
199.4506, 270.4817
199.9327, 266.1717
200.4148, 263.0308
200.8969, 260.2256
201.3790, 257.4343
201.8611, 254.6656
202.3433, 251.9535
202.8254, 249.2784
203.3075, 246.6702
203.7896, 244.2400
204.2717, 241.9965
204.7538, 239.7969
205.2360, 237.4123
205.7181, 234.7306
206.2002, 232.9839
206.6823, 232.4783
207.1644, 232.5347
207.6465, 231.7927
208.1287, 230.0041
208.6108, 228.3241
209.0929, 227.3300
209.5750, 227.1739
210.0571, 226.8842
210.5392, 226.4240
211.0214, 225.8666
211.5035, 225.3722
211.9856, 224.9897
212.4677, 224.5628
212.9498, 223.8726
213.4319, 222.6731
213.9140, 222.4091
214.3962, 223.5991
214.8783, 225.4031
215.3604, 225.7728
215.8425, 224.2455
216.3246, 222.3324
216.8067, 220.6243
217.2889, 219.1041
217.7710, 217.9042
218.2531, 217.1135
218.7352, 216.5943
219.2173, 215.9994
219.6994, 215.2735
220.1816, 214.5667
220.6637, 213.9806
221.1458, 213.6579
221.6279, 212.9968
222.1100, 211.7542
222.5921, 210.2632
223.0743, 209.3955
223.5564, 209.4017
224.0385, 209.6125
224.5206, 209.7767
225.0027, 210.0076
225.4848, 209.8631
225.9670, 209.0706
226.4491, 207.9917
226.9312, 207.6545
227.4133, 208.5723
227.8954, 209.4027
228.3775, 209.4191
228.8597, 208.0614
229.3418, 207.2836
229.8239, 207.3440
230.3060, 207.9221
230.7881, 208.1000
231.2702, 207.5685
231.7524, 207.0934
232.2345, 207.0443
232.7166, 207.6309
233.1987, 208.1436
233.6808, 208.5705
234.1629, 208.9220
234.6451, 209.2397
235.1272, 209.5663
235.6093, 209.8020
236.0914, 209.8207
236.5735, 209.2173
237.0556, 209.4090
237.5378, 210.9083
238.0199, 213.0625
238.5020, 214.0825
238.9841, 213.0367
239.4662, 212.2609
239.9483, 212.8577
240.4305, 215.6128
240.9126, 217.8583
241.3947, 219.3831
241.8768, 220.4614
242.3589, 221.8244
242.8410, 223.8501
243.3232, 225.5682
243.8053, 226.3987
244.2874, 225.5403
244.7695, 225.7937
245.2516, 227.6506
245.7337, 230.4229
246.2159, 232.5832
246.6980, 233.9339
247.1801, 234.9886
247.6622, 235.8997
248.1443, 236.5384
248.6264, 237.4415
249.1086, 238.8042
249.5907, 240.3459
250.0728, 241.4740
250.5549, 242.0379
251.0370, 242.4411
251.5191, 242.8229
252.0013, 243.1824
252.4834, 243.5126
252.9655, 243.8557
253.4476, 244.1355
253.9297, 244.2113
254.4118, 244.0647
254.8940, 243.7425
255.3761, 243.2726
255.8582, 242.6777
256.3403, 241.8235
256.8224, 240.6854
257.3046, 239.3110
257.7867, 237.7523
258.2688, 235.8364
258.7509, 234.0844
259.2330, 232.7129
259.7151, 231.7785
260.1973, 230.9427
260.6794, 230.5213
261.1615, 229.9172
261.6436, 228.0842
262.1257, 224.3640
262.6078, 220.9826
263.0900, 218.6667
263.5721, 217.4804
264.0542, 216.5289
264.5363, 215.8063
265.0184, 215.3076
265.5005, 215.1209
265.9827, 215.4858
266.4648, 215.4623
266.9469, 214.7830
267.4290, 213.4472
267.9111, 211.6366
268.3932, 209.1118
268.8754, 206.5008
269.3575, 204.5357
269.8396, 203.3118
270.3217, 202.3263
270.8038, 201.4861
271.2859, 200.7832
271.7681, 200.2402
272.2502, 199.9596
272.7323, 199.6308
273.2144, 198.8975
273.6965, 197.6768
274.1786, 196.5199
274.6608, 195.6549
275.1429, 194.9778
275.6250, 193.5800
276.1071, 191.2538
276.5892, 188.8104
277.0714, 187.0611
277.5535, 186.0594
278.0356, 185.1896
278.5177, 184.4171
278.9998, 183.6729
279.4819, 182.6308
279.9641, 181.2284
280.4462, 179.7539
280.9283, 178.4464
281.4104, 177.3257
281.8925, 176.1194
282.3746, 174.7464
282.8568, 173.2927
283.3389, 172.0030
283.8210, 170.8858
284.3031, 169.8548
284.7852, 168.6951
285.2673, 167.4506
285.7495, 166.9422
286.2316, 167.5911
286.7137, 168.5559
287.1958, 167.7457
287.6779, 165.0956
288.1600, 162.6226
288.6422, 161.7701
289.1243, 162.3125
289.6064, 162.6893
290.0885, 162.7846
290.5706, 162.6552
291.0527, 162.3414
291.5349, 161.8533
292.0170, 161.3159
292.4991, 160.8576
292.9812, 160.4176
293.4633, 159.7877
293.9454, 158.9493
294.4276, 157.9480
294.9097, 156.7231
295.3918, 155.3354
295.8739, 154.1305
296.3560, 153.2378
296.8381, 152.6536
297.3203, 152.5486
297.8024, 152.9817
298.2845, 153.3614
298.7666, 153.0078
299.2487, 152.0783
299.7308, 151.0443
300.2130, 149.9078
300.6951, 148.8562
301.1772, 148.2549
301.6593, 148.1051
302.1414, 148.0746
302.6235, 148.0450
303.1057, 147.9220
303.5878, 147.4948
304.0699, 146.4013
304.5520, 145.2007
305.0341, 144.5396
305.5162, 144.3848
305.9984, 144.4402
306.4805, 144.7040
306.9626, 144.9933
307.4447, 145.0350
307.9268, 144.6564
308.4089, 144.1365
308.8911, 143.5227
309.3732, 142.9059
309.8553, 142.6653
310.3374, 143.4701
310.8195, 144.5546
311.3016, 145.0664
311.7838, 144.5269
312.2659, 144.0364
312.7480, 144.5066
313.2301, 145.5982
313.7122, 146.4758
314.1943, 146.3194
314.6765, 146.0955
315.1586, 146.6272
315.6407, 148.3042
316.1228, 149.7644
316.6049, 149.9504
317.0870, 149.5406
317.5692, 149.6472
318.0513, 151.1145
318.5334, 152.8246
319.0155, 154.3255
319.4976, 155.6091
319.9797, 156.5268
320.4619, 156.6627
320.9440, 156.5333
321.4261, 156.7151
321.9082, 157.7376
322.3903, 158.7115
322.8724, 159.3499
323.3546, 159.6382
323.8367, 159.8723
324.3188, 160.0551
324.8009, 160.2379
325.2830, 160.4587
325.7651, 160.5775
326.2473, 160.9029
326.7294, 161.7771
327.2115, 163.0666
327.6936, 163.7076
328.1757, 162.8605
328.6578, 161.9169
329.1400, 161.5648
329.6221, 162.2603
330.1042, 162.9432
330.5863, 163.8183
331.0684, 164.6820
331.5505, 164.8858
332.0327, 163.7412
332.5148, 162.7455
332.9969, 162.5769
333.4790, 163.7496
333.9611, 164.3259
334.4432, 164.1538
334.9254, 163.4679
335.4075, 162.6271
335.8896, 161.4965
336.3717, 160.4782
336.8538, 159.7833
337.3359, 159.4671
337.8180, 158.7810
338.3001, 157.5932
338.7823, 156.2434
339.2644, 155.1318
339.7465, 154.2897
340.2286, 153.5450
340.7107, 152.9779
341.1928, 152.4952
341.6750, 151.4317
342.1571, 149.6456
342.6392, 147.7507
343.1213, 146.3329
343.6034, 145.4147
344.0855, 144.1390
344.5677, 142.2618
345.0498, 140.0653
345.5319, 138.2550
346.0140, 136.8361
346.4961, 135.6524
346.9782, 134.7671
347.4604, 134.0775
347.9425, 133.0604
348.4246, 131.5764
348.9067, 130.0042
349.3888, 129.0546
349.8709, 128.5876
350.3531, 127.8191
350.8352, 125.8765
351.3173, 123.4763
351.7994, 122.1026
352.2815, 121.8723
352.7636, 121.9383
353.2458, 121.7781
353.7279, 121.3039
354.2100, 120.3048
354.6921, 117.9019
355.1742, 115.4835
355.6563, 114.8476
356.1385, 115.8316
356.6206, 116.6972
357.1027, 115.9403
357.5848, 114.5118
358.0669, 113.5431
358.5490, 113.5600
359.0312, 113.7660
359.5133, 113.8217
359.9954, 113.6869
360.4775, 113.2440
360.9596, 111.9787
361.4417, 110.6852
361.9239, 109.9610
362.4060, 110.1044
362.8881, 110.2100
363.3702, 109.6834
363.8523, 108.9536
364.3344, 108.6787
364.8166, 109.6568
365.2987, 110.5781
365.7808, 110.8756
366.2629, 110.4530
366.7450, 110.0573
367.2271, 109.6734
367.7093, 109.4325
368.1914, 109.4503
368.6735, 110.0365
369.1556, 110.5539
369.6377, 110.8490
370.1198, 110.9608
370.6020, 111.2110
371.0841, 111.7296
371.5662, 112.2675
372.0483, 112.7178
372.5304, 113.2829
373.0125, 113.3402
373.4947, 112.5274
373.9768, 111.3234
374.4589, 110.8974
374.9410, 111.5698
375.4231, 112.3628
375.9052, 112.8837
376.3874, 113.0738
376.8695, 113.4758
377.3516, 114.1205
377.8337, 114.9338
378.3158, 115.9813
378.7979, 117.3541
379.2801, 118.2439
379.7622, 118.1645
380.2443, 117.4610
380.7264, 117.8765
381.2085, 119.5520
381.6906, 121.3363
382.1728, 122.1870
382.6549, 122.2450
383.1370, 122.3554
383.6191, 122.6745
384.1012, 123.0881
384.5833, 123.4386
385.0655, 123.7258
385.5476, 123.9512
386.0297, 123.8204
386.5118, 123.7012
386.9939, 124.4961
387.4760, 126.4159
387.9582, 128.2508
388.4403, 128.5782
388.9224, 127.9962
389.4045, 127.7484
389.8866, 128.8232
390.3687, 130.1241
390.8509, 130.5901
391.3330, 130.2894
391.8151, 130.0798
392.2972, 130.6097
392.7793, 131.4096
393.2614, 132.0505
393.7436, 132.5200
394.2257, 132.6604
394.7078, 132.0139
395.1899, 130.9453
395.6720, 130.4130
396.1541, 131.2243
396.6363, 132.2411
397.1184, 132.9038
397.6005, 133.0127
398.0826, 133.2175
398.5647, 133.9049
399.0468, 134.6424
399.5290, 134.9055
400.0111, 134.3161
400.4932, 133.6102
400.9753, 132.6817
401.4574, 131.5331
401.9395, 131.2512
402.4217, 132.5916
402.9038, 133.9974
403.3859, 134.3640
403.8680, 133.1421
404.3501, 132.1642
404.8322, 131.5331
405.3144, 131.2336
405.7965, 131.3257
406.2786, 131.9442
406.7607, 132.5072
407.2428, 132.7449
407.7249, 132.6487
408.2071, 132.4441
408.6892, 132.0682
409.1713, 131.7617
409.6534, 131.9182
410.1355, 132.5112
410.6176, 133.0241
411.0998, 133.3709
411.5819, 133.5029
412.0640, 133.2214
412.5461, 132.5408
413.0282, 131.7638
413.5103, 130.7736
413.9925, 129.9031
414.4746, 130.0621
414.9567, 131.7514
415.4388, 133.4477
415.9209, 133.1435
416.4030, 131.5761
416.8852, 130.5697
417.3673, 131.6443
417.8494, 133.2764
418.3315, 134.2863
418.8136, 134.5938
419.2957, 134.5264
419.7779, 133.6980
420.2600, 132.8201
420.7421, 132.6190
421.2242, 133.9849
421.7063, 135.3425
422.1884, 136.2571
422.6706, 136.7752
423.1527, 137.1083
423.6348, 137.0661
424.1169, 137.0370
424.5990, 137.1994
425.0811, 137.6185
425.5633, 138.1163
426.0454, 138.7688
426.5275, 139.4599
427.0096, 140.0299
427.4917, 140.2227
427.9738, 140.6932
428.4560, 141.7081
428.9381, 143.2357
429.4202, 144.3430
429.9023, 144.9145
430.3844, 145.2559
430.8665, 145.4506
431.3487, 145.3918
431.8308, 145.9219
432.3129, 147.3124
432.7950, 149.0601
433.2771, 150.0078
433.7592, 150.1133
434.2414, 150.2609
434.7235, 150.9816
435.2056, 152.0911
435.6877, 152.8287
436.1698, 153.1750
436.6519, 153.3581
437.1341, 153.5832
437.6162, 153.8171
438.0983, 153.9797
438.5804, 154.0500
439.0625, 154.0407
439.5446, 153.8380
440.0268, 153.5320
440.5089, 153.4492
440.9910, 153.9990
441.4731, 154.7299
441.9552, 155.2252
442.4373, 155.3904
442.9195, 155.5604
443.4016, 156.0502
443.8837, 156.5942
444.3658, 156.8691
444.8479, 156.5845
445.3300, 156.2135
445.8122, 155.9067
446.2943, 155.6547
446.7764, 155.3232
447.2585, 154.7977
447.7406, 154.2601
448.2227, 153.7992
448.7049, 153.4533
449.1870, 153.1250
449.6691, 152.8829
450.1512, 152.6253
450.6333, 152.1596
451.1154, 151.3044
451.5976, 150.6301
452.0797, 150.3550
452.5618, 150.4410
453.0439, 150.3593
453.5260, 150.1034
454.0081, 149.7078
454.4903, 149.0276
454.9724, 148.0787
455.4545, 147.7121
455.9366, 148.1601
456.4187, 148.9674
456.9008, 149.4512
457.3830, 149.6223
457.8651, 149.5304
458.3472, 149.0129
458.8293, 148.3102
459.3114, 147.7901
459.7935, 147.4627
460.2757, 147.3853
460.7578, 147.6405
461.2399, 148.1675
461.7220, 148.9459
462.2041, 150.2806
462.6862, 151.3450
463.1684, 151.2507
463.6505, 150.4680
464.1326, 150.0886
464.6147, 150.8184
465.0968, 151.8394
465.5789, 152.6902
466.0611, 153.2790
466.5432, 154.1397
467.0253, 155.8215
467.5074, 157.5726
467.9895, 158.7559
468.4716, 158.8470
468.9538, 158.9983
469.4359, 159.1093
469.9180, 159.3281
470.4001, 160.2462
470.8822, 162.3775
471.3643, 164.2823
471.8465, 165.2371
472.3286, 165.1022
472.8107, 165.6133
473.2928, 166.9689
473.7749, 168.4742
474.2570, 169.3123
474.7392, 169.4892
475.2213, 169.5399
475.7034, 169.4840
476.1855, 169.4851
476.6676, 170.0750
477.1497, 171.1739
477.6319, 172.0108
478.1140, 171.7463
478.5961, 171.0423
479.0782, 171.0442
479.5603, 171.8561
480.0424, 172.9457
480.5246, 174.2892
481.0067, 175.5278
481.4888, 176.1371
481.9709, 175.3995
482.4530, 174.6347
482.9352, 174.4361
483.4173, 174.7430
483.8994, 175.3645
484.3815, 176.7043
484.8636, 177.9634
485.3457, 178.6667
485.8279, 178.5640
486.3100, 178.7526
486.7921, 179.2990
487.2742, 180.1928
487.7563, 181.4832
488.2384, 183.5872
488.7206, 185.3772
489.2027, 186.6607
489.6848, 187.5536
490.1669, 188.4244
490.6490, 189.2536
491.1311, 190.1026
491.6133, 190.9858
492.0954, 191.9074
492.5775, 192.8361
493.0596, 193.7298
493.5417, 194.7972
494.0238, 196.4103
494.5060, 198.4452
494.9881, 200.2703
495.4702, 201.6057
495.9523, 202.8278
496.4344, 204.6040
496.9165, 206.7579
497.3987, 208.6195
497.8808, 209.5769
498.3629, 210.2252
498.8450, 211.1911
499.3271, 212.5473
499.8092, 213.7558
500.2914, 214.2668
500.7735, 214.6240
501.2556, 215.3701
501.7377, 217.3765
502.2198, 218.8760
502.7019, 219.3967
503.1841, 219.1312
503.6662, 218.6228
504.1483, 218.0010
504.6304, 217.0295
505.1125, 215.5194
505.5946, 213.4016
506.0768, 211.7253
506.5589, 210.8572
507.0410, 209.9087
507.5231, 207.9988
508.0052, 204.9262
508.4873, 202.3462
508.9695, 200.6448
509.4516, 199.2681
509.9337, 197.0784
510.4158, 194.1233
510.8979, 191.3284
511.3800, 189.3444
511.8622, 187.6955
512.3443, 185.1263
512.8264, 181.7037
513.3085, 178.2911
513.7906, 175.4569
514.2728, 173.0648
514.7549, 171.0407
515.2370, 169.5476
515.7191, 167.8743
516.2012, 165.2156
516.6833, 162.1740
517.1655, 159.6299
517.6476, 158.4404
518.1297, 157.2315
518.6118, 155.4537
519.0939, 153.1552
519.5760, 151.0031
520.0582, 148.9536
520.5403, 147.1953
521.0224, 145.9374
521.5045, 145.5675
521.9866, 144.4507
522.4688, 142.0661
522.9509, 139.5064
523.4330, 138.2089
523.9151, 138.4168
524.3972, 138.5571
524.8793, 138.3282
525.3615, 137.7954
525.8436, 137.0376
526.3257, 136.0555
526.8078, 135.1216
527.2899, 134.4349
527.7720, 133.8941
528.2542, 133.2284
528.7363, 132.4216
529.2184, 131.7313
529.7005, 131.4849
530.1826, 131.4625
530.6647, 131.3595
531.1469, 131.0190
531.6290, 130.7046
532.1111, 130.6422
532.5932, 130.7072
533.0753, 130.6463
533.5574, 130.0751
534.0396, 129.6624
534.5217, 129.8026
535.0038, 130.5542
535.4859, 130.8074
535.9680, 129.9622
536.4501, 129.1747
536.9323, 129.1740
537.4144, 130.3803
537.8965, 131.2203
538.3786, 131.6794
538.8607, 131.7527
539.3428, 131.1440
539.8250, 129.7468
540.3071, 129.1318
540.7892, 130.0170
541.2713, 131.7570
541.7534, 132.9465
542.2355, 133.5821
542.7177, 133.6142
543.1998, 132.3988
543.6819, 130.7835
544.1640, 130.2579
544.6461, 130.9792
545.1282, 131.6853
545.6104, 131.5224
546.0925, 130.8394
546.5746, 129.9829
547.0567, 128.5124
547.5388, 127.6272
548.0209, 128.2890
548.5031, 129.8024
548.9852, 130.6498
549.4673, 130.1528
549.9494, 129.4295
550.4315, 128.6043
550.9136, 127.6797
551.3958, 127.3084
551.8779, 127.8053
552.3600, 128.3261
552.8421, 128.2238
553.3242, 127.3858
553.8063, 127.0512
554.2885, 127.3668
554.7706, 127.9266
555.2527, 128.3024
555.7348, 128.4789
556.2169, 128.2943
556.6990, 127.4363
557.1812, 126.5398
557.6633, 126.7554
558.1454, 127.7933
558.6275, 128.5655
559.1096, 128.2193
559.5917, 127.5050
560.0739, 126.9628
560.5560, 126.6295
561.0381, 126.4830
561.5202, 126.7419
562.0023, 127.0468
562.4844, 127.1263
562.9666, 126.7637
563.4487, 126.4374
563.9308, 126.1283
564.4129, 125.8881
564.8950, 125.8156
565.3771, 125.9969
565.8593, 126.1321
566.3414, 126.0622
566.8235, 125.9044
567.3056, 126.3557
567.7877, 127.5282
568.2698, 128.4661
568.7520, 128.4070
569.2341, 127.6255
569.7162, 127.2020
570.1983, 127.1912
570.6804, 127.2405
571.1625, 126.9746
571.6447, 126.5644
572.1268, 126.2721
572.6089, 126.1330
573.0910, 126.1805
573.5731, 126.6150
574.0552, 127.2218
574.5374, 127.6344
575.0195, 127.5287
575.5016, 127.4158
575.9837, 127.3834
576.4658, 127.4545
576.9479, 127.8437
577.4301, 129.0501
577.9122, 129.9789
578.3943, 130.0372
578.8764, 128.9755
579.3585, 128.4759
579.8406, 128.6645
580.3228, 129.1331
580.8049, 129.4854
581.2870, 129.7268
581.7691, 129.9571
582.2512, 130.1340
582.7333, 130.4385
583.2155, 131.4534
583.6975, 132.8683
584.1796, 133.7556
584.6617, 133.5039
585.1439, 132.6472
585.6260, 131.3234
586.1081, 129.6895
586.5902, 128.5281
587.0723, 128.3835
587.5544, 128.6786
588.0366, 129.1230
588.5187, 129.7076
589.0008, 130.3469
589.4829, 131.2861
589.9650, 132.1050
590.4471, 132.4478
590.9293, 132.0234
591.4114, 131.8006
591.8935, 131.8633
592.3756, 132.1304
592.8577, 132.4862
593.3398, 132.9328
593.8220, 133.3941
594.3041, 133.8704
594.7862, 134.3260
595.2683, 134.7078
595.7504, 135.0050
596.2325, 135.1640
596.7147, 135.1016
597.1968, 134.9083
597.6789, 134.5128
598.1610, 133.9017
598.6431, 133.7819
599.1252, 135.1321
599.6074, 136.8010
600.0895, 137.8231
600.5716, 137.5860
601.0537, 137.4682
601.5358, 137.7145
602.0179, 138.1714
602.5001, 138.6400
602.9822, 139.0407
603.4643, 139.6141
603.9464, 140.4589
604.4285, 141.4801
604.9106, 142.3904
605.3928, 143.1689
605.8749, 143.9436
606.3570, 144.8143
606.8391, 145.7242
607.3212, 146.4655
607.8033, 147.0417
608.2855, 147.6338
608.7676, 148.2353
609.2497, 148.9910
609.7318, 150.2193
610.2139, 152.1357
610.6960, 153.7259
611.1782, 154.2729
611.6603, 154.2773
612.1424, 154.2755
612.6245, 154.0624
613.1066, 154.2418
613.5887, 155.1183
614.0709, 156.3905
614.5530, 157.4850
615.0351, 158.2771
615.5172, 159.1180
615.9993, 160.1170
616.4814, 161.2464
616.9636, 162.3450
617.4457, 163.3957
617.9278, 164.5686
618.4099, 166.0939
618.8920, 167.7999
619.3741, 169.2265
619.8563, 170.3666
620.3384, 171.4203
620.8205, 172.6462
621.3026, 173.8428
621.7847, 174.6536
622.2668, 174.7216
622.7490, 175.2092
623.2311, 177.3074
623.7132, 179.8844
624.1953, 181.4934
624.6774, 180.5351
625.1595, 180.2644
625.6417, 181.2765
626.1238, 183.2008
626.6059, 185.0850
627.0880, 187.1106
627.5701, 188.5598
628.0522, 188.9520
628.5344, 188.5668
629.0165, 188.7797
629.4986, 189.5970
629.9807, 190.7493
630.4628, 192.3259
630.9449, 194.0220
631.4271, 195.2612
631.9092, 195.9888
632.3913, 196.5419
632.8734, 197.2157
633.3555, 197.8112
633.8376, 198.0969
634.3198, 197.7991
634.8019, 197.6207
635.2840, 197.9507
635.7661, 198.4302
636.2482, 198.5619
636.7303, 198.2156
637.2125, 197.7053
637.6946, 196.9568
638.1767, 196.1197
638.6588, 195.6457
639.1409, 195.5800
639.6230, 195.5580
640.1052, 195.5046
640.5873, 195.3661
641.0694, 194.7990
641.5515, 193.8613
642.0336, 193.2358
642.5157, 193.7365
642.9979, 194.6204
643.4800, 194.9435
643.9621, 194.6020
644.4442, 194.3904
644.9263, 194.9780
645.4084, 195.6936
645.8906, 195.9564
646.3727, 195.1953
646.8548, 194.8657
647.3369, 195.1862
647.8190, 195.8548
648.3011, 196.5868
648.7833, 197.5236
649.2654, 198.0150
649.7475, 197.8489
650.2296, 197.3235
650.7117, 197.0921
651.1938, 197.1198
651.6760, 197.0046
652.1581, 196.3571
652.6402, 195.6496
653.1223, 195.8765
653.6044, 196.7713
654.0865, 197.2098
654.5687, 195.7320
655.0508, 194.2469
655.5329, 194.2429
656.0150, 195.8804
656.4971, 197.0689
656.9792, 197.0340
657.4614, 196.6654
657.9435, 196.3718
658.4256, 196.0265
658.9077, 196.2819
659.3898, 197.4233
659.8719, 198.6591
660.3541, 198.9865
660.8362, 198.4449
661.3183, 198.5054
661.8004, 199.5189
662.2825, 200.7382
662.7646, 200.9194
663.2468, 200.5335
663.7289, 200.7719
664.2110, 202.5813
664.6931, 204.5027
665.1752, 205.3875
665.6573, 205.6052
666.1395, 206.0493
666.6216, 206.9887
667.1037, 208.1954
667.5858, 209.8230
668.0679, 211.7641
668.5500, 213.1885
669.0322, 213.9455
669.5143, 214.5035
669.9964, 215.0615
670.4785, 215.6117
670.9606, 215.9943
671.4427, 216.1857
671.9249, 216.4369
672.4070, 217.0121
672.8891, 217.7856
673.3712, 218.5367
673.8533, 219.2625
674.3354, 219.7778
674.8176, 219.8763
675.2997, 219.7380
675.7818, 219.5153
676.2639, 219.0267
676.7460, 218.8633
677.2281, 219.4588
677.7103, 220.3277
678.1924, 220.9164
678.6745, 221.3148
679.1566, 221.1752
679.6387, 220.2320
680.1208, 218.9275
680.6030, 218.2314
681.0851, 218.1506
681.5672, 218.1672
682.0493, 218.1122
682.5314, 218.0287
683.0135, 218.1363
683.4957, 218.3233
683.9778, 218.1520
684.4599, 216.6980
684.9420, 215.3583
685.4241, 215.3807
685.9063, 216.6700
686.3884, 217.4261
686.8705, 216.1793
687.3526, 215.2252
687.8347, 215.7711
688.3168, 218.1519
688.7990, 219.7235
689.2811, 220.4582
689.7632, 220.5169
690.2453, 219.5431
690.7274, 217.6975
691.2095, 217.3183
691.6917, 218.6612
692.1738, 220.6636
692.6559, 222.6158
693.1380, 224.3249
693.6201, 225.3053
694.1022, 225.0964
694.5844, 225.1208
695.0665, 226.2280
695.5486, 228.0288
696.0307, 230.0329
696.5128, 232.2947
696.9949, 234.5370
697.4771, 236.8255
697.9592, 239.0427
698.4413, 240.8682
698.9234, 242.2065
699.4055, 243.4836
699.8876, 244.6228
700.3698, 245.9564
700.8519, 248.5608
701.3340, 252.2640
701.8161, 255.8472
702.2982, 258.4894
702.7803, 260.8154
703.2625, 263.4736
703.7446, 266.4359
704.2267, 269.4467
704.7088, 273.0371
705.1909, 276.1301
705.6730, 277.6999
706.1552, 277.5196
706.6373, 278.8380
707.1194, 282.7420
707.6015, 286.6403
708.0836, 288.8672
708.5657, 289.2809
709.0479, 290.8734
709.5300, 293.8233
710.0121, 296.8132
710.4942, 298.5366
710.9763, 299.3904
711.4584, 300.4393
711.9406, 301.8763
712.4227, 302.9482
712.9048, 302.8692
713.3869, 302.2608
713.8690, 301.7529
714.3511, 301.4529
714.8333, 301.3389
715.3154, 301.6026
715.7975, 301.9642
716.2796, 302.2242
716.7617, 302.6438
717.2438, 302.1143
717.7260, 300.2359
718.2081, 297.7963
718.6902, 296.2503
719.1723, 295.4806
719.6544, 294.6537
720.1365, 293.4370
720.6187, 292.1576
721.1008, 291.2162
721.5829, 290.5054
722.0650, 289.7514
722.5471, 288.6113
723.0292, 287.6266
723.5114, 287.0504
723.9935, 286.8373
724.4756, 286.8106
724.9577, 287.2542
725.4398, 287.3875
725.9219, 286.8274
726.4041, 285.7564
726.8862, 285.1807
727.3683, 285.0996
727.8504, 285.5040
728.3325, 286.8928
728.8146, 288.6175
729.2968, 289.0239
729.7789, 288.2591
730.2610, 287.6876
730.7431, 288.2585
731.2252, 289.2832
731.7073, 290.3831
732.1895, 291.5448
732.6716, 292.4171
733.1537, 292.8414
733.6358, 293.0268
734.1179, 292.9266
734.6000, 292.3526
735.0822, 292.6555
735.5643, 293.9638
736.0464, 295.6927
736.5285, 297.6420
737.0106, 299.6087
737.4927, 300.6567
737.9749, 300.6153
738.4570, 300.4698
738.9391, 301.0061
739.4212, 301.9591
739.9033, 303.1206
740.3854, 304.7393
740.8676, 305.8474
741.3497, 305.2182
741.8318, 304.4979
742.3139, 305.5007
742.7960, 309.3545
743.2781, 311.9417
743.7603, 312.5723
744.2424, 312.5710
744.7245, 313.9712
745.2066, 316.5826
745.6887, 318.9464
746.1708, 320.6844
746.6530, 322.1552
747.1351, 323.4842
747.6172, 324.8952
748.0993, 326.7870
748.5814, 330.2097
749.0635, 333.0862
749.5457, 334.1304
750.0278, 334.2558
750.5099, 335.3933
750.9920, 338.1306
751.4741, 340.8760
751.9562, 343.3148
752.4384, 345.6064
752.9205, 348.1109
753.4026, 350.8333
753.8847, 353.4455
754.3668, 355.3973
754.8489, 357.6261
755.3311, 361.8472
755.8132, 367.5401
756.2953, 373.0466
756.7774, 376.8148
757.2595, 381.0343
757.7416, 387.2505
758.2238, 394.9863
758.7059, 402.0147
759.1880, 407.4791
759.6701, 413.2823
760.1522, 419.8989
760.6343, 427.3116
761.1165, 435.9260
761.5986, 445.7408
762.0807, 456.0603
762.5628, 466.6199
763.0449, 477.3819
763.5270, 488.1075
764.0092, 498.8546
764.4913, 510.2763
764.9734, 522.4827
765.4555, 535.6047
765.9376, 549.6041
766.4197, 564.6457
766.9019, 580.3214
767.3840, 596.6439
767.8661, 613.4636
768.3482, 630.5226
768.8303, 647.9975
769.3124, 666.7663
769.7946, 686.6964
770.2767, 707.6522
770.7588, 729.5100
771.2409, 752.2880
771.7230, 776.2899
772.2051, 801.4639
772.6873, 826.7452
773.1694, 850.9944
773.6515, 875.4952
774.1336, 901.5587
774.6157, 929.6088
775.0978, 957.1663
775.5800, 983.8578
776.0621, 1010.382
776.5442, 1037.259
777.0263, 1064.636
777.5084, 1091.282
777.9905, 1117.333
778.4727, 1142.465
778.9548, 1165.159
779.4369, 1187.163
779.9190, 1212.234
780.4011, 1240.683
780.8832, 1268.597
781.3654, 1292.138
781.8475, 1315.036
782.3296, 1340.479
782.8117, 1370.226
783.2938, 1397.152
783.7759, 1420.341
784.2581, 1442.091
784.7402, 1464.197
785.2223, 1486.591
785.7044, 1507.487
786.1865, 1526.806
786.6686, 1543.105
787.1508, 1554.792
787.6329, 1562.490
788.1150, 1568.027
788.5971, 1572.181
789.0792, 1570.376
789.5613, 1559.528
790.0435, 1542.418
790.5256, 1520.876
791.0077, 1495.448
791.4898, 1465.153
791.9719, 1429.604
792.4540, 1390.062
792.9362, 1348.124
793.4183, 1303.457
793.9004, 1258.202
794.3825, 1212.134
794.8646, 1165.669
795.3467, 1118.064
795.8289, 1069.912
796.3110, 1022.382
796.7931, 974.7833
797.2752, 928.6373
797.7573, 882.8203
798.2394, 839.3294
798.7216, 799.6263
799.2037, 763.8574
799.6858, 730.7135
800.1679, 700.6200
800.6500, 672.1298
801.1321, 642.6474
801.6143, 612.8240
802.0964, 585.3328
802.5785, 560.6165
803.0606, 537.6482
803.5427, 515.9733
804.0248, 495.7125
804.5070, 476.7124
804.9891, 458.9438
805.4712, 442.5608
805.9533, 428.1436
806.4354, 414.5784
806.9175, 400.9687
807.3997, 387.0108
807.8818, 374.3853
808.3639, 363.3748
808.8460, 353.2224
809.3281, 343.2812
809.8102, 333.6171
810.2924, 324.3410
810.7745, 315.4437
811.2566, 307.1286
811.7387, 299.6079
812.2208, 292.7874
812.7029, 286.6596
813.1851, 281.3957
813.6672, 276.4202
814.1493, 271.9722
814.6314, 267.4454
815.1135, 262.1134
815.5956, 255.8447
816.0778, 251.1604
816.5599, 248.2827
817.0420, 245.7834
817.5241, 242.1658
818.0062, 238.0840
818.4883, 234.4173
818.9705, 231.2663
819.4526, 228.6594
819.9347, 227.0931
820.4168, 225.7273
820.8989, 223.8908
821.3810, 221.4043
821.8632, 219.2215
822.3453, 217.3984
822.8274, 215.7443
823.3095, 214.1079
823.7916, 212.5119
824.2737, 211.3729
824.7559, 210.7131
825.2380, 209.7643
825.7201, 207.4400
826.2022, 204.8152
826.6843, 203.0896
827.1664, 202.5157
827.6486, 201.7273
828.1307, 200.0941
828.6128, 198.4610
829.0949, 197.2440
829.5770, 196.4857
830.0591, 195.6379
830.5413, 194.6972
831.0234, 193.7095
831.5055, 192.8235
831.9876, 191.8809
832.4697, 190.5027
832.9518, 188.7047
833.4340, 186.7747
833.9161, 185.0649
834.3982, 183.1416
834.8803, 180.5431
835.3624, 177.1807
835.8445, 174.4376
836.3267, 172.5164
836.8088, 170.8516
837.2909, 169.3938
837.7730, 168.0030
838.2551, 165.6641
838.7372, 162.4352
839.2194, 159.2189
839.7015, 156.5980
840.1836, 154.2712
840.6657, 151.9122
841.1478, 149.5431
841.6299, 147.4707
842.1121, 146.2272
842.5942, 144.8027
843.0763, 142.6531
843.5584, 140.0023
844.0405, 138.2101
844.5226, 137.3867
845.0048, 136.6155
845.4869, 135.4699
845.9690, 134.1396
846.4511, 133.0524
846.9332, 132.1206
847.4153, 131.0735
847.8975, 129.6727
848.3796, 128.2328
848.8617, 126.8088
849.3438, 125.4618
849.8259, 124.4121
850.3080, 123.8664
850.7902, 123.1317
851.2723, 121.9879
851.7544, 120.6639
852.2365, 119.6893
852.7186, 119.0186
853.2007, 118.3619
853.6829, 117.5384
854.1650, 116.8315
854.6471, 116.5623
855.1292, 116.5582
855.6113, 116.5285
856.0934, 116.5899
856.5756, 116.3444
857.0577, 115.6364
857.5398, 114.7058
858.0219, 113.8069
858.5040, 112.9226
858.9861, 112.3451
859.4683, 112.1466
859.9504, 112.1571
860.4325, 112.4215
860.9146, 112.6774
861.3967, 112.4237
861.8788, 111.3459
862.3610, 110.2808
862.8431, 109.5483
863.3252, 108.9753
863.8073, 108.4039
864.2894, 107.8200
864.7715, 107.2651
865.2537, 106.7363
865.7358, 106.2530
866.2179, 105.8520
866.7000, 105.5079
867.1821, 105.1334
867.6642, 104.7147
868.1464, 104.3408
868.6285, 104.0509
869.1106, 103.8399
869.5927, 103.7833
870.0748, 103.9895
870.5569, 103.6686
871.0391, 102.4353
871.5212, 101.3898
872.0033, 101.3654
872.4854, 102.1721
872.9675, 102.2727
873.4496, 101.7170
873.9318, 101.2718
874.4139, 101.9513
874.8960, 102.5941
875.3781, 101.8761
875.8602, 99.97495
876.3423, 98.61089
876.8245, 98.73754
877.3066, 98.82019
877.7887, 98.35899
878.2708, 97.56055
878.7529, 97.36412
879.2350, 97.77159
879.7172, 98.13897
880.1993, 98.26495
880.6814, 98.12141
881.1635, 97.45779
881.6456, 96.50363
882.1277, 95.79337
882.6099, 95.54515
883.0920, 95.55165
883.5741, 96.01305
884.0562, 96.58201
884.5383, 96.67412
885.0204, 96.21043
885.5026, 95.75909
885.9847, 95.40862
886.4668, 95.13717
886.9489, 94.99252
887.4310, 94.88870
887.9131, 94.58816
888.3953, 93.85084
888.8774, 93.43813
889.3595, 94.06193
889.8416, 94.93779
890.3237, 95.31036
890.8058, 95.00390
891.2880, 94.64839
891.7701, 94.22504
892.2522, 93.81715
892.7343, 93.48719
893.2164, 93.23098
893.6985, 93.07117
894.1807, 93.00893
894.6628, 92.89856
895.1449, 92.51804
895.6270, 92.16386
896.1091, 92.08735
896.5912, 92.33002
897.0734, 92.37798
897.5555, 92.15401
898.0376, 91.91142
898.5197, 91.72793
899.0018, 91.63254
899.4839, 91.87690
899.9661, 92.37370
900.4482, 92.61326
900.9303, 92.07394
901.4124, 91.41291
901.8945, 90.98019
902.3766, 90.77275
902.8588, 90.77769
903.3409, 91.32231
903.8230, 91.42216
904.3051, 90.72459
904.7872, 89.70226
905.2693, 89.33034
905.7515, 89.51144
906.2336, 89.60159
906.7157, 89.32577
907.1978, 89.18495
907.6799, 89.96089
908.1620, 90.96291
908.6442, 91.33482
909.1263, 90.33147
909.6084, 89.70004
910.0905, 89.64860
910.5726, 89.75917
911.0547, 89.62452
911.5369, 89.27656
912.0190, 89.08546
912.5011, 89.07619
912.9832, 89.14979
913.4653, 89.46236
913.9474, 89.65843
914.4296, 89.20016
914.9117, 88.00106
915.3938, 87.40348
915.8759, 87.99734
916.3580, 88.67217
916.8401, 89.06042
917.3223, 89.15966
917.8044, 88.79055
918.2865, 87.99650
918.7686, 87.45946
919.2507, 87.87003
919.7328, 88.42456
920.2150, 88.10168
920.6971, 87.30867
921.1792, 87.04936
921.6613, 88.39758
922.1434, 89.21120
922.6255, 88.99073
923.1077, 88.28324
923.5898, 88.13265
924.0719, 88.48879
924.5540, 88.33858
925.0361, 87.35942
925.5182, 86.32980
926.0004, 85.86311
926.4825, 85.87014
926.9646, 86.33337
927.4467, 87.56318
927.9288, 88.30882
928.4109, 88.24755
928.8931, 87.93863
929.3752, 87.77563
929.8573, 87.75302
930.3394, 87.44722
930.8215, 86.86146
931.3036, 86.29195
931.7858, 85.89890
932.2679, 85.67310
932.7500, 85.76453
933.2321, 86.09010
933.7142, 86.04734
934.1964, 85.17399
934.6785, 84.32811
935.1606, 83.58688
935.6427, 83.09493
936.1248, 83.54003
936.6069, 84.83230
937.0891, 85.77441
937.5712, 85.91402
938.0533, 85.67672
938.5354, 85.25346
939.0175, 84.79762
939.4996, 84.54411
939.9818, 84.94335
940.4639, 84.90162
940.9460, 84.08743
941.4281, 83.23507
941.9102, 83.24538
942.3923, 83.99666
942.8745, 84.31599
943.3566, 84.11324
943.8387, 83.76091
944.3208, 83.52068
944.8029, 83.30173
945.2850, 82.97242
945.7672, 82.51814
946.2493, 82.29539
946.7314, 82.41689
947.2135, 82.60522
947.6956, 82.80806
948.1777, 82.97395
948.6599, 82.83843
949.1420, 82.45675
949.6241, 82.14622
950.1062, 82.13113
950.5883, 82.14675
951.0704, 81.85239
951.5526, 81.49511
952.0347, 81.58807
952.5168, 82.53582
952.9989, 83.13919
953.4810, 83.21397
953.9631, 83.11290
954.4453, 83.40770
954.9274, 83.90336
955.4095, 83.77048
955.8916, 82.84541
956.3737, 82.10294
956.8558, 82.46301
957.3380, 83.04086
957.8201, 83.12836
958.3022, 82.65050
958.7843, 82.41689
959.2664, 82.50945
959.7485, 82.58463
960.2307, 82.46076
960.7128, 82.21231
961.1949, 82.06052
961.6770, 81.94653
962.1591, 81.66830
962.6412, 80.72263
963.1234, 80.05367
963.6055, 80.29092
964.0876, 80.95849
964.5697, 81.26088
965.0518, 81.13042
965.5339, 80.91251
966.0161, 80.60503
966.4982, 80.38656
966.9803, 80.61553
967.4624, 81.02517
967.9445, 81.09589
968.4266, 80.69109
968.9088, 80.45961
969.3909, 81.06958
969.8730, 81.48473
970.3551, 81.01212
970.8372, 79.73853
971.3193, 79.14526
971.8015, 79.24771
972.2836, 79.69846
972.7657, 80.57540
973.2478, 81.46348
973.7299, 81.86949
974.2120, 81.89783
974.6942, 81.81583
975.1763, 81.65357
975.6584, 81.43818
976.1405, 81.10351
976.6226, 80.79261
977.1047, 80.77865
977.5869, 81.02231
978.0690, 81.03016
978.5511, 80.69790
979.0332, 80.46346
979.5153, 80.94121
979.9974, 81.52184
980.4796, 81.59133
980.9617, 80.99973
981.4438, 80.55521
981.9259, 80.26780
982.4080, 80.16582
982.8901, 80.35444
983.3723, 80.68887
983.8544, 80.64804
984.3365, 80.32376
984.8186, 80.09788
985.3007, 80.23132
985.7828, 80.42619
986.2650, 80.75072
986.7471, 80.95542
987.2292, 80.56255
987.7113, 79.22697
988.1934, 78.59436
988.6755, 78.90054
989.1577, 79.54434
989.6398, 79.95345
990.1219, 80.20242
990.6040, 80.46948
991.0861, 80.77797
991.5682, 80.79911
992.0504, 79.90482
992.5325, 79.23109
993.0146, 79.42241
993.4967, 80.26475
993.9788, 80.52233
994.4609, 80.19847
994.9431, 79.85355
995.4252, 79.60390
995.9073, 79.60955
996.3894, 80.49163
996.8715, 81.61804
997.3536, 81.96562
997.8358, 80.25600
998.3179, 79.28805
998.8000, 79.40522
999.2821, 79.83930
999.7642, 79.83140
1000.246, 79.47222
1000.728, 79.19714
1001.211, 79.03379
1001.693, 79.14091
1002.175, 79.89378
1002.657, 80.70860
1003.139, 81.35875
1003.621, 81.75626
1004.103, 81.39847
1004.585, 79.97344
1005.068, 78.99606
1005.550, 78.95939
1006.032, 79.41146
1006.514, 79.83287
1006.996, 80.14786
1007.478, 80.18147
1007.960, 79.75877
1008.442, 79.37414
1008.924, 79.16942
1009.407, 79.06497
1009.889, 79.01299
1010.371, 79.01339
1010.853, 79.09151
1011.335, 79.24892
1011.817, 79.43510
1012.299, 79.83206
1012.781, 80.06484
1013.263, 79.59897
1013.746, 78.65550
1014.228, 78.01529
1014.710, 77.77341
1015.192, 77.91013
1015.674, 78.58276
1016.156, 79.36890
1016.638, 79.60298
1017.120, 79.42493
1017.603, 79.24198
1018.085, 79.11271
1018.567, 79.06023
1019.049, 79.34612
1019.531, 79.49168
1020.013, 78.99051
1020.495, 77.89108
1020.977, 77.66342
1021.459, 78.42594
1021.942, 79.00395
1022.424, 78.71049
1022.906, 78.09732
1023.388, 77.89680
1023.870, 77.95144
1024.352, 77.95246
1024.834, 77.81059
1025.316, 77.56522
1025.799, 76.98286
1026.281, 76.61869
1026.763, 77.37462
1027.245, 78.96929
1027.727, 79.43370
1028.209, 78.70234
1028.691, 78.00492
1029.173, 78.51479
1029.656, 79.04102
1030.138, 78.55044
1030.620, 77.29396
1031.102, 76.75371
1031.584, 77.09139
1032.066, 77.52889
1032.548, 77.93906
1033.030, 78.20565
1033.512, 78.02343
1033.995, 77.61625
1034.477, 77.40577
1034.959, 77.58261
1035.441, 77.57825
1035.923, 76.97106
1036.405, 76.47782
1036.887, 76.57668
1037.369, 77.17067
1037.851, 77.32957
1038.334, 77.10011
1038.816, 76.94092
1039.298, 77.30262
1039.780, 77.62910
1040.262, 77.42103
1040.744, 76.94839
1041.226, 76.76977
1041.708, 77.04161
1042.191, 77.20202
1042.673, 77.20657
1043.155, 77.12331
1043.637, 76.88289
1044.119, 76.66252
1044.601, 77.02430
1045.083, 77.94340
1045.565, 78.13265
1046.047, 76.07050
1046.530, 74.48289
1047.012, 74.32699
1047.494, 75.16190
1047.976, 75.91434
1048.458, 76.57678
1048.940, 77.01963
1049.422, 77.20792
1049.904, 77.18438
1050.386, 76.63354
1050.869, 76.10204
1051.351, 76.24578
1051.833, 77.23527
1052.315, 77.97319
1052.797, 78.48432
1053.279, 78.62095
1053.761, 77.98296
1054.243, 77.13039
1054.726, 77.15141
1055.208, 77.75249
1055.690, 78.15755
1056.172, 78.00584
1056.654, 77.72262
1057.136, 77.22249
1057.618, 76.81098
1058.100, 76.95284
1058.583, 77.54416
1059.065, 77.97033
1059.547, 78.18099
1060.029, 78.05969
1060.511, 77.17989
1060.993, 76.27129
1061.475, 75.80043
1061.957, 75.69903
1062.439, 75.62358
1062.922, 75.55372
1063.404, 75.68795
1063.886, 76.16390
1064.368, 76.59209
1064.850, 76.32377
1065.332, 75.78764
1065.814, 75.58533
1066.296, 75.91167
1066.778, 76.21497
1067.261, 76.48862
1067.743, 76.64046
1068.225, 76.59398
1068.707, 76.40504
1069.189, 76.11412
1069.671, 75.82256
1070.153, 75.92152
1070.635, 77.16341
1071.118, 78.04265
1071.600, 77.62003
1072.082, 76.73589
1072.564, 76.15541
1073.046, 75.88360
1073.528, 76.09017
1074.010, 76.80312
1074.492, 77.16166
1074.974, 75.76261
1075.457, 74.33266
1075.939, 74.72815
1076.421, 76.48781
1076.903, 77.52652
1077.385, 77.54845
1077.867, 77.23227
1078.349, 76.52851
1078.831, 75.96127
1079.313, 76.51759
1079.796, 77.59409
1080.278, 78.04408
1080.760, 77.68092
1081.242, 77.39246
1081.724, 77.52424
1082.206, 77.73616
1082.688, 77.95407
1083.170, 78.14252
1083.652, 78.14404
1084.135, 77.99657
1084.617, 77.90030
1085.099, 77.94973
1085.581, 77.98914
1086.063, 77.70470
1086.545, 77.53688
1087.027, 77.96975
1087.509, 79.10600
1087.992, 79.61977
1088.474, 79.45082
1088.956, 79.60340
1089.438, 81.04250
1089.920, 82.80331
1090.402, 83.90952
1090.884, 84.57385
1091.366, 85.23026
1091.849, 85.82371
1092.331, 86.68419
1092.813, 87.88320
1093.295, 89.19189
1093.777, 90.28245
1094.259, 91.34957
1094.741, 92.74538
1095.223, 94.50684
1095.705, 96.73300
1096.188, 100.6814
1096.670, 103.4091
1097.152, 103.6935
1097.634, 102.9086
1098.116, 103.5164
1098.598, 105.3421
1099.080, 107.5546
1099.562, 110.0943
1100.044, 112.2259
1100.527, 113.0373
1101.009, 113.6643
1101.491, 114.8915
1101.973, 116.6312
1102.455, 118.3374
1102.937, 120.0264
1103.419, 121.3884
1103.901, 122.2498
1104.384, 122.8850
1104.866, 123.5267
1105.348, 124.1155
1105.830, 124.5816
1106.312, 124.8934
1106.794, 125.0914
1107.276, 125.0747
1107.758, 125.3248
1108.240, 126.5074
1108.723, 127.8087
1109.205, 127.5991
1109.687, 126.4137
1110.169, 125.4887
1110.651, 125.6563
1111.133, 125.4913
1111.615, 125.0665
1112.097, 124.0134
1112.579, 121.9868
1113.062, 119.0540
1113.544, 115.2894
1114.026, 110.7627
1114.508, 106.0724
1114.990, 101.4163
1115.472, 96.73335
1115.954, 91.57077
1116.436, 86.77531
1116.919, 83.89651
1117.401, 82.80197
1117.883, 81.66505
1118.365, 80.26456
1118.847, 79.31153
1119.329, 80.10547
1119.811, 80.84109
1120.293, 79.85225
1120.776, 77.66944
1121.258, 76.60831
1121.740, 76.79044
1122.222, 76.98446
1122.704, 76.93125
1123.186, 76.71324
1123.668, 76.25213
1124.150, 75.77464
1124.632, 75.51440
1125.115, 75.51998
1125.597, 75.69891
1126.079, 76.05228
1126.561, 76.62640
1127.043, 77.67046
1127.525, 78.57549
1128.007, 78.07449
1128.489, 76.81092
1128.971, 75.87978
1129.454, 75.61311
1129.936, 75.52725
1130.418, 75.63463
1130.900, 75.76216
1131.382, 75.78764
1131.864, 75.76482
1132.346, 75.92256
1132.828, 76.17623
1133.311, 76.25557
1133.793, 75.71959
1134.275, 75.47614
1134.757, 75.91982
1135.239, 76.49020
1135.721, 76.70232
1136.203, 76.59586
1136.685, 76.40913
1137.167, 76.18199
1137.650, 76.21152
1138.132, 76.98837
1138.614, 77.70016
1139.096, 78.04948
1139.578, 78.06475
1140.060, 77.62550
1140.542, 76.71806
1141.024, 76.25582
1141.506, 76.31544
1141.989, 76.59949
1142.471, 77.06162
1142.953, 77.50377
1143.435, 77.93419
1143.917, 78.21327
1144.399, 77.84434
1144.881, 76.70090
1145.363, 75.88493
1145.846, 75.60683
1146.328, 75.61613
1146.810, 75.86401
1147.292, 76.13808
1147.774, 76.14506
1148.256, 75.89083
1148.738, 76.05234
1149.220, 76.81003
1149.703, 77.26017
1150.185, 77.05526
1150.667, 76.72827
1151.149, 77.17137
1151.631, 77.83890
1152.113, 77.91831
1152.595, 77.17837
1153.077, 76.60217
1153.559, 76.23403
1154.042, 76.08780
1154.524, 76.22490
1155.006, 76.50393
1155.488, 76.74313
1155.970, 76.90981
1156.452, 76.94996
1156.934, 76.89941
1157.416, 76.49600
1157.898, 75.30945
1158.381, 74.58182
1158.863, 75.30161
1159.345, 76.79991
1159.827, 77.07047
1160.309, 76.49812
1160.791, 76.12847
1161.273, 76.44779
1161.755, 76.82009
1162.238, 77.21101
1162.720, 77.49149
1163.202, 77.53210
1163.684, 77.37546
1164.166, 77.23692
1164.648, 77.10802
1165.130, 76.95222
1165.612, 76.63757
1166.094, 76.44936
1166.577, 76.73837
1167.059, 76.93482
1167.541, 76.10621
1168.023, 74.49480
1168.505, 74.81657
1168.987, 76.88550
1169.469, 78.41344
1169.951, 77.43089
1170.433, 76.33649
1170.916, 76.27602
1171.398, 76.67558
1171.880, 76.79328
1172.362, 76.65299
1172.844, 76.77602
1173.326, 77.19350
1173.808, 77.56089
1174.290, 77.53036
1174.773, 77.49035
1175.255, 77.69975
1175.737, 78.04896
1176.219, 78.39403
1176.701, 78.73961
1177.183, 78.71255
1177.665, 78.24928
1178.147, 77.70509
1178.630, 77.27921
1179.112, 76.94929
1179.594, 76.66483
1180.076, 76.46622
1180.558, 76.56834
1181.040, 76.99914
1181.522, 77.14595
1182.004, 76.85920
1182.486, 76.50014
1182.969, 76.29990
1183.451, 76.23621
1183.933, 76.36160
1184.415, 76.62855
1184.897, 76.70314
1185.379, 76.55127
1185.861, 76.61314
1186.343, 77.03590
1186.825, 77.55392
1187.308, 78.17369
1187.790, 78.57253
1188.272, 78.31393
1188.754, 77.41054
1189.236, 76.60407
1189.718, 75.88562
1190.200, 75.42802
1190.682, 75.31987
1191.165, 75.40210
1191.647, 75.51307
1192.129, 75.71776
1192.611, 76.19742
1193.093, 76.99554
1193.575, 77.23109
1194.057, 76.80673
1194.539, 76.52055
1195.021, 76.69839
1195.504, 77.11862
1195.986, 77.73521
1196.468, 78.33662
1196.950, 78.58508
1197.432, 78.37199
1197.914, 78.46338
1198.396, 78.93941
1198.878, 79.16267
1199.360, 78.73493
1199.843, 78.05270
1200.325, 77.37289
1200.807, 76.83773
1201.289, 76.70533
1201.771, 77.09548
1202.253, 77.43568
1202.735, 77.72840
1203.217, 77.96872
1203.700, 78.21416
1204.182, 78.33065
1204.664, 77.98378
1205.146, 77.47228
1205.628, 77.29301
1206.110, 77.58125
1206.592, 77.93857
1207.074, 78.40291
1207.557, 78.70328
1208.039, 78.59885
1208.521, 78.30573
1209.003, 77.89249
1209.485, 77.51205
1209.967, 77.49503
1210.449, 78.07385
1210.931, 78.38185
1211.413, 78.41093
1211.896, 78.21776
1212.378, 77.47349
1212.860, 76.84838
1213.342, 77.45652
1213.824, 78.62823
1214.306, 78.86570
1214.788, 77.57397
1215.270, 77.18771
1215.752, 77.84521
1216.235, 78.71130
1216.717, 79.34650
1217.199, 79.73730
1217.681, 79.92037
1218.163, 79.83347
1218.645, 79.22876
1219.127, 77.75241
1219.609, 77.36479
1220.092, 78.25485
1220.574, 79.17321
1221.056, 79.15319
1221.538, 78.69117
1222.020, 77.99012
1222.502, 77.26635
1222.984, 76.93871
1223.466, 77.04728
1223.948, 77.45849
1224.431, 78.19114
1224.913, 78.86964
1225.395, 79.33667
1225.877, 79.48734
1226.359, 78.94345
1226.841, 78.08797
1227.323, 77.90534
1227.805, 78.55900
1228.287, 78.67300
1228.770, 78.11875
1229.252, 77.66897
1229.734, 78.21288
1230.216, 78.82911
1230.698, 78.74731
1231.180, 78.24583
1231.662, 78.02735
1232.144, 78.11935
1232.627, 78.04256
1233.109, 77.74960
1233.591, 77.56042
1234.073, 77.89827
1234.555, 78.23301
1235.037, 78.12711
1235.519, 77.81141
1236.001, 77.71129
1236.484, 77.82779
1236.966, 78.15713
1237.448, 78.69318
1237.930, 78.82814
1238.412, 77.41082
1238.894, 76.26537
1239.376, 76.82171
1239.858, 78.10941
1240.340, 78.65047
1240.823, 78.48048
1241.305, 77.88181
1241.787, 76.91672
1242.269, 76.43539
1242.751, 77.58572
1243.233, 78.62111
1243.715, 78.74003
1244.197, 78.35172
1244.679, 77.90598
1245.162, 77.48034
1245.644, 77.64258
1246.126, 78.39980
1246.608, 79.00134
1247.090, 78.79810
1247.572, 78.73917
1248.054, 79.32183
1248.536, 79.93071
1249.019, 79.37410
1249.501, 78.08389
1249.983, 77.42262
1250.465, 77.48426
1250.947, 77.78063
1251.429, 78.62868
1251.911, 78.88772
1252.393, 78.10658
1252.875, 77.06126
1253.358, 76.63570
1253.840, 76.79749
1254.322, 77.75605
1254.804, 79.38496
1255.286, 80.48237
1255.768, 80.41883
1256.250, 80.31813
1256.732, 80.37711
1257.214, 80.36459
1257.697, 79.77584
1258.179, 79.04705
1258.661, 78.93522
1259.143, 79.40173
1259.625, 79.87907
1260.107, 80.34333
1260.589, 80.72729
1261.071, 81.09826
1261.554, 81.06323
1262.036, 79.64192
1262.518, 77.98933
1263.000, 77.59344
1263.482, 78.24071
1263.964, 78.44394
1264.446, 77.95621
1264.928, 77.88001
1265.411, 78.40614
1265.893, 78.91988
1266.375, 78.75141
1266.857, 78.43618
1267.339, 78.44255
1267.821, 78.68552
1268.303, 78.83291
1268.785, 78.87759
1269.267, 78.91293
1269.750, 78.94691
1270.232, 79.02637
1270.714, 79.35519
1271.196, 79.56863
1271.678, 79.20373
1272.160, 78.68264
1272.642, 78.83560
1273.124, 79.57914
1273.606, 79.54654
1274.089, 78.68694
1274.571, 78.07358
1275.053, 78.64545
1275.535, 79.22807
1276.017, 79.41823
1276.499, 79.36330
1276.981, 79.16464
1277.463, 78.89182
1277.946, 78.86716
1278.428, 79.06724
1278.910, 79.17836
1279.392, 78.88274
1279.874, 78.73598
1280.356, 78.81643
1280.838, 79.09931
1281.320, 79.88131
1281.802, 80.70866
1282.285, 80.34581
1282.767, 79.08253
1283.249, 78.39888
1283.731, 79.20328
1284.213, 79.47531
1284.695, 78.88814
1285.177, 78.41948
1285.659, 79.35589
1286.141, 80.63642
1286.624, 80.85013
1287.106, 80.28155
1287.588, 79.80980
1288.070, 79.47899
1288.552, 79.45824
1289.034, 79.79762
1289.516, 79.96207
1289.998, 79.16345
1290.481, 78.40199
1290.963, 78.72305
1291.445, 79.51692
1291.927, 79.66411
1292.409, 79.10478
1292.891, 78.97507
1293.373, 79.27968
1293.855, 79.66518
1294.338, 79.94112
1294.820, 80.22220
1295.302, 80.73595
1295.784, 81.11975
1296.266, 80.88864
1296.748, 80.19080
1297.230, 80.14290
1297.712, 80.60254
1298.194, 80.90105
1298.677, 80.26496
1299.159, 80.17083
1299.641, 81.13332
1300.123, 82.03636
1300.605, 81.87460
1301.087, 81.12142
1301.569, 80.87304
1302.051, 80.94510
1302.533, 80.91032
1303.016, 80.61588
##END=



