##NAMES=Arrojadite-(NaFe)
##RRUFFID=R070298
##IDEAL CHEMISTRY=Na_2_Fe^2+^(CaNa2)Fe^2+^_13_Al(PO_4_)_11_(PO_3_OH)(OH)_2_
##LOCALITY=Boundary Creek, Richardson Mountains, Dawson mining district, Yukon Territory, Canada
##OWNER=RRUFF
##SOURCE=Mark Mauthner
##DESCRIPTION=Dark bluish grey fragments
##STATUS=The identification of this mineral is confirmed by single-crystal X-ray diffraction and chemical analysis.
##URL=rruff.info/R070298
##MEASURED CHEMISTRY=(Na_1.80_K_0.20_)_Σ=2_Fe^2+^_1.00_(Ca_0.90_Na_2.10_)_Σ=3_(Fe^2+^_10.71_Mg_1.40_Mn_0.89_)_Σ=13_(Al_0.90_Ti_0.05_Fe^3+^_0.05_)_Σ=1_(P_1.00_O_4_)_11_(P_1.00_O_3_OH)((OH)_1.15_F_0.85_)_Σ=2_; (OH) by stoichiometry and charge balance
159.1066, 2122.953
159.5887, 2149.879
160.0709, 2189.824
160.5530, 2230.696
161.0351, 2253.610
161.5172, 2255.546
161.9993, 2248.825
162.4814, 2234.959
162.9636, 2218.741
163.4457, 2209.764
163.9278, 2216.438
164.4099, 2231.055
164.8920, 2238.899
165.3741, 2237.412
165.8563, 2236.283
166.3384, 2243.761
166.8205, 2255.538
167.3026, 2264.286
167.7847, 2265.917
168.2668, 2263.030
168.7490, 2262.216
169.2311, 2266.250
169.7132, 2265.732
170.1953, 2251.149
170.6774, 2229.777
171.1595, 2213.058
171.6417, 2207.328
172.1238, 2209.133
172.6059, 2210.207
173.0880, 2210.646
173.5701, 2210.043
174.0522, 2206.354
174.5344, 2201.952
175.0165, 2201.017
175.4986, 2207.985
175.9807, 2218.266
176.4628, 2218.494
176.9449, 2203.823
177.4271, 2187.497
177.9092, 2172.941
178.3913, 2160.502
178.8734, 2150.586
179.3555, 2142.970
179.8376, 2138.263
180.3197, 2139.163
180.8019, 2150.792
181.2840, 2158.835
181.7661, 2156.914
182.2482, 2150.009
182.7303, 2143.547
183.2124, 2139.412
183.6946, 2138.559
184.1767, 2144.800
184.6588, 2164.027
185.1409, 2180.003
185.6230, 2190.250
186.1051, 2194.848
186.5873, 2192.294
187.0694, 2180.584
187.5515, 2164.998
188.0336, 2160.332
188.5157, 2174.711
188.9978, 2186.397
189.4800, 2189.220
189.9621, 2187.960
190.4442, 2188.719
190.9263, 2194.623
191.4084, 2201.025
191.8905, 2194.986
192.3727, 2164.269
192.8548, 2143.050
193.3369, 2141.878
193.8190, 2148.943
194.3011, 2153.062
194.7832, 2149.785
195.2654, 2142.410
195.7475, 2138.108
196.2296, 2138.704
196.7117, 2139.044
197.1938, 2140.798
197.6759, 2140.854
198.1581, 2135.562
198.6402, 2123.827
199.1223, 2109.145
199.6044, 2097.627
200.0865, 2088.917
200.5686, 2084.667
201.0508, 2089.180
201.5329, 2094.760
202.0150, 2095.469
202.4971, 2089.692
202.9792, 2080.009
203.4613, 2069.734
203.9435, 2056.408
204.4256, 2048.466
204.9077, 2054.770
205.3898, 2059.931
205.8719, 2051.128
206.3540, 2026.923
206.8362, 1997.964
207.3183, 1978.893
207.8004, 1974.082
208.2825, 1968.759
208.7646, 1967.999
209.2467, 1962.933
209.7289, 1944.685
210.2110, 1914.394
210.6931, 1882.912
211.1752, 1862.926
211.6573, 1856.940
212.1395, 1854.082
212.6216, 1856.832
213.1037, 1860.357
213.5858, 1864.548
214.0679, 1867.976
214.5500, 1867.127
215.0322, 1857.535
215.5143, 1837.501
215.9964, 1820.140
216.4785, 1804.799
216.9606, 1792.592
217.4427, 1787.209
217.9249, 1785.946
218.4070, 1781.434
218.8891, 1766.090
219.3712, 1739.363
219.8533, 1721.873
220.3354, 1722.059
220.8176, 1723.841
221.2997, 1723.584
221.7818, 1721.630
222.2639, 1720.142
222.7460, 1721.376
223.2281, 1724.436
223.7103, 1719.485
224.1924, 1694.625
224.6745, 1674.416
225.1566, 1666.060
225.6387, 1665.081
226.1208, 1664.375
226.6030, 1659.730
227.0851, 1652.632
227.5672, 1649.534
228.0493, 1654.700
228.5314, 1658.256
229.0135, 1657.005
229.4957, 1653.905
229.9778, 1652.578
230.4599, 1654.703
230.9420, 1658.754
231.4241, 1660.794
231.9062, 1658.746
232.3884, 1658.279
232.8705, 1659.723
233.3526, 1662.979
233.8347, 1669.536
234.3168, 1679.594
234.7989, 1689.088
235.2811, 1690.365
235.7632, 1679.590
236.2453, 1669.470
236.7274, 1658.883
237.2095, 1650.615
237.6916, 1646.928
238.1738, 1648.087
238.6559, 1652.121
239.1380, 1658.092
239.6201, 1668.322
240.1022, 1671.658
240.5843, 1661.367
241.0665, 1649.306
241.5486, 1640.592
242.0307, 1635.577
242.5128, 1632.071
242.9949, 1627.621
243.4770, 1621.913
243.9592, 1619.087
244.4413, 1622.553
244.9234, 1625.807
245.4055, 1627.910
245.8876, 1627.963
246.3697, 1624.081
246.8519, 1613.138
247.3340, 1596.403
247.8161, 1585.877
248.2982, 1583.343
248.7803, 1585.382
249.2624, 1595.648
249.7446, 1608.408
250.2267, 1613.793
250.7088, 1604.603
251.1909, 1586.764
251.6730, 1577.576
252.1551, 1580.236
252.6373, 1585.400
253.1194, 1596.070
253.6015, 1605.021
254.0836, 1600.798
254.5657, 1576.228
255.0478, 1548.782
255.5300, 1551.800
256.0121, 1596.728
256.4942, 1628.486
256.9763, 1620.407
257.4584, 1599.161
257.9406, 1582.204
258.4227, 1573.172
258.9048, 1567.199
259.3869, 1558.746
259.8690, 1547.575
260.3511, 1539.095
260.8333, 1533.041
261.3154, 1531.566
261.7975, 1536.518
262.2796, 1547.738
262.7617, 1562.047
263.2438, 1581.436
263.7260, 1603.696
264.2081, 1614.564
264.6902, 1607.114
265.1723, 1596.199
265.6544, 1592.297
266.1365, 1593.982
266.6187, 1596.891
267.1008, 1601.156
267.5829, 1604.861
268.0650, 1602.269
268.5471, 1590.712
269.0292, 1581.167
269.5114, 1586.864
269.9935, 1599.370
270.4756, 1603.623
270.9577, 1589.929
271.4398, 1571.171
271.9219, 1561.128
272.4041, 1559.930
272.8862, 1563.390
273.3683, 1572.495
273.8504, 1583.650
274.3325, 1589.707
274.8146, 1587.763
275.2968, 1585.407
275.7789, 1589.106
276.2610, 1597.099
276.7431, 1602.114
277.2252, 1601.374
277.7073, 1596.678
278.1895, 1590.493
278.6716, 1582.317
279.1537, 1575.234
279.6358, 1572.123
280.1179, 1570.444
280.6000, 1564.855
281.0822, 1553.560
281.5643, 1542.095
282.0464, 1538.184
282.5285, 1542.717
283.0106, 1543.620
283.4927, 1533.148
283.9749, 1522.541
284.4570, 1525.338
284.9391, 1541.362
285.4212, 1555.037
285.9033, 1552.493
286.3854, 1533.945
286.8676, 1522.361
287.3497, 1524.826
287.8318, 1526.707
288.3139, 1519.042
288.7960, 1504.816
289.2781, 1492.457
289.7603, 1486.565
290.2424, 1486.146
290.7245, 1487.355
291.2066, 1493.590
291.6887, 1497.172
292.1708, 1496.773
292.6530, 1493.153
293.1351, 1486.400
293.6172, 1476.635
294.0993, 1465.874
294.5814, 1457.729
295.0635, 1453.280
295.5457, 1449.690
296.0278, 1445.762
296.5099, 1443.475
296.9920, 1445.704
297.4741, 1451.864
297.9562, 1457.935
298.4384, 1460.333
298.9205, 1459.470
299.4026, 1451.587
299.8847, 1422.794
300.3668, 1401.022
300.8489, 1400.012
301.3311, 1413.602
301.8131, 1428.299
302.2953, 1435.830
302.7774, 1436.672
303.2595, 1432.764
303.7416, 1419.432
304.2237, 1408.157
304.7058, 1402.556
305.1880, 1399.447
305.6701, 1394.600
306.1522, 1386.322
306.6343, 1378.459
307.1164, 1379.157
307.5985, 1392.313
308.0807, 1399.449
308.5628, 1393.087
309.0449, 1382.462
309.5270, 1370.455
310.0091, 1358.171
310.4912, 1349.618
310.9734, 1351.559
311.4555, 1362.527
311.9376, 1365.003
312.4197, 1350.542
312.9018, 1338.043
313.3839, 1341.379
313.8661, 1355.761
314.3482, 1368.950
314.8303, 1378.569
315.3124, 1382.272
315.7945, 1372.132
316.2766, 1345.078
316.7588, 1322.321
317.2409, 1317.870
317.7230, 1324.540
318.2051, 1331.201
318.6872, 1338.826
319.1693, 1342.274
319.6515, 1333.574
320.1336, 1316.018
320.6157, 1304.790
321.0978, 1306.438
321.5799, 1314.489
322.0620, 1319.215
322.5442, 1320.595
323.0263, 1320.378
323.5084, 1319.145
323.9905, 1316.551
324.4726, 1311.232
324.9547, 1302.967
325.4369, 1295.028
325.9190, 1290.228
326.4011, 1288.898
326.8832, 1290.449
327.3653, 1298.132
327.8474, 1305.612
328.3296, 1308.969
328.8117, 1309.060
329.2938, 1309.572
329.7759, 1313.196
330.2580, 1318.024
330.7401, 1315.253
331.2223, 1293.940
331.7044, 1278.556
332.1865, 1273.747
332.6686, 1275.085
333.1507, 1279.981
333.6328, 1286.976
334.1150, 1291.860
334.5971, 1287.019
335.0792, 1265.548
335.5613, 1253.346
336.0434, 1254.651
336.5255, 1260.256
337.0077, 1267.437
337.4898, 1274.996
337.9719, 1281.680
338.4540, 1286.441
338.9361, 1289.401
339.4182, 1291.659
339.9004, 1293.193
340.3825, 1293.943
340.8646, 1293.572
341.3467, 1292.637
341.8288, 1292.248
342.3109, 1293.130
342.7931, 1293.231
343.2752, 1287.736
343.7573, 1275.137
344.2394, 1267.958
344.7215, 1274.666
345.2036, 1283.556
345.6858, 1285.017
346.1679, 1278.687
346.6500, 1270.974
347.1321, 1262.840
347.6142, 1256.427
348.0963, 1259.669
348.5785, 1276.421
349.0606, 1293.308
349.5427, 1299.072
350.0248, 1296.429
350.5069, 1292.695
350.9890, 1285.522
351.4712, 1280.563
351.9533, 1286.423
352.4354, 1300.298
352.9175, 1306.466
353.3996, 1295.307
353.8817, 1274.442
354.3639, 1264.016
354.8460, 1266.011
355.3281, 1271.344
355.8102, 1280.815
356.2923, 1291.337
356.7744, 1299.912
357.2566, 1305.752
357.7387, 1307.683
358.2208, 1303.336
358.7029, 1290.211
359.1850, 1285.263
359.6671, 1298.721
360.1493, 1309.010
360.6314, 1302.176
361.1135, 1284.736
361.5956, 1272.411
362.0777, 1274.976
362.5598, 1287.562
363.0420, 1291.872
363.5241, 1279.568
364.0062, 1272.347
364.4883, 1277.222
364.9704, 1284.872
365.4525, 1286.730
365.9347, 1281.320
366.4168, 1274.568
366.8989, 1274.543
367.3810, 1281.975
367.8631, 1283.304
368.3452, 1271.837
368.8274, 1261.571
369.3095, 1260.208
369.7916, 1265.382
370.2737, 1271.264
370.7558, 1275.343
371.2379, 1278.399
371.7201, 1281.482
372.2022, 1284.528
372.6843, 1287.930
373.1664, 1290.032
373.6485, 1293.939
374.1306, 1306.187
374.6128, 1331.291
375.0949, 1349.134
375.5770, 1340.899
376.0591, 1319.336
376.5412, 1311.934
377.0233, 1325.569
377.5055, 1343.186
377.9876, 1346.078
378.4697, 1332.204
378.9518, 1327.543
379.4339, 1339.736
379.9160, 1354.614
380.3982, 1363.528
380.8803, 1368.055
381.3624, 1374.126
381.8445, 1385.223
382.3266, 1399.093
382.8087, 1409.046
383.2909, 1410.838
383.7730, 1413.962
384.2551, 1419.590
384.7372, 1425.971
385.2193, 1430.163
385.7014, 1432.606
386.1836, 1438.262
386.6657, 1454.201
387.1478, 1481.339
387.6299, 1499.474
388.1120, 1496.592
388.5941, 1498.693
389.0763, 1518.381
389.5584, 1547.406
390.0405, 1572.557
390.5226, 1588.286
391.0047, 1598.218
391.4868, 1606.933
391.9690, 1613.972
392.4511, 1623.901
392.9332, 1638.639
393.4153, 1656.263
393.8974, 1674.907
394.3795, 1694.585
394.8617, 1714.739
395.3438, 1734.832
395.8259, 1755.292
396.3080, 1778.866
396.7901, 1806.162
397.2722, 1828.287
397.7544, 1835.598
398.2365, 1832.301
398.7186, 1841.000
399.2007, 1875.013
399.6828, 1905.738
400.1649, 1917.873
400.6471, 1920.398
401.1292, 1926.943
401.6113, 1942.042
402.0934, 1959.652
402.5755, 1977.769
403.0576, 1992.132
403.5398, 2002.947
404.0219, 1999.571
404.5040, 2014.517
404.9861, 2022.120
405.4682, 2029.422
405.9503, 2046.946
406.4325, 2045.636
406.9146, 2062.999
407.3967, 2072.906
407.8788, 2086.226
408.3609, 2092.158
408.8430, 2103.208
409.3252, 2110.809
409.8073, 2112.856
410.2894, 2110.087
410.7715, 2108.755
411.2536, 2116.361
411.7357, 2130.697
412.2179, 2139.133
412.7000, 2137.981
413.1821, 2137.790
413.6642, 2149.127
414.1463, 2166.436
414.6284, 2178.447
415.1106, 2182.107
415.5927, 2181.196
416.0748, 2172.241
416.5569, 2160.192
417.0390, 2164.113
417.5211, 2193.692
418.0033, 2229.538
418.4854, 2241.211
418.9675, 2218.696
419.4496, 2205.341
419.9317, 2207.521
420.4138, 2215.271
420.8960, 2222.236
421.3781, 2228.706
421.8602, 2238.928
422.3423, 2256.586
422.8244, 2278.209
423.3065, 2288.407
423.7887, 2278.128
424.2708, 2270.175
424.7529, 2266.615
425.2350, 2266.281
425.7171, 2270.555
426.1992, 2278.421
426.6814, 2283.693
427.1635, 2276.338
427.6456, 2258.264
428.1277, 2255.575
428.6098, 2279.213
429.0919, 2297.124
429.5741, 2288.115
430.0562, 2264.335
430.5383, 2242.137
431.0204, 2223.524
431.5025, 2211.188
431.9846, 2211.064
432.4668, 2219.711
432.9489, 2225.046
433.4310, 2224.050
433.9131, 2218.751
434.3952, 2211.371
434.8773, 2201.947
435.3595, 2189.124
435.8416, 2165.999
436.3237, 2145.633
436.8058, 2137.413
437.2879, 2138.552
437.7701, 2141.895
438.2522, 2144.110
438.7343, 2144.135
439.2164, 2138.959
439.6985, 2124.583
440.1806, 2112.035
440.6628, 2100.986
441.1449, 2091.932
441.6270, 2082.674
442.1091, 2075.092
442.5912, 2076.107
443.0733, 2095.515
443.5555, 2125.815
444.0376, 2136.067
444.5197, 2119.596
445.0018, 2101.736
445.4839, 2091.114
445.9660, 2084.283
446.4482, 2079.961
446.9303, 2078.993
447.4124, 2072.713
447.8945, 2050.471
448.3766, 2020.168
448.8587, 1996.792
449.3409, 1981.993
449.8230, 1978.637
450.3051, 1995.719
450.7872, 2028.594
451.2693, 2033.791
451.7514, 1983.664
452.2336, 1940.269
452.7157, 1932.706
453.1978, 1940.981
453.6799, 1935.792
454.1620, 1909.133
454.6441, 1875.479
455.1263, 1852.962
455.6084, 1842.683
456.0905, 1837.413
456.5726, 1841.803
457.0547, 1846.710
457.5368, 1852.549
458.0190, 1856.331
458.5011, 1853.035
458.9832, 1839.864
459.4653, 1822.157
459.9474, 1806.878
460.4295, 1794.108
460.9117, 1782.138
461.3938, 1770.622
461.8759, 1759.899
462.3580, 1749.380
462.8401, 1739.444
463.3222, 1732.567
463.8044, 1731.700
464.2865, 1732.339
464.7686, 1730.906
465.2507, 1727.558
465.7328, 1722.676
466.2149, 1715.938
466.6971, 1709.553
467.1792, 1708.425
467.6613, 1718.683
468.1434, 1720.880
468.6255, 1711.574
469.1076, 1697.399
469.5898, 1677.652
470.0719, 1656.400
470.5540, 1643.674
471.0361, 1646.973
471.5182, 1659.641
472.0003, 1661.238
472.4825, 1646.699
472.9646, 1634.875
473.4467, 1631.584
473.9288, 1631.076
474.4109, 1630.822
474.8930, 1630.322
475.3752, 1628.348
475.8573, 1624.264
476.3394, 1618.246
476.8215, 1610.427
477.3036, 1600.818
477.7857, 1589.389
478.2679, 1574.717
478.7500, 1559.391
479.2321, 1550.088
479.7142, 1548.833
480.1963, 1547.512
480.6784, 1548.700
481.1606, 1546.412
481.6427, 1530.771
482.1248, 1504.361
482.6069, 1482.526
483.0890, 1477.510
483.5711, 1485.668
484.0533, 1486.562
484.5354, 1476.606
485.0175, 1464.864
485.4996, 1451.286
485.9817, 1437.647
486.4638, 1427.209
486.9460, 1419.332
487.4281, 1407.811
487.9102, 1385.868
488.3923, 1356.634
488.8744, 1328.327
489.3565, 1300.316
489.8387, 1277.609
490.3208, 1263.847
490.8029, 1256.886
491.2850, 1252.339
491.7671, 1252.442
492.2492, 1248.522
492.7314, 1233.781
493.2135, 1215.700
493.6956, 1202.306
494.1777, 1194.524
494.6598, 1190.064
495.1419, 1187.752
495.6241, 1186.914
496.1062, 1183.229
496.5883, 1179.122
497.0704, 1168.205
497.5525, 1141.128
498.0346, 1113.276
498.5168, 1098.170
498.9989, 1096.645
499.4810, 1099.527
499.9631, 1100.881
500.4452, 1100.536
500.9273, 1097.473
501.4095, 1091.183
501.8916, 1084.242
502.3737, 1077.285
502.8558, 1070.570
503.3379, 1065.320
503.8200, 1062.800
504.3022, 1056.507
504.7843, 1037.793
505.2664, 1017.599
505.7485, 1010.968
506.2306, 1017.356
506.7127, 1024.387
507.1949, 1024.114
507.6770, 1017.454
508.1591, 1001.012
508.6412, 1003.469
509.1233, 1002.174
509.6054, 997.3262
510.0876, 978.2896
510.5697, 977.5753
511.0518, 969.5189
511.5339, 961.1611
512.0161, 963.0243
512.4982, 946.0522
512.9803, 947.7552
513.4624, 942.0031
513.9445, 939.6626
514.4266, 929.9351
514.9088, 941.3450
515.3909, 937.1757
515.8730, 913.9896
516.3551, 898.0347
516.8372, 902.7275
517.3193, 914.0170
517.8015, 920.1984
518.2836, 921.0646
518.7657, 919.6085
519.2478, 917.1993
519.7299, 914.3604
520.2120, 911.9351
520.6942, 906.4805
521.1763, 908.3588
521.6584, 924.7386
522.1405, 940.8357
522.6226, 947.4286
523.1047, 947.1634
523.5869, 947.5856
524.0690, 951.9707
524.5511, 960.5697
525.0332, 977.9830
525.5153, 1004.083
525.9974, 1016.165
526.4796, 1000.511
526.9617, 982.8245
527.4438, 996.0135
527.9259, 1035.765
528.4080, 1064.864
528.8901, 1071.089
529.3723, 1072.293
529.8544, 1075.189
530.3365, 1081.451
530.8186, 1094.503
531.3007, 1115.408
531.7828, 1139.697
532.2650, 1161.600
532.7471, 1181.223
533.2292, 1198.222
533.7113, 1209.996
534.1934, 1222.149
534.6755, 1233.148
535.1577, 1246.738
535.6398, 1269.287
536.1219, 1303.440
536.6040, 1339.647
537.0861, 1370.413
537.5682, 1396.092
538.0504, 1415.385
538.5325, 1426.735
539.0146, 1441.677
539.4967, 1469.111
539.9788, 1506.786
540.4609, 1542.502
540.9431, 1576.727
541.4252, 1609.068
541.9073, 1640.131
542.3894, 1668.813
542.8715, 1691.100
543.3536, 1708.879
543.8358, 1731.802
544.3179, 1769.232
544.8000, 1816.427
545.2821, 1852.300
545.7642, 1874.113
546.2463, 1892.035
546.7285, 1908.965
547.2106, 1922.257
547.6927, 1930.667
548.1748, 1933.916
548.6569, 1930.451
549.1390, 1915.551
549.6211, 1896.404
550.1032, 1881.010
550.5853, 1868.518
551.0674, 1854.547
551.5496, 1837.008
552.0317, 1818.332
552.5138, 1803.150
552.9959, 1795.201
553.4780, 1777.533
553.9601, 1734.649
554.4423, 1699.913
554.9244, 1695.741
555.4065, 1705.743
555.8886, 1702.930
556.3707, 1677.150
556.8528, 1643.124
557.3350, 1615.467
557.8171, 1594.375
558.2992, 1584.131
558.7813, 1589.765
559.2634, 1591.293
559.7455, 1571.656
560.2277, 1538.125
560.7098, 1514.810
561.1919, 1504.377
561.6740, 1499.659
562.1561, 1502.545
562.6382, 1507.544
563.1204, 1507.834
563.6025, 1503.658
564.0846, 1501.250
564.5667, 1505.821
565.0488, 1514.497
565.5309, 1514.838
566.0131, 1501.260
566.4952, 1493.458
566.9773, 1497.745
567.4594, 1506.689
567.9415, 1518.264
568.4236, 1531.098
568.9058, 1540.561
569.3879, 1544.533
569.8700, 1544.484
570.3521, 1537.685
570.8342, 1527.635
571.3163, 1528.288
571.7985, 1544.749
572.2806, 1564.422
572.7627, 1571.408
573.2448, 1563.748
573.7269, 1562.202
574.2090, 1570.293
574.6912, 1579.953
575.1733, 1592.328
575.6554, 1603.581
576.1375, 1608.334
576.6196, 1605.969
577.1017, 1603.154
577.5839, 1606.232
578.0660, 1613.699
578.5481, 1620.478
579.0302, 1626.349
579.5123, 1633.146
579.9944, 1643.310
580.4766, 1653.444
580.9587, 1655.709
581.4408, 1647.956
581.9229, 1643.013
582.4050, 1648.335
582.8871, 1651.843
583.3693, 1641.690
583.8514, 1623.810
584.3335, 1611.416
584.8156, 1610.638
585.2977, 1617.514
585.7798, 1627.800
586.2620, 1642.218
586.7441, 1650.281
587.2262, 1646.217
587.7083, 1644.594
588.1904, 1660.481
588.6725, 1682.485
589.1547, 1690.807
589.6368, 1678.568
590.1189, 1663.994
590.6010, 1652.956
591.0831, 1646.061
591.5652, 1644.790
592.0474, 1648.763
592.5295, 1656.495
593.0116, 1667.729
593.4937, 1679.875
593.9758, 1684.805
594.4579, 1680.243
594.9401, 1673.824
595.4222, 1659.346
595.9043, 1649.483
596.3864, 1655.420
596.8685, 1671.033
597.3506, 1680.220
597.8328, 1674.604
598.3149, 1665.476
598.7970, 1664.264
599.2791, 1667.389
599.7612, 1665.335
600.2433, 1656.247
600.7255, 1643.986
601.2076, 1630.938
601.6897, 1617.678
602.1718, 1608.927
602.6539, 1608.418
603.1360, 1607.502
603.6182, 1607.600
604.1003, 1605.451
604.5824, 1596.976
605.0645, 1583.570
605.5466, 1571.307
606.0287, 1563.819
606.5109, 1559.068
606.9930, 1556.309
607.4751, 1554.546
607.9572, 1543.557
608.4393, 1517.884
608.9214, 1494.222
609.4036, 1492.918
609.8857, 1514.051
610.3678, 1515.048
610.8499, 1475.827
611.3320, 1443.937
611.8141, 1435.853
612.2963, 1436.830
612.7784, 1434.413
613.2605, 1425.717
613.7426, 1410.888
614.2247, 1386.120
614.7068, 1358.534
615.1890, 1350.579
615.6711, 1363.645
616.1532, 1363.278
616.6353, 1334.491
617.1174, 1297.879
617.5995, 1275.171
618.0817, 1266.678
618.5638, 1263.889
619.0459, 1270.032
619.5280, 1277.727
620.0101, 1284.658
620.4922, 1291.288
620.9744, 1301.402
621.4565, 1313.864
621.9386, 1318.009
622.4207, 1299.409
622.9028, 1266.872
623.3849, 1258.406
623.8671, 1278.911
624.3492, 1294.023
624.8313, 1287.841
625.3134, 1278.275
625.7955, 1289.120
626.2776, 1319.022
626.7598, 1345.202
627.2419, 1359.849
627.7240, 1375.080
628.2061, 1398.338
628.6882, 1425.343
629.1703, 1449.799
629.6525, 1470.105
630.1346, 1487.867
630.6167, 1503.123
631.0988, 1517.401
631.5809, 1541.042
632.0630, 1577.566
632.5452, 1609.774
633.0273, 1629.620
633.5094, 1645.860
633.9915, 1668.183
634.4736, 1696.229
634.9557, 1725.317
635.4379, 1753.051
635.9200, 1782.872
636.4021, 1825.603
636.8842, 1868.375
637.3663, 1888.676
637.8484, 1882.720
638.3306, 1867.573
638.8127, 1858.391
639.2948, 1855.117
639.7769, 1861.116
640.2590, 1883.451
640.7411, 1889.129
641.2233, 1857.986
641.7054, 1816.489
642.1875, 1795.819
642.6696, 1793.503
643.1517, 1778.030
643.6339, 1735.973
644.1160, 1686.581
644.5981, 1636.607
645.0802, 1587.596
645.5623, 1539.929
646.0444, 1494.651
646.5266, 1457.778
647.0087, 1438.757
647.4908, 1430.856
647.9729, 1398.375
648.4550, 1333.469
648.9371, 1276.404
649.4193, 1240.149
649.9014, 1212.450
650.3835, 1180.898
650.8656, 1146.547
651.3477, 1116.446
651.8298, 1097.319
652.3120, 1076.249
652.7941, 1039.230
653.2762, 1000.365
653.7583, 982.3062
654.2404, 985.7934
654.7225, 990.5686
655.2047, 980.5637
655.6868, 958.9927
656.1689, 934.8091
656.6510, 906.7250
657.1331, 884.1648
657.6152, 870.5477
658.0974, 861.0432
658.5795, 853.2663
659.0616, 840.4122
659.5437, 842.5261
660.0258, 840.8868
660.5079, 835.6970
660.9901, 816.3160
661.4722, 815.2584
661.9543, 806.8590
662.4364, 798.1578
662.9185, 799.6788
663.4006, 782.3641
663.8828, 783.7214
664.3649, 777.6258
664.8470, 774.9427
665.3291, 764.8712
665.8112, 757.0814
666.2933, 756.6826
666.7755, 752.1894
667.2576, 741.2673
667.7397, 738.8013
668.2218, 721.2277
668.7039, 716.9105
669.1860, 707.3027
669.6682, 698.4405
670.1503, 691.1898
670.6324, 685.2926
671.1145, 679.5676
671.5966, 673.1464
672.0787, 668.5370
672.5609, 671.5605
673.0430, 680.5613
673.5251, 683.1448
674.0072, 677.4641
674.4893, 669.2027
674.9714, 661.1231
675.4536, 653.1888
675.9357, 645.2449
676.4178, 635.9017
676.8999, 629.5995
677.3820, 628.0920
677.8641, 627.9767
678.3463, 627.9023
678.8284, 627.8686
679.3105, 628.7563
679.7926, 630.8372
680.2747, 631.2414
680.7568, 625.0970
681.2390, 615.8077
681.7211, 613.3681
682.2032, 617.6053
682.6853, 616.4894
683.1674, 603.1727
683.6495, 587.6586
684.1317, 586.6592
684.6138, 604.5419
685.0959, 613.7941
685.5780, 607.8877
686.0601, 601.1624
686.5422, 596.1519
687.0244, 592.5197
687.5065, 588.9742
687.9886, 585.7018
688.4707, 585.9697
688.9528, 596.5312
689.4349, 607.8297
689.9171, 606.7407
690.3992, 597.3119
690.8813, 591.7943
691.3634, 593.4929
691.8455, 597.5953
692.3276, 599.6686
692.8098, 599.6786
693.2919, 596.8674
693.7740, 589.2476
694.2561, 583.1362
694.7382, 577.1132
695.2203, 575.4182
695.7025, 585.2866
696.1846, 602.5747
696.6667, 611.3098
697.1488, 598.6464
697.6309, 590.0204
698.1130, 608.4318
698.5952, 633.1434
699.0773, 635.0989
699.5594, 615.4612
700.0415, 595.5930
700.5236, 588.3456
701.0057, 589.9119
701.4879, 594.5792
701.9700, 602.7982
702.4521, 603.6156
702.9342, 592.2890
703.4163, 583.4044
703.8984, 587.8140
704.3806, 599.6705
704.8627, 604.1790
705.3448, 597.2443
705.8269, 595.2372
706.3090, 606.7215
706.7911, 617.4119
707.2733, 619.3675
707.7554, 614.4108
708.2375, 603.7919
708.7196, 588.5811
709.2017, 578.0885
709.6838, 584.8703
710.1660, 602.1452
710.6481, 613.0496
711.1302, 617.5810
711.6123, 619.7564
712.0944, 620.7823
712.5765, 620.9348
713.0587, 620.8270
713.5408, 620.5957
714.0229, 617.1043
714.5050, 606.8885
714.9871, 598.1483
715.4692, 592.4474
715.9514, 588.4356
716.4335, 585.5351
716.9156, 583.4142
717.3977, 581.0353
717.8798, 576.5195
718.3619, 573.7253
718.8441, 576.3121
719.3262, 582.4716
719.8083, 590.3503
720.2904, 598.9732
720.7725, 605.6405
721.2546, 608.4807
721.7368, 608.2856
722.2189, 606.5701
722.7010, 603.0482
723.1831, 599.9484
723.6652, 597.3807
724.1473, 595.3328
724.6295, 593.6276
725.1116, 592.5455
725.5937, 593.0123
726.0758, 596.1550
726.5579, 596.8602
727.0400, 589.9099
727.5222, 584.6275
728.0043, 588.8199
728.4864, 597.6047
728.9685, 603.5999
729.4506, 604.5579
729.9327, 601.3746
730.4149, 591.0918
730.8970, 578.7652
731.3791, 577.1516
731.8612, 585.2432
732.3433, 594.1717
732.8254, 601.8185
733.3076, 606.5204
733.7897, 605.5378
734.2718, 599.6781
734.7539, 599.9503
735.2360, 612.6085
735.7181, 620.9245
736.2003, 620.0307
736.6824, 617.2238
737.1645, 618.1373
737.6466, 620.7418
738.1287, 618.3293
738.6108, 606.0044
739.0930, 596.0605
739.5751, 595.5693
740.0572, 601.0277
740.5393, 613.2708
741.0214, 627.9015
741.5035, 631.5188
741.9857, 617.7203
742.4678, 598.6365
742.9499, 591.7643
743.4320, 596.2537
743.9141, 599.8422
744.3962, 602.1159
744.8784, 605.2308
745.3605, 610.5634
745.8426, 616.4260
746.3247, 621.0146
746.8068, 624.5452
747.2889, 624.3682
747.7711, 619.0663
748.2532, 612.1304
748.7353, 598.7115
749.2174, 588.1888
749.6995, 594.2548
750.1816, 612.2518
750.6638, 619.8300
751.1459, 600.1769
751.6280, 578.3981
752.1101, 580.4907
752.5922, 595.9081
753.0743, 605.0217
753.5565, 606.0388
754.0386, 607.2144
754.5207, 613.7251
755.0028, 620.5955
755.4849, 615.1275
755.9670, 594.5847
756.4492, 589.5070
756.9313, 607.4421
757.4134, 623.0394
757.8955, 623.5505
758.3776, 617.1119
758.8597, 616.0071
759.3419, 620.6067
759.8240, 625.2996
760.3061, 634.2952
760.7882, 637.7474
761.2703, 627.9892
761.7524, 613.4465
762.2346, 601.0568
762.7167, 592.7537
763.1988, 589.9810
763.6809, 595.0800
764.1630, 603.3271
764.6451, 611.0454
765.1273, 617.3602
765.6094, 619.1060
766.0915, 616.3503
766.5736, 614.1260
767.0557, 615.7473
767.5378, 618.8152
768.0200, 617.2057
768.5021, 609.3317
768.9842, 607.0035
769.4663, 613.4857
769.9484, 618.9052
770.4305, 618.7192
770.9127, 615.3124
771.3948, 610.9872
771.8769, 605.3087
772.3590, 604.1355
772.8411, 610.3268
773.3232, 618.5474
773.8054, 629.8026
774.2875, 640.0344
774.7696, 646.2966
775.2517, 647.5258
775.7338, 641.1472
776.2159, 621.3145
776.6981, 602.7688
777.1802, 607.0084
777.6623, 623.9537
778.1444, 630.1210
778.6265, 623.5013
779.1086, 613.1611
779.5908, 603.6605
780.0729, 597.1345
780.5550, 599.3255
781.0371, 611.7617
781.5192, 616.0829
782.0013, 607.0237
782.4835, 604.4995
782.9656, 621.9826
783.4477, 644.0140
783.9298, 648.9001
784.4119, 636.1921
784.8940, 628.9713
785.3762, 632.5515
785.8583, 636.0886
786.3404, 636.4374
786.8225, 635.7466
787.3046, 637.5664
787.7867, 640.1820
788.2689, 636.5554
788.7510, 620.8438
789.2331, 607.6885
789.7152, 613.0819
790.1973, 627.1013
790.6794, 634.2690
791.1616, 634.5647
791.6437, 633.8737
792.1258, 634.7392
792.6079, 637.5624
793.0900, 643.8627
793.5721, 652.9674
794.0543, 658.1422
794.5364, 659.1800
795.0185, 657.1368
795.5006, 650.7599
795.9827, 644.6365
796.4648, 643.0623
796.9470, 645.8234
797.4291, 650.6395
797.9112, 660.3396
798.3933, 668.0034
798.8754, 672.7645
799.3575, 675.9762
799.8397, 678.6617
800.3218, 680.2832
800.8039, 678.9569
801.2860, 673.5343
801.7681, 670.3453
802.2502, 672.3517
802.7324, 678.1876
803.2145, 689.5250
803.6966, 702.8363
804.1787, 711.1777
804.6608, 713.3027
805.1429, 714.7206
805.6251, 720.9021
806.1072, 728.3050
806.5893, 729.5897
807.0714, 725.0541
807.5535, 713.4141
808.0356, 693.4277
808.5178, 684.3512
808.9999, 701.0265
809.4820, 732.8303
809.9641, 752.6666
810.4462, 757.5056
810.9283, 761.2443
811.4105, 760.6631
811.8926, 764.3126
812.3747, 779.5355
812.8568, 797.9928
813.3389, 810.6273
813.8210, 817.3094
814.3032, 820.7650
814.7853, 817.4853
815.2674, 815.9581
815.7495, 821.5848
816.2316, 828.2535
816.7137, 826.9407
817.1959, 821.6052
817.6780, 826.7390
818.1601, 850.8649
818.6422, 874.9611
819.1243, 881.3952
819.6064, 878.4339
820.0886, 876.9796
820.5707, 877.9796
821.0528, 881.6314
821.5349, 887.9222
822.0170, 894.9315
822.4991, 900.8196
822.9813, 905.5737
823.4634, 907.7910
823.9455, 907.0984
824.4276, 913.0552
824.9097, 929.1379
825.3918, 945.9333
825.8740, 955.4354
826.3561, 960.9329
826.8382, 974.1192
827.3203, 1002.931
827.8024, 1021.034
828.2845, 1021.849
828.7667, 1019.863
829.2488, 1013.166
829.7309, 1010.686
830.2130, 1027.127
830.6951, 1063.003
831.1772, 1090.926
831.6594, 1105.376
832.1415, 1109.370
832.6236, 1092.355
833.1057, 1074.269
833.5878, 1075.584
834.0699, 1094.767
834.5521, 1119.894
835.0342, 1146.622
835.5163, 1172.541
835.9984, 1196.901
836.4805, 1218.328
836.9626, 1230.890
837.4448, 1238.172
837.9269, 1256.301
838.4090, 1289.798
838.8911, 1320.383
839.3732, 1326.360
839.8553, 1315.901
840.3375, 1320.911
840.8196, 1341.778
841.3017, 1356.695
841.7838, 1360.080
842.2659, 1366.527
842.7480, 1387.625
843.2302, 1416.493
843.7123, 1435.609
844.1944, 1441.590
844.6765, 1449.316
845.1586, 1462.056
845.6407, 1471.656
846.1229, 1474.262
846.6050, 1473.236
847.0871, 1469.814
847.5692, 1464.660
848.0513, 1464.660
848.5334, 1475.445
849.0156, 1485.131
849.4977, 1489.024
849.9798, 1491.953
850.4619, 1499.696
850.9440, 1509.069
851.4261, 1512.961
851.9083, 1509.185
852.3904, 1500.484
852.8725, 1483.145
853.3546, 1466.362
853.8367, 1462.713
854.3188, 1466.221
854.8010, 1466.642
855.2831, 1460.546
855.7652, 1443.536
856.2473, 1409.412
856.7294, 1371.428
857.2115, 1352.646
857.6937, 1350.573
858.1758, 1358.853
858.6579, 1375.982
859.1400, 1381.421
859.6221, 1364.646
860.1042, 1338.997
860.5864, 1323.589
861.0685, 1317.990
861.5506, 1307.130
862.0327, 1288.831
862.5148, 1274.279
862.9969, 1268.228
863.4791, 1261.766
863.9612, 1247.860
864.4433, 1227.944
864.9254, 1206.934
865.4075, 1179.268
865.8896, 1162.110
866.3718, 1164.984
866.8539, 1166.438
867.3360, 1160.199
867.8181, 1147.909
868.3002, 1128.281
868.7823, 1102.524
869.2645, 1084.225
869.7466, 1084.639
870.2287, 1083.098
870.7108, 1068.974
871.1929, 1051.862
871.6750, 1038.592
872.1572, 1029.927
872.6393, 1028.045
873.1214, 1034.222
873.6035, 1033.320
874.0856, 1005.420
874.5677, 972.1454
875.0499, 958.7288
875.5320, 958.5136
876.0141, 958.7670
876.4962, 955.7164
876.9783, 946.8237
877.4604, 929.2158
877.9426, 909.7112
878.4247, 899.0411
878.9068, 895.9618
879.3889, 898.6030
879.8710, 905.7734
880.3531, 905.5343
880.8353, 892.6644
881.3174, 877.0674
881.7995, 870.3239
882.2816, 871.3807
882.7637, 874.7228
883.2458, 881.2024
883.7280, 882.5684
884.2101, 875.4208
884.6922, 869.8159
885.1743, 872.4334
885.6564, 880.6686
886.1385, 889.5393
886.6207, 900.3322
887.1028, 905.3918
887.5849, 898.0362
888.0670, 895.8578
888.5491, 910.8393
889.0313, 926.2778
889.5134, 923.6783
889.9955, 908.2985
890.4776, 904.7289
890.9597, 924.4979
891.4418, 938.1470
891.9240, 936.3993
892.4061, 933.4008
892.8882, 937.5911
893.3703, 944.5981
893.8524, 945.3823
894.3345, 939.9528
894.8167, 943.3635
895.2988, 970.1745
895.7809, 996.8934
896.2630, 1010.593
896.7451, 1018.332
897.2272, 1025.676
897.7094, 1033.839
898.1915, 1043.348
898.6736, 1054.377
899.1557, 1066.373
899.6378, 1078.671
900.1199, 1091.803
900.6021, 1106.242
901.0842, 1122.084
901.5663, 1137.452
902.0484, 1153.595
902.5305, 1179.129
903.0126, 1220.560
903.4948, 1266.055
903.9769, 1296.587
904.4590, 1317.153
904.9411, 1341.382
905.4232, 1370.096
905.9053, 1404.305
906.3875, 1444.202
906.8696, 1482.632
907.3517, 1512.524
907.8338, 1535.902
908.3159, 1558.110
908.7980, 1579.062
909.2802, 1607.179
909.7623, 1645.147
910.2444, 1674.278
910.7265, 1682.355
911.2086, 1686.854
911.6907, 1715.578
912.1729, 1768.002
912.6550, 1800.497
913.1371, 1805.571
913.6192, 1815.315
914.1013, 1839.075
914.5834, 1861.053
915.0656, 1870.041
915.5477, 1870.693
916.0298, 1874.028
916.5119, 1881.938
916.9940, 1885.313
917.4761, 1877.795
917.9583, 1874.751
918.4404, 1885.095
918.9225, 1896.595
919.4046, 1899.768
919.8867, 1896.018
920.3688, 1890.132
920.8510, 1876.213
921.3331, 1874.111
921.8152, 1893.550
922.2973, 1917.434
922.7794, 1940.739
923.2615, 1962.462
923.7437, 1979.537
924.2258, 1993.311
924.7079, 2012.798
925.1900, 2044.982
925.6721, 2076.375
926.1542, 2096.981
926.6364, 2118.776
927.1185, 2151.299
927.6006, 2191.758
928.0827, 2236.572
928.5648, 2283.982
929.0469, 2327.316
929.5291, 2358.047
930.0112, 2388.847
930.4933, 2431.355
930.9754, 2478.134
931.4575, 2519.080
931.9396, 2555.942
932.4218, 2597.833
932.9039, 2648.145
933.3860, 2694.849
933.8681, 2725.340
934.3502, 2748.121
934.8323, 2774.249
935.3145, 2800.877
935.7966, 2819.616
936.2787, 2831.324
936.7608, 2846.429
937.2429, 2870.671
937.7250, 2895.605
938.2072, 2911.937
938.6893, 2920.979
939.1714, 2920.459
939.6535, 2915.111
940.1356, 2925.883
940.6177, 2955.848
941.0999, 2985.187
941.5820, 2999.658
942.0641, 3007.069
942.5462, 3021.732
943.0283, 3041.963
943.5104, 3058.742
943.9926, 3071.908
944.4747, 3083.146
944.9568, 3092.715
945.4389, 3111.237
945.9210, 3150.060
946.4031, 3200.392
946.8853, 3238.083
947.3674, 3263.222
947.8495, 3281.771
948.3316, 3292.460
948.8137, 3319.167
949.2958, 3374.393
949.7780, 3431.277
950.2601, 3456.412
950.7422, 3459.171
951.2243, 3493.807
951.7064, 3567.729
952.1885, 3623.519
952.6707, 3651.215
953.1528, 3675.850
953.6349, 3706.457
954.1170, 3745.000
954.5991, 3794.902
955.0812, 3855.748
955.5634, 3926.926
956.0455, 4018.977
956.5276, 4085.753
957.0097, 4108.680
957.4918, 4134.879
957.9739, 4196.838
958.4561, 4269.266
958.9382, 4308.540
959.4203, 4311.654
959.9024, 4325.943
960.3845, 4350.564
960.8666, 4388.839
961.3488, 4451.764
961.8309, 4514.304
962.3130, 4565.321
962.7951, 4603.292
963.2772, 4622.043
963.7593, 4615.218
964.2415, 4623.257
964.7236, 4654.993
965.2057, 4688.778
965.6878, 4723.887
966.1699, 4757.318
966.6520, 4781.046
967.1342, 4803.242
967.6163, 4844.617
968.0984, 4912.469
968.5805, 4971.835
969.0626, 5009.060
969.5447, 5054.021
970.0269, 5116.320
970.5090, 5187.125
970.9911, 5259.044
971.4732, 5334.213
971.9553, 5420.554
972.4374, 5525.908
972.9196, 5617.072
973.4017, 5675.969
973.8838, 5738.379
974.3659, 5830.121
974.8480, 5919.356
975.3301, 5968.458
975.8123, 5991.252
976.2944, 6034.086
976.7765, 6111.315
977.2586, 6184.798
977.7407, 6251.665
978.2228, 6305.941
978.7050, 6346.014
979.1871, 6371.110
979.6692, 6372.659
980.1513, 6358.516
980.6334, 6354.124
981.1155, 6366.089
981.5977, 6384.349
982.0798, 6419.342
982.5619, 6444.181
983.0440, 6460.560
983.5261, 6448.574
984.0082, 6362.118
984.4904, 6226.108
984.9725, 6142.151
985.4546, 6159.678
985.9367, 6162.220
986.4188, 6097.380
986.9009, 6017.351
987.3831, 5945.425
987.8652, 5880.194
988.3473, 5818.160
988.8294, 5759.932
989.3115, 5711.649
989.7936, 5682.602
990.2758, 5641.638
990.7579, 5562.435
991.2400, 5482.258
991.7221, 5429.639
992.2042, 5387.018
992.6863, 5326.130
993.1685, 5251.161
993.6506, 5193.467
994.1327, 5168.913
994.6148, 5147.059
995.0969, 5126.331
995.5790, 5090.888
996.0612, 5009.038
996.5433, 4919.775
997.0254, 4877.726
997.5075, 4878.099
997.9896, 4872.287
998.4717, 4846.185
998.9539, 4804.609
999.4360, 4741.492
999.9181, 4672.197
1000.400, 4607.000
1000.882, 4542.867
1001.364, 4470.795
1001.847, 4394.513
1002.329, 4335.527
1002.811, 4311.504
1003.293, 4272.692
1003.775, 4177.481
1004.257, 4078.873
1004.739, 4018.684
1005.221, 3973.842
1005.703, 3914.616
1006.186, 3840.604
1006.668, 3766.473
1007.150, 3697.554
1007.632, 3628.914
1008.114, 3556.339
1008.596, 3485.607
1009.078, 3417.281
1009.560, 3355.169
1010.043, 3308.825
1010.525, 3272.964
1011.007, 3225.994
1011.489, 3156.679
1011.971, 3092.161
1012.453, 3047.452
1012.935, 3006.741
1013.417, 2961.143
1013.899, 2914.001
1014.382, 2869.979
1014.864, 2828.775
1015.346, 2785.787
1015.828, 2737.631
1016.310, 2697.848
1016.792, 2684.517
1017.274, 2665.649
1017.756, 2612.372
1018.239, 2553.853
1018.721, 2526.769
1019.203, 2520.979
1019.685, 2495.822
1020.167, 2436.035
1020.649, 2387.219
1021.131, 2379.437
1021.613, 2366.708
1022.095, 2318.354
1022.578, 2263.253
1023.060, 2232.577
1023.542, 2216.962
1024.024, 2184.913
1024.506, 2126.408
1024.988, 2080.689
1025.470, 2064.488
1025.952, 2054.398
1026.435, 2050.417
1026.917, 2041.480
1027.399, 2015.845
1027.881, 1979.632
1028.363, 1945.387
1028.845, 1914.524
1029.327, 1888.027
1029.809, 1867.774
1030.292, 1849.584
1030.774, 1835.941
1031.256, 1820.283
1031.738, 1796.789
1032.220, 1768.768
1032.702, 1741.118
1033.184, 1713.864
1033.666, 1692.028
1034.148, 1677.866
1034.630, 1666.742
1035.113, 1668.050
1035.595, 1661.180
1036.077, 1621.477
1036.559, 1573.567
1037.041, 1558.479
1037.523, 1577.905
1038.005, 1584.188
1038.487, 1567.848
1038.970, 1553.051
1039.452, 1542.141
1039.934, 1531.603
1040.416, 1519.442
1040.898, 1507.407
1041.380, 1498.197
1041.862, 1491.416
1042.344, 1482.084
1042.826, 1466.071
1043.309, 1457.526
1043.791, 1464.809
1044.273, 1463.977
1044.755, 1438.638
1045.237, 1412.578
1045.719, 1412.574
1046.201, 1431.714
1046.683, 1437.855
1047.166, 1428.186
1047.648, 1413.921
1048.130, 1391.358
1048.612, 1375.848
1049.094, 1373.518
1049.576, 1376.551
1050.058, 1381.098
1050.540, 1382.540
1051.022, 1365.352
1051.505, 1326.140
1051.987, 1304.060
1052.469, 1302.296
1052.951, 1297.759
1053.433, 1284.000
1053.915, 1273.143
1054.397, 1274.200
1054.879, 1279.910
1055.361, 1276.224
1055.844, 1264.201
1056.326, 1257.263
1056.808, 1255.326
1057.290, 1248.774
1057.772, 1235.885
1058.254, 1226.550
1058.736, 1226.328
1059.218, 1227.914
1059.701, 1222.016
1060.183, 1209.938
1060.665, 1193.606
1061.147, 1174.673
1061.629, 1163.152
1062.111, 1159.512
1062.593, 1158.429
1063.075, 1157.668
1063.557, 1155.562
1064.040, 1149.290
1064.522, 1143.226
1065.004, 1149.137
1065.486, 1160.253
1065.968, 1158.418
1066.450, 1145.964
1066.932, 1135.571
1067.414, 1130.472
1067.896, 1125.461
1068.379, 1116.238
1068.861, 1108.631
1069.343, 1109.307
1069.825, 1115.603
1070.307, 1130.266
1070.789, 1144.976
1071.271, 1139.770
1071.753, 1117.203
1072.236, 1101.381
1072.718, 1103.606
1073.200, 1110.454
1073.682, 1117.348
1074.164, 1119.202
1074.646, 1105.521
1075.128, 1088.893
1075.610, 1087.686
1076.093, 1096.718
1076.575, 1097.106
1077.057, 1083.560
1077.539, 1071.841
1078.021, 1067.993
1078.503, 1068.541
1078.985, 1071.731
1079.467, 1078.883
1079.949, 1095.292
1080.432, 1114.348
1080.914, 1125.783
1081.396, 1128.513
1081.878, 1127.396
1082.360, 1119.389
1082.842, 1113.593
1083.324, 1110.889
1083.806, 1111.266
1084.288, 1117.815
1084.771, 1125.152
1085.253, 1126.214
1085.735, 1122.706
1086.217, 1123.156
1086.699, 1128.977
1087.181, 1135.234
1087.663, 1143.818
1088.145, 1148.254
1088.628, 1142.434
1089.110, 1140.804
1089.592, 1156.781
1090.074, 1180.839
1090.556, 1192.373
1091.038, 1191.040
1091.520, 1185.682
1092.002, 1174.877
1092.484, 1169.653
1092.967, 1172.180
1093.449, 1178.676
1093.931, 1188.205
1094.413, 1195.547
1094.895, 1193.534
1095.377, 1184.601
1095.859, 1176.961
1096.341, 1170.631
1096.823, 1164.755
1097.306, 1159.864
1097.788, 1162.874
1098.270, 1175.347
1098.752, 1186.521
1099.234, 1188.204
1099.716, 1182.328
1100.198, 1169.081
1100.680, 1151.922
1101.163, 1134.329
1101.645, 1119.859
1102.127, 1121.035
1102.609, 1134.953
1103.091, 1140.332
1103.573, 1126.818
1104.055, 1110.049
1104.537, 1101.407
1105.020, 1097.036
1105.502, 1091.313
1105.984, 1089.435
1106.466, 1103.095
1106.948, 1124.229
1107.430, 1134.761
1107.912, 1130.978
1108.394, 1122.099
1108.876, 1105.585
1109.359, 1094.173
1109.841, 1095.726
1110.323, 1100.344
1110.805, 1104.377
1111.287, 1106.415
1111.769, 1102.780
1112.251, 1095.455
1112.733, 1095.196
1113.215, 1107.841
1113.698, 1115.198
1114.180, 1107.622
1114.662, 1109.694
1115.144, 1136.732
1115.626, 1160.677
1116.108, 1159.900
1116.590, 1146.747
1117.072, 1145.087
1117.555, 1155.007
1118.037, 1153.672
1118.519, 1137.057
1119.001, 1132.945
1119.483, 1146.113
1119.965, 1162.450
1120.447, 1176.660
1120.929, 1187.514
1121.411, 1193.266
1121.894, 1195.744
1122.376, 1198.727
1122.858, 1202.570
1123.340, 1210.901
1123.822, 1222.324
1124.304, 1227.409
1124.786, 1225.213
1125.268, 1226.147
1125.750, 1236.189
1126.233, 1250.047
1126.715, 1266.057
1127.197, 1278.528
1127.679, 1277.711
1128.161, 1269.033
1128.643, 1256.931
1129.125, 1245.851
1129.607, 1245.136
1130.090, 1256.243
1130.572, 1268.138
1131.054, 1280.638
1131.536, 1283.066
1132.018, 1260.223
1132.500, 1236.153
1132.982, 1228.305
1133.464, 1227.860
1133.947, 1223.758
1134.429, 1216.397
1134.911, 1212.216
1135.393, 1214.973
1135.875, 1210.659
1136.357, 1191.941
1136.839, 1175.390
1137.321, 1165.851
1137.803, 1155.897
1138.286, 1139.816
1138.768, 1122.712
1139.250, 1112.765
1139.732, 1108.928
1140.214, 1100.480
1140.696, 1086.510
1141.178, 1075.100
1141.660, 1067.127
1142.142, 1056.595
1142.625, 1041.351
1143.107, 1028.699
1143.589, 1025.122
1144.071, 1023.229
1144.553, 1007.556
1145.035, 983.9479
1145.517, 969.6743
1145.999, 963.1335
1146.482, 958.3558
1146.964, 955.2915
1147.446, 961.2337
1147.928, 977.5873
1148.410, 984.1650
1148.892, 958.1901
1149.374, 929.8763
1149.856, 931.8555
1150.339, 939.1716
1150.821, 923.1285
1151.303, 897.8371
1151.785, 887.2556
1152.267, 890.7258
1152.749, 891.0928
1153.231, 884.1095
1153.713, 874.4105
1154.195, 861.2619
1154.677, 847.9214
1155.160, 830.2130
1155.642, 818.5499
1156.124, 825.3453
1156.606, 836.6622
1157.088, 829.6050
1157.570, 806.7841
1158.052, 800.7913
1158.534, 817.3381
1159.017, 824.0529
1159.499, 818.0116
1159.981, 810.3436
1160.463, 804.4708
1160.945, 795.8932
1161.427, 780.5822
1161.909, 764.1168
1162.391, 754.5534
1162.874, 751.9280
1163.356, 762.7681
1163.838, 779.4730
1164.320, 771.0104
1164.802, 742.7445
1165.284, 730.5214
1165.766, 744.3630
1166.248, 761.9827
1166.730, 771.4827
1167.213, 772.2828
1167.695, 759.9463
1168.177, 742.8160
1168.659, 721.2839
1169.141, 704.6682
1169.623, 709.5776
1170.105, 728.0573
1170.587, 733.2635
1171.069, 717.9155
1171.552, 711.3379
1172.034, 732.3422
1172.516, 740.7888
1172.998, 720.8904
1173.480, 701.5053
1173.962, 695.3149
1174.444, 694.4898
1174.926, 692.2338
1175.409, 687.6705
1175.891, 674.8225
1176.373, 651.7591
1176.855, 652.9276
1177.337, 679.1857
1177.819, 689.4428
1178.301, 676.3398
1178.783, 658.7280
1179.266, 645.7704
1179.748, 636.6411
1180.230, 630.4322
1180.712, 627.8832
1181.194, 635.3460
1181.676, 643.9847
1182.158, 634.6258
1182.640, 615.7267
1183.122, 606.1132
1183.604, 607.5190
1184.087, 612.0569
1184.569, 617.5768
1185.051, 620.4519
1185.533, 619.3502
1186.015, 614.8171
1186.497, 601.7020
1186.979, 590.9507
1187.461, 592.4274
1187.944, 599.3928
1188.426, 601.4089
1188.908, 599.7307
1189.390, 603.1472
1189.872, 615.4401
1190.354, 618.5379
1190.836, 609.8466
1191.318, 604.1771
1191.801, 605.5831
1192.283, 603.6039
1192.765, 591.5427
1193.247, 579.5513
1193.729, 580.9463
1194.211, 590.8171
1194.693, 600.9435
1195.175, 608.4082
1195.657, 603.0111
1196.140, 588.4713
1196.622, 575.1210
1197.104, 565.7796
1197.586, 560.3132
1198.068, 558.5806
1198.550, 561.6006
1199.032, 574.9042
1199.514, 586.7925
1199.996, 591.7625
1200.479, 591.5450
1200.961, 582.0732
1201.443, 571.7091
1201.925, 574.7327
1202.407, 589.2770
1202.889, 596.4791
1203.371, 595.9589
1203.853, 587.4920
1204.336, 565.2023
1204.818, 556.0372
1205.300, 569.1365
1205.782, 577.3232
1206.264, 564.8920
1206.746, 548.8000
1207.228, 549.9331
1207.710, 560.7665
1208.193, 561.9622
1208.675, 557.4861
1209.157, 560.0699
1209.639, 567.0238
1210.121, 569.2951
1210.603, 565.5162
1211.085, 557.1636
1211.567, 544.6481
1212.049, 535.4230
1212.531, 533.3610
1213.014, 536.7176
1213.496, 548.8740
1213.978, 561.3504
1214.460, 573.0568
1214.942, 578.1560
1215.424, 564.4413
1215.906, 538.5483
1216.388, 524.7712
1216.871, 524.3300
1217.353, 530.2839
1217.835, 546.2434
1218.317, 551.9508
1218.799, 542.8899
1219.281, 535.3491
1219.763, 535.9651
1220.245, 542.0001
1220.728, 551.9628
1221.210, 561.7465
1221.692, 564.2794
1222.174, 561.2103
1222.656, 554.0668
1223.138, 544.9269
1223.620, 536.5126
1224.102, 530.1199
1224.584, 527.9679
1225.067, 530.3883
1225.549, 534.3478
1226.031, 540.2443
1226.513, 544.1253
1226.995, 545.0080
1227.477, 543.1622
1227.959, 533.5944
1228.441, 526.9500
1228.923, 534.1354
1229.406, 546.3068
1229.888, 547.5786
1230.370, 539.2689
1230.852, 534.5425
1231.334, 533.1668
1231.816, 545.2388
1232.298, 570.2567
1232.780, 583.1106
1233.263, 578.0700
1233.745, 567.8948
1234.227, 559.6298
1234.709, 553.3212
1235.191, 550.8617
1235.673, 548.2053
1236.155, 537.9495
1236.637, 527.6368
1237.120, 527.2371
1237.602, 532.0071
##END=



