##NAMES=Arrojadite-(KNa)
##RRUFFID=R050107
##IDEAL CHEMISTRY=KNa_3_(CaNa_2_)Fe^2+^_13_Al(PO_4_)_11_(PO_3_OH)(OH)_2_
##LOCALITY=Big-Fish River, Yukon Territory, Canada
##OWNER=RRUFF
##SOURCE=Rock Currier
##DESCRIPTION=Yellowish green tabular crystals
##STATUS=The identification of this mineral has been confirmed only by X-ray diffraction
##URL=rruff.info/R050107
129.9852, 132.0176
130.4673, 134.2716
130.9494, 136.7689
131.4316, 139.3170
131.9137, 140.8130
132.3958, 140.9851
132.8779, 140.9969
133.3600, 141.5674
133.8421, 142.6801
134.3243, 143.9331
134.8064, 145.1234
135.2885, 146.2455
135.7706, 147.3705
136.2527, 148.6067
136.7348, 149.7704
137.2169, 150.2110
137.6991, 149.8044
138.1812, 149.3065
138.6633, 149.4330
139.1454, 150.3224
139.6275, 150.6271
140.1096, 150.0374
140.5918, 148.6904
141.0739, 147.2956
141.5560, 145.7360
142.0381, 144.3611
142.5202, 143.4913
143.0023, 143.2558
143.4845, 143.1678
143.9666, 143.1890
144.4487, 143.3235
144.9308, 143.3325
145.4129, 143.1405
145.8951, 142.9009
146.3772, 142.7842
146.8593, 142.9222
147.3414, 142.9723
147.8235, 142.8195
148.3056, 142.3890
148.7878, 142.1325
149.2699, 142.1930
149.7520, 142.3625
150.2341, 142.3635
150.7162, 141.9599
151.1983, 141.6306
151.6805, 141.4809
152.1626, 141.5179
152.6447, 141.7091
153.1268, 142.3211
153.6089, 143.0452
154.0910, 143.3755
154.5732, 142.8299
155.0553, 142.2789
155.5374, 142.0396
156.0195, 142.3452
156.5016, 142.5309
156.9837, 142.6123
157.4659, 142.5169
157.9480, 142.0875
158.4301, 140.8398
158.9122, 139.5883
159.3943, 138.7656
159.8764, 138.7963
160.3586, 138.6615
160.8407, 137.9754
161.3228, 136.9020
161.8049, 135.8972
162.2870, 135.2630
162.7691, 134.6576
163.2512, 133.8612
163.7334, 132.7838
164.2155, 131.5628
164.6976, 130.2249
165.1797, 128.7801
165.6618, 127.2636
166.1439, 125.6901
166.6261, 124.0674
167.1082, 122.3976
167.5903, 120.5260
168.0724, 118.7695
168.5545, 117.4595
169.0366, 116.5135
169.5188, 115.4173
170.0009, 113.6541
170.4830, 111.6509
170.9651, 109.8478
171.4472, 108.3466
171.9293, 107.1351
172.4115, 106.3275
172.8936, 105.8926
173.3757, 105.4549
173.8578, 104.7295
174.3399, 103.8344
174.8220, 102.9388
175.3042, 102.0190
175.7863, 101.1788
176.2684, 100.5287
176.7505, 100.0660
177.2326, 99.71461
177.7147, 99.51096
178.1969, 99.37408
178.6790, 99.13428
179.1611, 98.58096
179.6432, 97.93462
180.1253, 97.53467
180.6074, 97.39127
181.0896, 97.36709
181.5717, 97.36789
182.0538, 97.38717
182.5359, 97.40449
183.0180, 97.48528
183.5001, 97.54805
183.9823, 97.41258
184.4644, 97.07217
184.9465, 96.58815
185.4286, 95.90345
185.9107, 95.07711
186.3928, 94.45132
186.8750, 94.40144
187.3571, 94.68628
187.8392, 94.50964
188.3213, 93.80994
188.8034, 92.88193
189.2855, 92.07603
189.7677, 91.38853
190.2498, 90.74597
190.7319, 90.14809
191.2140, 89.58129
191.6961, 88.92399
192.1782, 88.12865
192.6603, 87.38972
193.1425, 87.03519
193.6246, 87.06344
194.1067, 87.22009
194.5888, 87.47969
195.0709, 87.81451
195.5530, 87.91375
196.0352, 87.73149
196.5173, 87.39780
196.9994, 87.13822
197.4815, 86.96272
197.9636, 86.73030
198.4457, 86.34721
198.9279, 85.81095
199.4100, 85.27184
199.8921, 84.70576
200.3742, 84.17530
200.8563, 83.79511
201.3384, 83.56666
201.8206, 83.45399
202.3027, 83.49177
202.7848, 83.70055
203.2669, 83.80813
203.7490, 83.83284
204.2311, 83.72539
204.7133, 83.33540
205.1954, 82.60273
205.6775, 81.84048
206.1596, 81.19582
206.6417, 80.67813
207.1238, 80.20030
207.6060, 79.74966
208.0881, 79.34277
208.5702, 79.03453
209.0523, 78.85756
209.5344, 78.67829
210.0165, 78.36183
210.4987, 77.80275
210.9808, 77.66031
211.4629, 78.14401
211.9450, 78.90427
212.4271, 79.07981
212.9092, 78.47187
213.3914, 77.77332
213.8735, 77.30875
214.3556, 77.12762
214.8377, 77.01660
215.3198, 77.00510
215.8019, 77.04348
216.2841, 77.01336
216.7662, 76.90804
217.2483, 76.75204
217.7304, 76.52710
218.2125, 76.16721
218.6946, 75.97356
219.1767, 76.03385
219.6589, 76.22659
220.1410, 76.24728
220.6231, 76.03409
221.1052, 75.76392
221.5873, 75.50428
222.0694, 75.24741
222.5516, 75.01865
223.0337, 74.77132
223.5158, 74.57084
223.9979, 74.60161
224.4800, 75.00961
224.9621, 75.39281
225.4443, 75.54910
225.9264, 75.34512
226.4085, 75.26038
226.8906, 75.33367
227.3727, 75.51032
227.8548, 75.67348
228.3370, 75.84196
228.8191, 75.96309
229.3012, 75.96837
229.7833, 75.68101
230.2654, 75.78270
230.7475, 76.53204
231.2297, 77.57320
231.7118, 78.09743
232.1939, 77.95592
232.6760, 77.53658
233.1581, 76.89243
233.6402, 75.74535
234.1224, 75.18058
234.6045, 75.46751
235.0866, 76.22549
235.5687, 76.61375
236.0508, 76.38166
236.5329, 76.18925
237.0151, 76.36433
237.4972, 77.20982
237.9793, 77.48086
238.4614, 76.85713
238.9435, 75.80434
239.4256, 75.24870
239.9078, 75.45925
240.3899, 75.74453
240.8720, 75.88726
241.3541, 75.87863
241.8362, 75.75316
242.3183, 75.43814
242.8005, 75.04675
243.2826, 74.76939
243.7647, 74.62743
244.2468, 74.57298
244.7289, 74.62611
245.2110, 74.85018
245.6931, 74.91306
246.1753, 74.73547
246.6574, 74.44710
247.1395, 74.23372
247.6216, 74.06306
248.1037, 74.03285
248.5858, 74.27251
249.0680, 74.91616
249.5501, 75.02632
250.0322, 74.26347
250.5143, 73.23198
250.9964, 72.79874
251.4785, 73.36559
251.9607, 73.79506
252.4428, 73.77383
252.9249, 73.25436
253.4070, 72.68497
253.8891, 71.99986
254.3712, 71.32710
254.8534, 70.84252
255.3355, 70.67948
255.8176, 70.43650
256.2997, 69.97214
256.7818, 69.27144
257.2639, 68.75597
257.7461, 68.51629
258.2282, 68.35885
258.7103, 68.07149
259.1924, 67.57547
259.6745, 67.11468
260.1566, 66.69173
260.6388, 66.30713
261.1209, 66.29298
261.6030, 66.88238
262.0851, 67.51756
262.5672, 67.64423
263.0493, 67.06173
263.5315, 66.51373
264.0136, 66.13572
264.4957, 65.91003
264.9778, 65.63808
265.4599, 65.25881
265.9420, 64.94470
266.4242, 64.86983
266.9063, 65.12463
267.3884, 65.31799
267.8705, 65.38485
268.3526, 65.34849
268.8347, 65.31764
269.3169, 65.27948
269.7990, 65.27348
270.2811, 65.37998
270.7632, 65.67869
271.2453, 65.72018
271.7274, 65.38763
272.2096, 64.79176
272.6917, 64.29866
273.1738, 63.94221
273.6559, 63.57442
274.1380, 63.03941
274.6201, 62.26019
275.1023, 61.79910
275.5844, 61.77340
276.0665, 62.01965
276.5486, 62.19239
277.0307, 62.30618
277.5128, 62.28321
277.9950, 62.02297
278.4771, 61.50035
278.9592, 61.11306
279.4413, 60.91146
279.9234, 60.79078
280.4055, 60.54064
280.8877, 60.14110
281.3698, 59.75449
281.8519, 59.45979
282.3340, 59.25624
282.8161, 59.05253
283.2982, 58.83773
283.7804, 58.64524
284.2625, 58.55513
284.7446, 58.57119
285.2267, 58.54668
285.7088, 58.40428
286.1909, 58.16230
286.6730, 57.94397
287.1552, 57.74579
287.6373, 57.58381
288.1194, 57.44256
288.6015, 57.32838
289.0836, 57.38021
289.5657, 57.76057
290.0479, 58.32793
290.5300, 58.50335
291.0121, 58.24702
291.4942, 57.95211
291.9763, 58.08229
292.4584, 58.55715
292.9406, 58.88713
293.4227, 58.87186
293.9048, 58.68030
294.3869, 58.69229
294.8690, 58.90802
295.3511, 59.16587
295.8333, 59.38629
296.3154, 59.55006
296.7975, 59.58688
297.2796, 59.44397
297.7617, 59.22306
298.2438, 59.09997
298.7260, 59.06167
299.2081, 58.99418
299.6902, 58.73679
300.1723, 58.40443
300.6544, 58.25455
301.1365, 58.37268
301.6187, 58.56443
302.1008, 58.58598
302.5829, 58.47650
303.0650, 58.38259
303.5471, 58.43316
304.0292, 58.53718
304.5114, 58.52989
304.9935, 58.36797
305.4756, 58.24038
305.9577, 58.52405
306.4398, 58.98754
306.9219, 59.10163
307.4041, 58.19226
307.8862, 57.04453
308.3683, 56.47551
308.8504, 56.54566
309.3325, 56.77291
309.8146, 56.81406
310.2968, 56.77998
310.7789, 56.83686
311.2610, 57.26654
311.7431, 57.65539
312.2252, 57.65408
312.7073, 57.28384
313.1895, 56.85696
313.6716, 56.49674
314.1537, 56.19458
314.6358, 55.94484
315.1179, 55.71046
315.6000, 55.56622
316.0822, 55.63702
316.5643, 55.86092
317.0464, 55.98164
317.5285, 55.89039
318.0106, 55.65242
318.4927, 55.30180
318.9749, 54.77621
319.4570, 54.25161
319.9391, 53.70459
320.4212, 53.20279
320.9033, 52.89101
321.3854, 53.09159
321.8676, 53.27578
322.3497, 53.11871
322.8318, 52.37466
323.3139, 51.90568
323.7960, 52.15819
324.2781, 52.73458
324.7603, 53.06427
325.2424, 52.94542
325.7245, 52.66922
326.2066, 52.24121
326.6887, 51.60535
327.1708, 51.18323
327.6530, 51.26028
328.1351, 51.45219
328.6172, 51.40611
329.0993, 50.57000
329.5814, 50.09276
330.0635, 50.31869
330.5457, 51.21561
331.0278, 51.73841
331.5099, 51.67721
331.9920, 51.41203
332.4741, 51.17356
332.9562, 50.89763
333.4384, 50.75840
333.9205, 50.86601
334.4026, 51.12079
334.8847, 51.12802
335.3668, 50.67329
335.8489, 50.28387
336.3311, 50.26405
336.8132, 50.85104
337.2953, 51.07850
337.7774, 50.75604
338.2595, 50.22044
338.7416, 50.15198
339.2238, 50.70589
339.7059, 51.26643
340.1880, 51.63493
340.6701, 51.81061
341.1522, 51.78151
341.6343, 51.46968
342.1164, 51.12311
342.5985, 51.05855
343.0807, 51.30626
343.5628, 51.55513
344.0449, 51.73561
344.5270, 51.85285
345.0091, 51.93056
345.4912, 51.96603
345.9734, 51.98670
346.4555, 52.03347
346.9376, 52.09691
347.4197, 52.08807
347.9018, 51.96409
348.3839, 51.79709
348.8661, 51.70472
349.3482, 51.68633
349.8303, 51.72940
350.3124, 51.87776
350.7945, 52.08069
351.2766, 52.18552
351.7588, 52.15648
352.2409, 52.12040
352.7230, 52.27459
353.2051, 52.55265
353.6872, 52.76115
354.1693, 52.81800
354.6515, 52.74635
355.1336, 52.50180
355.6157, 52.07649
356.0978, 51.74198
356.5799, 51.83219
357.0620, 52.12097
357.5442, 52.26913
358.0263, 52.05849
358.5084, 51.76348
358.9905, 51.52652
359.4726, 51.35965
359.9547, 51.31767
360.4369, 51.65831
360.9190, 52.01342
361.4011, 52.04468
361.8832, 51.51061
362.3653, 50.97470
362.8474, 50.61834
363.3296, 50.43889
363.8117, 50.43116
364.2938, 50.74915
364.7759, 51.11234
365.2580, 51.40149
365.7401, 51.60146
366.2223, 51.74017
366.7044, 51.68167
367.1865, 51.61692
367.6686, 51.76065
368.1507, 52.51806
368.6328, 53.09483
369.1150, 53.21531
369.5971, 52.86845
370.0792, 52.74866
370.5613, 53.15954
371.0434, 53.58276
371.5255, 53.68935
372.0077, 53.11273
372.4898, 52.78528
372.9719, 52.77208
373.4540, 53.03105
373.9361, 53.45110
374.4182, 54.10673
374.9004, 54.79466
375.3825, 55.46847
375.8646, 56.17653
376.3467, 56.60065
376.8288, 56.61457
377.3109, 56.50576
377.7931, 56.69779
378.2752, 57.23937
378.7573, 57.87286
379.2394, 58.58367
379.7215, 59.33480
380.2036, 59.84598
380.6858, 60.05242
381.1679, 60.28335
381.6500, 60.84637
382.1321, 61.72569
382.6142, 62.67561
383.0963, 63.70377
383.5785, 64.71896
384.0606, 65.50512
384.5427, 66.07397
385.0248, 66.71725
385.5069, 67.72009
385.9890, 68.91724
386.4712, 69.88862
386.9533, 70.58176
387.4354, 71.15662
387.9175, 71.54745
388.3996, 71.92712
388.8817, 72.69775
389.3639, 74.44102
389.8460, 76.39736
390.3281, 77.73154
390.8102, 78.48002
391.2923, 79.28500
391.7744, 80.78343
392.2566, 82.47014
392.7387, 83.79200
393.2208, 84.30295
393.7029, 84.87772
394.1850, 86.10538
394.6671, 87.76051
395.1493, 89.25850
395.6314, 90.16660
396.1135, 91.02436
396.5956, 92.15324
397.0777, 93.69070
397.5598, 95.13769
398.0419, 96.29378
398.5240, 97.33357
399.0062, 98.45772
399.4883, 99.86801
399.9704, 101.1843
400.4525, 102.2436
400.9346, 103.0608
401.4167, 104.0256
401.8989, 105.1204
402.3810, 106.3766
402.8631, 107.8619
403.3452, 109.9292
403.8273, 111.5025
404.3094, 112.2925
404.7916, 112.6636
405.2737, 113.4686
405.7558, 114.8657
406.2379, 116.3158
406.7200, 117.6554
407.2021, 118.8860
407.6843, 119.9341
408.1664, 120.7020
408.6485, 121.5170
409.1306, 122.8644
409.6127, 124.7528
410.0948, 126.3555
410.5770, 127.4047
411.0591, 128.0982
411.5412, 128.9096
412.0233, 129.8443
412.5054, 130.7972
412.9875, 131.8802
413.4697, 132.9251
413.9518, 133.3379
414.4339, 132.9059
414.9160, 132.4265
415.3981, 132.9167
415.8802, 134.0688
416.3624, 135.1268
416.8445, 135.8381
417.3266, 136.2276
417.8087, 136.1764
418.2908, 135.7146
418.7729, 135.3509
419.2551, 135.4565
419.7372, 135.7961
420.2193, 136.1894
420.7014, 136.9596
421.1835, 137.2104
421.6656, 136.0347
422.1478, 134.0325
422.6299, 132.6220
423.1120, 133.0761
423.5941, 133.5145
424.0762, 133.0110
424.5583, 131.2251
425.0405, 129.6830
425.5226, 128.8148
426.0047, 128.1441
426.4868, 127.2199
426.9689, 125.9202
427.4510, 124.5121
427.9332, 122.9065
428.4153, 121.1951
428.8974, 119.9566
429.3795, 119.5472
429.8616, 119.0633
430.3438, 117.9539
430.8259, 115.9656
431.3080, 114.3926
431.7901, 113.4094
432.2722, 112.6166
432.7543, 111.3178
433.2365, 109.4656
433.7186, 107.6383
434.2007, 105.9644
434.6828, 104.4681
435.1649, 103.3041
435.6470, 102.4851
436.1292, 101.7523
436.6113, 100.8232
437.0934, 99.79957
437.5755, 99.05895
438.0576, 98.75774
438.5397, 98.49866
439.0219, 97.68659
439.5040, 96.49161
439.9861, 95.44059
440.4682, 94.91686
440.9503, 94.57847
441.4324, 94.05269
441.9146, 93.32887
442.3967, 92.71995
442.8788, 92.57376
443.3609, 92.56868
443.8430, 92.37284
444.3251, 91.72176
444.8073, 91.10341
445.2894, 90.62642
445.7715, 90.30608
446.2536, 90.18221
446.7357, 90.68839
447.2178, 91.02140
447.7000, 90.73312
448.1821, 89.51723
448.6642, 88.80177
449.1463, 89.20131
449.6284, 89.74385
450.1105, 89.47807
450.5927, 87.64860
451.0747, 86.38771
451.5569, 86.14661
452.0390, 86.65532
452.5211, 86.77448
453.0032, 86.32887
453.4853, 85.96886
453.9674, 86.16618
454.4496, 86.97997
454.9317, 87.22539
455.4138, 86.75989
455.8959, 86.11606
456.3780, 86.00869
456.8601, 86.37913
457.3423, 86.70463
457.8244, 86.84525
458.3065, 86.83129
458.7886, 86.65076
459.2707, 86.32282
459.7528, 86.03912
460.2350, 85.80740
460.7171, 85.73459
461.1992, 86.06237
461.6813, 86.89843
462.1634, 87.70165
462.6455, 88.05798
463.1277, 88.11934
463.6098, 88.12312
464.0919, 88.10681
464.5740, 88.10237
465.0561, 88.17418
465.5382, 88.29469
466.0204, 88.29753
466.5025, 88.00735
466.9846, 87.67651
467.4667, 87.44080
467.9488, 87.30979
468.4309, 87.27966
468.9131, 87.43979
469.3952, 87.66698
469.8773, 87.81154
470.3594, 87.91997
470.8415, 87.86752
471.3236, 87.56675
471.8058, 87.06014
472.2879, 86.70222
472.7700, 86.53642
473.2521, 86.41610
473.7342, 86.24606
474.2163, 86.02187
474.6985, 85.85091
475.1806, 85.76130
475.6627, 85.67017
476.1448, 85.43196
476.6269, 85.06410
477.1090, 84.71304
477.5912, 84.42184
478.0733, 84.18563
478.5554, 84.04479
479.0375, 83.98197
479.5196, 83.84573
480.0017, 83.47850
480.4839, 82.99418
480.9660, 82.53005
481.4481, 82.10538
481.9302, 81.70995
482.4123, 81.39124
482.8944, 81.08467
483.3766, 80.69511
483.8587, 79.98665
484.3408, 79.38338
484.8229, 79.18433
485.3050, 79.32069
485.7871, 79.20257
486.2693, 78.60767
486.7514, 77.81080
487.2335, 76.90248
487.7156, 75.63533
488.1977, 74.82410
488.6798, 74.74870
489.1620, 74.93465
489.6441, 74.77357
490.1262, 74.20039
490.6083, 73.41489
491.0904, 72.32464
491.5725, 71.07722
492.0547, 70.40514
492.5368, 70.40359
493.0189, 70.47901
493.5010, 70.26739
493.9831, 69.80370
494.4652, 69.32509
494.9474, 68.86178
495.4295, 68.30186
495.9116, 67.36109
496.3937, 66.20197
496.8758, 65.31367
497.3579, 64.91008
497.8401, 64.77078
498.3222, 64.75005
498.8043, 64.81040
499.2864, 64.81341
499.7685, 64.69986
500.2506, 64.48731
500.7328, 64.17417
501.2149, 63.75129
501.6970, 63.29435
502.1791, 62.70878
502.6612, 62.16295
503.1433, 61.81612
503.6255, 61.87842
504.1076, 61.92496
504.5897, 61.85271
505.0718, 61.72736
505.5539, 61.75304
506.0360, 62.05790
506.5181, 62.32757
507.0002, 62.46188
507.4824, 62.46117
507.9645, 62.33317
508.4466, 62.03265
508.9287, 61.71348
509.4108, 61.54582
509.8929, 61.52752
510.3751, 61.43662
510.8572, 61.22844
511.3393, 60.95173
511.8214, 60.72845
512.3035, 60.52620
512.7856, 60.17588
513.2678, 59.51412
513.7499, 58.69331
514.2320, 57.87538
514.7141, 57.07518
515.1962, 56.36432
515.6783, 55.96642
516.1605, 55.59155
516.6426, 54.89734
517.1247, 53.61850
517.6068, 52.54503
518.0889, 52.18367
518.5710, 52.17107
519.0532, 51.98911
519.5353, 51.21283
520.0174, 50.59910
520.4995, 50.41788
520.9816, 50.60499
521.4637, 50.63742
521.9459, 50.33010
522.4280, 50.11147
522.9101, 50.22327
523.3922, 50.75962
523.8743, 51.15009
524.3564, 51.33137
524.8386, 51.49710
525.3207, 51.85615
525.8028, 52.40498
526.2849, 53.15684
526.7670, 54.13763
527.2491, 55.28176
527.7313, 56.47162
528.2134, 57.70595
528.6955, 58.95519
529.1776, 60.13827
529.6597, 61.34344
530.1418, 62.61876
530.6240, 63.94953
531.1061, 65.58312
531.5882, 67.93111
532.0703, 70.51120
532.5524, 72.83717
533.0345, 74.55518
533.5167, 76.40747
533.9988, 78.66591
534.4809, 81.19646
534.9630, 83.76035
535.4451, 86.38412
535.9272, 88.99931
536.4094, 91.65292
536.8915, 94.32211
537.3736, 96.84895
537.8557, 99.29414
538.3378, 101.5417
538.8199, 103.5226
539.3021, 105.2212
539.7842, 106.7587
540.2663, 108.1406
540.7484, 109.3891
541.2305, 110.5469
541.7126, 111.6160
542.1948, 112.5040
542.6769, 113.0938
543.1590, 113.6225
543.6411, 114.4293
544.1232, 115.4739
544.6053, 116.5986
545.0875, 117.7543
545.5696, 118.9464
546.0517, 120.2996
546.5338, 121.8090
547.0159, 122.9593
547.4980, 123.4920
547.9802, 123.5895
548.4623, 123.3798
548.9444, 122.7896
549.4265, 122.0637
549.9086, 121.0049
550.3907, 119.9060
550.8729, 119.2165
551.3550, 119.4293
551.8371, 119.1812
552.3192, 117.9547
552.8013, 116.0309
553.2834, 114.9927
553.7656, 115.0260
554.2477, 115.2529
554.7298, 115.2188
555.2119, 114.9474
555.6940, 114.7235
556.1761, 114.5665
556.6583, 114.3050
557.1404, 113.7030
557.6225, 112.8665
558.1046, 112.0689
558.5867, 111.4017
559.0688, 110.7107
559.5510, 109.8484
560.0331, 108.8665
560.5152, 107.8481
560.9973, 106.6996
561.4794, 105.6402
561.9615, 104.8512
562.4437, 104.3031
562.9258, 103.6686
563.4079, 102.7355
563.8900, 101.8224
564.3721, 101.0492
564.8542, 100.3441
565.3364, 100.0161
565.8185, 100.1844
566.3006, 100.5900
566.7827, 101.0039
567.2648, 101.4319
567.7469, 101.8049
568.2291, 102.0971
568.7112, 102.3543
569.1933, 102.6133
569.6754, 102.8911
570.1575, 103.3656
570.6396, 104.1997
571.1218, 105.2381
571.6039, 106.2369
572.0860, 107.1970
572.5681, 108.1942
573.0502, 109.1222
573.5323, 110.1843
574.0145, 111.7077
574.4966, 113.8642
574.9787, 115.7515
575.4608, 116.6407
575.9429, 117.2571
576.4250, 118.2969
576.9072, 120.6054
577.3893, 122.4092
577.8714, 123.5035
578.3535, 124.0227
578.8356, 124.2116
579.3177, 124.0273
579.7999, 123.6325
580.2820, 123.1293
580.7641, 122.4677
581.2462, 121.2218
581.7283, 119.3528
582.2104, 117.3009
582.6926, 115.4360
583.1747, 113.6370
583.6568, 111.4324
584.1389, 108.7202
584.6210, 106.1258
585.1031, 104.2014
585.5853, 102.7867
586.0674, 101.7128
586.5495, 101.1877
587.0316, 100.5608
587.5137, 99.53622
587.9958, 98.17142
588.4779, 96.57333
588.9600, 94.23223
589.4421, 92.22086
589.9243, 90.98320
590.4064, 90.41769
590.8885, 89.64938
591.3706, 88.60113
591.8527, 87.46955
592.3348, 86.26744
592.8170, 84.94773
593.2991, 84.08615
593.7812, 83.74007
594.2633, 83.61140
594.7454, 83.45555
595.2275, 83.26916
595.7097, 83.03202
596.1918, 82.73111
596.6739, 82.40617
597.1560, 82.02327
597.6381, 81.65646
598.1202, 81.47192
598.6024, 81.61112
599.0845, 81.88248
599.5666, 82.36068
600.0487, 82.92422
600.5308, 83.10579
601.0129, 82.28039
601.4951, 81.48618
601.9772, 81.26942
602.4593, 81.73491
602.9414, 81.81475
603.4235, 81.36796
603.9056, 80.71545
604.3878, 79.94079
604.8699, 78.94582
605.3520, 78.63073
605.8341, 79.19762
606.3162, 80.03831
606.7983, 80.37560
607.2805, 80.27092
607.7626, 80.06717
608.2447, 79.78460
608.7268, 79.56326
609.2089, 79.61502
609.6910, 79.87100
610.1732, 80.14451
610.6553, 80.44857
611.1374, 80.64799
611.6195, 80.60226
612.1016, 80.33434
612.5837, 80.08617
613.0659, 79.98914
613.5480, 79.87379
614.0301, 79.67274
614.5122, 79.40750
614.9943, 78.97293
615.4764, 78.34684
615.9586, 77.58569
616.4407, 76.73347
616.9228, 75.80914
617.4049, 74.66283
617.8870, 73.15943
618.3691, 71.68973
618.8513, 70.94240
619.3334, 70.78548
619.8155, 70.60023
620.2976, 70.14090
620.7797, 69.60256
621.2618, 69.21850
621.7440, 68.94627
622.2261, 68.65369
622.7082, 68.07219
623.1903, 67.62988
623.6724, 67.64388
624.1545, 68.11959
624.6367, 68.56169
625.1188, 68.86207
625.6009, 69.12160
626.0830, 69.36594
626.5651, 69.54992
627.0472, 69.89042
627.5294, 70.40105
628.0115, 71.04575
628.4936, 71.84428
628.9757, 72.80592
629.4578, 73.55016
629.9399, 73.93749
630.4221, 74.34827
630.9042, 75.56934
631.3863, 77.30630
631.8684, 78.60586
632.3505, 78.81915
632.8326, 78.79061
633.3148, 79.38158
633.7969, 80.34303
634.2790, 80.93026
634.7611, 80.42723
635.2432, 79.89069
635.7253, 79.88772
636.2075, 80.45490
636.6896, 80.63541
637.1717, 80.27592
637.6538, 79.68951
638.1359, 79.02624
638.6180, 78.30933
639.1002, 77.40413
639.5823, 76.30083
640.0644, 75.02356
640.5465, 73.50474
641.0286, 71.79816
641.5107, 70.21886
641.9929, 68.82918
642.4750, 67.57331
642.9571, 66.50323
643.4392, 65.52642
643.9213, 64.45191
644.4034, 63.12117
644.8856, 61.79552
645.3677, 60.63640
645.8498, 59.58796
646.3319, 58.54856
646.8140, 57.40527
647.2961, 56.35712
647.7783, 55.55248
648.2604, 54.93364
648.7425, 53.96685
649.2246, 52.54852
649.7067, 51.04171
650.1888, 49.57052
650.6710, 48.15233
651.1531, 46.85454
651.6352, 45.69695
652.1173, 44.63464
652.5994, 43.57502
653.0815, 42.59052
653.5637, 41.90175
654.0458, 41.59343
654.5279, 41.16250
655.0100, 40.05494
655.4921, 38.70038
655.9742, 37.58065
656.4564, 36.87269
656.9385, 36.32918
657.4206, 36.00621
657.9027, 35.78698
658.3848, 35.47865
658.8669, 34.99191
659.3491, 34.59311
659.8312, 34.35500
660.3133, 34.21803
660.7954, 34.01304
661.2775, 33.73933
661.7596, 33.41008
662.2418, 32.96580
662.7239, 32.49787
663.2060, 32.25117
663.6881, 32.19833
664.1702, 32.16137
664.6523, 32.04409
665.1345, 31.87985
665.6166, 31.70150
666.0987, 31.51353
666.5808, 31.28067
667.0629, 30.81454
667.5450, 30.42645
668.0272, 30.38043
668.5093, 30.92696
668.9914, 31.16330
669.4735, 31.01522
669.9556, 30.64752
670.4377, 30.14867
670.9199, 29.49923
671.4020, 29.09587
671.8841, 29.03434
672.3662, 29.11896
672.8483, 29.09186
673.3304, 28.97409
673.8126, 28.82618
674.2947, 28.64419
674.7768, 28.47345
675.2589, 28.31062
675.7410, 28.18503
676.2231, 28.16439
676.7053, 28.53650
677.1874, 28.74901
677.6695, 28.46318
678.1516, 27.77062
678.6337, 27.39608
679.1158, 27.48569
679.5980, 27.64329
680.0801, 27.75019
680.5622, 27.80092
681.0443, 27.66110
681.5264, 27.30260
682.0085, 27.02812
682.4907, 27.17684
682.9728, 27.55705
683.4549, 27.73607
683.9370, 27.68160
684.4191, 27.52559
684.9012, 27.25686
685.3834, 26.99472
685.8655, 26.87550
686.3476, 26.98130
686.8297, 27.07983
687.3118, 27.15882
687.7939, 27.17673
688.2761, 27.07770
688.7582, 26.73219
689.2403, 26.56550
689.7224, 26.67721
690.2045, 26.89916
690.6866, 26.91767
691.1688, 26.73704
691.6509, 26.70421
692.1330, 26.98103
692.6151, 27.33057
693.0972, 27.34826
693.5793, 27.12712
694.0615, 26.94091
694.5436, 26.91317
695.0257, 26.96027
695.5078, 27.08617
695.9899, 27.25681
696.4720, 27.33827
696.9542, 27.23930
697.4363, 27.10450
697.9183, 26.95553
698.4005, 26.79722
698.8826, 26.74914
699.3647, 26.84983
699.8468, 26.94941
700.3289, 26.91814
700.8110, 26.79132
701.2932, 26.90772
701.7753, 27.27251
702.2574, 27.51508
702.7395, 27.15688
703.2216, 26.57400
703.7037, 26.27175
704.1859, 26.33156
704.6680, 26.49825
705.1501, 26.79651
705.6322, 27.05419
706.1143, 27.11249
706.5964, 26.70141
707.0786, 26.56150
707.5607, 26.85433
708.0428, 27.26934
708.5249, 27.46466
709.0070, 27.41578
709.4891, 27.30750
709.9713, 27.14789
710.4534, 26.97656
710.9355, 26.81218
711.4176, 26.67966
711.8997, 26.68549
712.3818, 26.97378
712.8640, 27.22596
713.3461, 27.02754
713.8282, 26.61516
714.3103, 26.43032
714.7924, 26.91622
715.2745, 27.32004
715.7567, 27.35162
716.2388, 27.14279
716.7209, 27.10798
717.2030, 27.38244
717.6851, 27.48552
718.1672, 27.17218
718.6494, 26.60718
719.1315, 26.42619
719.6136, 26.62147
720.0957, 26.95160
720.5778, 27.43004
721.0599, 27.87425
721.5421, 27.95361
722.0242, 27.71080
722.5063, 27.47617
722.9884, 27.43686
723.4705, 27.44880
723.9526, 27.41396
724.4348, 27.31171
724.9169, 27.30037
725.3990, 27.47369
725.8811, 27.62637
726.3632, 27.65305
726.8453, 27.55188
727.3275, 27.30459
727.8096, 26.86765
728.2917, 26.51562
728.7738, 26.58533
729.2559, 26.92204
729.7380, 27.13333
730.2202, 27.16538
730.7023, 27.16237
731.1844, 27.19356
731.6665, 27.26468
732.1486, 27.40914
732.6307, 27.76444
733.1129, 27.89876
733.5950, 27.45210
734.0771, 26.92483
734.5592, 26.80410
735.0413, 27.25753
735.5234, 27.56116
736.0056, 27.62132
736.4877, 27.57599
736.9698, 27.66726
737.4519, 27.84689
737.9340, 27.83670
738.4161, 27.48213
738.8983, 27.12626
739.3804, 27.16665
739.8625, 27.44100
740.3446, 27.67476
740.8267, 27.72682
741.3088, 27.77786
741.7910, 27.93070
742.2731, 28.11055
742.7552, 28.13935
743.2373, 27.90655
743.7194, 27.77173
744.2015, 27.85730
744.6837, 28.04897
745.1658, 28.03066
745.6479, 27.81166
746.1300, 27.57204
746.6121, 27.31771
747.0942, 27.14746
747.5764, 27.27829
748.0585, 27.61910
748.5406, 27.89560
749.0227, 28.01786
749.5048, 28.01117
749.9869, 27.76160
750.4691, 27.33503
750.9512, 27.22174
751.4333, 27.70324
751.9154, 28.05097
752.3975, 27.94021
752.8796, 27.47723
753.3618, 27.37582
753.8439, 27.64967
754.3260, 27.95324
754.8081, 28.13095
755.2902, 28.17689
755.7723, 27.98039
756.2545, 27.58677
756.7366, 27.34040
757.2187, 27.49858
757.7008, 27.80783
758.1829, 28.20731
758.6650, 28.70982
759.1472, 28.86562
759.6293, 28.34072
760.1114, 27.90737
760.5935, 28.05023
761.0756, 28.77845
761.5577, 28.96241
762.0399, 28.53965
762.5220, 28.06510
763.0041, 27.99083
763.4862, 28.16297
763.9683, 28.28440
764.4504, 28.33539
764.9326, 28.38552
765.4147, 28.42942
765.8968, 28.52430
766.3789, 28.76141
766.8610, 29.23785
767.3431, 29.48064
767.8253, 29.38908
768.3074, 29.15761
768.7895, 28.85976
769.2716, 28.46220
769.7537, 28.34894
770.2358, 28.56515
770.7180, 28.84411
771.2001, 28.90458
771.6822, 28.84182
772.1643, 28.83523
772.6464, 28.90703
773.1285, 29.04967
773.6107, 29.34714
774.0928, 29.66131
774.5749, 29.86740
775.0570, 29.93689
775.5391, 29.90552
776.0212, 29.67222
776.5034, 29.45321
776.9855, 29.47852
777.4676, 29.77753
777.9497, 29.97651
778.4318, 30.04667
778.9139, 30.01797
779.3961, 29.84089
779.8782, 29.60486
780.3603, 29.52046
780.8424, 29.68006
781.3245, 29.78663
781.8066, 29.52625
782.2888, 29.19529
782.7709, 29.09167
783.2530, 29.48469
783.7351, 29.74781
784.2172, 29.80078
784.6993, 29.81199
785.1815, 29.99413
785.6636, 30.35731
786.1457, 30.64120
786.6278, 30.82391
787.1099, 30.89102
787.5920, 30.74253
788.0742, 30.48808
788.5563, 30.34011
789.0384, 30.40158
789.5205, 30.43906
790.0026, 30.18440
790.4847, 29.91336
790.9669, 29.95556
791.4490, 30.68501
791.9311, 31.09296
792.4132, 31.02024
792.8953, 30.79000
793.3774, 30.89047
793.8596, 31.29205
794.3417, 31.38727
794.8238, 30.99844
795.3059, 30.58228
795.7880, 30.67531
796.2701, 31.07688
796.7523, 31.48593
797.2344, 31.85345
797.7165, 32.13313
798.1986, 32.29419
798.6807, 32.36449
799.1628, 32.38232
799.6450, 32.33778
800.1271, 32.27016
800.6092, 32.18679
801.0913, 32.07297
801.5734, 31.79937
802.0555, 31.43912
802.5377, 31.48829
803.0198, 32.14546
803.5019, 32.84415
803.9840, 32.95857
804.4661, 32.79727
804.9482, 32.78775
805.4304, 33.16624
805.9125, 33.48468
806.3946, 33.60231
806.8767, 33.63800
807.3588, 33.69481
807.8409, 33.75951
808.3230, 33.90446
808.8051, 34.15041
809.2872, 34.44023
809.7693, 34.75035
810.2515, 35.04604
810.7336, 35.20701
811.2157, 35.17433
811.6978, 35.12601
812.1799, 35.14255
812.6620, 35.23871
813.1442, 35.44069
813.6263, 35.94030
814.1084, 36.22251
814.5905, 36.14658
815.0726, 35.97115
815.5547, 35.99726
816.0369, 36.24517
816.5190, 36.33455
817.0011, 36.19139
817.4832, 36.06797
817.9653, 36.29657
818.4474, 36.73456
818.9296, 37.13919
819.4117, 37.47321
819.8938, 37.73435
820.3759, 37.87550
820.8580, 37.96610
821.3401, 38.05849
821.8223, 38.06288
822.3044, 38.30308
822.7865, 38.86388
823.2686, 39.50233
823.7507, 40.00969
824.2328, 40.38018
824.7150, 40.53431
825.1971, 40.44065
825.6792, 40.36611
826.1613, 40.48513
826.6434, 40.78566
827.1255, 41.32143
827.6077, 42.20424
828.0898, 42.88924
828.5719, 43.06378
829.0540, 43.14508
829.5361, 43.41077
830.0182, 43.93937
830.5004, 44.21049
830.9825, 44.17886
831.4646, 44.10863
831.9467, 44.23880
832.4288, 44.50581
832.9109, 44.71735
833.3931, 44.85607
833.8752, 45.20983
834.3573, 46.27581
834.8394, 47.38228
835.3215, 48.00773
835.8036, 47.98037
836.2858, 48.08046
836.7679, 48.35710
837.2500, 48.68124
837.7321, 49.02401
838.2142, 49.36833
838.6964, 49.48990
839.1785, 49.38867
839.6606, 49.27125
840.1427, 49.16928
840.6248, 49.20381
841.1069, 49.58080
841.5891, 50.28359
842.0712, 50.92677
842.5533, 51.29683
843.0354, 51.67530
843.5175, 52.26356
843.9996, 53.01884
844.4818, 53.25330
844.9639, 52.85854
845.4460, 52.60227
845.9281, 53.00931
846.4102, 53.78007
846.8923, 54.26212
847.3745, 54.50925
847.8566, 54.74597
848.3387, 55.15234
848.8208, 55.52281
849.3029, 55.75793
849.7850, 55.86018
850.2672, 55.86381
850.7493, 55.66706
851.2314, 55.59684
851.7135, 55.77372
852.1956, 56.11626
852.6777, 56.40208
853.1599, 56.63800
853.6420, 56.85525
854.1241, 56.99017
854.6062, 57.20281
855.0883, 57.81207
855.5704, 58.58531
856.0526, 59.04256
856.5347, 58.63312
857.0168, 58.42987
857.4989, 58.69868
857.9810, 59.20600
858.4631, 59.50651
858.9453, 59.59246
859.4274, 59.64502
859.9095, 59.67654
860.3916, 59.76182
860.8737, 60.10936
861.3558, 60.56062
861.8380, 60.80614
862.3201, 60.64567
862.8022, 60.48751
863.2843, 60.48760
863.7664, 60.56656
864.2485, 60.62589
864.7307, 60.63865
865.2128, 60.72253
865.6949, 60.90443
866.1770, 61.10204
866.6591, 61.33378
867.1412, 61.50489
867.6234, 61.25763
868.1055, 60.49362
868.5876, 59.78988
869.0697, 59.52008
869.5518, 59.48988
870.0339, 59.60073
870.5161, 59.97789
870.9982, 59.92866
871.4803, 59.27702
871.9624, 58.50380
872.4445, 57.90763
872.9266, 57.47864
873.4088, 57.17199
873.8909, 56.98217
874.3730, 56.72553
874.8551, 56.18582
875.3372, 55.57867
875.8193, 55.06745
876.3015, 54.66786
876.7836, 54.38218
877.2657, 54.15538
877.7478, 54.13586
878.2299, 54.49796
878.7120, 55.12219
879.1942, 55.17434
879.6763, 54.63704
880.1584, 54.22245
880.6405, 54.24468
881.1226, 54.60624
881.6047, 55.32996
882.0869, 56.29342
882.5690, 57.16700
883.0511, 57.80692
883.5332, 58.35264
884.0153, 58.67204
884.4974, 58.98371
884.9796, 59.70609
885.4617, 60.86641
885.9438, 62.33844
886.4259, 64.14688
886.9080, 66.15144
887.3901, 68.19910
887.8723, 70.28523
888.3544, 72.35108
888.8365, 74.34110
889.3186, 76.44820
889.8007, 78.69335
890.2828, 81.16193
890.7650, 83.95839
891.2471, 87.23192
891.7292, 90.43054
892.2113, 93.50056
892.6934, 96.60356
893.1755, 99.73196
893.6577, 103.0006
894.1398, 106.7173
894.6219, 110.8837
895.1040, 115.3812
895.5861, 120.3297
896.0682, 125.4112
896.5504, 130.5346
897.0325, 135.6564
897.5146, 140.7661
897.9967, 145.9404
898.4788, 150.9631
898.9609, 155.8906
899.4431, 160.5963
899.9252, 164.8023
900.4073, 168.4404
900.8894, 171.1801
901.3715, 172.9345
901.8536, 173.5779
902.3358, 172.8781
902.8179, 170.9526
903.3000, 168.2201
903.7821, 164.9993
904.2642, 160.5869
904.7463, 154.5047
905.2285, 147.5691
905.7106, 141.5170
906.1927, 136.2094
906.6748, 130.5272
907.1569, 123.9404
907.6390, 117.3498
908.1212, 111.4242
908.6033, 106.0010
909.0854, 100.9484
909.5675, 95.99690
910.0496, 91.85152
910.5317, 88.58913
911.0139, 86.03487
911.4960, 84.19563
911.9781, 83.00845
912.4602, 81.68487
912.9423, 80.15829
913.4244, 78.68934
913.9066, 77.38216
914.3887, 76.29304
914.8708, 75.50919
915.3529, 75.04275
915.8350, 74.72607
916.3171, 74.59156
916.7993, 74.51038
917.2813, 74.39893
917.7634, 74.28946
918.2455, 74.47086
918.7277, 74.92352
919.2098, 75.30937
919.6919, 75.27589
920.1740, 75.21827
920.6561, 75.55795
921.1382, 76.18739
921.6204, 76.81875
922.1025, 77.24566
922.5846, 77.84618
923.0667, 78.76745
923.5488, 79.81579
924.0309, 80.53663
924.5131, 80.96196
924.9952, 81.72813
925.4773, 82.99583
925.9594, 84.55596
926.4415, 86.30666
926.9236, 88.18636
927.4058, 90.12983
927.8879, 92.06975
928.3700, 94.23921
928.8521, 96.71384
929.3342, 99.32720
929.8163, 101.8557
930.2985, 104.2966
930.7806, 107.4106
931.2627, 111.2222
931.7448, 114.9793
932.2269, 117.7307
932.7090, 120.4834
933.1912, 124.4833
933.6733, 129.5748
934.1554, 134.4899
934.6375, 138.6895
935.1196, 143.0064
935.6017, 147.6020
936.0839, 152.5180
936.5660, 158.0848
937.0481, 164.2879
937.5302, 170.7878
938.0123, 177.5578
938.4944, 184.6287
938.9766, 192.3682
939.4587, 200.4164
939.9408, 208.2424
940.4229, 215.0132
940.9050, 222.8362
941.3871, 232.1609
941.8693, 241.8824
942.3514, 250.7176
942.8335, 258.7053
943.3156, 266.4081
943.7977, 273.8087
944.2798, 281.5474
944.7620, 290.9755
945.2441, 300.2849
945.7262, 307.5908
946.2083, 312.6581
946.6904, 317.5807
947.1725, 322.5881
947.6547, 327.3941
948.1368, 331.8672
948.6189, 336.0038
949.1010, 339.8688
949.5831, 343.4927
950.0652, 347.0636
950.5474, 350.8363
951.0295, 354.3948
951.5116, 357.2451
951.9937, 359.7363
952.4758, 362.4846
952.9579, 365.5751
953.4401, 368.8905
953.9222, 372.4183
954.4043, 376.1777
954.8864, 380.5335
955.3685, 385.1755
955.8506, 388.7287
956.3328, 390.9651
956.8149, 393.2375
957.2970, 396.0650
957.7791, 399.5630
958.2612, 404.0219
958.7433, 409.4802
959.2255, 414.6744
959.7076, 419.3545
960.1897, 424.5909
960.6718, 431.0410
961.1539, 438.3874
961.6360, 446.5030
962.1182, 455.0565
962.6003, 462.9110
963.0824, 469.4888
963.5645, 475.1655
964.0466, 479.4230
964.5287, 483.1422
965.0109, 487.9872
965.4930, 494.3890
965.9751, 500.0442
966.4572, 504.6542
966.9393, 508.7323
967.4214, 512.4182
967.9036, 516.0970
968.3857, 520.3591
968.8678, 525.3900
969.3499, 530.5344
969.8320, 535.4485
970.3141, 540.5895
970.7963, 546.3362
971.2784, 552.5621
971.7605, 558.7464
972.2426, 564.8473
972.7247, 570.6895
973.2068, 576.5015
973.6890, 581.6398
974.1711, 585.3004
974.6532, 587.5635
975.1353, 588.7620
975.6174, 589.1241
976.0995, 588.0644
976.5817, 585.3594
977.0638, 581.4413
977.5459, 576.7864
978.0280, 571.3923
978.5101, 565.3873
978.9922, 558.7538
979.4744, 552.6121
979.9565, 548.6397
980.4386, 545.2291
980.9207, 540.6497
981.4028, 534.4570
981.8849, 529.7816
982.3671, 527.2679
982.8492, 525.2367
983.3313, 523.0750
983.8134, 520.7597
984.2955, 517.5945
984.7776, 514.0589
985.2598, 512.1000
985.7419, 513.7318
986.2240, 515.9703
986.7061, 518.1520
987.1882, 519.7078
987.6703, 519.7184
988.1525, 517.6984
988.6346, 515.8740
989.1167, 514.4784
989.5988, 513.0845
990.0809, 511.3524
990.5630, 509.2710
991.0452, 506.7556
991.5273, 503.7961
992.0094, 500.6250
992.4915, 496.4625
992.9736, 493.0593
993.4557, 491.3810
993.9379, 491.0896
994.4200, 490.4525
994.9021, 489.4679
995.3842, 488.2943
995.8663, 486.6403
996.3484, 485.3768
996.8306, 485.8700
997.3127, 487.3060
997.7948, 488.3877
998.2769, 488.1454
998.7590, 488.5790
999.2411, 490.1343
999.7233, 491.7384
1000.205, 492.2373
1000.688, 491.8325
1001.170, 491.4698
1001.652, 491.2037
1002.134, 491.1968
1002.616, 492.3734
1003.098, 493.1047
1003.580, 492.2709
1004.062, 489.9297
1004.544, 487.1161
1005.027, 483.7420
1005.509, 480.1464
1005.991, 476.4984
1006.473, 472.4479
1006.955, 467.1699
1007.437, 461.0877
1007.919, 454.9526
1008.401, 449.3788
1008.883, 442.9931
1009.366, 434.9801
1009.848, 426.4128
1010.330, 417.8237
1010.812, 409.2504
1011.294, 400.6161
1011.776, 391.8192
1012.258, 383.1683
1012.740, 374.7604
1013.223, 366.5234
1013.705, 358.2559
1014.187, 350.1651
1014.669, 343.0029
1015.151, 337.0821
1015.633, 331.5164
1016.115, 326.2811
1016.597, 321.2695
1017.079, 316.1876
1017.562, 311.2016
1018.044, 307.1809
1018.526, 304.3801
1019.008, 301.4286
1019.490, 297.5826
1019.972, 293.2875
1020.454, 288.8105
1020.936, 284.1714
1021.419, 279.4131
1021.901, 274.5564
1022.383, 269.4160
1022.865, 263.8332
1023.347, 258.0141
1023.829, 252.0577
1024.311, 246.0329
1024.793, 240.0680
1025.275, 234.4880
1025.758, 228.5220
1026.240, 221.8659
1026.722, 215.1423
1027.204, 209.0299
1027.686, 203.4505
1028.168, 198.0768
1028.650, 192.9284
1029.132, 187.9325
1029.615, 183.2488
1030.097, 178.5022
1030.579, 173.2137
1031.061, 167.6332
1031.543, 162.9501
1032.025, 159.3915
1032.507, 155.7664
1032.989, 151.7692
1033.471, 147.7126
1033.953, 143.9066
1034.436, 140.4517
1034.918, 137.4621
1035.400, 135.1153
1035.882, 132.6381
1036.364, 129.4624
1036.846, 126.5280
1037.328, 124.3956
1037.810, 122.9533
1038.293, 121.2801
1038.775, 119.3980
1039.257, 117.6818
1039.739, 116.4445
1040.221, 115.3124
1040.703, 113.9865
1041.185, 112.5912
1041.667, 111.3519
1042.150, 110.2824
1042.632, 109.3610
1043.114, 108.6150
1043.596, 107.9273
1044.078, 107.1510
1044.560, 106.3568
1045.042, 105.6947
1045.524, 105.1689
1046.006, 104.5202
1046.489, 103.4352
1046.971, 102.4776
1047.453, 101.8947
1047.935, 101.5113
1048.417, 100.8045
1048.899, 99.81213
1049.381, 98.82319
1049.863, 97.85178
1050.345, 97.10269
1050.828, 97.03445
1051.310, 97.09248
1051.792, 96.60534
1052.274, 95.38288
1052.756, 94.77098
1053.238, 94.88487
1053.720, 95.07344
1054.202, 94.90593
1054.685, 94.59946
1055.167, 94.50652
1055.649, 94.57932
1056.131, 94.69151
1056.613, 94.69946
1057.095, 94.92250
1057.577, 95.63720
1058.059, 96.27287
1058.542, 95.96514
1059.024, 94.91347
1059.506, 94.52943
1059.988, 94.90733
1060.470, 95.23772
1060.952, 94.87490
1061.434, 94.38402
1061.916, 94.19482
1062.398, 94.19469
1062.880, 93.82716
1063.363, 92.99050
1063.845, 92.45632
1064.327, 92.49137
1064.809, 92.67293
1065.291, 92.47128
1065.773, 92.09048
1066.255, 91.85007
1066.737, 91.90667
1067.220, 91.62366
1067.702, 90.76941
1068.184, 89.92349
1068.666, 89.39466
1069.148, 89.09951
1069.630, 88.80730
1070.112, 88.51982
1070.594, 88.23309
1071.077, 87.96394
1071.559, 87.67661
1072.041, 87.27893
1072.523, 86.91026
1073.005, 86.73803
1073.487, 86.78822
1073.969, 86.73631
1074.451, 86.57211
1074.933, 86.31546
1075.416, 85.83419
1075.898, 85.39080
1076.380, 85.31261
1076.862, 85.49624
1077.344, 85.45555
1077.826, 85.02853
1078.308, 84.74651
1078.790, 84.73006
1079.272, 84.79278
1079.755, 84.70102
1080.237, 84.50778
1080.719, 84.31568
1081.201, 84.14452
1081.683, 83.88771
1082.165, 83.40364
1082.647, 82.94166
1083.129, 82.58110
1083.611, 82.30599
1084.094, 82.08083
1084.576, 81.89552
1085.058, 81.70985
1085.540, 81.56654
1086.022, 81.27780
1086.504, 80.48573
1086.986, 79.66684
1087.468, 79.30045
1087.951, 79.45632
1088.433, 79.41125
1088.915, 79.15703
1089.397, 78.82784
1089.879, 78.48493
1090.361, 78.13203
1090.843, 77.75061
1091.325, 77.36696
1091.807, 77.04195
1092.290, 76.82737
1092.772, 76.60350
1093.254, 76.39865
1093.736, 76.09059
1094.218, 75.42544
1094.700, 74.61360
1095.182, 74.16267
1095.664, 74.04304
1096.146, 73.78689
1096.629, 72.96601
1097.111, 72.30155
1097.593, 72.10883
1098.075, 72.05440
1098.557, 71.34328
1099.039, 70.14288
1099.521, 69.47126
1100.003, 69.56966
1100.486, 69.63406
1100.968, 68.97554
1101.450, 68.23367
1101.932, 67.88675
1102.414, 67.86668
1102.896, 67.66685
1103.378, 67.27656
1103.860, 67.02715
1104.343, 67.11732
1104.825, 67.21241
1105.307, 66.92467
1105.789, 66.46256
1106.271, 66.03307
1106.753, 65.56227
1107.235, 65.56993
1107.717, 66.15759
1108.199, 66.88056
1108.682, 67.63618
1109.164, 68.23434
1109.646, 68.19917
1110.128, 67.74660
1110.610, 67.39948
1111.092, 67.28197
1111.574, 67.39095
1112.056, 67.80704
1112.538, 68.28392
1113.021, 68.69261
1113.503, 68.96897
1113.985, 68.75938
1114.467, 68.12290
1114.949, 67.58914
1115.431, 67.40979
1115.913, 67.42986
1116.395, 67.71866
1116.878, 68.07571
1117.360, 68.23353
1117.842, 68.18587
1118.324, 67.70498
1118.806, 66.73006
1119.288, 65.96761
1119.770, 66.17907
1120.252, 66.60491
1120.734, 66.73750
1121.217, 66.59673
1121.699, 66.33658
1122.181, 65.92683
1122.663, 65.68683
1123.145, 65.74202
1123.627, 65.85363
1124.109, 65.72501
1124.591, 65.52506
1125.073, 65.48565
1125.556, 65.68736
1126.038, 65.61398
1126.520, 65.15835
1127.002, 64.76824
1127.484, 64.70078
1127.966, 64.70414
1128.448, 64.21535
1128.930, 63.50927
1129.413, 63.11697
1129.895, 63.37456
1130.377, 63.50527
1130.859, 63.44996
1131.341, 63.23527
1131.823, 62.78447
1132.305, 62.21285
1132.787, 61.86011
1133.270, 61.72293
1133.752, 61.78213
1134.234, 62.27123
1134.716, 62.63086
1135.198, 62.70237
1135.680, 62.61922
1136.162, 62.47716
1136.644, 62.28257
1137.126, 62.04036
1137.609, 61.76542
1138.091, 61.59180
1138.573, 61.64188
1139.055, 61.76503
1139.537, 61.97347
1140.019, 62.16562
1140.501, 62.10431
1140.983, 61.77776
1141.465, 61.85578
1141.948, 62.42081
1142.430, 62.92319
1142.912, 62.89616
1143.394, 62.65702
1143.876, 62.37703
1144.358, 62.08312
1144.840, 61.88934
1145.322, 61.84454
1145.805, 61.49355
1146.287, 60.68486
1146.769, 59.88677
1147.251, 59.66165
1147.733, 59.67084
1148.215, 59.63256
1148.697, 59.50748
1149.179, 59.12759
1149.661, 58.43556
1150.144, 57.68025
1150.626, 56.88311
1151.108, 56.19012
1151.590, 55.88203
1152.072, 55.79900
1152.554, 55.74963
1153.036, 55.74890
1153.518, 55.47702
1154.000, 54.81037
1154.483, 54.15228
1154.965, 53.68587
1155.447, 53.34362
1155.929, 53.02660
1156.411, 52.73249
1156.893, 52.46181
1157.375, 52.22951
1157.857, 51.98515
1158.340, 51.71418
1158.822, 51.44706
1159.304, 51.21407
1159.786, 50.99672
1160.268, 50.73000
1160.750, 50.42142
1161.232, 50.09607
1161.714, 49.90041
1162.197, 49.46619
1162.679, 48.45592
1163.161, 47.51839
1163.643, 47.37672
1164.125, 47.83038
1164.607, 47.69132
1165.089, 47.03357
1165.571, 46.39484
1166.053, 46.13666
1166.536, 45.84005
1167.018, 45.32554
1167.500, 44.73398
1167.982, 44.19850
1168.464, 43.71949
1168.946, 43.30770
1169.428, 42.96454
1169.910, 42.65067
1170.392, 42.35918
1170.875, 42.07700
1171.357, 41.75298
1171.839, 41.46202
1172.321, 41.37886
1172.803, 41.49327
1173.285, 41.44140
1173.767, 41.17826
1174.249, 40.95543
1174.732, 41.12314
1175.214, 41.22778
1175.696, 40.84635
1176.178, 40.19601
1176.660, 39.83745
1177.142, 39.77854
1177.624, 39.76830
1178.106, 39.77670
1178.589, 39.72064
1179.071, 39.28950
1179.553, 38.97056
1180.035, 39.36526
1180.517, 40.25977
1180.999, 40.52894
1181.481, 40.12976
1181.963, 39.61186
1182.445, 39.04869
1182.927, 38.63522
1183.410, 38.65469
1183.892, 38.83881
1184.374, 38.98444
1184.856, 39.06965
1185.338, 38.96074
1185.820, 38.63222
1186.302, 38.35551
1186.784, 38.21108
1187.267, 38.17303
1187.749, 38.34654
1188.231, 38.53055
1188.713, 38.44756
1189.195, 38.05384
1189.677, 37.81608
1190.159, 37.74617
1190.641, 37.75290
1191.124, 37.85199
1191.606, 37.90715
1192.088, 37.69265
1192.570, 37.37247
1193.052, 37.16964
1193.534, 37.14281
1194.016, 37.04097
1194.498, 36.85789
1194.980, 36.63670
1195.463, 36.36759
1195.945, 36.11546
1196.427, 35.96486
1196.909, 35.87880
1197.391, 35.79771
1197.873, 35.70395
1198.355, 35.67184
1198.837, 35.72742
1199.319, 35.69811
1199.802, 35.39241
1200.284, 35.03288
1200.766, 34.85408
1201.248, 34.82592
1201.730, 34.91817
1202.212, 35.27054
1202.694, 35.31720
1203.176, 34.99034
1203.658, 34.70073
1204.141, 34.90577
1204.623, 35.17883
1205.105, 34.95014
1205.587, 34.39332
1206.069, 33.87995
1206.551, 33.33667
1207.033, 33.20473
1207.515, 33.57133
1207.998, 33.92726
1208.480, 33.82139
1208.962, 33.51152
1209.444, 33.24696
1209.926, 33.04038
1210.408, 32.92472
1210.890, 32.93037
1211.372, 32.93689
1211.854, 32.94372
1212.337, 32.91658
1212.819, 32.74467
1213.301, 32.58424
1213.783, 32.72254
1214.265, 33.02901
1214.747, 33.02612
1215.229, 32.52044
1215.711, 32.25730
1216.193, 32.32619
1216.676, 32.47646
1217.158, 32.51652
1217.640, 32.48399
1218.122, 32.45094
1218.604, 32.38150
1219.086, 32.09647
1219.568, 31.43302
1220.050, 31.19586
1220.533, 31.52890
1221.015, 31.95627
1221.497, 32.05157
1221.979, 31.98387
1222.461, 31.85121
1222.943, 31.69950
1223.425, 31.69871
1223.907, 31.92399
1224.390, 31.95123
1224.872, 31.69752
1225.354, 31.42256
1225.836, 31.35922
1226.318, 31.40132
1226.800, 31.48446
1227.282, 31.58782
1227.764, 31.64105
1228.246, 31.63479
1228.729, 31.64828
1229.211, 31.70321
1229.693, 31.70372
1230.175, 31.51571
1230.657, 31.27201
1231.139, 31.05416
1231.621, 30.88417
1232.103, 30.81142
1232.585, 30.83902
1233.068, 30.98331
1233.550, 31.27204
1234.032, 31.46348
1234.514, 31.25893
1234.996, 30.94318
1235.478, 30.67505
1235.960, 30.49594
1236.442, 30.59039
1236.925, 30.97080
1237.407, 31.13894
1237.889, 30.99487
1238.371, 30.77193
1238.853, 30.58062
1239.335, 30.45369
1239.817, 30.45873
1240.299, 30.53874
1240.781, 30.52511
1241.264, 30.42699
1241.746, 30.40577
1242.228, 30.49277
1242.710, 30.64465
1243.192, 31.01653
1243.674, 31.23712
1244.156, 30.96166
1244.638, 30.45150
1245.120, 30.51527
1245.603, 31.04293
1246.085, 31.23529
1246.567, 30.91453
1247.049, 30.54569
1247.531, 30.28384
1248.013, 30.17947
1248.495, 30.31332
1248.977, 30.54777
1249.460, 30.52043
1249.942, 30.28845
1250.424, 30.06996
1250.906, 29.89926
1251.388, 29.80595
1251.870, 29.87362
1252.352, 29.94382
1252.834, 29.97449
1253.317, 29.95980
1253.799, 29.84235
1254.281, 29.67677
1254.763, 29.60835
1255.245, 29.66415
1255.727, 29.75835
1256.209, 29.92324
1256.691, 30.02838
1257.173, 30.02097
1257.656, 29.96137
1258.138, 29.94446
1258.620, 29.95976
1259.102, 30.02232
1259.584, 30.14183
1260.066, 30.08905
1260.548, 29.70947
1261.030, 29.48100
1261.512, 29.58253
1261.995, 29.77270
1262.477, 29.65161
1262.959, 29.42653
1263.441, 29.41758
1263.923, 29.66463
1264.405, 29.78435
1264.887, 29.70700
1265.369, 29.70583
1265.852, 29.87275
1266.334, 30.05881
1266.816, 30.12162
1267.298, 30.08214
1267.780, 29.91768
1268.262, 29.64288
1268.744, 29.49148
1269.226, 29.48601
1269.708, 29.37663
1270.191, 29.07852
1270.673, 28.80256
1271.155, 28.77787
1271.637, 28.82780
1272.119, 28.77709
1272.601, 28.67083
1273.083, 28.74133
1273.565, 28.97819
1274.047, 29.08258
1274.530, 28.98132
1275.012, 28.85189
1275.494, 28.74878
1275.976, 28.73645
1276.458, 28.88041
1276.940, 29.10920
1277.422, 29.28772
1277.904, 29.39894
1278.387, 29.34417
1278.869, 29.09957
1279.351, 28.81180
1279.833, 28.32874
1280.315, 28.14808
1280.797, 28.59803
1281.279, 29.21432
1281.761, 28.94805
1282.244, 28.19872
1282.726, 28.04675
1283.208, 28.63365
1283.690, 29.08989
1284.172, 29.11562
1284.654, 29.09402
1285.136, 29.11507
1285.618, 29.10451
1286.100, 28.88510
1286.583, 28.60379
1287.065, 28.47265
1287.547, 28.50959
1288.029, 28.66912
1288.511, 29.03914
1288.993, 29.15844
1289.475, 28.88506
1289.957, 28.60386
1290.439, 28.83391
1290.922, 29.18710
##END=



