##NAMES=Arrojadite-(KFe)
##RRUFFID=R070319
##IDEAL CHEMISTRY=(KNa)Fe^2+^(CaNa_2_)Fe^2+^_13_Al(PO_4_)_11_(PO_3_OH)(OH)_2_
##LOCALITY=Nickel Plate mine, Keystone District, Pennington County, South Dakota, USA
##OWNER=RRUFF
##SOURCE=James Shigley
##DESCRIPTION=Green massive
##STATUS=The identification of this mineral is confirmed by single-crystal X-ray diffraction and chemical analysis.
##URL=rruff.info/R070319
##MEASURED CHEMISTRY=(K_0.67_Na_1.33_)_Σ=2_Fe^2+^_1.00_(Ca_0.80_Na_2.20_)_Σ=3_(Fe^2+^_7.53_Mn_4.65_Mg_0.64_Al_0.16_Ti_0.02_)_Σ=13_Al_1.00_(P_1.00_O_4_)_11_(P_1.00_O_3_OH)(OH)_2_; OH estimated by charge balance
132.5902, 657.7366
133.0723, 676.8094
133.5544, 695.8593
134.0366, 718.7439
134.5187, 742.2020
135.0008, 760.1260
135.4829, 767.7791
135.9650, 765.7722
136.4471, 766.9456
136.9293, 772.3820
137.4114, 779.5032
137.8935, 786.8614
138.3756, 795.2263
138.8577, 806.8782
139.3398, 823.9245
139.8220, 846.4847
140.3041, 866.4254
140.7862, 879.1664
141.2683, 894.1721
141.7504, 915.2614
142.2325, 942.1653
142.7147, 973.0057
143.1968, 1007.090
143.6789, 1044.381
144.1610, 1080.680
144.6431, 1113.200
145.1252, 1147.009
145.6074, 1185.807
146.0895, 1229.172
146.5716, 1273.433
147.0537, 1315.891
147.5358, 1356.390
148.0179, 1396.644
148.5001, 1440.443
148.9822, 1481.233
149.4643, 1514.608
149.9464, 1540.516
150.4285, 1560.637
150.9106, 1575.639
151.3928, 1585.318
151.8749, 1592.525
152.3570, 1596.576
152.8391, 1598.696
153.3212, 1599.646
153.8033, 1599.440
154.2855, 1599.026
154.7676, 1600.769
155.2497, 1603.218
155.7318, 1600.135
156.2139, 1587.107
156.6960, 1569.733
157.1782, 1552.797
157.6603, 1535.977
158.1424, 1523.356
158.6245, 1521.512
159.1066, 1526.723
159.5887, 1530.361
160.0709, 1527.667
160.5530, 1523.156
161.0351, 1524.249
161.5172, 1532.560
161.9993, 1541.004
162.4814, 1541.893
162.9636, 1539.262
163.4457, 1540.903
163.9278, 1551.000
164.4099, 1566.596
164.8920, 1583.115
165.3741, 1601.403
165.8563, 1618.085
166.3384, 1632.733
166.8205, 1644.400
167.3026, 1650.549
167.7847, 1647.612
168.2668, 1639.328
168.7490, 1632.672
169.2311, 1625.743
169.7132, 1625.203
170.1953, 1640.723
170.6774, 1663.539
171.1595, 1679.533
171.6417, 1679.546
172.1238, 1669.732
172.6059, 1666.765
173.0880, 1676.423
173.5701, 1681.020
174.0522, 1665.675
174.5344, 1642.138
175.0165, 1628.291
175.4986, 1635.994
175.9807, 1656.963
176.4628, 1668.213
176.9449, 1665.698
177.4271, 1660.296
177.9092, 1653.155
178.3913, 1646.844
178.8734, 1645.591
179.3555, 1653.037
179.8376, 1665.404
180.3197, 1671.384
180.8019, 1668.162
181.2840, 1663.065
181.7661, 1657.920
182.2482, 1652.779
182.7303, 1647.511
183.2124, 1641.756
183.6946, 1636.294
184.1767, 1633.102
184.6588, 1631.346
185.1409, 1633.888
185.6230, 1645.275
186.1051, 1659.239
186.5873, 1668.057
187.0694, 1667.519
187.5515, 1661.547
188.0336, 1660.788
188.5157, 1668.606
188.9978, 1676.116
189.4800, 1683.514
189.9621, 1688.806
190.4442, 1688.998
190.9263, 1682.346
191.4084, 1672.303
191.8905, 1667.172
192.3727, 1668.477
192.8548, 1672.524
193.3369, 1678.460
193.8190, 1686.363
194.3011, 1698.292
194.7832, 1715.215
195.2654, 1731.874
195.7475, 1735.099
196.2296, 1712.445
196.7117, 1699.916
197.1938, 1710.191
197.6759, 1726.442
198.1581, 1732.594
198.6402, 1723.477
199.1223, 1708.392
199.6044, 1705.640
200.0865, 1724.526
200.5686, 1737.312
201.0508, 1738.926
201.5329, 1736.369
202.0150, 1735.098
202.4971, 1736.563
202.9792, 1738.121
203.4613, 1734.448
203.9435, 1720.014
204.4256, 1713.165
204.9077, 1721.813
205.3898, 1732.190
205.8719, 1733.566
206.3540, 1724.485
206.8362, 1712.760
207.3183, 1709.865
207.8004, 1721.150
208.2825, 1727.705
208.7646, 1727.389
209.2467, 1724.559
209.7289, 1720.588
210.2110, 1716.228
210.6931, 1712.618
211.1752, 1711.795
211.6573, 1715.681
212.1395, 1715.140
212.6216, 1704.484
213.1037, 1694.558
213.5858, 1690.215
214.0679, 1691.729
214.5500, 1697.144
215.0322, 1705.452
215.5143, 1717.633
215.9964, 1725.912
216.4785, 1731.866
216.9606, 1732.594
217.4427, 1722.612
217.9249, 1705.546
218.4070, 1690.789
218.8891, 1686.678
219.3712, 1693.548
219.8533, 1698.944
220.3354, 1702.518
220.8176, 1704.831
221.2997, 1706.088
221.7818, 1706.162
222.2639, 1704.500
222.7460, 1700.353
223.2281, 1694.117
223.7103, 1690.560
224.1924, 1697.525
224.6745, 1698.315
225.1566, 1683.718
225.6387, 1661.906
226.1208, 1645.545
226.6030, 1642.541
227.0851, 1649.164
227.5672, 1649.384
228.0493, 1634.874
228.5314, 1625.156
229.0135, 1627.148
229.4957, 1634.066
229.9778, 1638.355
230.4599, 1636.624
230.9420, 1630.500
231.4241, 1623.553
231.9062, 1613.906
232.3884, 1606.921
232.8705, 1601.401
233.3526, 1599.344
233.8347, 1604.332
234.3168, 1617.215
234.7989, 1632.359
235.2811, 1640.246
235.7632, 1639.620
236.2453, 1634.189
236.7274, 1617.457
237.2095, 1601.304
237.6916, 1596.753
238.1738, 1604.520
238.6559, 1612.829
239.1380, 1603.917
239.6201, 1569.562
240.1022, 1548.677
240.5843, 1553.270
241.0665, 1562.872
241.5486, 1569.916
242.0307, 1573.077
242.5128, 1573.278
242.9949, 1570.906
243.4770, 1565.748
243.9592, 1560.420
244.4413, 1552.549
244.9234, 1546.872
245.4055, 1547.276
245.8876, 1551.590
246.3697, 1554.288
246.8519, 1551.161
247.3340, 1542.761
247.8161, 1533.917
248.2982, 1521.726
248.7803, 1513.283
249.2624, 1514.967
249.7446, 1520.974
250.2267, 1521.194
250.7088, 1508.264
251.1909, 1488.168
251.6730, 1479.488
252.1551, 1489.689
252.6373, 1496.092
253.1194, 1487.823
253.6015, 1473.913
254.0836, 1463.988
254.5657, 1461.758
255.0478, 1463.773
255.5300, 1464.185
256.0121, 1461.828
256.4942, 1462.351
256.9763, 1473.113
257.4584, 1484.068
257.9406, 1486.193
258.4227, 1477.310
258.9048, 1467.084
259.3869, 1467.094
259.8690, 1477.938
260.3511, 1484.999
260.8333, 1483.117
261.3154, 1478.586
261.7975, 1475.966
262.2796, 1475.351
262.7617, 1474.509
263.2438, 1471.140
263.7260, 1465.865
264.2081, 1462.436
264.6902, 1461.812
265.1723, 1462.285
265.6544, 1463.218
266.1365, 1464.283
266.6187, 1464.273
267.1008, 1461.677
267.5829, 1457.792
268.0650, 1454.794
268.5471, 1452.159
269.0292, 1452.291
269.5114, 1460.523
269.9935, 1472.407
270.4756, 1480.448
270.9577, 1484.847
271.4398, 1482.866
271.9219, 1465.057
272.4041, 1430.632
272.8862, 1408.117
273.3683, 1419.633
273.8504, 1448.773
274.3325, 1462.313
274.8146, 1451.334
275.2968, 1438.224
275.7789, 1441.639
276.2610, 1456.690
276.7431, 1461.485
277.2252, 1443.824
277.7073, 1418.568
278.1895, 1412.018
278.6716, 1427.522
279.1537, 1441.243
279.6358, 1443.483
280.1179, 1438.629
280.6000, 1433.944
281.0822, 1431.016
281.5643, 1428.325
282.0464, 1423.561
282.5285, 1416.433
283.0106, 1411.302
283.4927, 1410.434
283.9749, 1410.650
284.4570, 1408.857
284.9391, 1404.910
285.4212, 1400.808
285.9033, 1398.037
286.3854, 1396.669
286.8676, 1396.173
287.3497, 1400.454
287.8318, 1401.786
288.3139, 1393.960
288.7960, 1379.879
289.2781, 1367.267
289.7603, 1360.338
290.2424, 1358.194
290.7245, 1357.383
291.2066, 1359.403
291.6887, 1360.808
292.1708, 1361.907
292.6530, 1361.819
293.1351, 1358.007
293.6172, 1349.731
294.0993, 1341.385
294.5814, 1341.659
295.0635, 1362.547
295.5457, 1368.587
296.0278, 1345.519
296.5099, 1319.017
296.9920, 1308.408
297.4741, 1314.823
297.9562, 1326.203
298.4384, 1330.191
298.9205, 1325.617
299.4026, 1321.630
299.8847, 1318.768
300.3668, 1315.937
300.8489, 1312.408
301.3311, 1308.604
301.8131, 1305.588
302.2953, 1304.217
302.7774, 1304.013
303.2595, 1302.130
303.7416, 1294.340
304.2237, 1291.462
304.7058, 1301.638
305.1880, 1314.744
305.6701, 1318.689
306.1522, 1308.761
306.6343, 1293.184
307.1164, 1285.965
307.5985, 1289.793
308.0807, 1292.064
308.5628, 1288.482
309.0449, 1284.130
309.5270, 1282.141
310.0091, 1282.721
310.4912, 1283.791
310.9734, 1283.813
311.4555, 1282.818
311.9376, 1281.066
312.4197, 1278.332
312.9018, 1275.146
313.3839, 1270.026
313.8661, 1264.539
314.3482, 1263.069
314.8303, 1270.365
315.3124, 1281.664
315.7945, 1288.945
316.2766, 1292.007
316.7588, 1292.195
317.2409, 1289.731
317.7230, 1284.792
318.2051, 1277.419
318.6872, 1266.403
319.1693, 1255.148
319.6515, 1244.535
320.1336, 1235.370
320.6157, 1231.888
321.0978, 1237.284
321.5799, 1246.284
322.0620, 1250.167
322.5442, 1248.235
323.0263, 1246.999
323.5084, 1248.380
323.9905, 1251.439
324.4726, 1255.713
324.9547, 1261.118
325.4369, 1265.432
325.9190, 1266.056
326.4011, 1262.512
326.8832, 1261.133
327.3653, 1262.404
327.8474, 1265.275
328.3296, 1272.054
328.8117, 1280.348
329.2938, 1283.017
329.7759, 1275.250
330.2580, 1259.762
330.7401, 1249.123
331.2223, 1243.630
331.7044, 1242.656
332.1865, 1251.923
332.6686, 1263.057
333.1507, 1266.091
333.6328, 1258.338
334.1150, 1246.067
334.5971, 1238.601
335.0792, 1238.074
335.5613, 1236.770
336.0434, 1235.735
336.5255, 1233.137
337.0077, 1226.833
337.4898, 1217.874
337.9719, 1209.458
338.4540, 1204.276
338.9361, 1201.957
339.4182, 1198.966
339.9004, 1193.311
340.3825, 1190.142
340.8646, 1192.456
341.3467, 1197.248
341.8288, 1200.988
342.3109, 1202.466
342.7931, 1201.984
343.2752, 1199.524
343.7573, 1194.772
344.2394, 1190.216
344.7215, 1186.039
345.2036, 1182.634
345.6858, 1179.726
346.1679, 1177.386
346.6500, 1177.341
347.1321, 1183.432
347.6142, 1192.614
348.0963, 1196.514
348.5785, 1194.006
349.0606, 1187.086
349.5427, 1174.504
350.0248, 1158.363
350.5069, 1145.071
350.9890, 1135.846
351.4712, 1129.740
351.9533, 1124.843
352.4354, 1121.853
352.9175, 1125.558
353.3996, 1140.403
353.8817, 1160.815
354.3639, 1172.008
354.8460, 1173.343
355.3281, 1169.563
355.8102, 1154.947
356.2923, 1138.775
356.7744, 1134.846
357.2566, 1145.311
357.7387, 1157.475
358.2208, 1156.417
358.7029, 1138.552
359.1850, 1127.275
359.6671, 1127.316
360.1493, 1128.224
360.6314, 1123.320
361.1135, 1115.679
361.5956, 1113.744
362.0777, 1123.289
362.5598, 1139.423
363.0420, 1143.265
363.5241, 1120.706
364.0062, 1108.704
364.4883, 1118.722
364.9704, 1135.376
365.4525, 1146.657
365.9347, 1149.700
366.4168, 1148.252
366.8989, 1146.433
367.3810, 1144.380
367.8631, 1138.737
368.3452, 1122.932
368.8274, 1111.493
369.3095, 1113.320
369.7916, 1124.747
370.2737, 1137.158
370.7558, 1148.549
371.2379, 1156.974
371.7201, 1157.283
372.2022, 1148.499
372.6843, 1140.913
373.1664, 1138.316
373.6485, 1139.952
374.1306, 1144.736
374.6128, 1153.672
375.0949, 1162.030
375.5770, 1166.798
376.0591, 1169.303
376.5412, 1172.094
377.0233, 1175.699
377.5055, 1179.658
377.9876, 1184.397
378.4697, 1190.094
378.9518, 1190.637
379.4339, 1178.758
379.9160, 1168.169
380.3982, 1168.236
380.8803, 1176.556
381.3624, 1185.870
381.8445, 1192.446
382.3266, 1196.629
382.8087, 1199.478
383.2909, 1197.980
383.7730, 1199.174
384.2551, 1204.679
384.7372, 1211.918
385.2193, 1219.185
385.7014, 1226.002
386.1836, 1232.372
386.6657, 1237.874
387.1478, 1242.306
387.6299, 1249.534
388.1120, 1263.823
388.5941, 1276.004
389.0763, 1284.769
389.5584, 1289.179
390.0405, 1286.626
390.5226, 1274.325
391.0047, 1259.564
391.4868, 1252.433
391.9690, 1252.841
392.4511, 1262.795
392.9332, 1290.807
393.4153, 1321.608
393.8974, 1341.389
394.3795, 1350.031
394.8617, 1352.938
395.3438, 1345.950
395.8259, 1337.223
396.3080, 1343.973
396.7901, 1368.647
397.2722, 1390.738
397.7544, 1394.070
398.2365, 1382.510
398.7186, 1378.858
399.2007, 1387.049
399.6828, 1398.502
400.1649, 1411.305
400.6471, 1424.864
401.1292, 1439.349
401.6113, 1454.910
402.0934, 1468.150
402.5755, 1473.230
403.0576, 1464.534
403.5398, 1465.099
404.0219, 1482.008
404.5040, 1500.256
404.9861, 1511.121
405.4682, 1516.799
405.9503, 1524.559
406.4325, 1539.404
406.9146, 1558.821
407.3967, 1573.610
407.8788, 1582.068
408.3609, 1589.219
408.8430, 1595.332
409.3252, 1601.146
409.8073, 1606.903
410.2894, 1612.746
410.7715, 1619.511
411.2536, 1628.688
411.7357, 1639.653
412.2179, 1648.055
412.7000, 1651.555
413.1821, 1657.406
413.6642, 1676.286
414.1463, 1700.755
414.6284, 1714.540
415.1106, 1706.986
415.5927, 1697.419
416.0748, 1701.305
416.5569, 1714.884
417.0390, 1727.527
417.5211, 1736.356
418.0033, 1739.900
418.4854, 1733.668
418.9675, 1710.979
419.4496, 1702.530
419.9317, 1723.821
420.4138, 1747.867
420.8960, 1755.846
421.3781, 1749.994
421.8602, 1742.963
422.3423, 1743.173
422.8244, 1747.963
423.3065, 1745.198
423.7887, 1723.959
424.2708, 1712.491
424.7529, 1721.813
425.2350, 1735.668
425.7171, 1740.610
426.1992, 1734.958
426.6814, 1726.372
427.1635, 1721.746
427.6456, 1720.737
428.1277, 1719.867
428.6098, 1719.635
429.0919, 1718.559
429.5741, 1714.426
430.0562, 1709.352
430.5383, 1706.493
431.0204, 1706.591
431.5025, 1709.030
431.9846, 1715.164
432.4668, 1723.538
432.9489, 1728.185
433.4310, 1726.675
433.9131, 1724.150
434.3952, 1726.766
434.8773, 1735.039
435.3595, 1743.637
435.8416, 1756.743
436.3237, 1766.063
436.8058, 1762.220
437.2879, 1750.341
437.7701, 1744.858
438.2522, 1753.740
438.7343, 1769.619
439.2164, 1773.149
439.6985, 1753.353
440.1806, 1740.645
440.6628, 1737.914
441.1449, 1739.550
441.6270, 1746.056
442.1091, 1754.388
442.5912, 1755.962
443.0733, 1741.233
443.5555, 1715.895
444.0376, 1702.802
444.5197, 1705.553
445.0018, 1710.458
445.4839, 1711.207
445.9660, 1712.266
446.4482, 1719.133
446.9303, 1733.226
447.4124, 1746.933
447.8945, 1757.928
448.3766, 1764.781
448.8587, 1761.895
449.3409, 1747.749
449.8230, 1734.612
450.3051, 1732.279
450.7872, 1739.964
451.2693, 1747.021
451.7514, 1757.131
452.2336, 1762.449
452.7157, 1755.684
453.1978, 1744.255
453.6799, 1738.969
454.1620, 1742.761
454.6441, 1750.297
455.1263, 1755.475
455.6084, 1758.951
456.0905, 1756.321
456.5726, 1736.259
457.0547, 1721.699
457.5368, 1722.153
458.0190, 1732.165
458.5011, 1743.643
458.9832, 1753.908
459.4653, 1760.985
459.9474, 1761.116
460.4295, 1754.204
460.9117, 1746.665
461.3938, 1738.880
461.8759, 1731.945
462.3580, 1726.203
462.8401, 1721.809
463.3222, 1720.067
463.8044, 1724.238
464.2865, 1728.918
464.7686, 1728.733
465.2507, 1724.679
465.7328, 1722.545
466.2149, 1726.100
466.6971, 1728.244
467.1792, 1713.844
467.6613, 1665.978
468.1434, 1637.796
468.6255, 1646.565
469.1076, 1659.594
469.5898, 1656.307
470.0719, 1639.208
470.5540, 1621.172
471.0361, 1610.211
471.5182, 1603.921
472.0003, 1594.451
472.4825, 1579.435
472.9646, 1567.883
473.4467, 1566.508
473.9288, 1565.831
474.4109, 1558.887
474.8930, 1545.928
475.3752, 1533.334
475.8573, 1524.859
476.3394, 1519.044
476.8215, 1515.480
477.3036, 1514.195
477.7857, 1506.056
478.2679, 1483.040
478.7500, 1453.142
479.2321, 1436.837
479.7142, 1440.364
480.1963, 1439.806
480.6784, 1428.179
481.1606, 1412.183
481.6427, 1396.972
482.1248, 1383.355
482.6069, 1370.726
483.0890, 1358.517
483.5711, 1346.917
484.0533, 1336.851
484.5354, 1329.820
485.0175, 1321.832
485.4996, 1313.466
485.9817, 1303.272
486.4638, 1287.442
486.9460, 1266.946
487.4281, 1250.751
487.9102, 1248.277
488.3923, 1255.355
488.8744, 1260.130
489.3565, 1262.720
489.8387, 1261.586
490.3208, 1254.543
490.8029, 1243.809
491.2850, 1234.561
491.7671, 1227.799
492.2492, 1219.595
492.7314, 1205.555
493.2135, 1191.174
493.6956, 1181.432
494.1777, 1177.443
494.6598, 1181.093
495.1419, 1195.363
495.6241, 1217.491
496.1062, 1229.907
496.5883, 1228.763
497.0704, 1222.381
497.5525, 1204.227
498.0346, 1186.464
498.5168, 1180.781
498.9989, 1187.312
499.4810, 1195.787
499.9631, 1198.537
500.4452, 1196.437
500.9273, 1192.000
501.4095, 1184.408
501.8916, 1177.774
502.3737, 1172.499
502.8558, 1170.224
503.3379, 1174.101
503.8200, 1186.091
504.3022, 1196.068
504.7843, 1197.473
505.2664, 1196.440
505.7485, 1202.615
506.2306, 1215.034
506.7127, 1221.056
507.1949, 1210.636
507.6770, 1189.375
508.1591, 1182.287
508.6412, 1208.251
509.1233, 1220.655
509.6054, 1207.648
510.0876, 1188.146
510.5697, 1175.435
511.0518, 1170.033
511.5339, 1165.346
512.0161, 1157.217
512.4982, 1146.061
512.9803, 1130.488
513.4624, 1108.528
513.9445, 1095.578
514.4266, 1103.726
514.9088, 1117.794
515.3909, 1116.871
515.8730, 1099.747
516.3551, 1084.200
516.8372, 1078.080
517.3193, 1074.034
517.8015, 1064.763
518.2836, 1051.032
518.7657, 1036.674
519.2478, 1023.317
519.7299, 1012.649
520.2120, 1009.248
520.6942, 1019.153
521.1763, 1024.814
521.6584, 1023.250
522.1405, 1020.750
522.6226, 1019.497
523.1047, 1020.136
523.5869, 1024.084
524.0690, 1033.712
524.5511, 1043.419
525.0332, 1040.569
525.5153, 1025.297
525.9974, 1020.594
526.4796, 1036.974
526.9617, 1057.306
527.4438, 1061.632
527.9259, 1052.074
528.4080, 1045.618
528.8901, 1045.157
529.3723, 1047.886
529.8544, 1052.515
530.3365, 1059.060
530.8186, 1068.963
531.3007, 1082.565
531.7828, 1095.241
532.2650, 1099.635
532.7471, 1093.486
533.2292, 1093.257
533.7113, 1101.814
534.1934, 1113.422
534.6755, 1129.955
535.1577, 1147.042
535.6398, 1157.911
536.1219, 1160.055
536.6040, 1161.781
537.0861, 1170.112
537.5682, 1184.194
538.0504, 1202.633
538.5325, 1225.890
539.0146, 1247.850
539.4967, 1263.028
539.9788, 1273.251
540.4609, 1287.394
540.9431, 1311.131
541.4252, 1330.774
541.9073, 1334.306
542.3894, 1338.455
542.8715, 1363.589
543.3536, 1408.246
543.8358, 1452.353
544.3179, 1479.851
544.8000, 1494.054
545.2821, 1509.136
545.7642, 1525.282
546.2463, 1541.788
546.7285, 1560.919
547.2106, 1578.346
547.6927, 1588.565
548.1748, 1592.380
548.6569, 1600.003
549.1390, 1620.535
549.6211, 1643.727
550.1032, 1658.378
550.5853, 1665.533
551.0674, 1670.196
551.5496, 1674.238
552.0317, 1677.678
552.5138, 1680.772
552.9959, 1684.353
553.4780, 1684.629
553.9601, 1676.903
554.4423, 1671.369
554.9244, 1676.113
555.4065, 1684.515
555.8886, 1685.926
556.3707, 1676.361
556.8528, 1661.332
557.3350, 1646.171
557.8171, 1631.026
558.2992, 1616.997
558.7813, 1604.018
559.2634, 1592.690
559.7455, 1583.524
560.2277, 1576.408
560.7098, 1570.765
561.1919, 1568.029
561.6740, 1564.210
562.1561, 1555.166
562.6382, 1546.190
563.1204, 1543.297
563.6025, 1546.590
564.0846, 1552.618
564.5667, 1559.532
565.0488, 1566.111
565.5309, 1566.552
566.0131, 1556.202
566.4952, 1551.475
566.9773, 1558.410
567.4594, 1569.441
567.9415, 1583.859
568.4236, 1599.295
568.9058, 1606.682
569.3879, 1593.479
569.8700, 1578.437
570.3521, 1585.621
570.8342, 1607.616
571.3163, 1617.518
571.7985, 1606.279
572.2806, 1589.500
572.7627, 1587.341
573.2448, 1602.819
573.7269, 1604.040
574.2090, 1574.089
574.6912, 1550.811
575.1733, 1549.465
575.6554, 1556.640
576.1375, 1556.166
576.6196, 1544.906
577.1017, 1533.263
577.5839, 1533.509
578.0660, 1540.887
578.5481, 1537.996
579.0302, 1523.434
579.5123, 1508.757
579.9944, 1498.319
580.4766, 1491.644
580.9587, 1488.984
581.4408, 1491.743
581.9229, 1491.921
582.4050, 1490.251
582.8871, 1484.037
583.3693, 1466.432
583.8514, 1443.510
584.3335, 1427.895
584.8156, 1425.510
585.2977, 1430.866
585.7798, 1437.406
586.2620, 1445.807
586.7441, 1446.573
587.2262, 1435.713
587.7083, 1422.974
588.1904, 1412.113
588.6725, 1403.484
589.1547, 1398.116
589.6368, 1396.730
590.1189, 1396.975
590.6010, 1399.771
591.0831, 1402.452
591.5652, 1400.929
592.0474, 1395.455
592.5295, 1389.488
593.0116, 1385.157
593.4937, 1382.474
593.9758, 1381.465
594.4579, 1382.267
594.9401, 1384.422
595.4222, 1387.600
595.9043, 1392.457
596.3864, 1400.273
596.8685, 1410.034
597.3506, 1419.942
597.8328, 1431.778
598.3149, 1438.671
598.7970, 1430.425
599.2791, 1412.727
599.7612, 1399.346
600.2433, 1392.881
600.7255, 1392.929
601.2076, 1400.792
601.6897, 1414.749
602.1718, 1420.727
602.6539, 1414.676
603.1360, 1405.665
603.6182, 1389.621
604.1003, 1374.649
604.5824, 1369.647
605.0645, 1372.104
605.5466, 1370.052
606.0287, 1354.386
606.5109, 1333.518
606.9930, 1319.307
607.4751, 1311.313
607.9572, 1308.247
608.4393, 1312.055
608.9214, 1311.292
609.4036, 1291.532
609.8857, 1252.661
610.3678, 1227.565
610.8499, 1225.993
611.3320, 1224.518
611.8141, 1218.901
612.2963, 1210.066
612.7784, 1197.231
613.2605, 1181.675
613.7426, 1168.948
614.2247, 1165.334
614.7068, 1165.781
615.1890, 1154.673
615.6711, 1131.092
616.1532, 1118.555
616.6353, 1129.508
617.1174, 1143.668
617.5995, 1135.127
618.0817, 1103.293
618.5638, 1083.341
619.0459, 1081.703
619.5280, 1086.255
620.0101, 1096.814
620.4922, 1108.740
620.9744, 1116.413
621.4565, 1118.953
621.9386, 1119.428
622.4207, 1119.650
622.9028, 1120.414
623.3849, 1126.673
623.8671, 1140.430
624.3492, 1147.078
624.8313, 1136.949
625.3134, 1123.850
625.7955, 1125.459
626.2776, 1140.810
626.7598, 1155.711
627.2419, 1166.909
627.7240, 1178.615
628.2061, 1192.981
628.6882, 1209.083
629.1703, 1227.565
629.6525, 1247.388
630.1346, 1261.999
630.6167, 1263.215
631.0988, 1253.926
631.5809, 1250.313
632.0630, 1253.158
632.5452, 1258.842
633.0273, 1268.406
633.5094, 1278.368
633.9915, 1285.356
634.4736, 1289.444
634.9557, 1290.828
635.4379, 1289.333
635.9200, 1285.326
636.4021, 1277.223
636.8842, 1267.400
637.3663, 1260.950
637.8484, 1258.303
638.3306, 1252.763
638.8127, 1236.370
639.2948, 1211.514
639.7769, 1194.645
640.2590, 1189.451
640.7411, 1178.358
641.2233, 1149.473
641.7054, 1119.435
642.1875, 1109.820
642.6696, 1118.292
643.1517, 1115.072
643.6339, 1082.904
644.1160, 1049.423
644.5981, 1029.934
645.0802, 1018.865
645.5623, 1008.669
646.0444, 997.1154
646.5266, 983.9695
647.0087, 968.4923
647.4908, 951.6497
647.9729, 938.3658
648.4550, 929.6809
648.9371, 920.4742
649.4193, 907.1608
649.9014, 895.4485
650.3835, 894.0785
650.8656, 900.8320
651.3477, 899.2760
651.8298, 877.4833
652.3120, 857.2385
652.7941, 849.1812
653.2762, 848.4792
653.7583, 851.2139
654.2404, 855.0849
654.7225, 854.5681
655.2047, 843.9646
655.6868, 827.2521
656.1689, 818.8234
656.6510, 820.5316
657.1331, 818.6578
657.6152, 807.8436
658.0974, 796.3443
658.5795, 793.6783
659.0616, 797.3145
659.5437, 795.7722
660.0258, 783.8746
660.5079, 771.8125
660.9901, 762.4559
661.4722, 755.0166
661.9543, 747.7524
662.4364, 741.2791
662.9185, 738.7281
663.4006, 742.6827
663.8828, 750.4306
664.3649, 757.0089
664.8470, 762.4799
665.3291, 764.4860
665.8112, 762.0555
666.2933, 757.4651
666.7755, 751.3157
667.2576, 744.3616
667.7397, 739.7866
668.2218, 740.0449
668.7039, 738.7001
669.1860, 733.0626
669.6682, 726.5713
670.1503, 720.3679
670.6324, 715.7295
671.1145, 715.6324
671.5966, 722.0043
672.0787, 730.0414
672.5609, 732.7827
673.0430, 730.9155
673.5251, 729.5128
674.0072, 729.2708
674.4893, 728.0810
674.9714, 724.3149
675.4536, 719.0426
675.9357, 715.1301
676.4178, 713.4404
676.8999, 711.1863
677.3820, 708.0034
677.8641, 704.5367
678.3463, 700.7025
678.8284, 696.9807
679.3105, 694.3968
679.7926, 693.2780
680.2747, 691.8804
680.7568, 686.6370
681.2390, 680.3903
681.7211, 682.6943
682.2032, 693.1393
682.6853, 696.2238
683.1674, 683.3044
683.6495, 666.4231
684.1317, 665.3954
684.6138, 684.7784
685.0959, 695.8749
685.5780, 696.4231
686.0601, 691.3218
686.5422, 674.5131
687.0244, 656.9757
687.5065, 651.7442
687.9886, 659.4504
688.4707, 667.0858
688.9528, 668.4017
689.4349, 665.0319
689.9171, 654.3641
690.3992, 640.5756
690.8813, 637.6951
691.3634, 649.2839
691.8455, 663.2158
692.3276, 666.7510
692.8098, 661.5625
693.2919, 662.8856
693.7740, 674.6912
694.2561, 684.2955
694.7382, 691.6520
695.2203, 693.8947
695.7025, 685.0657
696.1846, 668.8978
696.6667, 659.2525
697.1488, 661.5518
697.6309, 668.0422
698.1130, 679.4222
698.5952, 689.9380
699.0773, 690.5300
699.5594, 682.2539
700.0415, 673.8718
700.5236, 670.6497
701.0057, 671.0505
701.4879, 671.7875
701.9700, 672.7539
702.4521, 677.0798
702.9342, 687.2972
703.4163, 695.0458
703.8984, 694.5734
704.3806, 688.5375
704.8627, 683.4625
705.3448, 680.1752
705.8269, 675.4162
706.3090, 665.1690
706.7911, 656.8629
707.2733, 655.4262
707.7554, 658.8329
708.2375, 664.3992
708.7196, 671.0444
709.2017, 676.0531
709.6838, 676.4234
710.1660, 673.3195
710.6481, 668.1044
711.1302, 661.1637
711.6123, 659.3749
712.0944, 666.1794
712.5765, 674.8071
713.0587, 676.8379
713.5408, 671.9778
714.0229, 666.6476
714.5050, 655.8400
714.9871, 651.6711
715.4692, 663.1830
715.9514, 676.3006
716.4335, 677.9596
716.9156, 669.9893
717.3977, 665.0293
717.8798, 670.7407
718.3619, 677.4236
718.8441, 677.7764
719.3262, 673.6942
719.8083, 665.8665
720.2904, 655.9584
720.7725, 651.8807
721.2546, 659.7457
721.7368, 673.6099
722.2189, 679.0770
722.7010, 675.1738
723.1831, 668.8287
723.6652, 657.5741
724.1473, 649.8589
724.6295, 653.6503
725.1116, 662.9598
725.5937, 665.0488
726.0758, 657.4073
726.5579, 651.1599
727.0400, 648.5690
727.5222, 647.6414
728.0043, 647.1391
728.4864, 647.4932
728.9685, 650.2896
729.4506, 655.6116
729.9327, 660.1831
730.4149, 659.0773
730.8970, 655.8962
731.3791, 661.2108
731.8612, 673.6587
732.3433, 679.3240
732.8254, 673.4561
733.3076, 664.3666
733.7897, 660.2511
734.2718, 660.8331
734.7539, 662.5585
735.2360, 669.1550
735.7181, 670.5588
736.2003, 660.7625
736.6824, 650.1777
737.1645, 646.3875
737.6466, 646.9440
738.1287, 643.7572
738.6108, 631.3943
739.0930, 623.0317
739.5751, 629.4205
740.0572, 641.5251
740.5393, 650.4059
741.0214, 655.1273
741.5035, 656.0945
741.9857, 653.4491
742.4678, 649.6749
742.9499, 648.5522
743.4320, 649.8322
743.9141, 649.4924
744.3962, 646.8696
744.8784, 646.4551
745.3605, 651.5323
745.8426, 657.2639
746.3247, 656.2602
746.8068, 647.3368
747.2889, 642.8768
747.7711, 646.0983
748.2532, 649.2966
748.7353, 648.3513
749.2174, 648.3474
749.6995, 656.7663
750.1816, 671.1163
750.6638, 679.6459
751.1459, 674.8878
751.6280, 666.0084
752.1101, 662.4026
752.5922, 660.3493
753.0743, 649.4320
753.5565, 630.8812
754.0386, 620.8579
754.5207, 629.5989
755.0028, 646.8818
755.4849, 652.1602
755.9670, 643.8480
756.4492, 638.4605
756.9313, 637.5360
757.4134, 636.2067
757.8955, 630.2990
758.3776, 624.3444
758.8597, 626.0037
759.3419, 635.8229
759.8240, 645.5065
760.3061, 658.2264
760.7882, 666.1385
761.2703, 663.9162
761.7524, 656.9792
762.2346, 649.9228
762.7167, 643.9215
763.1988, 639.5433
763.6809, 637.8004
764.1630, 636.5889
764.6451, 631.7929
765.1273, 625.9232
765.6094, 627.0065
766.0915, 635.2137
766.5736, 640.8847
767.0557, 637.7210
767.5378, 629.9386
768.0200, 625.5577
768.5021, 623.7921
768.9842, 632.1143
769.4663, 658.9377
769.9484, 677.8669
770.4305, 673.3991
770.9127, 657.4606
771.3948, 645.8809
771.8769, 638.5600
772.3590, 636.0915
772.8411, 643.0106
773.3232, 649.5280
773.8054, 651.4946
774.2875, 651.4175
774.7696, 651.9384
775.2517, 653.2785
775.7338, 654.3397
776.2159, 654.5540
776.6981, 654.1732
777.1802, 654.5780
777.6623, 654.3381
778.1444, 648.9061
778.6265, 638.5313
779.1086, 629.1243
779.5908, 624.0752
780.0729, 621.5526
780.5550, 617.2866
781.0371, 610.4296
781.5192, 611.5475
782.0013, 624.3406
782.4835, 635.5272
782.9656, 641.7293
783.4477, 642.2833
783.9298, 631.9797
784.4119, 610.2440
784.8940, 602.9264
785.3762, 625.5306
785.8583, 644.0370
786.3404, 647.4943
786.8225, 644.5737
787.3046, 639.8392
787.7867, 635.7961
788.2689, 638.1214
788.7510, 652.4804
789.2331, 662.9288
789.7152, 649.2398
790.1973, 626.4396
790.6794, 619.7427
791.1616, 627.6885
791.6437, 634.8240
792.1258, 634.5202
792.6079, 631.1294
793.0900, 629.7676
793.5721, 630.5406
794.0543, 635.8170
794.5364, 646.9983
795.0185, 653.7170
795.5006, 652.1460
795.9827, 646.8761
796.4648, 641.2985
796.9470, 635.7075
797.4291, 633.4637
797.9112, 639.5096
798.3933, 641.8027
798.8754, 635.5332
799.3575, 629.6308
799.8397, 631.4440
800.3218, 636.6784
800.8039, 635.5438
801.2860, 624.4156
801.7681, 617.0122
802.2502, 622.8619
802.7324, 633.1222
803.2145, 642.3279
803.6966, 649.0797
804.1787, 651.1050
804.6608, 648.2489
805.1429, 643.2805
805.6251, 637.0713
806.1072, 632.2784
806.5893, 637.7118
807.0714, 651.2870
807.5535, 655.6429
808.0356, 647.3172
808.5178, 638.2292
808.9999, 636.1379
809.4820, 638.8795
809.9641, 640.8642
810.4462, 641.0137
810.9283, 644.8608
811.4105, 657.2493
811.8926, 665.3981
812.3747, 659.3475
812.8568, 649.8776
813.3389, 651.4988
813.8210, 664.2135
814.3032, 669.6012
814.7853, 657.1663
815.2674, 646.9489
815.7495, 645.3135
816.2316, 649.2017
816.7137, 660.6411
817.1959, 674.7990
817.6780, 678.3776
818.1601, 663.5984
818.6422, 647.7053
819.1243, 645.5538
819.6064, 651.5028
820.0886, 657.4557
820.5707, 663.3691
821.0528, 673.5205
821.5349, 689.0374
822.0170, 699.9508
822.4991, 693.3998
822.9813, 674.1867
823.4634, 662.5566
823.9455, 658.6512
824.4276, 658.1182
824.9097, 660.4282
825.3918, 664.7128
825.8740, 670.9631
826.3561, 678.2126
826.8382, 683.1350
827.3203, 685.2930
827.8024, 686.0327
828.2845, 680.6730
828.7667, 679.7306
829.2488, 693.5425
829.7309, 709.8467
830.2130, 713.0339
830.6951, 702.2665
831.1772, 691.1385
831.6594, 680.4063
832.1415, 672.9742
832.6236, 669.5100
833.1057, 670.3383
833.5878, 677.8770
834.0699, 689.9966
834.5521, 700.5472
835.0342, 706.6940
835.5163, 711.2138
835.9984, 719.5657
836.4805, 726.4371
836.9626, 718.2640
837.4448, 700.0717
837.9269, 693.7413
838.4090, 705.9764
838.8911, 719.4630
839.3732, 713.9527
839.8553, 696.8229
840.3375, 697.7705
840.8196, 717.2598
841.3017, 730.4527
841.7838, 732.4354
842.2659, 730.0656
842.7480, 726.7786
843.2302, 723.9041
843.7123, 724.8347
844.1944, 730.2132
844.6765, 737.6863
845.1586, 752.9297
845.6407, 761.8027
846.1229, 756.9708
846.6050, 745.3136
847.0871, 729.2511
847.5692, 710.1821
848.0513, 702.7039
848.5334, 717.4738
849.0156, 732.2602
849.4977, 745.6898
849.9798, 752.7698
850.4619, 743.8199
850.9440, 726.8835
851.4261, 719.9623
851.9083, 729.0981
852.3904, 739.3937
852.8725, 741.0571
853.3546, 739.0488
853.8367, 738.9147
854.3188, 739.1430
854.8010, 734.6810
855.2831, 725.6992
855.7652, 720.0853
856.2473, 724.8897
856.7294, 732.6320
857.2115, 727.3862
857.6937, 713.1255
858.1758, 709.2571
858.6579, 717.2277
859.1400, 723.1816
859.6221, 720.4095
860.1042, 714.5793
860.5864, 713.2758
861.0685, 716.4883
861.5506, 725.2237
862.0327, 743.0102
862.5148, 751.9748
862.9969, 745.5652
863.4791, 734.4215
863.9612, 725.0857
864.4433, 718.0833
864.9254, 715.6993
865.4075, 721.5598
865.8896, 724.4507
866.3718, 723.9994
866.8539, 721.1740
867.3360, 713.2571
867.8181, 705.0724
868.3002, 701.8078
868.7823, 703.7350
869.2645, 708.5632
869.7466, 721.1924
870.2287, 729.4878
870.7108, 726.8547
871.1929, 719.4924
871.6750, 711.4575
872.1572, 703.6510
872.6393, 695.2878
873.1214, 685.8530
873.6035, 682.0174
874.0856, 694.5650
874.5677, 710.2587
875.0499, 711.5594
875.5320, 705.2217
876.0141, 706.8710
876.4962, 718.4044
876.9783, 730.6281
877.4604, 738.0032
877.9426, 740.0474
878.4247, 732.7940
878.9068, 719.5141
879.3889, 712.0442
879.8710, 711.1490
880.3531, 716.1959
880.8353, 727.3568
881.3174, 737.3322
881.7995, 736.2755
882.2816, 726.7540
882.7637, 725.9088
883.2458, 735.1155
883.7280, 742.8603
884.2101, 747.2883
884.6922, 749.7529
885.1743, 750.2275
885.6564, 750.2635
886.1385, 753.5030
886.6207, 760.9073
887.1028, 767.2101
887.5849, 773.2799
888.0670, 776.7129
888.5491, 772.2288
889.0313, 768.9610
889.5134, 776.0078
889.9955, 791.2673
890.4776, 805.4238
890.9597, 821.6830
891.4418, 829.7855
891.9240, 820.2465
892.4061, 811.0634
892.8882, 813.2881
893.3703, 820.8215
893.8524, 823.5257
894.3345, 820.7558
894.8167, 823.0836
895.2988, 841.3058
895.7809, 857.6541
896.2630, 859.1888
896.7451, 856.7987
897.2272, 861.1533
897.7094, 871.7509
898.1915, 885.0687
898.6736, 899.8795
899.1557, 912.0778
899.6378, 916.6978
900.1199, 918.1437
900.6021, 921.3161
901.0842, 925.7235
901.5663, 930.6412
902.0484, 935.5305
902.5305, 938.3325
903.0126, 937.2769
903.4948, 936.4940
903.9769, 942.7243
904.4590, 954.0661
904.9411, 966.6676
905.4232, 979.2595
905.9053, 982.6336
906.3875, 973.9194
906.8696, 965.1512
907.3517, 967.8511
907.8338, 979.5243
908.3159, 992.1913
908.7980, 1005.807
909.2802, 1024.890
909.7623, 1051.470
910.2444, 1070.329
910.7265, 1072.158
911.2086, 1068.418
911.6907, 1076.243
912.1729, 1095.436
912.6550, 1108.800
913.1371, 1113.698
913.6192, 1121.592
914.1013, 1136.640
914.5834, 1150.678
915.0656, 1156.680
915.5477, 1159.073
916.0298, 1168.525
916.5119, 1187.480
916.9940, 1204.433
917.4761, 1219.044
917.9583, 1232.093
918.4404, 1238.442
918.9225, 1247.952
919.4046, 1274.264
919.8867, 1310.749
920.3688, 1331.578
920.8510, 1323.135
921.3331, 1325.308
921.8152, 1355.125
922.2973, 1383.632
922.7794, 1392.372
923.2615, 1395.986
923.7437, 1412.540
924.2258, 1442.143
924.7079, 1471.477
925.1900, 1496.061
925.6721, 1520.757
926.1542, 1547.171
926.6364, 1574.706
927.1185, 1602.303
927.6006, 1630.714
928.0827, 1662.983
928.5648, 1699.008
929.0469, 1731.274
929.5291, 1750.157
930.0112, 1770.004
930.4933, 1805.083
930.9754, 1845.059
931.4575, 1875.780
931.9396, 1899.700
932.4218, 1926.710
932.9039, 1960.665
933.3860, 1999.842
933.8681, 2049.590
934.3502, 2098.121
934.8323, 2127.845
935.3145, 2145.236
935.7966, 2160.834
936.2787, 2177.472
936.7608, 2197.029
937.2429, 2220.438
937.7250, 2247.037
938.2072, 2279.083
938.6893, 2312.625
939.1714, 2335.407
939.6535, 2351.204
940.1356, 2377.885
940.6177, 2418.167
941.0999, 2454.425
941.5820, 2473.279
942.0641, 2486.347
942.5462, 2515.756
943.0283, 2558.294
943.5104, 2597.621
943.9926, 2633.142
944.4747, 2668.611
944.9568, 2705.200
945.4389, 2739.958
945.9210, 2769.289
946.4031, 2796.618
946.8853, 2831.878
947.3674, 2875.118
947.8495, 2922.578
948.3316, 2974.697
948.8137, 3022.327
949.2958, 3061.018
949.7780, 3098.390
950.2601, 3143.187
950.7422, 3193.509
951.2243, 3239.530
951.7064, 3281.120
952.1885, 3318.572
952.6707, 3350.975
953.1528, 3380.976
953.6349, 3407.601
954.1170, 3437.522
954.5991, 3483.119
955.0812, 3542.687
955.5634, 3582.308
956.0455, 3594.187
956.5276, 3611.190
957.0097, 3645.757
957.4918, 3668.216
957.9739, 3660.086
958.4561, 3633.025
958.9382, 3604.177
959.4203, 3572.927
959.9024, 3547.041
960.3845, 3524.920
960.8666, 3511.493
961.3488, 3509.303
961.8309, 3513.783
962.3130, 3528.420
962.7951, 3544.698
963.2772, 3544.031
963.7593, 3521.714
964.2415, 3507.606
964.7236, 3502.438
965.2057, 3504.433
965.6878, 3515.018
966.1699, 3531.047
966.6520, 3551.485
967.1342, 3575.761
967.6163, 3600.697
968.0984, 3622.118
968.5805, 3660.772
969.0626, 3733.082
969.5447, 3802.303
970.0269, 3852.474
970.5090, 3902.439
970.9911, 3965.885
971.4732, 4040.812
971.9553, 4123.341
972.4374, 4221.768
972.9196, 4296.864
973.4017, 4319.068
973.8838, 4348.958
974.3659, 4419.337
974.8480, 4496.567
975.3301, 4547.149
975.8123, 4578.990
976.2944, 4621.930
976.7765, 4687.298
977.2586, 4741.440
977.7407, 4762.604
978.2228, 4788.141
978.7050, 4840.188
979.1871, 4899.729
979.6692, 4953.309
980.1513, 4996.935
980.6334, 5022.450
981.1155, 5021.389
981.5977, 5022.978
982.0798, 5034.839
982.5619, 5052.656
983.0440, 5080.337
983.5261, 5108.545
984.0082, 5131.171
984.4904, 5145.231
984.9725, 5144.130
985.4546, 5125.065
985.9367, 5093.858
986.4188, 5041.674
986.9009, 4990.082
987.3831, 4955.929
987.8652, 4926.395
988.3473, 4888.500
988.8294, 4840.714
989.3115, 4785.201
989.7936, 4722.131
990.2758, 4653.029
990.7579, 4571.817
991.2400, 4492.436
991.7221, 4432.726
992.2042, 4374.335
992.6863, 4287.804
993.1685, 4178.443
993.6506, 4081.170
994.1327, 4011.132
994.6148, 3944.806
995.0969, 3875.226
995.5790, 3802.065
996.0612, 3721.843
996.5433, 3640.436
997.0254, 3568.990
997.5075, 3503.892
997.9896, 3425.675
998.4717, 3323.555
998.9539, 3220.295
999.4360, 3125.175
999.9181, 3033.109
1000.400, 2932.969
1000.882, 2839.572
1001.364, 2778.388
1001.847, 2743.620
1002.329, 2701.973
1002.811, 2639.620
1003.293, 2576.493
1003.775, 2522.019
1004.257, 2469.489
1004.739, 2413.873
1005.221, 2358.295
1005.703, 2308.347
1006.186, 2263.169
1006.668, 2214.968
1007.150, 2158.007
1007.632, 2109.746
1008.114, 2090.868
1008.596, 2069.312
1009.078, 2017.489
1009.560, 1955.574
1010.043, 1905.868
1010.525, 1870.398
1011.007, 1844.919
1011.489, 1831.458
1011.971, 1814.836
1012.453, 1786.640
1012.935, 1755.305
1013.417, 1725.034
1013.899, 1695.240
1014.382, 1663.428
1014.864, 1631.493
1015.346, 1605.646
1015.828, 1588.928
1016.310, 1573.032
1016.792, 1553.479
1017.274, 1535.447
1017.756, 1525.608
1018.239, 1515.677
1018.721, 1495.723
1019.203, 1468.224
1019.685, 1441.568
1020.167, 1416.483
1020.649, 1398.526
1021.131, 1396.475
1021.613, 1393.176
1022.095, 1377.519
1022.578, 1359.660
1023.060, 1353.093
1023.542, 1351.526
1024.024, 1336.418
1024.506, 1302.183
1024.988, 1269.390
1025.470, 1234.359
1025.952, 1213.609
1026.435, 1232.158
1026.917, 1250.350
1027.399, 1229.375
1027.881, 1185.641
1028.363, 1158.408
1028.845, 1155.097
1029.327, 1147.715
1029.809, 1124.025
1030.292, 1105.647
1030.774, 1103.961
1031.256, 1103.737
1031.738, 1092.565
1032.220, 1076.453
1032.702, 1067.100
1033.184, 1065.856
1033.666, 1063.868
1034.148, 1061.595
1034.630, 1056.581
1035.113, 1043.639
1035.595, 1033.051
1036.077, 1034.714
1036.559, 1040.034
1037.041, 1034.682
1037.523, 1018.019
1038.005, 1007.104
1038.487, 1006.203
1038.970, 1004.379
1039.452, 999.7259
1039.934, 995.8030
1040.416, 996.9949
1040.898, 997.2160
1041.380, 986.0978
1041.862, 965.6149
1042.344, 958.4495
1042.826, 974.7854
1043.309, 981.3922
1043.791, 968.7125
1044.273, 962.9861
1044.755, 981.7054
1045.237, 999.7563
1045.719, 988.1850
1046.201, 955.0688
1046.683, 938.2888
1047.166, 942.5835
1047.648, 947.4451
1048.130, 954.3722
1048.612, 956.4805
1049.094, 950.0521
1049.576, 942.4509
1050.058, 940.0323
1050.540, 940.8751
1051.022, 940.0771
1051.505, 937.7216
1051.987, 931.8911
1052.469, 921.3123
1052.951, 916.1479
1053.433, 919.6313
1053.915, 924.2849
1054.397, 925.2488
1054.879, 924.0172
1055.361, 924.7349
1055.844, 926.3724
1056.326, 912.5409
1056.808, 883.2742
1057.290, 869.8275
1057.772, 877.6250
1058.254, 892.9119
1058.736, 909.2076
1059.218, 921.0307
1059.701, 920.2083
1060.183, 909.7383
1060.665, 897.4818
1061.147, 884.5088
1061.629, 876.8113
1062.111, 874.9620
1062.593, 879.4526
1063.075, 890.0064
1063.557, 896.5791
1064.040, 887.7283
1064.522, 872.4265
1065.004, 867.4520
1065.486, 868.8547
1065.968, 865.5348
1066.450, 859.4352
1066.932, 862.1915
1067.414, 875.2359
1067.896, 884.8756
1068.379, 880.8572
1068.861, 873.0930
1069.343, 872.3201
1069.825, 875.0821
1070.307, 878.3037
1070.789, 880.5366
1071.271, 878.4286
1071.753, 872.7866
1072.236, 869.1731
1072.718, 870.4674
1073.200, 871.2871
1073.682, 866.4553
1074.164, 860.8657
1074.646, 859.6630
1075.128, 859.3167
1075.610, 852.9061
1076.093, 843.8432
1076.575, 843.9109
1077.057, 856.6388
1077.539, 864.1793
1078.021, 855.0833
1078.503, 843.9954
1078.985, 835.1298
1079.467, 829.2011
1079.949, 826.4416
1080.432, 827.0193
1080.914, 834.0581
1081.396, 846.9874
1081.878, 850.6350
1082.360, 837.1087
1082.842, 822.0739
1083.324, 801.5173
1083.806, 787.5682
1084.288, 787.8531
1084.771, 795.9583
1085.253, 807.2421
1085.735, 820.5334
1086.217, 831.1001
1086.699, 842.8116
1087.181, 840.5190
1087.663, 815.0671
1088.145, 794.4379
1088.628, 788.1349
1089.110, 783.7963
1089.592, 770.3890
1090.074, 755.2856
1090.556, 756.2802
1091.038, 774.3373
1091.520, 779.8798
1092.002, 770.9758
1092.484, 760.6291
1092.967, 750.0034
1093.449, 744.9705
1093.931, 749.3604
1094.413, 755.4806
1094.895, 752.3022
1095.377, 744.2791
1095.859, 751.0953
1096.341, 769.7385
1096.823, 774.3549
1097.306, 764.6110
1097.788, 760.1868
1098.270, 766.9318
1098.752, 771.2399
1099.234, 761.1708
1099.716, 747.7033
1100.198, 749.1314
1100.680, 758.6360
1101.163, 763.1457
1101.645, 763.5340
1102.127, 763.2537
1102.609, 763.0047
1103.091, 762.1401
1103.573, 760.3242
1104.055, 758.5630
1104.537, 759.4109
1105.020, 758.8628
1105.502, 752.6474
1105.984, 743.3215
1106.466, 729.4684
1106.948, 716.6201
1107.430, 718.5884
1107.912, 737.0528
1108.394, 749.9453
1108.876, 741.8323
1109.359, 736.3527
1109.841, 745.6251
1110.323, 756.4236
1110.805, 763.9838
1111.287, 766.1678
1111.769, 758.1674
1112.251, 742.3457
1112.733, 730.7892
1113.215, 724.9452
1113.698, 722.5849
1114.180, 724.5564
1114.662, 728.6953
1115.144, 738.2349
1115.626, 744.3798
1116.108, 739.3669
1116.590, 728.9437
1117.072, 723.3689
1117.555, 722.6515
1118.037, 727.2781
1118.519, 739.7133
1119.001, 741.9752
1119.483, 729.9932
1119.965, 721.6935
1120.447, 725.3802
1120.929, 729.7892
1121.411, 722.5101
1121.894, 709.3982
1122.376, 706.1306
1122.858, 710.9388
1123.340, 715.3588
1123.822, 718.8773
1124.304, 722.1412
1124.786, 724.7483
1125.268, 722.3683
1125.750, 712.2762
1126.233, 701.0702
1126.715, 695.7639
1127.197, 694.2248
1127.679, 695.1168
1128.161, 696.7297
1128.643, 695.7795
1129.125, 693.2639
1129.607, 693.9243
1130.090, 698.2092
1130.572, 697.3475
1131.054, 681.7823
1131.536, 669.2286
1132.018, 671.9802
1132.500, 677.4044
1132.982, 679.3160
1133.464, 677.1464
1133.947, 666.7387
1134.429, 652.0453
1134.911, 648.4208
1135.393, 661.3123
1135.875, 672.7910
1136.357, 686.5278
1136.839, 690.7645
1137.321, 678.1183
1137.803, 663.2109
1138.286, 652.8865
1138.768, 646.7163
1139.250, 644.3793
1139.732, 645.6178
1140.214, 648.4948
1140.696, 653.5986
1141.178, 656.1714
1141.660, 656.0349
1142.142, 650.8524
1142.625, 639.4924
1143.107, 630.2558
1143.589, 630.2277
1144.071, 632.7869
1144.553, 623.8484
1145.035, 608.9565
1145.517, 605.7416
1145.999, 611.1975
1146.482, 615.9502
1146.964, 619.0040
1147.446, 624.2006
1147.928, 632.5625
1148.410, 637.4146
1148.892, 631.7427
1149.374, 624.1321
1149.856, 620.3837
1150.339, 620.1334
1150.821, 627.0363
1151.303, 634.7710
1151.785, 633.2598
1152.267, 623.4465
1152.749, 614.2787
1153.231, 607.2462
1153.713, 603.7072
1154.195, 611.0884
1154.677, 612.0356
1155.160, 592.2162
1155.642, 574.5789
1156.124, 575.6401
1156.606, 585.2341
1157.088, 589.0754
1157.570, 587.6198
1158.052, 586.0991
1158.534, 584.3537
1159.017, 583.5184
1159.499, 583.9916
1159.981, 582.6978
1160.463, 578.2095
1160.945, 576.9897
1161.427, 584.7175
1161.909, 593.1561
1162.391, 585.4870
1162.874, 568.2581
1163.356, 565.9726
1163.838, 572.7784
1164.320, 567.0762
1164.802, 551.0940
1165.284, 546.1207
1165.766, 557.3510
1166.248, 564.9239
1166.730, 553.5988
1167.213, 539.5314
1167.695, 533.1718
1168.177, 532.9743
1168.659, 542.4442
1169.141, 553.7305
1169.623, 558.4216
1170.105, 556.2925
1170.587, 549.0904
1171.069, 536.4312
1171.552, 524.5262
1172.034, 510.8412
1172.516, 503.5756
1172.998, 508.8225
1173.480, 513.4885
1173.962, 510.7952
1174.444, 506.8496
1174.926, 507.9605
1175.409, 513.0117
1175.891, 518.3882
1176.373, 524.1472
1176.855, 530.4376
1177.337, 537.4235
1177.819, 537.2092
1178.301, 528.4924
1178.783, 518.9778
1179.266, 512.4078
1179.748, 507.4659
1180.230, 503.0590
1180.712, 499.0462
1181.194, 495.5014
1181.676, 492.0335
1182.158, 485.5885
1182.640, 479.7478
1183.122, 484.3656
1183.604, 497.5631
1184.087, 506.0827
1184.569, 504.8583
1185.051, 500.4615
1185.533, 491.1399
1186.015, 485.7755
1186.497, 492.1561
1186.979, 499.4546
1187.461, 501.1033
1187.944, 498.4174
1188.426, 492.8147
1188.908, 484.8960
1189.390, 478.1269
1189.872, 472.3409
1190.354, 467.3068
1190.836, 461.0416
1191.318, 467.0237
1191.801, 491.0292
1192.283, 506.1786
1192.765, 495.8858
1193.247, 480.0252
1193.729, 484.6723
1194.211, 500.2757
1194.693, 503.7181
1195.175, 499.0584
1195.657, 497.3156
1196.140, 497.3320
1196.622, 490.8498
1197.104, 479.1115
1197.586, 476.4998
1198.068, 490.5356
1198.550, 501.6803
1199.032, 494.0919
1199.514, 484.7881
1199.996, 481.4972
1200.479, 482.3439
1200.961, 488.4916
1201.443, 496.0477
1201.925, 499.7390
1202.407, 499.5718
1202.889, 498.2325
1203.371, 494.6100
1203.853, 493.8658
1204.336, 497.9355
1204.818, 497.9145
1205.300, 490.7204
1205.782, 485.7972
1206.264, 488.7554
1206.746, 492.5745
1207.228, 488.3934
1207.710, 479.9309
1208.193, 475.9460
1208.675, 475.5382
1209.157, 475.8749
1209.639, 477.5404
1210.121, 485.5189
1210.603, 497.5056
1211.085, 500.1105
1211.567, 487.8155
1212.049, 477.2745
1212.531, 480.7681
1213.014, 485.9446
1213.496, 489.4739
1213.978, 488.8582
1214.460, 478.2920
1214.942, 465.5634
1215.424, 460.4032
1215.906, 461.4736
1216.388, 462.7823
1216.871, 464.7172
1217.353, 463.6292
1217.835, 457.2440
1218.317, 458.5595
1218.799, 470.6927
1219.281, 481.4866
1219.763, 485.9966
1220.245, 486.8456
1220.728, 486.2608
1221.210, 484.2377
1221.692, 478.3855
1222.174, 472.5621
1222.656, 480.2291
1223.138, 491.5204
1223.620, 482.0261
1224.102, 457.6077
1224.584, 441.0605
1225.067, 438.6001
1225.549, 445.1926
1226.031, 467.4877
1226.513, 481.1743
1226.995, 473.3817
##END=



