##NAMES=Arrojadite-(KFe)
##RRUFFID=R070319
##IDEAL CHEMISTRY=(KNa)Fe^2+^(CaNa_2_)Fe^2+^_13_Al(PO_4_)_11_(PO_3_OH)(OH)_2_
##LOCALITY=Nickel Plate mine, Keystone District, Pennington County, South Dakota, USA
##OWNER=RRUFF
##SOURCE=James Shigley
##DESCRIPTION=Green massive
##STATUS=The identification of this mineral is confirmed by single-crystal X-ray diffraction and chemical analysis.
##URL=rruff.info/R070319
##MEASURED CHEMISTRY=(K_0.67_Na_1.33_)_Σ=2_Fe^2+^_1.00_(Ca_0.80_Na_2.20_)_Σ=3_(Fe^2+^_7.53_Mn_4.65_Mg_0.64_Al_0.16_Ti_0.02_)_Σ=13_Al_1.00_(P_1.00_O_4_)_11_(P_1.00_O_3_OH)(OH)_2_; OH estimated by charge balance
157.3757, 10197.39
157.8578, 10228.45
158.3399, 10264.82
158.8221, 10297.09
159.3042, 10319.48
159.7863, 10321.81
160.2684, 10322.60
160.7505, 10326.01
161.2326, 10332.27
161.7148, 10342.95
162.1969, 10362.81
162.6790, 10385.92
163.1611, 10406.31
163.6432, 10424.36
164.1253, 10437.56
164.6075, 10441.34
165.0896, 10435.41
165.5717, 10432.82
166.0538, 10439.55
166.5359, 10454.49
167.0180, 10475.93
167.5002, 10516.53
167.9823, 10555.18
168.4644, 10568.25
168.9465, 10548.99
169.4286, 10539.04
169.9107, 10578.35
170.3929, 10649.74
170.8750, 10718.14
171.3571, 10773.56
171.8392, 10812.78
172.3213, 10826.75
172.8034, 10807.72
173.2856, 10784.89
173.7677, 10788.77
174.2498, 10812.77
174.7319, 10834.10
175.2140, 10836.16
175.6961, 10827.55
176.1783, 10820.30
176.6604, 10814.95
177.1425, 10814.62
177.6246, 10824.22
178.1067, 10842.97
178.5888, 10866.59
179.0710, 10901.32
179.5531, 10938.39
180.0352, 10956.81
180.5173, 10947.87
180.9994, 10921.50
181.4815, 10885.72
181.9637, 10840.85
182.4458, 10806.78
182.9279, 10808.00
183.4100, 10836.10
183.8921, 10859.16
184.3742, 10865.37
184.8564, 10861.89
185.3385, 10864.81
185.8206, 10874.41
186.3027, 10887.36
186.7848, 10898.23
187.2669, 10908.21
187.7491, 10926.76
188.2312, 10964.51
188.7133, 11013.59
189.1954, 11044.97
189.6775, 11057.02
190.1596, 11057.57
190.6418, 11050.41
191.1239, 11036.00
191.6060, 11029.76
192.0881, 11044.59
192.5702, 11076.87
193.0524, 11091.62
193.5345, 11084.20
194.0166, 11071.23
194.4987, 11082.00
194.9808, 11118.36
195.4629, 11151.01
195.9451, 11159.25
196.4272, 11143.97
196.9093, 11150.98
197.3914, 11187.57
197.8735, 11237.23
198.3556, 11269.26
198.8378, 11281.93
199.3199, 11287.50
199.8020, 11288.12
200.2841, 11282.70
200.7662, 11290.93
201.2483, 11319.26
201.7305, 11356.98
202.2126, 11374.07
202.6947, 11364.50
203.1768, 11356.88
203.6589, 11369.51
204.1410, 11404.74
204.6232, 11444.99
205.1053, 11494.68
205.5874, 11545.82
206.0695, 11567.81
206.5516, 11551.83
207.0337, 11529.84
207.5159, 11523.69
207.9980, 11536.49
208.4801, 11550.74
208.9622, 11563.58
209.4443, 11576.26
209.9264, 11568.36
210.4086, 11608.03
210.8907, 11631.86
211.3728, 11640.70
211.8549, 11589.66
212.3370, 11615.94
212.8191, 11611.24
213.3013, 11605.26
213.7834, 11642.43
214.2655, 11600.10
214.7476, 11636.58
215.2297, 11641.60
215.7118, 11661.02
216.1940, 11649.27
216.6761, 11647.14
217.1582, 11676.20
217.6403, 11687.99
218.1224, 11672.64
218.6045, 11692.98
219.0867, 11649.56
219.5688, 11662.08
220.0509, 11705.20
220.5330, 11724.88
221.0151, 11726.58
221.4972, 11725.54
221.9794, 11718.96
222.4615, 11712.76
222.9436, 11715.14
223.4257, 11734.69
223.9078, 11744.42
224.3899, 11732.89
224.8721, 11696.77
225.3542, 11683.33
225.8363, 11706.71
226.3184, 11739.25
226.8005, 11744.77
227.2827, 11701.14
227.7648, 11673.33
228.2469, 11684.80
228.7290, 11743.98
229.2111, 11775.47
229.6932, 11767.37
230.1754, 11740.91
230.6575, 11724.21
231.1396, 11725.80
231.6217, 11721.99
232.1038, 11702.90
232.5859, 11662.81
233.0681, 11638.44
233.5502, 11632.94
234.0323, 11640.86
234.5144, 11656.24
234.9965, 11686.44
235.4786, 11711.45
235.9608, 11725.06
236.4429, 11725.59
236.9250, 11721.60
237.4071, 11710.76
237.8892, 11696.87
238.3713, 11686.01
238.8535, 11679.74
239.3356, 11673.80
239.8177, 11665.27
240.2998, 11650.70
240.7819, 11647.31
241.2640, 11658.19
241.7462, 11678.39
242.2283, 11701.39
242.7104, 11735.59
243.1925, 11758.63
243.6746, 11760.66
244.1567, 11733.82
244.6389, 11712.10
245.1210, 11694.05
245.6031, 11681.93
246.0852, 11681.79
246.5673, 11702.96
247.0494, 11720.14
247.5316, 11722.31
248.0137, 11702.00
248.4958, 11693.55
248.9779, 11707.10
249.4600, 11726.83
249.9421, 11719.68
250.4243, 11666.09
250.9064, 11620.54
251.3885, 11604.16
251.8706, 11624.91
252.3527, 11649.52
252.8348, 11681.06
253.3170, 11714.50
253.7991, 11740.47
254.2812, 11758.54
254.7633, 11769.41
255.2454, 11770.81
255.7275, 11757.63
256.2097, 11754.97
256.6918, 11768.02
257.1739, 11788.06
257.6560, 11799.04
258.1381, 11798.56
258.6202, 11793.88
259.1024, 11785.83
259.5845, 11771.64
260.0666, 11767.39
260.5487, 11779.65
261.0308, 11796.84
261.5129, 11795.55
261.9951, 11767.07
262.4772, 11740.95
262.9593, 11728.51
263.4414, 11731.02
263.9235, 11741.83
264.4056, 11764.80
264.8878, 11792.62
265.3699, 11811.83
265.8520, 11819.04
266.3341, 11827.96
266.8162, 11847.96
267.2983, 11883.54
267.7805, 11898.24
268.2626, 11885.38
268.7447, 11858.81
269.2268, 11839.76
269.7089, 11827.00
270.1910, 11826.37
270.6732, 11846.35
271.1553, 11890.87
271.6374, 11914.80
272.1195, 11913.22
272.6016, 11898.27
273.0837, 11889.03
273.5659, 11886.44
274.0480, 11884.48
274.5301, 11879.16
275.0122, 11870.13
275.4943, 11869.94
275.9764, 11880.35
276.4586, 11896.29
276.9407, 11911.63
277.4228, 11926.46
277.9049, 11938.18
278.3870, 11943.80
278.8691, 11943.77
279.3513, 11948.88
279.8334, 11960.15
280.3155, 11973.95
280.7976, 11989.28
281.2798, 12006.62
281.7619, 12011.57
282.2440, 11990.37
282.7261, 11948.45
283.2082, 11931.21
283.6903, 11943.39
284.1725, 11962.79
284.6546, 11958.41
285.1367, 11931.39
285.6188, 11910.72
286.1009, 11907.91
286.5830, 11919.88
287.0652, 11937.85
287.5473, 11963.72
288.0294, 11983.35
288.5115, 11972.42
288.9936, 11935.48
289.4757, 11911.05
289.9579, 11920.35
290.4400, 11949.24
290.9221, 11955.01
291.4042, 11935.89
291.8863, 11915.76
292.3684, 11924.80
292.8506, 11955.59
293.3327, 11975.41
293.8148, 11966.69
294.2969, 11944.96
294.7790, 11944.84
295.2611, 11966.36
295.7433, 11984.89
296.2254, 11971.25
296.7075, 11936.68
297.1896, 11913.08
297.6717, 11910.19
298.1538, 11921.87
298.6360, 11946.99
299.1181, 11983.96
299.6002, 12011.47
300.0823, 12001.17
300.5644, 11971.37
301.0465, 11958.14
301.5287, 11979.99
302.0108, 12010.81
302.4929, 12023.30
302.9750, 12019.00
303.4571, 12005.97
303.9392, 11974.52
304.4214, 11942.12
304.9035, 11934.55
305.3856, 11970.09
305.8677, 12012.78
306.3498, 12029.00
306.8319, 12024.91
307.3141, 12022.56
307.7962, 12037.35
308.2783, 12059.00
308.7604, 12079.73
309.2425, 12102.17
309.7246, 12113.26
310.2068, 12083.10
310.6889, 12032.37
311.1710, 12014.19
311.6531, 12099.62
312.1352, 12199.71
312.6173, 12244.22
313.0995, 12206.45
313.5816, 12157.06
314.0637, 12118.78
314.5458, 12092.30
315.0279, 12078.44
315.5100, 12093.32
315.9922, 12109.00
316.4743, 12106.87
316.9564, 12078.18
317.4385, 12059.06
317.9206, 12072.12
318.4027, 12099.44
318.8849, 12115.97
319.3670, 12109.34
319.8491, 12095.75
320.3312, 12075.94
320.8133, 12046.20
321.2954, 12033.56
321.7776, 12061.99
322.2597, 12102.73
322.7418, 12125.16
323.2239, 12102.82
323.7060, 12083.79
324.1881, 12081.42
324.6703, 12097.69
325.1524, 12110.14
325.6345, 12110.08
326.1166, 12109.30
326.5987, 12117.56
327.0808, 12161.44
327.5630, 12182.82
328.0451, 12160.79
328.5272, 12098.56
329.0093, 12067.64
329.4914, 12094.98
329.9735, 12129.78
330.4557, 12137.26
330.9378, 12090.53
331.4199, 12064.04
331.9020, 12071.86
332.3841, 12105.64
332.8662, 12123.67
333.3484, 12117.60
333.8305, 12108.19
334.3126, 12107.04
334.7947, 12117.22
335.2768, 12126.50
335.7589, 12135.21
336.2411, 12142.16
336.7232, 12142.93
337.2053, 12134.45
337.6874, 12128.79
338.1695, 12136.17
338.6516, 12160.03
339.1338, 12163.10
339.6159, 12137.73
340.0980, 12102.57
340.5801, 12091.85
341.0622, 12108.07
341.5443, 12124.73
342.0265, 12132.48
342.5086, 12131.60
342.9907, 12122.54
343.4728, 12103.19
343.9549, 12084.26
344.4370, 12079.96
344.9192, 12089.20
345.4013, 12101.94
345.8834, 12117.38
346.3655, 12132.97
346.8476, 12141.71
347.3297, 12143.56
347.8119, 12139.54
348.2940, 12119.58
348.7761, 12092.97
349.2582, 12090.25
349.7403, 12135.64
350.2225, 12192.77
350.7046, 12204.56
351.1867, 12176.06
351.6688, 12145.57
352.1509, 12141.77
352.6331, 12153.30
353.1152, 12163.40
353.5973, 12168.18
354.0794, 12171.00
354.5615, 12173.31
355.0436, 12175.78
355.5258, 12180.48
356.0079, 12196.71
356.4900, 12211.11
356.9721, 12210.24
357.4542, 12188.30
357.9363, 12163.74
358.4185, 12140.73
358.9006, 12122.75
359.3827, 12115.87
359.8648, 12144.23
360.3469, 12167.03
360.8290, 12152.19
361.3112, 12088.41
361.7933, 12051.05
362.2754, 12089.57
362.7575, 12156.92
363.2396, 12202.19
363.7217, 12198.02
364.2039, 12185.94
364.6860, 12169.90
365.1681, 12150.15
365.6502, 12146.59
366.1323, 12183.27
366.6144, 12223.58
367.0966, 12242.21
367.5787, 12209.24
368.0608, 12190.24
368.5429, 12197.73
369.0250, 12225.11
369.5071, 12237.34
369.9893, 12218.40
370.4714, 12202.86
370.9535, 12209.49
371.4356, 12253.63
371.9177, 12284.80
372.3998, 12300.00
372.8820, 12303.14
373.3641, 12299.45
373.8462, 12282.15
374.3283, 12275.91
374.8104, 12297.11
375.2925, 12350.23
375.7747, 12376.87
376.2568, 12369.83
376.7389, 12351.02
377.2210, 12350.31
377.7031, 12368.88
378.1852, 12388.73
378.6674, 12404.42
379.1495, 12417.01
379.6316, 12430.52
380.1137, 12444.52
380.5958, 12462.37
381.0779, 12486.47
381.5601, 12517.04
382.0422, 12555.17
382.5243, 12608.28
383.0064, 12660.80
383.4885, 12679.00
383.9706, 12667.80
384.4528, 12662.27
384.9349, 12691.22
385.4170, 12740.21
385.8991, 12787.92
386.3812, 12833.48
386.8633, 12871.37
387.3455, 12887.79
387.8276, 12892.20
388.3097, 12906.71
388.7918, 12953.13
389.2739, 13007.13
389.7560, 13049.71
390.2382, 13078.88
390.7203, 13102.74
391.2024, 13122.11
391.6845, 13139.66
392.1666, 13158.70
392.6487, 13163.41
393.1309, 13185.64
393.6130, 13255.18
394.0951, 13366.00
394.5772, 13446.03
395.0593, 13441.39
395.5414, 13422.77
396.0236, 13434.42
396.5057, 13513.04
396.9878, 13585.97
397.4699, 13644.42
397.9520, 13691.92
398.4341, 13738.96
398.9163, 13784.20
399.3984, 13830.33
399.8805, 13877.97
400.3626, 13926.31
400.8447, 13978.73
401.3268, 14036.59
401.8090, 14097.51
402.2911, 14159.91
402.7732, 14224.46
403.2553, 14286.84
403.7374, 14343.59
404.2195, 14395.51
404.7017, 14459.50
405.1838, 14539.97
405.6659, 14621.31
406.1480, 14681.15
406.6301, 14719.00
407.1122, 14786.98
407.5944, 14906.49
408.0765, 15049.45
408.5586, 15142.00
409.0407, 15185.44
409.5228, 15224.48
410.0049, 15289.19
410.4871, 15371.78
410.9692, 15453.70
411.4513, 15534.93
411.9334, 15608.71
412.4155, 15655.62
412.8976, 15688.15
413.3798, 15739.89
413.8619, 15854.35
414.3440, 15980.34
414.8261, 16062.81
415.3082, 16100.89
415.7903, 16128.23
416.2725, 16163.88
416.7546, 16202.53
417.2367, 16238.98
417.7188, 16269.42
418.2009, 16298.73
418.6830, 16335.19
419.1652, 16373.97
419.6473, 16395.92
420.1294, 16383.33
420.6115, 16360.85
421.0937, 16342.32
421.5758, 16335.69
422.0579, 16320.42
422.5400, 16285.61
423.0221, 16242.27
423.5042, 16207.77
423.9864, 16190.83
424.4685, 16173.93
424.9506, 16151.56
425.4327, 16123.11
425.9148, 16101.09
426.3969, 16086.06
426.8791, 16076.82
427.3612, 16073.86
427.8433, 16080.29
428.3254, 16083.77
428.8075, 16084.09
429.2896, 16079.69
429.7718, 16065.07
430.2539, 16039.64
430.7360, 16007.46
431.2181, 15958.79
431.7002, 15897.21
432.1823, 15881.04
432.6645, 15920.29
433.1466, 15981.44
433.6287, 16028.71
434.1108, 16060.86
434.5929, 16069.98
435.0750, 16031.79
435.5572, 15977.39
436.0393, 15971.29
436.5214, 16011.02
437.0035, 16043.70
437.4856, 16019.04
437.9677, 15964.12
438.4499, 15916.38
438.9320, 15887.53
439.4141, 15864.34
439.8962, 15837.34
440.3783, 15808.79
440.8604, 15783.70
441.3426, 15766.17
441.8247, 15751.67
442.3068, 15738.58
442.7889, 15727.48
443.2710, 15714.12
443.7531, 15691.65
444.2353, 15668.62
444.7174, 15654.06
445.1995, 15656.33
445.6816, 15659.69
446.1637, 15661.12
446.6458, 15660.97
447.1280, 15663.50
447.6101, 15668.68
448.0922, 15676.63
448.5743, 15689.75
449.0564, 15717.13
449.5385, 15723.00
450.0207, 15696.08
450.5028, 15656.76
450.9849, 15643.45
451.4670, 15658.83
451.9491, 15687.67
452.4312, 15730.52
452.9134, 15784.03
453.3955, 15826.92
453.8776, 15860.32
454.3597, 15874.63
454.8418, 15841.07
455.3239, 15774.74
455.8061, 15743.30
456.2882, 15774.14
456.7703, 15827.04
457.2524, 15845.82
457.7345, 15836.51
458.2166, 15823.97
458.6988, 15814.95
459.1809, 15814.52
459.6630, 15832.74
460.1451, 15873.66
460.6272, 15911.85
461.1093, 15932.44
461.5915, 15940.50
462.0736, 15941.84
462.5557, 15927.69
463.0378, 15917.66
463.5199, 15925.17
464.0020, 15946.75
464.4842, 15956.29
464.9663, 15939.09
465.4484, 15915.19
465.9305, 15895.19
466.4126, 15883.94
466.8947, 15868.42
467.3769, 15847.89
467.8590, 15823.52
468.3411, 15796.33
468.8232, 15764.21
469.3053, 15733.77
469.7874, 15707.49
470.2696, 15684.97
470.7517, 15657.74
471.2338, 15623.97
471.7159, 15591.33
472.1980, 15559.58
472.6801, 15529.37
473.1623, 15538.62
473.6444, 15609.81
474.1265, 15689.04
474.6086, 15677.51
475.0907, 15585.11
475.5728, 15475.93
476.0550, 15367.42
476.5371, 15269.03
477.0192, 15192.70
477.5013, 15138.12
477.9834, 15117.78
478.4655, 15189.15
478.9477, 15285.78
479.4298, 15317.83
479.9119, 15218.72
480.3940, 15100.04
480.8761, 15017.06
481.3582, 14960.27
481.8404, 14903.53
482.3225, 14829.80
482.8046, 14761.29
483.2867, 14709.43
483.7688, 14680.58
484.2509, 14649.57
484.7331, 14601.58
485.2152, 14557.29
485.6973, 14537.17
486.1794, 14563.09
486.6615, 14575.66
487.1436, 14564.68
487.6258, 14533.99
488.1079, 14499.99
488.5900, 14461.02
489.0721, 14423.92
489.5542, 14398.65
490.0363, 14385.44
490.5185, 14338.11
491.0006, 14244.08
491.4827, 14155.33
491.9648, 14156.26
492.4470, 14230.67
492.9291, 14291.00
493.4112, 14305.35
493.8933, 14290.19
494.3754, 14258.68
494.8575, 14214.33
495.3397, 14181.29
495.8218, 14181.60
496.3039, 14198.13
496.7860, 14213.95
497.2681, 14227.97
497.7502, 14236.26
498.2324, 14227.50
498.7145, 14214.43
499.1966, 14214.22
499.6787, 14245.08
500.1608, 14276.36
500.6429, 14297.24
501.1251, 14308.41
501.6072, 14324.13
502.0893, 14356.84
502.5714, 14384.38
503.0535, 14394.28
503.5356, 14372.47
504.0178, 14367.61
504.4999, 14386.67
504.9820, 14416.43
505.4641, 14438.21
505.9462, 14451.64
506.4283, 14458.93
506.9105, 14460.45
507.3926, 14456.29
507.8747, 14448.20
508.3568, 14436.40
508.8389, 14415.23
509.3210, 14365.87
509.8032, 14303.60
510.2853, 14274.79
510.7674, 14290.89
511.2495, 14316.14
511.7316, 14322.14
512.2137, 14309.73
512.6959, 14280.85
513.1780, 14222.13
513.6601, 14158.92
514.1422, 14103.24
514.6243, 14055.94
515.1064, 14021.25
515.5886, 14019.76
516.0707, 14018.00
516.5528, 13993.54
517.0349, 13927.35
517.5170, 13871.96
517.9991, 13832.55
518.4813, 13806.87
518.9634, 13794.39
519.4455, 13807.28
519.9276, 13811.97
520.4097, 13797.43
520.8918, 13768.17
521.3740, 13751.70
521.8561, 13748.71
522.3382, 13756.26
522.8203, 13779.19
523.3024, 13815.66
523.7845, 13832.66
524.2667, 13823.99
524.7488, 13812.91
525.2309, 13833.99
525.7130, 13878.06
526.1951, 13911.77
526.6772, 13912.44
527.1594, 13908.21
527.6415, 13938.04
528.1236, 13994.20
528.6057, 14043.55
529.0878, 14047.40
529.5699, 14049.76
530.0521, 14089.43
530.5342, 14182.25
531.0163, 14264.11
531.4984, 14302.21
531.9805, 14325.00
532.4626, 14362.96
532.9448, 14444.16
533.4269, 14511.19
533.9090, 14544.54
534.3911, 14557.63
534.8732, 14604.08
535.3553, 14702.68
535.8375, 14800.62
536.3196, 14869.80
536.8017, 14908.89
537.2838, 14966.91
537.7659, 15046.21
538.2480, 15138.63
538.7302, 15239.41
539.2123, 15347.94
539.6944, 15451.23
540.1765, 15540.31
540.6586, 15634.38
541.1407, 15769.57
541.6229, 15936.93
542.1050, 16106.05
542.5871, 16265.60
543.0692, 16416.59
543.5513, 16558.77
544.0334, 16690.95
544.5156, 16813.29
544.9977, 16917.55
545.4798, 17016.76
545.9619, 17119.45
546.4440, 17220.69
546.9261, 17335.36
547.4083, 17496.81
547.8904, 17667.04
548.3725, 17773.41
548.8546, 17780.23
549.3367, 17782.32
549.8188, 17798.52
550.3010, 17828.80
550.7831, 17878.37
551.2652, 17955.22
551.7473, 18024.93
552.2294, 18065.11
552.7115, 18076.61
553.1937, 18058.50
553.6758, 18004.95
554.1579, 17945.73
554.6400, 17926.25
555.1221, 17931.85
555.6042, 17920.48
556.0864, 17865.78
556.5685, 17798.89
557.0506, 17753.12
557.5327, 17721.87
558.0148, 17681.28
558.4969, 17621.24
558.9791, 17546.81
559.4612, 17452.52
559.9433, 17328.69
560.4254, 17235.07
560.9075, 17200.78
561.3896, 17191.79
561.8718, 17178.48
562.3539, 17171.97
562.8360, 17139.20
563.3181, 17059.99
563.8002, 16961.90
564.2823, 16914.87
564.7645, 16929.26
565.2466, 16949.94
565.7287, 16954.10
566.2108, 16946.64
566.6929, 16953.60
567.1750, 16975.49
567.6572, 16999.11
568.1393, 17007.70
568.6214, 17010.73
569.1035, 17027.21
569.5856, 17061.33
570.0677, 17104.62
570.5499, 17168.22
571.0320, 17233.01
571.5141, 17269.36
571.9962, 17249.94
572.4783, 17216.43
572.9604, 17175.97
573.4426, 17132.46
573.9247, 17103.22
574.4068, 17099.12
574.8889, 17103.24
575.3710, 17114.42
575.8531, 17139.24
576.3353, 17133.75
576.8174, 17084.80
577.2995, 17025.14
577.7816, 16981.62
578.2637, 16954.19
578.7458, 16951.64
579.2280, 16985.17
579.7101, 17025.91
580.1922, 17018.08
580.6743, 16968.46
581.1564, 16915.31
581.6385, 16875.93
582.1207, 16843.19
582.6028, 16806.22
583.0849, 16766.66
583.5670, 16734.73
584.0491, 16727.26
584.5313, 16723.03
585.0134, 16705.50
585.4955, 16670.15
585.9776, 16628.39
586.4597, 16573.79
586.9418, 16518.24
587.4240, 16476.50
587.9061, 16463.65
588.3882, 16440.32
588.8703, 16395.60
589.3524, 16339.52
589.8345, 16302.29
590.3167, 16287.06
590.7988, 16278.82
591.2809, 16273.63
591.7630, 16270.49
592.2451, 16262.69
592.7272, 16249.87
593.2094, 16240.59
593.6915, 16247.35
594.1736, 16261.60
594.6557, 16267.65
595.1378, 16262.96
595.6199, 16249.54
596.1021, 16206.60
596.5842, 16161.74
597.0663, 16154.36
597.5485, 16254.07
598.0306, 16333.76
598.5127, 16340.50
598.9948, 16290.19
599.4769, 16254.45
599.9590, 16260.72
600.4412, 16253.72
600.9233, 16207.10
601.4054, 16115.77
601.8875, 16065.85
602.3696, 16069.87
602.8517, 16085.49
603.3339, 16081.22
603.8160, 16057.54
604.2981, 16015.15
604.7802, 15950.45
605.2623, 15881.32
605.7444, 15838.30
606.2266, 15810.13
606.7087, 15767.66
607.1908, 15674.66
607.6729, 15588.64
608.1550, 15576.30
608.6371, 15612.29
609.1193, 15613.85
609.6014, 15505.10
610.0835, 15390.66
610.5656, 15326.61
611.0477, 15324.60
611.5298, 15307.29
612.0120, 15260.38
612.4941, 15209.30
612.9762, 15173.95
613.4583, 15164.07
613.9404, 15132.58
614.4225, 15070.79
614.9047, 14999.18
615.3868, 14944.47
615.8689, 14905.68
616.3510, 14876.15
616.8331, 14854.83
617.3152, 14840.49
617.7974, 14837.75
618.2795, 14842.09
618.7616, 14836.01
619.2437, 14786.72
619.7258, 14740.63
620.2079, 14740.89
620.6901, 14789.17
621.1722, 14827.46
621.6543, 14819.21
622.1364, 14805.96
622.6185, 14816.99
623.1006, 14874.08
623.5828, 14908.32
624.0649, 14899.60
624.5470, 14886.46
625.0291, 14922.41
625.5112, 15020.25
625.9933, 15096.97
626.4755, 15131.60
626.9576, 15144.27
627.4397, 15173.78
627.9218, 15218.80
628.4039, 15269.08
628.8860, 15322.88
629.3682, 15377.50
629.8503, 15429.21
630.3324, 15478.16
630.8145, 15524.13
631.2966, 15564.37
631.7787, 15602.85
632.2609, 15645.80
632.7430, 15700.09
633.2251, 15734.66
633.7072, 15723.01
634.1893, 15701.31
634.6714, 15701.72
635.1536, 15745.42
635.6357, 15763.52
636.1178, 15745.65
636.5999, 15705.58
637.0820, 15665.81
637.5641, 15626.46
638.0463, 15587.64
638.5284, 15546.10
639.0105, 15507.57
639.4926, 15492.64
639.9747, 15495.20
640.4568, 15480.72
640.9390, 15420.45
641.4211, 15338.25
641.9032, 15248.66
642.3853, 15153.17
642.8674, 15072.50
643.3495, 15024.96
643.8317, 14988.71
644.3138, 14948.12
644.7959, 14899.26
645.2780, 14851.14
645.7601, 14806.27
646.2422, 14760.16
646.7244, 14709.07
647.2065, 14655.66
647.6886, 14581.47
648.1707, 14473.15
648.6528, 14357.90
649.1349, 14296.21
649.6171, 14281.57
650.0992, 14265.69
650.5813, 14218.43
651.0634, 14162.37
651.5455, 14124.08
652.0276, 14101.57
652.5098, 14086.12
652.9919, 14096.89
653.4740, 14094.73
653.9561, 14042.61
654.4382, 13922.66
654.9203, 13842.10
655.4025, 13843.11
655.8846, 13863.55
656.3667, 13863.48
656.8488, 13836.79
657.3309, 13805.62
657.8130, 13766.60
658.2952, 13730.42
658.7773, 13718.14
659.2594, 13726.97
659.7415, 13723.08
660.2236, 13691.89
660.7057, 13653.45
661.1879, 13632.71
661.6700, 13628.02
662.1521, 13635.18
662.6342, 13672.17
663.1163, 13703.07
663.5984, 13693.92
664.0806, 13651.27
664.5627, 13631.40
665.0448, 13687.36
665.5269, 13732.90
666.0090, 13726.94
666.4911, 13660.83
666.9733, 13606.72
667.4554, 13563.65
667.9375, 13534.45
668.4196, 13528.27
668.9017, 13543.96
669.3839, 13542.69
669.8660, 13517.43
670.3481, 13491.95
670.8302, 13503.24
671.3123, 13534.48
671.7944, 13547.66
672.2766, 13518.83
672.7587, 13488.64
673.2408, 13483.17
673.7229, 13495.37
674.2050, 13511.30
674.6871, 13541.95
675.1693, 13559.64
675.6514, 13547.68
676.1335, 13514.03
676.6156, 13502.70
677.0977, 13526.77
677.5798, 13543.08
678.0620, 13527.02
678.5441, 13483.33
679.0262, 13461.98
679.5083, 13463.87
679.9904, 13470.33
680.4725, 13459.99
680.9547, 13445.88
681.4368, 13457.54
681.9189, 13501.82
682.4010, 13537.46
682.8831, 13526.06
683.3652, 13496.84
683.8474, 13479.78
684.3295, 13494.19
684.8116, 13500.77
685.2937, 13478.65
685.7758, 13452.50
686.2579, 13459.11
686.7401, 13517.79
687.2222, 13554.99
687.7043, 13552.67
688.1864, 13525.75
688.6685, 13505.04
689.1506, 13490.86
689.6328, 13488.87
690.1149, 13513.67
690.5970, 13544.28
691.0791, 13543.61
691.5612, 13517.77
692.0433, 13498.08
692.5255, 13508.99
693.0076, 13525.00
693.4897, 13527.36
693.9718, 13512.77
694.4539, 13508.88
694.9360, 13534.02
695.4182, 13557.18
695.9003, 13560.03
696.3824, 13535.66
696.8645, 13519.82
697.3466, 13512.95
697.8287, 13513.50
698.3109, 13527.41
698.7930, 13549.78
699.2751, 13550.25
699.7572, 13517.88
700.2393, 13483.84
700.7214, 13483.36
701.2036, 13503.04
701.6857, 13520.60
702.1678, 13528.05
702.6499, 13532.11
703.1320, 13533.80
703.6141, 13533.94
704.0963, 13534.71
704.5784, 13536.90
705.0605, 13538.08
705.5426, 13533.60
706.0247, 13528.04
706.5068, 13545.54
706.9890, 13589.00
707.4711, 13631.72
707.9532, 13665.79
708.4353, 13687.53
708.9174, 13680.61
709.3995, 13647.46
709.8817, 13611.71
710.3638, 13575.33
710.8459, 13553.09
711.3280, 13567.60
711.8101, 13626.92
712.2922, 13668.98
712.7744, 13668.42
713.2565, 13650.35
713.7386, 13629.92
714.2207, 13597.36
714.7028, 13590.18
715.1849, 13616.74
715.6671, 13654.10
716.1492, 13684.14
716.6313, 13705.38
717.1134, 13695.55
717.5955, 13640.90
718.0776, 13586.68
718.5598, 13600.88
719.0419, 13654.70
719.5240, 13692.40
720.0061, 13691.95
720.4882, 13674.01
720.9703, 13631.21
721.4525, 13578.87
721.9346, 13551.67
722.4167, 13567.05
722.8988, 13591.99
723.3809, 13628.47
723.8630, 13669.25
724.3452, 13679.75
724.8273, 13655.01
725.3094, 13635.75
725.7915, 13650.21
726.2736, 13680.64
726.7557, 13674.23
727.2379, 13635.92
727.7200, 13604.59
728.2021, 13609.77
728.6842, 13629.53
729.1663, 13647.33
729.6484, 13661.62
730.1306, 13676.73
730.6127, 13703.64
731.0948, 13723.24
731.5769, 13723.72
732.0590, 13698.77
732.5411, 13681.15
733.0233, 13672.39
733.5054, 13667.52
733.9875, 13656.79
734.4696, 13643.40
734.9517, 13659.08
735.4338, 13713.28
735.9160, 13760.91
736.3981, 13745.10
736.8802, 13696.58
737.3623, 13659.98
737.8444, 13647.82
738.3266, 13647.88
738.8087, 13662.95
739.2908, 13684.92
739.7729, 13702.10
740.2551, 13715.99
740.7372, 13721.49
741.2193, 13715.92
741.7014, 13703.40
742.1835, 13690.00
742.6656, 13675.74
743.1478, 13669.04
743.6299, 13673.67
744.1120, 13685.87
744.5941, 13704.09
745.0762, 13725.48
745.5583, 13741.70
746.0405, 13742.66
746.5226, 13742.73
747.0047, 13750.98
747.4868, 13765.88
747.9689, 13777.41
748.4510, 13783.20
748.9332, 13787.12
749.4153, 13791.91
749.8974, 13796.66
750.3795, 13787.91
750.8616, 13763.60
751.3438, 13742.04
751.8259, 13736.41
752.3080, 13741.80
752.7901, 13745.61
753.2722, 13747.91
753.7543, 13755.30
754.2365, 13780.75
754.7186, 13807.20
755.2007, 13819.63
755.6828, 13814.19
756.1649, 13808.48
756.6470, 13803.59
757.1292, 13800.82
757.6113, 13801.23
758.0934, 13805.49
758.5755, 13813.25
759.0576, 13828.77
759.5397, 13833.74
760.0219, 13792.13
760.5040, 13723.46
760.9861, 13695.43
761.4682, 13724.20
761.9503, 13763.73
762.4324, 13787.56
762.9146, 13797.41
763.3967, 13794.34
763.8788, 13764.82
764.3609, 13744.84
764.8430, 13739.11
765.3251, 13746.70
765.8073, 13771.20
766.2894, 13820.46
766.7715, 13855.80
767.2536, 13871.88
767.7357, 13871.40
768.2178, 13851.38
768.7000, 13816.81
769.1821, 13788.59
769.6642, 13772.50
770.1463, 13766.32
770.6284, 13777.36
771.1105, 13795.74
771.5927, 13802.40
772.0748, 13785.26
772.5569, 13762.12
773.0390, 13720.40
773.5211, 13678.72
774.0032, 13696.18
774.4854, 13796.16
774.9675, 13865.65
775.4496, 13861.93
775.9317, 13813.95
776.4138, 13789.22
776.8959, 13785.38
777.3781, 13788.42
777.8602, 13795.69
778.3423, 13803.06
778.8244, 13809.03
779.3065, 13812.64
779.7886, 13810.18
780.2708, 13786.53
780.7529, 13771.78
781.2350, 13779.62
781.7171, 13806.73
782.1992, 13819.95
782.6813, 13814.73
783.1635, 13813.58
783.6456, 13836.80
784.1277, 13871.54
784.6098, 13867.40
785.0919, 13828.77
785.5740, 13798.94
786.0562, 13819.85
786.5383, 13851.10
787.0204, 13852.48
787.5025, 13822.02
787.9846, 13810.06
788.4667, 13855.60
788.9489, 13896.00
789.4310, 13902.59
789.9131, 13873.05
790.3952, 13849.85
790.8773, 13831.59
791.3594, 13827.05
791.8416, 13853.58
792.3237, 13897.65
792.8058, 13922.39
793.2879, 13926.40
793.7700, 13924.11
794.2521, 13918.45
794.7343, 13915.62
795.2164, 13926.12
795.6985, 13959.56
796.1806, 13964.37
796.6627, 13898.49
797.1448, 13843.78
797.6270, 13864.58
798.1091, 13976.18
798.5912, 14036.99
799.0733, 14041.77
799.5554, 14021.55
800.0375, 13992.40
800.5197, 13963.65
801.0018, 13959.29
801.4839, 13986.35
801.9660, 14005.17
802.4481, 13973.01
802.9302, 13933.71
803.4124, 13926.74
803.8945, 13981.44
804.3766, 14014.49
804.8587, 14016.93
805.3408, 14009.54
805.8229, 14010.78
806.3051, 14020.60
806.7872, 14028.20
807.2693, 14031.60
807.7514, 14039.53
808.2335, 14075.53
808.7156, 14116.97
809.1978, 14123.51
809.6799, 14072.43
810.1620, 14034.81
810.6441, 14045.87
811.1262, 14081.49
811.6083, 14119.63
812.0905, 14169.64
812.5726, 14198.09
813.0547, 14200.26
813.5368, 14188.22
814.0189, 14170.30
814.5010, 14148.80
814.9832, 14138.53
815.4653, 14143.41
815.9474, 14152.49
816.4295, 14151.32
816.9116, 14150.19
817.3937, 14163.99
817.8759, 14210.99
818.3580, 14243.72
818.8401, 14232.92
819.3222, 14216.34
819.8043, 14232.92
820.2864, 14292.92
820.7686, 14340.35
821.2507, 14370.98
821.7328, 14384.97
822.2149, 14369.51
822.6970, 14338.04
823.1791, 14326.27
823.6613, 14346.92
824.1434, 14372.85
824.6255, 14389.38
825.1076, 14399.83
825.5897, 14407.62
826.0718, 14410.92
826.5540, 14414.45
827.0361, 14414.39
827.5182, 14419.02
828.0003, 14441.54
828.4824, 14481.50
828.9645, 14515.51
829.4467, 14537.76
829.9288, 14562.65
830.4109, 14614.02
830.8930, 14676.34
831.3751, 14725.72
831.8572, 14751.26
832.3394, 14773.14
832.8215, 14806.16
833.3036, 14834.52
833.7857, 14838.15
834.2678, 14798.60
834.7499, 14791.72
835.2321, 14831.20
835.7142, 14882.94
836.1963, 14902.62
836.6784, 14898.13
837.1605, 14894.75
837.6426, 14894.78
838.1248, 14908.11
838.6069, 14955.38
839.0890, 15014.01
839.5711, 15058.41
840.0532, 15077.18
840.5353, 15092.67
841.0175, 15109.42
841.4996, 15120.74
841.9817, 15110.91
842.4638, 15077.63
842.9459, 15086.32
843.4280, 15149.50
843.9102, 15221.75
844.3923, 15253.17
844.8744, 15260.32
845.3565, 15269.83
845.8386, 15289.24
846.3207, 15303.26
846.8029, 15305.10
847.2850, 15299.06
847.7671, 15288.10
848.2492, 15267.08
848.7313, 15255.04
849.2134, 15252.04
849.6956, 15258.17
850.1777, 15282.59
850.6598, 15316.83
851.1419, 15327.66
851.6240, 15309.13
852.1061, 15287.92
852.5883, 15281.30
853.0704, 15283.19
853.5525, 15289.73
854.0346, 15304.68
854.5167, 15309.62
854.9988, 15299.97
855.4810, 15285.19
855.9631, 15271.59
856.4452, 15259.17
856.9273, 15245.89
857.4094, 15232.06
857.8915, 15213.75
858.3737, 15180.99
858.8558, 15145.32
859.3379, 15124.15
859.8200, 15120.85
860.3021, 15113.40
860.7842, 15083.12
861.2664, 15056.07
861.7485, 15049.93
862.2306, 15068.12
862.7127, 15069.16
863.1948, 15049.05
863.6769, 15029.41
864.1591, 15028.69
864.6412, 15039.05
865.1233, 15040.48
865.6054, 15033.14
866.0875, 15027.94
866.5696, 15041.07
867.0518, 15050.29
867.5339, 15037.63
868.0160, 15000.52
868.4981, 14973.15
868.9802, 14954.94
869.4623, 14948.17
869.9445, 14960.65
870.4266, 14985.19
870.9087, 14983.02
871.3908, 14956.90
871.8729, 14936.43
872.3550, 14946.82
872.8372, 14964.42
873.3193, 14966.89
873.8014, 14957.39
874.2835, 14956.59
874.7656, 14989.34
875.2477, 15005.48
875.7299, 14981.45
876.2120, 14933.64
876.6941, 14933.49
877.1762, 14980.84
877.6583, 15017.36
878.1404, 15008.44
878.6226, 14984.63
879.1047, 14984.37
879.5869, 15001.88
880.0690, 15022.14
880.5511, 15035.58
881.0332, 15055.76
881.5153, 15094.93
881.9974, 15140.69
882.4796, 15167.49
882.9617, 15172.39
883.4438, 15173.20
883.9259, 15170.13
884.4080, 15172.88
884.8901, 15204.51
885.3723, 15253.55
885.8544, 15292.36
886.3365, 15301.12
886.8186, 15314.21
887.3007, 15350.23
887.7828, 15397.94
888.2650, 15442.39
888.7471, 15485.18
889.2292, 15519.03
889.7113, 15544.20
890.1934, 15558.37
890.6755, 15547.98
891.1577, 15524.13
891.6398, 15524.67
892.1219, 15560.90
892.6040, 15599.74
893.0861, 15600.54
893.5682, 15603.05
894.0504, 15651.13
894.5325, 15787.38
895.0146, 15871.27
895.4967, 15885.54
895.9788, 15879.22
896.4609, 15891.96
896.9431, 15920.27
897.4252, 15936.97
897.9073, 15940.44
898.3894, 15958.33
898.8715, 16033.70
899.3536, 16117.14
899.8358, 16159.02
900.3179, 16149.30
900.8000, 16170.04
901.2821, 16253.25
901.7642, 16331.38
902.2463, 16368.27
902.7285, 16371.56
903.2106, 16404.43
903.6927, 16466.24
904.1748, 16540.94
904.6569, 16647.28
905.1390, 16741.21
905.6212, 16758.45
906.1033, 16718.50
906.5854, 16709.76
907.0675, 16794.06
907.5496, 16866.71
908.0317, 16893.31
908.5139, 16894.94
908.9960, 16939.87
909.4781, 17028.17
909.9602, 17121.79
910.4423, 17209.16
910.9244, 17291.08
911.4066, 17364.35
911.8887, 17432.94
912.3708, 17505.26
912.8529, 17592.65
913.3350, 17672.12
913.8171, 17734.49
914.2993, 17790.22
914.7814, 17852.23
915.2635, 17920.76
915.7456, 17991.86
916.2277, 18064.73
916.7098, 18141.50
917.1920, 18223.10
917.6741, 18309.90
918.1562, 18404.75
918.6383, 18511.97
919.1204, 18610.01
919.6025, 18676.21
920.0847, 18744.26
920.5668, 18841.42
921.0489, 18976.02
921.5310, 19072.96
922.0131, 19125.42
922.4952, 19193.40
922.9774, 19339.24
923.4595, 19524.49
923.9416, 19695.88
924.4237, 19849.88
924.9058, 19999.30
925.3879, 20152.46
925.8701, 20299.67
926.3522, 20432.10
926.8343, 20554.71
927.3164, 20705.81
927.7985, 20888.82
928.2806, 21075.42
928.7628, 21252.90
929.2449, 21423.68
929.7270, 21581.98
930.2091, 21737.20
930.6912, 21919.45
931.1733, 22204.48
931.6555, 22440.88
932.1376, 22532.13
932.6197, 22567.34
933.1018, 22704.67
933.5839, 22963.82
934.0660, 23179.71
934.5482, 23313.96
935.0303, 23428.84
935.5124, 23616.75
935.9945, 23841.95
936.4766, 24035.68
936.9587, 24167.84
937.4409, 24315.65
937.9230, 24550.77
938.4051, 24776.67
938.8872, 24905.26
939.3693, 24907.84
939.8514, 24993.34
940.3336, 25167.62
940.8157, 25378.94
941.2978, 25606.93
941.7799, 25835.40
942.2620, 26039.62
942.7441, 26218.43
943.2263, 26394.84
943.7084, 26553.78
944.1905, 26733.63
944.6726, 26951.64
945.1547, 27202.83
945.6368, 27459.72
946.1190, 27725.33
946.6011, 27979.69
947.0832, 28202.84
947.5653, 28422.96
948.0474, 28687.27
948.5295, 28980.69
949.0117, 29268.17
949.4938, 29530.05
949.9759, 29794.61
950.4580, 30072.89
950.9401, 30353.84
951.4222, 30615.93
951.9044, 30859.95
952.3865, 31103.54
952.8686, 31350.43
953.3507, 31592.95
953.8328, 31841.78
954.3149, 32072.45
954.7971, 32248.54
955.2792, 32343.49
955.7613, 32446.80
956.2434, 32592.57
956.7255, 32726.11
957.2076, 32811.06
957.6898, 32848.95
958.1719, 32891.59
958.6540, 32938.89
959.1361, 32963.78
959.6182, 32935.65
960.1003, 32886.43
960.5825, 32841.63
961.0646, 32801.52
961.5467, 32760.09
962.0288, 32705.84
962.5109, 32668.10
962.9930, 32662.48
963.4752, 32671.05
963.9573, 32630.28
964.4394, 32554.82
964.9215, 32534.58
965.4036, 32609.05
965.8857, 32729.08
966.3679, 32865.77
966.8500, 33019.18
967.3321, 33191.32
967.8142, 33368.71
968.2963, 33587.69
968.7784, 33848.38
969.2606, 34147.32
969.7427, 34494.81
970.2248, 34875.43
970.7069, 35229.30
971.1890, 35550.88
971.6711, 35877.30
972.1533, 36208.97
972.6354, 36569.53
973.1175, 36984.50
973.5996, 37452.59
974.0817, 37901.30
974.5638, 38329.44
975.0460, 38741.55
975.5281, 39148.09
976.0102, 39537.41
976.4923, 39889.27
976.9744, 40206.00
977.4565, 40494.50
977.9387, 40748.25
978.4208, 40985.40
978.9029, 41202.73
979.3850, 41410.45
979.8671, 41628.18
980.3492, 41860.74
980.8314, 42070.80
981.3135, 42256.34
981.7956, 42412.13
982.2777, 42541.17
982.7598, 42635.63
983.2419, 42679.63
983.7241, 42667.41
984.2062, 42634.75
984.6883, 42597.32
985.1704, 42534.94
985.6525, 42439.59
986.1346, 42311.00
986.6168, 42145.54
987.0989, 41943.35
987.5810, 41708.93
988.0631, 41420.70
988.5452, 41120.59
989.0273, 40873.31
989.5095, 40646.89
989.9916, 40360.90
990.4737, 39980.79
990.9558, 39562.93
991.4379, 39103.98
991.9200, 38630.25
992.4022, 38190.66
992.8843, 37777.66
993.3664, 37338.91
993.8485, 36867.19
994.3306, 36381.83
994.8127, 35890.00
995.2949, 35394.03
995.7770, 34901.36
996.2591, 34415.67
996.7412, 33914.96
997.2233, 33399.15
997.7054, 32884.66
998.1876, 32371.17
998.6697, 31872.68
999.1518, 31425.14
999.6339, 31014.87
1000.116, 30582.12
1000.598, 30061.28
1001.080, 29553.26
1001.562, 29083.53
1002.044, 28648.77
1002.527, 28235.21
1003.009, 27845.89
1003.491, 27480.06
1003.973, 27145.84
1004.455, 26829.24
1004.937, 26535.79
1005.419, 26246.76
1005.901, 25934.25
1006.384, 25577.37
1006.866, 25272.97
1007.348, 25057.12
1007.830, 24856.63
1008.312, 24631.24
1008.794, 24386.68
1009.276, 24144.14
1009.758, 23906.13
1010.240, 23685.08
1010.723, 23495.00
1011.205, 23317.50
1011.687, 23140.89
1012.169, 22968.48
1012.651, 22808.09
1013.133, 22657.09
1013.615, 22526.48
1014.097, 22426.66
1014.580, 22323.60
1015.062, 22158.08
1015.544, 21960.56
1016.026, 21788.22
1016.508, 21655.07
1016.990, 21532.84
1017.472, 21414.89
1017.954, 21300.66
1018.436, 21189.40
1018.919, 21081.99
1019.401, 20978.38
1019.883, 20878.60
1020.365, 20779.34
1020.847, 20677.37
1021.329, 20576.12
1021.811, 20472.29
1022.293, 20372.67
1022.776, 20292.93
1023.258, 20270.55
1023.740, 20205.56
1024.222, 20069.34
1024.704, 19918.61
1025.186, 19843.30
1025.668, 19820.01
1026.150, 19771.19
1026.632, 19684.71
1027.115, 19587.45
1027.597, 19472.62
1028.079, 19372.57
1028.561, 19317.16
1029.043, 19303.29
1029.525, 19263.09
1030.007, 19194.15
1030.489, 19123.62
1030.972, 19056.31
1031.454, 19003.24
1031.936, 19009.99
1032.418, 19038.03
1032.900, 19005.23
1033.382, 18777.20
1033.864, 18646.32
1034.346, 18683.71
1034.828, 18767.72
1035.311, 18757.50
1035.793, 18667.96
1036.275, 18595.33
1036.757, 18546.80
1037.239, 18512.77
1037.721, 18495.77
1038.203, 18482.47
1038.685, 18465.79
1039.167, 18444.99
1039.650, 18416.83
1040.132, 18380.10
1040.614, 18341.87
1041.096, 18304.32
1041.578, 18268.30
1042.060, 18230.08
1042.542, 18196.53
1043.024, 18182.03
1043.507, 18207.23
1043.989, 18218.79
1044.471, 18197.17
1044.953, 18170.77
1045.435, 18163.55
1045.917, 18173.51
1046.399, 18175.32
1046.881, 18168.45
1047.364, 18152.97
1047.846, 18119.57
1048.328, 18086.26
1048.810, 18066.98
1049.292, 18058.96
1049.774, 18050.43
1050.256, 18048.61
1050.738, 18013.32
1051.220, 17923.21
1051.703, 17832.95
1052.185, 17837.67
1052.667, 17893.10
1053.149, 17922.08
1053.631, 17901.36
1054.113, 17893.43
1054.595, 17933.33
1055.077, 17968.73
1055.559, 17972.35
1056.042, 17948.07
1056.524, 17919.54
1057.006, 17887.29
1057.488, 17855.87
1057.970, 17814.60
1058.452, 17788.53
1058.934, 17798.23
1059.416, 17832.89
1059.899, 17871.63
1060.381, 17916.49
1060.863, 17959.42
1061.345, 18003.75
1061.827, 18029.37
1062.309, 17995.80
1062.791, 17940.37
1063.273, 17924.10
1063.755, 17950.98
1064.238, 17968.33
1064.720, 17952.01
1065.202, 17935.83
1065.684, 17925.62
1066.166, 17925.07
1066.648, 17959.44
1067.130, 18016.61
1067.612, 18039.33
1068.094, 17993.81
1068.577, 17947.12
1069.059, 17944.75
1069.541, 17957.08
1070.023, 17953.92
1070.505, 17930.67
1070.987, 17917.86
1071.469, 17916.73
1071.951, 17912.29
1072.434, 17884.39
1072.916, 17854.48
1073.398, 17855.70
1073.880, 17877.51
1074.362, 17881.67
1074.844, 17840.01
1075.326, 17815.35
1075.808, 17820.78
1076.291, 17835.96
1076.773, 17830.80
1077.255, 17812.21
1077.737, 17803.12
1078.219, 17807.86
1078.701, 17801.69
1079.183, 17747.64
1079.665, 17705.50
1080.147, 17713.16
1080.630, 17758.24
1081.112, 17762.54
1081.594, 17727.54
1082.076, 17698.19
1082.558, 17694.66
1083.040, 17696.91
1083.522, 17698.62
1084.004, 17690.08
1084.486, 17653.21
1084.969, 17560.56
1085.451, 17516.79
1085.933, 17532.32
1086.415, 17558.71
1086.897, 17556.47
1087.379, 17541.69
1087.861, 17542.56
1088.343, 17556.70
1088.826, 17571.28
1089.308, 17608.81
1089.790, 17603.97
1090.272, 17522.44
1090.754, 17422.75
1091.236, 17405.34
1091.718, 17452.54
1092.200, 17481.45
1092.682, 17478.24
1093.165, 17477.47
1093.647, 17515.09
1094.129, 17548.50
1094.611, 17543.88
1095.093, 17509.00
1095.575, 17501.03
1096.057, 17521.02
1096.539, 17543.24
1097.022, 17559.49
1097.504, 17570.76
1097.986, 17581.11
1098.468, 17585.61
1098.950, 17573.94
1099.432, 17525.54
1099.914, 17517.88
1100.396, 17562.52
1100.879, 17610.63
1101.361, 17622.64
1101.843, 17615.78
1102.325, 17625.06
1102.807, 17646.10
1103.289, 17661.09
1103.771, 17638.69
1104.253, 17646.75
1104.735, 17711.07
1105.218, 17790.82
1105.700, 17828.34
1106.182, 17830.56
1106.664, 17823.51
1107.146, 17809.77
1107.628, 17807.36
1108.110, 17841.26
1108.592, 17875.72
1109.074, 17891.76
1109.557, 17891.70
1110.039, 17873.49
1110.521, 17836.35
1111.003, 17839.71
1111.485, 17912.52
1111.967, 17995.15
1112.449, 18041.19
1112.931, 18059.24
1113.414, 18052.69
1113.896, 18014.20
1114.378, 17996.80
1114.860, 18003.93
1115.342, 18016.86
1115.824, 18019.63
1116.306, 18026.44
1116.788, 18081.72
1117.271, 18156.10
1117.753, 18184.49
1118.235, 18096.26
1118.717, 18034.91
1119.199, 18016.23
1119.681, 18012.79
1120.163, 18006.11
1120.645, 17991.57
1121.127, 17943.60
1121.609, 17866.63
1122.092, 17811.76
1122.574, 17852.29
1123.056, 17858.37
1123.538, 17759.84
1124.020, 17624.80
1124.502, 17603.06
1124.984, 17679.38
1125.466, 17724.88
1125.949, 17714.83
1126.431, 17682.39
1126.913, 17633.81
1127.395, 17585.44
1127.877, 17549.03
1128.359, 17523.68
1128.841, 17502.46
1129.323, 17485.11
1129.806, 17478.33
1130.288, 17492.16
1130.770, 17501.26
1131.252, 17469.07
1131.734, 17421.70
1132.216, 17395.18
1132.698, 17401.03
1133.180, 17401.30
1133.662, 17397.89
1134.145, 17380.62
1134.627, 17323.97
1135.109, 17261.85
1135.591, 17253.17
1136.073, 17282.57
1136.555, 17311.32
1137.037, 17346.60
1137.519, 17348.22
1138.001, 17300.96
1138.484, 17247.28
1138.966, 17239.79
1139.448, 17258.11
1139.930, 17247.36
1140.412, 17208.84
1140.894, 17183.94
1141.376, 17218.89
1141.858, 17228.64
1142.341, 17174.03
1142.823, 17101.29
1143.305, 17111.19
1143.787, 17180.69
1144.269, 17199.97
1144.751, 17146.31
1145.233, 17092.17
1145.715, 17077.65
1146.198, 17075.91
1146.680, 17076.28
1147.162, 17075.62
1147.644, 17055.94
1148.126, 17018.71
1148.608, 16983.40
1149.090, 16951.16
1149.572, 16934.62
1150.054, 16959.14
1150.536, 16992.76
1151.019, 17005.97
1151.501, 16997.64
1151.983, 16973.22
1152.465, 16931.64
1152.947, 16898.58
1153.429, 16897.41
1153.911, 16900.27
1154.393, 16878.74
1154.876, 16843.49
1155.358, 16812.71
1155.840, 16788.85
1156.322, 16764.40
1156.804, 16736.88
1157.286, 16721.65
1157.768, 16755.90
1158.250, 16792.17
1158.733, 16753.44
1159.215, 16661.86
1159.697, 16606.59
1160.179, 16614.15
1160.661, 16630.51
1161.143, 16653.86
1161.625, 16672.39
1162.107, 16672.42
1162.589, 16658.54
1163.072, 16636.42
1163.554, 16607.03
1164.036, 16575.54
1164.518, 16532.71
1165.000, 16509.20
1165.482, 16523.21
1165.964, 16542.72
1166.446, 16494.97
1166.928, 16411.19
1167.411, 16363.97
1167.893, 16371.68
1168.375, 16378.47
1168.857, 16348.18
1169.339, 16339.27
1169.821, 16389.34
1170.303, 16465.38
1170.785, 16465.23
1171.268, 16407.74
1171.750, 16352.87
1172.232, 16315.66
1172.714, 16294.22
1173.196, 16308.09
1173.678, 16318.07
1174.160, 16295.25
1174.642, 16247.07
1175.125, 16223.97
1175.607, 16223.26
1176.089, 16231.50
1176.571, 16252.03
1177.053, 16267.18
1177.535, 16267.89
1178.017, 16260.26
1178.499, 16243.57
1178.981, 16218.14
1179.464, 16230.23
1179.946, 16277.39
1180.428, 16313.71
1180.910, 16300.27
1181.392, 16279.26
1181.874, 16268.75
1182.356, 16267.19
1182.838, 16274.23
1183.320, 16290.44
1183.803, 16298.07
1184.285, 16295.55
1184.767, 16291.20
1185.249, 16288.54
1185.731, 16288.81
1186.213, 16291.39
1186.695, 16298.05
1187.177, 16317.05
1187.660, 16350.04
1188.142, 16367.65
1188.624, 16363.34
1189.106, 16356.42
1189.588, 16371.21
1190.070, 16384.40
1190.552, 16367.94
1191.034, 16328.57
1191.516, 16320.27
1191.999, 16346.40
1192.481, 16373.57
1192.963, 16395.38
1193.445, 16408.77
1193.927, 16410.20
1194.409, 16402.03
1194.891, 16384.97
1195.373, 16359.11
1195.855, 16328.01
1196.338, 16289.19
1196.820, 16265.41
1197.302, 16267.42
1197.784, 16284.58
1198.266, 16322.27
1198.748, 16359.37
1199.230, 16361.86
1199.712, 16316.27
1200.195, 16312.17
1200.677, 16357.02
1201.159, 16390.55
1201.641, 16371.91
1202.123, 16336.48
1202.605, 16312.21
1203.087, 16303.60
1203.569, 16321.51
1204.052, 16383.87
1204.534, 16416.06
1205.016, 16413.96
1205.498, 16407.91
1205.980, 16430.42
1206.462, 16451.07
1206.944, 16419.43
1207.426, 16361.14
1207.908, 16338.72
1208.391, 16371.41
1208.873, 16398.60
1209.355, 16418.72
1209.837, 16429.72
1210.319, 16421.57
1210.801, 16409.72
1211.283, 16419.66
1211.765, 16441.69
1212.247, 16436.35
1212.730, 16384.37
1213.212, 16363.73
1213.694, 16388.54
1214.176, 16416.26
1214.658, 16392.40
1215.140, 16358.37
1215.622, 16370.97
1216.104, 16421.64
1216.587, 16441.44
1217.069, 16414.75
1217.551, 16398.47
1218.033, 16402.52
1218.515, 16415.88
1218.997, 16434.41
1219.479, 16449.95
1219.961, 16451.32
1220.443, 16438.49
1220.926, 16423.73
1221.408, 16400.44
1221.890, 16410.39
1222.372, 16474.23
1222.854, 16536.01
1223.336, 16516.10
1223.818, 16464.63
1224.300, 16435.84
1224.782, 16437.65
1225.265, 16455.02
1225.747, 16496.06
1226.229, 16508.36
1226.711, 16465.65
1227.193, 16415.95
1227.675, 16421.06
1228.157, 16450.31
1228.639, 16466.83
1229.122, 16464.94
1229.604, 16474.48
1230.086, 16498.50
1230.568, 16513.29
1231.050, 16506.64
1231.532, 16493.33
1232.014, 16487.24
1232.496, 16486.19
1232.979, 16484.22
1233.461, 16477.92
1233.943, 16508.11
1234.425, 16580.75
1234.907, 16625.85
1235.389, 16595.18
1235.871, 16547.55
1236.353, 16538.84
1236.835, 16549.43
1237.318, 16552.27
1237.800, 16542.78
1238.282, 16555.61
1238.764, 16592.52
1239.246, 16613.15
1239.728, 16581.79
1240.210, 16541.50
1240.692, 16523.21
1241.175, 16521.40
1241.657, 16529.30
1242.139, 16548.31
1242.621, 16564.60
1243.103, 16578.33
1243.585, 16590.09
1244.067, 16596.20
1244.549, 16605.16
1245.031, 16631.28
1245.514, 16658.84
1245.996, 16663.92
1246.478, 16643.50
1246.960, 16641.24
1247.442, 16656.92
1247.924, 16671.04
1248.406, 16669.36
1248.888, 16664.32
1249.370, 16662.48
1249.853, 16661.52
1250.335, 16655.41
1250.817, 16644.79
1251.299, 16652.97
1251.781, 16679.52
1252.263, 16703.23
1252.745, 16720.24
1253.227, 16719.96
1253.710, 16680.63
1254.192, 16635.26
1254.674, 16627.65
1255.156, 16652.86
1255.638, 16681.41
1256.120, 16709.87
1256.602, 16723.05
1257.084, 16697.54
1257.567, 16673.81
1258.049, 16662.34
1258.531, 16661.84
1259.013, 16675.39
1259.495, 16698.47
1259.977, 16717.78
1260.459, 16731.33
1260.941, 16731.17
1261.423, 16682.28
1261.906, 16665.35
1262.388, 16709.02
1262.870, 16772.98
1263.352, 16792.99
1263.834, 16789.87
1264.316, 16820.00
1264.798, 16883.68
1265.280, 16921.41
1265.762, 16903.58
1266.245, 16873.51
1266.727, 16831.70
1267.209, 16796.39
1267.691, 16805.95
1268.173, 16832.57
1268.655, 16821.16
1269.137, 16770.73
1269.619, 16754.56
1270.102, 16794.77
1270.584, 16827.51
1271.066, 16839.04
1271.548, 16840.45
1272.030, 16840.70
1272.512, 16841.71
1272.994, 16846.21
1273.476, 16854.25
1273.958, 16861.60
1274.441, 16867.05
1274.923, 16878.85
1275.405, 16901.29
1275.887, 16918.77
1276.369, 16907.99
1276.851, 16889.86
1277.333, 16883.80
1277.815, 16889.31
1278.297, 16896.21
1278.780, 16904.45
1279.262, 16913.60
1279.744, 16922.94
1280.226, 16936.13
1280.708, 16960.04
1281.190, 16985.86
1281.672, 17017.40
1282.154, 17044.06
1282.637, 17006.21
1283.119, 16914.82
1283.601, 16883.21
1284.083, 16943.13
1284.565, 17002.97
1285.047, 17007.75
1285.529, 16995.75
1286.011, 16979.86
1286.494, 16967.37
1286.976, 16992.31
1287.458, 17038.56
1287.940, 17046.49
1288.422, 16999.09
1288.904, 16954.32
1289.386, 16919.10
1289.868, 16914.41
1290.350, 16960.89
1290.833, 17023.20
1291.315, 17018.40
1291.797, 16980.11
1292.279, 16979.85
1292.761, 17036.93
1293.243, 17072.48
1293.725, 17071.98
1294.207, 17065.56
1294.689, 17062.31
1295.172, 17059.65
1295.654, 17056.88
1296.136, 17050.70
1296.618, 17028.04
1297.100, 16984.62
1297.582, 16999.33
1298.064, 17087.82
1298.546, 17126.96
1299.029, 17061.01
1299.511, 16988.92
1299.993, 17038.76
1300.475, 17115.72
1300.957, 17115.74
1301.439, 17051.26
1301.921, 17018.85
1302.403, 17017.67
1302.885, 17030.05
1303.368, 17059.50
1303.850, 17064.47
1304.332, 16973.84
1304.814, 16892.52
1305.296, 16881.23
1305.778, 16928.65
1306.260, 17019.10
##END=



