##NAMES=Arseniopleite
##RRUFFID=R070144
##IDEAL CHEMISTRY=NaCaMn^2+^Mn^2+^_2_(As^5+^O_4_)_3_
##LOCALITY=Sjögruvan mine, Grythyttan, Västmanland, Sweden
##OWNER=RRUFF
##SOURCE=Michael Scott
##DESCRIPTION=Vitreous brownish red massive
##STATUS=The identification of this mineral is confirmed by single-crystal X-ray diffraction and chemical analysis.
##URL=rruff.info/R070144
##MEASURED CHEMISTRY=(Ca_0.81_Na_0.19_)_Σ=1_(Na_0.99_Pb^2+^_0.01_)_Σ=1_Mn^2+^_1.00_(Mn^2+^_1.10_Mg_0.65_Fe^3+^_0.18_Fe^2+^_0.07_)_Σ=2_(As_1.00_O_4_)_3_; trace amounts of P; Fe^2+^ and Fe^3+^ splitted by charge balance
114.5050, 133.6827
114.9871, 146.8172
115.4692, 158.2883
115.9513, 167.9260
116.4335, 175.5475
116.9156, 176.3253
117.3977, 175.3014
117.8798, 180.9358
118.3619, 201.6597
118.8440, 227.6190
119.3262, 252.0637
119.8083, 273.9737
120.2904, 294.3157
120.7725, 311.9063
121.2546, 327.8032
121.7367, 346.2980
122.2189, 373.3256
122.7010, 403.7636
123.1831, 431.0088
123.6652, 450.8050
124.1473, 467.9130
124.6294, 487.7549
125.1115, 510.3388
125.5937, 533.3594
126.0758, 554.7095
126.5579, 574.8969
127.0400, 594.9916
127.5221, 613.2543
128.0043, 632.1530
128.4864, 657.8548
128.9685, 691.7462
129.4506, 728.9186
129.9327, 764.9343
130.4148, 799.5374
130.8969, 829.0364
131.3791, 849.3080
131.8612, 861.3818
132.3433, 871.9722
132.8254, 881.1254
133.3075, 890.0068
133.7896, 902.7774
134.2718, 920.1193
134.7539, 936.8818
135.2360, 946.3538
135.7181, 947.3930
136.2002, 954.4505
136.6823, 973.1333
137.1645, 1002.247
137.6466, 1024.614
138.1287, 1038.799
138.6108, 1049.038
139.0929, 1060.922
139.5750, 1075.557
140.0572, 1088.461
140.5393, 1098.178
141.0214, 1104.324
141.5035, 1108.314
141.9856, 1106.977
142.4677, 1104.987
142.9499, 1113.479
143.4320, 1136.228
143.9141, 1163.644
144.3962, 1191.769
144.8783, 1224.676
145.3604, 1251.032
145.8425, 1266.719
146.3247, 1273.818
146.8068, 1288.712
147.2889, 1321.983
147.7710, 1354.836
148.2531, 1375.322
148.7352, 1369.502
149.2174, 1367.144
149.6995, 1373.752
150.1816, 1390.647
150.6637, 1402.961
151.1458, 1410.205
151.6279, 1412.788
152.1101, 1411.295
152.5922, 1396.556
153.0743, 1386.121
153.5564, 1386.722
154.0385, 1404.311
154.5206, 1414.994
155.0028, 1412.015
155.4849, 1400.432
155.9670, 1388.788
156.4491, 1377.969
156.9312, 1368.109
157.4133, 1358.368
157.8955, 1343.364
158.3776, 1337.342
158.8597, 1353.055
159.3418, 1383.031
159.8239, 1402.108
160.3060, 1387.931
160.7882, 1367.477
161.2703, 1359.568
161.7524, 1383.608
162.2345, 1407.297
162.7166, 1414.882
163.1987, 1408.096
163.6808, 1403.611
164.1630, 1413.682
164.6451, 1428.720
165.1272, 1438.417
165.6093, 1434.116
166.0914, 1426.854
166.5735, 1421.995
167.0557, 1419.624
167.5378, 1422.034
168.0199, 1437.031
168.5020, 1457.320
168.9841, 1470.594
169.4662, 1465.327
169.9484, 1453.437
170.4305, 1445.116
170.9126, 1441.384
171.3947, 1441.402
171.8768, 1448.453
172.3589, 1459.558
172.8411, 1466.173
173.3232, 1457.453
173.8053, 1443.254
174.2874, 1437.909
174.7695, 1447.532
175.2516, 1460.122
175.7338, 1459.042
176.2159, 1446.969
176.6980, 1439.790
177.1801, 1454.026
177.6622, 1480.872
178.1443, 1502.056
178.6264, 1511.976
179.1086, 1515.074
179.5907, 1516.716
180.0728, 1516.943
180.5549, 1517.453
181.0370, 1520.924
181.5191, 1526.144
182.0013, 1529.236
182.4834, 1527.012
182.9655, 1522.172
183.4476, 1518.884
183.9297, 1516.543
184.4118, 1520.652
184.8940, 1543.922
185.3761, 1582.933
185.8582, 1614.480
186.3403, 1624.582
186.8224, 1618.327
187.3046, 1615.782
187.7867, 1617.346
188.2688, 1622.588
188.7509, 1634.306
189.2330, 1652.121
189.7151, 1664.577
190.1973, 1658.964
190.6794, 1638.907
191.1615, 1636.016
191.6436, 1657.312
192.1257, 1689.403
192.6078, 1703.845
193.0900, 1699.684
193.5721, 1693.182
194.0542, 1695.818
194.5363, 1707.266
195.0184, 1716.171
195.5005, 1719.906
195.9826, 1720.866
196.4648, 1727.361
196.9469, 1740.586
197.4290, 1753.028
197.9111, 1756.245
198.3932, 1749.062
198.8753, 1749.544
199.3575, 1765.753
199.8396, 1792.437
200.3217, 1798.648
200.8038, 1779.093
201.2859, 1754.450
201.7680, 1744.784
202.2502, 1751.881
202.7323, 1763.211
203.2144, 1778.950
203.6965, 1798.309
204.1786, 1803.236
204.6607, 1788.272
205.1429, 1768.934
205.6250, 1766.030
206.1071, 1784.167
206.5892, 1800.177
207.0713, 1805.840
207.5534, 1800.186
208.0356, 1798.438
208.5177, 1801.924
208.9998, 1807.734
209.4819, 1812.318
209.9640, 1816.823
210.4461, 1816.772
210.9282, 1807.588
211.4104, 1784.868
211.8925, 1775.531
212.3746, 1785.075
212.8567, 1804.180
213.3388, 1812.883
213.8209, 1807.740
214.3031, 1800.103
214.7852, 1794.278
215.2673, 1789.699
215.7494, 1789.232
216.2315, 1794.438
216.7136, 1803.349
217.1958, 1810.701
217.6779, 1817.570
218.1600, 1821.078
218.6421, 1818.341
219.1242, 1804.608
219.6063, 1797.690
220.0885, 1802.099
220.5706, 1814.244
221.0527, 1817.036
221.5348, 1803.744
222.0169, 1791.080
222.4990, 1791.459
222.9812, 1814.075
223.4633, 1827.864
223.9454, 1826.086
224.4275, 1811.172
224.9096, 1804.338
225.3917, 1810.133
225.8739, 1818.109
226.3560, 1819.485
226.8381, 1808.580
227.3202, 1803.147
227.8023, 1807.831
228.2844, 1822.088
228.7665, 1831.892
229.2487, 1838.981
229.7308, 1839.547
230.2129, 1827.515
230.6950, 1789.246
231.1771, 1765.038
231.6592, 1767.771
232.1414, 1799.316
232.6235, 1813.310
233.1056, 1800.551
233.5877, 1778.704
234.0698, 1766.245
234.5519, 1765.733
235.0341, 1770.159
235.5162, 1779.508
235.9983, 1794.633
236.4804, 1807.260
236.9625, 1818.362
237.4446, 1826.179
237.9268, 1828.219
238.4089, 1821.094
238.8910, 1813.876
239.3731, 1808.839
239.8552, 1806.368
240.3373, 1803.975
240.8195, 1801.317
241.3016, 1798.973
241.7837, 1798.306
242.2658, 1802.543
242.7479, 1802.983
243.2300, 1795.659
243.7122, 1777.282
244.1943, 1764.457
244.6764, 1757.037
245.1585, 1755.283
245.6406, 1761.120
246.1227, 1782.667
246.6048, 1798.375
247.0870, 1799.163
247.5691, 1778.086
248.0512, 1765.571
248.5333, 1765.919
249.0154, 1772.696
249.4975, 1773.921
249.9797, 1768.082
250.4618, 1759.250
250.9439, 1748.134
251.4260, 1732.701
251.9081, 1721.067
252.3902, 1714.663
252.8724, 1711.321
253.3545, 1706.126
253.8366, 1697.623
254.3187, 1689.866
254.8008, 1684.788
255.2829, 1683.720
255.7651, 1681.583
256.2472, 1677.682
256.7293, 1672.975
257.2114, 1670.013
257.6935, 1669.734
258.1756, 1669.478
258.6577, 1667.973
259.1399, 1664.680
259.6220, 1661.913
260.1041, 1660.832
260.5862, 1659.819
261.0683, 1653.690
261.5504, 1639.287
262.0326, 1626.120
262.5147, 1618.927
262.9968, 1619.204
263.4789, 1621.038
263.9610, 1625.515
264.4431, 1630.880
264.9253, 1631.649
265.4074, 1626.182
265.8895, 1619.836
266.3716, 1615.528
266.8537, 1614.040
267.3358, 1611.448
267.8180, 1606.975
268.3001, 1601.573
268.7822, 1597.366
269.2643, 1593.880
269.7464, 1592.904
270.2285, 1596.985
270.7107, 1608.093
271.1928, 1613.578
271.6749, 1611.277
272.1570, 1603.707
272.6391, 1597.872
273.1212, 1594.118
273.6034, 1590.974
274.0855, 1586.444
274.5676, 1579.676
275.0497, 1578.852
275.5318, 1585.905
276.0139, 1598.220
276.4961, 1610.587
276.9782, 1624.374
277.4603, 1632.360
277.9424, 1625.860
278.4245, 1603.652
278.9066, 1592.030
279.3888, 1595.618
279.8709, 1608.612
280.3530, 1616.884
280.8351, 1619.858
281.3172, 1621.825
281.7993, 1625.851
282.2815, 1631.879
282.7636, 1635.768
283.2457, 1636.439
283.7278, 1635.656
284.2099, 1638.648
284.6920, 1645.918
285.1741, 1650.450
285.6563, 1644.457
286.1384, 1629.487
286.6205, 1621.756
287.1026, 1623.436
287.5847, 1631.957
288.0668, 1645.907
288.5490, 1665.266
289.0311, 1679.901
289.5132, 1678.360
289.9953, 1664.926
290.4774, 1661.342
290.9595, 1671.856
291.4417, 1688.856
291.9238, 1699.926
292.4059, 1705.431
292.8880, 1711.020
293.3701, 1722.576
293.8522, 1737.203
294.3344, 1745.177
294.8165, 1744.330
295.2986, 1739.784
295.7807, 1737.292
296.2628, 1736.957
296.7449, 1739.563
297.2271, 1744.757
297.7092, 1753.270
298.1913, 1768.363
298.6734, 1792.003
299.1555, 1816.481
299.6376, 1830.082
300.1198, 1835.670
300.6019, 1843.658
301.0840, 1863.763
301.5661, 1888.849
302.0482, 1907.206
302.5303, 1916.723
303.0125, 1923.948
303.4946, 1934.227
303.9767, 1947.240
304.4588, 1962.442
304.9409, 1984.314
305.4230, 2005.783
305.9052, 2017.142
306.3873, 2015.193
306.8694, 2014.517
307.3515, 2027.786
307.8336, 2050.805
308.3157, 2075.508
308.7979, 2101.583
309.2800, 2125.337
309.7621, 2143.338
310.2442, 2154.960
310.7263, 2163.173
311.2084, 2165.717
311.6906, 2166.703
312.1727, 2172.738
312.6548, 2192.344
313.1369, 2213.805
313.6190, 2230.352
314.1011, 2241.676
314.5833, 2247.366
315.0654, 2243.737
315.5475, 2235.305
316.0296, 2227.790
316.5117, 2222.160
316.9938, 2218.735
317.4760, 2220.609
317.9580, 2228.620
318.4402, 2229.156
318.9223, 2209.479
319.4044, 2183.366
319.8865, 2164.899
320.3686, 2168.557
320.8507, 2169.880
321.3329, 2158.379
321.8150, 2133.435
322.2971, 2114.342
322.7792, 2110.669
323.2613, 2111.434
323.7434, 2107.656
324.2256, 2094.613
324.7077, 2080.601
325.1898, 2065.409
325.6719, 2049.303
326.1540, 2037.314
326.6361, 2034.837
327.1183, 2033.404
327.6004, 2027.485
328.0825, 2009.943
328.5646, 1996.579
329.0467, 1990.769
329.5288, 1991.300
330.0110, 1988.755
330.4931, 1982.501
330.9752, 1973.734
331.4573, 1962.528
331.9394, 1943.726
332.4215, 1932.162
332.9037, 1932.514
333.3858, 1940.845
333.8679, 1941.158
334.3500, 1928.179
334.8321, 1915.620
335.3142, 1911.730
335.7964, 1921.111
336.2785, 1924.251
336.7606, 1917.384
337.2427, 1905.641
337.7248, 1902.400
338.2069, 1909.310
338.6891, 1919.645
339.1712, 1932.662
339.6533, 1949.440
340.1354, 1955.867
340.6175, 1947.706
341.0996, 1935.195
341.5818, 1937.556
342.0639, 1956.089
342.5460, 1975.951
343.0281, 1990.732
343.5102, 2000.779
343.9923, 2010.362
344.4745, 2018.391
344.9566, 2029.426
345.4387, 2052.578
345.9208, 2086.126
346.4029, 2116.619
346.8850, 2133.251
347.3672, 2143.068
347.8493, 2169.224
348.3314, 2212.828
348.8135, 2257.789
349.2956, 2281.281
349.7777, 2291.153
350.2599, 2312.621
350.7419, 2364.255
351.2241, 2426.236
351.7062, 2465.557
352.1883, 2483.543
352.6704, 2503.609
353.1525, 2547.435
353.6346, 2604.621
354.1168, 2658.669
354.5989, 2699.862
355.0810, 2742.007
355.5631, 2803.189
356.0452, 2878.567
356.5273, 2944.716
357.0095, 2975.878
357.4916, 2996.645
357.9737, 3032.091
358.4558, 3096.570
358.9379, 3161.069
359.4200, 3208.186
359.9022, 3243.034
360.3843, 3279.074
360.8664, 3329.968
361.3485, 3378.275
361.8306, 3412.322
362.3127, 3426.953
362.7949, 3437.209
363.2770, 3442.695
363.7591, 3447.246
364.2412, 3457.309
364.7233, 3486.721
365.2054, 3511.065
365.6876, 3521.213
366.1697, 3514.914
366.6518, 3501.454
367.1339, 3475.903
367.6160, 3445.791
368.0981, 3419.966
368.5803, 3410.361
369.0624, 3391.536
369.5445, 3352.767
370.0266, 3291.827
370.5087, 3250.806
370.9908, 3244.473
371.4730, 3244.914
371.9551, 3227.934
372.4372, 3183.929
372.9193, 3142.281
373.4014, 3108.205
373.8835, 3080.385
374.3657, 3049.017
374.8478, 3012.249
375.3299, 2976.416
375.8120, 2945.167
376.2941, 2917.766
376.7762, 2899.975
377.2584, 2896.660
377.7405, 2899.441
378.2226, 2884.440
378.7047, 2849.018
379.1868, 2817.400
379.6689, 2807.122
380.1511, 2815.300
380.6332, 2815.056
381.1153, 2804.364
381.5974, 2786.600
382.0795, 2760.036
382.5616, 2727.271
383.0438, 2707.855
383.5259, 2714.806
384.0080, 2740.619
384.4901, 2773.848
384.9722, 2815.811
385.4543, 2850.449
385.9364, 2859.081
386.4185, 2850.051
386.9007, 2841.070
387.3828, 2834.798
387.8649, 2834.236
388.3470, 2844.956
388.8291, 2865.803
389.3112, 2887.573
389.7934, 2904.619
390.2755, 2918.960
390.7576, 2932.741
391.2397, 2948.542
391.7218, 2961.331
392.2039, 2960.078
392.6861, 2952.076
393.1682, 2959.945
393.6503, 3011.294
394.1324, 3067.669
394.6145, 3105.550
395.0966, 3111.623
395.5788, 3121.901
396.0609, 3146.323
396.5430, 3179.553
397.0251, 3212.606
397.5072, 3247.239
397.9893, 3278.710
398.4715, 3306.995
398.9536, 3333.416
399.4357, 3349.900
399.9178, 3342.770
400.3999, 3334.406
400.8820, 3348.238
401.3642, 3401.115
401.8463, 3447.280
402.3284, 3478.071
402.8105, 3494.745
403.2926, 3512.320
403.7747, 3532.117
404.2569, 3550.379
404.7390, 3562.322
405.2211, 3565.449
405.7032, 3577.823
406.1853, 3605.312
406.6674, 3639.272
407.1496, 3656.703
407.6317, 3656.014
408.1138, 3654.538
408.5959, 3666.269
409.0780, 3687.641
409.5602, 3694.197
410.0423, 3683.076
410.5244, 3663.191
411.0065, 3644.525
411.4886, 3626.491
411.9707, 3606.971
412.4529, 3586.598
412.9350, 3563.240
413.4171, 3533.435
413.8992, 3496.896
414.3813, 3457.519
414.8634, 3413.113
415.3456, 3368.511
415.8277, 3331.783
416.3098, 3309.096
416.7919, 3290.122
417.2740, 3269.987
417.7561, 3248.141
418.2382, 3220.764
418.7203, 3182.814
419.2025, 3140.946
419.6846, 3100.190
420.1667, 3061.389
420.6488, 3022.855
421.1309, 2980.019
421.6130, 2937.691
422.0952, 2902.615
422.5773, 2884.476
423.0594, 2866.487
423.5415, 2840.922
424.0236, 2803.922
424.5057, 2778.288
424.9879, 2777.633
425.4700, 2780.320
425.9521, 2765.304
426.4342, 2717.318
426.9163, 2678.381
427.3984, 2656.855
427.8806, 2650.052
428.3627, 2641.278
428.8448, 2631.029
429.3269, 2617.754
429.8090, 2598.690
430.2911, 2572.488
430.7733, 2551.593
431.2554, 2537.347
431.7375, 2528.098
432.2196, 2522.541
432.7017, 2520.838
433.1838, 2516.568
433.6660, 2504.325
434.1481, 2486.817
434.6302, 2472.883
435.1123, 2462.380
435.5944, 2457.440
436.0765, 2465.889
436.5587, 2481.919
437.0408, 2490.516
437.5229, 2482.799
438.0050, 2468.984
438.4871, 2459.022
438.9692, 2452.487
439.4514, 2447.034
439.9335, 2440.379
440.4156, 2434.548
440.8977, 2431.664
441.3798, 2433.076
441.8619, 2435.444
442.3441, 2433.667
442.8262, 2432.095
443.3083, 2438.859
443.7904, 2464.724
444.2725, 2491.997
444.7546, 2514.145
445.2368, 2529.983
445.7189, 2543.873
446.2010, 2553.115
446.6831, 2562.137
447.1652, 2574.759
447.6473, 2593.131
448.1295, 2612.273
448.6116, 2632.860
449.0937, 2654.102
449.5758, 2668.901
450.0579, 2670.622
450.5400, 2678.163
451.0221, 2705.611
451.5042, 2757.794
451.9864, 2798.712
452.4685, 2824.596
452.9506, 2843.217
453.4327, 2866.818
453.9148, 2895.317
454.3969, 2926.105
454.8791, 2961.194
455.3612, 2997.291
455.8433, 3020.160
456.3254, 3029.044
456.8075, 3038.320
457.2896, 3062.941
457.7718, 3097.462
458.2539, 3129.243
458.7360, 3154.860
459.2181, 3177.682
459.7002, 3199.099
460.1823, 3220.308
460.6645, 3244.503
461.1466, 3282.595
461.6287, 3318.422
462.1108, 3337.900
462.5929, 3336.796
463.0750, 3333.249
463.5572, 3334.802
464.0393, 3337.951
464.5214, 3338.560
465.0035, 3330.263
465.4856, 3324.937
465.9677, 3327.749
466.4499, 3338.246
466.9320, 3344.149
467.4141, 3344.705
467.8962, 3341.122
468.3783, 3333.441
468.8604, 3318.024
469.3426, 3307.026
469.8247, 3304.794
470.3068, 3304.048
470.7889, 3288.135
471.2710, 3252.477
471.7531, 3218.929
472.2353, 3195.923
472.7174, 3182.496
473.1995, 3170.688
473.6816, 3161.019
474.1637, 3149.800
474.6458, 3131.354
475.1280, 3107.552
475.6101, 3087.179
476.0922, 3072.062
476.5743, 3061.441
477.0564, 3056.645
477.5385, 3056.291
478.0207, 3054.676
478.5028, 3046.517
478.9849, 3036.412
479.4670, 3028.690
479.9491, 3023.722
480.4312, 3021.636
480.9134, 3025.896
481.3955, 3031.974
481.8776, 3034.464
482.3597, 3030.433
482.8418, 3023.796
483.3239, 3014.582
483.8060, 3003.253
484.2881, 2992.889
484.7703, 2985.804
485.2524, 2978.567
485.7345, 2969.549
486.2166, 2957.694
486.6987, 2946.454
487.1808, 2937.850
487.6630, 2928.497
488.1451, 2911.909
488.6272, 2884.685
489.1093, 2860.434
489.5914, 2844.811
490.0735, 2835.924
490.5557, 2815.983
491.0378, 2782.958
491.5199, 2750.874
492.0020, 2732.884
492.4841, 2726.839
492.9662, 2720.113
493.4484, 2712.043
493.9305, 2699.874
494.4126, 2676.556
494.8947, 2645.115
495.3768, 2616.725
495.8589, 2597.135
496.3411, 2582.959
496.8232, 2573.045
497.3053, 2567.157
497.7874, 2557.496
498.2695, 2530.454
498.7516, 2501.958
499.2338, 2487.123
499.7159, 2499.718
500.1980, 2513.273
500.6801, 2523.943
501.1622, 2530.067
501.6443, 2527.320
502.1265, 2501.045
502.6086, 2479.301
503.0907, 2471.715
503.5728, 2480.843
504.0549, 2489.053
504.5370, 2497.047
505.0192, 2503.334
505.5013, 2506.154
505.9834, 2504.717
506.4655, 2502.972
506.9476, 2501.341
507.4297, 2499.867
507.9119, 2499.997
508.3940, 2502.002
508.8761, 2500.280
509.3582, 2489.778
509.8403, 2473.063
510.3224, 2457.007
510.8046, 2441.573
511.2867, 2429.842
511.7688, 2427.726
512.2509, 2430.954
512.7330, 2431.530
513.2151, 2427.135
513.6973, 2419.021
514.1794, 2408.905
514.6615, 2396.001
515.1436, 2377.768
515.6257, 2344.411
516.1078, 2311.852
516.5900, 2291.890
517.0721, 2289.823
517.5542, 2281.456
518.0363, 2253.879
518.5184, 2222.668
519.0005, 2203.751
519.4827, 2208.899
519.9648, 2208.608
520.4469, 2200.034
520.9290, 2183.630
521.4111, 2160.372
521.8932, 2128.793
522.3754, 2094.252
522.8575, 2054.896
523.3396, 2010.484
523.8217, 1988.871
524.3038, 1994.110
524.7859, 2006.397
525.2681, 2003.566
525.7502, 1988.440
526.2323, 1973.085
526.7144, 1960.723
527.1965, 1949.709
527.6786, 1936.352
528.1608, 1922.115
528.6429, 1912.305
529.1250, 1913.617
529.6071, 1918.425
530.0892, 1920.981
530.5714, 1920.643
531.0535, 1918.502
531.5356, 1914.545
532.0176, 1909.210
532.4998, 1902.953
532.9819, 1886.894
533.4640, 1880.344
533.9461, 1893.272
534.4282, 1918.463
534.9103, 1931.667
535.3925, 1928.926
535.8746, 1920.346
536.3567, 1908.015
536.8388, 1891.224
537.3209, 1878.968
537.8030, 1870.219
538.2852, 1868.950
538.7673, 1885.357
539.2494, 1917.605
539.7315, 1936.825
540.2136, 1933.003
540.6957, 1920.683
541.1779, 1926.107
541.6600, 1944.882
542.1421, 1958.654
542.6242, 1950.474
543.1063, 1935.752
543.5884, 1931.700
544.0706, 1939.264
544.5527, 1947.563
545.0348, 1951.707
545.5169, 1953.163
545.9990, 1952.829
546.4811, 1943.427
546.9633, 1942.557
547.4454, 1963.720
547.9275, 1995.528
548.4096, 2011.389
548.8917, 1998.856
549.3738, 1985.874
549.8560, 1978.936
550.3381, 1978.055
550.8202, 1980.843
551.3023, 1989.072
551.7844, 1996.974
552.2665, 1999.270
552.7487, 1995.984
553.2308, 1995.531
553.7129, 2000.142
554.1950, 2004.100
554.6771, 1996.605
555.1592, 1980.212
555.6414, 1966.036
556.1235, 1958.906
556.6056, 1956.308
557.0877, 1959.788
557.5698, 1967.440
558.0519, 1967.167
558.5341, 1940.985
559.0162, 1910.847
559.4983, 1896.844
559.9804, 1909.298
560.4625, 1913.989
560.9446, 1893.865
561.4268, 1864.347
561.9089, 1844.036
562.3910, 1836.310
562.8731, 1835.027
563.3552, 1844.373
563.8373, 1859.953
564.3195, 1862.609
564.8016, 1850.861
565.2837, 1830.084
565.7658, 1797.450
566.2479, 1744.176
566.7300, 1752.170
567.2122, 1754.475
567.6943, 1751.402
568.1764, 1726.832
568.6585, 1730.020
569.1406, 1722.083
569.6227, 1713.691
570.1049, 1720.785
570.5870, 1699.341
571.0691, 1706.191
571.5512, 1701.746
572.0333, 1702.470
572.5154, 1692.001
572.9976, 1684.988
573.4797, 1689.174
573.9618, 1687.159
574.4439, 1675.402
574.9260, 1676.454
575.4081, 1654.620
575.8903, 1652.868
576.3724, 1659.783
576.8545, 1648.589
577.3366, 1649.846
577.8187, 1646.361
578.3008, 1621.324
578.7830, 1633.767
579.2651, 1630.002
579.7472, 1609.593
580.2293, 1620.753
580.7114, 1602.639
581.1935, 1594.974
581.6757, 1595.171
582.1578, 1587.173
582.6399, 1591.015
583.1220, 1587.944
583.6041, 1582.936
584.0862, 1576.954
584.5684, 1571.127
585.0505, 1566.832
585.5326, 1565.315
586.0147, 1564.214
586.4968, 1562.096
586.9789, 1559.853
587.4611, 1559.498
587.9432, 1563.696
588.4253, 1567.189
588.9074, 1568.836
589.3895, 1568.646
589.8716, 1566.971
590.3538, 1562.729
590.8359, 1559.314
591.3180, 1560.922
591.8001, 1567.565
592.2822, 1565.174
592.7643, 1550.316
593.2465, 1535.699
593.7286, 1541.088
594.2107, 1561.112
594.6928, 1576.938
595.1749, 1582.025
595.6570, 1581.144
596.1392, 1576.115
596.6213, 1568.482
597.1034, 1563.446
597.5854, 1567.481
598.0676, 1571.444
598.5497, 1568.159
599.0318, 1555.726
599.5139, 1549.929
599.9960, 1559.687
600.4781, 1572.303
600.9603, 1579.361
601.4424, 1577.523
601.9245, 1577.720
602.4066, 1581.075
602.8887, 1585.742
603.3708, 1590.660
603.8530, 1596.368
604.3351, 1593.169
604.8172, 1572.842
605.2993, 1545.826
605.7814, 1540.173
606.2635, 1553.215
606.7457, 1564.884
607.2278, 1556.983
607.7099, 1543.335
608.1920, 1541.745
608.6741, 1554.333
609.1563, 1565.617
609.6384, 1564.681
610.1205, 1559.953
610.6026, 1558.839
611.0847, 1564.420
611.5668, 1571.393
612.0490, 1581.833
612.5311, 1592.506
613.0132, 1597.935
613.4953, 1597.046
613.9774, 1592.983
614.4595, 1585.597
614.9417, 1575.686
615.4238, 1565.825
615.9059, 1555.347
616.3880, 1551.397
616.8701, 1562.844
617.3522, 1584.281
617.8344, 1600.742
618.3165, 1611.745
618.7986, 1615.577
619.2807, 1600.913
619.7628, 1581.630
620.2449, 1577.260
620.7271, 1601.121
621.2092, 1623.942
621.6913, 1633.149
622.1734, 1632.806
622.6555, 1629.736
623.1376, 1620.666
623.6198, 1614.082
624.1019, 1612.152
624.5840, 1614.212
625.0661, 1616.120
625.5482, 1617.471
626.0303, 1619.682
626.5125, 1625.235
626.9946, 1633.692
627.4767, 1633.927
627.9588, 1625.116
628.4409, 1614.328
628.9230, 1606.482
629.4052, 1602.006
629.8873, 1602.104
630.3694, 1607.781
630.8515, 1615.787
631.3336, 1627.761
631.8157, 1639.500
632.2979, 1644.262
632.7800, 1633.748
633.2621, 1622.009
633.7442, 1609.952
634.2263, 1599.542
634.7084, 1600.891
635.1906, 1623.923
635.6727, 1645.800
636.1548, 1659.566
636.6369, 1665.179
637.1190, 1661.001
637.6011, 1643.432
638.0833, 1629.345
638.5654, 1640.881
639.0475, 1670.748
639.5296, 1678.586
640.0117, 1656.506
640.4938, 1628.367
640.9760, 1619.469
641.4581, 1622.378
641.9402, 1623.054
642.4223, 1609.301
642.9044, 1601.215
643.3865, 1616.632
643.8687, 1645.779
644.3508, 1664.274
644.8329, 1656.334
645.3150, 1647.125
645.7971, 1643.142
646.2792, 1644.267
646.7614, 1647.627
647.2435, 1653.821
647.7256, 1661.080
648.2077, 1670.075
648.6898, 1680.794
649.1719, 1682.575
649.6541, 1673.858
650.1362, 1664.644
650.6183, 1668.886
651.1004, 1680.309
651.5825, 1683.175
652.0646, 1669.845
652.5468, 1657.133
653.0289, 1663.794
653.5110, 1678.739
653.9931, 1683.443
654.4752, 1656.149
654.9573, 1634.615
655.4395, 1631.790
655.9216, 1645.273
656.4037, 1661.024
656.8858, 1685.962
657.3679, 1701.602
657.8500, 1697.160
658.3322, 1673.681
658.8143, 1662.235
659.2964, 1663.882
659.7785, 1671.235
660.2606, 1682.646
660.7427, 1695.063
661.2249, 1697.084
661.7070, 1686.180
662.1891, 1675.406
662.6712, 1677.751
663.1533, 1686.809
663.6354, 1693.928
664.1175, 1694.979
664.5996, 1696.010
665.0817, 1700.254
665.5638, 1705.713
666.0460, 1708.288
666.5281, 1707.019
667.0102, 1703.999
667.4923, 1698.660
667.9744, 1691.841
668.4565, 1687.765
668.9387, 1686.536
669.4208, 1687.282
669.9029, 1690.437
670.3850, 1695.243
670.8671, 1699.092
671.3492, 1701.991
671.8314, 1703.921
672.3135, 1703.615
672.7956, 1702.956
673.2777, 1704.130
673.7598, 1707.636
674.2419, 1712.277
674.7241, 1720.773
675.2062, 1728.594
675.6883, 1731.176
676.1704, 1723.611
676.6525, 1716.473
677.1346, 1707.947
677.6168, 1701.361
678.0989, 1704.997
678.5810, 1721.422
679.0631, 1733.463
679.5452, 1735.817
680.0273, 1731.249
680.5095, 1722.817
680.9916, 1711.919
681.4737, 1708.523
681.9558, 1727.977
682.4379, 1751.555
682.9200, 1759.211
683.4022, 1751.011
683.8843, 1740.148
684.3664, 1725.828
684.8485, 1715.545
685.3306, 1715.397
685.8127, 1731.797
686.2949, 1739.682
686.7770, 1731.753
687.2591, 1723.432
687.7412, 1730.196
688.2233, 1754.909
688.7054, 1773.226
689.1876, 1783.102
689.6697, 1785.655
690.1518, 1779.215
690.6339, 1766.125
691.1160, 1754.029
691.5981, 1742.809
692.0803, 1737.297
692.5624, 1750.478
693.0445, 1772.572
693.5266, 1781.311
694.0087, 1745.618
694.4908, 1718.195
694.9730, 1724.527
695.4551, 1760.990
695.9372, 1788.154
696.4193, 1805.754
696.9014, 1814.355
697.3835, 1812.583
697.8657, 1800.782
698.3478, 1786.536
698.8299, 1768.863
699.3120, 1756.817
699.7941, 1761.176
700.2762, 1776.013
700.7584, 1790.340
701.2405, 1803.556
701.7226, 1810.999
702.2047, 1804.365
702.6868, 1792.358
703.1689, 1783.555
703.6511, 1775.072
704.1332, 1777.960
704.6153, 1808.506
705.0974, 1845.240
705.5795, 1860.966
706.0616, 1848.609
706.5438, 1831.867
707.0259, 1810.919
707.5080, 1791.438
707.9901, 1789.291
708.4722, 1803.331
708.9543, 1816.206
709.4365, 1820.526
709.9186, 1819.916
710.4007, 1817.406
710.8828, 1813.899
711.3649, 1812.881
711.8470, 1817.916
712.3292, 1824.422
712.8113, 1831.225
713.2934, 1838.286
713.7755, 1840.453
714.2576, 1832.029
714.7397, 1824.819
715.2219, 1825.158
715.7040, 1834.230
716.1861, 1839.515
716.6682, 1839.706
717.1503, 1841.232
717.6324, 1852.560
718.1146, 1870.340
718.5967, 1883.882
719.0788, 1891.671
719.5609, 1895.594
720.0430, 1894.300
720.5251, 1891.145
721.0073, 1890.284
721.4894, 1893.330
721.9715, 1898.100
722.4536, 1905.616
722.9357, 1913.968
723.4178, 1920.756
723.9000, 1927.839
724.3821, 1927.593
724.8642, 1913.191
725.3463, 1895.339
725.8284, 1907.713
726.3105, 1948.442
726.7927, 1976.601
727.2748, 1964.496
727.7569, 1938.386
728.2390, 1937.475
728.7211, 1956.875
729.2032, 1976.906
729.6853, 1984.901
730.1674, 1992.897
730.6495, 2009.761
731.1317, 2035.987
731.6138, 2055.469
732.0959, 2068.571
732.5780, 2073.230
733.0601, 2064.128
733.5422, 2039.368
734.0244, 2033.919
734.5065, 2049.668
734.9886, 2074.049
735.4707, 2102.361
735.9528, 2130.336
736.4349, 2144.026
736.9171, 2140.470
737.3992, 2136.942
737.8813, 2144.784
738.3634, 2160.686
738.8455, 2182.119
739.3276, 2215.341
739.8098, 2241.063
740.2919, 2247.420
740.7740, 2249.444
741.2561, 2264.920
741.7382, 2301.010
742.2203, 2324.482
742.7025, 2326.168
743.1846, 2321.962
743.6667, 2341.229
744.1488, 2380.251
744.6309, 2418.950
745.1130, 2449.777
745.5952, 2477.271
746.0773, 2508.027
746.5594, 2538.848
747.0415, 2561.807
747.5236, 2560.493
748.0057, 2565.196
748.4879, 2591.958
748.9700, 2635.361
749.4521, 2666.975
749.9342, 2678.748
750.4163, 2696.408
750.8984, 2731.484
751.3806, 2779.597
751.8627, 2820.027
752.3448, 2852.629
752.8269, 2886.465
753.3090, 2929.345
753.7911, 2975.115
754.2733, 3014.547
754.7554, 3047.921
755.2375, 3079.463
755.7196, 3106.418
756.2017, 3136.370
756.6838, 3177.620
757.1660, 3235.178
757.6481, 3276.505
758.1302, 3288.905
758.6123, 3303.429
759.0944, 3348.833
759.5765, 3425.519
760.0587, 3473.725
760.5408, 3487.440
761.0229, 3496.225
761.5050, 3532.411
761.9871, 3583.419
762.4692, 3627.882
762.9514, 3661.204
763.4335, 3690.263
763.9156, 3713.858
764.3977, 3737.121
764.8798, 3765.608
765.3619, 3811.058
765.8441, 3845.483
766.3262, 3862.944
766.8083, 3874.986
767.2904, 3898.074
767.7725, 3932.650
768.2546, 3966.847
768.7368, 3999.379
769.2189, 4026.909
769.7010, 4038.174
770.1831, 4040.836
770.6652, 4053.204
771.1473, 4094.118
771.6295, 4131.457
772.1116, 4141.450
772.5937, 4136.305
773.0758, 4141.611
773.5579, 4172.511
774.0400, 4197.635
774.5222, 4212.410
775.0043, 4217.989
775.4864, 4215.615
775.9685, 4204.619
776.4506, 4195.659
776.9327, 4197.320
777.4149, 4199.229
777.8970, 4176.441
778.3791, 4136.384
778.8612, 4106.193
779.3433, 4105.314
779.8254, 4113.426
780.3076, 4122.757
780.7897, 4132.196
781.2718, 4135.955
781.7539, 4133.884
782.2360, 4125.589
782.7181, 4106.613
783.2003, 4079.764
783.6824, 4072.515
784.1645, 4085.598
784.6466, 4105.205
785.1287, 4129.074
785.6108, 4151.188
786.0930, 4154.762
786.5751, 4142.110
787.0572, 4141.406
787.5393, 4179.972
788.0214, 4226.299
788.5035, 4259.752
788.9857, 4276.164
789.4678, 4300.680
789.9499, 4335.647
790.4320, 4376.377
790.9141, 4420.072
791.3962, 4465.988
791.8784, 4525.002
792.3605, 4598.152
792.8426, 4669.093
793.3247, 4723.098
793.8068, 4767.027
794.2889, 4808.662
794.7711, 4847.762
795.2531, 4898.316
795.7352, 4977.605
796.2173, 5063.583
796.6995, 5140.299
797.1816, 5202.856
797.6637, 5266.626
798.1458, 5332.048
798.6279, 5399.342
799.1100, 5468.593
799.5922, 5539.596
800.0743, 5612.356
800.5564, 5687.312
801.0385, 5757.377
801.5206, 5813.914
802.0027, 5862.092
802.4849, 5906.433
802.9670, 5943.480
803.4491, 5991.345
803.9312, 6072.599
804.4133, 6157.445
804.8954, 6217.023
805.3776, 6237.638
805.8597, 6269.147
806.3418, 6315.826
806.8239, 6367.939
807.3060, 6410.510
807.7881, 6447.736
808.2703, 6502.582
808.7524, 6583.451
809.2345, 6664.135
809.7166, 6715.971
810.1987, 6755.340
810.6808, 6804.851
811.1630, 6886.368
811.6451, 6950.347
812.1272, 6968.305
812.6093, 6979.792
813.0914, 7028.814
813.5735, 7121.395
814.0557, 7225.943
814.5378, 7343.548
815.0199, 7456.546
815.5020, 7520.572
815.9841, 7559.246
816.4662, 7635.870
816.9484, 7779.807
817.4305, 7936.933
817.9126, 8067.583
818.3947, 8188.619
818.8768, 8321.116
819.3589, 8465.788
819.8411, 8625.627
820.3232, 8803.205
820.8053, 8994.516
821.2874, 9190.302
821.7695, 9390.535
822.2516, 9603.608
822.7338, 9830.935
823.2159, 10076.91
823.6980, 10347.87
824.1801, 10640.03
824.6622, 10940.43
825.1443, 11249.86
825.6265, 11565.35
826.1086, 11870.34
826.5907, 12188.07
827.0728, 12547.58
827.5549, 12964.69
828.0370, 13392.24
828.5192, 13820.21
829.0013, 14264.36
829.4834, 14741.85
829.9655, 15251.70
830.4476, 15758.48
830.9297, 16256.39
831.4119, 16753.15
831.8940, 17251.11
832.3761, 17756.87
832.8582, 18274.47
833.3403, 18811.20
833.8224, 19344.71
834.3046, 19885.44
834.7867, 20409.75
835.2688, 20873.08
835.7509, 21271.14
836.2330, 21681.92
836.7151, 22135.22
837.1973, 22569.07
837.6794, 22924.99
838.1615, 23201.02
838.6436, 23392.24
839.1257, 23463.45
839.6078, 23507.13
840.0900, 23610.93
840.5721, 23698.35
841.0542, 23653.33
841.5363, 23433.41
842.0184, 23166.48
842.5005, 22863.51
842.9827, 22518.28
843.4648, 22109.56
843.9469, 21644.53
844.4290, 21172.23
844.9111, 20714.18
845.3932, 20236.63
845.8754, 19694.29
846.3575, 19117.87
846.8396, 18549.90
847.3217, 17994.56
847.8038, 17457.98
848.2859, 16946.28
848.7681, 16454.53
849.2502, 15973.52
849.7323, 15503.28
850.2144, 15041.73
850.6965, 14586.13
851.1786, 14147.30
851.6608, 13731.84
852.1429, 13347.79
852.6250, 12994.20
853.1071, 12670.79
853.5892, 12379.27
854.0714, 12125.07
854.5535, 11904.31
855.0356, 11717.12
855.5177, 11583.87
855.9998, 11432.72
856.4819, 11251.70
856.9641, 11067.86
857.4462, 10910.65
857.9283, 10778.74
858.4104, 10676.06
858.8925, 10604.86
859.3746, 10546.36
859.8568, 10475.99
860.3389, 10413.77
860.8210, 10385.23
861.3030, 10413.23
861.7852, 10430.43
862.2673, 10426.55
862.7494, 10415.12
863.2315, 10405.86
863.7136, 10398.85
864.1957, 10394.49
864.6779, 10392.39
865.1600, 10396.33
865.6421, 10420.34
866.1242, 10448.40
866.6063, 10453.26
867.0884, 10427.59
867.5706, 10406.07
868.0527, 10421.86
868.5348, 10430.17
869.0169, 10399.61
869.4990, 10322.05
869.9811, 10254.18
870.4633, 10199.75
870.9454, 10138.51
871.4275, 10050.29
871.9096, 9944.393
872.3917, 9840.547
872.8738, 9740.416
873.3560, 9645.114
873.8381, 9557.964
874.3202, 9473.468
874.8023, 9388.508
875.2844, 9301.351
875.7665, 9221.014
876.2487, 9155.501
876.7308, 9080.799
877.2129, 8979.547
877.6950, 8857.791
878.1771, 8746.278
878.6592, 8645.829
879.1414, 8555.171
879.6235, 8475.678
880.1056, 8404.268
880.5877, 8340.542
881.0698, 8283.567
881.5519, 8226.916
882.0341, 8172.923
882.5162, 8114.373
882.9983, 8048.848
883.4804, 7976.759
883.9625, 7896.250
884.4446, 7807.413
884.9268, 7726.633
885.4089, 7664.768
885.8910, 7612.585
886.3731, 7560.355
886.8552, 7507.123
887.3373, 7450.224
887.8195, 7390.904
888.3016, 7324.766
888.7837, 7245.894
889.2658, 7160.668
889.7479, 7088.083
890.2300, 7033.368
890.7122, 6955.882
891.1943, 6834.559
891.6764, 6705.519
892.1585, 6633.807
892.6406, 6598.071
893.1227, 6552.130
893.6049, 6472.193
894.0870, 6390.960
894.5691, 6323.172
895.0512, 6260.517
895.5333, 6192.653
896.0154, 6121.996
896.4976, 6036.492
896.9797, 5929.613
897.4618, 5823.154
897.9439, 5762.922
898.4260, 5726.726
898.9081, 5657.179
899.3903, 5535.046
899.8724, 5409.767
900.3545, 5299.675
900.8366, 5205.026
901.3187, 5130.998
901.8008, 5089.381
902.2830, 5027.439
902.7651, 4940.369
903.2472, 4842.527
903.7293, 4744.000
904.2114, 4643.998
904.6935, 4543.718
905.1757, 4443.213
905.6578, 4347.595
906.1399, 4267.224
906.6220, 4189.423
907.1041, 4102.717
907.5862, 4003.885
908.0684, 3916.193
908.5505, 3847.104
909.0326, 3776.155
909.5147, 3692.120
909.9968, 3597.211
910.4789, 3500.048
910.9611, 3402.512
911.4432, 3322.249
911.9253, 3284.293
912.4074, 3255.643
912.8895, 3209.681
913.3716, 3149.815
913.8538, 3094.616
914.3359, 3043.736
914.8180, 3003.214
915.3001, 2980.060
915.7822, 2964.120
916.2643, 2923.440
916.7465, 2861.747
917.2286, 2806.477
917.7107, 2765.019
918.1928, 2737.680
918.6749, 2736.653
919.1570, 2746.909
919.6392, 2743.543
920.1213, 2704.031
920.6034, 2673.368
921.0855, 2657.945
921.5676, 2648.709
922.0497, 2633.138
922.5319, 2611.813
923.0140, 2593.807
923.4961, 2580.880
923.9782, 2569.280
924.4603, 2555.443
924.9424, 2540.883
925.4246, 2527.166
925.9067, 2514.726
926.3888, 2502.904
926.8708, 2489.060
927.3530, 2478.817
927.8351, 2477.826
928.3172, 2485.851
928.7993, 2487.562
929.2814, 2482.974
929.7635, 2474.289
930.2457, 2458.841
930.7278, 2443.126
931.2099, 2436.281
931.6920, 2437.397
932.1741, 2433.717
932.6563, 2413.433
933.1384, 2399.580
933.6205, 2402.634
934.1026, 2416.522
934.5847, 2414.287
935.0668, 2396.797
935.5490, 2380.052
936.0311, 2371.610
936.5132, 2366.169
936.9953, 2356.592
937.4774, 2346.318
937.9595, 2342.516
938.4417, 2357.322
938.9238, 2364.615
939.4059, 2358.620
939.8880, 2346.936
940.3701, 2341.493
940.8522, 2341.757
941.3344, 2337.713
941.8165, 2326.654
942.2986, 2316.007
942.7807, 2313.284
943.2628, 2314.715
943.7449, 2316.619
944.2271, 2319.434
944.7092, 2318.522
945.1913, 2307.477
945.6734, 2301.169
946.1555, 2315.706
946.6376, 2348.370
947.1198, 2356.514
947.6019, 2340.583
948.0840, 2323.026
948.5661, 2326.405
949.0482, 2330.332
949.5303, 2310.465
950.0125, 2269.822
950.4946, 2248.765
950.9767, 2266.354
951.4588, 2278.661
951.9409, 2270.127
952.4230, 2249.779
952.9052, 2246.748
953.3873, 2258.196
953.8694, 2266.047
954.3515, 2264.894
954.8336, 2255.257
955.3157, 2224.191
955.7979, 2188.826
956.2800, 2178.441
956.7621, 2222.572
957.2442, 2244.415
957.7263, 2235.006
958.2084, 2210.740
958.6906, 2186.119
959.1727, 2162.896
959.6548, 2147.977
960.1369, 2142.471
960.6190, 2144.293
961.1011, 2162.248
961.5833, 2179.556
962.0654, 2179.729
962.5475, 2158.444
963.0296, 2148.761
963.5117, 2154.658
963.9938, 2161.287
964.4760, 2159.660
964.9581, 2152.705
965.4402, 2145.858
965.9223, 2140.545
966.4044, 2143.323
966.8865, 2171.478
967.3687, 2194.186
967.8508, 2191.898
968.3329, 2173.164
968.8150, 2161.224
969.2971, 2157.130
969.7792, 2155.232
970.2614, 2155.145
970.7435, 2154.923
971.2256, 2149.072
971.7077, 2141.539
972.1898, 2141.426
972.6719, 2155.341
973.1541, 2164.349
973.6362, 2159.283
974.1183, 2148.067
974.6004, 2135.302
975.0825, 2119.409
975.5646, 2112.604
976.0468, 2115.362
976.5289, 2122.787
977.0110, 2133.823
977.4931, 2145.637
977.9752, 2156.258
978.4573, 2164.890
978.9395, 2167.212
979.4216, 2161.314
979.9037, 2148.168
980.3858, 2123.460
980.8679, 2094.040
981.3500, 2080.166
981.8322, 2081.555
982.3143, 2092.151
982.7964, 2114.304
983.2785, 2136.247
983.7606, 2150.671
984.2427, 2155.690
984.7249, 2148.093
985.2070, 2103.972
985.6891, 2086.615
986.1712, 2108.449
986.6533, 2137.322
987.1354, 2137.787
987.6176, 2117.340
988.0997, 2114.991
988.5818, 2132.851
989.0639, 2148.212
989.5460, 2141.876
990.0281, 2130.652
990.5103, 2125.163
990.9924, 2125.998
991.4745, 2128.965
991.9566, 2135.583
992.4387, 2138.903
992.9208, 2134.373
993.4029, 2127.396
993.8850, 2130.403
994.3671, 2140.111
994.8492, 2147.871
995.3314, 2152.075
995.8135, 2151.508
996.2956, 2136.987
996.7777, 2122.858
997.2598, 2129.768
997.7419, 2163.732
998.2241, 2170.475
998.7062, 2143.716
999.1883, 2110.600
999.6704, 2088.047
1000.153, 2079.083
1000.635, 2096.215
1001.117, 2140.422
1001.599, 2163.909
1002.081, 2140.513
1002.563, 2112.060
1003.045, 2088.680
1003.527, 2072.072
1004.009, 2074.142
1004.492, 2092.469
1004.974, 2108.356
1005.456, 2116.265
1005.938, 2115.710
1006.420, 2097.834
1006.902, 2074.192
1007.384, 2064.167
1007.866, 2076.281
1008.349, 2086.525
1008.831, 2094.667
1009.313, 2099.108
1009.795, 2096.108
1010.277, 2088.509
1010.759, 2082.946
1011.241, 2080.050
1011.723, 2078.798
1012.205, 2081.432
1012.688, 2082.759
1013.170, 2078.025
1013.652, 2069.137
1014.134, 2068.726
1014.616, 2077.373
1015.098, 2087.233
1015.580, 2095.529
1016.062, 2103.146
1016.544, 2113.548
1017.027, 2123.435
1017.509, 2127.368
1017.991, 2115.023
1018.473, 2110.221
1018.955, 2121.687
1019.437, 2130.983
1019.919, 2110.785
1020.401, 2068.500
1020.884, 2058.709
1021.366, 2084.455
1021.848, 2110.857
1022.330, 2116.260
1022.812, 2111.417
1023.294, 2097.469
1023.776, 2077.205
1024.258, 2075.584
1024.740, 2099.547
1025.223, 2114.750
1025.705, 2107.644
1026.187, 2090.749
1026.669, 2081.688
1027.151, 2079.662
1027.633, 2084.081
1028.115, 2102.618
1028.597, 2112.057
1029.079, 2097.122
1029.562, 2079.539
1030.044, 2077.338
1030.526, 2090.645
1031.008, 2101.700
1031.490, 2110.130
1031.972, 2115.773
1032.454, 2119.841
1032.936, 2120.044
1033.419, 2111.764
1033.901, 2096.834
1034.383, 2087.351
1034.865, 2086.370
1035.347, 2084.596
1035.829, 2079.059
1036.311, 2073.395
1036.793, 2076.447
1037.276, 2084.214
1037.758, 2086.069
1038.240, 2077.233
1038.722, 2069.986
1039.204, 2067.698
1039.686, 2070.826
1040.168, 2082.728
1040.650, 2103.973
1041.132, 2104.841
1041.615, 2084.884
1042.097, 2068.163
1042.579, 2073.372
1043.061, 2086.107
1043.543, 2094.656
1044.025, 2099.250
1044.507, 2100.580
1044.989, 2096.425
1045.471, 2094.029
1045.954, 2095.438
1046.436, 2096.671
1046.918, 2087.104
1047.400, 2073.372
1047.882, 2077.149
1048.364, 2103.336
1048.846, 2125.533
1049.328, 2130.459
1049.811, 2126.610
1050.293, 2117.653
1050.775, 2104.375
1051.257, 2090.844
1051.739, 2076.888
1052.221, 2070.998
1052.703, 2081.271
1053.185, 2095.355
1053.667, 2101.086
1054.150, 2101.326
1054.632, 2101.153
1055.114, 2103.267
1055.596, 2101.445
1056.078, 2093.444
1056.560, 2086.106
1057.042, 2088.316
1057.524, 2096.124
1058.006, 2098.275
1058.489, 2094.514
1058.971, 2089.193
1059.453, 2078.780
1059.935, 2073.711
1060.417, 2079.391
1060.899, 2093.083
1061.381, 2112.522
1061.863, 2137.383
1062.346, 2140.857
1062.828, 2110.185
1063.310, 2076.139
1063.792, 2065.412
1064.274, 2070.684
1064.756, 2087.760
1065.238, 2125.557
1065.720, 2137.698
1066.203, 2115.527
1066.685, 2092.837
1067.167, 2091.194
1067.649, 2103.177
1068.131, 2117.763
1068.613, 2131.682
1069.095, 2134.107
1069.577, 2103.644
1070.059, 2083.033
1070.542, 2086.884
1071.024, 2101.454
1071.506, 2112.402
1071.988, 2119.377
1072.470, 2115.020
1072.952, 2098.124
1073.434, 2081.773
1073.916, 2074.283
1074.398, 2073.213
1074.881, 2079.461
1075.363, 2092.165
1075.845, 2098.641
1076.327, 2096.108
1076.809, 2100.367
1077.291, 2119.911
1077.773, 2141.376
1078.255, 2143.837
1078.738, 2134.009
1079.220, 2121.571
1079.702, 2102.636
1080.184, 2099.372
1080.666, 2125.000
1081.148, 2148.510
1081.630, 2144.133
1082.112, 2118.985
1082.594, 2113.915
1083.077, 2125.531
1083.559, 2133.192
1084.041, 2118.655
1084.523, 2104.925
1085.005, 2103.968
1085.487, 2110.180
1085.969, 2116.125
1086.451, 2122.456
1086.933, 2120.192
1087.416, 2107.018
1087.898, 2095.410
1088.380, 2095.273
1088.862, 2103.588
1089.344, 2124.479
1089.826, 2156.783
1090.308, 2162.555
1090.790, 2126.431
1091.272, 2102.062
1091.755, 2109.752
1092.237, 2131.302
1092.719, 2135.261
1093.201, 2127.556
1093.683, 2120.552
1094.165, 2117.809
1094.647, 2114.823
1095.129, 2107.032
1095.612, 2102.863
1096.094, 2109.473
1096.576, 2125.123
1097.058, 2136.967
1097.540, 2144.604
1098.022, 2144.688
1098.504, 2130.621
1098.986, 2113.658
1099.469, 2088.903
1099.951, 2069.973
1100.433, 2083.316
1100.915, 2136.957
1101.397, 2163.717
1101.879, 2156.032
1102.361, 2137.885
1102.843, 2124.734
1103.325, 2116.388
1103.807, 2114.802
1104.290, 2119.143
1104.772, 2118.614
1105.254, 2109.310
1105.736, 2103.796
1106.218, 2106.125
1106.700, 2111.798
1107.182, 2112.970
1107.664, 2112.414
1108.147, 2115.724
1108.629, 2124.842
1109.111, 2134.438
1109.593, 2145.712
1110.075, 2153.499
1110.557, 2154.742
1111.039, 2150.571
1111.521, 2145.744
1112.004, 2140.035
1112.486, 2132.014
1112.968, 2113.833
1113.450, 2103.111
1113.932, 2117.722
1114.414, 2137.434
1114.896, 2137.413
1115.378, 2114.532
1115.860, 2112.745
1116.343, 2133.752
1116.825, 2154.132
1117.307, 2155.390
1117.789, 2150.260
1118.271, 2150.912
1118.753, 2153.757
1119.235, 2143.422
1119.717, 2111.654
1120.199, 2096.133
1120.682, 2104.435
1121.164, 2123.192
1121.646, 2143.930
1122.128, 2161.756
1122.610, 2167.841
1123.092, 2160.728
1123.574, 2157.734
1124.056, 2161.732
1124.539, 2169.378
1125.021, 2182.882
1125.503, 2195.127
1125.985, 2187.294
1126.467, 2166.657
1126.949, 2149.764
1127.431, 2139.273
1127.913, 2138.660
1128.396, 2162.513
1128.878, 2181.367
1129.360, 2173.363
1129.842, 2144.837
1130.324, 2139.527
1130.806, 2153.721
1131.288, 2165.514
1131.770, 2156.280
1132.252, 2150.584
1132.734, 2169.814
1133.217, 2192.324
1133.699, 2189.827
1134.181, 2159.621
1134.663, 2142.755
1135.145, 2140.916
1135.627, 2144.281
1136.109, 2150.821
1136.591, 2154.867
1137.074, 2147.179
1137.556, 2133.325
1138.038, 2134.290
1138.520, 2155.990
1139.002, 2164.800
1139.484, 2153.496
1139.966, 2138.344
1140.448, 2132.588
1140.931, 2135.800
1141.413, 2153.259
1141.895, 2185.281
1142.377, 2197.799
1142.859, 2179.435
1143.341, 2168.836
1143.823, 2181.621
1144.305, 2200.227
1144.787, 2188.829
1145.270, 2163.760
1145.752, 2157.510
1146.234, 2185.332
1146.716, 2198.892
1147.198, 2182.725
1147.680, 2166.794
1148.162, 2168.171
1148.644, 2179.935
1149.126, 2181.691
1149.609, 2175.535
1150.091, 2167.852
1150.573, 2158.967
1151.055, 2152.257
1151.537, 2145.985
1152.019, 2144.957
1152.501, 2157.445
1152.983, 2180.732
1153.466, 2187.352
1153.948, 2179.188
1154.430, 2173.059
1154.912, 2181.822
1155.394, 2190.714
1155.876, 2197.697
1156.358, 2198.280
1156.840, 2180.154
1157.322, 2143.513
1157.805, 2132.656
1158.287, 2151.172
1158.769, 2169.949
1159.251, 2151.005
1159.733, 2140.255
1160.215, 2190.767
1160.697, 2273.562
1161.179, 2289.960
1161.661, 2234.060
1162.144, 2201.354
1162.626, 2212.635
1163.108, 2230.721
1163.590, 2215.688
1164.072, 2193.923
1164.554, 2194.025
1165.036, 2216.252
1165.518, 2224.168
1166.000, 2215.119
1166.483, 2207.967
1166.965, 2210.551
1167.447, 2212.778
1167.929, 2196.255
1168.411, 2175.195
1168.893, 2168.904
1169.375, 2185.849
1169.857, 2192.233
1170.340, 2185.052
1170.822, 2179.087
1171.304, 2183.007
1171.786, 2190.818
1172.268, 2195.877
1172.750, 2197.325
1173.232, 2193.089
1173.714, 2175.135
1174.197, 2165.934
1174.679, 2165.428
1175.161, 2174.653
1175.643, 2207.700
1176.125, 2244.534
1176.607, 2235.800
1177.089, 2196.136
1177.571, 2168.778
1178.053, 2173.823
1178.536, 2185.078
1179.018, 2202.874
1179.500, 2220.925
1179.982, 2235.899
1180.464, 2245.448
1180.946, 2239.662
1181.428, 2221.254
1181.910, 2208.680
1182.392, 2217.635
1182.875, 2220.643
1183.357, 2209.250
1183.839, 2195.362
1184.321, 2196.526
1184.803, 2208.525
1185.285, 2221.729
1185.767, 2234.777
1186.249, 2240.275
1186.732, 2226.933
1187.214, 2215.020
1187.696, 2209.125
1188.178, 2209.718
1188.660, 2223.162
1189.142, 2243.969
1189.624, 2251.570
1190.106, 2240.904
1190.589, 2231.380
1191.071, 2233.390
1191.553, 2236.923
1192.035, 2237.508
1192.517, 2236.649
1192.999, 2238.796
1193.481, 2243.662
1193.963, 2251.453
1194.445, 2265.027
1194.927, 2270.788
1195.410, 2251.098
1195.892, 2233.063
1196.374, 2234.594
1196.856, 2250.219
1197.338, 2248.438
1197.820, 2233.514
1198.302, 2227.791
1198.784, 2245.798
1199.267, 2261.409
1199.749, 2257.202
1200.231, 2249.813
1200.713, 2252.313
1201.195, 2263.276
1201.677, 2265.728
1202.159, 2260.924
1202.641, 2256.800
1203.124, 2257.725
1203.606, 2259.691
1204.088, 2263.557
1204.570, 2265.456
1205.052, 2258.080
1205.534, 2242.024
1206.016, 2250.415
1206.498, 2280.420
1206.980, 2302.036
1207.463, 2289.809
1207.945, 2274.755
1208.427, 2271.600
1208.909, 2273.732
1209.391, 2274.720
1209.873, 2274.539
1210.355, 2271.421
1210.837, 2265.652
1211.319, 2262.721
1211.802, 2267.989
1212.284, 2275.036
1212.766, 2283.675
1213.248, 2290.408
1213.730, 2287.174
1214.212, 2275.074
1214.694, 2276.921
1215.176, 2294.488
1215.659, 2303.085
1216.141, 2268.353
1216.623, 2240.535
1217.105, 2252.542
1217.587, 2284.755
1218.069, 2301.571
1218.551, 2303.716
1219.033, 2294.734
1219.516, 2274.378
1219.998, 2262.500
1220.480, 2289.326
1220.962, 2309.232
1221.444, 2288.743
1221.926, 2248.884
1222.408, 2249.529
1222.890, 2284.388
1223.372, 2294.979
1223.854, 2267.240
1224.337, 2245.386
1224.819, 2262.496
1225.301, 2288.713
1225.783, 2311.374
1226.265, 2328.289
1226.747, 2330.506
1227.229, 2319.763
1227.711, 2303.268
1228.193, 2279.830
1228.676, 2266.205
1229.158, 2277.597
1229.640, 2296.292
1230.122, 2316.368
1230.604, 2333.986
1231.086, 2329.073
1231.568, 2307.326
1232.050, 2298.309
1232.533, 2316.168
1233.015, 2326.896
1233.497, 2298.870
1233.979, 2275.507
1234.461, 2283.947
1234.943, 2314.419
1235.425, 2328.662
1235.907, 2329.002
1236.390, 2324.040
1236.872, 2313.616
1237.354, 2305.841
1237.836, 2301.982
1238.318, 2304.440
1238.800, 2320.077
1239.282, 2341.503
1239.764, 2332.320
1240.246, 2302.670
1240.729, 2286.880
1241.211, 2305.315
1241.693, 2323.887
1242.175, 2339.373
1242.657, 2345.447
1243.139, 2332.133
1243.621, 2307.937
1244.103, 2300.613
1244.585, 2307.733
1245.068, 2322.678
1245.550, 2354.904
1246.032, 2372.552
1246.514, 2365.713
1246.996, 2356.924
1247.478, 2367.298
1247.960, 2386.125
1248.442, 2379.849
1248.925, 2357.949
1249.407, 2346.012
1249.889, 2367.621
1250.371, 2374.964
1250.853, 2360.868
1251.335, 2344.461
1251.817, 2341.709
1252.299, 2346.733
1252.781, 2349.374
1253.264, 2350.381
1253.746, 2352.201
1254.228, 2359.609
1254.710, 2358.837
1255.192, 2347.313
1255.674, 2335.462
1256.156, 2334.201
##END=



