##NAMES=Arsenolite
##RRUFFID=R050383
##IDEAL CHEMISTRY=As^3+^_2_O_3_
##LOCALITY=Eureka, Nevada, USA
##OWNER=RRUFF
##SOURCE=University of Arizona Mineral Museum
##DESCRIPTION=Colorless hoppered octahedra
##STATUS=The identification of this mineral has been confirmed by X-ray diffraction and chemical analysis
##URL=rruff.info/R050383
##MEASURED CHEMISTRY=As_2.00_O_3_
92.52344, 997.0166
93.00555, 1007.305
93.48767, 1007.703
93.96979, 1010.297
94.45190, 1009.786
94.93402, 1002.429
95.41614, 978.7836
95.89825, 946.2733
96.38037, 914.3365
96.86249, 882.7770
97.34460, 851.3619
97.82672, 820.9561
98.30884, 791.2992
98.79095, 762.8664
99.27307, 734.1719
99.75519, 703.5662
100.2373, 671.8655
100.7194, 640.2826
101.2015, 611.9286
101.6837, 587.0315
102.1658, 564.2178
102.6479, 542.3422
103.1300, 521.1599
103.6121, 501.5439
104.0942, 484.3878
104.5764, 469.0256
105.0585, 455.3683
105.5406, 443.1584
106.0227, 432.4252
106.5048, 423.6524
106.9869, 417.7396
107.4691, 412.3760
107.9512, 406.5631
108.4333, 400.3071
108.9154, 393.7531
109.3975, 386.8227
109.8796, 379.3347
110.3618, 372.5390
110.8439, 366.6575
111.3260, 361.2084
111.8081, 356.5164
112.2902, 352.3660
112.7723, 347.8449
113.2544, 341.5977
113.7366, 332.2261
114.2187, 323.6020
114.7008, 315.6840
115.1829, 308.4184
115.6650, 301.8047
116.1471, 295.8144
116.6293, 290.4440
117.1114, 285.8345
117.5935, 282.3817
118.0756, 278.8270
118.5577, 275.1539
119.0398, 271.1871
119.5220, 266.2564
120.0041, 259.5555
120.4862, 252.1828
120.9683, 246.4431
121.4504, 242.5514
121.9325, 239.8363
122.4147, 238.3818
122.8968, 238.3457
123.3789, 237.6309
123.8610, 234.4445
124.3431, 230.2387
124.8252, 226.2018
125.3074, 222.5368
125.7895, 219.4325
126.2716, 217.4683
126.7537, 217.5217
127.2358, 217.1876
127.7179, 215.6477
128.2001, 213.3538
128.6822, 210.8169
129.1643, 208.2896
129.6464, 205.7973
130.1285, 203.8033
130.6107, 203.4562
131.0928, 202.5148
131.5749, 200.1689
132.0570, 196.7505
132.5391, 193.0114
133.0212, 189.5601
133.5034, 186.3319
133.9855, 183.9802
134.4676, 183.3540
134.9497, 182.7392
135.4318, 180.9229
135.9139, 177.9012
136.3960, 174.7983
136.8782, 172.9483
137.3603, 172.6452
137.8424, 172.2405
138.3245, 171.3649
138.8066, 170.4513
139.2887, 170.1482
139.7709, 170.7178
140.2530, 171.4288
140.7351, 171.2637
141.2172, 170.3203
141.6993, 169.3592
142.1814, 168.8239
142.6636, 168.5652
143.1457, 167.9560
143.6278, 166.4899
144.1099, 165.0816
144.5920, 164.5303
145.0741, 164.8375
145.5563, 165.3650
146.0384, 165.5753
146.5205, 165.4334
147.0026, 165.2777
147.4847, 164.8603
147.9668, 164.6516
148.4490, 165.1193
148.9311, 166.3058
149.4132, 167.6363
149.8953, 168.1709
150.3774, 167.3608
150.8595, 166.8564
151.3417, 166.8158
151.8238, 167.0510
152.3059, 167.5014
152.7880, 168.1249
153.2701, 168.8003
153.7522, 169.2092
154.2344, 168.6393
154.7165, 168.6279
155.1986, 169.5217
155.6807, 170.9225
156.1628, 172.1865
156.6449, 172.9260
157.1271, 173.5232
157.6092, 175.6635
158.0913, 179.5098
158.5734, 184.3330
159.0555, 188.6925
159.5376, 193.6705
160.0198, 201.9756
160.5019, 214.8769
160.9840, 232.8895
161.4661, 255.3427
161.9482, 285.0756
162.4303, 316.0461
162.9125, 347.4473
163.3946, 378.9717
163.8767, 401.8396
164.3588, 406.5470
164.8409, 399.6424
165.3230, 392.0964
165.8052, 384.3904
166.2873, 377.9246
166.7694, 374.6430
167.2515, 374.7663
167.7336, 377.4359
168.2157, 382.0111
168.6979, 388.7380
169.1800, 398.4345
169.6621, 411.9095
170.1442, 428.2648
170.6263, 445.1579
171.1084, 462.8432
171.5906, 480.6808
172.0727, 499.3401
172.5548, 517.8874
173.0369, 534.8187
173.5190, 548.7950
174.0011, 560.4045
174.4833, 574.5872
174.9654, 593.0743
175.4475, 612.8718
175.9296, 632.4507
176.4117, 652.8623
176.8938, 676.1112
177.3760, 703.6378
177.8581, 735.4664
178.3402, 771.0029
178.8223, 800.9481
179.3044, 842.6616
179.7865, 895.1268
180.2687, 963.1943
180.7508, 1059.448
181.2329, 1197.197
181.7150, 1381.805
182.1971, 1556.862
182.6792, 1818.156
183.1614, 1995.988
183.6435, 1965.010
184.1256, 1731.434
184.6077, 1415.520
185.0898, 1099.833
185.5719, 788.6772
186.0541, 548.5974
186.5362, 408.6214
187.0183, 325.2338
187.5004, 267.1723
187.9825, 231.7966
188.4646, 209.4781
188.9468, 195.8620
189.4289, 189.3908
189.9110, 184.3030
190.3931, 180.0584
190.8752, 176.2656
191.3573, 172.1458
191.8395, 167.3950
192.3216, 163.0446
192.8037, 159.7869
193.2858, 157.4763
193.7679, 155.9891
194.2500, 155.7169
194.7322, 156.2800
195.2143, 156.4044
195.6964, 155.7647
196.1785, 155.1525
196.6606, 155.2204
197.1427, 155.6557
197.6249, 155.7531
198.1070, 154.8196
198.5891, 153.0046
199.0712, 151.8784
199.5533, 152.2848
200.0354, 152.4673
200.5176, 151.2380
200.9997, 149.2201
201.4818, 147.8773
201.9639, 148.6554
202.4460, 151.6387
202.9281, 153.3427
203.4103, 152.5388
203.8924, 151.4679
204.3745, 150.5881
204.8566, 149.9702
205.3387, 149.5684
205.8208, 149.3324
206.3030, 149.2484
206.7851, 149.4848
207.2672, 150.7155
207.7493, 151.6136
208.2314, 151.3033
208.7135, 150.0736
209.1957, 148.9027
209.6778, 148.6370
210.1599, 149.3301
210.6420, 150.7491
211.1241, 154.2640
211.6062, 157.1817
212.0884, 157.6514
212.5705, 155.9449
213.0526, 153.8950
213.5347, 153.0488
214.0168, 153.5692
214.4989, 154.6058
214.9811, 157.4406
215.4632, 159.7747
215.9453, 159.6635
216.4274, 157.1612
216.9095, 154.2868
217.3916, 152.6660
217.8737, 152.4021
218.3559, 152.4417
218.8380, 152.7301
219.3201, 153.3419
219.8022, 154.5865
220.2843, 156.4855
220.7664, 158.1696
221.2486, 158.7679
221.7307, 158.5175
222.2128, 158.4492
222.6949, 158.6330
223.1770, 159.1039
223.6591, 160.0271
224.1413, 161.4753
224.6234, 162.8932
225.1055, 164.0598
225.5876, 164.8906
226.0697, 165.1078
226.5518, 164.2593
227.0340, 162.9492
227.5161, 162.0996
227.9982, 161.8351
228.4803, 161.5965
228.9624, 160.8569
229.4445, 159.9863
229.9267, 159.4695
230.4088, 159.4547
230.8909, 159.9192
231.3730, 160.8987
231.8551, 162.5624
232.3372, 164.3230
232.8194, 166.0872
233.3015, 167.7686
233.7836, 169.2751
234.2657, 170.5813
234.7478, 171.6724
235.2299, 172.5180
235.7121, 173.1357
236.1942, 173.4427
236.6763, 172.5277
237.1584, 171.6756
237.6405, 172.4728
238.1227, 175.7646
238.6048, 180.4905
239.0869, 183.7467
239.5690, 183.8882
240.0511, 185.5385
240.5332, 190.5004
241.0154, 196.7281
241.4975, 201.6678
241.9796, 204.1786
242.4617, 206.0889
242.9438, 211.7335
243.4259, 220.9491
243.9081, 235.0400
244.3902, 248.3695
244.8723, 268.5099
245.3544, 299.2734
245.8365, 342.7192
246.3186, 403.6045
246.8008, 493.9630
247.2829, 625.3478
247.7650, 773.8638
248.2471, 970.4600
248.7292, 1166.212
249.2113, 1323.406
249.6935, 1427.619
250.1756, 1479.097
250.6577, 1475.076
251.1398, 1348.120
251.6219, 1261.859
252.1040, 1229.971
252.5862, 1229.748
253.0683, 1243.082
253.5504, 1264.237
254.0325, 1296.821
254.5146, 1347.343
254.9967, 1425.322
255.4789, 1506.019
255.9610, 1588.034
256.4431, 1673.010
256.9252, 1765.678
257.4073, 1866.557
257.8894, 1966.819
258.3716, 2054.175
258.8537, 2121.246
259.3358, 2193.665
259.8179, 2266.728
260.3000, 2348.140
260.7821, 2443.619
261.2643, 2554.604
261.7464, 2679.973
262.2285, 2817.281
262.7106, 2967.229
263.1927, 3145.896
263.6748, 3308.803
264.1570, 3528.698
264.6391, 3855.758
265.1212, 4296.529
265.6033, 4850.838
266.0854, 5517.228
266.5675, 6309.344
267.0497, 7202.363
267.5318, 8758.051
268.0139, 10021.02
268.4960, 10143.81
268.9781, 9106.600
269.4602, 7536.241
269.9424, 5672.346
270.4245, 3634.752
270.9066, 2109.130
271.3887, 1316.864
271.8708, 883.6686
272.3529, 602.9410
272.8351, 460.2786
273.3172, 377.8629
273.7993, 324.4983
274.2814, 296.5119
274.7635, 273.1133
275.2456, 254.6694
275.7278, 240.1225
276.2099, 229.7919
276.6920, 223.3331
277.1741, 217.9684
277.6562, 212.6147
278.1383, 207.5529
278.6205, 203.2000
279.1026, 199.5240
279.5847, 196.5280
280.0668, 194.6620
280.5489, 193.6782
281.0310, 192.0609
281.5132, 188.8683
281.9953, 185.2109
282.4774, 182.5954
282.9595, 181.0772
283.4416, 180.1971
283.9237, 179.9597
284.4059, 180.2127
284.8880, 180.3192
285.3701, 180.1236
285.8522, 179.7262
286.3343, 179.2136
286.8164, 178.5924
287.2986, 177.9837
287.7807, 177.1445
288.2628, 176.3284
288.7449, 176.6079
289.2270, 178.8360
289.7091, 180.8768
290.1913, 180.5525
290.6734, 178.4774
291.1555, 176.8327
291.6376, 177.0298
292.1197, 178.3414
292.6018, 179.0014
293.0840, 178.7103
293.5661, 178.2859
294.0482, 178.3374
294.5303, 178.6402
295.0124, 178.7579
295.4945, 178.1952
295.9767, 177.5237
296.4588, 177.9833
296.9409, 179.9709
297.4230, 181.7280
297.9051, 182.3825
298.3872, 182.2750
298.8694, 181.6390
299.3515, 180.3882
299.8336, 178.8974
300.3157, 177.5560
300.7978, 176.3196
301.2799, 175.4671
301.7621, 175.4956
302.2442, 175.7650
302.7263, 175.6379
303.2084, 174.9324
303.6905, 174.2372
304.1726, 174.2311
304.6548, 174.9458
305.1369, 175.5981
305.6190, 176.0117
306.1011, 176.2827
306.5832, 176.4440
307.0653, 176.5053
307.5475, 176.5799
308.0296, 176.7505
308.5117, 177.0138
308.9938, 177.3713
309.4759, 178.0611
309.9580, 178.5403
310.4402, 178.1935
310.9223, 177.2674
311.4044, 176.6992
311.8865, 177.4929
312.3686, 179.2320
312.8507, 180.0543
313.3329, 179.5988
313.8150, 178.7574
314.2971, 177.5284
314.7792, 176.3300
315.2613, 175.9946
315.7434, 177.1718
316.2256, 179.2650
316.7077, 181.0593
317.1898, 182.5814
317.6719, 183.7544
318.1540, 184.1955
318.6361, 184.4173
319.1183, 185.0602
319.6004, 186.4546
320.0825, 187.9409
320.5646, 188.5509
321.0467, 188.1508
321.5288, 187.7180
322.0110, 187.1570
322.4931, 186.9565
322.9752, 187.8780
323.4573, 190.0719
323.9394, 192.0167
324.4215, 191.9141
324.9037, 189.8186
325.3858, 188.4374
325.8679, 188.6011
326.3500, 189.2938
326.8321, 189.7792
327.3142, 190.0834
327.7964, 190.5052
328.2785, 191.8305
328.7606, 193.6163
329.2427, 193.4176
329.7248, 189.8343
330.2069, 186.4599
330.6891, 185.4712
331.1712, 186.2447
331.6533, 187.5603
332.1354, 189.0880
332.6175, 190.7042
333.0996, 192.1673
333.5818, 193.4789
334.0639, 194.6521
334.5460, 195.2585
335.0281, 195.8758
335.5102, 197.2962
335.9923, 199.9644
336.4745, 202.9492
336.9566, 204.9548
337.4387, 205.8760
337.9208, 207.4921
338.4029, 210.9155
338.8850, 214.9432
339.3671, 218.0956
339.8492, 220.1688
340.3314, 222.8804
340.8135, 227.5526
341.2956, 234.0450
341.7777, 241.2553
342.2598, 249.0207
342.7419, 257.4962
343.2241, 265.5567
343.7062, 273.7941
344.1883, 285.5576
344.6704, 301.4153
345.1525, 322.0597
345.6346, 347.3671
346.1168, 375.1232
346.5989, 414.4687
347.0810, 463.2921
347.5631, 528.6752
348.0452, 629.7446
348.5273, 767.0048
349.0095, 945.7928
349.4916, 1183.361
349.9737, 1479.777
350.4558, 1794.339
350.9379, 2147.243
351.4200, 2479.168
351.9022, 2703.911
352.3843, 2803.222
352.8664, 2832.127
353.3485, 2787.393
353.8306, 2691.916
354.3127, 2635.420
354.7949, 2642.353
355.2770, 2698.308
355.7591, 2787.577
356.2412, 2907.608
356.7233, 3052.131
357.2054, 3223.618
357.6876, 3416.700
358.1697, 3626.004
358.6518, 3852.209
359.1339, 4085.485
359.6160, 4316.656
360.0981, 4547.705
360.5803, 4781.075
361.0624, 5001.521
361.5445, 5235.491
362.0266, 5494.249
362.5087, 5780.827
362.9908, 6108.007
363.4730, 6475.857
363.9551, 6897.591
364.4372, 7397.742
364.9193, 7925.060
365.4014, 8596.771
365.8835, 9466.930
366.3657, 10511.04
366.8478, 11704.52
367.3299, 13047.03
367.8120, 14495.00
368.2941, 16134.78
368.7762, 18210.78
369.2584, 19421.23
369.7405, 19648.24
370.2226, 18890.16
370.7047, 16752.78
371.1868, 13292.54
371.6689, 9679.029
372.1511, 6868.131
372.6332, 4913.298
373.1153, 3447.499
373.5974, 2621.981
374.0795, 2066.220
374.5616, 1672.684
375.0438, 1405.374
375.5259, 1210.373
376.0080, 1064.350
376.4901, 959.5578
376.9722, 871.4243
377.4543, 805.9482
377.9365, 749.0974
378.4186, 701.6391
378.9007, 661.1215
379.3828, 625.9438
379.8649, 595.4261
380.3470, 568.5452
380.8292, 544.1961
381.3113, 523.4133
381.7934, 501.8938
382.2755, 477.8407
382.7576, 454.6624
383.2397, 434.4863
383.7219, 417.0246
384.2040, 401.1455
384.6861, 386.1578
385.1682, 371.9686
385.6503, 357.5149
386.1324, 341.9710
386.6146, 327.1496
387.0967, 313.0153
387.5788, 300.0252
388.0609, 288.9193
388.5430, 280.0434
389.0251, 272.4477
389.5073, 264.0424
389.9894, 253.7533
390.4715, 244.9442
390.9536, 237.6497
391.4357, 231.7437
391.9178, 227.4384
392.4000, 224.5700
392.8821, 222.4558
393.3642, 220.6434
393.8463, 219.1544
394.3284, 217.0085
394.8105, 213.1306
395.2927, 209.8269
395.7748, 208.2764
396.2569, 207.7342
396.7390, 206.9062
397.2211, 205.0956
397.7032, 202.7479
398.1854, 200.8678
398.6675, 199.5606
399.1496, 198.3883
399.6317, 197.0911
400.1138, 195.9610
400.5959, 195.2690
401.0781, 195.0576
401.5602, 195.1020
402.0423, 195.0746
402.5244, 195.0320
403.0065, 195.7505
403.4886, 197.9421
403.9708, 199.9888
404.4529, 200.3753
404.9350, 199.6875
405.4171, 199.6072
405.8992, 201.4676
406.3813, 204.0316
406.8635, 205.1217
407.3456, 204.5470
407.8277, 204.2592
408.3098, 205.2094
408.7919, 207.0912
409.2740, 209.2786
409.7562, 211.7043
410.2383, 214.5391
410.7204, 217.9930
411.2025, 221.9621
411.6846, 226.2404
412.1667, 230.8821
412.6489, 235.6041
413.1310, 240.8468
413.6131, 246.6962
414.0952, 249.2794
414.5773, 246.6405
415.0594, 241.3225
415.5416, 235.1090
416.0237, 228.2543
416.5058, 221.1277
416.9879, 213.7441
417.4700, 206.3647
417.9521, 200.3846
418.4343, 196.0686
418.9164, 192.5520
419.3985, 189.6020
419.8806, 187.3041
420.3627, 185.8010
420.8448, 185.1300
421.3270, 185.2822
421.8091, 186.4219
422.2912, 189.4151
422.7733, 190.7616
423.2554, 189.1410
423.7375, 187.1605
424.2197, 186.3960
424.7018, 186.6921
425.1839, 186.9812
425.6660, 186.4391
426.1481, 185.2809
426.6302, 184.9958
427.1124, 186.5729
427.5945, 187.8556
428.0766, 187.9200
428.5587, 187.9009
429.0408, 189.5497
429.5229, 193.1905
430.0051, 196.6822
430.4872, 196.3145
430.9693, 190.5139
431.4514, 187.4612
431.9335, 190.7253
432.4156, 193.8403
432.8978, 193.7164
433.3799, 191.2912
433.8620, 189.3869
434.3441, 189.9665
434.8262, 192.1035
435.3083, 192.9854
435.7905, 192.0198
436.2726, 191.4342
436.7547, 192.3866
437.2368, 193.8925
437.7189, 195.1178
438.2010, 195.8955
438.6832, 196.5957
439.1653, 197.3637
439.6474, 198.2654
440.1295, 199.7461
440.6116, 202.0520
441.0938, 204.6022
441.5759, 207.2131
442.0580, 209.7234
442.5401, 211.4861
443.0222, 210.9660
443.5043, 210.5440
443.9865, 213.0597
444.4686, 218.2123
444.9507, 223.2893
445.4328, 226.9488
445.9149, 229.8405
446.3970, 233.2850
446.8792, 236.9626
447.3613, 241.8270
447.8434, 248.3811
448.3255, 256.1575
448.8076, 264.3491
449.2897, 272.9156
449.7719, 282.9044
450.2540, 295.5636
450.7361, 311.1140
451.2182, 325.7460
451.7003, 337.8983
452.1824, 350.9651
452.6646, 367.3603
453.1467, 385.3260
453.6288, 401.7821
454.1109, 415.4189
454.5930, 427.1152
455.0751, 438.7975
455.5573, 451.2492
456.0394, 462.0309
456.5215, 469.0021
457.0036, 476.3852
457.4857, 486.1531
457.9678, 498.5902
458.4500, 513.6304
458.9321, 531.5748
459.4142, 551.9564
459.8963, 572.2236
460.3784, 592.1852
460.8605, 612.2986
461.3427, 631.1278
461.8248, 651.1317
462.3069, 675.0743
462.7890, 703.6407
463.2711, 734.7261
463.7532, 765.1313
464.2354, 795.3713
464.7175, 830.5236
465.1996, 872.2281
465.6817, 917.4305
466.1638, 964.2448
466.6459, 1012.620
467.1281, 1063.010
467.6102, 1118.944
468.0923, 1173.683
468.5744, 1222.374
469.0565, 1264.704
469.5386, 1294.526
470.0208, 1311.455
470.5029, 1311.858
470.9850, 1288.058
471.4671, 1240.507
471.9492, 1177.788
472.4313, 1093.924
472.9135, 1000.401
473.3956, 905.9010
473.8777, 812.7518
474.3598, 725.1881
474.8419, 646.4456
475.3240, 576.4562
475.8062, 516.7181
476.2883, 468.4216
476.7704, 427.0207
477.2525, 393.5223
477.7346, 365.7634
478.2167, 341.9499
478.6989, 321.2797
479.1810, 303.4068
479.6631, 287.6865
480.1452, 274.2763
480.6273, 262.7716
481.1094, 254.5782
481.5916, 246.9261
482.0737, 238.4799
482.5558, 230.0545
483.0379, 223.3250
483.5200, 219.2194
484.0021, 216.3816
484.4843, 211.8149
484.9664, 204.7103
485.4485, 199.5679
485.9306, 198.9622
486.4127, 199.1847
486.8948, 197.7216
487.3770, 194.7411
487.8591, 191.9013
488.3412, 190.3790
488.8233, 189.5636
489.3054, 188.1104
489.7875, 185.9078
490.2697, 184.1550
490.7518, 183.4681
491.2339, 183.6761
491.7160, 184.5176
492.1981, 186.6082
492.6802, 187.5230
493.1624, 185.0446
493.6445, 181.1910
494.1266, 179.2922
494.6087, 179.8590
495.0908, 180.5199
495.5729, 178.9030
496.0551, 175.0703
496.5372, 173.4134
497.0193, 175.5838
497.5014, 177.6531
497.9835, 178.6467
498.4656, 178.7383
498.9478, 177.7757
499.4299, 175.8372
499.9120, 174.2518
500.3941, 175.3113
500.8762, 180.3081
501.3583, 182.8038
501.8405, 180.3698
502.3226, 177.8927
502.8047, 176.9666
503.2868, 177.2791
503.7689, 178.1751
504.2510, 179.4377
504.7331, 180.6919
505.2152, 181.0455
505.6974, 180.2530
506.1795, 180.1097
506.6616, 181.4262
507.1437, 183.1017
507.6258, 184.3016
508.1079, 185.1016
508.5901, 185.9731
509.0722, 187.4447
509.5543, 188.9732
510.0364, 190.0122
510.5185, 190.5445
511.0006, 189.8122
511.4828, 187.0502
511.9649, 183.1564
512.4470, 179.7816
512.9291, 176.4656
513.4113, 174.9164
513.8934, 176.8492
514.3755, 180.0091
514.8576, 182.1771
515.3397, 183.1445
515.8218, 183.6364
516.3040, 184.1567
516.7861, 184.6976
517.2682, 185.1959
517.7503, 185.6258
518.2324, 186.0413
518.7145, 186.3357
519.1967, 186.6881
519.6788, 187.1656
520.1609, 187.8372
520.6430, 188.8944
521.1251, 190.5467
521.6072, 192.7961
522.0894, 195.3854
522.5715, 198.7589
523.0536, 201.7631
523.5357, 203.8226
524.0178, 205.4360
524.4999, 207.1051
524.9821, 208.9428
525.4642, 211.0189
525.9463, 213.1159
526.4284, 215.4311
526.9105, 219.2853
527.3926, 225.4021
527.8748, 231.3611
528.3569, 234.9726
528.8390, 236.8511
529.3211, 239.1886
529.8032, 242.3322
530.2853, 245.8092
530.7675, 249.8081
531.2496, 253.8731
531.7317, 256.9544
532.2138, 258.7486
532.6959, 260.0451
533.1780, 261.6534
533.6602, 263.4063
534.1423, 266.6444
534.6244, 272.1235
535.1065, 278.0275
535.5886, 284.2542
536.0707, 290.2746
536.5529, 294.8376
537.0350, 297.4959
537.5171, 300.2838
537.9992, 305.6956
538.4813, 313.1254
538.9634, 326.0665
539.4456, 343.1452
539.9277, 368.0650
540.4098, 402.0398
540.8919, 444.6183
541.3740, 494.8950
541.8561, 552.5945
542.3383, 617.5404
542.8204, 694.6439
543.3025, 781.7174
543.7846, 858.2629
544.2667, 920.2972
544.7488, 968.2261
545.2310, 997.3060
545.7131, 1009.711
546.1952, 1023.546
546.6773, 1037.101
547.1594, 1056.781
547.6415, 1086.884
548.1237, 1126.477
548.6058, 1173.661
549.0879, 1227.489
549.5700, 1287.818
550.0521, 1354.647
550.5342, 1428.800
551.0164, 1506.610
551.4985, 1588.513
551.9806, 1672.394
552.4627, 1755.646
552.9448, 1841.043
553.4269, 1932.250
553.9091, 2030.490
554.3912, 2140.658
554.8733, 2268.595
555.3554, 2413.302
555.8375, 2587.055
556.3196, 2799.984
556.8018, 3034.650
557.2839, 3290.889
557.7660, 3559.573
558.2481, 3816.220
558.7302, 4078.103
559.2123, 4292.185
559.6945, 4436.294
560.1766, 4494.067
560.6587, 4375.177
561.1408, 4035.162
561.6229, 3561.886
562.1050, 3031.439
562.5872, 2427.634
563.0693, 1915.865
563.5514, 1513.115
564.0335, 1189.660
564.5156, 950.2720
564.9977, 777.3804
565.4799, 646.6947
565.9620, 548.5677
566.4441, 475.9106
566.9262, 419.3558
567.4083, 381.6828
567.8904, 348.8530
568.3726, 322.8573
568.8547, 300.0331
569.3368, 278.9189
569.8189, 260.2250
570.3010, 245.7762
570.7831, 236.4794
571.2653, 229.5492
571.7474, 221.8542
572.2295, 213.5514
572.7116, 205.4915
573.1937, 197.5371
573.6758, 190.6342
574.1580, 186.1016
574.6401, 183.4030
575.1222, 180.4171
575.6043, 176.5512
576.0864, 172.8107
576.5685, 169.6252
577.0507, 166.9399
577.5328, 164.7254
578.0149, 162.9591
578.4970, 161.4849
578.9791, 160.1700
579.4612, 159.0252
579.9434, 157.7738
580.4255, 156.4554
580.9076, 154.9766
581.3897, 152.8754
581.8718, 150.8230
582.3539, 149.6590
582.8361, 149.5122
583.3182, 149.6612
583.8003, 149.4627
584.2824, 148.9405
584.7645, 148.2370
585.2466, 147.2601
585.7288, 146.3484
586.2108, 145.4899
586.6929, 144.8900
587.1750, 145.0624
587.6572, 146.3525
588.1393, 147.0476
588.6214, 145.7437
589.1035, 143.7130
589.5856, 142.4500
590.0677, 142.1430
590.5499, 142.8353
591.0320, 144.7552
591.5141, 147.4034
591.9962, 148.9019
592.4783, 148.4523
592.9604, 147.8940
593.4426, 146.8975
593.9247, 146.0885
594.4068, 145.9238
594.8889, 146.3543
595.3710, 147.1145
595.8531, 148.1156
596.3353, 149.1625
596.8174, 149.9110
597.2995, 150.4363
597.7816, 150.1611
598.2637, 148.6089
598.7458, 146.5598
599.2280, 144.6306
599.7101, 142.8071
600.1922, 140.9913
600.6743, 138.9246
601.1564, 137.0510
601.6385, 135.8148
602.1207, 135.0772
602.6028, 134.5176
603.0849, 134.0610
603.5670, 133.3967
604.0491, 132.0483
604.5313, 129.8292
605.0134, 128.0932
605.4955, 127.0077
605.9776, 126.1372
606.4597, 125.1646
606.9418, 124.4022
607.4240, 124.6211
607.9061, 125.9117
608.3882, 126.9244
608.8703, 125.7257
609.3524, 122.5423
609.8345, 120.3173
610.3167, 119.0519
610.7988, 118.8500
611.2809, 120.7202
611.7630, 123.2735
612.2451, 124.6167
612.7272, 124.4550
613.2094, 123.7527
613.6915, 122.1883
614.1736, 120.7440
614.6557, 121.0994
615.1378, 123.0639
615.6199, 124.5792
616.1021, 124.3102
616.5842, 122.9638
617.0663, 122.5800
617.5484, 124.1438
618.0305, 125.0023
618.5126, 124.9834
618.9948, 124.4900
619.4769, 123.3350
619.9590, 121.9193
620.4411, 121.1238
620.9232, 121.4854
621.4053, 122.2745
621.8875, 122.0396
622.3696, 120.8147
622.8517, 120.9282
623.3338, 123.4812
623.8159, 126.0678
624.2980, 126.5276
624.7802, 125.3773
625.2623, 124.2084
625.7444, 122.6795
626.2265, 121.8220
626.7086, 122.6087
627.1907, 124.1411
627.6729, 125.2286
628.1550, 125.6239
628.6371, 125.5244
629.1192, 124.9979
629.6013, 124.1722
630.0834, 124.2093
630.5656, 126.3048
631.0477, 127.2418
631.5298, 125.6682
632.0119, 123.6085
632.4940, 122.3589
632.9761, 122.0501
633.4583, 122.3838
633.9404, 123.5665
634.4225, 124.9671
634.9046, 125.5190
635.3867, 125.2774
635.8688, 124.8580
636.3510, 124.3229
636.8331, 124.0080
637.3152, 124.4925
637.7973, 125.9052
638.2794, 126.5672
638.7615, 125.5882
639.2437, 124.8282
639.7258, 125.4281
640.2079, 126.5660
640.6900, 126.9188
641.1721, 126.2281
641.6542, 125.5052
642.1364, 126.0821
642.6185, 127.7600
643.1006, 127.6431
643.5827, 124.5571
644.0648, 122.2792
644.5469, 122.8744
645.0291, 124.4291
645.5112, 125.3423
645.9933, 125.4939
646.4754, 125.4757
646.9575, 125.3365
647.4396, 125.3104
647.9218, 126.0300
648.4039, 127.1815
648.8860, 127.2871
649.3681, 125.6553
649.8502, 123.4927
650.3323, 122.6951
650.8145, 123.6996
651.2966, 124.0631
651.7787, 123.0333
652.2608, 122.2569
652.7429, 122.3762
653.2250, 122.9657
653.7072, 123.4572
654.1893, 123.7110
654.6714, 124.0217
655.1535, 124.8562
655.6356, 125.9682
656.1177, 126.4596
656.5999, 126.2433
657.0820, 125.8917
657.5641, 125.5117
658.0462, 125.2923
658.5283, 125.7294
659.0104, 126.9886
659.4926, 127.9182
659.9747, 128.3503
660.4568, 128.4135
660.9389, 127.9852
661.4210, 127.2850
661.9031, 126.6499
662.3853, 126.2209
662.8674, 126.0870
663.3495, 126.5316
663.8316, 127.6276
664.3137, 128.0814
664.7958, 127.4898
665.2780, 126.9875
665.7601, 127.3488
666.2422, 127.9405
666.7243, 127.8614
667.2064, 126.8926
667.6885, 126.3952
668.1707, 127.4149
668.6528, 128.9648
669.1349, 130.1032
669.6170, 130.7473
670.0991, 130.8127
670.5812, 130.2237
671.0634, 129.3573
671.5455, 128.8816
672.0276, 128.9404
672.5097, 128.8560
672.9918, 128.1525
673.4739, 127.8389
673.9561, 128.5718
674.4382, 129.7178
674.9203, 130.4385
675.4024, 130.5228
675.8845, 130.4635
676.3666, 130.5479
676.8488, 130.8006
677.3309, 131.3509
677.8130, 132.1956
678.2951, 132.9872
678.7772, 133.5390
679.2593, 134.0031
679.7415, 134.7242
680.2236, 135.9828
680.7057, 136.5746
681.1878, 135.6193
681.6699, 134.9561
682.1520, 135.8347
682.6342, 137.3865
683.1163, 138.2954
683.5984, 138.1651
684.0805, 137.4784
684.5626, 136.4833
685.0447, 135.3200
685.5269, 134.8617
686.0090, 135.2659
686.4911, 135.5466
686.9732, 135.2144
687.4553, 134.5877
687.9374, 134.2804
688.4196, 134.3919
688.9017, 133.9711
689.3838, 132.7338
689.8659, 131.0680
690.3480, 128.6519
690.8301, 126.1369
691.3123, 124.7217
691.7944, 124.7283
692.2765, 125.1815
692.7586, 124.9851
693.2407, 124.1812
693.7228, 123.3236
694.2050, 122.2666
694.6871, 121.5312
695.1692, 121.3600
695.6513, 121.5637
696.1334, 122.1513
696.6155, 123.1045
697.0977, 123.4517
697.5798, 122.4095
698.0619, 121.1308
698.5440, 120.5035
699.0261, 120.2690
699.5082, 119.6975
699.9904, 118.6350
700.4725, 117.9200
700.9546, 118.6321
701.4367, 120.6169
701.9188, 121.4150
702.4009, 120.2395
702.8831, 119.4400
703.3652, 120.0912
703.8473, 120.9644
704.3294, 121.0696
704.8115, 120.4919
705.2936, 120.0734
705.7758, 120.0612
706.2579, 120.4156
706.7400, 121.5003
707.2221, 122.8614
707.7042, 123.4199
708.1863, 122.9470
708.6685, 122.1030
709.1506, 121.4429
709.6327, 120.9685
710.1148, 120.7141
710.5969, 120.7429
711.0790, 120.8837
711.5612, 121.3839
712.0433, 121.7494
712.5254, 121.5030
713.0075, 120.8402
713.4896, 120.3399
713.9717, 120.0210
714.4539, 120.3202
714.9360, 122.3369
715.4181, 125.1336
715.9002, 126.5215
716.3823, 126.1805
716.8644, 124.9595
717.3466, 123.2942
717.8287, 121.4851
718.3108, 120.6744
718.7929, 121.5956
719.2750, 122.1349
719.7571, 121.9846
720.2393, 121.7084
720.7214, 121.5076
721.2035, 121.4008
721.6856, 121.4281
722.1677, 121.6469
722.6498, 121.7589
723.1320, 121.2449
723.6141, 120.5285
724.0962, 120.5011
724.5783, 121.2101
725.0604, 122.3606
725.5425, 123.9551
726.0247, 125.4035
726.5068, 125.3840
726.9889, 123.1019
727.4710, 121.7774
727.9531, 121.8418
728.4352, 122.3535
728.9174, 123.4542
729.3995, 124.6171
729.8816, 125.0562
730.3637, 124.6324
730.8458, 124.2767
731.3279, 124.9991
731.8101, 126.0194
732.2922, 125.8506
732.7743, 124.6748
733.2564, 123.8539
733.7385, 123.9094
734.2206, 124.3047
734.7028, 124.3217
735.1849, 123.9033
735.6670, 123.9721
736.1491, 124.8303
736.6312, 125.8099
737.1133, 127.5433
737.5955, 128.8266
738.0776, 128.0826
738.5597, 125.6701
739.0418, 123.9081
739.5239, 124.1763
740.0060, 125.4125
740.4882, 126.6182
740.9703, 127.7751
741.4524, 129.0004
741.9345, 130.3114
742.4166, 130.8264
742.8987, 129.6029
743.3809, 127.1336
743.8630, 125.8849
744.3451, 126.2913
744.8272, 127.1599
745.3093, 129.3530
745.7914, 131.0516
746.2736, 130.8629
746.7557, 129.5320
747.2378, 128.6172
747.7199, 128.6175
748.2020, 129.0642
748.6841, 129.7514
749.1663, 130.5831
749.6484, 131.4656
750.1305, 132.3556
750.6126, 133.0119
751.0947, 133.2792
751.5768, 133.4322
752.0590, 133.9715
752.5411, 134.9646
753.0232, 136.0280
753.5053, 136.9462
753.9874, 138.2412
754.4695, 140.3601
754.9517, 142.7345
755.4338, 144.8972
755.9159, 146.7638
756.3980, 148.0364
756.8801, 147.5993
757.3622, 147.3392
757.8444, 149.2822
758.3265, 152.8132
758.8086, 156.6302
759.2907, 160.3060
759.7728, 163.5265
760.2549, 165.7238
760.7371, 167.3129
761.2192, 170.7706
761.7013, 176.2046
762.1834, 183.2442
762.6655, 191.7597
763.1476, 201.9899
763.6298, 213.8925
764.1119, 227.5300
764.5940, 243.3788
765.0761, 262.3411
765.5582, 281.7878
766.0403, 301.8692
766.5225, 320.8018
767.0046, 336.9684
767.4867, 350.1573
767.9688, 359.7276
768.4509, 365.2772
768.9330, 370.0271
769.4152, 379.2382
769.8973, 393.0702
770.3794, 408.2556
770.8615, 424.3445
771.3436, 442.8114
771.8257, 465.3633
772.3079, 489.7814
772.7900, 512.1792
773.2721, 532.1077
773.7542, 555.0266
774.2363, 581.4407
774.7184, 611.5668
775.2006, 644.8392
775.6827, 682.1401
776.1648, 723.7504
776.6469, 770.2167
777.1290, 824.1209
777.6111, 888.2171
778.0933, 959.6478
778.5754, 1036.141
779.0575, 1117.130
779.5396, 1185.905
780.0217, 1244.634
780.5038, 1271.891
780.9860, 1250.401
781.4681, 1184.324
781.9502, 1089.747
782.4323, 944.3792
782.9144, 807.6456
783.3965, 675.4896
783.8787, 559.6915
784.3608, 467.6176
784.8429, 395.9131
785.3250, 340.1456
785.8071, 298.9142
786.2892, 266.7818
786.7714, 240.4991
787.2535, 219.6207
787.7356, 204.0627
788.2177, 193.3911
788.6998, 185.0167
789.1819, 178.1276
789.6641, 172.0459
790.1462, 165.9161
790.6283, 159.7420
791.1104, 154.3967
791.5925, 149.6111
792.0746, 146.1839
792.5568, 145.1870
793.0389, 144.7284
793.5210, 143.5103
794.0031, 141.7043
794.4852, 140.1740
794.9673, 139.3847
795.4495, 138.4936
795.9316, 136.9405
796.4137, 135.0080
796.8958, 132.7583
797.3779, 130.4342
797.8600, 128.8060
798.3422, 128.2852
798.8243, 128.3490
799.3064, 128.2001
799.7885, 127.8328
800.2706, 127.4363
800.7527, 127.1507
801.2349, 126.3313
801.7170, 124.0334
802.1991, 121.6913
802.6812, 121.7175
803.1633, 124.1211
803.6454, 125.5025
804.1276, 124.8098
804.6097, 123.9528
805.0918, 123.5010
805.5739, 123.3165
806.0560, 123.2668
806.5381, 123.3178
807.0203, 123.5091
807.5024, 123.9507
807.9845, 124.2761
808.4666, 123.7281
808.9487, 122.6041
809.4308, 122.0970
809.9130, 122.3511
810.3951, 122.9759
810.8772, 123.8862
811.3593, 124.6979
811.8414, 124.5662
812.3235, 123.1375
812.8057, 122.0824
813.2878, 121.4034
813.7699, 121.1088
814.2520, 121.3738
814.7341, 121.9001
815.2162, 122.3815
815.6984, 122.8048
816.1805, 123.3699
816.6626, 124.8357
817.1447, 125.7754
817.6268, 124.5282
818.1089, 122.3254
818.5911, 121.0361
819.0732, 120.9133
819.5553, 121.4660
820.0374, 122.4805
820.5195, 123.4088
821.0016, 122.6628
821.4838, 120.1507
821.9659, 119.5498
822.4480, 121.6558
822.9301, 123.8938
823.4122, 124.9947
823.8943, 125.4435
824.3765, 126.0982
824.8586, 127.0416
825.3407, 127.7512
825.8228, 127.8321
826.3049, 128.1306
826.7870, 129.7387
827.2692, 131.1786
827.7513, 130.6406
828.2334, 128.2613
828.7155, 125.7286
829.1976, 123.8093
829.6797, 122.3701
830.1619, 121.3157
830.6440, 120.6207
831.1261, 120.4641
831.6082, 120.7521
832.0903, 120.5606
832.5724, 119.3127
833.0546, 117.5116
833.5367, 116.0744
834.0188, 114.9748
834.5009, 114.4488
834.9830, 114.7955
835.4651, 115.1159
835.9473, 115.1312
836.4294, 114.9281
836.9115, 114.4898
837.3936, 113.8451
837.8757, 113.5220
838.3578, 113.7895
838.8400, 114.1577
839.3221, 114.8024
839.8042, 115.2020
840.2863, 114.5109
840.7684, 113.0810
841.2505, 112.1484
841.7327, 112.3463
842.2148, 112.9763
842.6969, 113.2826
843.1790, 113.3454
843.6611, 113.5244
844.1432, 113.7925
844.6254, 113.3207
845.1075, 111.6205
845.5896, 109.9254
846.0717, 110.0159
846.5538, 111.9027
847.0359, 112.8880
847.5181, 112.4846
848.0002, 112.1178
848.4823, 112.0584
848.9644, 112.1272
849.4465, 112.1847
849.9286, 112.2689
850.4108, 112.5465
850.8929, 113.3002
851.3750, 113.6638
851.8571, 112.9982
852.3392, 112.1175
852.8214, 111.6433
853.3035, 111.4962
853.7856, 111.4052
854.2677, 111.2831
854.7498, 111.2205
855.2319, 111.2844
855.7141, 111.4787
856.1962, 111.8425
856.6783, 112.3568
857.1604, 113.1073
857.6425, 114.1736
858.1246, 114.4188
858.6068, 112.6313
859.0889, 109.6023
859.5710, 108.4427
860.0531, 110.1931
860.5352, 111.0606
861.0173, 110.5742
861.4995, 109.6268
861.9816, 107.9167
862.4637, 106.3396
862.9458, 106.3683
863.4279, 108.2213
863.9100, 109.5170
864.3922, 109.6156
864.8743, 109.0635
865.3564, 107.4210
865.8385, 105.7381
866.3206, 105.4450
866.8027, 106.4258
867.2849, 107.4049
867.7670, 107.6420
868.2491, 107.6168
868.7312, 108.0226
869.2133, 108.6517
869.6954, 108.9151
870.1776, 108.7740
870.6597, 108.2951
871.1418, 107.4457
871.6239, 106.8072
872.1060, 107.3611
872.5881, 109.0906
873.0703, 109.5004
873.5524, 107.7902
874.0345, 106.8516
874.5166, 107.9897
874.9987, 109.3160
875.4808, 109.2777
875.9630, 108.2187
876.4451, 107.0301
876.9272, 105.3042
877.4093, 104.4395
877.8914, 104.7037
878.3735, 105.9070
878.8557, 109.1525
879.3378, 112.7364
879.8199, 113.9121
880.3020, 112.2482
880.7841, 110.0155
881.2662, 108.2357
881.7484, 107.1930
882.2305, 107.6404
882.7126, 109.0121
883.1947, 110.0505
883.6768, 110.5287
884.1589, 110.6894
884.6411, 110.6973
885.1232, 110.4024
885.6053, 109.2995
886.0874, 107.3491
886.5695, 106.1853
887.0516, 105.9984
887.5338, 105.9763
888.0159, 105.7972
888.4980, 105.6771
888.9801, 105.8927
889.4622, 106.4440
889.9443, 107.0143
890.4265, 108.4636
890.9086, 108.6937
891.3907, 106.2689
891.8728, 103.7770
892.3549, 102.7309
892.8370, 102.8126
893.3192, 103.4202
893.8013, 104.5411
894.2834, 105.1585
894.7655, 103.8877
895.2476, 102.7551
895.7297, 104.0255
896.2119, 106.4092
896.6940, 107.5816
897.1761, 107.2170
897.6582, 106.5729
898.1403, 106.4868
898.6224, 106.7003
899.1046, 106.8915
899.5867, 107.0200
900.0688, 106.7909
900.5509, 106.1948
901.0330, 105.9612
901.5151, 106.5056
901.9973, 107.1807
902.4794, 107.0005
902.9615, 105.9636
903.4436, 105.0405
903.9257, 104.2249
904.4078, 103.5162
904.8900, 102.7752
905.3721, 102.3263
905.8542, 102.7765
906.3363, 103.6931
906.8184, 103.6635
907.3005, 102.0607
907.7827, 101.0087
908.2648, 100.7205
908.7469, 101.0903
909.2290, 102.7993
909.7111, 104.7102
910.1932, 105.4649
910.6754, 104.9336
911.1575, 103.8139
911.6396, 101.6527
912.1217, 100.2119
912.6038, 101.7896
913.0859, 104.4648
913.5681, 105.5169
914.0502, 104.9904
914.5323, 104.1160
915.0144, 103.4481
915.4965, 103.1114
915.9786, 103.2689
916.4607, 103.8784
916.9428, 105.0574
917.4249, 106.7180
917.9070, 107.4604
918.3892, 106.8754
918.8713, 106.1122
919.3534, 106.0763
919.8355, 106.5553
920.3176, 106.8846
920.7997, 106.9650
921.2819, 107.3454
921.7640, 108.4641
922.2461, 109.0212
922.7282, 108.1489
923.2103, 106.7579
923.6924, 105.9236
924.1746, 105.6169
924.6567, 105.4172
925.1388, 105.2568
925.6209, 105.2706
926.1030, 105.6569
926.5851, 106.0571
927.0673, 106.2341
927.5494, 106.2456
928.0315, 106.1666
928.5136, 106.0066
928.9957, 106.0398
929.4778, 106.8379
929.9600, 107.4585
930.4421, 106.9400
930.9242, 105.8311
931.4063, 104.8536
931.8884, 104.1882
932.3705, 103.9345
932.8527, 104.1867
933.3348, 104.5765
933.8169, 104.4854
934.2990, 104.1868
934.7811, 104.7284
935.2632, 105.9369
935.7454, 106.1864
936.2275, 104.9389
936.7096, 103.3625
937.1917, 102.5146
937.6738, 102.3869
938.1559, 103.1911
938.6381, 105.1322
939.1202, 106.2709
939.6023, 106.3365
940.0844, 105.7555
940.5665, 104.3738
941.0486, 102.9675
941.5308, 102.9123
942.0129, 104.3975
942.4950, 105.1336
942.9771, 104.5486
943.4592, 104.0776
943.9413, 103.9899
944.4235, 104.0023
944.9056, 103.9021
945.3877, 103.7798
945.8698, 103.8815
946.3519, 104.3193
946.8340, 104.6053
947.3162, 104.2077
947.7983, 104.0969
948.2804, 105.4124
948.7625, 106.8691
949.2446, 106.8407
949.7267, 105.4551
950.2089, 103.9385
950.6910, 102.6139
951.1731, 102.0086
951.6552, 103.3452
952.1373, 105.0437
952.6194, 104.9000
953.1016, 103.4699
953.5837, 102.3247
954.0658, 101.9412
954.5479, 102.0234
955.0300, 102.4527
955.5121, 102.9576
955.9943, 102.8724
956.4764, 102.4176
956.9585, 102.7110
957.4406, 103.7740
957.9227, 104.1732
958.4048, 103.2168
958.8870, 101.6688
959.3691, 100.3704
959.8512, 99.42394
960.3333, 100.0037
960.8154, 102.4623
961.2975, 103.6702
961.7797, 102.7170
962.2618, 101.6510
962.7439, 101.8858
963.2260, 102.7685
963.7081, 102.8444
964.1902, 101.8511
964.6724, 101.4546
965.1545, 101.8810
965.6366, 102.5453
966.1187, 103.9522
966.6008, 104.9396
967.0829, 103.9576
967.5651, 101.8757
968.0472, 101.5490
968.5293, 104.2569
969.0114, 105.7341
969.4935, 104.7073
969.9756, 103.1613
970.4578, 101.3220
970.9399, 99.86771
971.4220, 99.75246
971.9041, 100.7397
972.3862, 101.4139
972.8683, 101.1432
973.3505, 100.8233
973.8326, 101.0187
974.3147, 101.2679
974.7968, 100.8498
975.2789, 100.2995
975.7610, 100.8501
976.2432, 102.5627
976.7253, 103.9651
977.2074, 104.0821
977.6895, 103.5034
978.1716, 102.3512
978.6537, 101.2100
979.1359, 101.4230
979.6180, 102.6379
980.1001, 103.1090
980.5822, 102.2414
981.0643, 101.3018
981.5464, 101.7139
982.0286, 102.7986
982.5107, 102.9477
982.9928, 102.3272
983.4749, 101.5107
983.9570, 100.6443
984.4391, 100.6726
984.9213, 102.1707
985.4034, 103.9912
985.8855, 104.4295
986.3676, 103.6429
986.8497, 103.0156
987.3318, 102.5866
987.8140, 101.6822
988.2961, 99.94286
988.7782, 98.83054
989.2603, 99.41154
989.7424, 101.0565
990.2245, 102.6001
990.7067, 104.1610
991.1888, 104.5427
991.6709, 103.1467
992.1530, 102.0288
992.6351, 101.6487
993.1172, 101.7168
993.5994, 102.2595
994.0815, 103.0115
994.5636, 103.1185
995.0457, 102.2663
995.5278, 101.6542
996.0099, 101.5664
996.4921, 101.3403
996.9742, 100.5210
997.4563, 99.73849
997.9384, 99.51378
998.4205, 99.77689
998.9026, 100.2335
999.3848, 100.8605
999.8669, 101.6456
1000.349, 103.1838
1000.831, 104.1823
1001.313, 103.6324
1001.795, 102.4924
1002.277, 101.6448
1002.760, 101.2284
1003.242, 101.2951
1003.724, 102.1997
1004.206, 102.7306
1004.688, 101.7505
1005.170, 100.7636
1005.652, 101.1503
1006.134, 102.1902
1006.617, 102.7427
1007.099, 102.6663
1007.581, 102.5239
1008.063, 102.6850
1008.545, 102.6349
1009.027, 101.4037
1009.509, 100.1658
1009.991, 100.6379
1010.473, 102.1461
1010.956, 102.8727
1011.438, 102.5491
1011.920, 102.7129
1012.402, 104.7272
1012.884, 106.9295
1013.366, 107.0519
1013.848, 105.9989
1014.330, 105.1694
1014.813, 104.7979
1015.295, 105.4399
1015.777, 107.1173
1016.259, 108.3526
1016.741, 107.7022
1017.223, 106.2284
1017.705, 105.9076
1018.187, 106.4408
1018.669, 106.7787
1019.152, 106.8770
1019.634, 107.3420
1020.116, 108.3797
1020.598, 108.9426
1021.080, 107.7987
1021.562, 105.6548
1022.044, 104.4658
1022.526, 104.1785
1023.008, 104.4383
1023.491, 105.2132
1023.973, 105.6099
1024.455, 105.1943
1024.937, 104.8460
1025.419, 105.6596
1025.901, 107.3194
1026.383, 108.4181
1026.865, 108.9436
1027.348, 109.0159
1027.830, 108.5773
1028.312, 108.0658
1028.794, 107.6118
1029.276, 107.4083
1029.758, 107.7729
1030.240, 108.5965
1030.722, 108.9480
1031.204, 108.6667
1031.687, 108.6539
1032.169, 109.0774
1032.651, 109.5531
1033.133, 109.9874
1033.615, 110.2470
1034.097, 110.1913
1034.579, 109.8098
1035.061, 108.7957
1035.544, 106.3826
1036.026, 105.4140
1036.508, 106.7564
1036.990, 108.3913
1037.472, 109.4975
1037.954, 110.2942
1038.436, 111.1228
1038.918, 111.9644
1039.401, 112.2638
1039.883, 111.7847
1040.365, 111.1963
1040.847, 110.4721
1041.329, 109.7238
1041.811, 108.5676
1042.293, 107.7005
1042.775, 108.3316
1043.257, 110.4032
1043.740, 111.6496
1044.222, 112.1535
1044.704, 111.7069
1045.186, 108.9456
1045.668, 106.8049
1046.150, 106.9862
1046.632, 108.2098
1047.114, 109.0976
1047.596, 109.5988
1048.079, 109.7907
1048.561, 109.2068
1049.043, 109.0361
1049.525, 109.8034
1050.007, 110.5678
1050.489, 110.7500
1050.971, 110.7677
1051.453, 111.3874
1051.936, 112.4724
1052.418, 112.6183
1052.900, 110.7539
1053.382, 109.3998
1053.864, 108.9758
1054.346, 109.2343
1054.828, 110.8449
1055.310, 112.5325
1055.792, 112.4683
1056.275, 110.9049
1056.757, 110.1061
1057.239, 110.9263
1057.721, 111.7995
1058.203, 112.8247
1058.685, 113.1982
1059.167, 111.8337
1059.649, 110.0101
1060.131, 109.2220
1060.614, 109.4231
1061.096, 109.6290
1061.578, 109.4638
1062.060, 109.6157
1062.542, 110.8575
1063.024, 111.8634
1063.506, 111.6826
1063.988, 110.9944
1064.471, 110.5364
1064.953, 110.3391
1065.435, 110.1459
1065.917, 109.8972
1066.399, 109.6046
1066.881, 108.9783
1067.363, 108.6497
1067.845, 109.1470
1068.328, 110.0174
1068.810, 111.0392
1069.292, 111.9462
1069.774, 112.0888
1070.256, 111.1432
1070.738, 110.2799
1071.220, 110.1366
1071.702, 110.0668
1072.184, 109.6724
1072.667, 109.1813
1073.149, 108.5223
1073.631, 108.0452
1074.113, 108.7956
1074.595, 111.1975
1075.077, 112.9033
1075.559, 112.2925
1076.041, 111.3686
1076.523, 111.3520
1077.006, 111.4748
1077.488, 110.7136
1077.970, 109.5257
1078.452, 109.1198
1078.934, 109.7790
1079.416, 110.4325
1079.898, 110.7849
1080.380, 110.7886
1080.862, 109.9768
1081.345, 109.2063
1081.827, 109.4815
1082.309, 110.2906
1082.791, 110.5003
1083.273, 109.9486
1083.755, 109.6540
1084.237, 110.3174
1084.719, 110.9471
1085.202, 111.1018
1085.684, 111.0055
1086.166, 110.4634
1086.648, 109.9875
1087.130, 110.6320
1087.612, 112.3054
1088.094, 113.2389
1088.576, 112.2548
1089.058, 111.4661
1089.541, 111.9105
1090.023, 112.7372
1090.505, 113.5461
1090.987, 114.2450
1091.469, 114.8688
1091.951, 115.3430
1092.433, 115.3227
1092.915, 114.4672
1093.397, 113.8017
1093.880, 114.0550
1094.362, 114.2367
1094.844, 113.5005
1095.326, 112.5842
1095.808, 112.2509
1096.290, 112.4930
1096.772, 113.0638
1097.254, 113.9947
1097.737, 114.7921
1098.219, 115.2980
1098.701, 115.6194
1099.183, 115.8492
1099.665, 115.8782
1100.147, 115.2771
1100.629, 114.4936
1101.111, 114.5915
1101.594, 115.8238
1102.076, 116.8603
1102.558, 117.5028
1103.040, 117.6966
1103.522, 117.1389
1104.004, 116.4189
1104.486, 115.6711
1104.968, 115.1742
1105.450, 115.4533
1105.932, 116.5257
1106.415, 117.4785
1106.897, 118.0223
1107.379, 118.6059
1107.861, 119.4646
1108.343, 120.2096
1108.825, 120.7236
1109.307, 120.9594
1109.789, 120.6328
1110.272, 119.8967
1110.754, 119.7880
1111.236, 120.5694
1111.718, 121.6645
1112.200, 124.5049
1112.682, 125.7606
1113.164, 122.7378
1113.646, 118.9629
1114.129, 117.6425
1114.611, 118.1840
1115.093, 118.5301
1115.575, 118.6602
1116.057, 118.5541
1116.539, 117.8215
1117.021, 117.4544
1117.503, 118.0574
1117.985, 118.5766
1118.468, 118.0148
1118.950, 117.0924
1119.432, 117.2484
1119.914, 118.5866
1120.396, 119.7766
1120.878, 121.1397
1121.360, 121.6213
1121.842, 120.7471
1122.324, 119.5736
1122.807, 118.2816
1123.289, 117.4131
1123.771, 117.8628
1124.253, 119.4015
1124.735, 120.0517
1125.217, 119.5300
1125.699, 119.0584
1126.181, 118.5042
1126.664, 118.6537
1127.146, 119.9761
1127.628, 121.5734
1128.110, 122.6534
1128.592, 123.3357
1129.074, 123.9706
1129.556, 124.5669
1130.038, 125.0224
1130.521, 125.3640
1131.003, 125.1905
1131.485, 124.2515
1131.967, 123.9673
1132.449, 125.4168
1132.931, 127.3414
1133.413, 127.5491
1133.895, 126.3588
1134.377, 126.0279
1134.859, 126.5327
1135.342, 127.4003
1135.824, 128.5508
1136.306, 128.9980
1136.788, 128.2953
1137.270, 127.3021
1137.752, 126.8955
1138.234, 126.9241
1138.716, 126.8886
1139.199, 126.9576
1139.681, 128.2166
1140.163, 130.4161
1140.645, 131.7303
1141.127, 131.7224
1141.609, 131.3908
1142.091, 131.3747
1142.573, 131.6931
1143.056, 132.8867
1143.538, 134.1451
1144.020, 133.3302
1144.502, 131.3218
1144.984, 130.5546
1145.466, 131.1020
1145.948, 131.3640
1146.430, 130.6708
1146.912, 130.1622
1147.395, 131.0670
1147.877, 132.4080
1148.359, 133.3545
1148.841, 133.8493
1149.323, 133.5824
1149.805, 132.8774
1150.287, 132.3320
1150.769, 132.1333
1151.251, 132.3648
1151.734, 133.2031
1152.216, 134.1396
1152.698, 135.2980
1153.180, 135.9362
1153.662, 134.7251
1154.144, 133.0892
1154.626, 132.9306
1155.108, 134.1066
1155.591, 135.4938
1156.073, 136.8991
1156.555, 137.8151
1157.037, 137.8933
1157.519, 137.6753
1158.001, 137.0940
1158.483, 136.5850
1158.965, 136.1976
1159.448, 136.2334
1159.930, 137.6665
1160.412, 140.5095
1160.894, 141.5931
1161.376, 138.9008
1161.858, 137.0721
1162.340, 136.7831
1162.822, 137.0573
1163.304, 137.9216
1163.786, 138.8202
1164.269, 139.1911
1164.751, 139.1855
1165.233, 139.3035
1165.715, 139.5020
1166.197, 140.0950
1166.679, 141.4538
1167.161, 142.0578
1167.643, 141.2131
1168.126, 140.6923
1168.608, 141.7212
1169.090, 143.2581
1169.572, 143.7612
1170.054, 143.3408
1170.536, 142.6705
1171.018, 141.7091
1171.500, 141.3804
1171.983, 141.7611
1172.465, 142.7762
1172.947, 144.4161
1173.429, 146.5662
1173.911, 149.3309
1174.393, 151.6443
1174.875, 150.8317
1175.357, 147.9351
1175.839, 147.1227
1176.322, 147.9500
1176.804, 148.1082
1177.286, 147.3938
1177.768, 147.2749
1178.250, 148.4084
1178.732, 149.9477
1179.214, 151.4145
1179.696, 152.4022
1180.178, 152.0948
1180.661, 151.1442
1181.143, 150.2453
1181.625, 149.6679
1182.107, 149.9316
1182.589, 150.9811
1183.071, 152.0527
1183.553, 152.8296
1184.035, 153.3736
1184.518, 153.9413
1185.000, 154.0337
1185.482, 152.4664
1185.964, 150.9265
1186.446, 151.5997
1186.928, 153.6593
1187.410, 155.0005
1187.892, 155.2560
1188.375, 155.0497
1188.857, 153.8200
1189.339, 153.2017
1189.821, 153.8047
1190.303, 154.7651
1190.785, 155.8613
1191.267, 156.9608
1191.749, 158.1830
1192.231, 159.2882
1192.714, 159.1795
1193.196, 157.0989
1193.678, 156.9197
1194.160, 159.7412
1194.642, 161.3525
1195.124, 160.5129
1195.606, 159.5134
1196.088, 159.5519
1196.570, 160.4662
1197.053, 162.2154
1197.535, 164.4952
1198.017, 165.9324
1198.499, 166.5147
1198.981, 165.4557
1199.463, 162.8238
1199.945, 161.3587
1200.427, 161.8224
1200.910, 163.2365
1201.392, 165.0069
1201.874, 166.6696
1202.356, 167.8212
1202.838, 168.2475
1203.320, 166.6897
1203.802, 164.3492
1204.284, 164.1600
1204.766, 165.8586
1205.249, 167.5964
1205.731, 168.7208
1206.213, 169.2513
1206.695, 169.0285
1207.177, 168.6436
1207.659, 168.0708
1208.141, 168.0294
1208.623, 169.7182
1209.105, 171.9073
1209.588, 172.9930
1210.070, 173.1600
1210.552, 173.4502
1211.034, 174.0550
1211.516, 174.9961
1211.998, 177.1244
1212.480, 178.3569
1212.962, 177.3097
1213.445, 176.2779
1213.927, 176.6417
1214.409, 177.4928
1214.891, 177.8093
1215.373, 177.7681
1215.855, 178.2268
1216.337, 179.4397
1216.819, 179.9443
1217.302, 179.4730
1217.784, 179.3702
1218.266, 179.9941
1218.748, 180.5845
1219.230, 180.6891
1219.712, 180.7614
1220.194, 181.4836
1220.676, 182.5061
1221.158, 182.4520
1221.641, 181.6434
1222.123, 181.9501
1222.605, 183.2350
1223.087, 184.0119
1223.569, 184.0815
1224.051, 184.8938
1224.533, 187.3136
1225.015, 189.6285
1225.497, 189.7372
1225.980, 189.1856
1226.462, 189.7253
1226.944, 190.7575
1227.426, 191.7302
1227.908, 192.4424
1228.390, 192.4635
1228.872, 191.9023
1229.354, 191.8032
1229.837, 192.7101
1230.319, 193.5525
1230.801, 194.2646
1231.283, 194.4463
1231.765, 193.2789
1232.247, 192.1576
1232.729, 192.4240
1233.211, 193.3604
1233.693, 193.5760
1234.176, 193.1059
1234.658, 192.9144
1235.140, 192.8152
1235.622, 193.6727
1236.104, 195.8561
1236.586, 197.8384
1237.068, 199.2074
1237.550, 200.1608
1238.032, 200.8522
1238.515, 201.1017
1238.997, 200.5087
1239.479, 199.2715
1239.961, 197.6935
1240.443, 196.1891
1240.925, 197.1061
1241.407, 200.0876
1241.889, 202.6557
1242.372, 204.0835
1242.854, 205.0334
1243.336, 205.9595
1243.818, 206.2768
1244.300, 204.7940
1244.782, 203.1205
1245.264, 202.4747
1245.746, 202.8413
1246.229, 205.0316
1246.711, 207.8089
1247.193, 208.4283
1247.675, 206.7420
1248.157, 206.2094
1248.639, 208.8211
1249.121, 210.3112
1249.603, 208.8880
1250.085, 207.6929
1250.568, 207.8938
1251.050, 208.3703
1251.532, 208.1671
1252.014, 208.0466
1252.496, 209.5625
1252.978, 212.4273
1253.460, 213.2566
1253.942, 211.8361
1254.424, 210.5497
1254.907, 209.5167
1255.389, 209.7933
1255.871, 211.6462
1256.353, 213.8305
1256.835, 215.6083
1257.317, 216.4326
1257.799, 214.9179
1258.281, 212.6793
1258.764, 212.8851
1259.246, 214.3390
1259.728, 214.8112
1260.210, 214.6944
1260.692, 215.7263
1261.174, 217.7946
1261.656, 218.6917
1262.138, 217.4073
1262.620, 215.6550
1263.103, 212.8617
1263.585, 211.6202
1264.067, 214.5225
1264.549, 217.8454
1265.031, 218.8115
1265.513, 218.7238
1265.995, 219.4906
1266.477, 220.9734
1266.959, 222.4490
1267.442, 224.1298
1267.924, 224.8544
1268.406, 224.4029
1268.888, 223.9812
1269.370, 223.7972
1269.852, 223.7943
1270.334, 223.9482
1270.816, 224.2776
1271.299, 224.8577
1271.781, 225.4727
1272.263, 225.6120
1272.745, 225.4776
1273.227, 225.7836
1273.709, 226.1599
1274.191, 225.1979
1274.673, 223.3473
1275.156, 222.9220
1275.638, 224.5906
1276.120, 226.0717
1276.602, 225.7902
1277.084, 225.6156
1277.566, 226.9057
1278.048, 228.0604
1278.530, 227.7085
1279.012, 227.1109
1279.495, 227.2678
1279.977, 228.2961
1280.459, 230.7594
1280.941, 234.7172
1281.423, 235.4908
1281.905, 231.7345
1282.387, 230.0769
1282.869, 231.3011
1283.351, 232.6569
1283.834, 233.3846
1284.316, 233.5589
1284.798, 233.1632
1285.280, 232.7909
1285.762, 233.1691
1286.244, 234.4182
##END=



