##NAMES=Arsentsumebite
##RRUFFID=R060949
##IDEAL CHEMISTRY=Pb^2+^_2_Cu^2+^(As^5+^O_4_)(S^6+^O_4_)(OH)
##LOCALITY=Capitana mine, Copiapo, Chile
##OWNER=RRUFF
##SOURCE=Bob Jenkins
##DESCRIPTION=Green crystalline blebs scattered on the barite matrix
##STATUS=The identification of this mineral is confirmed by single-crystal X-ray diffraction and chemical analysis.
##URL=rruff.info/R060949
##MEASURED CHEMISTRY=Pb_2.00_(Cu_0.98_Fe_0.02_)_Î£=1_(As_1.00_O_4_)(S_1.00_O_4_)(OH); OH estimated by charge balance and difference
138.3971, 27636.38
138.8792, 27945.40
139.3613, 28258.15
139.8434, 28528.85
140.3256, 28753.96
140.8077, 28949.89
141.2898, 29137.71
141.7719, 29325.02
142.2540, 29480.00
142.7361, 29581.75
143.2183, 29624.40
143.7004, 29710.96
144.1825, 29875.96
144.6646, 30056.82
145.1467, 30163.29
145.6288, 30138.80
146.1110, 30120.23
146.5931, 30151.54
147.0752, 30264.69
147.5573, 30334.55
148.0394, 30345.23
148.5215, 30314.17
149.0037, 30275.65
149.4858, 30218.11
149.9679, 30163.68
150.4500, 30119.98
150.9321, 30094.54
151.4142, 30071.84
151.8963, 30047.97
152.3785, 30027.84
152.8606, 30025.93
153.3427, 30061.67
153.8248, 30106.70
154.3069, 30147.33
154.7890, 30170.92
155.2712, 30206.13
155.7533, 30259.77
156.2354, 30331.01
156.7175, 30410.72
157.1996, 30491.58
157.6817, 30583.64
158.1639, 30694.27
158.6460, 30851.92
159.1281, 31001.13
159.6102, 31119.16
160.0923, 31203.24
160.5744, 31284.70
161.0566, 31349.12
161.5387, 31421.12
162.0208, 31528.29
162.5029, 31722.61
162.9850, 31918.71
163.4671, 32078.06
163.9493, 32194.68
164.4314, 32278.29
164.9135, 32303.71
165.3956, 32302.40
165.8777, 32324.28
166.3598, 32426.35
166.8419, 32539.48
167.3241, 32614.12
167.8062, 32639.79
168.2883, 32645.13
168.7704, 32640.66
169.2525, 32630.81
169.7346, 32624.94
170.2168, 32619.43
170.6989, 32625.34
171.1810, 32663.22
171.6631, 32762.59
172.1452, 32845.81
172.6273, 32817.07
173.1095, 32703.37
173.5916, 32613.04
174.0737, 32638.56
174.5558, 32725.85
175.0379, 32796.02
175.5201, 32830.29
176.0022, 32839.48
176.4843, 32819.45
176.9664, 32774.82
177.4485, 32746.07
177.9306, 32774.29
178.4128, 32841.00
178.8949, 32907.61
179.3770, 32959.87
179.8591, 33006.89
180.3412, 33067.59
180.8233, 33142.56
181.3055, 33212.29
181.7876, 33257.34
182.2697, 33282.00
182.7518, 33301.71
183.2339, 33307.70
183.7160, 33314.82
184.1981, 33366.87
184.6803, 33468.15
185.1624, 33576.82
185.6445, 33653.46
186.1266, 33698.70
186.6087, 33722.16
187.0908, 33717.92
187.5730, 33692.63
188.0551, 33668.60
188.5372, 33643.01
189.0193, 33628.38
189.5014, 33656.65
189.9835, 33725.14
190.4657, 33772.60
190.9478, 33760.20
191.4299, 33695.96
191.9120, 33635.72
192.3941, 33582.04
192.8762, 33533.53
193.3584, 33496.24
193.8405, 33472.00
194.3226, 33428.96
194.8047, 33335.67
195.2868, 33195.42
195.7689, 33082.12
196.2511, 33001.19
196.7332, 32949.13
197.2153, 32921.17
197.6974, 32919.13
198.1795, 32929.84
198.6616, 32955.93
199.1437, 33000.11
199.6259, 33010.78
200.1080, 32973.41
200.5901, 32905.15
201.0722, 32856.38
201.5543, 32827.65
202.0364, 32813.15
202.5186, 32813.04
203.0007, 32829.24
203.4828, 32835.80
203.9649, 32821.37
204.4470, 32794.18
204.9291, 32796.90
205.4113, 32836.09
205.8934, 32883.25
206.3755, 32918.38
206.8576, 32941.66
207.3397, 32948.36
207.8218, 32935.09
208.3040, 32903.95
208.7861, 32867.37
209.2682, 32821.40
209.7503, 32781.21
210.2324, 32765.53
210.7145, 32785.13
211.1967, 32796.17
211.6788, 32789.82
212.1609, 32767.83
212.6430, 32747.27
213.1251, 32727.81
213.6072, 32712.79
214.0893, 32702.73
214.5715, 32692.47
215.0536, 32702.43
215.5357, 32743.11
216.0178, 32815.16
216.4999, 32867.42
216.9820, 32887.14
217.4642, 32898.71
217.9463, 32933.05
218.4284, 33001.67
218.9105, 33060.48
219.3926, 33096.39
219.8747, 33106.75
220.3569, 33114.68
220.8390, 33116.45
221.3211, 33119.88
221.8032, 33135.62
222.2853, 33167.63
222.7674, 33206.45
223.2496, 33255.47
223.7317, 33321.75
224.2138, 33358.62
224.6959, 33351.61
225.1780, 33328.96
225.6601, 33327.98
226.1423, 33348.17
226.6244, 33392.25
227.1065, 33468.44
227.5886, 33590.67
228.0707, 33680.78
228.5528, 33726.88
229.0349, 33748.01
229.5171, 33771.34
229.9992, 33787.07
230.4813, 33820.89
230.9634, 33883.36
231.4455, 33983.29
231.9276, 34082.03
232.4098, 34183.10
232.8919, 34281.71
233.3740, 34367.12
233.8561, 34443.88
234.3382, 34501.33
234.8203, 34531.03
235.3025, 34517.36
235.7846, 34527.07
236.2667, 34566.21
236.7488, 34626.56
237.2309, 34693.06
237.7130, 34769.59
238.1952, 34846.07
238.6773, 34920.75
239.1594, 34998.27
239.6415, 35059.77
240.1236, 35095.06
240.6057, 35119.44
241.0879, 35166.89
241.5700, 35252.83
242.0521, 35337.53
242.5342, 35407.03
243.0163, 35460.10
243.4984, 35498.27
243.9805, 35509.63
244.4627, 35509.13
244.9448, 35530.83
245.4269, 35585.58
245.9090, 35643.17
246.3911, 35695.29
246.8732, 35750.13
247.3554, 35770.46
247.8375, 35736.96
248.3196, 35674.95
248.8017, 35641.43
249.2838, 35647.50
249.7659, 35665.25
250.2481, 35692.30
250.7302, 35753.05
251.2123, 35755.39
251.6944, 35671.05
252.1765, 35543.70
252.6586, 35469.26
253.1408, 35482.80
253.6229, 35494.36
254.1050, 35461.36
254.5871, 35354.23
255.0692, 35296.48
255.5513, 35306.10
256.0334, 35357.31
256.5156, 35394.04
256.9977, 35408.21
257.4798, 35421.76
257.9619, 35442.12
258.4440, 35468.11
258.9261, 35501.64
259.4083, 35542.65
259.8904, 35589.43
260.3725, 35639.04
260.8546, 35692.64
261.3367, 35744.84
261.8188, 35794.59
262.3010, 35844.67
262.7831, 35877.83
263.2652, 35882.53
263.7473, 35877.49
264.2294, 35906.43
264.7115, 35985.20
265.1937, 36059.65
265.6758, 36101.32
266.1579, 36097.49
266.6400, 36123.08
267.1221, 36194.33
267.6042, 36281.40
268.0864, 36320.27
268.5685, 36294.12
269.0506, 36270.38
269.5327, 36280.38
270.0148, 36331.65
270.4969, 36375.51
270.9791, 36415.51
271.4612, 36445.57
271.9433, 36447.04
272.4254, 36410.27
272.9075, 36383.17
273.3896, 36388.73
273.8718, 36430.10
274.3539, 36470.14
274.8360, 36509.66
275.3181, 36547.02
275.8002, 36576.80
276.2823, 36595.76
276.7645, 36621.35
277.2466, 36662.18
277.7287, 36718.44
278.2108, 36774.88
278.6929, 36833.62
279.1750, 36887.20
279.6572, 36911.20
280.1393, 36898.19
280.6214, 36919.99
281.1035, 37021.15
281.5856, 37194.60
282.0677, 37334.03
282.5498, 37439.92
283.0320, 37509.52
283.5141, 37521.39
283.9962, 37473.40
284.4783, 37443.85
284.9604, 37466.40
285.4425, 37534.88
285.9247, 37607.30
286.4068, 37685.36
286.8889, 37760.91
287.3710, 37818.54
287.8531, 37860.03
288.3352, 37911.76
288.8174, 37989.71
289.2995, 38085.18
289.7816, 38164.15
290.2637, 38223.84
290.7458, 38275.77
291.2279, 38327.99
291.7101, 38380.72
292.1922, 38437.98
292.6743, 38505.10
293.1564, 38575.44
293.6385, 38622.85
294.1206, 38645.57
294.6028, 38681.61
295.0849, 38783.39
295.5670, 38932.99
296.0491, 39064.08
296.5312, 39146.27
297.0133, 39207.16
297.4955, 39296.78
297.9776, 39413.77
298.4597, 39538.71
298.9418, 39650.59
299.4239, 39757.60
299.9060, 39876.44
300.3882, 40007.41
300.8703, 40154.59
301.3524, 40329.79
301.8345, 40528.49
302.3166, 40722.11
302.7987, 40884.30
303.2809, 41027.48
303.7630, 41176.33
304.2451, 41335.06
304.7272, 41497.26
305.2093, 41650.92
305.6914, 41799.41
306.1736, 41950.21
306.6557, 42125.76
307.1378, 42303.13
307.6199, 42455.44
308.1020, 42577.85
308.5841, 42679.49
309.0663, 42758.54
309.5484, 42823.59
310.0305, 42893.41
310.5126, 42999.06
310.9947, 43105.00
311.4768, 43173.63
311.9590, 43186.91
312.4410, 43199.68
312.9232, 43256.96
313.4053, 43337.75
313.8874, 43397.75
314.3695, 43393.94
314.8516, 43381.20
315.3337, 43398.57
315.8159, 43458.41
316.2980, 43515.19
316.7801, 43549.23
317.2622, 43568.48
317.7443, 43585.45
318.2264, 43613.80
318.7086, 43634.01
319.1907, 43628.39
319.6728, 43588.74
320.1549, 43573.78
320.6370, 43629.21
321.1191, 43708.45
321.6013, 43759.41
322.0834, 43732.23
322.5655, 43709.46
323.0476, 43716.48
323.5297, 43755.60
324.0118, 43794.64
324.4940, 43839.07
324.9761, 43875.16
325.4582, 43891.47
325.9403, 43857.78
326.4224, 43834.35
326.9045, 43828.27
327.3867, 43839.36
327.8688, 43866.27
328.3509, 43927.32
328.8330, 43991.48
329.3151, 44040.43
329.7972, 44064.45
330.2794, 44086.64
330.7615, 44102.13
331.2436, 44115.59
331.7257, 44151.47
332.2078, 44219.92
332.6899, 44300.46
333.1721, 44386.88
333.6542, 44497.88
334.1363, 44573.59
334.6184, 44601.20
335.1005, 44597.29
335.5826, 44604.95
336.0648, 44626.78
336.5469, 44655.90
337.0290, 44694.86
337.5111, 44753.26
337.9932, 44777.66
338.4753, 44756.88
338.9575, 44712.17
339.4396, 44692.70
339.9217, 44715.39
340.4038, 44686.60
340.8859, 44541.12
341.3680, 44280.63
341.8502, 44112.66
342.3323, 44066.57
342.8144, 44045.41
343.2965, 43910.79
343.7786, 43659.73
344.2607, 43441.58
344.7428, 43322.34
345.2249, 43274.49
345.7071, 43169.26
346.1892, 42999.35
346.6713, 42826.98
347.1534, 42716.97
347.6355, 42657.50
348.1176, 42583.62
348.5998, 42471.22
349.0819, 42337.93
349.5640, 42212.92
350.0461, 42093.52
350.5282, 41982.80
351.0103, 41877.49
351.4925, 41780.39
351.9746, 41699.41
352.4567, 41641.98
352.9388, 41589.28
353.4209, 41520.31
353.9030, 41437.86
354.3852, 41352.29
354.8673, 41285.83
355.3494, 41214.27
355.8315, 41101.82
356.3136, 40934.55
356.7957, 40769.89
357.2779, 40649.39
357.7600, 40565.05
358.2421, 40501.43
358.7242, 40455.67
359.2063, 40424.60
359.6884, 40415.24
360.1706, 40431.35
360.6527, 40429.87
361.1348, 40366.82
361.6169, 40281.52
362.0990, 40221.15
362.5811, 40224.92
363.0633, 40230.56
363.5454, 40211.03
364.0275, 40166.38
364.5096, 40128.61
364.9917, 40097.41
365.4738, 40080.63
365.9560, 40084.01
366.4381, 40172.51
366.9202, 40210.20
367.4023, 40139.79
367.8844, 39989.36
368.3665, 39901.55
368.8487, 39931.03
369.3308, 39987.63
369.8129, 40034.16
370.2950, 40067.63
370.7771, 40096.73
371.2592, 40124.35
371.7414, 40146.60
372.2235, 40153.78
372.7056, 40132.11
373.1877, 40115.36
373.6698, 40113.74
374.1519, 40126.84
374.6340, 40151.43
375.1161, 40187.27
375.5983, 40232.27
376.0804, 40290.19
376.5625, 40368.30
377.0446, 40423.80
377.5267, 40434.20
378.0089, 40408.64
378.4910, 40421.63
378.9731, 40480.52
379.4552, 40550.73
379.9373, 40600.17
380.4194, 40630.93
380.9016, 40662.28
381.3837, 40694.46
381.8658, 40736.39
382.3479, 40820.58
382.8300, 40945.15
383.3121, 41057.66
383.7943, 41113.29
384.2764, 41127.99
384.7585, 41135.82
385.2406, 41131.15
385.7227, 41150.00
386.2048, 41262.28
386.6870, 41437.82
387.1691, 41588.84
387.6512, 41648.34
388.1333, 41665.02
388.6154, 41694.88
389.0975, 41740.86
389.5797, 41783.79
390.0618, 41805.93
390.5439, 41816.70
391.0260, 41828.83
391.5081, 41854.46
391.9902, 41878.29
392.4724, 41890.21
392.9545, 41892.83
393.4366, 41900.20
393.9187, 41938.81
394.4008, 41974.77
394.8829, 41982.08
395.3651, 41924.82
395.8472, 41882.59
396.3293, 41887.95
396.8114, 41923.87
397.2935, 41945.26
397.7756, 41922.82
398.2578, 41901.48
398.7399, 41893.62
399.2220, 41889.53
399.7041, 41923.74
400.1862, 42034.43
400.6683, 42165.67
401.1505, 42244.35
401.6326, 42232.71
402.1147, 42225.58
402.5968, 42241.87
403.0789, 42281.99
403.5610, 42336.81
404.0432, 42418.54
404.5253, 42497.56
405.0074, 42543.32
405.4895, 42544.13
405.9716, 42565.62
406.4537, 42622.41
406.9358, 42701.71
407.4179, 42758.71
407.9001, 42787.70
408.3822, 42832.91
408.8643, 42941.05
409.3464, 43100.91
409.8285, 43209.49
410.3106, 43253.53
410.7928, 43265.63
411.2749, 43276.61
411.7570, 43290.03
412.2391, 43323.50
412.7212, 43410.21
413.2033, 43514.79
413.6855, 43557.07
414.1676, 43537.57
414.6497, 43528.30
415.1318, 43601.77
415.6139, 43721.03
416.0960, 43828.18
416.5782, 43908.13
417.0603, 43968.64
417.5424, 44010.55
418.0245, 44035.76
418.5066, 44052.16
418.9887, 44038.61
419.4709, 44033.72
419.9530, 44073.89
420.4351, 44187.72
420.9172, 44279.70
421.3993, 44288.32
421.8814, 44262.04
422.3636, 44271.88
422.8457, 44358.06
423.3278, 44460.12
423.8099, 44572.32
424.2920, 44700.29
424.7741, 44790.41
425.2563, 44789.73
425.7384, 44786.11
426.2205, 44842.26
426.7026, 44981.14
427.1847, 45142.90
427.6668, 45340.28
428.1490, 45554.76
428.6311, 45705.28
429.1132, 45744.19
429.5953, 45819.15
430.0774, 46019.18
430.5595, 46366.83
431.0417, 46667.50
431.5238, 46909.92
432.0059, 47120.40
432.4880, 47326.78
432.9701, 47528.71
433.4522, 47752.84
433.9344, 48029.36
434.4165, 48331.10
434.8986, 48567.82
435.3807, 48738.24
435.8628, 48919.44
436.3449, 49219.19
436.8270, 49580.04
437.3091, 49851.51
437.7913, 49969.06
438.2734, 50048.79
438.7555, 50219.96
439.2376, 50457.46
439.7197, 50685.71
440.2018, 50898.48
440.6840, 51061.80
441.1661, 51130.23
441.6482, 51088.98
442.1303, 51033.97
442.6124, 51038.88
443.0945, 51047.63
443.5767, 50995.61
444.0588, 50838.05
444.5409, 50643.68
445.0230, 50423.55
445.5051, 50179.72
445.9872, 49932.14
446.4694, 49677.00
446.9515, 49426.48
447.4336, 49189.14
447.9157, 48989.70
448.3978, 48759.89
448.8799, 48468.51
449.3621, 48160.63
449.8442, 47924.01
450.3263, 47782.41
450.8084, 47663.91
451.2905, 47548.83
451.7726, 47437.74
452.2548, 47337.86
452.7369, 47245.91
453.2190, 47171.02
453.7011, 47131.38
454.1832, 47127.44
454.6653, 47100.54
455.1475, 47037.34
455.6296, 46950.28
456.1117, 46848.20
456.5938, 46735.43
457.0759, 46649.21
457.5580, 46630.43
458.0402, 46651.23
458.5223, 46662.57
459.0044, 46663.07
459.4865, 46642.54
459.9686, 46564.84
460.4507, 46464.67
460.9329, 46398.66
461.4150, 46424.93
461.8971, 46461.88
462.3792, 46453.65
462.8613, 46408.31
463.3434, 46365.51
463.8256, 46345.29
464.3077, 46332.14
464.7898, 46317.24
465.2719, 46302.60
465.7540, 46278.20
466.2361, 46227.27
466.7183, 46168.17
467.2003, 46130.64
467.6825, 46143.41
468.1646, 46147.34
468.6467, 46127.83
469.1288, 46083.92
469.6109, 46044.63
470.0930, 46019.29
470.5752, 45983.48
471.0573, 45906.58
471.5394, 45764.99
472.0215, 45684.52
472.5036, 45693.04
472.9857, 45747.38
473.4679, 45761.18
473.9500, 45733.50
474.4321, 45682.76
474.9142, 45603.17
475.3963, 45506.83
475.8784, 45445.29
476.3606, 45421.63
476.8427, 45403.53
477.3248, 45349.07
477.8069, 45280.12
478.2890, 45245.82
478.7711, 45274.80
479.2533, 45321.18
479.7354, 45338.89
480.2175, 45337.57
480.6996, 45345.14
481.1817, 45383.93
481.6638, 45429.85
482.1460, 45468.71
482.6281, 45498.32
483.1102, 45512.23
483.5923, 45474.26
484.0744, 45430.76
484.5565, 45428.26
485.0387, 45531.45
485.5208, 45609.22
486.0029, 45624.07
486.4850, 45590.90
486.9671, 45579.30
487.4492, 45599.69
487.9314, 45629.81
488.4135, 45669.67
488.8956, 45735.28
489.3777, 45743.22
489.8598, 45677.45
490.3419, 45583.96
490.8241, 45518.41
491.3062, 45483.32
491.7883, 45459.13
492.2704, 45440.93
492.7525, 45431.05
493.2346, 45436.16
493.7168, 45455.75
494.1989, 45482.11
494.6810, 45523.41
495.1631, 45564.16
495.6452, 45564.57
496.1273, 45511.93
496.6095, 45459.99
497.0916, 45462.89
497.5737, 45500.23
498.0558, 45538.91
498.5379, 45576.80
499.0200, 45602.98
499.5021, 45600.20
499.9843, 45575.30
500.4664, 45567.32
500.9485, 45605.56
501.4306, 45654.92
501.9127, 45695.83
502.3948, 45723.99
502.8770, 45748.70
503.3591, 45760.06
503.8412, 45771.95
504.3233, 45803.30
504.8054, 45863.48
505.2875, 45924.84
505.7697, 45983.21
506.2518, 46037.74
506.7339, 46083.21
507.2160, 46118.83
507.6981, 46145.32
508.1802, 46164.04
508.6624, 46175.04
509.1445, 46171.57
509.6266, 46150.29
510.1087, 46126.66
510.5908, 46112.01
511.0729, 46110.74
511.5551, 46142.09
512.0372, 46249.30
512.5193, 46368.35
513.0014, 46399.02
513.4835, 46355.15
513.9656, 46315.67
514.4478, 46338.46
514.9299, 46382.57
515.4120, 46406.65
515.8941, 46391.73
516.3762, 46394.53
516.8583, 46464.01
517.3405, 46555.13
517.8226, 46609.90
518.3047, 46579.03
518.7868, 46549.86
519.2689, 46531.94
519.7510, 46527.31
520.2332, 46559.06
520.7153, 46656.82
521.1974, 46750.98
521.6795, 46807.07
522.1616, 46818.59
522.6437, 46819.59
523.1259, 46811.80
523.6080, 46792.10
524.0901, 46737.62
524.5722, 46646.69
525.0543, 46614.78
525.5364, 46688.88
526.0186, 46816.76
526.5007, 46894.37
526.9828, 46922.16
527.4649, 46912.28
527.9470, 46835.76
528.4291, 46740.51
528.9113, 46692.22
529.3934, 46700.16
529.8755, 46733.56
530.3576, 46788.77
530.8397, 46851.16
531.3218, 46904.00
531.8040, 46942.69
532.2861, 46970.09
532.7682, 46994.17
533.2503, 47009.91
533.7324, 46996.55
534.2145, 46893.42
534.6967, 46817.16
535.1788, 46817.28
535.6609, 46914.25
536.1430, 46986.13
536.6251, 47023.89
537.1072, 47047.66
537.5894, 47077.45
538.0715, 47116.87
538.5536, 47141.04
539.0357, 47142.43
539.5178, 47130.59
539.9999, 47119.06
540.4821, 47108.34
540.9642, 47114.78
541.4463, 47158.33
541.9284, 47220.69
542.4105, 47255.13
542.8926, 47261.64
543.3748, 47286.53
543.8568, 47400.70
544.3389, 47538.66
544.8210, 47615.29
545.3032, 47579.84
545.7853, 47550.84
546.2674, 47614.06
546.7495, 47719.43
547.2316, 47781.24
547.7137, 47730.01
548.1959, 47681.62
548.6780, 47677.61
549.1601, 47718.19
549.6422, 47732.52
550.1243, 47694.75
550.6064, 47662.23
551.0886, 47664.72
551.5707, 47704.64
552.0528, 47784.44
552.5349, 47931.37
553.0170, 48068.23
553.4991, 48058.21
553.9813, 47905.08
554.4634, 47787.26
554.9455, 47759.07
555.4276, 47792.19
555.9097, 47850.41
556.3918, 47927.59
556.8740, 47987.47
557.3561, 47992.95
557.8382, 47977.20
558.3203, 47979.53
558.8024, 48005.46
559.2845, 48028.52
559.7667, 48013.18
560.2488, 47997.87
560.7309, 48019.75
561.2130, 48126.65
561.6951, 48224.70
562.1772, 48305.46
562.6594, 48364.70
563.1415, 48390.58
563.6236, 48335.76
564.1057, 48312.67
564.5878, 48366.37
565.0699, 48493.60
565.5521, 48571.22
566.0342, 48588.03
566.5163, 48584.54
566.9984, 48583.10
567.4805, 48584.86
567.9626, 48614.38
568.4448, 48681.77
568.9269, 48750.98
569.4090, 48770.39
569.8911, 48753.34
570.3732, 48739.27
570.8553, 48742.19
571.3375, 48756.11
571.8196, 48776.05
572.3017, 48802.30
572.7838, 48834.86
573.2659, 48881.98
573.7480, 48928.95
574.2302, 48970.18
574.7123, 49006.70
575.1944, 49026.92
575.6765, 49011.23
576.1586, 48990.22
576.6407, 48990.75
577.1229, 49040.39
577.6050, 49056.79
578.0871, 49014.49
578.5692, 48951.11
579.0513, 48959.11
579.5334, 49051.98
580.0156, 49132.78
580.4977, 49147.30
580.9798, 49126.61
581.4619, 49204.28
581.9440, 49376.20
582.4261, 49521.96
582.9083, 49511.03
583.3904, 49424.37
583.8725, 49389.11
584.3546, 49424.78
584.8367, 49488.49
585.3188, 49571.91
585.8010, 49658.55
586.2831, 49728.55
586.7652, 49747.29
587.2473, 49779.21
587.7294, 49853.83
588.2115, 49956.93
588.6937, 50042.01
589.1758, 50116.86
589.6579, 50161.32
590.1400, 50155.28
590.6221, 50096.69
591.1042, 50090.35
591.5864, 50147.66
592.0685, 50227.70
592.5506, 50297.71
593.0327, 50359.63
593.5148, 50444.12
593.9969, 50561.48
594.4791, 50677.22
594.9612, 50738.78
595.4433, 50764.27
595.9254, 50799.40
596.4075, 50861.88
596.8896, 50940.35
597.3718, 51035.41
597.8539, 51140.18
598.3360, 51231.08
598.8181, 51283.33
599.3002, 51332.15
599.7823, 51396.92
600.2645, 51481.94
600.7466, 51560.13
601.2287, 51631.30
601.7108, 51691.96
602.1929, 51734.66
602.6750, 51741.00
603.1572, 51786.82
603.6393, 51894.66
604.1214, 52014.52
604.6035, 52055.72
605.0856, 52018.11
605.5677, 52012.70
606.0498, 52088.60
606.5319, 52198.74
607.0140, 52241.97
607.4962, 52232.98
607.9783, 52245.99
608.4604, 52363.73
608.9425, 52499.89
609.4246, 52565.11
609.9067, 52552.73
610.3889, 52532.93
610.8710, 52506.50
611.3531, 52504.14
611.8352, 52552.78
612.3173, 52715.28
612.7994, 52829.76
613.2816, 52858.26
613.7637, 52855.59
614.2458, 52902.04
614.7279, 53021.18
615.2100, 53123.46
615.6921, 53189.06
616.1743, 53228.43
616.6564, 53264.16
617.1385, 53296.55
617.6206, 53341.42
618.1027, 53432.15
618.5848, 53534.98
619.0670, 53573.61
619.5491, 53548.44
620.0312, 53512.40
620.5133, 53483.73
620.9954, 53471.84
621.4775, 53495.45
621.9597, 53580.94
622.4418, 53631.76
622.9239, 53592.30
623.4060, 53508.47
623.8881, 53434.50
624.3702, 53383.16
624.8524, 53331.45
625.3345, 53275.05
625.8166, 53216.93
626.2987, 53171.66
626.7808, 53146.92
627.2629, 53104.02
627.7451, 53016.13
628.2272, 52898.48
628.7093, 52826.25
629.1914, 52799.86
629.6735, 52775.70
630.1556, 52713.02
630.6378, 52635.18
631.1199, 52579.84
631.6020, 52553.43
632.0841, 52535.43
632.5662, 52525.09
633.0483, 52511.09
633.5305, 52480.07
634.0126, 52387.51
634.4947, 52332.17
634.9768, 52366.09
635.4589, 52442.41
635.9410, 52467.13
636.4232, 52404.81
636.9053, 52355.86
637.3874, 52342.46
637.8695, 52360.38
638.3516, 52402.18
638.8337, 52473.16
639.3159, 52518.85
639.7980, 52481.07
640.2801, 52394.31
640.7622, 52375.09
641.2443, 52427.34
641.7264, 52475.67
642.2086, 52435.34
642.6907, 52368.70
643.1728, 52354.47
643.6549, 52428.46
644.1370, 52502.44
644.6191, 52543.48
645.1013, 52564.58
645.5834, 52582.12
646.0655, 52590.98
646.5476, 52603.99
647.0297, 52608.55
647.5118, 52620.04
647.9940, 52690.33
648.4761, 52837.52
648.9582, 52971.51
649.4403, 53062.75
649.9224, 53111.48
650.4045, 53106.35
650.8867, 53048.66
651.3688, 53017.66
651.8509, 53108.27
652.3330, 53244.84
652.8151, 53313.66
653.2972, 53301.88
653.7794, 53270.70
654.2615, 53240.04
654.7436, 53217.91
655.2257, 53213.66
655.7078, 53253.19
656.1899, 53272.91
656.6721, 53248.12
657.1542, 53207.11
657.6363, 53184.47
658.1184, 53180.50
658.6005, 53194.14
659.0826, 53232.15
659.5648, 53280.89
660.0469, 53301.95
660.5290, 53295.38
661.0111, 53287.17
661.4932, 53297.18
661.9753, 53311.49
662.4575, 53295.23
662.9396, 53255.21
663.4217, 53235.07
663.9038, 53284.67
664.3859, 53352.55
664.8680, 53399.95
665.3502, 53422.29
665.8323, 53431.43
666.3144, 53414.15
666.7965, 53394.51
667.2786, 53387.40
667.7607, 53380.14
668.2428, 53410.80
668.7249, 53495.62
669.2070, 53593.19
669.6891, 53638.25
670.1713, 53628.80
670.6534, 53626.48
671.1355, 53649.68
671.6176, 53678.39
672.0997, 53680.78
672.5818, 53661.85
673.0640, 53636.55
673.5461, 53602.86
674.0282, 53577.46
674.5103, 53590.63
674.9924, 53633.44
675.4745, 53644.73
675.9567, 53565.96
676.4388, 53490.99
676.9209, 53470.96
677.4030, 53514.79
677.8851, 53536.29
678.3672, 53509.36
678.8494, 53504.40
679.3315, 53594.33
679.8136, 53779.25
680.2957, 53896.58
680.7778, 53924.34
681.2599, 53921.68
681.7421, 53952.69
682.2242, 54002.69
682.7063, 54034.06
683.1884, 54018.70
683.6705, 54021.01
684.1526, 54118.33
684.6348, 54258.84
685.1169, 54358.06
685.5990, 54360.80
686.0811, 54353.12
686.5632, 54359.43
687.0453, 54374.10
687.5275, 54372.61
688.0096, 54342.15
688.4917, 54328.75
688.9738, 54353.30
689.4559, 54409.80
689.9380, 54468.64
690.4202, 54530.06
690.9023, 54564.64
691.3844, 54506.47
691.8665, 54421.69
692.3486, 54446.21
692.8307, 54587.99
693.3129, 54706.57
693.7950, 54665.94
694.2771, 54587.89
694.7592, 54581.40
695.2413, 54702.13
695.7234, 54803.27
696.2056, 54866.87
696.6877, 54898.26
697.1698, 54898.25
697.6519, 54859.70
698.1340, 54808.69
698.6161, 54731.73
699.0983, 54672.51
699.5804, 54750.90
700.0625, 54942.06
700.5446, 55043.06
701.0267, 54939.50
701.5089, 54777.08
701.9910, 54738.71
702.4731, 54790.53
702.9552, 54838.09
703.4373, 54826.58
703.9194, 54809.29
704.4016, 54817.99
704.8837, 54849.19
705.3658, 54856.19
705.8479, 54802.53
706.3300, 54763.24
706.8121, 54767.57
707.2943, 54816.31
707.7764, 54877.05
708.2585, 54954.51
708.7406, 55024.03
709.2227, 55059.53
709.7048, 55071.94
710.1870, 55095.20
710.6691, 55133.72
711.1512, 55171.25
711.6333, 55207.71
712.1154, 55231.02
712.5975, 55216.79
713.0797, 55117.97
713.5618, 55078.34
714.0439, 55190.36
714.5260, 55360.92
715.0081, 55477.73
715.4902, 55513.39
715.9724, 55541.86
716.4545, 55561.23
716.9366, 55584.77
717.4187, 55653.56
717.9008, 55765.83
718.3829, 55832.97
718.8651, 55797.82
719.3472, 55740.13
719.8293, 55801.40
720.3114, 55944.35
720.7935, 56054.63
721.2756, 56035.18
721.7578, 56001.77
722.2399, 56025.47
722.7220, 56100.86
723.2041, 56160.44
723.6862, 56182.80
724.1683, 56200.53
724.6505, 56221.48
725.1326, 56245.27
725.6147, 56280.30
726.0968, 56327.64
726.5789, 56379.39
727.0610, 56434.88
727.5432, 56490.36
728.0253, 56536.61
728.5074, 56573.50
728.9895, 56591.98
729.4716, 56564.73
729.9537, 56525.73
730.4358, 56513.51
730.9179, 56542.54
731.4000, 56574.61
731.8821, 56606.49
732.3643, 56633.09
732.8464, 56646.75
733.3285, 56626.45
733.8106, 56643.32
734.2927, 56709.84
734.7748, 56799.43
735.2570, 56879.59
735.7391, 56949.68
736.2212, 57005.27
736.7033, 57038.43
737.1854, 57071.24
737.6675, 57145.02
738.1497, 57238.33
738.6318, 57307.73
739.1139, 57318.23
739.5960, 57321.91
740.0781, 57335.40
740.5602, 57360.41
741.0424, 57398.36
741.5245, 57433.72
742.0066, 57510.64
742.4887, 57662.38
742.9708, 57860.64
743.4529, 57967.86
743.9351, 57975.94
744.4172, 57987.83
744.8993, 58055.18
745.3814, 58161.83
745.8635, 58289.75
746.3456, 58433.04
746.8278, 58558.98
747.3099, 58620.38
747.7920, 58675.25
748.2741, 58770.53
748.7562, 58915.14
749.2383, 59036.76
749.7205, 59136.23
750.2026, 59205.43
750.6847, 59237.14
751.1668, 59230.19
751.6489, 59213.54
752.1310, 59183.14
752.6132, 59171.38
753.0953, 59191.67
753.5774, 59255.06
754.0595, 59409.06
754.5416, 59669.75
755.0237, 59927.84
755.5059, 60102.20
755.9880, 60226.91
756.4701, 60338.71
756.9522, 60437.66
757.4343, 60530.67
757.9164, 60639.25
758.3986, 60726.10
758.8807, 60740.24
759.3628, 60644.15
759.8449, 60625.56
760.3270, 60720.98
760.8091, 60872.27
761.2913, 61007.20
761.7734, 61126.89
762.2555, 61235.47
762.7376, 61336.52
763.2197, 61430.74
763.7018, 61504.50
764.1840, 61575.40
764.6661, 61674.84
765.1482, 61866.37
765.6303, 62021.44
766.1124, 62060.68
766.5945, 62049.85
767.0767, 62143.00
767.5588, 62373.73
768.0409, 62592.54
768.5230, 62755.49
769.0051, 62879.42
769.4872, 63008.28
769.9694, 63140.91
770.4515, 63270.91
770.9336, 63400.55
771.4157, 63521.41
771.8978, 63610.95
772.3799, 63682.23
772.8621, 63783.18
773.3442, 63998.05
773.8263, 64179.89
774.3084, 64253.80
774.7905, 64237.36
775.2726, 64282.17
775.7548, 64415.55
776.2369, 64537.54
776.7190, 64590.01
777.2011, 64593.00
777.6832, 64619.68
778.1653, 64670.61
778.6475, 64748.59
779.1296, 64868.44
779.6117, 65006.69
780.0938, 65145.78
780.5759, 65280.98
781.0580, 65404.85
781.5402, 65478.70
782.0223, 65570.38
782.5044, 65722.89
782.9865, 65945.27
783.4686, 66126.52
783.9507, 66256.70
784.4329, 66374.19
784.9150, 66496.89
785.3971, 66632.63
785.8792, 66819.57
786.3613, 67062.02
786.8434, 67314.95
787.3256, 67540.19
787.8077, 67757.37
788.2898, 67980.53
788.7719, 68201.17
789.2540, 68471.02
789.7361, 68820.42
790.2183, 69209.07
790.7003, 69610.32
791.1824, 70036.08
791.6646, 70430.69
792.1467, 70777.84
792.6288, 71135.15
793.1109, 71588.65
793.5930, 72101.96
794.0751, 72565.77
794.5573, 72948.84
795.0394, 73348.84
795.5215, 73835.09
796.0036, 74372.84
796.4857, 74935.13
796.9678, 75540.92
797.4500, 76114.15
797.9321, 76619.69
798.4142, 77122.18
798.8963, 77686.34
799.3784, 78328.13
799.8605, 78993.89
800.3427, 79691.99
800.8248, 80382.52
801.3069, 81005.23
801.7890, 81586.74
802.2711, 82209.52
802.7532, 82925.52
803.2354, 83598.90
803.7175, 84129.26
804.1996, 84585.66
804.6817, 85057.96
805.1638, 85636.32
805.6459, 86124.81
806.1281, 86498.14
806.6102, 86796.72
807.0923, 87059.32
807.5744, 87286.30
808.0565, 87539.80
808.5386, 87846.15
809.0208, 88140.53
809.5029, 88325.53
809.9850, 88432.66
810.4671, 88522.20
810.9492, 88612.90
811.4313, 88690.76
811.9135, 88749.01
812.3956, 88789.49
812.8777, 88817.17
813.3598, 88843.38
813.8419, 88834.98
814.3240, 88790.83
814.8062, 88706.03
815.2883, 88570.50
815.7704, 88385.75
816.2525, 88154.45
816.7346, 87875.30
817.2167, 87554.95
817.6989, 87193.91
818.1810, 86798.38
818.6631, 86378.56
819.1452, 85918.74
819.6273, 85454.57
820.1094, 85007.63
820.5916, 84561.91
821.0737, 84081.31
821.5558, 83548.80
822.0379, 83072.63
822.5200, 82697.61
823.0021, 82355.94
823.4843, 81905.25
823.9664, 81380.83
824.4485, 80888.38
824.9306, 80474.42
825.4127, 80087.21
825.8948, 79696.45
826.3770, 79304.24
826.8591, 78909.54
827.3412, 78465.13
827.8233, 78090.55
828.3054, 77854.80
828.7875, 77657.30
829.2697, 77277.65
829.7518, 76702.98
830.2339, 76189.38
830.7160, 75808.82
831.1981, 75488.30
831.6802, 75122.71
832.1624, 74738.09
832.6445, 74395.13
833.1266, 74148.02
833.6087, 73911.95
834.0908, 73674.56
834.5729, 73426.01
835.0551, 73135.93
835.5372, 72759.16
836.0193, 72463.39
836.5014, 72292.81
836.9835, 72187.28
837.4656, 72045.20
837.9478, 71872.92
838.4299, 71697.40
838.9120, 71529.63
839.3941, 71352.27
839.8762, 71131.59
840.3583, 70895.50
840.8405, 70688.22
841.3226, 70538.95
841.8047, 70400.71
842.2868, 70260.34
842.7689, 70131.97
843.2510, 70050.65
843.7332, 70021.86
844.2153, 69969.08
844.6974, 69875.54
845.1795, 69752.70
845.6616, 69608.13
846.1437, 69448.44
846.6259, 69285.09
847.1080, 69096.70
847.5901, 68946.59
848.0722, 68909.91
848.5543, 68908.65
849.0364, 68827.66
849.5186, 68633.81
850.0007, 68433.79
850.4828, 68225.34
850.9649, 68038.53
851.4470, 67944.88
851.9291, 67919.80
852.4113, 67845.43
852.8933, 67690.30
853.3754, 67503.43
853.8575, 67287.90
854.3397, 67081.98
854.8218, 66931.46
855.3039, 66907.01
855.7860, 66841.73
856.2681, 66693.13
856.7502, 66531.59
857.2324, 66438.80
857.7145, 66417.91
858.1966, 66383.17
858.6787, 66324.26
859.1608, 66248.45
859.6429, 66148.54
860.1251, 66040.53
860.6072, 65948.05
861.0893, 65879.84
861.5714, 65809.60
862.0535, 65728.02
862.5356, 65638.11
863.0178, 65542.55
863.4999, 65444.64
863.9820, 65325.18
864.4641, 65174.11
864.9462, 65040.78
865.4283, 65004.66
865.9105, 65024.63
866.3926, 64982.25
866.8747, 64862.23
867.3568, 64729.83
867.8389, 64612.53
868.3210, 64518.30
868.8032, 64459.38
869.2853, 64453.77
869.7674, 64428.30
870.2495, 64375.33
870.7316, 64317.04
871.2137, 64262.64
871.6959, 64214.44
872.1780, 64200.08
872.6601, 64219.97
873.1422, 64234.11
873.6243, 64207.32
874.1064, 64161.44
874.5886, 64105.63
875.0707, 64039.36
875.5528, 64008.75
876.0349, 64050.71
876.5170, 64101.25
876.9991, 64150.11
877.4813, 64192.68
877.9634, 64125.30
878.4455, 63937.43
878.9276, 63796.03
879.4097, 63857.94
879.8918, 64002.31
880.3740, 64054.98
880.8561, 64028.70
881.3382, 63998.90
881.8203, 64035.52
882.3024, 64038.16
882.7845, 63928.75
883.2667, 63744.60
883.7488, 63651.67
884.2309, 63661.77
884.7130, 63715.89
885.1951, 63828.34
885.6772, 63935.17
886.1594, 63861.64
886.6415, 63662.53
887.1236, 63515.09
887.6057, 63552.34
888.0878, 63611.21
888.5699, 63629.62
889.0521, 63609.63
889.5342, 63552.68
890.0163, 63414.63
890.4984, 63352.71
890.9805, 63416.64
891.4626, 63533.79
891.9448, 63562.65
892.4269, 63521.92
892.9090, 63483.70
893.3911, 63446.05
893.8732, 63464.01
894.3553, 63667.48
894.8375, 63915.41
895.3196, 64014.31
895.8017, 63774.80
896.2838, 63627.02
896.7659, 63617.97
897.2480, 63650.27
897.7302, 63587.59
898.2123, 63449.87
898.6944, 63403.53
899.1765, 63486.33
899.6586, 63565.11
900.1407, 63508.61
900.6229, 63392.94
901.1050, 63293.50
901.5871, 63217.13
902.0692, 63185.26
902.5513, 63229.89
903.0334, 63279.88
903.5156, 63280.24
903.9977, 63228.85
904.4798, 63213.96
904.9619, 63236.55
905.4440, 63258.03
905.9261, 63259.59
906.4083, 63234.90
906.8904, 63147.25
907.3725, 62999.88
907.8546, 62924.80
908.3367, 63053.20
908.8188, 63164.12
909.3010, 63160.31
909.7831, 63060.50
910.2652, 63019.34
910.7473, 63039.34
911.2294, 63069.83
911.7115, 63090.54
912.1937, 63102.33
912.6758, 63104.08
913.1579, 63097.25
913.6400, 63087.18
914.1221, 63060.16
914.6042, 63047.82
915.0863, 63072.11
915.5684, 63112.09
916.0505, 63116.73
916.5327, 63082.47
917.0148, 63051.39
917.4969, 63036.17
917.9790, 63026.64
918.4611, 63000.20
918.9432, 62971.53
919.4254, 62965.13
919.9075, 62972.26
920.3896, 63032.71
920.8717, 63217.88
921.3538, 63426.96
921.8359, 63549.70
922.3181, 63566.79
922.8002, 63593.71
923.2823, 63637.43
923.7644, 63683.22
924.2465, 63690.98
924.7286, 63695.30
925.2108, 63774.56
925.6929, 63949.96
926.1750, 64084.87
926.6571, 64100.73
927.1392, 64073.52
927.6213, 64042.04
928.1035, 64005.48
928.5856, 64021.22
929.0677, 64103.47
929.5498, 64165.99
930.0319, 64117.98
930.5140, 64030.15
930.9962, 64060.29
931.4783, 64184.67
931.9604, 64255.17
932.4425, 64124.81
932.9246, 64011.34
933.4067, 64013.39
933.8889, 64103.17
934.3710, 64210.98
934.8531, 64348.50
935.3352, 64423.21
935.8173, 64380.59
936.2994, 64299.78
936.7816, 64309.33
937.2637, 64381.83
937.7458, 64456.92
938.2279, 64518.26
938.7100, 64570.13
939.1921, 64596.54
939.6743, 64622.80
940.1564, 64683.41
940.6385, 64788.19
941.1206, 64877.89
941.6027, 64947.80
942.0848, 65006.05
942.5670, 65066.42
943.0491, 65119.70
943.5312, 65145.41
944.0133, 65135.62
944.4954, 65139.31
944.9775, 65158.03
945.4597, 65215.42
945.9418, 65332.02
946.4239, 65511.89
946.9060, 65667.87
947.3881, 65798.59
947.8702, 65929.09
948.3524, 66076.27
948.8345, 66233.41
949.3166, 66389.81
949.7987, 66547.48
950.2808, 66709.78
950.7629, 66843.02
951.2451, 67020.80
951.7272, 67275.04
952.2093, 67582.53
952.6914, 67885.70
953.1735, 68182.82
953.6556, 68485.50
954.1378, 68788.67
954.6199, 69109.84
955.1020, 69481.89
955.5841, 69887.42
956.0662, 70293.34
956.5483, 70636.37
957.0305, 71082.73
957.5126, 71743.43
957.9947, 72443.43
958.4768, 73002.73
958.9589, 73418.45
959.4410, 73956.05
959.9232, 74635.32
960.4053, 75385.44
960.8874, 76195.27
961.3695, 77023.26
961.8516, 77789.31
962.3337, 78482.07
962.8159, 79280.96
963.2980, 80303.41
963.7801, 81324.08
964.2622, 82261.76
964.7443, 83141.19
965.2264, 84063.08
965.7086, 85025.45
966.1907, 86001.20
966.6728, 87002.20
967.1549, 88000.34
967.6370, 88986.17
968.1191, 89947.06
968.6013, 90829.60
969.0834, 91653.50
969.5655, 92376.00
970.0476, 93018.76
970.5297, 93539.24
971.0118, 93891.99
971.4940, 94076.72
971.9761, 94110.77
972.4582, 94003.63
972.9403, 93702.55
973.4224, 93143.78
973.9045, 92387.62
974.3867, 91476.23
974.8688, 90398.38
975.3509, 89191.27
975.8330, 87834.88
976.3151, 86411.66
976.7972, 84937.92
977.2793, 83465.09
977.7614, 82087.46
978.2435, 80796.61
978.7256, 79520.70
979.2078, 78101.64
979.6899, 76816.23
980.1720, 75841.37
980.6541, 75091.11
981.1362, 74290.87
981.6183, 73408.55
982.1005, 72644.98
982.5826, 72057.29
983.0647, 71576.01
983.5468, 71142.10
984.0289, 70741.59
984.5110, 70351.57
984.9932, 69954.39
985.4753, 69595.86
985.9574, 69296.64
986.4395, 69038.80
986.9216, 68813.30
987.4037, 68620.41
987.8859, 68453.51
988.3680, 68313.20
988.8501, 68209.90
989.3322, 68197.09
989.8143, 68192.98
990.2964, 68093.32
990.7786, 67911.34
991.2607, 67756.39
991.7428, 67663.29
992.2249, 67588.35
992.7070, 67527.00
993.1891, 67473.95
993.6713, 67409.44
994.1534, 67338.84
994.6355, 67299.05
995.1176, 67316.65
995.5997, 67331.61
996.0818, 67280.70
996.5640, 67209.88
997.0461, 67172.75
997.5282, 67168.00
998.0103, 67224.89
998.4924, 67377.35
998.9745, 67499.79
999.4567, 67426.86
999.9388, 67252.59
1000.421, 67251.62
1000.903, 67416.15
1001.385, 67536.30
1001.867, 67464.54
1002.349, 67352.88
1002.831, 67239.27
1003.314, 67145.26
1003.796, 67183.57
1004.278, 67377.30
1004.760, 67489.01
1005.242, 67419.81
1005.724, 67291.84
1006.206, 67262.28
1006.688, 67291.10
1007.171, 67310.13
1007.653, 67302.56
1008.135, 67282.06
1008.617, 67233.64
1009.099, 67195.61
1009.581, 67208.83
1010.063, 67269.19
1010.545, 67306.90
1011.027, 67320.15
1011.510, 67326.71
1011.992, 67334.59
1012.474, 67343.70
1012.956, 67356.42
1013.438, 67370.82
1013.920, 67373.16
1014.402, 67355.57
1014.884, 67343.82
1015.367, 67343.40
1015.849, 67355.16
1016.331, 67391.96
1016.813, 67442.03
1017.295, 67471.42
1017.777, 67453.58
1018.259, 67453.05
1018.741, 67509.89
1019.223, 67587.21
1019.706, 67665.24
1020.188, 67755.70
1020.670, 67751.59
1021.152, 67643.06
1021.634, 67549.09
1022.116, 67567.78
1022.598, 67648.36
1023.080, 67751.77
1023.563, 67869.34
1024.045, 67965.02
1024.527, 68032.47
1025.009, 68067.47
1025.491, 68050.37
1025.973, 68016.55
1026.455, 68053.30
1026.937, 68143.45
1027.419, 68213.79
1027.901, 68244.58
1028.384, 68250.80
1028.866, 68220.66
1029.348, 68185.73
1029.830, 68174.91
1030.312, 68189.33
1030.794, 68249.58
1031.276, 68375.72
1031.758, 68457.88
1032.241, 68379.55
1032.723, 68231.38
1033.205, 68145.80
1033.687, 68119.09
1034.169, 68122.39
1034.651, 68158.26
1035.133, 68206.81
1035.615, 68263.18
1036.098, 68325.80
1036.580, 68396.54
1037.062, 68471.59
1037.544, 68531.42
1038.026, 68567.84
1038.508, 68602.83
1038.990, 68663.41
1039.472, 68723.77
1039.954, 68762.34
1040.437, 68777.22
1040.919, 68763.12
1041.401, 68707.69
1041.883, 68674.70
1042.365, 68733.29
1042.847, 68815.09
1043.329, 68746.89
1043.811, 68580.70
1044.293, 68463.34
1044.776, 68516.41
1045.258, 68546.76
1045.740, 68476.80
1046.222, 68391.81
1046.704, 68407.16
1047.186, 68519.99
1047.668, 68622.99
1048.150, 68706.98
1048.633, 68754.87
1049.115, 68694.18
1049.597, 68633.22
1050.079, 68683.41
1050.561, 68852.78
1051.043, 68966.45
1051.525, 69009.30
1052.007, 69026.94
1052.490, 69021.38
1052.972, 69018.16
1053.454, 69078.89
1053.936, 69177.89
1054.418, 69257.02
1054.900, 69285.80
1055.382, 69307.56
1055.864, 69315.14
1056.346, 69332.92
1056.828, 69392.37
1057.311, 69492.22
1057.793, 69531.44
1058.275, 69509.43
1058.757, 69495.32
1059.239, 69575.43
1059.721, 69650.93
1060.203, 69655.97
1060.685, 69592.33
1061.168, 69474.14
1061.650, 69267.85
1062.132, 69130.02
1062.614, 69100.83
1063.096, 69132.16
1063.578, 69178.73
1064.060, 69229.63
1064.542, 69266.83
1065.025, 69287.00
1065.507, 69292.11
1065.989, 69282.17
1066.471, 69254.32
1066.953, 69182.56
1067.435, 69088.04
1067.917, 69143.16
1068.399, 69328.91
1068.881, 69487.55
1069.364, 69529.75
1069.846, 69530.58
1070.328, 69521.48
1070.810, 69506.12
1071.292, 69490.87
1071.774, 69474.32
1072.256, 69447.81
1072.738, 69401.07
1073.220, 69384.19
1073.703, 69484.33
1074.185, 69623.02
1074.667, 69689.49
1075.149, 69680.73
1075.631, 69662.32
1076.113, 69637.94
1076.595, 69630.13
1077.077, 69658.86
1077.559, 69697.59
1078.042, 69679.76
1078.524, 69619.35
1079.006, 69556.13
1079.488, 69493.77
1079.970, 69461.07
1080.452, 69509.09
1080.934, 69565.76
1081.416, 69559.29
1081.899, 69482.84
1082.381, 69505.69
1082.863, 69630.94
1083.345, 69759.52
1083.827, 69827.33
1084.309, 69868.78
1084.791, 69900.89
1085.273, 69933.44
1085.755, 69995.61
1086.238, 70122.74
1086.720, 70207.56
1087.202, 70239.45
1087.684, 70233.13
1088.166, 70173.40
1088.648, 70098.98
1089.130, 70105.07
1089.612, 70197.48
1090.094, 70267.88
1090.577, 70236.59
1091.059, 70223.56
1091.541, 70287.27
1092.023, 70389.66
1092.505, 70398.47
1092.987, 70333.64
1093.469, 70331.37
1093.951, 70449.02
1094.434, 70577.20
1094.916, 70648.01
1095.398, 70685.16
1095.880, 70706.94
1096.362, 70711.84
1096.844, 70722.13
1097.326, 70737.84
1097.808, 70754.05
1098.291, 70761.47
1098.773, 70773.43
1099.255, 70819.63
1099.737, 70882.10
1100.219, 70917.50
1100.701, 70887.75
1101.183, 70890.29
1101.665, 70947.59
1102.147, 71002.88
1102.630, 70980.65
1103.112, 70911.96
1103.594, 70855.70
1104.076, 70818.12
1104.558, 70815.51
1105.040, 70877.54
1105.522, 70950.66
1106.004, 71031.70
1106.486, 71099.36
1106.969, 71075.27
1107.451, 70977.93
1107.933, 70934.81
1108.415, 70989.53
1108.897, 71053.35
1109.379, 71077.55
1109.861, 71075.72
1110.343, 71054.52
1110.826, 71016.14
1111.308, 70995.59
1111.790, 70995.38
1112.272, 70995.40
1112.754, 70984.27
1113.236, 70970.74
1113.718, 70967.63
1114.200, 70966.88
1114.682, 70953.04
1115.165, 70905.80
1115.647, 70873.21
1116.129, 70846.97
1116.611, 70858.17
1117.093, 70964.77
1117.575, 71113.41
1118.057, 71218.53
1118.539, 71274.95
1119.021, 71279.68
1119.504, 71167.27
1119.986, 71092.59
1120.468, 71101.66
1120.950, 71145.50
1121.432, 71128.82
1121.914, 71075.64
1122.396, 71076.77
1122.878, 71149.98
1123.361, 71241.94
1123.843, 71365.07
1124.325, 71454.98
1124.807, 71456.84
1125.289, 71399.74
1125.771, 71435.71
1126.253, 71558.77
1126.735, 71679.77
1127.218, 71769.20
1127.700, 71838.89
1128.182, 71869.91
1128.664, 71899.89
1129.146, 71986.47
1129.628, 72150.58
1130.110, 72206.30
1130.592, 72139.88
1131.074, 72059.04
1131.557, 72019.09
1132.039, 72009.98
1132.521, 72039.52
1133.003, 72089.30
1133.485, 72117.97
1133.967, 72123.05
1134.449, 72102.14
1134.931, 72051.05
1135.413, 71996.32
1135.896, 71958.32
1136.378, 71941.35
1136.860, 71962.79
1137.342, 72017.73
1137.824, 72059.97
1138.306, 72040.32
1138.788, 72054.40
1139.270, 72134.20
1139.752, 72235.58
1140.235, 72279.30
1140.717, 72278.75
1141.199, 72267.83
1141.681, 72246.00
1142.163, 72262.80
1142.645, 72402.05
1143.127, 72517.71
1143.609, 72522.98
1144.092, 72456.55
1144.574, 72500.70
1145.056, 72633.73
1145.538, 72683.81
1146.020, 72557.12
1146.502, 72436.59
1146.984, 72458.68
1147.466, 72533.20
1147.948, 72575.24
1148.431, 72581.92
1148.913, 72621.61
1149.395, 72694.34
1149.877, 72802.73
1150.359, 73003.51
1150.841, 73178.17
1151.323, 73181.85
1151.805, 73111.12
1152.287, 73152.20
1152.770, 73368.71
1153.252, 73449.60
1153.734, 73360.52
1154.216, 73277.70
1154.698, 73348.38
1155.180, 73509.87
1155.662, 73753.45
1156.144, 74039.44
1156.627, 74189.31
1157.109, 74150.13
1157.591, 74090.45
1158.073, 74020.74
1158.555, 73984.64
1159.037, 74085.90
1159.519, 74229.05
1160.001, 74247.49
1160.484, 74125.95
1160.966, 74055.20
1161.448, 74099.20
1161.930, 74139.05
1162.412, 74146.22
1162.894, 74123.70
1163.376, 74073.45
1163.858, 73999.37
1164.340, 73903.02
1164.823, 73772.95
1165.305, 73683.09
1165.787, 73706.33
1166.269, 73699.91
1166.751, 73573.13
1167.233, 73385.85
1167.715, 73357.97
1168.197, 73444.63
1168.679, 73481.84
1169.162, 73360.27
1169.644, 73278.44
1170.126, 73344.63
1170.608, 73432.77
1171.090, 73446.99
1171.572, 73397.47
1172.054, 73395.73
1172.536, 73438.83
1173.019, 73515.23
1173.501, 73700.95
1173.983, 73820.07
1174.465, 73734.83
1174.947, 73581.47
1175.429, 73503.65
1175.911, 73501.47
1176.393, 73533.63
1176.875, 73596.69
1177.358, 73634.46
1177.840, 73586.52
1178.322, 73525.90
1178.804, 73491.84
1179.286, 73479.23
1179.768, 73475.08
1180.250, 73479.21
1180.732, 73506.28
1181.214, 73558.80
1181.697, 73624.92
1182.179, 73704.27
1182.661, 73784.66
1183.143, 73869.47
1183.625, 73946.91
1184.107, 73955.20
1184.589, 73885.59
1185.071, 73855.54
1185.554, 73906.45
1186.036, 73939.97
1186.518, 73809.05
1187.000, 73648.27
1187.482, 73594.48
1187.964, 73654.59
1188.446, 73766.42
1188.928, 73950.80
1189.411, 74029.45
1189.893, 73904.52
1190.375, 73723.45
1190.857, 73644.00
1191.339, 73615.52
1191.821, 73569.30
1192.303, 73483.18
1192.785, 73473.31
1193.267, 73550.00
1193.750, 73640.22
1194.232, 73719.63
1194.714, 73774.16
1195.196, 73774.75
1195.678, 73742.80
1196.160, 73709.73
1196.642, 73648.09
1197.124, 73684.42
1197.606, 73843.24
1198.089, 73982.80
1198.571, 73965.23
1199.053, 73894.46
1199.535, 73914.55
1200.017, 73991.58
1200.499, 74034.09
1200.981, 74008.05
1201.463, 73997.25
1201.945, 74010.31
1202.428, 74023.37
1202.910, 74000.93
1203.392, 73974.27
1203.874, 73987.59
1204.356, 74036.32
1204.838, 74091.77
1205.320, 74144.48
1205.802, 74220.72
1206.285, 74335.09
1206.767, 74431.88
1207.249, 74412.97
1207.731, 74354.98
1208.213, 74380.61
1208.695, 74487.94
1209.177, 74549.30
1209.659, 74539.92
1210.141, 74502.35
1210.624, 74429.17
1211.106, 74374.16
1211.588, 74442.31
1212.070, 74558.25
1212.552, 74602.86
1213.034, 74557.83
1213.516, 74541.34
1213.998, 74563.15
1214.480, 74625.13
1214.963, 74754.40
1215.445, 74867.59
1215.927, 74798.85
1216.409, 74643.88
1216.891, 74550.33
1217.373, 74552.19
1217.855, 74567.91
1218.337, 74603.21
1218.820, 74617.67
1219.302, 74580.23
1219.784, 74539.64
1220.266, 74607.74
1220.748, 74720.32
1221.230, 74755.16
1221.712, 74632.60
1222.194, 74645.58
1222.677, 74862.01
1223.159, 75039.41
1223.641, 75019.19
1224.123, 74925.34
1224.605, 74963.14
1225.087, 75080.12
1225.569, 75185.69
1226.051, 75268.55
1226.533, 75305.49
1227.016, 75287.13
1227.498, 75250.88
1227.980, 75197.88
1228.462, 75160.01
1228.944, 75222.47
1229.426, 75332.86
1229.908, 75380.27
1230.390, 75268.89
1230.872, 75239.09
1231.355, 75308.05
1231.837, 75401.56
1232.319, 75478.40
1232.801, 75534.35
1233.283, 75548.58
1233.765, 75537.37
1234.247, 75540.91
1234.729, 75543.08
1235.212, 75625.21
1235.694, 75809.87
1236.176, 75982.36
1236.658, 76040.36
1237.140, 76026.90
1237.622, 75967.39
1238.104, 75879.40
1238.586, 75811.18
1239.068, 75757.90
1239.551, 75755.88
1240.033, 75814.53
1240.515, 75900.36
1240.997, 76038.05
1241.479, 76147.49
1241.961, 76111.30
1242.443, 75969.05
1242.925, 75891.10
1243.407, 75887.85
1243.890, 75936.84
1244.372, 76038.69
1244.854, 76163.04
1245.336, 76309.90
1245.818, 76434.47
1246.300, 76466.30
1246.782, 76425.13
1247.264, 76453.30
1247.747, 76565.72
1248.229, 76600.83
1248.711, 76519.58
1249.193, 76426.79
1249.675, 76428.94
1250.157, 76450.97
1250.639, 76423.41
1251.121, 76362.56
1251.604, 76340.65
1252.086, 76361.78
1252.568, 76395.78
1253.050, 76441.65
1253.532, 76475.21
1254.014, 76464.33
1254.496, 76443.41
1254.978, 76427.23
1255.460, 76421.15
1255.943, 76457.16
1256.425, 76530.70
1256.907, 76597.68
1257.389, 76646.39
1257.871, 76684.15
1258.353, 76711.90
1258.835, 76730.12
1259.317, 76738.68
1259.799, 76738.35
##END=



