##NAMES=Arseniopleite
##RRUFFID=R070166
##IDEAL CHEMISTRY=NaCaMn^2+^Mn^2+^_2_(As^5+^O_4_)_3_
##LOCALITY=Varenche Mine, Saint-Barthélemy, Nus, Aosta Valley, Italy
##OWNER=RRUFF
##SOURCE=Michael Scott
##DESCRIPTION=Reddish brown granular
##STATUS=The identification of this mineral is confirmed by single-crystal X-ray diffraction and chemical analysis.
##URL=rruff.info/R070166
##MEASURED CHEMISTRY=(Ca_0.70_Na_0.30_)_Σ=1_(Na_0.94_Pb^2+^_0.06_)_Σ=1_Mn^2+^_1.00_(Mn^2+^_1.30_Mg_0.40_Fe^3+^_0.24_Fe^2+^_0.06_)_Σ=2_((As_0.99_P_0.01_)_Σ=1_O_4_)_3_; Fe^2+^ and Fe^3+^ splitted by charge balance
130.8969, 920.3270
131.3791, 953.6354
131.8612, 982.2913
132.3433, 1013.253
132.8254, 1052.856
133.3075, 1099.704
133.7896, 1137.266
134.2718, 1162.810
134.7539, 1182.013
135.2360, 1205.638
135.7181, 1233.818
136.2002, 1263.115
136.6823, 1290.956
137.1645, 1316.975
137.6466, 1345.710
138.1287, 1379.825
138.6108, 1417.236
139.0929, 1447.022
139.5750, 1468.915
140.0572, 1483.649
140.5393, 1489.469
141.0214, 1480.206
141.5035, 1478.424
141.9856, 1490.490
142.4677, 1517.454
142.9499, 1541.593
143.4320, 1562.565
143.9141, 1580.554
144.3962, 1593.983
144.8783, 1593.802
145.3604, 1602.164
145.8425, 1628.201
146.3247, 1684.043
146.8068, 1727.759
147.2889, 1754.908
147.7710, 1769.715
148.2531, 1783.103
148.7352, 1787.282
149.2174, 1796.415
149.6995, 1816.218
150.1816, 1859.880
150.6637, 1898.821
151.1458, 1933.855
151.6279, 1963.976
152.1101, 1985.822
152.5922, 1995.761
153.0743, 1999.052
153.5564, 1999.077
154.0385, 1992.378
154.5206, 1986.260
155.0028, 1983.177
155.4849, 1983.497
155.9670, 1981.338
156.4491, 1973.747
156.9312, 1963.701
157.4133, 1954.383
157.8955, 1946.805
158.3776, 1939.913
158.8597, 1932.473
159.3418, 1923.302
159.8239, 1917.826
160.3060, 1921.718
160.7882, 1930.206
161.2703, 1934.853
161.7524, 1926.318
162.2345, 1916.927
162.7166, 1915.177
163.1987, 1927.436
163.6808, 1938.601
164.1630, 1939.946
164.6451, 1933.960
165.1272, 1928.786
165.6093, 1928.730
166.0914, 1931.247
166.5735, 1933.815
167.0557, 1932.428
167.5378, 1934.111
168.0199, 1948.007
168.5020, 1972.411
168.9841, 1991.709
169.4662, 1990.685
169.9484, 1979.305
170.4305, 1971.527
170.9126, 1975.588
171.3947, 1984.091
171.8768, 1990.408
172.3589, 1994.406
172.8411, 1997.271
173.3232, 1996.998
173.8053, 1996.135
174.2874, 2000.362
174.7695, 2020.221
175.2516, 2044.138
175.7338, 2054.378
176.2159, 2046.831
176.6980, 2035.615
177.1801, 2035.591
177.6622, 2044.792
178.1443, 2055.195
178.6264, 2062.991
179.1086, 2068.654
179.5907, 2072.846
180.0728, 2075.260
180.5549, 2076.997
181.0370, 2079.526
181.5191, 2082.785
182.0013, 2086.394
182.4834, 2087.098
182.9655, 2087.328
183.4476, 2096.056
183.9297, 2119.292
184.4118, 2149.003
184.8940, 2167.995
185.3761, 2176.137
185.8582, 2181.549
186.3403, 2190.872
186.8224, 2203.833
187.3046, 2219.124
187.7867, 2239.541
188.2688, 2261.782
188.7509, 2272.196
189.2330, 2268.807
189.7151, 2264.226
190.1973, 2275.399
190.6794, 2301.664
191.1615, 2326.046
191.6436, 2342.305
192.1257, 2350.989
192.6078, 2355.603
193.0900, 2354.441
193.5721, 2353.757
194.0542, 2364.905
194.5363, 2388.492
195.0184, 2412.576
195.5005, 2430.744
195.9826, 2443.064
196.4648, 2457.225
196.9469, 2474.817
197.4290, 2492.339
197.9111, 2501.631
198.3932, 2501.336
198.8753, 2499.856
199.3575, 2502.199
199.8396, 2508.675
200.3217, 2514.769
200.8038, 2519.583
201.2859, 2523.975
201.7680, 2531.156
202.2502, 2542.247
202.7323, 2552.682
203.2144, 2559.465
203.6965, 2562.478
204.1786, 2562.215
204.6607, 2557.594
205.1429, 2549.661
205.6250, 2544.923
206.1071, 2544.693
206.5892, 2544.792
207.0713, 2540.438
207.5534, 2529.618
208.0356, 2522.880
208.5177, 2524.771
208.9998, 2534.474
209.4819, 2534.832
209.9640, 2522.782
210.4461, 2506.066
210.9282, 2492.796
211.4104, 2482.855
211.8925, 2476.518
212.3746, 2474.683
212.8567, 2477.717
213.3388, 2481.000
213.8209, 2487.800
214.3031, 2491.241
214.7852, 2478.582
215.2673, 2440.137
215.7494, 2408.954
216.2315, 2397.902
216.7136, 2412.261
217.1958, 2420.898
217.6779, 2424.784
218.1600, 2422.326
218.6421, 2408.270
219.1242, 2373.718
219.6063, 2344.556
220.0885, 2333.094
220.5706, 2349.530
221.0527, 2351.536
221.5348, 2331.131
222.0169, 2299.745
222.4990, 2284.108
222.9812, 2289.792
223.4633, 2302.285
223.9454, 2316.638
224.4275, 2338.042
224.9096, 2348.819
225.3917, 2345.573
225.8739, 2331.952
226.3560, 2319.735
226.8381, 2307.743
227.3202, 2298.689
227.8023, 2295.194
228.2844, 2303.429
228.7665, 2303.582
229.2487, 2291.973
229.7308, 2271.033
230.2129, 2251.519
230.6950, 2230.360
231.1771, 2214.763
231.6592, 2210.624
232.1414, 2226.734
232.6235, 2236.772
233.1056, 2236.811
233.5877, 2227.932
234.0698, 2218.648
234.5519, 2205.179
235.0341, 2195.629
235.5162, 2197.209
235.9983, 2218.834
236.4804, 2234.808
236.9625, 2240.369
237.4446, 2235.886
237.9268, 2232.212
238.4089, 2230.107
238.8910, 2227.994
239.3731, 2224.200
239.8552, 2216.811
240.3373, 2211.212
240.8195, 2208.028
241.3016, 2207.272
241.7837, 2209.953
242.2658, 2219.073
242.7479, 2228.782
243.2300, 2232.865
243.7122, 2227.606
244.1943, 2223.456
244.6764, 2222.696
245.1585, 2225.583
245.6406, 2228.898
246.1227, 2234.300
246.6048, 2238.667
247.0870, 2238.909
247.5691, 2236.280
248.0512, 2226.988
248.5333, 2207.258
249.0154, 2174.630
249.4975, 2151.443
249.9797, 2139.543
250.4618, 2135.278
250.9439, 2134.822
251.4260, 2140.968
251.9081, 2145.734
252.3902, 2146.214
252.8724, 2141.111
253.3545, 2140.228
253.8366, 2147.552
254.3187, 2155.801
254.8008, 2153.769
255.2829, 2136.656
255.7651, 2118.417
256.2472, 2102.752
256.7293, 2089.832
257.2114, 2077.818
257.6935, 2064.395
258.1756, 2053.738
258.6577, 2054.676
259.1399, 2074.754
259.6220, 2090.415
260.1041, 2091.996
260.5862, 2075.052
261.0683, 2066.056
261.5504, 2069.042
262.0326, 2076.503
262.5147, 2074.598
262.9968, 2058.196
263.4789, 2044.580
263.9610, 2041.250
264.4431, 2050.951
264.9253, 2057.873
265.4074, 2062.159
265.8895, 2063.542
266.3716, 2060.090
266.8537, 2048.804
267.3358, 2040.888
267.8180, 2044.136
268.3001, 2063.188
268.7822, 2064.609
269.2643, 2038.881
269.7464, 2005.042
270.2285, 2001.810
270.7107, 2040.410
271.1928, 2073.510
271.6749, 2077.440
272.1570, 2046.346
272.6391, 2024.089
273.1212, 2011.260
273.6034, 2006.631
274.0855, 2009.863
274.5676, 2022.878
275.0497, 2035.482
275.5318, 2042.275
276.0139, 2042.589
276.4961, 2045.624
276.9782, 2052.491
277.4603, 2060.788
277.9424, 2065.280
278.4245, 2065.300
278.9066, 2066.089
279.3888, 2070.266
279.8709, 2077.922
280.3530, 2085.896
280.8351, 2093.671
281.3172, 2102.526
281.7993, 2115.730
282.2815, 2133.782
282.7636, 2150.636
283.2457, 2164.256
283.7278, 2174.534
284.2099, 2178.233
284.6920, 2173.230
285.1741, 2165.975
285.6563, 2167.900
286.1384, 2179.099
286.6205, 2191.444
287.1026, 2197.558
287.5847, 2199.818
288.0668, 2215.968
288.5490, 2249.939
289.0311, 2289.028
289.5132, 2315.256
289.9953, 2328.666
290.4774, 2335.932
290.9595, 2336.504
291.4417, 2332.856
291.9238, 2334.385
292.4059, 2341.792
292.8880, 2353.508
293.3701, 2369.102
293.8522, 2387.960
294.3344, 2406.353
294.8165, 2420.901
295.2986, 2433.826
295.7807, 2451.394
296.2628, 2474.804
296.7449, 2499.058
297.2271, 2517.170
297.7092, 2530.466
298.1913, 2544.286
298.6734, 2561.566
299.1555, 2580.943
299.6376, 2600.039
300.1198, 2618.968
300.6019, 2636.834
301.0840, 2649.196
301.5661, 2659.107
302.0482, 2674.733
302.5303, 2705.968
303.0125, 2742.610
303.4946, 2771.749
303.9767, 2792.017
304.4588, 2809.560
304.9409, 2828.423
305.4230, 2848.092
305.9052, 2868.266
306.3873, 2893.569
306.8694, 2916.406
307.3515, 2925.789
307.8336, 2920.439
308.3157, 2917.372
308.7979, 2931.234
309.2800, 2954.917
309.7621, 2977.548
310.2442, 2995.065
310.7263, 3009.625
311.2084, 3023.228
311.6906, 3035.907
312.1727, 3045.549
312.6548, 3051.841
313.1369, 3054.198
313.6190, 3051.760
314.1011, 3039.844
314.5833, 3026.787
315.0654, 3016.829
315.5475, 3009.943
316.0296, 3003.509
316.5117, 2997.635
316.9938, 2991.146
317.4760, 2982.878
317.9580, 2964.089
318.4402, 2951.563
318.9223, 2958.134
319.4044, 2982.140
319.8865, 2993.406
320.3686, 2974.309
320.8507, 2943.705
321.3329, 2916.027
321.8150, 2894.944
322.2971, 2876.646
322.7792, 2861.255
323.2613, 2848.496
323.7434, 2835.943
324.2256, 2823.995
324.7077, 2811.681
325.1898, 2798.239
325.6719, 2779.949
326.1540, 2764.917
326.6361, 2754.943
327.1183, 2749.322
327.6004, 2743.666
328.0825, 2744.534
328.5646, 2740.109
329.0467, 2724.137
329.5288, 2679.177
330.0110, 2648.371
330.4931, 2640.875
330.9752, 2648.537
331.4573, 2642.098
331.9394, 2609.241
332.4215, 2577.689
332.9037, 2560.936
333.3858, 2568.496
333.8679, 2569.331
334.3500, 2559.470
334.8321, 2544.494
335.3142, 2538.656
335.7964, 2547.906
336.2785, 2553.819
336.7606, 2545.203
337.2427, 2515.198
337.7248, 2503.911
338.2069, 2518.158
338.6891, 2543.010
339.1712, 2552.896
339.6533, 2545.260
340.1354, 2534.120
340.6175, 2521.184
341.0996, 2506.411
341.5818, 2508.972
342.0639, 2532.403
342.5460, 2563.884
343.0281, 2587.815
343.5102, 2603.961
343.9923, 2617.869
344.4745, 2631.917
344.9566, 2645.396
345.4387, 2649.582
345.9208, 2641.998
346.4029, 2642.441
346.8850, 2681.239
347.3672, 2750.763
347.8493, 2809.697
348.3314, 2839.896
348.8135, 2854.041
349.2956, 2875.061
349.7777, 2902.750
350.2599, 2935.375
350.7419, 2969.292
351.2241, 3007.342
351.7062, 3057.648
352.1883, 3131.149
352.6704, 3207.741
353.1525, 3259.226
353.6346, 3288.857
354.1168, 3318.676
354.5989, 3363.134
355.0810, 3416.121
355.5631, 3469.529
356.0452, 3520.946
356.5273, 3573.493
357.0095, 3633.380
357.4916, 3697.277
357.9737, 3754.117
358.4558, 3794.074
358.9379, 3828.157
359.4200, 3863.924
359.9022, 3902.151
360.3843, 3943.396
360.8664, 3990.239
361.3485, 4040.282
361.8306, 4088.357
362.3127, 4135.264
362.7949, 4178.322
363.2770, 4217.355
363.7591, 4253.619
364.2412, 4280.587
364.7233, 4294.820
365.2054, 4299.623
365.6876, 4299.015
366.1697, 4287.967
366.6518, 4277.137
367.1339, 4270.026
367.6160, 4267.536
368.0981, 4262.286
368.5803, 4252.020
369.0624, 4240.142
369.5445, 4229.860
370.0266, 4225.824
370.5087, 4216.604
370.9908, 4198.937
371.4730, 4173.714
371.9551, 4148.740
372.4372, 4116.362
372.9193, 4094.059
373.4014, 4101.034
373.8835, 4158.015
374.3657, 4178.625
374.8478, 4140.036
375.3299, 4064.978
375.8120, 4031.353
376.2941, 4049.298
376.7762, 4074.364
377.2584, 4079.388
377.7405, 4062.854
378.2226, 4052.703
378.7047, 4051.306
379.1868, 4054.961
379.6689, 4052.815
380.1511, 4044.769
380.6332, 4050.736
381.1153, 4089.009
381.5974, 4151.732
382.0795, 4200.623
382.5616, 4234.443
383.0438, 4262.888
383.5259, 4297.744
384.0080, 4337.087
384.4901, 4374.146
384.9722, 4405.967
385.4543, 4434.240
385.9364, 4461.432
386.4185, 4487.523
386.9007, 4515.542
387.3828, 4548.945
387.8649, 4585.842
388.3470, 4623.963
388.8291, 4666.187
389.3112, 4705.445
389.7934, 4732.091
390.2755, 4749.024
390.7576, 4768.046
391.2397, 4803.397
391.7218, 4839.112
392.2039, 4861.968
392.6861, 4865.548
393.1682, 4863.438
393.6503, 4853.318
394.1324, 4841.439
394.6145, 4841.034
395.0966, 4868.810
395.5788, 4898.196
396.0609, 4918.074
396.5430, 4925.905
397.0251, 4929.276
397.5072, 4928.302
397.9893, 4923.641
398.4715, 4915.993
398.9536, 4896.936
399.4357, 4884.375
399.9178, 4881.099
400.3999, 4887.167
400.8820, 4902.274
401.3642, 4932.750
401.8463, 4965.933
402.3284, 4991.854
402.8105, 5008.010
403.2926, 5023.166
403.7747, 5038.732
404.2569, 5054.097
404.7390, 5066.779
405.2211, 5076.876
405.7032, 5084.106
406.1853, 5087.605
406.6674, 5087.176
407.1496, 5087.871
407.6317, 5090.618
408.1138, 5093.572
408.5959, 5091.492
409.0780, 5084.605
409.5602, 5082.104
410.0423, 5096.686
410.5244, 5119.525
411.0065, 5119.726
411.4886, 5094.600
411.9707, 5063.412
412.4529, 5045.273
412.9350, 5036.557
413.4171, 5027.945
413.8992, 5014.543
414.3813, 5000.482
414.8634, 4994.795
415.3456, 4995.609
415.8277, 4986.765
416.3098, 4949.084
416.7919, 4899.771
417.2740, 4857.208
417.7561, 4831.976
418.2382, 4806.000
418.7203, 4770.498
419.2025, 4727.143
419.6846, 4681.335
420.1667, 4627.359
420.6488, 4576.970
421.1309, 4537.315
421.6130, 4515.144
422.0952, 4487.913
422.5773, 4454.350
423.0594, 4412.965
423.5415, 4361.278
424.0236, 4282.853
424.5057, 4211.500
424.9879, 4155.049
425.4700, 4114.578
425.9521, 4077.781
426.4342, 4052.865
426.9163, 4023.550
427.3984, 3975.665
427.8806, 3898.981
428.3627, 3828.658
428.8448, 3769.265
429.3269, 3718.511
429.8090, 3668.986
430.2911, 3620.607
430.7733, 3573.768
431.2554, 3529.199
431.7375, 3487.034
432.2196, 3443.273
432.7017, 3396.649
433.1838, 3351.924
433.6660, 3319.237
434.1481, 3296.827
434.6302, 3272.281
435.1123, 3235.320
435.5944, 3194.245
436.0765, 3169.103
436.5587, 3159.823
437.0408, 3151.108
437.5229, 3126.691
438.0050, 3094.991
438.4871, 3069.774
438.9692, 3055.894
439.4514, 3048.336
439.9335, 3046.054
440.4156, 3047.451
440.8977, 3047.266
441.3798, 3038.903
441.8619, 3030.694
442.3441, 3028.573
442.8262, 3034.673
443.3083, 3042.868
443.7904, 3048.766
444.2725, 3056.165
444.7546, 3070.312
445.2368, 3098.464
445.7189, 3127.179
446.2010, 3154.097
446.6831, 3179.510
447.1652, 3198.995
447.6473, 3201.746
448.1295, 3207.573
448.6116, 3231.565
449.0937, 3285.584
449.5758, 3333.590
450.0579, 3371.637
450.5400, 3402.027
451.0221, 3430.087
451.5042, 3454.244
451.9864, 3480.279
452.4685, 3511.884
452.9506, 3549.064
453.4327, 3585.375
453.9148, 3620.585
454.3969, 3655.167
454.8791, 3689.751
455.3612, 3724.159
455.8433, 3755.727
456.3254, 3780.166
456.8075, 3803.131
457.2896, 3838.531
457.7718, 3885.418
458.2539, 3926.368
458.7360, 3940.351
459.2181, 3943.099
459.7002, 3959.273
460.1823, 4000.342
460.6645, 4041.642
461.1466, 4065.582
461.6287, 4076.328
462.1108, 4082.879
462.5929, 4092.022
463.0750, 4095.679
463.5572, 4085.718
464.0393, 4058.908
464.5214, 4039.899
465.0035, 4048.029
465.4856, 4060.659
465.9677, 4057.374
466.4499, 4012.843
466.9320, 3979.518
467.4141, 3970.923
467.8962, 3980.145
468.3783, 3971.318
468.8604, 3936.210
469.3426, 3894.601
469.8247, 3854.502
470.3068, 3816.620
470.7889, 3778.768
471.2710, 3741.704
471.7531, 3703.573
472.2353, 3660.072
472.7174, 3610.321
473.1995, 3563.967
473.6816, 3524.720
474.1637, 3490.544
474.6458, 3452.849
475.1280, 3411.306
475.6101, 3378.249
476.0922, 3373.769
476.5743, 3385.207
477.0564, 3381.729
477.5385, 3355.579
478.0207, 3317.984
478.5028, 3270.488
478.9849, 3219.472
479.4670, 3180.828
479.9491, 3171.115
480.4312, 3170.462
480.9134, 3166.318
481.3955, 3157.776
481.8776, 3145.231
482.3597, 3126.275
482.8418, 3104.778
483.3239, 3084.209
483.8060, 3062.723
484.2881, 3044.951
484.7703, 3036.207
485.2524, 3033.009
485.7345, 3021.787
486.2166, 2996.325
486.6987, 2969.889
487.1808, 2947.629
487.6630, 2931.095
488.1451, 2911.953
488.6272, 2888.231
489.1093, 2864.734
489.5914, 2849.119
490.0735, 2843.357
490.5557, 2831.837
491.0378, 2808.535
491.5199, 2777.977
492.0020, 2755.641
492.4841, 2741.821
492.9662, 2728.430
493.4484, 2709.512
493.9305, 2686.589
494.4126, 2663.326
494.8947, 2639.407
495.3768, 2617.537
495.8589, 2602.198
496.3411, 2590.618
496.8232, 2576.916
497.3053, 2557.753
497.7874, 2536.216
498.2695, 2510.744
498.7516, 2482.716
499.2338, 2463.667
499.7159, 2465.844
500.1980, 2474.238
500.6801, 2478.534
501.1622, 2474.968
501.6443, 2470.928
502.1265, 2465.205
502.6086, 2459.987
503.0907, 2459.745
503.5728, 2473.067
504.0549, 2479.130
504.5370, 2469.670
505.0192, 2444.549
505.5013, 2428.851
505.9834, 2424.032
506.4655, 2425.559
506.9476, 2432.323
507.4297, 2444.962
507.9119, 2451.479
508.3940, 2449.695
508.8761, 2442.392
509.3582, 2434.560
509.8403, 2425.855
510.3224, 2413.641
510.8046, 2388.206
511.2867, 2361.470
511.7688, 2358.652
512.2509, 2380.026
512.7330, 2397.570
513.2151, 2384.781
513.6973, 2358.305
514.1794, 2338.478
514.6615, 2335.624
515.1436, 2332.437
515.6257, 2319.974
516.1078, 2300.890
516.5900, 2281.999
517.0721, 2267.556
517.5542, 2251.043
518.0363, 2228.200
518.5184, 2196.560
519.0005, 2172.088
519.4827, 2157.900
519.9648, 2148.275
520.4469, 2140.504
520.9290, 2139.001
521.4111, 2125.540
521.8932, 2092.179
522.3754, 2050.271
522.8575, 2031.556
523.3396, 2038.867
523.8217, 2044.960
524.3038, 2034.401
524.7859, 2011.601
525.2681, 1995.502
525.7502, 1986.282
526.2323, 1980.739
526.7144, 1978.211
527.1965, 1976.852
527.6786, 1972.526
528.1608, 1962.836
528.6429, 1952.452
529.1250, 1942.026
529.6071, 1933.845
530.0892, 1933.675
530.5714, 1955.788
531.0535, 1976.910
531.5356, 1982.276
532.0176, 1969.482
532.4998, 1958.724
532.9819, 1950.344
533.4640, 1947.842
533.9461, 1954.226
534.4282, 1978.578
534.9103, 1997.622
535.3925, 2010.832
535.8746, 2018.131
536.3567, 2018.069
536.8388, 2007.765
537.3209, 1998.910
537.8030, 1994.357
538.2852, 1994.500
538.7673, 2005.737
539.2494, 2029.509
539.7315, 2054.356
540.2136, 2070.297
540.6957, 2078.895
541.1779, 2084.475
541.6600, 2086.577
542.1421, 2089.213
542.6242, 2097.149
543.1063, 2109.089
543.5884, 2121.944
544.0706, 2136.791
544.5527, 2150.052
545.0348, 2158.249
545.5169, 2161.605
545.9990, 2165.875
546.4811, 2174.860
546.9633, 2184.249
547.4454, 2190.813
547.9275, 2187.855
548.4096, 2192.571
548.8917, 2210.755
549.3738, 2234.294
549.8560, 2251.321
550.3381, 2261.314
550.8202, 2265.546
551.3023, 2261.985
551.7844, 2252.702
552.2665, 2250.602
552.7487, 2256.714
553.2308, 2263.469
553.7129, 2266.574
554.1950, 2266.025
554.6771, 2261.091
555.1592, 2251.135
555.6414, 2239.601
556.1235, 2232.336
556.6056, 2226.070
557.0877, 2214.156
557.5698, 2188.724
558.0519, 2162.086
558.5341, 2140.998
559.0162, 2125.409
559.4983, 2115.859
559.9804, 2126.202
560.4625, 2131.232
560.9446, 2114.534
561.4268, 2065.990
561.9089, 2028.698
562.3910, 2013.203
562.8731, 2004.342
563.3552, 1989.290
563.8373, 1966.690
564.3195, 1940.980
564.8016, 1911.731
565.2837, 1880.460
565.7658, 1851.377
566.2479, 1824.243
566.7300, 1800.148
567.2122, 1781.256
567.6943, 1765.954
568.1764, 1747.318
568.6585, 1725.135
569.1406, 1705.909
569.6227, 1699.367
570.1049, 1697.870
570.5870, 1688.740
571.0691, 1667.264
571.5512, 1643.757
572.0333, 1622.389
572.5154, 1604.000
572.9976, 1590.429
573.4797, 1588.951
573.9618, 1585.470
574.4439, 1574.297
574.9260, 1555.623
575.4081, 1537.833
575.8903, 1518.264
576.3724, 1502.525
576.8545, 1494.571
577.3366, 1497.846
577.8187, 1494.450
578.3008, 1481.826
578.7830, 1467.254
579.2651, 1459.293
579.7472, 1457.860
580.2293, 1460.778
580.7114, 1470.862
581.1935, 1480.423
581.6757, 1470.347
582.1578, 1445.161
582.6399, 1426.159
583.1220, 1433.375
583.6041, 1448.021
584.0862, 1450.956
584.5684, 1441.137
585.0505, 1429.531
585.5326, 1419.689
586.0147, 1411.495
586.4968, 1404.991
586.9789, 1402.275
587.4611, 1398.078
587.9432, 1388.973
588.4253, 1378.940
588.9074, 1374.106
589.3895, 1375.821
589.8716, 1380.543
590.3538, 1389.990
590.8359, 1401.838
591.3180, 1402.882
591.8001, 1391.874
592.2822, 1378.125
592.7643, 1363.992
593.2465, 1351.479
593.7286, 1351.740
594.2107, 1366.945
594.6928, 1381.493
595.1749, 1377.128
595.6570, 1363.165
596.1392, 1355.111
596.6213, 1361.047
597.1034, 1368.479
597.5854, 1369.772
598.0676, 1367.233
598.5497, 1366.033
599.0318, 1372.287
599.5139, 1375.558
599.9960, 1369.516
600.4781, 1353.867
600.9603, 1346.371
601.4424, 1350.321
601.9245, 1357.898
602.4066, 1365.188
602.8887, 1372.553
603.3708, 1377.289
603.8530, 1379.233
604.3351, 1378.686
604.8172, 1374.769
605.2993, 1368.119
605.7814, 1363.036
606.2635, 1361.459
606.7457, 1360.926
607.2278, 1357.582
607.7099, 1352.414
608.1920, 1348.688
608.6741, 1347.362
609.1563, 1348.603
609.6384, 1353.590
610.1205, 1362.369
610.6026, 1370.057
611.0847, 1377.501
611.5668, 1381.927
612.0490, 1381.145
612.5311, 1371.696
613.0132, 1364.237
613.4953, 1359.260
613.9774, 1355.739
614.4595, 1351.659
614.9417, 1346.273
615.4238, 1345.016
615.9059, 1350.322
616.3880, 1359.177
616.8701, 1365.342
617.3522, 1368.867
617.8344, 1370.492
618.3165, 1368.395
618.7986, 1365.784
619.2807, 1367.638
619.7628, 1373.950
620.2449, 1380.359
620.7271, 1384.963
621.2092, 1388.138
621.6913, 1389.968
622.1734, 1389.533
622.6555, 1389.838
623.1376, 1393.124
623.6198, 1396.707
624.1019, 1397.096
624.5840, 1391.819
625.0661, 1388.571
625.5482, 1390.539
626.0303, 1394.350
626.5125, 1387.129
626.9946, 1367.265
627.4767, 1352.344
627.9588, 1352.990
628.4409, 1364.811
628.9230, 1377.241
629.4052, 1389.996
629.8873, 1397.752
630.3694, 1391.107
630.8515, 1379.615
631.3336, 1374.747
631.8157, 1379.607
632.2979, 1386.297
632.7800, 1393.382
633.2621, 1399.476
633.7442, 1402.832
634.2263, 1402.060
634.7084, 1399.848
635.1906, 1394.693
635.6727, 1388.693
636.1548, 1388.046
636.6369, 1395.772
637.1190, 1399.782
637.6011, 1392.923
638.0833, 1378.902
638.5654, 1377.409
639.0475, 1388.681
639.5296, 1403.069
640.0117, 1417.228
640.4938, 1428.596
640.9760, 1430.832
641.4581, 1422.378
641.9402, 1414.110
642.4223, 1416.992
642.9044, 1422.709
643.3865, 1421.702
643.8687, 1400.921
644.3508, 1388.361
644.8329, 1397.927
645.3150, 1418.690
645.7971, 1429.148
646.2792, 1424.453
646.7614, 1417.658
647.2435, 1409.889
647.7256, 1402.284
648.2077, 1400.993
648.6898, 1406.775
649.1719, 1413.254
649.6541, 1417.271
650.1362, 1419.231
650.6183, 1419.402
651.1004, 1417.792
651.5825, 1418.100
652.0646, 1426.570
652.5468, 1437.123
653.0289, 1442.192
653.5110, 1438.633
653.9931, 1434.621
654.4752, 1432.999
654.9573, 1432.884
655.4395, 1433.174
655.9216, 1434.128
656.4037, 1435.059
656.8858, 1436.715
657.3679, 1438.043
657.8500, 1435.347
658.3322, 1427.099
658.8143, 1421.684
659.2964, 1423.618
659.7785, 1430.316
660.2606, 1431.601
660.7427, 1427.806
661.2249, 1425.759
661.7070, 1433.300
662.1891, 1443.855
662.6712, 1447.376
663.1533, 1442.393
663.6354, 1439.790
664.1175, 1449.957
664.5996, 1462.691
665.0817, 1469.019
665.5638, 1462.772
666.0460, 1457.756
666.5281, 1455.103
667.0102, 1453.908
667.4923, 1452.470
667.9744, 1449.480
668.4565, 1451.344
668.9387, 1461.697
669.4208, 1475.135
669.9029, 1476.372
670.3850, 1466.647
670.8671, 1460.463
671.3492, 1471.143
671.8314, 1486.521
672.3135, 1487.847
672.7956, 1476.950
673.2777, 1465.797
673.7598, 1459.216
674.2419, 1456.263
674.7241, 1457.810
675.2062, 1465.590
675.6883, 1469.176
676.1704, 1461.910
676.6525, 1454.050
677.1346, 1453.034
677.6168, 1462.230
678.0989, 1467.528
678.5810, 1467.237
679.0631, 1465.030
679.5452, 1465.185
680.0273, 1467.820
680.5095, 1474.286
680.9916, 1486.919
681.4737, 1500.239
681.9558, 1507.356
682.4379, 1509.517
682.9200, 1510.199
683.4022, 1511.037
683.8843, 1510.795
684.3664, 1507.652
684.8485, 1502.253
685.3306, 1499.138
685.8127, 1501.593
686.2949, 1504.035
686.7770, 1504.272
687.2591, 1502.040
687.7412, 1501.467
688.2233, 1502.865
688.7054, 1504.951
689.1876, 1506.600
689.6697, 1507.999
690.1518, 1509.906
690.6339, 1512.248
691.1160, 1516.088
691.5981, 1525.439
692.0803, 1536.143
692.5624, 1541.746
693.0445, 1539.475
693.5266, 1533.739
694.0087, 1521.594
694.4908, 1508.328
694.9730, 1502.568
695.4551, 1507.935
695.9372, 1518.416
696.4193, 1536.865
696.9014, 1559.066
697.3835, 1571.276
697.8657, 1572.510
698.3478, 1569.061
698.8299, 1560.674
699.3120, 1550.416
699.7941, 1549.170
700.2762, 1556.141
700.7584, 1563.511
701.2405, 1564.276
701.7226, 1563.804
702.2047, 1568.596
702.6868, 1579.507
703.1689, 1588.663
703.6511, 1593.364
704.1332, 1595.091
704.6153, 1593.577
705.0974, 1582.396
705.5795, 1585.086
706.0616, 1610.869
706.5438, 1639.199
707.0259, 1645.254
707.5080, 1628.183
707.9901, 1615.240
708.4722, 1611.105
708.9543, 1610.892
709.4365, 1607.111
709.9186, 1601.593
710.4007, 1599.337
710.8828, 1603.079
711.3649, 1609.602
711.8470, 1616.612
712.3292, 1624.728
712.8113, 1635.719
713.2934, 1658.743
713.7755, 1674.910
714.2576, 1675.702
714.7397, 1664.150
715.2219, 1659.123
715.7040, 1659.953
716.1861, 1669.654
716.6682, 1696.797
717.1503, 1735.571
717.6324, 1749.438
718.1146, 1738.208
718.5967, 1724.665
719.0788, 1726.465
719.5609, 1736.257
720.0430, 1745.409
720.5251, 1752.950
721.0073, 1759.278
721.4894, 1761.867
721.9715, 1764.900
722.4536, 1772.188
722.9357, 1789.584
723.4178, 1800.203
723.9000, 1798.186
724.3821, 1795.381
724.8642, 1808.958
725.3463, 1840.997
725.8284, 1862.470
726.3105, 1866.090
726.7927, 1863.508
727.2748, 1870.142
727.7569, 1884.805
728.2390, 1904.431
728.7211, 1934.680
729.2032, 1961.491
729.6853, 1970.391
730.1674, 1968.331
730.6495, 1972.550
731.1317, 1994.224
731.6138, 2015.531
732.0959, 2032.565
732.5780, 2045.548
733.0601, 2054.478
733.5422, 2057.072
734.0244, 2063.259
734.5065, 2078.674
734.9886, 2101.430
735.4707, 2124.366
735.9528, 2147.446
736.4349, 2169.969
736.9171, 2191.258
737.3992, 2211.912
737.8813, 2230.233
738.3634, 2245.914
738.8455, 2268.754
739.3276, 2310.656
739.8098, 2355.397
740.2919, 2390.983
740.7740, 2412.388
741.2561, 2439.939
741.7382, 2475.978
742.2203, 2514.043
742.7025, 2544.727
743.1846, 2568.880
743.6667, 2605.043
744.1488, 2657.702
744.6309, 2712.864
745.1130, 2747.455
745.5952, 2773.404
746.0773, 2811.740
746.5594, 2874.982
747.0415, 2940.449
747.5236, 2999.547
748.0057, 3054.046
748.4879, 3105.692
748.9700, 3148.453
749.4521, 3198.833
749.9342, 3260.658
750.4163, 3329.937
750.8984, 3397.294
751.3806, 3462.054
751.8627, 3527.054
752.3448, 3594.135
752.8269, 3660.551
753.3090, 3713.498
753.7911, 3758.468
754.2733, 3812.570
754.7554, 3896.817
755.2375, 3982.916
755.7196, 4056.770
756.2017, 4117.581
756.6838, 4168.899
757.1660, 4196.261
757.6481, 4229.869
758.1302, 4280.499
758.6123, 4347.122
759.0944, 4415.738
759.5765, 4487.580
760.0587, 4551.713
760.5408, 4592.830
761.0229, 4620.777
761.5050, 4665.946
761.9871, 4728.733
762.4692, 4790.699
762.9514, 4843.990
763.4335, 4887.493
763.9156, 4916.261
764.3977, 4924.847
764.8798, 4941.259
765.3619, 4978.249
765.8441, 5018.291
766.3262, 5049.809
766.8083, 5069.815
767.2904, 5094.197
767.7725, 5123.691
768.2546, 5155.748
768.7368, 5188.829
769.2189, 5221.686
769.7010, 5248.846
770.1831, 5268.084
770.6652, 5287.309
771.1473, 5316.408
771.6295, 5347.964
772.1116, 5372.469
772.5937, 5382.699
773.0758, 5393.306
773.5579, 5409.132
774.0400, 5424.809
774.5222, 5432.352
775.0043, 5428.847
775.4864, 5430.399
775.9685, 5442.463
776.4506, 5455.364
776.9327, 5448.475
777.4149, 5427.434
777.8970, 5412.975
778.3791, 5414.276
778.8612, 5421.976
779.3433, 5433.235
779.8254, 5444.875
780.3076, 5450.422
780.7897, 5443.691
781.2718, 5435.665
781.7539, 5425.018
782.2360, 5415.363
782.7181, 5418.026
783.2003, 5435.088
783.6824, 5454.723
784.1645, 5471.062
784.6466, 5489.185
785.1287, 5524.979
785.6108, 5574.470
786.0930, 5620.513
786.5751, 5641.460
787.0572, 5665.921
787.5393, 5723.962
788.0214, 5807.589
788.5035, 5876.013
788.9857, 5896.697
789.4678, 5925.772
789.9499, 5982.865
790.4320, 6064.358
790.9141, 6142.301
791.3962, 6214.357
791.8784, 6289.060
792.3605, 6370.049
792.8426, 6456.225
793.3247, 6548.126
793.8068, 6644.389
794.2889, 6740.641
794.7711, 6831.276
795.2531, 6921.903
795.7352, 7017.708
796.2173, 7118.896
796.6995, 7216.751
797.1816, 7304.846
797.6637, 7394.928
798.1458, 7495.779
798.6279, 7607.842
799.1100, 7706.817
799.5922, 7791.904
800.0743, 7872.600
800.5564, 7956.255
801.0385, 8039.644
801.5206, 8113.617
802.0027, 8177.732
802.4849, 8247.600
802.9670, 8343.920
803.4491, 8440.894
803.9312, 8518.545
804.4133, 8567.672
804.8954, 8623.595
805.3776, 8687.447
805.8597, 8756.487
806.3418, 8831.844
806.8239, 8912.696
807.3060, 8980.959
807.7881, 9035.487
808.2703, 9083.657
808.7524, 9123.267
809.2345, 9164.518
809.7166, 9227.101
810.1987, 9318.033
810.6808, 9399.021
811.1630, 9444.438
811.6451, 9479.602
812.1272, 9524.195
812.6093, 9578.688
813.0914, 9642.177
813.5735, 9714.618
814.0557, 9796.510
814.5378, 9890.895
815.0199, 9996.028
815.5020, 10096.79
815.9841, 10191.60
816.4662, 10286.72
816.9484, 10383.30
817.4305, 10486.22
817.9126, 10597.83
818.3947, 10718.14
818.8768, 10852.78
819.3589, 11005.48
819.8411, 11170.27
820.3232, 11343.19
820.8053, 11525.35
821.2874, 11712.54
821.7695, 11902.67
822.2516, 12103.80
822.7338, 12323.01
823.2159, 12563.08
823.6980, 12824.57
824.1801, 13107.99
824.6622, 13422.49
825.1443, 13796.45
825.6265, 14196.97
826.1086, 14589.97
826.5907, 14956.03
827.0728, 15344.75
827.5549, 15755.44
828.0370, 16195.23
828.5192, 16676.58
829.0013, 17205.28
829.4834, 17739.75
829.9655, 18282.96
830.4476, 18832.02
830.9297, 19389.09
831.4119, 19956.55
831.8940, 20545.44
832.3761, 21181.19
832.8582, 21791.87
833.3403, 22303.60
833.8224, 22801.64
834.3046, 23367.12
834.7867, 24046.71
835.2688, 24659.60
835.7509, 25200.07
836.2330, 25686.70
836.7151, 26143.17
837.1973, 26562.97
837.6794, 26952.36
838.1615, 27314.71
838.6436, 27617.74
839.1257, 27822.97
839.6078, 27961.72
840.0900, 28070.15
840.5721, 28178.03
841.0542, 28203.53
841.5363, 28142.08
842.0184, 28001.47
842.5005, 27776.70
842.9827, 27463.94
843.4648, 27144.58
843.9469, 26831.90
844.4290, 26475.67
844.9111, 26006.32
845.3932, 25466.23
845.8754, 24918.42
846.3575, 24369.15
846.8396, 23837.35
847.3217, 23365.39
847.8038, 22890.40
848.2859, 22354.06
848.7681, 21720.16
849.2502, 21130.66
849.7323, 20583.90
850.2144, 20085.82
850.6965, 19654.27
851.1786, 19277.64
851.6608, 18909.66
852.1429, 18550.62
852.6250, 18209.92
853.1071, 17898.74
853.5892, 17608.15
854.0714, 17333.76
854.5535, 17073.90
855.0356, 16827.63
855.5177, 16581.96
855.9998, 16364.01
856.4819, 16197.27
856.9641, 16082.67
857.4462, 15948.65
857.9283, 15788.63
858.4104, 15648.06
858.8925, 15578.79
859.3746, 15545.90
859.8568, 15505.78
860.3389, 15452.83
860.8210, 15392.90
861.3030, 15314.63
861.7852, 15241.08
862.2673, 15182.70
862.7494, 15139.37
863.2315, 15120.80
863.7136, 15133.27
864.1957, 15145.69
864.6779, 15134.96
865.1600, 15106.48
865.6421, 15081.86
866.1242, 15059.88
866.6063, 15005.50
867.0884, 14877.73
867.5706, 14726.31
868.0527, 14587.18
868.5348, 14465.96
869.0169, 14317.41
869.4990, 14131.86
869.9811, 13939.56
870.4633, 13752.70
870.9454, 13570.12
871.4275, 13390.22
871.9096, 13212.07
872.3917, 13021.97
872.8738, 12803.28
873.3560, 12576.84
873.8381, 12359.39
874.3202, 12150.28
874.8023, 11946.96
875.2844, 11737.74
875.7665, 11542.76
876.2487, 11371.67
876.7308, 11219.69
877.2129, 11059.24
877.6950, 10889.87
878.1771, 10727.50
878.6592, 10578.69
879.1414, 10444.21
879.6235, 10338.58
880.1056, 10250.26
880.5877, 10144.46
881.0698, 9971.317
881.5519, 9818.394
882.0341, 9726.781
882.5162, 9674.783
882.9983, 9608.257
883.4804, 9525.756
883.9625, 9434.311
884.4446, 9330.909
884.9268, 9227.393
885.4089, 9155.100
885.8910, 9100.715
886.3731, 9024.825
886.8552, 8888.625
887.3373, 8757.920
887.8195, 8667.489
888.3016, 8600.730
888.7837, 8527.793
889.2658, 8454.175
889.7479, 8353.590
890.2300, 8212.842
890.7122, 8067.938
891.1943, 7993.278
891.6764, 7964.358
892.1585, 7888.666
892.6406, 7732.513
893.1227, 7566.535
893.6049, 7442.620
894.0870, 7339.666
894.5691, 7238.532
895.0512, 7147.076
895.5333, 7032.724
896.0154, 6885.272
896.4976, 6732.334
896.9797, 6607.917
897.4618, 6505.889
897.9439, 6386.468
898.4260, 6243.225
898.9081, 6105.589
899.3903, 6001.704
899.8724, 5911.656
900.3545, 5816.739
900.8366, 5715.421
901.3187, 5603.405
901.8008, 5469.821
902.2830, 5337.792
902.7651, 5220.743
903.2472, 5118.292
903.7293, 5005.128
904.2114, 4879.748
904.6935, 4756.830
905.1757, 4650.363
905.6578, 4547.102
906.1399, 4430.424
906.6220, 4302.127
907.1041, 4184.321
907.5862, 4092.941
908.0684, 4000.879
908.5505, 3897.113
909.0326, 3785.911
909.5147, 3684.306
909.9968, 3591.647
910.4789, 3503.425
910.9611, 3417.137
911.4432, 3334.429
911.9253, 3257.711
912.4074, 3186.663
912.8895, 3118.619
913.3716, 3058.550
913.8538, 2994.141
914.3359, 2917.923
914.8180, 2837.814
915.3001, 2766.146
915.7822, 2702.198
916.2643, 2655.844
916.7465, 2633.197
917.2286, 2618.445
917.7107, 2594.449
918.1928, 2563.159
918.6749, 2527.034
919.1570, 2482.420
919.6392, 2442.129
920.1213, 2417.412
920.6034, 2394.349
921.0855, 2359.304
921.5676, 2309.315
922.0497, 2264.359
922.5319, 2224.872
923.0140, 2191.921
923.4961, 2170.071
923.9782, 2154.505
924.4603, 2135.358
924.9424, 2111.090
925.4246, 2094.746
925.9067, 2104.452
926.3888, 2112.624
926.8708, 2102.650
927.3530, 2074.190
927.8351, 2048.787
928.3172, 2026.012
928.7993, 2007.759
929.2814, 1996.479
929.7635, 1989.595
930.2457, 1983.711
930.7278, 1978.317
931.2099, 1971.661
931.6920, 1961.235
932.1741, 1951.114
932.6563, 1944.116
933.1384, 1938.392
933.6205, 1926.965
934.1026, 1907.325
934.5847, 1897.519
935.0668, 1907.362
935.5490, 1920.021
936.0311, 1903.213
936.5132, 1870.024
936.9953, 1848.732
937.4774, 1856.957
937.9595, 1864.596
938.4417, 1861.675
938.9238, 1852.874
939.4059, 1841.240
939.8880, 1824.108
940.3701, 1821.429
940.8522, 1838.016
941.3344, 1853.497
941.8165, 1840.075
942.2986, 1813.314
942.7807, 1799.776
943.2628, 1803.934
943.7449, 1808.520
944.2271, 1812.098
944.7092, 1808.697
945.1913, 1791.414
945.6734, 1759.892
946.1555, 1750.644
946.6376, 1766.444
947.1198, 1778.557
947.6019, 1755.756
948.0840, 1726.492
948.5661, 1748.357
949.0482, 1805.692
949.5303, 1837.458
950.0125, 1798.245
950.4946, 1752.912
950.9767, 1712.520
951.4588, 1682.370
951.9409, 1682.746
952.4230, 1716.489
952.9052, 1732.273
953.3873, 1711.539
953.8694, 1680.667
954.3515, 1673.707
954.8336, 1678.442
955.3157, 1674.518
955.7979, 1645.656
956.2800, 1629.024
956.7621, 1638.185
957.2442, 1654.922
957.7263, 1665.618
958.2084, 1670.325
958.6906, 1664.571
959.1727, 1647.557
959.6548, 1629.268
960.1369, 1614.960
960.6190, 1606.205
961.1011, 1608.323
961.5833, 1621.524
962.0654, 1627.517
962.5475, 1619.750
963.0296, 1608.091
963.5117, 1593.081
963.9938, 1577.428
964.4760, 1576.671
964.9581, 1589.446
965.4402, 1601.523
965.9223, 1606.849
966.4044, 1607.888
966.8865, 1603.852
967.3687, 1597.390
967.8508, 1594.308
968.3329, 1601.568
968.8150, 1601.388
969.2971, 1588.539
969.7792, 1573.464
970.2614, 1572.060
970.7435, 1581.432
971.2256, 1589.832
971.7077, 1595.845
972.1898, 1596.539
972.6719, 1580.912
973.1541, 1565.025
973.6362, 1565.525
974.1183, 1589.179
974.6004, 1597.090
975.0825, 1584.615
975.5646, 1569.246
976.0468, 1559.860
976.5289, 1556.129
977.0110, 1561.217
977.4931, 1572.556
977.9752, 1577.226
978.4573, 1557.902
978.9395, 1541.377
979.4216, 1545.592
979.9037, 1561.437
980.3858, 1563.704
980.8679, 1548.352
981.3500, 1541.576
981.8322, 1552.167
982.3143, 1565.327
982.7964, 1554.646
983.2785, 1532.962
983.7606, 1525.834
984.2427, 1547.349
984.7249, 1560.341
985.2070, 1542.901
985.6891, 1521.659
986.1712, 1515.709
986.6533, 1526.825
987.1354, 1529.319
987.6176, 1522.691
988.0997, 1517.709
988.5818, 1528.239
989.0639, 1540.458
989.5460, 1536.266
990.0281, 1518.223
990.5103, 1506.534
990.9924, 1511.368
991.4745, 1515.475
991.9566, 1515.109
992.4387, 1511.684
992.9208, 1506.799
993.4029, 1501.322
993.8850, 1502.031
994.3671, 1515.217
994.8492, 1524.838
995.3314, 1512.184
995.8135, 1492.471
996.2956, 1484.622
996.7777, 1498.325
997.2598, 1503.060
997.7419, 1496.097
998.2241, 1487.723
998.7062, 1487.416
999.1883, 1492.381
999.6704, 1496.140
1000.153, 1498.417
1000.635, 1500.200
1001.117, 1505.124
1001.599, 1506.403
1002.081, 1497.158
1002.563, 1481.613
1003.045, 1474.599
1003.527, 1476.508
1004.009, 1484.256
1004.492, 1500.646
1004.974, 1514.777
1005.456, 1507.873
1005.938, 1490.085
1006.420, 1477.841
1006.902, 1477.402
1007.384, 1480.099
1007.866, 1488.052
1008.349, 1494.543
1008.831, 1492.763
1009.313, 1483.360
1009.795, 1476.607
1010.277, 1472.795
1010.759, 1469.691
1011.241, 1463.047
1011.723, 1458.715
1012.205, 1463.796
1012.688, 1476.816
1013.170, 1483.190
1013.652, 1481.216
1014.134, 1475.420
1014.616, 1465.389
1015.098, 1454.745
1015.580, 1452.621
1016.062, 1455.354
1016.544, 1452.297
1017.027, 1434.239
1017.509, 1423.976
1017.991, 1442.882
1018.473, 1465.011
1018.955, 1465.405
1019.437, 1437.924
1019.919, 1432.554
1020.401, 1451.050
1020.884, 1471.342
1021.366, 1478.134
1021.848, 1476.061
1022.330, 1466.570
1022.812, 1451.665
1023.294, 1441.436
1023.776, 1436.590
1024.258, 1440.405
1024.740, 1458.583
1025.223, 1480.131
1025.705, 1479.009
1026.187, 1460.178
1026.669, 1445.775
1027.151, 1442.794
1027.633, 1440.495
1028.115, 1423.672
1028.597, 1409.665
1029.079, 1418.568
1029.562, 1458.014
1030.044, 1476.412
1030.526, 1470.822
1031.008, 1460.154
1031.490, 1459.582
1031.972, 1461.112
1032.454, 1445.620
1032.936, 1419.602
1033.419, 1407.340
1033.901, 1434.516
1034.383, 1454.995
1034.865, 1457.844
1035.347, 1450.175
1035.829, 1443.423
1036.311, 1437.547
1036.793, 1433.414
1037.276, 1431.501
1037.758, 1429.050
1038.240, 1421.614
1038.722, 1414.096
1039.204, 1411.188
1039.686, 1413.839
1040.168, 1417.252
1040.650, 1422.500
1041.132, 1424.334
1041.615, 1415.862
1042.097, 1405.516
1042.579, 1416.870
1043.061, 1440.855
1043.543, 1452.077
1044.025, 1428.567
1044.507, 1406.393
1044.989, 1391.501
1045.471, 1383.598
1045.954, 1383.973
1046.436, 1392.415
1046.918, 1404.545
1047.400, 1420.533
1047.882, 1429.818
1048.364, 1415.305
1048.846, 1396.969
1049.328, 1392.348
1049.811, 1402.503
1050.293, 1410.560
1050.775, 1418.887
1051.257, 1415.231
1051.739, 1389.054
1052.221, 1358.248
1052.703, 1358.778
1053.185, 1380.040
1053.667, 1399.894
1054.150, 1413.533
1054.632, 1419.965
1055.114, 1416.691
1055.596, 1407.973
1056.078, 1393.891
1056.560, 1374.468
1057.042, 1367.662
1057.524, 1373.388
1058.006, 1380.522
1058.489, 1379.141
1058.971, 1378.571
1059.453, 1388.951
1059.935, 1406.283
1060.417, 1415.305
1060.899, 1414.628
1061.381, 1406.981
1061.863, 1389.932
1062.346, 1374.710
1062.828, 1381.214
1063.310, 1398.831
1063.792, 1408.483
1064.274, 1406.033
1064.756, 1402.332
1065.238, 1401.245
1065.720, 1398.709
1066.203, 1391.325
1066.685, 1380.982
1067.167, 1380.154
1067.649, 1387.374
1068.131, 1392.238
1068.613, 1384.689
1069.095, 1379.877
1069.577, 1392.413
1070.059, 1411.301
1070.542, 1420.306
1071.024, 1417.216
1071.506, 1409.847
1071.988, 1397.422
1072.470, 1387.098
1072.952, 1387.557
1073.434, 1393.000
1073.916, 1398.070
1074.398, 1401.725
1074.881, 1398.631
1075.363, 1376.327
1075.845, 1364.405
1076.327, 1373.787
1076.809, 1391.766
1077.291, 1389.438
1077.773, 1373.443
1078.255, 1368.540
1078.738, 1383.303
1079.220, 1397.597
1079.702, 1402.228
1080.184, 1400.126
1080.666, 1391.699
1081.148, 1376.899
1081.630, 1374.939
1082.112, 1386.126
1082.594, 1394.056
1083.077, 1386.172
1083.559, 1374.686
1084.041, 1372.225
1084.523, 1374.892
1085.005, 1374.869
1085.487, 1367.538
1085.969, 1365.834
1086.451, 1371.511
1086.933, 1379.630
1087.416, 1386.485
1087.898, 1391.665
1088.380, 1396.234
1088.862, 1399.574
1089.344, 1394.997
1089.826, 1363.846
1090.308, 1344.650
1090.790, 1352.016
1091.272, 1375.289
1091.755, 1394.343
1092.237, 1408.003
1092.719, 1406.273
1093.201, 1382.453
1093.683, 1361.991
1094.165, 1367.185
1094.647, 1378.956
1095.129, 1380.721
1095.612, 1371.913
1096.094, 1368.902
1096.576, 1372.461
1097.058, 1372.482
1097.540, 1358.813
1098.022, 1344.645
1098.504, 1347.076
1098.986, 1359.765
1099.469, 1371.357
1099.951, 1382.000
1100.433, 1386.252
1100.915, 1381.750
1101.397, 1376.713
1101.879, 1382.818
1102.361, 1392.709
1102.843, 1385.761
1103.325, 1364.521
1103.807, 1352.911
1104.290, 1375.144
1104.772, 1389.908
1105.254, 1382.435
1105.736, 1365.019
1106.218, 1362.581
1106.700, 1372.151
1107.182, 1377.376
1107.664, 1375.156
1108.147, 1368.751
1108.629, 1356.024
1109.111, 1343.580
1109.593, 1336.299
1110.075, 1333.809
1110.557, 1333.267
1111.039, 1334.627
1111.521, 1339.327
1112.004, 1349.467
1112.486, 1360.394
1112.968, 1370.273
1113.450, 1376.674
1113.932, 1375.265
1114.414, 1359.466
1114.896, 1353.807
1115.378, 1361.499
1115.860, 1368.000
1116.343, 1358.229
1116.825, 1342.645
1117.307, 1341.685
1117.789, 1351.257
1118.271, 1357.140
1118.753, 1349.694
1119.235, 1345.405
1119.717, 1347.651
1120.199, 1351.962
1120.682, 1349.787
1121.164, 1344.993
1121.646, 1354.832
1122.128, 1380.202
1122.610, 1396.762
1123.092, 1386.169
1123.574, 1369.420
1124.056, 1352.070
1124.539, 1337.192
1125.021, 1335.375
1125.503, 1345.273
1125.985, 1352.183
1126.467, 1351.775
1126.949, 1350.945
1127.431, 1354.954
1127.913, 1360.907
1128.396, 1367.087
1128.878, 1373.421
1129.360, 1375.395
1129.842, 1372.478
1130.324, 1372.345
1130.806, 1383.484
1131.288, 1392.099
1131.770, 1377.472
1132.252, 1351.859
1132.734, 1333.929
1133.217, 1326.067
1133.699, 1328.858
1134.181, 1345.771
1134.663, 1360.789
1135.145, 1358.670
1135.627, 1348.220
1136.109, 1342.455
1136.591, 1341.111
1137.074, 1342.301
1137.556, 1347.382
1138.038, 1352.603
1138.520, 1358.497
1139.002, 1362.804
1139.484, 1360.792
1139.966, 1355.219
1140.448, 1353.444
1140.931, 1356.007
1141.413, 1359.960
1141.895, 1367.015
1142.377, 1371.706
1142.859, 1373.397
1143.341, 1370.893
1143.823, 1356.041
1144.305, 1333.123
1144.787, 1327.115
1145.270, 1346.257
1145.752, 1364.002
1146.234, 1364.992
1146.716, 1357.519
1147.198, 1342.505
1147.680, 1323.348
1148.162, 1329.670
1148.644, 1359.725
1149.126, 1377.351
1149.609, 1362.100
1150.091, 1343.989
1150.573, 1350.866
1151.055, 1364.389
1151.537, 1362.295
1152.019, 1340.375
1152.501, 1331.155
1152.983, 1335.595
1153.466, 1340.130
1153.948, 1331.210
1154.430, 1322.920
1154.912, 1335.348
1155.394, 1357.045
1155.876, 1362.994
1156.358, 1340.516
1156.840, 1335.834
1157.322, 1354.971
1157.805, 1373.023
1158.287, 1362.957
1158.769, 1342.503
1159.251, 1333.895
1159.733, 1336.313
1160.215, 1341.613
1160.697, 1350.383
1161.179, 1357.894
1161.661, 1364.156
1162.144, 1367.383
1162.626, 1361.941
1163.108, 1353.306
1163.590, 1353.423
1164.072, 1363.184
1164.554, 1365.703
1165.036, 1350.108
1165.518, 1338.000
1166.000, 1336.312
1166.483, 1339.156
1166.965, 1334.919
1167.447, 1326.247
1167.929, 1318.844
1168.411, 1313.598
1168.893, 1312.244
1169.375, 1317.522
1169.857, 1324.572
1170.340, 1332.014
1170.822, 1339.619
1171.304, 1346.303
1171.786, 1352.357
1172.268, 1360.120
1172.750, 1376.071
1173.232, 1379.973
1173.714, 1347.226
1174.197, 1315.058
1174.679, 1308.494
1175.161, 1324.203
1175.643, 1336.802
1176.125, 1346.579
1176.607, 1355.284
1177.089, 1369.335
1177.571, 1375.478
1178.053, 1359.552
1178.536, 1338.734
1179.018, 1329.721
1179.500, 1332.473
1179.982, 1335.976
1180.464, 1340.145
1180.946, 1346.825
1181.428, 1366.927
1181.910, 1379.326
1182.392, 1363.392
1182.875, 1336.113
1183.357, 1324.245
1183.839, 1328.298
1184.321, 1332.239
1184.803, 1334.807
1185.285, 1336.642
1185.767, 1338.861
1186.249, 1339.927
1186.732, 1336.508
1187.214, 1331.496
1187.696, 1333.611
1188.178, 1343.609
1188.660, 1348.649
1189.142, 1345.981
1189.624, 1344.958
1190.106, 1357.851
1190.589, 1372.590
1191.071, 1379.143
1191.553, 1378.145
1192.035, 1376.040
1192.517, 1372.772
1192.999, 1368.673
1193.481, 1363.374
1193.963, 1359.046
1194.445, 1358.397
1194.927, 1359.319
1195.410, 1359.356
1195.892, 1358.409
1196.374, 1361.697
1196.856, 1370.349
1197.338, 1372.733
1197.820, 1362.471
1198.302, 1349.730
1198.784, 1342.152
1199.267, 1340.260
1199.749, 1346.546
1200.231, 1362.503
1200.713, 1374.296
1201.195, 1381.927
1201.677, 1384.435
1202.159, 1378.667
1202.641, 1371.678
1203.124, 1374.620
1203.606, 1380.319
1204.088, 1376.902
1204.570, 1358.954
1205.052, 1349.427
1205.534, 1349.297
1206.016, 1350.690
1206.498, 1345.871
1206.980, 1342.664
1207.463, 1355.530
1207.945, 1375.005
1208.427, 1381.533
1208.909, 1366.706
1209.391, 1360.027
1209.873, 1362.648
1210.355, 1368.893
1210.837, 1378.084
1211.319, 1385.665
1211.802, 1384.395
1212.284, 1377.455
1212.766, 1373.416
1213.248, 1373.836
1213.730, 1374.568
1214.212, 1375.631
1214.694, 1375.329
1215.176, 1370.530
1215.659, 1364.837
1216.141, 1360.820
1216.623, 1359.320
1217.105, 1363.994
1217.587, 1379.854
1218.069, 1382.086
1218.551, 1365.623
1219.033, 1348.436
1219.516, 1352.228
1219.998, 1362.337
1220.480, 1365.016
1220.962, 1359.483
1221.444, 1347.375
1221.926, 1325.489
1222.408, 1310.882
1222.890, 1305.950
1223.372, 1312.018
1223.854, 1343.335
1224.337, 1376.889
1224.819, 1384.796
1225.301, 1367.859
1225.783, 1364.548
1226.265, 1378.917
1226.747, 1389.070
1227.229, 1390.899
1227.711, 1384.566
1228.193, 1359.306
1228.676, 1333.803
1229.158, 1329.640
1229.640, 1347.358
1230.122, 1358.467
1230.604, 1362.128
1231.086, 1365.553
1231.568, 1371.940
1232.050, 1374.540
1232.533, 1357.777
1233.015, 1339.736
1233.497, 1342.386
1233.979, 1365.740
1234.461, 1378.911
1234.943, 1381.153
1235.425, 1386.507
1235.907, 1402.573
1236.390, 1414.586
1236.872, 1403.452
1237.354, 1384.771
1237.836, 1374.389
1238.318, 1372.349
1238.800, 1370.614
1239.282, 1369.162
1239.764, 1370.230
1240.246, 1376.498
1240.729, 1381.270
1241.211, 1373.463
1241.693, 1365.697
1242.175, 1372.529
1242.657, 1393.598
1243.139, 1400.505
1243.621, 1393.965
1244.103, 1387.199
1244.585, 1386.095
1245.068, 1386.053
1245.550, 1380.173
1246.032, 1377.536
1246.514, 1390.422
1246.996, 1417.337
1247.478, 1412.016
1247.960, 1378.706
1248.442, 1358.117
1248.925, 1379.764
1249.407, 1399.852
1249.889, 1389.825
1250.371, 1373.860
1250.853, 1372.300
1251.335, 1383.710
1251.817, 1390.986
1252.299, 1394.896
1252.781, 1400.004
1253.264, 1417.282
1253.746, 1423.083
1254.228, 1398.939
1254.710, 1370.932
1255.192, 1358.806
1255.674, 1360.325
1256.156, 1363.046
1256.638, 1367.337
1257.120, 1374.754
1257.603, 1396.427
1258.085, 1404.997
1258.567, 1386.627
1259.049, 1368.196
1259.531, 1378.277
1260.013, 1405.578
1260.495, 1413.402
1260.977, 1405.875
1261.460, 1399.338
1261.942, 1398.339
1262.424, 1402.401
1262.906, 1413.645
1263.388, 1424.177
1263.870, 1426.390
1264.352, 1423.282
1264.834, 1419.546
1265.317, 1415.769
1265.799, 1413.481
1266.281, 1413.587
1266.763, 1414.746
1267.245, 1417.559
1267.727, 1419.161
1268.209, 1415.734
1268.691, 1410.444
1269.173, 1405.987
1269.656, 1403.452
1270.138, 1406.762
1270.620, 1420.469
1271.102, 1425.339
1271.584, 1419.118
1272.066, 1412.050
1272.548, 1416.140
1273.030, 1420.830
1273.512, 1412.653
1273.995, 1397.332
1274.477, 1389.893
1274.959, 1391.554
1275.441, 1395.593
1275.923, 1401.672
1276.405, 1408.422
1276.887, 1418.233
1277.369, 1424.937
1277.852, 1421.309
1278.334, 1412.991
1278.816, 1409.835
1279.298, 1411.897
1279.780, 1415.211
1280.262, 1419.414
1280.744, 1421.153
1281.226, 1415.276
1281.708, 1409.961
1282.191, 1407.529
1282.673, 1408.987
1283.155, 1420.833
1283.637, 1439.142
1284.119, 1436.544
1284.601, 1413.952
1285.083, 1394.795
1285.565, 1391.628
1286.047, 1393.416
1286.530, 1398.982
1287.012, 1404.860
1287.494, 1407.114
1287.976, 1406.307
1288.458, 1400.777
1288.940, 1392.428
1289.422, 1392.215
1289.904, 1410.761
1290.386, 1427.617
1290.869, 1441.560
1291.351, 1450.836
1291.833, 1451.742
1292.315, 1447.823
1292.797, 1442.210
1293.279, 1436.145
1293.761, 1434.538
1294.243, 1439.399
1294.726, 1442.647
1295.208, 1443.291
##END=



