##NAMES=Arsenic
##RRUFFID=R050653
##IDEAL CHEMISTRY=As
##LOCALITY=Japan
##OWNER=RRUFF
##SOURCE=University of Arizona Mineral Museum
##DESCRIPTION=Gray massive
##STATUS=The identification of this mineral has been confirmed by X-ray diffraction and chemical analysis
##URL=rruff.info/R050653
##MEASURED CHEMISTRY=As
91.54327, 0.0000000E+00
92.02539, 64.00668
92.50751, 64.17538
92.98962, 64.71880
93.47174, 64.97536
93.95386, 65.14553
94.43597, 64.88742
94.91809, 64.09478
95.40021, 62.97409
95.88232, 61.94619
96.36444, 60.95703
96.84655, 60.14150
97.32867, 59.68384
97.81078, 59.43376
98.29290, 59.13651
98.77502, 58.53730
99.25713, 57.50194
99.73925, 56.61949
100.2214, 55.97653
100.7035, 55.38086
101.1856, 54.70525
101.6677, 53.95298
102.1498, 53.23841
102.6320, 52.68067
103.1141, 52.22108
103.5962, 52.15911
104.0783, 52.78231
104.5604, 53.67491
105.0425, 54.45758
105.5247, 55.06596
106.0068, 55.36583
106.4889, 54.99015
106.9710, 53.87331
107.4531, 52.74701
107.9352, 51.97849
108.4173, 51.49963
108.8995, 50.91553
109.3816, 49.92725
109.8637, 48.89404
110.3458, 48.18608
110.8279, 47.86315
111.3100, 47.76895
111.7922, 47.74343
112.2743, 47.80317
112.7564, 47.87988
113.2385, 48.05308
113.7206, 48.19165
114.2027, 48.14932
114.6849, 47.84441
115.1670, 47.36499
115.6491, 47.02777
116.1312, 46.95066
116.6133, 46.89130
117.0954, 46.83232
117.5776, 46.75991
118.0597, 46.66084
118.5418, 46.52553
119.0239, 46.35313
119.5060, 46.14989
119.9881, 45.72017
120.4703, 45.43952
120.9524, 45.58020
121.4345, 46.07073
121.9166, 46.56478
122.3987, 46.74364
122.8808, 46.54235
123.3630, 46.30507
123.8451, 45.92727
124.3272, 45.56519
124.8093, 45.38995
125.2914, 45.44047
125.7735, 45.59586
126.2557, 45.80095
126.7378, 46.03746
127.2199, 46.13667
127.7020, 45.98098
128.1841, 45.62860
128.6662, 45.24111
129.1483, 44.73342
129.6305, 44.34810
130.1126, 44.33415
130.5947, 44.65199
131.0768, 44.94069
131.5589, 44.79952
132.0410, 44.14589
132.5232, 43.74114
133.0053, 43.93158
133.4874, 44.23035
133.9695, 44.41493
134.4516, 44.43616
134.9337, 44.36551
135.4159, 44.30386
135.8980, 44.23626
136.3801, 44.21123
136.8622, 44.21834
137.3443, 44.26636
137.8264, 44.41156
138.3086, 44.66815
138.7907, 44.94055
139.2728, 44.95843
139.7549, 44.37870
140.2370, 43.92804
140.7191, 43.72320
141.2013, 43.66897
141.6834, 43.62054
142.1655, 43.49921
142.6476, 43.33500
143.1297, 43.26394
143.6118, 43.33361
144.0939, 43.42403
144.5761, 43.51443
145.0582, 43.59594
145.5403, 43.62193
146.0224, 43.53420
146.5045, 43.37719
146.9866, 43.28955
147.4688, 43.32338
147.9509, 43.38989
148.4330, 43.39674
148.9151, 43.33296
149.3972, 43.27794
149.8793, 43.22964
150.3615, 43.22873
150.8436, 43.36382
151.3257, 43.77870
151.8078, 44.29387
152.2899, 44.43922
152.7720, 43.92666
153.2542, 43.55527
153.7363, 43.73644
154.2184, 44.23159
154.7005, 44.67580
155.1826, 44.81456
155.6647, 44.68864
156.1469, 44.72059
156.6290, 45.09912
157.1111, 45.46342
157.5932, 45.70335
158.0753, 45.85227
158.5574, 45.99413
159.0396, 46.20083
159.5217, 46.48074
160.0038, 46.74976
160.4859, 47.03423
160.9680, 47.28744
161.4501, 47.46891
161.9323, 47.59035
162.4144, 47.69870
162.8965, 47.83221
163.3786, 47.98117
163.8607, 48.24237
164.3428, 48.58105
164.8250, 49.03996
165.3071, 49.74376
165.7892, 50.69271
166.2713, 51.61115
166.7534, 52.11879
167.2355, 52.13987
167.7177, 52.30175
168.1998, 52.67447
168.6819, 53.22309
169.1640, 53.95626
169.6461, 54.91823
170.1282, 55.90318
170.6104, 56.59364
171.0925, 57.02574
171.5746, 57.53111
172.0567, 58.23802
172.5388, 59.11552
173.0209, 60.09093
173.5031, 61.21157
173.9852, 62.34476
174.4673, 63.38416
174.9494, 64.33482
175.4315, 65.26765
175.9136, 66.22015
176.3958, 67.19384
176.8779, 68.18349
177.3600, 69.23875
177.8421, 70.26628
178.3242, 71.18394
178.8063, 72.00253
179.2885, 72.80786
179.7706, 73.67913
180.2527, 74.61283
180.7348, 75.64259
181.2169, 76.94979
181.6990, 78.22190
182.1812, 79.24702
182.6633, 80.01530
183.1454, 80.69115
183.6275, 81.51907
184.1096, 82.62033
184.5917, 83.61641
185.0738, 84.57237
185.5560, 85.40483
186.0381, 85.99406
186.5202, 86.33192
187.0023, 86.56837
187.4844, 86.96085
187.9665, 87.70142
188.4487, 88.29518
188.9308, 88.72742
189.4129, 89.02524
189.8950, 89.24108
190.3771, 89.38920
190.8592, 89.39000
191.3414, 89.04893
191.8235, 88.09278
192.3056, 87.31463
192.7877, 86.91833
193.2698, 86.71516
193.7519, 86.50437
194.2341, 86.24280
194.7162, 85.84453
195.1983, 85.06860
195.6804, 83.88243
196.1625, 82.60638
196.6446, 81.22916
197.1268, 79.82751
197.6089, 78.58910
198.0910, 77.62098
198.5731, 76.77751
199.0552, 75.83936
199.5373, 74.80492
200.0195, 73.69852
200.5016, 72.45094
200.9837, 71.10394
201.4658, 69.89967
201.9479, 68.97884
202.4300, 68.16069
202.9122, 67.20979
203.3943, 66.09642
203.8764, 65.06290
204.3585, 64.36122
204.8406, 63.98755
205.3227, 63.54738
205.8048, 62.92131
206.2870, 62.21041
206.7691, 61.45150
207.2512, 60.65345
207.7333, 59.89898
208.2154, 59.29063
208.6975, 58.84767
209.1797, 58.43746
209.6618, 58.09678
210.1439, 57.74263
210.6260, 57.31541
211.1081, 56.80983
211.5902, 56.28343
212.0724, 55.79755
212.5545, 55.34182
213.0366, 54.97316
213.5187, 54.72694
214.0008, 54.53733
214.4829, 54.38945
214.9651, 54.27044
215.4472, 54.14333
215.9293, 53.94567
216.4114, 53.61625
216.8935, 53.34340
217.3756, 53.19470
217.8578, 53.04673
218.3399, 52.78808
218.8220, 52.40710
219.3041, 51.99791
219.7862, 51.71008
220.2683, 51.62445
220.7505, 51.51418
221.2326, 51.32642
221.7147, 51.14861
222.1968, 51.08765
222.6789, 51.15508
223.1610, 51.22636
223.6432, 51.11068
224.1253, 50.67616
224.6074, 50.31059
225.0895, 49.94881
225.5716, 49.68824
226.0537, 49.69900
226.5358, 50.00738
227.0180, 50.35279
227.5001, 50.33100
227.9822, 49.74495
228.4643, 49.42895
228.9464, 49.61525
229.4285, 50.01120
229.9107, 50.28489
230.3928, 50.35749
230.8749, 50.42985
231.3570, 50.81350
231.8391, 51.55000
232.3212, 52.13139
232.8034, 52.37320
233.2855, 52.45690
233.7676, 52.61495
234.2497, 52.89734
234.7318, 53.20240
235.2139, 53.37336
235.6961, 53.43155
236.1782, 53.60726
236.6603, 53.98372
237.1424, 54.50448
237.6245, 55.12683
238.1066, 55.88999
238.5888, 56.61495
239.0709, 57.03080
239.5530, 57.24321
240.0351, 57.61498
240.5172, 58.47749
240.9993, 59.53841
241.4815, 60.17826
241.9636, 60.22118
242.4457, 60.21087
242.9278, 60.47865
243.4099, 60.98096
243.8920, 61.68144
244.3742, 62.74586
244.8563, 63.96957
245.3384, 64.86632
245.8205, 65.34709
246.3026, 65.68576
246.7847, 65.98717
247.2668, 66.26817
247.7490, 66.56630
248.2311, 66.96146
248.7132, 67.35368
249.1953, 67.48046
249.6774, 67.24052
250.1595, 66.92683
250.6417, 66.78612
251.1238, 66.62841
251.6059, 66.18903
252.0880, 65.31312
252.5701, 64.12642
253.0522, 62.92006
253.5344, 61.70308
254.0165, 60.45784
254.4986, 59.14530
254.9807, 57.82074
255.4628, 56.54681
255.9449, 55.36498
256.4271, 54.21862
256.9092, 52.93626
257.3913, 51.35865
257.8734, 49.96738
258.3555, 48.84952
258.8376, 47.92812
259.3198, 47.14178
259.8019, 46.47085
260.2840, 45.89750
260.7661, 45.40720
261.2482, 45.11198
261.7303, 44.67720
262.2125, 43.96757
262.6946, 43.17954
263.1767, 42.42402
263.6588, 41.74557
264.1409, 41.21737
264.6230, 41.01245
265.1052, 41.44407
265.5873, 41.57942
266.0694, 41.23334
266.5515, 40.72434
267.0336, 40.25782
267.5157, 39.89229
267.9979, 39.58477
268.4800, 39.26198
268.9621, 38.85060
269.4442, 38.60130
269.9263, 38.62912
270.4084, 38.70129
270.8906, 38.69086
271.3727, 38.56967
271.8548, 38.36066
272.3369, 38.07385
272.8190, 37.64951
273.3011, 37.36146
273.7833, 37.28206
274.2654, 37.25004
274.7475, 37.19340
275.2296, 37.09953
275.7117, 36.97835
276.1938, 36.83400
276.6760, 36.65503
277.1581, 36.52641
277.6402, 36.47637
278.1223, 36.43763
278.6044, 36.39358
279.0865, 36.33524
279.5686, 36.24125
280.0508, 36.08278
280.5329, 35.85626
281.0150, 35.74861
281.4971, 35.85563
281.9792, 35.95789
282.4613, 35.95535
282.9435, 35.88106
283.4256, 35.82446
283.9077, 35.84406
284.3898, 35.93159
284.8719, 36.01410
285.3540, 36.08262
285.8362, 36.15688
286.3183, 36.25997
286.8004, 36.37057
287.2825, 36.46071
287.7646, 36.52094
288.2467, 36.53627
288.7289, 36.44716
289.2110, 36.10574
289.6931, 35.85054
290.1752, 35.81454
290.6573, 35.87554
291.1394, 35.86047
291.6216, 35.70117
292.1037, 35.45317
292.5858, 35.21055
293.0679, 34.85973
293.5500, 34.73895
294.0321, 35.04527
294.5143, 35.52808
294.9964, 35.96036
295.4785, 36.28076
295.9606, 36.43538
296.4427, 36.30845
296.9248, 35.74102
297.4070, 35.37782
297.8891, 35.38928
298.3712, 35.52487
298.8533, 35.57538
299.3354, 35.50690
299.8175, 35.38177
300.2997, 35.23970
300.7818, 35.06904
301.2639, 35.04094
301.7460, 35.36106
302.2281, 35.66043
302.7102, 35.59106
303.1924, 35.19653
303.6745, 34.90778
304.1566, 35.11363
304.6387, 35.77220
305.1208, 36.04463
305.6029, 35.68462
306.0851, 35.22152
306.5672, 34.83138
307.0493, 34.54199
307.5314, 34.42554
308.0135, 34.55967
308.4956, 34.86952
308.9778, 35.02074
309.4599, 34.88606
309.9420, 34.78160
310.4241, 34.88800
310.9062, 35.08883
311.3883, 35.13540
311.8705, 34.90721
312.3526, 34.53204
312.8347, 34.28869
313.3168, 34.17649
313.7989, 34.16039
314.2810, 34.38781
314.7632, 34.65533
315.2453, 34.62232
315.7274, 34.18152
316.2095, 33.66796
316.6916, 33.56828
317.1737, 34.00460
317.6559, 34.32042
318.1379, 34.40879
318.6201, 34.38824
319.1022, 34.32058
319.5843, 34.22517
320.0664, 33.89649
320.5485, 34.29095
321.0306, 34.51498
321.5128, 34.57775
321.9949, 33.99625
322.4770, 34.24669
322.9591, 34.16372
323.4412, 34.06709
323.9233, 34.43462
324.4055, 33.94683
324.8876, 34.30700
325.3697, 34.32868
325.8518, 34.50528
326.3339, 34.34641
326.8160, 34.29116
327.2982, 34.57148
327.7803, 34.66599
328.2624, 34.46851
328.7445, 34.37056
329.2266, 34.44286
329.7087, 34.52245
330.1909, 34.55264
330.6730, 34.45841
331.1551, 34.33119
331.6372, 34.33087
332.1193, 34.50674
332.6014, 34.68487
333.0836, 34.58177
333.5657, 34.01971
334.0478, 33.72157
334.5299, 33.92769
335.0120, 34.26489
335.4941, 34.42982
335.9763, 34.38820
336.4584, 34.28722
336.9405, 34.26590
337.4226, 34.33477
337.9047, 34.33788
338.3868, 34.22076
338.8690, 34.09707
339.3511, 33.99144
339.8332, 33.92340
340.3153, 33.94582
340.7974, 34.10409
341.2795, 34.37113
341.7617, 34.57076
342.2438, 34.63957
342.7259, 34.72627
343.2080, 34.96004
343.6901, 35.20982
344.1722, 35.23944
344.6544, 34.94642
345.1365, 34.49682
345.6186, 34.23694
346.1007, 34.35728
346.5828, 34.38839
347.0649, 34.18409
347.5471, 33.97380
348.0292, 34.00868
348.5113, 34.31310
348.9934, 34.66761
349.4755, 34.80123
349.9576, 34.64668
350.4398, 34.53844
350.9219, 34.49381
351.4040, 34.47118
351.8861, 34.43745
352.3682, 34.40429
352.8503, 34.42904
353.3325, 34.57472
353.8146, 34.82170
354.2967, 34.85201
354.7788, 34.32069
355.2609, 33.96695
355.7430, 34.05799
356.2252, 34.39177
356.7073, 34.69617
357.1894, 34.84293
357.6715, 34.86052
358.1536, 34.81533
358.6357, 34.62855
359.1178, 34.49955
359.5999, 34.45885
360.0821, 34.45889
360.5642, 34.44892
361.0463, 34.42519
361.5284, 34.44027
362.0105, 34.58614
362.4926, 34.94289
362.9748, 35.11547
363.4569, 34.94066
363.9390, 34.74742
364.4211, 34.66679
364.9032, 34.68925
365.3853, 34.74667
365.8675, 34.78446
366.3496, 34.36094
366.8317, 34.68048
367.3138, 34.82959
367.7959, 34.81745
368.2780, 34.16103
368.7602, 34.33654
369.2423, 34.17866
369.7244, 34.00711
370.2065, 34.29972
370.6886, 33.81204
371.1707, 34.26184
371.6529, 34.61971
372.1350, 34.65470
372.6171, 34.62485
373.0992, 34.72620
373.5813, 34.97064
374.0634, 35.19605
374.5456, 35.23641
375.0277, 35.08654
375.5098, 34.85498
375.9919, 34.32473
376.4740, 33.97053
376.9561, 34.14421
377.4383, 34.65375
377.9204, 35.05171
378.4025, 35.04846
378.8846, 34.77919
379.3667, 34.61384
379.8488, 34.57101
380.3310, 34.58663
380.8131, 34.70315
381.2952, 34.83334
381.7773, 34.89444
382.2594, 34.86874
382.7415, 34.75580
383.2237, 34.48435
383.7058, 34.05561
384.1879, 33.79150
384.6700, 33.81578
385.1521, 33.99659
385.6342, 34.25183
386.1164, 34.56792
386.5985, 34.80887
387.0806, 34.85603
387.5627, 34.77606
388.0448, 34.74457
388.5269, 34.80363
389.0091, 34.81414
389.4912, 34.53421
389.9733, 34.12937
390.4554, 33.99456
390.9375, 34.42603
391.4196, 34.95747
391.9018, 35.15387
392.3839, 35.04549
392.8660, 34.90087
393.3481, 34.83612
393.8302, 34.80115
394.3123, 34.69285
394.7945, 34.48988
395.2766, 34.29155
395.7587, 34.11412
396.2408, 33.97226
396.7229, 33.89475
397.2050, 33.88846
397.6872, 33.93829
398.1693, 34.05013
398.6514, 34.23236
399.1335, 34.34202
399.6156, 34.34931
400.0977, 34.30196
400.5798, 34.18675
401.0620, 34.03318
401.5441, 33.94759
402.0262, 33.99917
402.5083, 34.16805
402.9904, 34.35811
403.4725, 34.80126
403.9547, 34.98003
404.4368, 34.55257
404.9189, 33.89935
405.4010, 33.46662
405.8831, 33.39879
406.3652, 33.62555
406.8474, 33.72937
407.3295, 34.13364
407.8116, 34.36749
408.2937, 34.44007
408.7758, 33.86838
409.2579, 34.12863
409.7401, 34.05548
410.2222, 33.96865
410.7043, 34.02007
411.1864, 33.69967
411.6685, 33.58917
412.1506, 33.98303
412.6328, 34.22857
413.1149, 34.09077
413.5970, 33.82103
414.0791, 33.73605
414.5612, 33.93579
415.0433, 34.20164
415.5255, 34.14277
416.0076, 33.59804
416.4897, 33.28691
416.9718, 33.51384
417.4539, 33.76365
417.9360, 33.79200
418.4182, 33.62291
418.9003, 33.41019
419.3824, 33.23401
419.8645, 33.10612
420.3466, 33.08654
420.8287, 33.21418
421.3109, 33.37142
421.7930, 33.54230
422.2751, 33.70148
422.7572, 33.82176
423.2393, 33.89790
423.7214, 33.92403
424.2036, 33.86483
424.6857, 33.72526
425.1678, 33.64150
425.6499, 33.69785
426.1320, 33.74945
426.6141, 33.62194
427.0963, 33.34396
427.5784, 33.14219
428.0605, 33.17101
428.5426, 33.30973
429.0247, 33.35766
429.5068, 33.29798
429.9890, 33.27828
430.4711, 33.45637
430.9532, 33.72502
431.4353, 33.74270
431.9174, 33.27334
432.3995, 32.90219
432.8817, 33.07503
433.3638, 33.54306
433.8459, 33.72835
434.3280, 33.42111
434.8101, 32.98687
435.2922, 32.96844
435.7744, 33.52617
436.2565, 33.84190
436.7386, 33.75640
437.2207, 33.52627
437.7028, 33.25112
438.1849, 32.97975
438.6671, 32.82282
439.1492, 32.87134
439.6313, 33.07840
440.1134, 33.16704
440.5955, 32.94635
441.0776, 32.84350
441.5597, 33.02238
442.0418, 33.28177
442.5240, 33.41085
443.0061, 33.35756
443.4882, 33.22034
443.9703, 33.12424
444.4524, 33.08095
444.9345, 33.02360
445.4167, 32.88040
445.8988, 32.79503
446.3809, 32.89864
446.8630, 33.09116
447.3451, 33.16777
447.8272, 32.99104
448.3094, 32.67779
448.7915, 32.53460
449.2736, 32.62623
449.7557, 32.70273
450.2378, 32.69004
450.7199, 32.64855
451.2021, 32.61081
451.6842, 32.58295
452.1663, 32.57155
452.6484, 32.59692
453.1305, 32.64664
453.6126, 32.67284
454.0948, 32.68666
454.5769, 32.64287
455.0590, 32.40928
455.5411, 32.10887
456.0232, 31.98047
456.5053, 32.17851
456.9875, 32.42282
457.4696, 32.47855
457.9517, 32.37564
458.4338, 32.23271
458.9159, 32.05657
459.3980, 31.92017
459.8802, 31.97894
460.3623, 32.25542
460.8444, 32.44671
461.3265, 32.53869
461.8086, 32.49490
462.2907, 32.15852
462.7729, 31.59550
463.2550, 31.19728
463.7371, 31.26468
464.2192, 31.69586
464.7013, 31.90239
465.1834, 31.70334
465.6656, 31.52727
466.1477, 31.41065
466.6298, 31.35765
467.1119, 31.41682
467.5940, 31.57865
468.0761, 31.70590
468.5583, 31.59968
469.0404, 31.18284
469.5225, 31.03094
470.0046, 31.42150
470.4867, 31.79383
470.9688, 32.00195
471.4510, 32.07259
471.9331, 32.05759
472.4152, 31.97663
472.8973, 31.85445
473.3794, 31.70628
473.8615, 31.49016
474.3437, 31.42928
474.8258, 31.73595
475.3079, 32.07502
475.7900, 32.25529
476.2721, 32.27557
476.7542, 32.21656
477.2364, 32.05515
477.7185, 31.86284
478.2006, 31.84789
478.6827, 32.05467
479.1648, 32.16871
479.6469, 31.92821
480.1291, 31.53882
480.6112, 31.37688
481.0933, 31.51649
481.5754, 31.71968
482.0575, 31.96620
482.5396, 32.17225
483.0217, 32.14617
483.5038, 31.84249
483.9860, 30.92119
484.4681, 31.30818
484.9502, 31.52475
485.4323, 31.58006
485.9144, 30.99110
486.3965, 31.23407
486.8787, 31.43079
487.3608, 31.26643
487.8429, 31.11627
488.3250, 31.50503
488.8071, 31.72336
489.2892, 31.78042
489.7714, 31.19323
490.2535, 31.43796
490.7356, 31.34930
491.2177, 31.16761
491.6998, 31.12520
492.1819, 31.15865
492.6641, 31.19461
493.1462, 31.18859
493.6283, 31.15019
494.1104, 31.10134
494.5925, 31.02858
495.0746, 30.98244
495.5568, 30.98801
496.0389, 31.01580
496.5210, 31.06987
497.0031, 31.14102
497.4852, 31.16447
497.9673, 31.05111
498.4495, 30.85821
498.9316, 30.75241
499.4137, 30.75381
499.8958, 30.77463
500.3779, 30.77917
500.8600, 30.76416
501.3422, 30.72216
501.8243, 30.63760
502.3064, 30.55919
502.7885, 30.50077
503.2706, 30.46709
503.7527, 30.48149
504.2349, 30.55003
504.7170, 30.61358
505.1991, 30.62045
505.6812, 30.56832
506.1633, 30.45202
506.6454, 30.17593
507.1276, 29.94897
507.6097, 29.83081
508.0918, 29.81604
508.5739, 29.92115
509.0560, 30.14664
509.5381, 30.40770
510.0203, 30.57987
510.5024, 30.67600
510.9845, 30.63889
511.4666, 30.26822
511.9487, 29.96301
512.4308, 29.95817
512.9130, 30.12480
513.3951, 30.17705
513.8772, 29.94160
514.3593, 29.60781
514.8414, 29.55358
515.3235, 29.82338
515.8057, 30.03154
516.2878, 30.07170
516.7699, 30.03897
517.2520, 30.02697
517.7341, 30.02682
518.2162, 29.96943
518.6984, 29.71927
519.1805, 29.45635
519.6626, 29.44362
520.1447, 29.66859
520.6268, 29.92633
521.1089, 30.16168
521.5911, 30.32235
522.0732, 30.24820
522.5553, 29.85645
523.0374, 29.52175
523.5195, 29.27331
524.0016, 29.13077
524.4838, 29.14611
524.9659, 29.29832
525.4480, 29.50854
525.9301, 29.73517
526.4122, 29.95088
526.8943, 30.00837
527.3765, 29.72091
527.8586, 29.54030
528.3407, 29.57686
528.8228, 29.67840
529.3049, 29.75394
529.7870, 29.77409
530.2692, 29.71329
530.7513, 29.51899
531.2334, 29.22102
531.7155, 28.96413
532.1976, 28.67349
532.6797, 28.60321
533.1619, 29.12784
533.6440, 29.79853
534.1261, 30.16040
534.6082, 30.12711
535.0903, 29.94173
535.5724, 29.65318
536.0546, 29.34715
536.5367, 29.24734
537.0188, 29.39613
537.5009, 29.53706
537.9830, 29.46559
538.4651, 29.22598
538.9473, 29.08017
539.4294, 29.06414
539.9115, 29.08597
540.3936, 29.12119
540.8757, 29.17955
541.3578, 29.31884
541.8400, 29.52841
542.3221, 29.66198
542.8042, 29.55055
543.2863, 29.18878
543.7684, 28.91390
544.2505, 28.72762
544.7326, 28.63847
545.2147, 28.69769
545.6968, 28.83013
546.1790, 28.96434
546.6611, 29.07969
547.1432, 29.18184
547.6253, 29.31911
548.1074, 29.47489
548.5895, 29.40202
549.0717, 28.94194
549.5538, 28.57488
550.0359, 28.73211
550.5180, 29.13022
551.0001, 29.34689
551.4822, 29.26551
551.9644, 29.11508
552.4465, 28.96978
552.9286, 28.87028
553.4107, 28.95583
553.8928, 29.25862
554.3749, 29.51682
554.8571, 29.46694
555.3392, 29.12039
555.8213, 28.93807
556.3034, 29.01958
556.7855, 29.11718
557.2676, 29.19214
557.7498, 29.23691
558.2319, 29.23165
558.7140, 29.17868
559.1961, 29.12026
559.6782, 29.10314
560.1603, 29.12778
560.6425, 29.16372
561.1246, 29.29843
561.6067, 29.30772
562.0888, 29.00279
562.5709, 28.61112
563.0530, 28.40989
563.5352, 28.47077
564.0173, 28.57605
564.4994, 28.53340
564.9815, 28.38567
565.4636, 28.23412
565.9457, 28.05725
566.4279, 28.05716
566.9100, 28.51355
567.3921, 29.23115
567.8742, 29.52099
568.3563, 29.14501
568.8384, 28.74331
569.3206, 28.46575
569.8027, 28.31417
570.2848, 28.32205
570.7669, 28.47642
571.2490, 28.69399
571.7311, 28.92261
572.2133, 29.14608
572.6954, 29.17046
573.1775, 28.72895
573.6596, 28.45517
574.1417, 28.53426
574.6238, 28.73517
575.1060, 28.89557
575.5881, 28.97555
576.0702, 28.96739
576.5523, 28.83479
577.0344, 28.61164
577.5165, 28.40911
577.9987, 28.21537
578.4808, 28.09774
578.9629, 28.12271
579.4450, 28.21869
579.9271, 28.28650
580.4092, 28.32294
580.8914, 28.34337
581.3735, 28.33882
581.8556, 28.33032
582.3377, 28.36294
582.8198, 28.42393
583.3019, 28.42058
583.7841, 28.28398
584.2662, 28.08561
584.7483, 28.02301
585.2304, 28.18195
585.7125, 28.34327
586.1946, 28.52494
586.6768, 28.69368
587.1589, 28.87546
587.6410, 29.02712
588.1231, 29.03428
588.6052, 28.80787
589.0873, 28.47070
589.5695, 28.27392
590.0516, 28.22722
590.5337, 28.25842
591.0158, 28.40989
591.4979, 28.57064
591.9800, 28.64173
592.4622, 28.64258
592.9443, 28.65118
593.4264, 28.72925
593.9085, 28.78946
594.3906, 28.75332
594.8727, 28.64155
595.3549, 28.47024
595.8370, 28.23383
596.3191, 28.08584
596.8012, 28.25415
597.2833, 28.82053
597.7654, 29.11909
598.2476, 29.04486
598.7297, 28.86817
599.2118, 28.59058
599.6939, 28.29352
600.1760, 28.04296
600.6581, 27.86698
601.1403, 27.81234
601.6224, 28.00282
602.1045, 28.42184
602.5866, 28.65044
603.0687, 28.62107
603.5508, 28.54715
604.0330, 28.50296
604.5151, 28.48614
604.9972, 28.51412
605.4793, 28.60873
605.9614, 28.64941
606.4435, 28.51080
606.9257, 28.31406
607.4078, 28.25951
607.8899, 28.34547
608.3720, 28.37396
608.8541, 28.19171
609.3362, 27.91088
609.8184, 27.89393
610.3005, 28.45406
610.7826, 28.81278
611.2647, 28.87097
611.7468, 28.82312
612.2289, 28.75010
612.7111, 28.67867
613.1932, 28.63349
613.6753, 28.63116
614.1574, 28.65399
614.6395, 28.67810
615.1216, 28.70613
615.6038, 28.69438
616.0859, 28.60675
616.5680, 28.51755
617.0501, 28.48854
617.5322, 28.50837
618.0143, 28.54543
618.4965, 28.63232
618.9786, 28.69108
619.4607, 28.61774
619.9428, 28.49740
620.4249, 28.52981
620.9070, 28.75232
621.3892, 28.94863
621.8713, 28.87613
622.3534, 28.54066
622.8355, 28.39579
623.3176, 28.68703
623.7997, 28.85505
624.2819, 28.72258
624.7640, 28.49685
625.2461, 28.34915
625.7282, 28.30779
626.2103, 28.31886
626.6924, 28.33925
627.1745, 28.38375
627.6566, 28.52986
628.1387, 28.79285
628.6208, 28.93213
629.1030, 28.80385
629.5851, 28.57321
630.0672, 28.50344
630.5493, 28.60442
631.0314, 28.63813
631.5135, 28.49660
631.9957, 28.34734
632.4778, 28.27105
632.9599, 28.27192
633.4420, 28.36824
633.9241, 28.56195
634.4063, 28.77150
634.8884, 28.88412
635.3705, 28.89438
635.8526, 28.85060
636.3347, 28.70743
636.8168, 28.57319
637.2990, 28.45891
637.7811, 28.38555
638.2632, 28.40994
638.7453, 28.55136
639.2274, 28.64033
639.7095, 28.47252
640.1917, 28.20698
640.6738, 28.13745
641.1559, 28.27906
641.6380, 28.49831
642.1201, 28.75157
642.6022, 28.99072
643.0844, 29.10766
643.5665, 29.07260
644.0486, 28.96063
644.5307, 28.61329
645.0128, 28.34257
645.4949, 28.43387
645.9771, 28.71218
646.4592, 28.76762
646.9413, 28.41031
647.4234, 28.00077
647.9055, 28.17452
648.3876, 28.91290
648.8698, 29.22100
649.3519, 28.84145
649.8340, 28.43769
650.3161, 28.45403
650.7982, 28.71744
651.2803, 28.89523
651.7625, 28.96854
652.2446, 28.94699
652.7267, 28.73162
653.2088, 28.48704
653.6909, 28.44474
654.1730, 28.57304
654.6552, 28.62394
655.1373, 28.43585
655.6194, 28.12296
656.1015, 27.98117
656.5836, 28.06143
657.0657, 28.18278
657.5479, 28.44077
658.0300, 28.63755
658.5121, 28.63725
658.9942, 28.52096
659.4763, 28.44858
659.9584, 28.46988
660.4406, 28.55715
660.9227, 28.76377
661.4048, 29.00880
661.8869, 29.04188
662.3690, 28.82246
662.8511, 28.61381
663.3333, 28.62013
663.8154, 28.77170
664.2975, 28.77598
664.7796, 28.41324
665.2617, 28.21355
665.7438, 28.22669
666.2260, 28.37196
666.7081, 28.69747
667.1902, 29.10455
667.6723, 29.38442
668.1544, 29.42841
668.6365, 29.30386
669.1187, 29.05368
669.6008, 28.68869
670.0829, 28.47235
670.5650, 28.47960
671.0471, 28.53842
671.5292, 28.51301
672.0114, 28.44120
672.4935, 28.45675
672.9756, 28.59581
673.4577, 28.76165
673.9398, 28.98318
674.4219, 29.17792
674.9041, 29.27627
675.3862, 29.27021
675.8683, 29.14991
676.3504, 28.89313
676.8325, 28.59956
677.3146, 28.53708
677.7968, 28.77529
678.2789, 28.90359
678.7610, 28.82595
679.2431, 28.70045
679.7252, 28.59247
680.2073, 28.51252
680.6895, 28.47994
681.1716, 28.48856
681.6537, 28.56978
682.1358, 28.79735
682.6179, 29.08180
683.1000, 29.30767
683.5822, 29.45902
684.0643, 29.56461
684.5464, 29.64886
685.0285, 29.68028
685.5106, 29.54469
685.9927, 29.09372
686.4749, 28.82538
686.9570, 28.94973
687.4391, 29.07059
687.9212, 28.95148
688.4033, 28.72162
688.8854, 28.65824
689.3676, 28.89250
689.8497, 29.11237
690.3318, 29.00173
690.8139, 28.69971
691.2960, 28.48390
691.7781, 28.38496
692.2603, 28.37901
692.7424, 28.45894
693.2245, 28.60935
693.7066, 28.80557
694.1887, 29.20738
694.6708, 29.31957
695.1530, 28.73774
695.6351, 28.30316
696.1172, 28.59808
696.5993, 29.27047
697.0814, 29.67898
697.5635, 29.59335
698.0457, 29.33612
698.5278, 29.20251
699.0099, 29.16007
699.4920, 29.10382
699.9741, 29.02603
700.4562, 28.94421
700.9384, 28.85717
701.4205, 28.78536
701.9026, 28.77892
702.3847, 28.87718
702.8668, 28.93568
703.3489, 28.90833
703.8311, 28.88716
704.3132, 28.96000
704.7953, 29.05467
705.2774, 29.04514
705.7595, 28.89594
706.2416, 28.70287
706.7238, 28.50680
707.2059, 28.34630
707.6880, 28.45819
708.1701, 28.89471
708.6522, 29.21070
709.1343, 29.17334
709.6164, 28.97745
710.0985, 28.93439
710.5806, 29.07302
711.0627, 29.14203
711.5449, 29.03885
712.0270, 28.95596
712.5091, 29.07850
712.9912, 29.23678
713.4733, 29.13116
713.9554, 28.72586
714.4376, 28.33947
714.9197, 28.28152
715.4018, 28.48402
715.8839, 28.69751
716.3660, 28.92500
716.8481, 29.14047
717.3303, 29.36119
717.8124, 29.53011
718.2945, 29.58763
718.7766, 29.53687
719.2587, 29.37823
719.7408, 28.92016
720.2230, 28.58024
720.7051, 28.61954
721.1872, 28.81043
721.6693, 28.87237
722.1514, 28.78225
722.6335, 28.71585
723.1157, 28.81778
723.5978, 29.01598
724.0799, 29.12550
724.5620, 29.14466
725.0441, 29.09277
725.5262, 28.94944
726.0084, 28.77700
726.4905, 28.58503
726.9726, 28.40255
727.4547, 28.34989
727.9368, 28.51071
728.4189, 28.67991
728.9011, 28.80586
729.3832, 28.90705
729.8653, 29.00310
730.3474, 29.09004
730.8295, 29.14548
731.3116, 29.15537
731.7938, 29.14209
732.2759, 29.17141
732.7580, 29.24562
733.2401, 29.14988
733.7222, 28.76590
734.2043, 28.48396
734.6865, 28.62720
735.1686, 28.98236
735.6507, 29.05224
736.1328, 28.71589
736.6149, 28.51402
737.0970, 28.66398
737.5792, 28.88242
738.0613, 29.02821
738.5434, 29.07985
739.0255, 28.99312
739.5076, 28.76335
739.9897, 28.53899
740.4719, 28.54492
740.9540, 28.73037
741.4361, 28.67490
741.9182, 28.30072
742.4003, 28.09697
742.8824, 28.32555
743.3646, 28.71526
743.8467, 28.93259
744.3288, 28.98129
744.8109, 28.92653
745.2930, 28.65618
745.7751, 28.42024
746.2573, 28.33105
746.7394, 28.32550
747.2215, 28.34521
747.7036, 28.36876
748.1857, 28.37093
748.6678, 28.31863
749.1500, 28.25535
749.6321, 28.31438
750.1142, 28.49564
750.5963, 28.54364
751.0784, 28.35755
751.5605, 28.18105
752.0427, 28.23740
752.5248, 28.47417
753.0069, 28.59880
753.4890, 28.63796
753.9711, 28.53578
754.4532, 28.07397
754.9354, 27.65401
755.4175, 27.58055
755.8996, 27.78316
756.3817, 28.08259
756.8638, 28.41466
757.3459, 28.67325
757.8281, 28.72086
758.3102, 28.58887
758.7923, 28.33104
759.2744, 27.93698
759.7565, 27.73470
760.2386, 27.93782
760.7208, 28.32061
761.2029, 28.50614
761.6850, 28.47145
762.1671, 28.32231
762.6492, 27.79572
763.1313, 27.47884
763.6135, 27.80490
764.0956, 28.28625
764.5777, 28.32090
765.0598, 27.87575
765.5419, 27.47925
766.0240, 27.54353
766.5062, 27.78725
766.9883, 27.79324
767.4704, 27.62231
767.9525, 27.52167
768.4346, 27.55012
768.9167, 27.66091
769.3989, 27.82276
769.8810, 28.02613
770.3631, 28.21528
770.8452, 28.49907
771.3273, 28.56675
771.8094, 28.12895
772.2916, 27.74134
772.7737, 27.80272
773.2558, 28.11703
773.7379, 28.23335
774.2200, 27.97830
774.7021, 27.72631
775.1843, 27.75527
775.6664, 27.91403
776.1485, 28.01149
776.6306, 28.04187
777.1127, 28.07822
777.5948, 28.15558
778.0770, 28.17350
778.5591, 27.92643
779.0412, 27.38566
779.5233, 27.21338
780.0054, 27.60894
780.4875, 27.95438
780.9697, 28.00038
781.4518, 27.94464
781.9339, 27.99929
782.4160, 28.15142
782.8981, 28.20849
783.3802, 28.06638
783.8624, 27.88528
784.3445, 27.70802
784.8266, 27.55973
785.3087, 27.46586
785.7908, 27.43277
786.2729, 27.48307
786.7551, 27.65191
787.2372, 27.83160
787.7193, 27.74671
788.2014, 27.40227
788.6835, 27.22517
789.1656, 27.27982
789.6478, 27.45328
790.1299, 27.76278
790.6120, 28.09277
791.0941, 28.13090
791.5762, 27.73911
792.0583, 27.48638
792.5404, 27.49438
793.0225, 27.54760
793.5046, 27.57370
793.9868, 27.57004
794.4689, 27.54594
794.9510, 27.50190
795.4331, 27.42169
795.9152, 27.20542
796.3973, 27.00670
796.8795, 27.18151
797.3616, 27.63369
797.8437, 27.85452
798.3258, 27.71179
798.8079, 27.49648
799.2900, 27.45834
799.7722, 27.57130
800.2543, 27.70400
800.7364, 27.95023
801.2185, 28.02495
801.7006, 27.71801
802.1827, 27.42240
802.6649, 27.31286
803.1470, 27.34531
803.6291, 27.47909
804.1112, 27.75845
804.5933, 27.85428
805.0754, 27.32858
805.5576, 26.75732
806.0397, 26.83717
806.5218, 27.33860
807.0039, 27.62735
807.4860, 27.49171
807.9681, 27.20350
808.4503, 27.02613
808.9324, 26.96539
809.4145, 27.11052
809.8966, 27.52016
810.3787, 27.76173
810.8608, 27.67194
811.3430, 27.48557
811.8251, 27.40267
812.3072, 27.40810
812.7893, 27.38990
813.2714, 27.38816
813.7535, 27.30384
814.2357, 27.00146
814.7178, 26.72384
815.1999, 26.59876
815.6820, 26.64056
816.1641, 26.89240
816.6462, 27.37339
817.1284, 27.83573
817.6105, 28.09912
818.0926, 28.16510
818.5747, 27.95407
819.0568, 27.51666
819.5389, 27.13180
820.0211, 26.89173
820.5032, 26.82309
820.9853, 26.99926
821.4674, 27.39023
821.9495, 27.51568
822.4316, 27.23737
822.9138, 26.99285
823.3959, 26.77725
823.8780, 26.69979
824.3601, 26.94871
824.8422, 27.37980
825.3243, 27.59751
825.8065, 27.43197
826.2886, 27.30451
826.7707, 27.49884
827.2528, 27.69645
827.7349, 27.55069
828.2170, 27.18912
828.6992, 26.90930
829.1813, 26.82134
829.6634, 26.89306
830.1455, 27.17603
830.6276, 27.57230
831.1097, 27.72489
831.5919, 27.63718
832.0740, 27.54180
832.5561, 27.50463
833.0382, 27.46951
833.5203, 27.36445
834.0024, 27.21218
834.4846, 27.19119
834.9667, 27.48392
835.4488, 27.60584
835.9309, 27.21194
836.4130, 26.98231
836.8951, 26.98291
837.3773, 27.34819
837.8594, 27.54306
838.3415, 27.57666
838.8236, 26.96600
839.3057, 27.18727
839.7878, 27.07515
840.2700, 26.94934
840.7521, 27.28770
841.2342, 26.77075
841.7163, 27.10175
842.1984, 26.80136
842.6805, 26.40136
843.1627, 26.14797
843.6448, 26.36638
844.1269, 27.07768
844.6090, 27.41141
845.0911, 27.11431
845.5732, 26.78927
846.0554, 26.85874
846.5375, 27.19977
847.0196, 27.47640
847.5017, 27.75231
847.9838, 27.80451
848.4659, 27.39425
848.9481, 27.04522
849.4302, 26.99667
849.9123, 27.09454
850.3944, 27.17376
850.8765, 27.20224
851.3586, 27.17334
851.8408, 27.00495
852.3229, 26.85548
852.8050, 26.83799
853.2871, 26.93998
853.7692, 27.25371
854.2513, 27.70498
854.7335, 27.88917
855.2156, 27.52199
855.6977, 26.94524
856.1798, 26.82604
856.6619, 27.14746
857.1440, 27.42306
857.6262, 27.65408
858.1083, 27.69555
858.5904, 27.42584
859.0725, 27.02708
859.5546, 26.72928
860.0367, 26.53189
860.5189, 26.45531
861.0010, 26.62140
861.4831, 26.73828
861.9652, 26.67509
862.4473, 26.62105
862.9294, 26.77482
863.4116, 27.05626
863.8937, 27.21286
864.3758, 27.14121
864.8579, 27.02947
865.3400, 26.96879
865.8221, 26.94927
866.3043, 27.04230
866.7864, 27.15870
867.2685, 26.99537
867.7506, 26.48416
868.2327, 26.04686
868.7148, 26.19112
869.1970, 26.71169
869.6791, 26.88223
870.1612, 26.70193
870.6433, 26.67521
871.1254, 26.96403
871.6075, 27.13034
872.0897, 26.76770
872.5718, 26.09137
873.0539, 25.81512
873.5359, 26.17552
874.0181, 26.39359
874.5002, 26.34740
874.9823, 26.29592
875.4644, 26.30119
875.9465, 26.35715
876.4286, 26.48426
876.9108, 26.67420
877.3929, 26.80207
877.8750, 26.85959
878.3571, 26.80442
878.8392, 26.48673
879.3214, 26.12363
879.8035, 26.00929
880.2856, 26.10738
880.7677, 26.16393
881.2498, 26.04600
881.7319, 25.91468
882.2141, 26.06330
882.6962, 26.34585
883.1783, 26.23081
883.6604, 25.74762
884.1425, 25.44915
884.6246, 25.54296
885.1068, 25.77656
885.5889, 25.88419
886.0710, 25.87662
886.5531, 25.81851
887.0352, 25.65078
887.5173, 25.61572
887.9995, 25.85412
888.4816, 26.07450
888.9637, 26.06270
889.4458, 25.91922
889.9279, 25.85855
890.4100, 25.92378
890.8922, 25.91002
891.3743, 25.71273
891.8564, 25.51826
892.3385, 25.37533
892.8206, 25.30354
893.3027, 25.35690
893.7849, 25.50814
894.2670, 25.62668
894.7491, 25.64018
895.2312, 25.61445
895.7133, 25.59258
896.1954, 25.58023
896.6776, 25.60471
897.1597, 25.65098
897.6418, 25.64350
898.1239, 25.55158
898.6060, 25.46261
899.0881, 25.52168
899.5703, 25.67477
900.0524, 25.56744
900.5345, 25.17543
901.0166, 25.03404
901.4987, 25.31401
901.9808, 25.70244
902.4630, 25.99725
902.9451, 26.17013
903.4272, 26.10155
903.9093, 25.60714
904.3914, 25.29954
904.8735, 25.30262
905.3557, 25.34024
905.8378, 25.27042
906.3199, 25.21550
906.8020, 25.37614
907.2841, 25.73578
907.7662, 25.91930
908.2484, 25.74052
908.7305, 25.49266
909.2126, 25.22620
909.6947, 24.99680
910.1768, 24.86273
910.6589, 24.80796
911.1411, 24.77418
911.6232, 24.73904
912.1053, 24.75646
912.5874, 24.96715
913.0695, 25.20034
913.5516, 25.13087
914.0338, 24.85670
914.5159, 24.67556
914.9980, 24.66269
915.4801, 24.77458
915.9622, 24.99417
916.4443, 25.26210
916.9265, 25.44490
917.4086, 25.54281
917.8907, 25.60137
918.3728, 25.63671
918.8549, 25.53089
919.3370, 25.15991
919.8192, 24.78005
920.3013, 24.79190
920.7834, 25.21244
921.2655, 25.30821
921.7476, 24.76579
922.2297, 24.44095
922.7119, 24.61297
923.1940, 24.87443
923.6761, 25.05758
924.1582, 25.14815
924.6403, 25.09807
925.1224, 24.85594
925.6046, 24.69164
926.0867, 24.71178
926.5688, 24.78087
927.0509, 24.84915
927.5330, 24.91258
928.0151, 24.96482
928.4973, 25.01089
928.9794, 25.07227
929.4615, 25.16357
929.9436, 25.26071
930.4257, 25.40098
930.9078, 25.49993
931.3900, 25.35598
931.8721, 25.05670
932.3542, 24.89769
932.8363, 24.97739
933.3184, 25.18835
933.8005, 25.48892
934.2827, 25.76988
934.7648, 25.64878
935.2469, 25.18211
935.7290, 24.92500
936.2111, 24.97175
936.6932, 25.11288
937.1754, 25.24288
937.6575, 25.33904
938.1396, 25.35271
938.6217, 25.27628
939.1038, 25.20380
939.5859, 25.10633
940.0681, 25.09715
940.5502, 25.26879
941.0323, 25.45204
941.5144, 25.54791
941.9965, 25.53922
942.4786, 25.32054
942.9608, 24.59508
943.4429, 24.28003
943.9250, 24.79648
944.4071, 25.27645
944.8892, 25.32668
945.3713, 25.18411
945.8535, 25.07888
946.3356, 25.04868
946.8177, 25.13328
947.2998, 25.51661
947.7819, 25.75556
948.2640, 25.43469
948.7462, 25.04195
949.2283, 25.09837
949.7104, 25.43475
950.1925, 25.61393
950.6746, 25.51122
951.1567, 25.35328
951.6389, 25.30987
952.1210, 25.31235
952.6031, 25.25764
953.0852, 25.18463
953.5673, 25.18588
954.0494, 25.26458
954.5316, 25.37738
955.0137, 25.50513
955.4957, 25.57288
955.9778, 25.40096
956.4600, 25.06692
956.9421, 24.97272
957.4242, 25.11211
957.9063, 25.30985
958.3884, 25.52804
958.8705, 25.71953
959.3527, 25.84349
959.8348, 25.91619
960.3169, 25.98739
960.7990, 26.06906
961.2811, 26.08017
961.7632, 25.99931
962.2454, 25.90230
962.7275, 25.80676
963.2096, 25.72419
963.6917, 25.69261
964.1738, 25.69806
964.6559, 25.57531
965.1381, 25.05574
965.6202, 24.84701
966.1023, 25.27719
966.5844, 25.66290
967.0665, 25.62399
967.5486, 25.41615
968.0308, 25.41582
968.5129, 25.64398
968.9950, 25.74680
969.4771, 25.50791
969.9592, 25.32259
970.4413, 25.34817
970.9235, 25.45712
971.4056, 25.57319
971.8877, 25.68279
972.3698, 25.79622
972.8519, 25.91615
973.3340, 25.96822
973.8162, 25.80952
974.2983, 25.67007
974.7804, 25.82027
975.2625, 26.06179
975.7446, 26.08067
976.2267, 25.90249
976.7089, 25.76374
977.1910, 25.77520
977.6731, 25.85116
978.1552, 25.95934
978.6373, 26.04071
979.1194, 25.93876
979.6016, 25.72367
980.0837, 25.61496
980.5658, 25.65741
981.0479, 25.79549
981.5300, 26.00359
982.0121, 26.20543
982.4943, 26.25680
982.9764, 26.17661
983.4585, 26.01441
983.9406, 25.78275
984.4227, 25.80099
984.9048, 26.19573
985.3870, 26.50806
985.8691, 26.27879
986.3512, 25.71935
986.8333, 25.57910
987.3154, 25.94400
987.7975, 25.94821
988.2797, 25.39883
988.7618, 25.10863
989.2439, 25.48207
989.7260, 26.08076
990.2081, 26.43602
990.6902, 26.55486
991.1724, 26.49198
991.6545, 26.09084
992.1366, 25.87902
992.6187, 26.00773
993.1008, 26.14829
993.5829, 26.10073
994.0651, 26.01633
994.5472, 26.12492
995.0293, 26.43018
995.5114, 26.68473
995.9935, 26.94285
996.4756, 27.06704
996.9578, 27.00843
997.4399, 26.84347
997.9220, 26.53833
998.4041, 26.18929
998.8862, 25.91521
999.3683, 25.72986
999.8505, 25.70028
1000.333, 25.94049
1000.815, 26.21200
1001.297, 26.50324
1001.779, 26.72192
1002.261, 26.75932
1002.743, 26.67529
1003.225, 26.56635
1003.707, 26.45499
1004.190, 26.44602
1004.672, 26.65131
1005.154, 26.90808
1005.636, 27.21359
1006.118, 27.43707
1006.600, 27.37296
1007.082, 27.09537
1007.564, 26.82681
1008.046, 26.64646
1008.529, 26.55719
1009.011, 26.56066
1009.493, 26.65661
1009.975, 26.94036
1010.457, 27.27406
1010.939, 27.39679
1011.421, 27.31138
1011.903, 27.18268
1012.385, 27.08865
1012.868, 27.05059
1013.350, 27.13219
1013.832, 27.26349
1014.314, 27.32010
1014.796, 27.31303
1015.278, 27.23479
1015.760, 27.11403
1016.242, 27.14964
1016.725, 27.47271
1017.207, 27.82066
1017.689, 27.75311
1018.171, 27.40088
1018.653, 27.21265
1019.135, 27.18368
1019.617, 27.25273
1020.099, 27.40361
1020.581, 27.62680
1021.064, 27.93673
1021.546, 28.19600
1022.028, 28.07083
1022.510, 27.61082
1022.992, 27.43975
1023.474, 27.56653
1023.956, 27.61931
1024.438, 27.49384
1024.921, 27.38681
1025.403, 27.45161
1025.885, 27.61886
1026.367, 27.72321
1026.849, 27.75840
1027.331, 27.84295
1027.813, 28.00200
1028.295, 28.05083
1028.777, 27.90434
1029.260, 27.76002
1029.742, 27.78618
1030.224, 27.92112
1030.706, 27.98383
1031.188, 27.94817
1031.670, 27.99910
1032.152, 28.20453
1032.634, 28.29084
1033.116, 28.13789
1033.599, 27.92146
1034.081, 27.75655
1034.563, 27.65939
1035.045, 27.69814
1035.527, 27.95498
1036.009, 28.05910
1036.491, 27.95573
1036.973, 27.79823
1037.456, 27.55861
1037.938, 27.36793
1038.420, 27.34104
1038.902, 27.44940
1039.384, 27.60203
1039.866, 27.81307
1040.348, 28.03067
1040.830, 28.43041
1041.313, 28.58256
1041.795, 28.09944
1042.277, 27.57798
1042.759, 27.50867
1043.241, 27.78638
1043.723, 28.10833
1044.205, 28.54593
1044.687, 28.81495
1045.169, 28.84720
1045.651, 28.78361
1046.134, 28.58892
1046.616, 28.37743
1047.098, 28.21335
1047.580, 28.11069
1048.062, 28.11158
1048.544, 28.26535
1049.026, 28.36230
1049.508, 28.30457
1049.991, 28.27749
1050.473, 28.39843
1050.955, 28.52622
1051.437, 28.52464
1051.919, 28.43562
1052.401, 28.37144
1052.883, 28.32638
1053.365, 28.40486
1053.848, 28.89259
1054.330, 29.17093
1054.812, 28.78357
1055.294, 28.28005
1055.776, 28.12703
1056.258, 28.24807
1056.740, 28.38389
1057.222, 28.49102
1057.704, 28.59543
1058.187, 28.80922
1058.669, 28.88784
1059.151, 28.51758
1059.633, 28.15054
1060.115, 28.22437
1060.597, 28.60677
1061.079, 28.97417
1061.561, 29.27222
1062.043, 29.42839
1062.526, 29.39771
1063.008, 29.24787
1063.490, 28.82143
1063.972, 28.45567
1064.454, 28.51051
1064.936, 28.83706
1065.418, 29.10925
1065.900, 29.26067
1066.383, 29.34991
1066.865, 29.41218
1067.347, 29.40177
1067.829, 29.16353
1068.311, 28.96515
1068.793, 29.09940
1069.275, 29.42565
1069.757, 29.66708
1070.240, 29.76858
1070.722, 29.81760
1071.204, 29.71177
1071.686, 29.74310
1072.168, 30.30407
1072.650, 30.81573
1073.132, 30.70282
1073.614, 30.23878
1074.096, 29.94973
1074.578, 29.91072
1075.061, 29.81034
1075.543, 29.37070
1076.025, 29.08371
1076.507, 29.34994
1076.989, 29.69899
1077.471, 29.70790
1077.953, 29.57494
1078.435, 29.70872
1078.917, 30.10005
1079.400, 30.27225
1079.882, 29.90826
1080.364, 29.59114
1080.846, 29.72288
1081.328, 29.87289
1081.810, 29.61408
1082.292, 29.24658
1082.774, 29.24775
1083.257, 29.58644
1083.739, 29.80225
1084.221, 29.66865
1084.703, 29.61769
1085.185, 30.03377
1085.667, 30.39033
1086.149, 30.25499
1086.631, 29.92617
1087.114, 29.74448
1087.596, 29.71589
1088.078, 29.69650
1088.560, 29.64470
1089.042, 29.60098
1089.524, 29.42932
1090.006, 29.45185
1090.488, 30.18888
1090.970, 30.93892
1091.453, 30.83764
1091.935, 30.16896
1092.417, 29.79663
1092.899, 29.93909
1093.381, 30.15457
1093.863, 30.32781
1094.345, 30.47561
1094.827, 30.68368
1095.309, 30.79620
1095.792, 30.56481
1096.274, 30.18130
1096.756, 30.03711
1097.238, 30.19906
1097.720, 30.34430
1098.202, 30.30642
1098.684, 30.32860
1099.166, 30.64111
1099.649, 30.89020
1100.131, 30.69882
1100.613, 30.35519
1101.095, 30.36602
1101.577, 30.73858
1102.059, 30.91349
1102.541, 30.59316
1103.023, 30.33309
1103.505, 30.20868
1103.988, 30.23850
1104.470, 30.60083
1104.952, 31.00510
1105.434, 31.05601
1105.916, 30.82141
1106.398, 30.75966
1106.880, 31.01612
1107.362, 31.26201
1107.844, 31.51393
1108.327, 31.66130
1108.809, 31.66778
1109.291, 31.54870
1109.773, 31.20101
1110.255, 30.75256
1110.737, 30.58607
1111.219, 30.80889
1111.701, 30.99435
1112.184, 31.14906
1112.666, 31.21254
1113.148, 31.12826
1113.630, 30.99346
1114.112, 30.78071
1114.594, 30.59730
1115.076, 30.69307
1115.558, 31.11675
1116.041, 31.32421
1116.523, 31.13230
1117.005, 31.03696
1117.487, 31.13217
1117.969, 31.26950
1118.451, 31.40757
1118.933, 31.52311
1119.415, 31.57640
1119.897, 31.57429
1120.380, 31.59421
1120.862, 31.61724
1121.344, 31.73047
1121.826, 32.07834
1122.308, 32.18450
1122.790, 31.72206
1123.272, 31.23962
1123.754, 31.28460
1124.236, 31.70485
1124.719, 31.99856
1125.201, 32.17000
1125.683, 32.17002
1126.165, 31.93078
1126.647, 31.78690
1127.129, 31.83541
1127.611, 31.93182
1128.093, 31.96743
1128.576, 32.01986
1129.058, 32.28603
1129.540, 32.73926
1130.022, 32.73148
1130.504, 32.20558
1130.986, 31.90078
1131.468, 31.94047
1131.950, 32.05825
1132.432, 32.12472
1132.915, 32.23141
1133.397, 32.51137
1133.879, 32.88963
1134.361, 33.11773
1134.843, 33.19703
1135.325, 33.06812
1135.807, 32.74562
1136.289, 32.53959
1136.771, 32.54938
1137.254, 32.65536
1137.736, 32.75856
1138.218, 32.91185
1138.700, 33.31566
1139.182, 33.82890
1139.664, 33.91798
1140.146, 33.66893
1140.628, 33.50596
1141.111, 33.49499
1141.593, 33.44524
1142.075, 33.25457
1142.557, 33.02441
1143.039, 32.81294
1143.521, 32.68169
1144.003, 32.77948
1144.485, 33.01794
1144.968, 33.27310
1145.450, 33.48911
1145.932, 33.57940
1146.414, 33.51584
1146.896, 33.29520
1147.378, 32.77285
1147.860, 32.38888
1148.342, 32.70577
1148.824, 33.27982
1149.307, 33.74417
1149.789, 33.99974
1150.271, 33.80027
1150.753, 33.26392
1151.235, 32.99390
1151.717, 33.28038
1152.199, 33.64344
1152.681, 33.89025
1153.163, 34.02863
1153.646, 33.96764
1154.128, 33.87918
1154.610, 33.95092
1155.092, 34.13979
1155.574, 34.31372
1156.056, 34.44776
1156.538, 34.58380
1157.020, 34.85918
1157.503, 34.95785
1157.985, 34.63237
1158.467, 34.27731
1158.949, 34.07077
1159.431, 34.00829
1159.913, 34.16182
1160.395, 34.48025
1160.877, 34.54992
1161.359, 34.07930
1161.842, 33.90490
1162.324, 34.25481
1162.806, 34.56703
1163.288, 34.72636
1163.770, 34.74571
1164.252, 34.52741
1164.734, 34.25762
1165.216, 34.39848
1165.698, 35.00338
1166.181, 35.29884
1166.663, 35.23220
1167.145, 35.00928
1167.627, 34.56770
1168.109, 34.32267
1168.591, 34.51389
1169.073, 34.83710
1169.555, 34.93113
1170.037, 34.88015
1170.520, 35.05170
1171.002, 35.43361
1171.484, 35.47364
1171.966, 35.16091
1172.448, 35.07476
1172.930, 35.36573
1173.412, 35.68263
1173.894, 35.78627
1174.377, 35.82915
1174.859, 36.15628
1175.341, 36.54989
1175.823, 36.20595
1176.305, 35.45254
1176.787, 35.39658
1177.269, 35.97931
1177.751, 36.27450
1178.234, 35.98112
1178.716, 35.69918
1179.198, 35.95251
1179.680, 36.28764
1180.162, 36.16278
1180.644, 35.86668
1181.126, 35.69223
1181.608, 35.65926
1182.090, 35.82029
1182.573, 36.11477
1183.055, 36.32029
1183.537, 36.34031
1184.019, 36.36383
1184.501, 36.56865
1184.983, 36.70384
1185.465, 36.53138
1185.947, 36.32174
1186.429, 36.31308
1186.912, 36.43673
1187.394, 36.54859
1187.876, 36.63256
1188.358, 36.72504
1188.840, 36.86782
1189.322, 36.96192
1189.804, 37.02642
1190.286, 36.99829
1190.769, 36.72820
1191.251, 36.49882
1191.733, 36.59622
1192.215, 36.89229
1192.697, 37.05433
1193.179, 37.06700
1193.661, 37.06987
1194.143, 37.05649
1194.625, 37.05768
1195.108, 37.07756
1195.590, 37.12422
1196.072, 37.21514
1196.554, 37.26638
1197.036, 37.15377
1197.518, 36.97709
1198.000, 37.09925
1198.482, 37.47297
1198.964, 37.67177
1199.447, 37.69261
1199.929, 37.67088
1200.411, 37.64128
1200.893, 37.59286
1201.375, 37.51757
1201.857, 37.46912
1202.339, 37.51211
1202.821, 37.61912
1203.304, 37.77179
1203.786, 37.94050
1204.268, 38.10290
1204.750, 38.22669
1205.232, 38.21915
1205.714, 38.08329
1206.196, 37.97308
1206.678, 37.96949
1207.161, 38.00008
1207.643, 38.06275
1208.125, 38.09588
1208.607, 38.00474
1209.089, 37.90562
1209.571, 37.89547
1210.053, 37.98634
1210.535, 38.24978
1211.017, 38.71812
1211.500, 38.87882
1211.982, 38.28310
1212.464, 37.95665
1212.946, 38.28072
1213.428, 38.57058
1213.910, 38.57308
1214.392, 38.42492
1214.874, 38.16514
1215.356, 37.91170
1215.839, 38.07329
1216.321, 38.72281
1216.803, 39.06294
1217.285, 39.04794
1217.767, 39.02184
1218.249, 39.04042
1218.731, 39.07208
1219.213, 39.10489
1219.696, 39.10860
1220.178, 39.03149
1220.660, 38.94669
1221.142, 39.11029
1221.624, 39.39147
1222.106, 39.26153
1222.588, 38.84711
1223.070, 38.70304
1223.552, 38.87383
1224.035, 38.96344
1224.517, 38.78601
1224.999, 38.60285
1225.481, 38.64101
1225.963, 38.76383
1226.445, 38.82494
1226.927, 38.92478
1227.409, 39.26360
1227.891, 39.66756
1228.374, 39.87842
1228.856, 39.85912
1229.338, 39.64258
1229.820, 39.12843
1230.302, 38.78206
1230.784, 38.73013
1231.266, 38.83365
1231.748, 39.18671
1232.231, 39.53167
1232.713, 39.70001
1233.195, 39.77914
1233.677, 39.90451
1234.159, 40.05869
1234.641, 40.05803
1235.123, 39.83172
1235.605, 39.83114
1236.088, 40.13753
1236.570, 40.20191
1237.052, 39.84709
1237.534, 39.61128
1238.016, 39.86227
1238.498, 40.22552
1238.980, 40.14511
1239.462, 39.80199
1239.944, 39.65585
1240.427, 39.66549
1240.909, 39.71245
1241.391, 39.79500
1241.873, 39.98318
1242.355, 40.26426
1242.837, 40.46941
1243.319, 40.49438
1243.801, 40.54073
1244.283, 40.86614
1244.766, 41.14998
1245.248, 41.14635
1245.730, 40.98226
1246.212, 40.67282
1246.694, 40.35841
1247.176, 40.23844
1247.658, 40.33393
1248.140, 40.59383
1248.622, 41.24456
1249.105, 41.55695
1249.587, 41.19427
1250.069, 40.97860
1250.551, 41.16096
1251.033, 41.42306
1251.515, 41.59667
1251.997, 41.69046
1252.479, 41.71953
1252.962, 41.68013
1253.444, 41.48528
1253.926, 41.14318
1254.408, 41.20752
1254.890, 41.67133
1255.372, 41.94782
1255.854, 41.90725
1256.336, 41.84008
1256.818, 41.91158
1257.301, 42.04887
1257.783, 42.18348
1258.265, 42.32493
1258.747, 42.64721
1259.229, 42.85891
1259.711, 42.27625
1260.193, 41.39894
1260.675, 41.23787
1261.157, 41.81295
1261.640, 42.41888
1262.122, 42.88383
1262.604, 43.15643
1263.086, 43.12310
1263.568, 43.03450
1264.050, 42.90384
1264.532, 42.81777
1265.014, 42.87188
1265.497, 42.95296
1265.979, 42.93328
1266.461, 42.82911
1266.943, 42.66987
1267.425, 42.40033
1267.907, 42.59818
1268.389, 43.34384
1268.871, 43.58071
1269.354, 43.11198
1269.836, 42.82340
1270.318, 43.12155
1270.800, 43.50935
1271.282, 43.48396
1271.764, 43.32242
1272.246, 43.57166
1272.728, 43.92511
1273.210, 43.71685
1273.693, 43.26403
1274.175, 43.24317
1274.657, 43.58241
1275.139, 43.75474
1275.621, 43.62500
1276.103, 43.56932
1276.585, 43.85968
1277.067, 44.05831
1277.549, 43.87551
1278.032, 43.75230
1278.514, 44.04482
##END=



