##NAMES=Arsenic
##RRUFFID=R050653
##IDEAL CHEMISTRY=As
##LOCALITY=Japan
##OWNER=RRUFF
##SOURCE=University of Arizona Mineral Museum
##DESCRIPTION=Gray massive
##STATUS=The identification of this mineral has been confirmed by X-ray diffraction and chemical analysis
##URL=rruff.info/R050653
##MEASURED CHEMISTRY=As
90.26367, 5.789741
90.74579, 5.988246
91.22791, 5.900673
91.71002, 5.559262
92.19214, 5.247188
92.67426, 5.212385
93.15637, 5.389174
93.63850, 5.609601
94.12061, 5.872727
94.60273, 6.130000
95.08485, 6.263365
95.56696, 6.265832
96.04908, 6.183693
96.53120, 6.062027
97.01331, 5.902728
97.49543, 5.699357
97.97755, 5.394324
98.45966, 5.002366
98.94178, 4.766837
99.42390, 4.721107
99.90602, 4.786136
100.3881, 4.820376
100.8703, 4.821970
101.3524, 4.798885
101.8345, 4.727817
102.3166, 4.571399
102.7987, 4.539442
103.2808, 4.687347
103.7630, 4.969415
104.2451, 5.194328
104.7272, 5.412973
105.2093, 5.509745
105.6914, 5.383932
106.1735, 4.842168
106.6557, 4.409722
107.1378, 4.151336
107.6199, 4.067328
108.1020, 4.090741
108.5841, 4.352667
109.0662, 4.653427
109.5484, 4.817278
110.0305, 4.645094
110.5126, 4.535583
110.9947, 4.583199
111.4768, 4.833395
111.9590, 5.036096
112.4411, 5.139854
112.9232, 5.192224
113.4053, 5.251330
113.8874, 5.331415
114.3695, 5.417616
114.8517, 5.487633
115.3338, 5.497538
115.8159, 5.597402
116.2980, 5.929655
116.7801, 6.389049
117.2622, 6.743642
117.7444, 6.755277
118.2265, 6.726265
118.7086, 6.860212
119.1907, 7.256060
119.6728, 7.739988
120.1549, 8.239399
120.6371, 8.753939
121.1192, 9.284445
121.6013, 9.784432
122.0834, 10.31108
122.5655, 10.93074
123.0477, 11.72998
123.5298, 12.57200
124.0119, 13.32506
124.4940, 13.99496
124.9761, 14.66650
125.4582, 15.43440
125.9404, 16.24727
126.4225, 16.99679
126.9046, 17.46809
127.3867, 17.90299
127.8688, 18.79767
128.3509, 20.19729
128.8331, 21.61638
129.3152, 22.40969
129.7973, 22.70405
130.2794, 23.11532
130.7615, 23.98968
131.2436, 25.21560
131.7258, 26.41287
132.2079, 27.56590
132.6900, 28.69440
133.1721, 29.82850
133.6542, 30.96331
134.1364, 32.09697
134.6185, 33.21233
135.1006, 34.31825
135.5827, 35.51423
136.0648, 36.83522
136.5469, 38.23064
137.0291, 39.61770
137.5112, 41.01294
137.9933, 42.29276
138.4754, 43.41843
138.9575, 44.39508
139.4396, 45.09269
139.9218, 45.37580
140.4039, 45.36831
140.8860, 45.72977
141.3681, 46.65332
141.8502, 47.59888
142.3323, 48.04839
142.8145, 47.69660
143.2966, 47.66626
143.7787, 48.24533
144.2608, 49.42455
144.7429, 50.29290
145.2251, 50.67927
145.7072, 50.91799
146.1893, 51.32764
146.6714, 51.99562
147.1535, 52.69927
147.6356, 53.34300
148.1178, 53.87205
148.5999, 54.69738
149.0820, 56.04189
149.5641, 57.58685
150.0462, 58.94529
150.5283, 59.94026
151.0105, 60.90810
151.4926, 61.35440
151.9747, 61.74624
152.4568, 62.18143
152.9389, 62.67170
153.4210, 63.20030
153.9032, 63.75341
154.3853, 64.62953
154.8674, 65.26376
155.3495, 65.44202
155.8316, 64.98447
156.3138, 64.48928
156.7959, 63.93983
157.2780, 63.41851
157.7601, 63.08485
158.2422, 63.09322
158.7243, 63.19805
159.2065, 63.25904
159.6886, 63.11906
160.1707, 63.16716
160.6528, 63.68248
161.1349, 64.48904
161.6170, 65.12237
162.0992, 65.22053
162.5813, 65.21052
163.0634, 65.39956
163.5455, 66.13741
164.0276, 66.70069
164.5097, 66.55738
164.9919, 65.89885
165.4740, 65.46937
165.9561, 65.72573
166.4382, 66.32947
166.9203, 66.98046
167.4025, 67.59748
167.8846, 68.23528
168.3667, 68.96788
168.8488, 69.77753
169.3309, 70.54665
169.8130, 71.21680
170.2952, 71.80514
170.7773, 72.32204
171.2594, 72.69915
171.7415, 73.06584
172.2236, 73.51065
172.7057, 74.03391
173.1879, 74.65989
173.6700, 75.48392
174.1521, 76.41362
174.6342, 77.29540
175.1163, 78.07720
175.5984, 78.78765
176.0806, 79.39256
176.5627, 79.89180
177.0448, 80.46853
177.5269, 81.35969
178.0090, 82.45435
178.4911, 83.51529
178.9733, 84.37752
179.4554, 85.15172
179.9375, 86.02336
180.4196, 86.99052
180.9017, 88.02029
181.3839, 89.11510
181.8660, 90.24753
182.3481, 91.35997
182.8302, 92.42722
183.3123, 93.45006
183.7944, 94.41075
184.2766, 95.31093
184.7587, 96.19396
185.2408, 97.16669
185.7229, 98.19920
186.2050, 99.16132
186.6871, 99.88503
187.1693, 100.4699
187.6514, 101.2326
188.1335, 102.2043
188.6156, 103.3210
189.0977, 104.5339
189.5798, 105.8351
190.0620, 107.1843
190.5441, 108.6640
191.0262, 110.2257
191.5083, 111.5550
191.9904, 112.6586
192.4725, 113.5254
192.9547, 114.0767
193.4368, 114.3094
193.9189, 114.4895
194.4010, 114.8812
194.8831, 115.4482
195.3652, 115.5462
195.8474, 115.0427
196.3295, 114.2026
196.8116, 113.5946
197.2937, 113.2620
197.7758, 112.7839
198.2579, 111.8294
198.7401, 110.3853
199.2222, 109.0649
199.7043, 107.8984
200.1864, 106.9107
200.6685, 106.2430
201.1507, 105.9740
201.6328, 105.6660
202.1149, 105.0362
202.5970, 104.0559
203.0791, 103.0003
203.5612, 101.7916
204.0434, 100.6069
204.5255, 100.0397
205.0076, 100.2466
205.4897, 100.5326
205.9718, 100.4832
206.4539, 100.0619
206.9361, 99.51595
207.4182, 98.81452
207.9003, 98.02917
208.3824, 97.35064
208.8645, 96.76562
209.3466, 96.31937
209.8288, 96.06129
210.3109, 96.03345
210.7930, 96.02208
211.2751, 96.04988
211.7572, 96.07112
212.2393, 95.83054
212.7215, 95.12774
213.2036, 94.60463
213.6857, 94.85133
214.1678, 96.31332
214.6499, 96.97340
215.1321, 96.37821
215.6142, 94.87256
216.0963, 93.98766
216.5784, 93.90450
217.0605, 94.09485
217.5426, 94.24255
218.0248, 94.32554
218.5069, 94.42545
218.9890, 94.54554
219.4711, 94.68834
219.9532, 94.91643
220.4353, 95.40556
220.9175, 95.69842
221.3996, 95.41497
221.8817, 94.20042
222.3638, 93.35341
222.8459, 93.07191
223.3280, 93.26029
223.8102, 93.47041
224.2923, 93.75959
224.7744, 93.98797
225.2565, 94.06454
225.7386, 93.96237
226.2208, 93.75823
226.7029, 93.38091
227.1850, 92.89265
227.6671, 92.63757
228.1492, 92.66261
228.6313, 92.85267
229.1135, 93.17116
229.5956, 93.75039
230.0777, 94.16614
230.5598, 94.36316
231.0419, 94.37129
231.5240, 94.32222
232.0062, 94.14059
232.4883, 94.00636
232.9704, 94.00012
233.4525, 94.02926
233.9346, 94.40475
234.4167, 95.27424
234.8989, 96.52268
235.3810, 97.61900
235.8631, 98.58459
236.3452, 99.38540
236.8273, 99.97404
237.3095, 100.1634
237.7916, 100.5505
238.2737, 101.2685
238.7558, 102.2151
239.2379, 102.9712
239.7200, 103.4613
240.2022, 103.8618
240.6843, 104.2337
241.1664, 104.4279
241.6485, 104.9340
242.1306, 105.8845
242.6127, 107.1659
243.0949, 108.3146
243.5770, 109.2881
244.0591, 110.1966
244.5412, 111.0634
245.0233, 111.7973
245.5054, 112.7006
245.9876, 113.7432
246.4697, 114.9648
246.9518, 116.5526
247.4339, 118.6635
247.9160, 120.9163
248.3981, 123.0749
248.8803, 124.9672
249.3624, 127.2315
249.8445, 130.0640
250.3266, 133.2253
250.8087, 136.1009
251.2909, 138.7020
251.7730, 140.9543
252.2551, 142.9127
252.7372, 145.0054
253.2193, 145.7191
253.7014, 144.8661
254.1836, 142.7178
254.6657, 139.8145
255.1478, 135.9287
255.6299, 131.6724
256.1120, 127.0732
256.5941, 121.7462
257.0763, 117.4889
257.5584, 114.6908
258.0405, 112.6719
258.5226, 110.0856
259.0047, 106.6224
259.4868, 103.1842
259.9690, 100.0894
260.4511, 97.33046
260.9332, 94.96373
261.4153, 93.00706
261.8974, 91.39702
262.3795, 90.08780
262.8617, 89.15356
263.3438, 88.31554
263.8259, 87.49862
264.3080, 86.72218
264.7901, 85.80690
265.2722, 84.62016
265.7544, 83.45065
266.2365, 82.87230
266.7186, 83.20904
267.2007, 83.14000
267.6829, 82.14163
268.1650, 80.13246
268.6471, 78.38628
269.1292, 76.89723
269.6113, 75.62881
270.0934, 74.56314
270.5756, 73.73205
271.0577, 72.93721
271.5398, 72.08874
272.0219, 71.18758
272.5040, 70.55338
272.9861, 70.25497
273.4683, 70.08843
273.9504, 69.83718
274.4325, 69.48136
274.9146, 69.16495
275.3967, 68.96028
275.8788, 68.83492
276.3610, 68.49528
276.8431, 67.87150
277.3252, 67.25626
277.8073, 66.93996
278.2894, 66.94447
278.7715, 67.01614
279.2537, 67.16521
279.7358, 67.33042
280.2179, 67.21095
280.7000, 66.75561
281.1821, 66.24593
281.6642, 65.88271
282.1464, 65.66623
282.6285, 65.56048
283.1106, 65.59584
283.5927, 65.70795
284.0748, 65.73933
284.5569, 65.69001
285.0391, 65.54942
285.5212, 65.18866
286.0033, 64.64723
286.4854, 64.46030
286.9675, 64.80642
287.4496, 65.36391
287.9318, 65.41347
288.4139, 64.94630
288.8960, 64.52047
289.3781, 64.56666
289.8602, 64.97306
290.3424, 65.13551
290.8245, 64.94648
291.3066, 64.64712
291.7887, 64.66060
292.2708, 64.95309
292.7530, 65.20473
293.2351, 65.21907
293.7172, 65.05544
294.1993, 64.87422
294.6814, 64.67264
295.1635, 64.50097
295.6457, 64.45792
296.1278, 64.51308
296.6099, 64.53875
297.0920, 64.47153
297.5741, 64.33533
298.0562, 64.15150
298.5384, 63.91610
299.0205, 63.70681
299.5026, 63.48535
299.9847, 63.33916
300.4668, 62.87782
300.9489, 63.26710
301.4311, 63.42840
301.9132, 63.37400
302.3953, 62.45784
302.8774, 62.65447
303.3595, 62.59503
303.8416, 63.02702
304.3238, 63.33877
304.8059, 63.14773
305.2880, 62.84319
305.7701, 62.85550
306.2522, 63.13807
306.7343, 63.40679
307.2165, 63.53829
307.6986, 63.52652
308.1807, 63.32200
308.6628, 62.72731
309.1449, 62.23573
309.6270, 62.33036
310.1092, 62.86444
310.5913, 63.36490
311.0734, 63.60589
311.5555, 63.68143
312.0376, 63.64573
312.5197, 63.46563
313.0019, 63.29144
313.4840, 63.19005
313.9661, 63.15405
314.4482, 63.16674
314.9304, 63.21238
315.4125, 63.31129
315.8946, 63.53133
316.3767, 63.93627
316.8588, 64.18130
317.3409, 63.99530
317.8231, 63.60347
318.3052, 63.30359
318.7873, 63.26702
319.2694, 63.26732
319.7515, 63.19546
320.2336, 63.03674
320.7158, 62.93517
321.1979, 62.88999
321.6800, 62.93887
322.1621, 63.11669
322.6442, 63.75386
323.1263, 64.18659
323.6085, 64.16301
324.0906, 63.71308
324.5727, 63.33863
325.0548, 63.15670
325.5369, 63.04628
326.0190, 62.93523
326.5012, 62.61251
326.9833, 62.53027
327.4654, 62.88142
327.9475, 63.54359
328.4296, 64.02055
328.9117, 64.26878
329.3939, 64.36890
329.8760, 64.34879
330.3581, 64.16963
330.8402, 63.92682
331.3223, 63.47583
331.8044, 62.99730
332.2866, 62.88427
332.7687, 63.39490
333.2508, 63.89180
333.7329, 64.17265
334.2150, 64.19588
334.6971, 64.19504
335.1793, 64.15654
335.6614, 64.10718
336.1435, 64.10193
336.6256, 64.19897
337.1077, 64.17954
337.5899, 63.92581
338.0720, 63.45861
338.5541, 63.27024
339.0362, 63.43771
339.5183, 63.71235
340.0005, 63.85873
340.4826, 63.85527
340.9647, 63.90255
341.4468, 64.06950
341.9289, 64.29205
342.4110, 64.34003
342.8932, 64.19090
343.3753, 64.00797
343.8574, 63.92592
344.3395, 63.93208
344.8216, 63.81141
345.3037, 63.46996
345.7859, 63.13538
346.2680, 63.29150
346.7501, 63.90880
347.2322, 64.49607
347.7143, 64.77687
348.1964, 64.82324
348.6786, 64.87589
349.1607, 64.95023
349.6428, 64.99516
350.1249, 64.86997
350.6070, 64.65244
351.0891, 64.59023
351.5713, 64.93965
352.0534, 65.42848
352.5355, 65.64241
353.0176, 65.58617
353.4997, 65.45655
353.9818, 65.35645
354.4640, 65.29483
354.9461, 65.29273
355.4282, 65.40591
355.9103, 65.51737
356.3924, 65.51727
356.8745, 65.42430
357.3567, 65.31264
357.8388, 65.14314
358.3209, 65.01750
358.8030, 65.03172
359.2851, 65.22999
359.7672, 65.49741
360.2494, 65.82419
360.7315, 66.17467
361.2136, 66.47807
361.6957, 66.67009
362.1779, 66.84246
362.6600, 66.99998
363.1421, 67.12313
363.6242, 67.39999
364.1063, 67.95504
364.5884, 68.66550
365.0706, 69.40089
365.5527, 70.29395
366.0348, 71.03993
366.5169, 71.53226
366.9990, 71.78147
367.4811, 71.99265
367.9633, 72.32359
368.4454, 72.52585
368.9275, 72.45634
369.4096, 72.12708
369.8917, 71.50796
370.3738, 70.36433
370.8560, 68.93385
371.3381, 67.90794
371.8202, 67.48443
372.3023, 67.18357
372.7844, 66.81916
373.2665, 66.34302
373.7487, 66.01196
374.2308, 65.86805
374.7129, 65.82749
375.1950, 65.77043
375.6771, 65.67429
376.1592, 65.64196
376.6414, 65.74274
377.1235, 65.95000
377.6056, 65.96215
378.0877, 65.72519
378.5698, 65.47231
379.0519, 65.44376
379.5341, 65.64188
380.0162, 65.74970
380.4983, 65.69321
380.9804, 65.54145
381.4625, 65.47045
381.9446, 65.47672
382.4268, 65.43738
382.9089, 65.18228
383.3910, 64.81297
383.8731, 64.70819
384.3553, 64.94448
384.8374, 65.21714
385.3195, 65.09855
385.8016, 64.71177
386.2837, 64.41831
386.7658, 64.45341
387.2480, 64.63567
387.7301, 64.71764
388.2122, 64.70488
388.6943, 64.74712
389.1764, 65.05302
389.6585, 65.44653
390.1407, 65.69135
390.6228, 65.64677
391.1049, 65.54528
391.5870, 65.50455
392.0691, 65.52380
392.5512, 65.60078
393.0334, 65.93472
393.5155, 66.18694
393.9976, 66.04733
394.4797, 65.28731
394.9618, 64.78871
395.4439, 65.12479
395.9261, 65.80206
396.4082, 66.16306
396.8903, 65.74332
397.3724, 65.32017
397.8545, 65.12797
398.3366, 65.18343
398.8188, 65.19389
399.3009, 64.97813
399.7830, 64.81926
400.2651, 64.90682
400.7472, 65.51920
401.2293, 65.96153
401.7115, 66.18336
402.1936, 66.21634
402.6757, 66.13497
403.1578, 65.85007
403.6399, 65.60424
404.1220, 65.53688
404.6042, 65.70745
405.0863, 65.67181
405.5684, 65.33630
406.0505, 64.94540
406.5326, 64.84351
407.0147, 65.06709
407.4969, 65.31275
407.9790, 65.53260
408.4611, 65.70683
408.9432, 65.70383
409.4254, 65.50414
409.9075, 65.33565
410.3896, 65.43561
410.8717, 65.73607
411.3538, 65.90016
411.8359, 65.82283
412.3181, 65.73103
412.8002, 65.45558
413.2823, 65.89877
413.7644, 66.11400
414.2465, 66.11352
414.7286, 65.25125
415.2108, 65.50179
415.6929, 65.30637
416.1750, 66.35954
416.6571, 66.47201
417.1392, 66.28762
417.6213, 66.17826
418.1035, 66.36008
418.5856, 66.55044
419.0677, 66.57875
419.5498, 66.47673
420.0319, 66.36137
420.5140, 66.26649
420.9962, 66.18198
421.4783, 66.09151
421.9604, 65.96497
422.4425, 65.90888
422.9246, 66.01794
423.4067, 66.19108
423.8889, 66.29105
424.3710, 66.23484
424.8531, 66.17267
425.3352, 66.13453
425.8173, 66.12053
426.2994, 66.10998
426.7816, 66.11002
427.2637, 66.10631
427.7458, 66.09567
428.2279, 66.10082
428.7100, 66.03321
429.1921, 65.84965
429.6743, 65.61501
430.1564, 65.47238
430.6385, 65.41437
431.1206, 65.48273
431.6028, 65.80620
432.0849, 66.36124
432.5670, 66.41174
433.0491, 65.84135
433.5312, 65.24525
434.0133, 65.39723
434.4955, 66.16905
434.9776, 66.67017
435.4597, 66.59275
435.9418, 66.24544
436.4239, 66.17370
436.9060, 66.33976
437.3882, 66.49588
437.8703, 66.50021
438.3524, 66.39194
438.8345, 66.16974
439.3166, 65.80017
439.7987, 65.54210
440.2809, 65.70040
440.7630, 66.08654
441.2451, 66.40504
441.7272, 66.54148
442.2093, 66.57875
442.6914, 66.51813
443.1736, 66.37647
443.6557, 66.25888
444.1378, 66.17741
444.6199, 66.15073
445.1020, 66.21244
445.5841, 66.49149
446.0663, 66.61874
446.5484, 66.38945
447.0305, 66.01219
447.5126, 65.83996
447.9947, 66.18825
448.4768, 66.36054
448.9590, 66.06161
449.4411, 65.27338
449.9232, 65.04664
450.4053, 65.68324
450.8874, 66.44129
451.3695, 66.73457
451.8517, 66.43496
452.3338, 66.26118
452.8159, 66.33769
453.2980, 66.50093
453.7801, 66.33224
454.2622, 65.79916
454.7444, 65.43338
455.2265, 65.59860
455.7086, 66.14501
456.1907, 66.43642
456.6729, 66.46841
457.1550, 66.34209
457.6371, 65.99218
458.1192, 65.56064
458.6013, 65.42918
459.0834, 65.83299
459.5656, 66.30791
460.0477, 66.33671
460.5298, 66.01857
461.0119, 65.64870
461.4940, 65.21029
461.9761, 64.89056
462.4583, 64.91424
462.9404, 65.32671
463.4225, 65.66500
463.9046, 65.62656
464.3867, 65.45606
464.8688, 65.38595
465.3510, 65.59946
465.8331, 65.77215
466.3152, 65.88024
466.7973, 65.90556
467.2794, 65.78046
467.7615, 65.17512
468.2437, 64.74055
468.7258, 64.76399
469.2079, 65.40162
469.6900, 65.76020
470.1721, 65.71835
470.6542, 65.52556
471.1364, 65.43894
471.6185, 65.48277
472.1006, 65.54917
472.5827, 65.66181
473.0648, 65.75889
473.5469, 65.59223
474.0291, 65.13632
474.5112, 64.71970
474.9933, 64.57972
475.4754, 64.64791
475.9575, 64.58154
476.4396, 64.34238
476.9218, 64.17384
477.4039, 64.44532
477.8860, 64.98557
478.3681, 65.40066
478.8503, 65.58318
479.3324, 65.56679
479.8145, 65.19610
480.2966, 64.59933
480.7787, 64.26144
481.2608, 64.79002
481.7430, 65.40644
482.2251, 65.50259
482.7072, 64.91092
483.1893, 64.38332
483.6714, 64.10886
484.1535, 64.05793
484.6357, 64.19738
485.1178, 64.75998
485.5999, 65.24072
486.0820, 65.61147
486.5641, 65.85300
487.0462, 65.87277
487.5284, 65.51187
488.0105, 65.14439
488.4926, 64.93209
488.9747, 64.91831
489.4568, 64.78553
489.9389, 64.50029
490.4211, 64.15824
490.9032, 63.81011
491.3853, 63.43904
491.8674, 63.33669
492.3495, 63.66189
492.8316, 64.17065
493.3138, 64.28154
493.7959, 64.02878
494.2780, 63.79283
494.7601, 63.88459
495.2422, 64.12251
495.7243, 64.10011
496.2065, 63.78662
496.6886, 63.53777
497.1707, 63.75406
497.6528, 64.17238
498.1349, 64.43272
498.6170, 64.39436
499.0992, 64.23570
499.5813, 63.92432
500.0634, 63.56123
500.5455, 63.39002
501.0276, 63.73815
501.5097, 64.07185
501.9919, 64.12793
502.4740, 63.83048
502.9561, 63.67666
503.4382, 63.83685
503.9203, 64.05663
504.4025, 64.16561
504.8846, 64.12476
505.3667, 64.03548
505.8488, 63.82203
506.3309, 63.61484
506.8130, 63.81166
507.2952, 64.57367
507.7773, 64.99884
508.2594, 64.53669
508.7415, 63.42367
509.2236, 63.12789
509.7057, 63.71132
510.1879, 64.32535
510.6700, 64.06817
511.1521, 63.27284
511.6342, 63.01833
512.1163, 63.60482
512.5984, 64.27966
513.0806, 64.16695
513.5627, 63.55574
514.0448, 63.05001
514.5269, 62.99794
515.0090, 63.07159
515.4911, 63.05342
515.9733, 62.95874
516.4554, 62.91315
516.9375, 63.07997
517.4196, 63.22526
517.9017, 63.19436
518.3839, 62.88095
518.8660, 62.60742
519.3481, 62.41699
519.8302, 62.27975
520.3123, 62.16803
520.7944, 62.06962
521.2766, 62.02110
521.7587, 62.04559
522.2408, 62.12302
522.7229, 62.15758
523.2050, 62.12242
523.6871, 62.14783
524.1693, 62.35783
524.6514, 62.72593
525.1335, 62.94355
525.6156, 63.00324
526.0977, 62.96554
526.5798, 62.83851
527.0620, 62.65923
527.5441, 62.54492
528.0262, 62.53907
528.5083, 62.57258
528.9904, 62.59080
529.4725, 62.59101
529.9547, 62.56694
530.4368, 62.53070
530.9189, 62.45526
531.4010, 62.25434
531.8831, 61.93173
532.3652, 61.78441
532.8474, 62.07145
533.3295, 62.44838
533.8116, 62.69991
534.2937, 62.73565
534.7758, 62.75477
535.2579, 62.78055
535.7401, 62.78444
536.2222, 62.73018
536.7043, 62.62663
537.1865, 62.42788
537.6686, 62.04220
538.1507, 61.56345
538.6328, 61.50350
539.1149, 61.92582
539.5970, 62.37234
540.0792, 62.56029
540.5613, 62.53501
541.0434, 62.45533
541.5255, 62.31559
542.0076, 62.23328
542.4897, 62.44082
542.9719, 62.77546
543.4540, 62.89485
543.9361, 62.60895
544.4182, 62.24789
544.9003, 61.89386
545.3824, 61.16629
545.8646, 61.73871
546.3467, 62.08315
546.8288, 62.21189
547.3109, 61.47886
547.7930, 61.85863
548.2751, 61.79243
548.7573, 61.70796
549.2394, 62.24435
549.7215, 61.63665
550.2036, 62.16320
550.6857, 62.23698
551.1678, 62.51797
551.6500, 62.35027
552.1321, 62.32113
552.6142, 62.74087
553.0963, 62.91207
553.5784, 62.26232
554.0605, 62.31195
554.5427, 61.97338
555.0248, 62.48382
555.5069, 62.76630
555.9890, 62.83308
556.4711, 62.03807
556.9532, 62.35588
557.4354, 62.22772
557.9175, 62.08128
558.3996, 62.55570
558.8817, 61.88604
559.3638, 62.35063
559.8459, 62.36244
560.3281, 62.58147
560.8102, 62.35179
561.2923, 62.26070
561.7744, 62.61847
562.2565, 62.72771
562.7386, 62.44637
563.2208, 62.67857
563.7029, 61.99324
564.1850, 62.11306
564.6671, 62.58027
565.1492, 61.99226
565.6313, 61.81482
566.1135, 61.69911
566.5956, 61.93768
567.0777, 61.61412
567.5598, 62.05632
568.0419, 62.27057
568.5240, 62.26910
569.0062, 61.40584
569.4883, 61.65541
569.9704, 61.45901
570.4525, 61.24433
570.9346, 61.65052
571.4167, 62.00430
571.8989, 62.26333
572.3810, 62.46867
572.8631, 62.34275
573.3452, 61.93095
573.8273, 61.54766
574.3094, 61.13536
574.7916, 60.92430
575.2737, 61.13190
575.7558, 62.03691
576.2379, 62.50742
576.7200, 62.19599
577.2021, 61.70606
577.6843, 61.59430
578.1664, 62.03195
578.6485, 62.33282
579.1306, 62.40147
579.6127, 62.32763
580.0948, 62.30853
580.5770, 62.34455
581.0591, 62.28844
581.5412, 61.98186
582.0233, 61.60138
582.5054, 61.60431
582.9875, 61.94308
583.4697, 62.25793
583.9518, 62.33055
584.4340, 62.23604
584.9161, 61.97544
585.3982, 61.51520
585.8803, 61.23451
586.3624, 61.54542
586.8445, 62.01388
587.3267, 62.23783
587.8088, 61.78384
588.2909, 61.53346
588.7730, 61.76517
589.2551, 62.21227
589.7372, 62.42065
590.2194, 62.27168
590.7015, 62.11481
591.1836, 62.03187
591.6657, 62.00832
592.1478, 61.97561
592.6299, 61.93314
593.1121, 61.88379
593.5942, 61.85044
594.0763, 61.81294
594.5584, 61.62222
595.0405, 61.26344
595.5226, 61.05072
596.0048, 61.45804
596.4869, 62.12360
596.9690, 62.50661
597.4511, 62.40187
597.9332, 62.22216
598.4153, 62.23301
598.8975, 62.31352
599.3796, 62.28241
599.8617, 61.79951
600.3438, 61.52343
600.8259, 61.77323
601.3080, 62.39146
601.7902, 62.75315
602.2723, 62.74396
602.7544, 62.66132
603.2365, 62.59900
603.7186, 62.55648
604.2007, 62.51423
604.6829, 62.46392
605.1650, 62.44807
605.6471, 62.56050
606.1292, 62.74791
606.6113, 62.78277
607.0934, 62.62981
607.5756, 62.38068
608.0577, 62.03273
608.5398, 61.67308
609.0219, 61.46265
609.5040, 61.52482
609.9861, 61.64499
610.4683, 61.73801
610.9504, 61.80202
611.4325, 61.83293
611.9146, 61.78019
612.3967, 61.74781
612.8788, 61.79117
613.3610, 61.90023
613.8431, 61.93958
614.3252, 61.86129
614.8073, 61.79505
615.2894, 61.80797
615.7715, 61.90364
616.2537, 62.01920
616.7358, 62.16182
617.2179, 62.28428
617.7000, 62.30536
618.1821, 62.25991
618.6642, 62.27782
619.1464, 62.39028
619.6285, 62.53253
620.1106, 62.71312
620.5927, 62.86483
621.0748, 62.87279
621.5569, 62.43603
622.0391, 62.10603
622.5212, 62.21495
623.0033, 62.63230
623.4854, 62.95655
623.9675, 63.18903
624.4496, 63.23431
624.9318, 62.97264
625.4139, 62.41550
625.8960, 62.15469
626.3781, 62.27338
626.8602, 62.50238
627.3423, 62.67986
627.8245, 62.80896
628.3066, 63.05073
628.7887, 63.44276
629.2708, 63.72684
629.7529, 63.51822
630.2350, 63.00646
630.7172, 62.61804
631.1993, 62.45453
631.6815, 62.40462
632.1636, 62.42672
632.6457, 62.49078
633.1278, 62.54970
633.6099, 62.54424
634.0920, 62.57746
634.5742, 62.72538
635.0563, 62.94615
635.5384, 63.08645
636.0205, 63.15893
636.5026, 63.12889
636.9847, 62.96032
637.4669, 62.66459
637.9490, 62.38170
638.4311, 62.09132
638.9132, 61.89838
639.3953, 61.91628
639.8774, 62.09948
640.3596, 62.21681
640.8417, 62.25093
641.3238, 62.33421
641.8059, 62.66976
642.2880, 63.10242
642.7701, 63.42565
643.2523, 63.62920
643.7344, 63.63085
644.2165, 63.19932
644.6986, 62.60289
645.1807, 62.20265
645.6628, 62.15428
646.1450, 62.21532
646.6271, 62.40049
647.1092, 62.65892
647.5913, 62.85453
648.0734, 62.96950
648.5555, 63.08809
649.0377, 63.30192
649.5198, 63.53080
650.0019, 63.28008
650.4840, 62.55314
650.9661, 62.01829
651.4482, 62.28028
651.9304, 62.95359
652.4125, 63.42535
652.8946, 63.66498
653.3767, 63.69157
653.8588, 63.24982
654.3409, 62.76548
654.8231, 62.64359
655.3052, 63.12907
655.7873, 63.46780
656.2694, 63.39646
656.7515, 63.15701
657.2336, 62.96198
657.7158, 62.72097
658.1979, 62.75117
658.6800, 63.19292
659.1621, 63.78364
659.6442, 64.05623
660.1263, 64.00686
660.6085, 63.86530
661.0906, 63.63927
661.5727, 63.43443
662.0548, 63.48431
662.5369, 63.73035
663.0190, 63.94998
663.5012, 63.98823
663.9833, 63.98304
664.4654, 64.08650
664.9475, 64.27357
665.4296, 64.32800
665.9117, 63.98911
666.3939, 63.66545
666.8760, 63.59564
667.3581, 63.83391
667.8402, 63.96466
668.3223, 63.96047
668.8044, 63.89568
669.2866, 63.80692
669.7687, 63.69069
670.2508, 63.62749
670.7329, 63.62925
671.2150, 63.64518
671.6971, 63.60723
672.1793, 63.53693
672.6614, 63.48331
673.1435, 63.43914
673.6256, 63.45926
674.1077, 63.71264
674.5898, 64.02866
675.0720, 64.14133
675.5541, 63.58593
676.0362, 63.24660
676.5183, 63.57044
677.0004, 64.28503
677.4825, 64.62711
677.9647, 64.39152
678.4468, 64.17901
678.9290, 64.17263
679.4111, 64.31810
679.8932, 64.37389
680.3753, 64.34145
680.8574, 64.18971
681.3395, 63.71901
681.8217, 63.16533
682.3038, 63.13484
682.7859, 63.59235
683.2680, 64.01517
683.7501, 63.92458
684.2322, 63.73469
684.7144, 63.85046
685.1965, 64.39304
685.6786, 64.76711
686.1607, 64.68395
686.6428, 64.46466
687.1249, 64.33743
687.6071, 64.32871
688.0892, 64.37225
688.5713, 64.51803
689.0534, 64.63718
689.5355, 64.52213
690.0176, 64.18650
690.4998, 63.96654
690.9819, 63.93925
691.4640, 64.00311
691.9461, 64.04650
692.4282, 64.07522
692.9103, 64.10380
693.3925, 64.19003
693.8746, 64.21520
694.3567, 63.93972
694.8388, 63.55382
695.3209, 63.50523
695.8030, 64.59820
696.2852, 65.21791
696.7673, 64.70876
697.2494, 63.38261
697.7315, 62.96512
698.2136, 63.73880
698.6957, 64.49113
699.1779, 64.66593
699.6600, 64.39248
700.1421, 64.20101
700.6242, 64.09086
701.1063, 64.06694
701.5884, 64.21771
702.0706, 64.41243
702.5527, 64.49253
703.0348, 64.44660
703.5169, 64.34017
703.9990, 64.12557
704.4811, 63.91927
704.9633, 63.78974
705.4454, 63.71650
705.9275, 63.82604
706.4096, 64.26576
706.8917, 64.72134
707.3738, 64.90668
707.8560, 64.78929
708.3381, 64.66595
708.8202, 64.54398
709.3023, 64.46965
709.7844, 64.54279
710.2665, 64.71188
710.7487, 64.85497
711.2308, 64.98517
711.7129, 64.96646
712.1950, 64.47763
712.6771, 63.82649
713.1592, 63.47702
713.6414, 63.83491
714.1235, 64.20734
714.6056, 64.43022
715.0877, 64.56873
715.5698, 64.76154
716.0519, 65.07774
716.5341, 65.25515
717.0162, 65.18964
717.4983, 64.97093
717.9804, 64.81554
718.4625, 64.72655
718.9446, 64.77134
719.4268, 65.19395
719.9089, 65.62554
720.3910, 65.45538
720.8731, 64.82506
721.3552, 64.32887
721.8373, 64.32303
722.3195, 64.48354
722.8016, 64.76455
723.2837, 65.15413
723.7658, 65.14263
724.2479, 64.30096
724.7300, 63.63037
725.2122, 63.68877
725.6943, 64.49044
726.1765, 64.94217
726.6586, 65.02248
727.1407, 64.91453
727.6228, 64.71907
728.1049, 64.45291
728.5870, 64.11682
729.0692, 63.70631
729.5513, 63.39433
730.0334, 63.32684
730.5155, 63.40262
730.9976, 63.54582
731.4797, 63.77436
731.9619, 63.97461
732.4440, 64.10065
732.9261, 64.20951
733.4082, 64.37828
733.8903, 64.70498
734.3724, 64.71961
734.8546, 64.32265
735.3367, 63.79664
735.8188, 63.45017
736.3009, 63.27823
736.7830, 63.30321
737.2651, 63.59655
737.7473, 63.86414
738.2294, 63.57459
738.7115, 63.13482
739.1936, 62.87334
739.6757, 63.42440
740.1578, 63.74749
740.6400, 63.85489
741.1221, 63.10050
741.6042, 63.45892
742.0863, 63.37138
742.5684, 63.26555
743.0505, 63.78059
743.5327, 63.15155
744.0148, 63.65674
744.4969, 63.70917
744.9790, 63.96882
745.4611, 63.77975
745.9432, 63.72928
746.4254, 63.51404
746.9075, 63.34814
747.3896, 63.21993
747.8717, 63.24084
748.3538, 63.26999
748.8359, 63.28921
749.3181, 63.27599
749.8002, 63.11773
750.2823, 62.66198
750.7644, 62.32744
751.2465, 62.25417
751.7286, 62.40331
752.2108, 62.65286
752.6929, 63.00851
753.1750, 63.24197
753.6571, 63.14900
754.1392, 62.88438
754.6213, 62.66825
755.1035, 62.50201
755.5856, 62.40177
756.0677, 62.45531
756.5498, 62.50622
757.0319, 62.40211
757.5140, 62.12992
757.9962, 62.09430
758.4783, 62.51453
758.9604, 62.88375
759.4425, 62.95507
759.9246, 62.73600
760.4067, 62.56765
760.8889, 62.45435
761.3710, 62.35952
761.8531, 62.15008
762.3352, 61.97461
762.8173, 62.24960
763.2994, 62.97249
763.7816, 63.50666
764.2637, 63.29755
764.7458, 62.86058
765.2279, 62.56123
765.7100, 62.45684
766.1921, 62.38808
766.6743, 62.38472
767.1564, 62.36515
767.6385, 62.23473
768.1206, 61.95639
768.6027, 61.95861
769.0848, 62.28589
769.5670, 62.63967
770.0491, 62.75741
770.5312, 62.70302
771.0133, 62.56756
771.4954, 62.35061
771.9775, 62.19110
772.4597, 62.20933
772.9418, 62.30277
773.4240, 62.38356
773.9061, 62.41961
774.3882, 62.50298
774.8703, 62.72088
775.3524, 62.89168
775.8345, 62.83093
776.3167, 62.51453
776.7988, 62.26326
777.2809, 62.09784
777.7630, 62.00403
778.2451, 62.00117
778.7272, 62.05262
779.2094, 62.06916
779.6915, 62.01115
780.1736, 62.02088
780.6557, 62.35320
781.1378, 62.70376
781.6199, 62.76916
782.1021, 62.28553
782.5842, 61.85019
783.0663, 61.37653
783.5484, 61.04740
784.0305, 61.16893
784.5126, 61.76463
784.9948, 62.05636
785.4769, 61.90546
785.9590, 61.65763
786.4411, 61.80347
786.9232, 62.11700
787.4053, 62.15388
787.8875, 61.68652
788.3696, 61.26408
788.8517, 61.16422
789.3338, 61.24318
789.8159, 61.34409
790.2980, 61.51207
790.7802, 61.59270
791.2623, 61.57354
791.7444, 61.47574
792.2265, 61.26665
792.7086, 60.95950
793.1907, 60.89309
793.6729, 61.19249
794.1550, 61.45944
794.6371, 61.10741
795.1192, 60.45916
795.6013, 60.04067
796.0834, 60.06433
796.5656, 60.19616
797.0477, 60.45514
797.5298, 60.69350
798.0119, 60.71050
798.4940, 60.29799
798.9761, 60.17963
799.4583, 60.50937
799.9404, 60.96092
800.4225, 61.09871
800.9046, 60.95918
801.3867, 60.74529
801.8688, 60.47094
802.3510, 60.23410
802.8331, 60.08801
803.3152, 60.05796
803.7973, 60.20178
804.2794, 60.78219
804.7615, 61.12108
805.2437, 60.83398
805.7258, 60.37459
806.2079, 60.24005
806.6900, 60.53979
807.1721, 60.75504
807.6542, 60.85496
808.1364, 60.79906
808.6185, 60.33100
809.1006, 59.65587
809.5827, 59.43965
810.0648, 59.94684
810.5469, 60.54038
811.0291, 60.84459
811.5112, 60.92673
811.9933, 60.86427
812.4754, 60.52642
812.9575, 60.27020
813.4396, 60.12480
813.9218, 60.05289
814.4039, 60.00255
814.8860, 59.96833
815.3681, 60.08105
815.8502, 60.39262
816.3323, 60.68930
816.8145, 60.73152
817.2966, 60.57872
817.7787, 60.25951
818.2608, 59.63572
818.7429, 59.34022
819.2251, 60.00340
819.7072, 60.95643
820.1893, 61.53405
820.6714, 61.58158
821.1536, 61.52354
821.6357, 61.34140
822.1178, 61.08479
822.5999, 60.77166
823.0820, 60.41938
823.5641, 60.13172
824.0463, 59.91235
824.5284, 59.81042
825.0105, 59.95366
825.4926, 60.19981
825.9747, 60.39962
826.4568, 60.54320
826.9390, 60.57618
827.4211, 60.30650
827.9032, 60.06378
828.3853, 60.11655
828.8674, 60.58348
829.3495, 60.71675
829.8317, 60.44183
830.3138, 60.13658
830.7959, 60.27305
831.2780, 60.62774
831.7601, 60.65441
832.2422, 60.27966
832.7244, 59.99145
833.2065, 60.22911
833.6886, 60.58347
834.1707, 60.74585
834.6528, 60.63832
835.1349, 60.48578
835.6171, 60.19195
836.0992, 60.01707
836.5813, 60.24099
837.0634, 60.81801
837.5455, 61.00533
838.0276, 60.79582
838.5098, 60.52939
838.9919, 60.37853
839.4740, 60.36128
839.9561, 60.56659
840.4382, 60.99212
840.9203, 61.31367
841.4025, 61.37595
841.8846, 61.35184
842.3667, 61.32482
842.8488, 61.29356
843.3309, 61.12130
843.8130, 60.74868
844.2952, 60.57048
844.7773, 60.99299
845.2594, 61.72358
845.7415, 62.17121
846.2236, 62.33118
846.7057, 62.15505
847.1879, 61.03797
847.6700, 60.11286
848.1521, 60.26358
848.6342, 61.34086
849.1163, 61.82564
849.5984, 61.36510
850.0806, 60.92981
850.5627, 60.81731
851.0448, 60.96610
851.5269, 61.28557
852.0090, 61.73757
852.4911, 62.00935
852.9733, 61.86004
853.4554, 61.54417
853.9375, 61.20598
854.4196, 60.88396
854.9017, 60.67285
855.3839, 60.54831
855.8660, 60.62806
856.3481, 61.09135
856.8302, 61.68639
857.3123, 61.79351
857.7944, 61.36876
858.2766, 61.04996
858.7587, 60.99426
859.2408, 61.12066
859.7229, 61.51602
860.2050, 61.97686
860.6871, 62.04932
861.1693, 61.20586
861.6514, 60.55425
862.1335, 60.68732
862.6156, 61.17212
863.0977, 61.42154
863.5798, 61.37884
864.0620, 61.24586
864.5441, 60.99670
865.0262, 60.75830
865.5083, 60.78647
865.9904, 60.95495
866.4726, 60.78184
866.9547, 60.08883
867.4368, 59.58549
867.9189, 60.00177
868.4011, 60.70431
868.8832, 61.10170
869.3653, 60.99422
869.8474, 60.86953
870.3295, 60.73000
870.8116, 60.57580
871.2938, 60.41502
871.7759, 60.24449
872.2580, 59.99048
872.7401, 59.64683
873.2222, 59.40849
873.7043, 59.50564
874.1865, 59.73343
874.6686, 59.90594
875.1507, 60.00772
875.6328, 60.08356
876.1149, 60.14972
876.5970, 60.18377
877.0792, 60.18143
877.5613, 60.14063
878.0434, 60.02200
878.5255, 59.82263
879.0076, 59.63448
879.4897, 59.48442
879.9719, 59.39683
880.4540, 59.43017
880.9361, 59.56120
881.4182, 59.70904
881.9003, 59.89550
882.3824, 60.03269
882.8646, 60.08588
883.3467, 60.06836
883.8288, 60.01375
884.3109, 59.92833
884.7930, 59.76111
885.2751, 59.48011
885.7573, 59.14372
886.2394, 58.77256
886.7215, 58.42609
887.2036, 58.27564
887.6857, 58.57388
888.1678, 58.75330
888.6500, 58.38727
889.1321, 57.83965
889.6142, 57.60297
890.0963, 57.82573
890.5784, 57.99534
891.0605, 58.09320
891.5427, 58.10607
892.0248, 57.89093
892.5069, 57.58426
892.9890, 57.67976
893.4711, 58.29393
893.9532, 58.82220
894.4354, 58.79301
894.9175, 58.54277
895.3996, 58.33454
895.8817, 58.21510
896.3638, 58.03936
896.8459, 57.76657
897.3281, 57.52430
897.8102, 57.41144
898.2923, 57.40239
898.7744, 57.33204
899.2565, 57.21371
899.7386, 57.19643
900.2208, 57.47817
900.7029, 57.80896
901.1850, 58.03807
901.6671, 58.15539
902.1492, 58.15688
902.6313, 57.96774
903.1135, 57.80083
903.5956, 57.71210
904.0777, 57.68205
904.5598, 57.69690
905.0419, 57.73882
905.5240, 57.64673
906.0062, 57.25306
906.4883, 56.88089
906.9704, 56.85668
907.4525, 57.04068
907.9346, 57.20733
908.4167, 57.35803
908.8989, 57.39365
909.3810, 57.23275
909.8631, 57.04405
910.3452, 57.10265
910.8273, 57.38005
911.3094, 57.38559
911.7916, 57.02114
912.2737, 56.70717
912.7558, 56.95610
913.2380, 57.39436
913.7201, 57.62580
914.2022, 57.56969
914.6843, 57.42177
915.1664, 57.15734
915.6486, 56.87920
916.1307, 56.60820
916.6128, 56.35386
917.0949, 56.30242
917.5770, 56.45376
918.0591, 56.66700
918.5413, 56.92838
919.0234, 57.15032
919.5055, 57.24793
919.9876, 57.22443
920.4697, 57.10890
920.9518, 56.69085
921.4340, 56.45877
921.9161, 56.56328
922.3982, 56.89016
922.8803, 57.23711
923.3624, 57.59283
923.8445, 57.63958
924.3267, 57.18061
924.8088, 56.63399
925.2909, 56.40526
925.7730, 56.40539
926.2551, 56.50969
926.7372, 56.79851
927.2194, 56.98988
927.7015, 57.04784
928.1836, 57.01430
928.6657, 56.90216
929.1478, 56.71266
929.6299, 56.55883
930.1121, 56.44636
930.5942, 56.39295
931.0763, 56.44126
931.5584, 56.54045
932.0405, 56.65316
932.5226, 56.77287
933.0048, 56.85111
933.4869, 56.73665
933.9690, 56.76507
934.4511, 57.16721
934.9332, 57.80038
935.4153, 57.82139
935.8975, 57.26072
936.3796, 56.79100
936.8617, 56.74791
937.3438, 56.90652
937.8259, 57.07436
938.3080, 57.26883
938.7902, 57.52104
939.2723, 57.99978
939.7544, 58.31292
940.2365, 58.38293
940.7186, 58.31704
941.2007, 58.22689
941.6829, 58.11940
942.1650, 58.09914
942.6471, 58.19613
943.1292, 58.25288
943.6113, 58.06448
944.0934, 57.80420
944.5756, 57.62938
945.0577, 57.56533
945.5398, 57.59171
946.0219, 57.73999
946.5040, 57.91536
946.9861, 58.09258
947.4683, 58.25862
947.9504, 58.29642
948.4325, 58.22078
948.9146, 58.15545
949.3967, 58.19481
949.8788, 58.25074
950.3610, 58.28505
950.8431, 58.28438
951.3252, 58.19733
951.8073, 57.88038
952.2894, 57.76614
952.7715, 57.98124
953.2537, 58.32563
953.7358, 58.51868
954.2179, 58.56059
954.7000, 58.38047
955.1821, 57.88899
955.6642, 57.56248
956.1464, 57.98232
956.6285, 58.56010
957.1106, 58.72506
957.5927, 58.31306
958.0748, 58.05676
958.5569, 57.96236
959.0391, 58.00609
959.5212, 58.23255
960.0033, 58.57296
960.4855, 58.85824
960.9676, 59.07973
961.4497, 59.18846
961.9318, 59.12740
962.4139, 58.98092
962.8961, 58.67777
963.3782, 58.33490
963.8603, 58.28670
964.3424, 58.62298
964.8245, 58.88408
965.3066, 58.98698
965.7888, 58.96452
966.2709, 58.75103
966.7530, 58.47633
967.2351, 58.42122
967.7172, 58.71989
968.1993, 58.98065
968.6815, 58.97425
969.1636, 58.94896
969.6457, 59.11522
970.1278, 59.50478
970.6099, 59.61272
971.0920, 59.41932
971.5742, 59.19690
972.0563, 59.03021
972.5384, 59.00977
973.0205, 59.44932
973.5026, 60.18203
973.9847, 60.54522
974.4669, 59.94905
974.9490, 59.42242
975.4311, 59.15688
975.9132, 59.10149
976.3953, 59.16616
976.8774, 59.34997
977.3596, 59.65519
977.8417, 60.11795
978.3238, 60.53765
978.8059, 60.78948
979.2880, 60.86886
979.7701, 60.74985
980.2523, 60.36076
980.7344, 59.96343
981.2165, 59.42195
981.6986, 59.14190
982.1807, 59.54361
982.6628, 60.41083
983.1450, 60.71838
983.6271, 60.54530
984.1092, 60.38850
984.5913, 60.55109
985.0734, 60.78837
985.5555, 61.03279
986.0377, 61.23778
986.5198, 61.30471
987.0019, 61.20834
987.4840, 61.01881
987.9661, 60.68378
988.4482, 60.44105
988.9304, 60.81169
989.4125, 61.45479
989.8946, 61.65355
990.3767, 61.20555
990.8588, 60.84422
991.3409, 60.92934
991.8231, 61.14678
992.3052, 61.36673
992.7873, 61.57824
993.2694, 61.46820
993.7515, 61.02105
994.2336, 60.70023
994.7158, 60.85841
995.1979, 61.18668
995.6800, 61.33787
996.1621, 61.37855
996.6442, 61.46321
997.1263, 61.84087
997.6085, 61.93203
998.0906, 61.50086
998.5727, 61.00370
999.0548, 61.14719
999.5369, 61.79794
1000.019, 62.03215
1000.501, 61.71754
1000.983, 61.48150
1001.465, 61.99571
1001.948, 62.60015
1002.430, 62.73888
1002.912, 62.37464
1003.394, 62.13892
1003.876, 62.02439
1004.358, 62.07624
1004.840, 62.39529
1005.322, 62.78919
1005.804, 62.86127
1006.287, 62.70665
1006.769, 62.55685
1007.251, 62.46131
1007.733, 62.43854
1008.215, 62.51189
1008.697, 62.64875
1009.179, 62.87386
1009.661, 63.21478
1010.144, 63.22341
1010.626, 62.85770
1011.108, 62.56764
1011.590, 62.79789
1012.072, 63.22152
1012.554, 63.57682
1013.036, 63.83626
1013.518, 63.93943
1014.000, 63.79876
1014.483, 63.63879
1014.965, 63.48301
1015.447, 63.37225
1015.929, 63.43346
1016.411, 63.61523
1016.893, 63.71760
1017.375, 63.66590
1017.857, 63.61788
1018.340, 63.55582
1018.822, 63.62736
1019.304, 64.05851
1019.786, 64.95674
1020.268, 65.23819
1020.750, 64.81937
1021.232, 64.31217
1021.714, 64.02195
1022.196, 63.92650
1022.679, 64.07208
1023.161, 64.38783
1023.643, 64.67042
1024.125, 64.86321
1024.607, 64.99544
1025.089, 65.06721
1025.571, 65.09363
1026.053, 65.09312
1026.536, 65.06650
1027.018, 65.01559
1027.500, 64.94141
1027.982, 64.83834
1028.464, 64.53503
1028.946, 64.33335
1029.428, 64.59056
1029.910, 65.30882
1030.392, 65.63339
1030.875, 65.46076
1031.357, 65.26577
1031.839, 65.18360
1032.321, 65.22065
1032.803, 65.48830
1033.285, 65.86771
1033.767, 66.09709
1034.249, 66.02280
1034.732, 65.93739
1035.214, 65.88641
1035.696, 65.87380
1036.178, 65.93065
1036.660, 66.05521
1037.142, 66.05206
1037.624, 65.92602
1038.106, 65.81039
1038.589, 65.77015
1039.071, 65.79771
1039.553, 65.89352
1040.035, 66.05476
1040.517, 66.28070
1040.999, 66.63783
1041.481, 66.86752
1041.963, 66.91044
1042.445, 66.88362
1042.927, 66.92254
1043.410, 67.01138
1043.892, 67.13914
1044.374, 67.31270
1044.856, 67.42516
1045.338, 67.46019
1045.820, 67.38541
1046.302, 67.11750
1046.784, 66.73270
1047.267, 66.66619
1047.749, 66.89309
1048.231, 67.12955
1048.713, 67.23177
1049.195, 67.35336
1049.677, 67.75961
1050.159, 68.19794
1050.641, 68.28020
1051.124, 67.74675
1051.606, 67.55301
1052.088, 67.76247
1052.570, 68.08371
1053.052, 68.37425
1053.534, 68.58687
1054.016, 68.61192
1054.498, 68.47234
1054.980, 68.28225
1055.463, 67.88931
1055.945, 67.72078
1056.427, 67.94799
1056.909, 68.35850
1057.391, 68.60723
1057.873, 68.71307
1058.355, 68.83154
1058.837, 68.98717
1059.319, 69.14442
1059.802, 69.30253
1060.284, 69.42634
1060.766, 69.41889
1061.248, 69.30246
1061.730, 69.50589
1062.212, 70.11996
1062.694, 70.59093
1063.176, 70.71518
1063.659, 70.59047
1064.141, 70.21802
1064.623, 69.73877
1065.105, 69.37653
1065.587, 69.12873
1066.069, 69.18845
1066.551, 69.77837
1067.033, 70.32545
1067.516, 70.30966
1067.998, 69.88339
1068.480, 69.92298
1068.962, 70.34554
1069.444, 70.69228
1069.926, 70.57077
1070.408, 70.46768
1070.890, 70.68876
1071.372, 71.03452
1071.854, 71.25070
1072.337, 71.35595
1072.819, 71.02959
1073.301, 70.18369
1073.783, 69.46746
1074.265, 69.67204
1074.747, 70.18572
1075.229, 70.35469
1075.711, 70.17290
1076.194, 70.28280
1076.676, 70.90801
1077.158, 71.34087
1077.640, 71.32719
1078.122, 71.14734
1078.604, 71.33836
1079.086, 71.72327
1079.568, 71.89754
1080.051, 71.70068
1080.533, 71.60403
1081.015, 72.00136
1081.497, 72.28742
1081.979, 72.03857
1082.461, 71.40446
1082.943, 71.45915
1083.425, 72.10531
1083.907, 72.60638
1084.390, 72.52950
1084.872, 72.32800
1085.354, 72.22150
1085.836, 72.19227
1086.318, 72.20950
1086.800, 72.27310
1087.282, 72.36195
1087.764, 72.46776
1088.247, 72.65750
1088.729, 73.11140
1089.211, 73.58457
1089.693, 73.78688
1090.175, 73.75757
1090.657, 73.68197
1091.139, 73.63356
1091.621, 73.42578
1092.104, 72.92155
1092.586, 72.48872
1093.068, 72.81650
1093.550, 73.55128
1094.032, 73.80202
1094.514, 73.46335
1094.996, 73.24849
1095.478, 73.58465
1095.960, 73.98925
1096.443, 74.35251
1096.925, 74.60952
1097.407, 74.42212
1097.889, 73.88642
1098.371, 73.76945
1098.853, 74.40562
1099.335, 75.01974
1099.817, 74.96188
1100.299, 74.70952
1100.782, 74.67651
1101.264, 74.87425
1101.746, 75.17312
1102.228, 75.59055
1102.710, 75.88609
1103.192, 75.84653
1103.674, 75.74538
1104.156, 75.99197
1104.639, 76.36015
1105.121, 76.46485
1105.603, 75.96663
1106.085, 75.77702
1106.567, 75.97908
1107.049, 76.25607
1107.531, 76.38640
1108.013, 76.40070
1108.495, 76.32506
1108.978, 76.18604
1109.460, 76.08054
1109.942, 76.02015
1110.424, 76.03631
1110.906, 76.16073
1111.388, 76.31940
1111.870, 76.43058
1112.352, 76.49216
1112.834, 76.41181
1113.317, 76.19456
1113.799, 76.22764
1114.281, 76.94580
1114.763, 77.75877
1115.245, 78.51753
1115.727, 79.09940
1116.209, 79.00695
1116.691, 78.27108
1117.174, 77.99536
1117.656, 78.50420
1118.138, 79.00943
1118.620, 78.74056
1119.102, 78.24600
1119.584, 78.01277
1120.066, 78.05376
1120.548, 77.99015
1121.031, 77.80608
1121.513, 77.59635
1121.995, 77.29804
1122.477, 77.18609
1122.959, 77.82006
1123.441, 78.75797
1123.923, 79.37362
1124.405, 79.43340
1124.887, 79.46261
1125.370, 79.43997
1125.852, 79.47547
1126.334, 79.76464
1126.816, 80.06281
1127.298, 79.64030
1127.780, 78.83018
1128.262, 78.43242
1128.744, 79.04231
1129.227, 79.64887
1129.709, 80.20792
1130.191, 80.63667
1130.673, 80.84351
1131.155, 80.86362
1131.637, 80.76521
1132.119, 80.59018
1132.601, 80.56028
1133.083, 80.98389
1133.566, 81.32567
1134.048, 81.32756
1134.530, 81.22550
1135.012, 81.39339
1135.494, 81.78686
1135.976, 81.87142
1136.458, 81.60474
1136.940, 81.39391
1137.422, 81.56126
1137.905, 81.82896
1138.387, 82.03940
1138.869, 82.22531
1139.351, 82.51216
1139.833, 82.91334
1140.315, 83.11613
1140.797, 83.03748
1141.279, 82.95179
1141.762, 83.18318
1142.244, 83.45497
1142.726, 83.49760
1143.208, 83.31471
1143.690, 83.18456
1144.172, 83.07578
1144.654, 83.24693
1145.136, 83.85435
1145.619, 84.53443
1146.101, 84.90378
1146.583, 85.03906
1147.065, 84.97761
1147.547, 84.65099
1148.029, 84.58485
1148.511, 84.87550
1148.993, 85.12273
1149.475, 85.11175
1149.958, 85.01709
1150.440, 85.12950
1150.922, 85.37046
1151.404, 85.61446
1151.886, 85.91373
1152.368, 85.95937
1152.850, 85.57314
1153.332, 85.30806
1153.814, 85.65545
1154.297, 86.29269
1154.779, 86.32143
1155.261, 85.94704
1155.743, 85.74068
1156.225, 85.95186
1156.707, 86.32681
1157.189, 86.99249
1157.671, 87.54115
1158.154, 87.54469
1158.636, 87.13928
1159.118, 86.78024
1159.600, 86.51336
1160.082, 86.51082
1160.564, 86.97375
1161.046, 87.58804
1161.528, 88.50575
1162.010, 89.27993
1162.493, 89.25285
1162.975, 88.56394
1163.457, 88.12678
1163.939, 87.98579
1164.421, 88.02619
1164.903, 88.28156
1165.385, 88.59250
1165.867, 88.89412
1166.349, 89.20029
1166.832, 89.61049
1167.314, 90.09514
1167.796, 90.13477
1168.278, 89.66720
1168.760, 89.26485
1169.242, 89.28526
1169.724, 89.53890
1170.206, 90.09828
1170.689, 90.75636
1171.171, 90.93991
1171.653, 90.65910
1172.135, 90.57789
1172.617, 90.84489
1173.099, 91.10597
1173.581, 90.89729
1174.063, 90.71342
1174.546, 91.06422
1175.028, 91.80111
1175.510, 92.20867
1175.992, 92.28169
1176.474, 92.17313
1176.956, 91.86563
1177.438, 91.62547
1177.920, 91.80332
1178.402, 92.08946
1178.885, 92.19116
1179.367, 92.10212
1179.849, 91.96502
1180.331, 91.74928
1180.813, 91.85226
1181.295, 92.52921
1181.777, 93.27303
1182.259, 93.58976
1182.742, 93.65968
1183.224, 93.66453
1183.706, 93.62234
1184.188, 93.48394
1184.670, 93.20493
1185.152, 93.16363
1185.634, 93.63468
1186.116, 94.23081
1186.599, 94.57915
1187.081, 94.74175
1187.563, 94.76723
1188.045, 94.61640
1188.527, 94.54438
1189.009, 94.55808
1189.491, 94.59866
1189.973, 94.55695
1190.455, 94.61743
1190.938, 95.25957
1191.420, 96.07057
1191.902, 96.33632
1192.384, 95.67292
1192.866, 95.25743
1193.348, 95.09621
1193.830, 95.15892
1194.312, 95.54684
1194.794, 96.04628
1195.277, 96.41087
1195.759, 96.67139
1196.241, 96.88578
1196.723, 97.11340
1197.205, 97.14193
1197.687, 96.90221
1198.169, 96.75547
1198.651, 97.10183
1199.134, 97.61803
1199.616, 97.87257
1200.098, 97.94413
1200.580, 98.04234
1201.062, 98.26557
1201.544, 98.33022
1202.026, 98.17741
1202.508, 98.05815
1202.990, 98.23466
1203.473, 98.54214
1203.955, 98.80970
1204.437, 99.02185
1204.919, 99.14355
1205.401, 99.06838
1205.883, 99.19321
1206.365, 99.60613
1206.847, 99.99081
1207.329, 99.92700
1207.812, 99.73955
1208.294, 99.94155
1208.776, 100.4176
1209.258, 100.5661
1209.740, 100.0934
1210.222, 99.96425
1210.704, 100.3634
1211.186, 100.8015
1211.669, 100.5808
1212.151, 100.2480
1212.633, 100.6858
1213.115, 101.7280
1213.597, 102.1618
1214.079, 101.6574
1214.561, 101.2665
1215.043, 101.1262
1215.526, 101.1645
1216.008, 101.3700
1216.490, 101.6646
1216.972, 102.0564
1217.454, 102.4835
1217.936, 102.5193
1218.418, 101.9828
1218.900, 101.6397
1219.382, 101.6216
1219.865, 101.7894
1220.347, 102.1149
1220.829, 102.4520
1221.311, 102.6314
1221.793, 102.6486
1222.275, 102.6247
1222.757, 102.5402
1223.239, 102.4919
1223.722, 102.4650
1224.204, 102.6412
1224.686, 103.5028
1225.168, 104.4645
1225.650, 104.8812
1226.132, 104.7438
1226.614, 104.7366
1227.096, 104.9397
1227.578, 104.7518
1228.061, 103.9107
1228.543, 103.3027
1229.025, 104.2795
1229.507, 105.6327
1229.989, 106.1491
1230.471, 105.8387
1230.953, 105.7012
1231.435, 105.7555
1231.917, 105.7901
1232.400, 105.7413
1232.882, 105.7385
1233.364, 105.9872
1233.846, 106.2739
1234.328, 106.4352
1234.810, 106.4617
1235.292, 106.2347
1235.774, 105.7268
1236.257, 105.7296
1236.739, 106.5365
1237.221, 107.3550
1237.703, 107.4731
1238.185, 107.3632
1238.667, 107.3931
1239.149, 107.5350
1239.631, 107.6266
1240.114, 107.6663
1240.596, 107.6162
1241.078, 107.4441
1241.560, 107.3130
1242.042, 107.3129
1242.524, 107.4363
1243.006, 107.7543
1243.488, 108.1656
1243.970, 108.1804
1244.453, 107.8779
1244.935, 107.9827
1245.417, 108.7568
1245.899, 109.4121
1246.381, 109.3650
1246.863, 109.1563
1247.345, 109.0577
1247.827, 109.0655
1248.309, 109.2464
1248.792, 109.5380
1249.274, 109.6127
1249.756, 109.3350
1250.238, 109.2239
1250.720, 109.8488
1251.202, 110.2995
1251.684, 110.0848
1252.166, 109.5488
1252.649, 109.6100
1253.131, 110.0952
1253.613, 110.4861
1254.095, 110.6531
1254.577, 110.8693
1255.059, 111.4032
1255.541, 111.7018
1256.023, 111.4463
1256.505, 111.0030
1256.988, 111.2124
1257.470, 111.7967
1257.952, 112.1719
1258.434, 112.2146
1258.916, 112.1958
1259.398, 112.1413
1259.880, 112.0880
1260.362, 112.0461
1260.844, 112.0193
1261.327, 111.9065
1261.809, 111.8638
1262.291, 112.1984
1262.773, 113.0026
1263.255, 113.6179
1263.737, 114.0162
1264.219, 114.1632
1264.701, 113.9400
1265.184, 113.7496
1265.666, 114.3222
1266.148, 115.0786
1266.630, 115.2458
1267.112, 114.7327
1267.594, 114.6167
1268.076, 114.9495
1268.558, 115.2753
1269.041, 115.4736
1269.523, 115.5776
1270.005, 115.5433
1270.487, 115.4914
1270.969, 115.5146
1271.451, 115.6208
1271.933, 115.9168
1272.415, 116.3978
1272.897, 116.6963
1273.380, 116.6867
1273.862, 116.6998
1274.344, 117.1312
1274.826, 117.5088
1275.308, 117.5209
1275.790, 117.2589
1276.272, 116.9146
1276.754, 116.5450
1277.237, 116.5078
1277.719, 116.9138
1278.201, 117.3012
1278.683, 117.4704
1279.165, 117.4948
1279.647, 117.3485
1280.129, 117.1507
1280.611, 117.0993
1281.094, 117.2123
1281.576, 117.6166
1282.058, 118.3528
1282.540, 118.8970
1283.022, 119.0309
1283.504, 119.0483
1283.986, 118.9898
1284.468, 118.9121
1284.950, 118.8230
1285.432, 118.8141
1285.915, 119.1533
1286.397, 119.8451
1286.879, 120.1128
1287.361, 119.7176
1287.843, 119.5420
1288.325, 119.8246
1288.807, 120.2096
1289.289, 120.2731
1289.772, 120.2320
1290.254, 120.4046
1290.736, 120.7158
1291.218, 120.5219
1291.700, 119.7197
1292.182, 119.4555
1292.664, 119.9606
1293.146, 120.6072
1293.629, 120.9155
1294.111, 121.1239
1294.593, 121.4383
1295.075, 121.7641
1295.557, 121.8145
1296.039, 121.6338
1296.521, 121.7800
1297.003, 122.3220
1297.485, 122.7697
1297.968, 122.7653
1298.450, 122.6356
1298.932, 122.5070
1299.414, 122.3440
1299.896, 121.8885
1300.378, 121.3852
1300.860, 121.7064
1301.342, 122.8178
1301.824, 123.8647
1302.307, 124.5199
##END=



