##NAMES=Arseniosiderite
##RRUFFID=R150061
##IDEAL CHEMISTRY=Ca_2_Fe^3+^_3_O_2_(As^5+^O_4_)_3_&#183;3H_2_O
##LOCALITY=Las Animas mine, La Mur, Sonora, Mexico
##OWNER=RRUFF
##SOURCE=Bob Jenkins
##DESCRIPTION=Dark red platy crystals, associated with bright red granular or prismatic sewardite (R060720)
##STATUS=The identification of this mineral has been confirmed by single-crystal X-ray diffraction.
##URL=rruff.info/R150061
99.82780, 214.2899
100.3099, 215.6040
100.7920, 216.0702
101.2742, 215.6859
101.7563, 213.9914
102.2384, 210.1788
102.7205, 206.0294
103.2026, 203.8426
103.6847, 203.7606
104.1668, 205.4198
104.6490, 209.1615
105.1311, 216.6307
105.6132, 221.7488
106.0953, 222.7075
106.5774, 221.3965
107.0595, 223.6242
107.5417, 231.6389
108.0238, 241.0965
108.5059, 249.8747
108.9880, 255.9072
109.4701, 263.7000
109.9522, 274.0397
110.4344, 286.8460
110.9165, 299.2047
111.3986, 308.4149
111.8807, 318.5626
112.3628, 332.4694
112.8449, 354.1897
113.3271, 376.1129
113.8092, 396.7969
114.2913, 415.9891
114.7734, 434.5764
115.2555, 450.9247
115.7376, 467.1914
116.2198, 485.7352
116.7019, 508.2301
117.1840, 532.4589
117.6661, 558.3711
118.1482, 587.1699
118.6303, 613.7791
119.1124, 632.1356
119.5946, 645.8766
120.0767, 663.2783
120.5588, 690.1910
121.0409, 721.7042
121.5230, 754.2846
122.0051, 789.0977
122.4873, 821.7049
122.9694, 847.3284
123.4515, 866.7686
123.9336, 883.9455
124.4157, 900.3248
124.8979, 916.4219
125.3800, 933.1803
125.8621, 952.4796
126.3442, 971.8211
126.8263, 988.0829
127.3084, 1001.135
127.7905, 1011.292
128.2727, 1018.552
128.7548, 1023.020
129.2369, 1024.872
129.7190, 1021.200
130.2011, 1014.759
130.6832, 1014.061
131.1654, 1020.065
131.6475, 1029.740
132.1296, 1038.525
132.6117, 1046.517
133.0938, 1056.218
133.5759, 1068.438
134.0581, 1083.326
134.5402, 1102.372
135.0223, 1126.546
135.5044, 1154.297
135.9865, 1180.968
136.4686, 1205.888
136.9508, 1232.376
137.4329, 1265.596
137.9150, 1307.267
138.3971, 1340.180
138.8792, 1360.115
139.3613, 1368.652
139.8434, 1376.909
140.3256, 1384.168
140.8077, 1392.642
141.2898, 1405.219
141.7719, 1423.754
142.2540, 1441.371
142.7361, 1456.847
143.2183, 1470.429
143.7004, 1480.413
144.1825, 1485.133
144.6646, 1487.476
145.1467, 1491.599
145.6288, 1500.953
146.1110, 1506.998
146.5931, 1506.407
147.0752, 1495.409
147.5573, 1487.739
148.0394, 1486.043
148.5215, 1487.238
149.0037, 1484.783
149.4858, 1477.010
149.9679, 1467.113
150.4500, 1456.102
150.9321, 1444.126
151.4142, 1431.085
151.8964, 1414.658
152.3785, 1396.649
152.8606, 1383.649
153.3427, 1379.645
153.8248, 1378.288
154.3069, 1376.352
154.7890, 1375.015
155.2712, 1371.590
155.7533, 1364.411
156.2354, 1354.050
156.7175, 1345.145
157.1996, 1337.015
157.6817, 1331.360
158.1639, 1329.428
158.6460, 1334.994
159.1281, 1341.010
159.6102, 1343.370
160.0923, 1341.605
160.5744, 1345.113
161.0566, 1363.787
161.5387, 1387.333
162.0208, 1404.105
162.5029, 1403.657
162.9850, 1400.318
163.4671, 1400.906
163.9493, 1406.292
164.4314, 1413.627
164.9135, 1425.157
165.3956, 1437.389
165.8777, 1444.683
166.3598, 1442.379
166.8420, 1435.665
167.3241, 1427.008
167.8062, 1415.153
168.2883, 1406.567
168.7704, 1408.474
169.2525, 1417.292
169.7346, 1424.100
170.2168, 1423.392
170.6989, 1418.562
171.1810, 1412.214
171.6631, 1402.943
172.1452, 1395.875
172.6273, 1397.405
173.1095, 1405.737
173.5916, 1413.399
174.0737, 1413.288
174.5558, 1409.946
175.0379, 1410.370
175.5201, 1418.113
176.0022, 1428.263
176.4843, 1435.813
176.9664, 1440.762
177.4485, 1443.399
177.9306, 1441.194
178.4128, 1436.801
178.8949, 1435.720
179.3770, 1438.569
179.8591, 1446.428
180.3412, 1462.995
180.8233, 1488.518
181.3055, 1515.467
181.7876, 1535.209
182.2697, 1550.183
182.7518, 1569.388
183.2339, 1597.903
183.7160, 1632.701
184.1982, 1664.979
184.6803, 1694.089
185.1624, 1725.316
185.6445, 1769.620
186.1266, 1823.903
186.6087, 1871.784
187.0908, 1898.041
187.5730, 1910.281
188.0551, 1939.540
188.5372, 1990.046
189.0193, 2046.150
189.5014, 2086.085
189.9835, 2110.856
190.4657, 2134.299
190.9478, 2167.463
191.4299, 2207.785
191.9120, 2233.195
192.3941, 2240.557
192.8762, 2237.292
193.3584, 2237.681
193.8405, 2242.271
194.3226, 2239.566
194.8047, 2220.743
195.2868, 2186.411
195.7689, 2151.971
196.2511, 2119.537
196.7332, 2085.891
197.2153, 2043.056
197.6974, 1990.031
198.1795, 1933.725
198.6616, 1878.000
199.1438, 1822.362
199.6259, 1767.039
200.1080, 1711.137
200.5901, 1655.841
201.0722, 1605.384
201.5543, 1559.178
202.0364, 1518.771
202.5186, 1485.813
203.0007, 1460.714
203.4828, 1439.865
203.9649, 1423.752
204.4470, 1411.255
204.9291, 1397.326
205.4113, 1380.930
205.8934, 1365.553
206.3755, 1353.648
206.8576, 1345.144
207.3397, 1340.526
207.8218, 1340.452
208.3040, 1344.513
208.7861, 1350.028
209.2682, 1357.821
209.7503, 1365.432
210.2324, 1369.981
210.7145, 1370.114
211.1967, 1372.039
211.6788, 1376.433
212.1609, 1383.424
212.6430, 1396.902
213.1251, 1421.693
213.6072, 1445.555
214.0894, 1454.198
214.5715, 1441.005
215.0536, 1431.200
215.5357, 1431.351
216.0178, 1441.687
216.4999, 1450.779
216.9820, 1458.559
217.4642, 1464.918
217.9463, 1469.914
218.4284, 1473.747
218.9105, 1475.360
219.3926, 1473.708
219.8747, 1468.287
220.3569, 1464.994
220.8390, 1465.234
221.3211, 1466.299
221.8032, 1464.698
222.2853, 1459.893
222.7674, 1453.739
223.2496, 1447.475
223.7317, 1441.898
224.2138, 1430.447
224.6959, 1408.537
225.1780, 1384.423
225.6601, 1369.783
226.1423, 1368.974
226.6244, 1369.811
227.1065, 1369.548
227.5886, 1368.873
228.0707, 1363.445
228.5528, 1350.748
229.0350, 1334.709
229.5171, 1321.524
229.9992, 1310.439
230.4813, 1303.098
230.9634, 1301.073
231.4455, 1306.787
231.9276, 1308.625
232.4098, 1305.218
232.8919, 1298.657
233.3740, 1292.582
233.8561, 1286.373
234.3382, 1281.648
234.8203, 1279.302
235.3025, 1280.513
235.7846, 1280.480
236.2667, 1278.948
236.7488, 1276.317
237.2309, 1273.514
237.7130, 1271.438
238.1952, 1267.854
238.6773, 1261.541
239.1594, 1250.916
239.6415, 1242.139
240.1236, 1235.101
240.6057, 1229.913
241.0879, 1226.874
241.5700, 1226.927
242.0521, 1227.725
242.5342, 1228.385
243.0163, 1228.602
243.4984, 1229.709
243.9806, 1233.310
244.4627, 1237.138
244.9448, 1235.665
245.4269, 1224.499
245.9090, 1214.572
246.3911, 1210.873
246.8732, 1217.882
247.3554, 1218.868
247.8375, 1209.890
248.3196, 1196.265
248.8017, 1190.890
249.2838, 1199.540
249.7659, 1207.349
250.2481, 1208.115
250.7302, 1198.926
251.2123, 1190.450
251.6944, 1182.139
252.1765, 1174.880
252.6586, 1170.977
253.1408, 1173.102
253.6229, 1174.265
254.1050, 1171.644
254.5871, 1164.571
255.0692, 1155.556
255.5513, 1143.117
256.0334, 1129.471
256.5156, 1119.685
256.9977, 1115.963
257.4798, 1112.051
257.9619, 1104.972
258.4440, 1092.865
258.9261, 1083.175
259.4083, 1076.594
259.8904, 1071.884
260.3725, 1066.261
260.8546, 1058.674
261.3367, 1052.076
261.8188, 1047.648
262.3010, 1045.509
262.7831, 1045.477
263.2652, 1049.610
263.7473, 1054.407
264.2294, 1051.461
264.7115, 1036.760
265.1937, 1023.697
265.6758, 1019.012
266.1579, 1025.199
266.6400, 1028.437
267.1221, 1028.150
267.6042, 1025.418
268.0864, 1022.194
268.5685, 1018.407
269.0506, 1014.307
269.5327, 1010.171
270.0148, 1006.218
270.4969, 1000.591
270.9791, 992.1238
271.4612, 983.3731
271.9433, 980.1559
272.4254, 984.4241
272.9075, 987.0417
273.3896, 983.1733
273.8718, 971.9518
274.3539, 963.8214
274.8360, 959.0325
275.3181, 956.8302
275.8002, 956.5947
276.2823, 958.8148
276.7645, 960.3798
277.2466, 959.6508
277.7287, 956.5010
278.2108, 954.5152
278.6929, 953.8959
279.1750, 953.9473
279.6572, 954.5184
280.1393, 955.9495
280.6214, 954.4827
281.1035, 946.2719
281.5856, 932.1112
282.0677, 926.2093
282.5499, 930.3225
283.0320, 937.8002
283.5141, 939.7618
283.9962, 936.0548
284.4783, 932.0580
284.9604, 930.7352
285.4425, 931.1940
285.9247, 926.0443
286.4068, 914.1398
286.8889, 901.8488
287.3710, 897.7708
287.8531, 901.4144
288.3352, 904.5837
288.8174, 904.3672
289.2995, 901.4576
289.7816, 897.7795
290.2637, 893.1530
290.7458, 889.5584
291.2279, 890.2580
291.7101, 894.4664
292.1922, 897.2663
292.6743, 896.5447
293.1564, 893.5021
293.6385, 890.6133
294.1206, 887.8612
294.6028, 886.0693
295.0849, 887.8328
295.5670, 891.6441
296.0491, 891.6113
296.5312, 883.0452
297.0133, 871.8290
297.4955, 870.1854
297.9776, 877.8102
298.4597, 885.5781
298.9418, 884.3150
299.4239, 877.4686
299.9060, 873.2169
300.3882, 875.4962
300.8703, 879.5364
301.3524, 877.9964
301.8345, 871.5116
302.3166, 865.2593
302.7987, 861.8400
303.2809, 861.2629
303.7630, 864.2527
304.2451, 873.6100
304.7272, 882.4988
305.2093, 881.1545
305.6914, 871.8173
306.1736, 864.8219
306.6557, 871.5971
307.1378, 882.3845
307.6199, 884.0890
308.1020, 869.9067
308.5841, 855.2943
309.0663, 853.4877
309.5484, 861.4430
310.0305, 870.3817
310.5126, 879.1989
310.9947, 885.0931
311.4768, 884.4828
311.9590, 874.8414
312.4411, 864.7031
312.9232, 858.0049
313.4053, 854.5927
313.8874, 854.2138
314.3695, 860.8060
314.8517, 867.5377
315.3337, 870.0699
315.8159, 867.5111
316.2980, 862.3961
316.7801, 850.3148
317.2622, 837.3119
317.7443, 832.4911
318.2264, 848.7752
318.7086, 865.9052
319.1907, 874.3316
319.6728, 872.1632
320.1549, 868.8696
320.6370, 866.3283
321.1191, 864.3958
321.6013, 862.9012
322.0834, 862.1749
322.5655, 861.5204
323.0476, 860.5880
323.5297, 859.3009
324.0118, 858.5124
324.4940, 859.1964
324.9761, 859.9922
325.4582, 859.7642
325.9403, 856.6485
326.4224, 854.3520
326.9045, 853.4673
327.3867, 853.9806
327.8688, 855.1804
328.3509, 858.4853
328.8330, 861.5013
329.3151, 862.8423
329.7972, 863.0561
330.2794, 860.6393
330.7615, 851.7631
331.2436, 838.9935
331.7257, 837.0585
332.2078, 856.4023
332.6899, 874.7237
333.1721, 879.6533
333.6542, 863.6119
334.1363, 849.7582
334.6184, 837.6432
335.1005, 828.4317
335.5826, 825.1730
336.0648, 829.0600
336.5469, 836.6412
337.0290, 848.4628
337.5111, 868.0990
337.9932, 876.3697
338.4753, 868.6152
338.9575, 854.6168
339.4396, 852.3833
339.9217, 864.7794
340.4038, 877.0843
340.8859, 883.8878
341.3680, 885.1473
341.8502, 884.2698
342.3323, 880.2667
342.8144, 876.8045
343.2965, 879.9371
343.7786, 889.8655
344.2607, 897.9819
344.7429, 900.5014
345.2250, 899.1152
345.7071, 901.4458
346.1892, 907.9827
346.6713, 914.7929
347.1534, 916.8044
347.6355, 915.2791
348.1176, 917.2369
348.5998, 926.2838
349.0819, 938.2083
349.5640, 944.6453
350.0461, 945.8824
350.5282, 946.0711
351.0103, 948.8605
351.4925, 952.8252
351.9746, 954.6185
352.4567, 952.3469
352.9388, 949.9830
353.4209, 953.9522
353.9030, 962.3778
354.3852, 968.2443
354.8673, 962.7103
355.3494, 954.4362
355.8315, 954.2604
356.3136, 965.2477
356.7957, 978.0392
357.2779, 984.7520
357.7600, 988.2108
358.2421, 993.8138
358.7242, 1006.870
359.2063, 1020.912
359.6884, 1031.629
360.1706, 1038.512
360.6527, 1043.928
361.1348, 1046.866
361.6169, 1049.638
362.0990, 1054.916
362.5811, 1064.725
363.0633, 1076.039
363.5454, 1088.376
364.0275, 1101.624
364.5096, 1114.145
364.9917, 1125.450
365.4738, 1135.913
365.9560, 1145.847
366.4381, 1154.517
366.9202, 1163.432
367.4023, 1171.427
367.8844, 1179.344
368.3665, 1191.438
368.8487, 1212.317
369.3308, 1234.027
369.8129, 1253.046
370.2950, 1267.852
370.7771, 1282.437
371.2592, 1295.845
371.7414, 1309.247
372.2235, 1325.448
372.7056, 1345.225
373.1877, 1366.759
373.6698, 1391.053
374.1519, 1420.095
374.6341, 1438.298
375.1162, 1440.935
375.5983, 1438.403
376.0804, 1444.701
376.5625, 1462.234
377.0446, 1478.350
377.5267, 1489.347
378.0089, 1495.898
378.4910, 1502.410
378.9731, 1508.941
379.4552, 1515.248
379.9373, 1521.586
380.4194, 1527.953
380.9016, 1531.854
381.3837, 1532.095
381.8658, 1530.560
382.3479, 1530.847
382.8300, 1532.976
383.3121, 1537.207
383.7943, 1547.187
384.2764, 1559.403
384.7585, 1562.847
385.2406, 1553.989
385.7227, 1543.330
386.2048, 1547.687
386.6870, 1561.647
387.1691, 1569.191
387.6512, 1557.466
388.1333, 1537.038
388.6154, 1519.555
389.0975, 1505.847
389.5797, 1492.526
390.0618, 1475.672
390.5439, 1458.087
391.0260, 1443.985
391.5081, 1440.225
391.9902, 1435.956
392.4724, 1424.261
392.9545, 1405.977
393.4366, 1387.309
393.9187, 1373.184
394.4008, 1358.549
394.8829, 1338.982
395.3651, 1307.097
395.8472, 1279.576
396.3293, 1262.210
396.8114, 1252.354
397.2935, 1243.029
397.7756, 1237.625
398.2578, 1228.596
398.7399, 1211.414
399.2220, 1179.388
399.7041, 1155.692
400.1862, 1145.502
400.6683, 1141.469
401.1505, 1134.378
401.6326, 1123.218
402.1147, 1110.409
402.5968, 1095.587
403.0789, 1078.741
403.5610, 1064.211
404.0432, 1051.913
404.5253, 1042.089
405.0074, 1035.982
405.4895, 1035.128
405.9716, 1030.512
406.4537, 1018.754
406.9359, 1003.945
407.4180, 998.5999
407.9001, 1003.636
408.3822, 1011.996
408.8643, 1022.924
409.3464, 1035.250
409.8285, 1036.672
410.3106, 1024.293
410.7928, 1007.885
411.2749, 1000.661
411.7570, 1001.276
412.2391, 1002.572
412.7212, 1002.516
413.2033, 1000.780
413.6855, 995.3359
414.1676, 986.2906
414.6497, 978.7618
415.1318, 977.2430
415.6139, 979.9748
416.0960, 984.5655
416.5782, 992.2251
417.0603, 999.0292
417.5424, 1000.906
418.0245, 999.0237
418.5066, 997.5182
418.9887, 998.7919
419.4709, 1000.917
419.9530, 1002.895
420.4351, 1005.100
420.9172, 1005.565
421.3993, 1002.403
421.8814, 997.3747
422.3636, 993.0624
422.8457, 988.9968
423.3278, 986.7544
423.8099, 988.3203
424.2920, 994.4333
424.7741, 996.3792
425.2563, 989.4659
425.7384, 981.2134
426.2205, 977.0839
426.7026, 979.5456
427.1847, 981.8876
427.6668, 983.6233
428.1490, 984.8069
428.6311, 985.8425
429.1132, 987.3056
429.5953, 987.3887
430.0774, 984.7141
430.5595, 978.7507
431.0417, 973.5544
431.5238, 968.7767
432.0059, 965.5245
432.4880, 967.4464
432.9701, 974.6955
433.4522, 977.1274
433.9344, 968.1702
434.4165, 952.7490
434.8986, 947.3044
435.3807, 952.0195
435.8628, 957.4001
436.3449, 954.2994
436.8271, 945.7957
437.3092, 939.4357
437.7913, 937.4487
438.2734, 936.8840
438.7555, 935.4542
439.2376, 932.9810
439.7197, 928.9369
440.2018, 922.2253
440.6840, 914.2932
441.1661, 905.8841
441.6482, 896.9600
442.1303, 889.1470
442.6124, 884.1191
443.0945, 880.3504
443.5767, 876.1636
444.0588, 871.2053
444.5409, 865.5862
445.0230, 859.1041
445.5051, 851.8429
445.9872, 844.6309
446.4694, 836.2840
446.9515, 829.0620
447.4336, 824.2523
447.9157, 823.5313
448.3978, 822.2869
448.8799, 820.3445
449.3621, 817.9607
449.8442, 815.7668
450.3263, 814.4198
450.8084, 811.9509
451.2905, 807.9107
451.7726, 802.3233
452.2548, 793.8047
452.7369, 780.6274
453.2190, 768.8632
453.7011, 765.0875
454.1832, 769.4147
454.6653, 772.7894
455.1475, 773.9216
455.6296, 773.0135
456.1117, 769.7435
456.5938, 764.3391
457.0759, 759.0223
457.5580, 755.4601
458.0402, 752.8807
458.5223, 749.5880
459.0044, 745.3604
459.4865, 741.4284
459.9686, 738.6878
460.4507, 736.9982
460.9329, 736.0762
461.4150, 736.8395
461.8971, 737.4617
462.3792, 736.7468
462.8613, 734.8452
463.3434, 732.4716
463.8256, 729.9053
464.3077, 727.0227
464.7898, 723.2614
465.2719, 716.8049
465.7540, 713.4596
466.2361, 716.2816
466.7183, 722.3910
467.2004, 727.4101
467.6825, 730.9997
468.1646, 733.4520
468.6467, 734.0715
469.1288, 732.8289
469.6110, 734.4006
470.0930, 741.9387
470.5752, 747.8578
471.0573, 745.3669
471.5394, 731.2101
472.0215, 722.4194
472.5036, 721.4372
472.9857, 725.3370
473.4679, 728.5458
473.9500, 731.0130
474.4321, 733.2305
474.9142, 734.9496
475.3963, 736.5706
475.8784, 740.6583
476.3606, 747.4953
476.8427, 752.7436
477.3248, 749.5486
477.8069, 741.9248
478.2890, 739.1009
478.7711, 746.5728
479.2533, 754.6283
479.7354, 751.6647
480.2175, 741.2232
480.6996, 733.8427
481.1817, 736.2295
481.6638, 742.7761
482.1460, 750.9915
482.6281, 761.1501
483.1102, 768.3166
483.5923, 768.8124
484.0744, 766.2917
484.5565, 764.3368
485.0387, 764.5715
485.5208, 764.2552
486.0029, 762.1617
486.4850, 758.9368
486.9671, 757.3666
487.4492, 757.1293
487.9314, 759.0517
488.4135, 765.0469
488.8956, 777.9504
489.3777, 780.9040
489.8598, 769.6758
490.3419, 755.3152
490.8241, 753.1726
491.3062, 764.5847
491.7883, 773.4324
492.2704, 776.3375
492.7525, 773.6623
493.2346, 763.3285
493.7168, 745.8389
494.1989, 731.2972
494.6810, 729.6287
495.1631, 735.4227
495.6452, 736.9445
496.1273, 732.2368
496.6095, 727.1224
497.0916, 728.3091
497.5737, 732.5851
498.0558, 734.6918
498.5379, 730.1229
499.0201, 724.8640
499.5022, 723.1785
499.9843, 724.2851
500.4664, 723.5825
500.9485, 714.5747
501.4306, 706.8444
501.9127, 707.0946
502.3948, 723.8000
502.8770, 732.0833
503.3591, 721.3532
503.8412, 704.7540
504.3233, 699.3901
504.8054, 714.8368
505.2875, 725.0238
505.7697, 722.7501
506.2518, 710.1589
506.7339, 705.0707
507.2160, 709.4876
507.6981, 715.3159
508.1802, 716.5298
508.6624, 713.3533
509.1445, 713.2714
509.6266, 716.9800
510.1087, 723.1074
510.5908, 731.7914
511.0729, 741.9046
511.5551, 748.4881
512.0372, 747.0595
512.5193, 743.1289
513.0014, 742.9899
513.4835, 746.5821
513.9656, 753.6649
514.4478, 771.1613
514.9299, 788.0234
515.4120, 791.9170
515.8941, 775.6829
516.3762, 764.6635
516.8583, 773.3724
517.3405, 791.8639
517.8226, 807.6314
518.3047, 816.6206
518.7868, 824.3137
519.2689, 832.1848
519.7510, 839.9718
520.2332, 844.9265
520.7153, 843.2714
521.1974, 843.6436
521.6795, 851.3215
522.1616, 869.2357
522.6437, 882.1858
523.1259, 889.2114
523.6080, 892.7838
524.0901, 895.3998
524.5722, 897.0561
525.0543, 899.4106
525.5364, 903.3212
526.0186, 907.8526
526.5007, 909.5614
526.9828, 909.0297
527.4649, 911.5757
527.9470, 926.8686
528.4291, 944.8264
528.9113, 949.3823
529.3934, 937.4385
529.8755, 926.0436
530.3576, 929.1967
530.8397, 938.8132
531.3218, 945.1176
531.8040, 944.9357
532.2861, 940.9172
532.7682, 930.8751
533.2503, 917.0204
533.7324, 907.5405
534.2145, 907.6998
534.6967, 908.5477
535.1788, 907.4290
535.6609, 904.4586
536.1430, 898.8321
536.6251, 889.6752
537.1072, 879.1464
537.5894, 868.3283
538.0715, 856.3093
538.5536, 850.4219
539.0357, 854.1132
539.5178, 861.5048
539.9999, 858.6552
540.4821, 846.0969
540.9642, 834.7538
541.4463, 830.4672
541.9284, 830.9368
542.4105, 832.5897
542.8926, 835.2882
543.3748, 836.0969
543.8569, 831.5553
544.3390, 824.2421
544.8211, 817.0108
545.3032, 809.9023
545.7853, 804.0987
546.2675, 801.5633
546.7495, 800.4993
547.2316, 797.8276
547.7137, 789.6997
548.1959, 783.0024
548.6780, 780.9846
549.1601, 783.5662
549.6422, 782.2734
550.1243, 772.5474
550.6064, 764.3917
551.0886, 764.7252
551.5707, 777.7995
552.0528, 782.8853
552.5349, 778.2053
553.0170, 768.4098
553.4991, 758.2722
553.9813, 747.8652
554.4634, 740.7397
554.9455, 738.1826
555.4276, 739.2209
555.9097, 743.3853
556.3918, 750.0532
556.8740, 755.7036
557.3561, 758.5787
557.8382, 759.0607
558.3203, 757.1691
558.8024, 752.7906
559.2845, 747.6765
559.7667, 740.0982
560.2488, 733.5350
560.7309, 731.3149
561.2130, 738.0140
561.6951, 744.5059
562.1772, 750.0550
562.6594, 754.2067
563.1415, 756.0151
563.6236, 755.9567
564.1057, 752.6470
564.5878, 743.8996
565.0699, 730.0651
565.5521, 722.1221
566.0342, 720.5771
566.5163, 723.5546
566.9984, 733.1357
567.4805, 748.3489
567.9626, 752.9750
568.4448, 743.6967
568.9269, 730.6273
569.4090, 726.4848
569.8911, 729.0797
570.3732, 731.9583
570.8553, 732.9858
571.3375, 732.9396
571.8196, 731.4531
572.3017, 729.1932
572.7838, 728.8047
573.2659, 735.0106
573.7480, 740.7530
574.2302, 741.0162
574.7123, 733.7878
575.1944, 728.7471
575.6765, 729.2723
576.1586, 731.5512
576.6407, 732.5409
577.1229, 731.3652
577.6050, 730.8913
578.0871, 732.5197
578.5692, 734.1298
579.0513, 729.7908
579.5334, 718.1278
580.0156, 709.4692
580.4977, 708.5363
580.9798, 713.1945
581.4619, 716.8897
581.9440, 719.5969
582.4261, 720.7952
582.9083, 718.0477
583.3904, 714.1570
583.8725, 714.1884
584.3546, 719.4289
584.8367, 724.4185
585.3188, 725.6420
585.8010, 724.3794
586.2831, 722.2565
586.7652, 716.9512
587.2473, 713.9404
587.7294, 717.0402
588.2115, 723.8634
588.6937, 726.3517
589.1758, 720.0947
589.6579, 714.8044
590.1400, 713.9843
590.6221, 717.7902
591.1042, 718.8037
591.5864, 716.3716
592.0685, 712.8927
592.5506, 709.9510
593.0327, 707.5512
593.5148, 705.7610
593.9969, 704.6478
594.4791, 703.9205
594.9612, 702.6386
595.4433, 701.4165
595.9254, 701.9650
596.4075, 706.3022
596.8896, 711.1201
597.3718, 713.6165
597.8539, 714.2461
598.3360, 714.3976
598.8181, 712.8564
599.3002, 712.5193
599.7823, 717.1456
600.2645, 728.7027
600.7466, 730.8518
601.2287, 710.8455
601.7108, 691.2109
602.1929, 688.1606
602.6750, 711.0743
603.1572, 723.1185
603.6393, 719.8260
604.1214, 709.9380
604.6035, 706.6365
605.0856, 709.9297
605.5677, 714.2088
606.0499, 718.4611
606.5320, 722.1057
607.0141, 723.8984
607.4962, 724.0371
607.9783, 723.5228
608.4604, 722.9079
608.9425, 721.9365
609.4246, 719.7212
609.9067, 716.1748
610.3889, 714.2887
610.8710, 717.7196
611.3531, 721.8789
611.8352, 723.1642
612.3173, 717.7780
612.7994, 715.0861
613.2816, 715.5903
613.7637, 718.8661
614.2458, 725.6932
614.7279, 739.7266
615.2100, 745.6936
615.6921, 737.0935
616.1743, 720.6691
616.6564, 719.4938
617.1385, 733.6677
617.6206, 744.8555
618.1027, 739.2544
618.5848, 724.7789
619.0670, 717.6278
619.5491, 717.8463
620.0312, 720.4734
620.5133, 723.8649
620.9954, 726.8875
621.4775, 728.1862
621.9597, 726.8992
622.4418, 725.6903
622.9239, 723.4844
623.4060, 722.6068
623.8881, 726.0097
624.3702, 742.1829
624.8524, 751.2354
625.3345, 748.1373
625.8166, 737.4212
626.2987, 732.3196
626.7808, 734.1702
627.2629, 736.1724
627.7451, 735.4621
628.2272, 732.8140
628.7093, 731.9562
629.1914, 732.8956
629.6735, 733.5620
630.1556, 733.3559
630.6378, 731.5267
631.1199, 724.8709
631.6020, 711.9249
632.0841, 703.5002
632.5662, 712.1444
633.0483, 726.6507
633.5305, 734.9934
634.0126, 728.4766
634.4947, 722.7916
634.9768, 722.4558
635.4589, 724.3360
635.9410, 721.9993
636.4232, 710.5220
636.9053, 704.3430
637.3874, 708.8977
637.8695, 721.2964
638.3516, 727.3265
638.8337, 726.5550
639.3159, 723.5692
639.7980, 719.4757
640.2801, 715.3149
640.7622, 714.5220
641.2443, 717.1825
641.7264, 721.3408
642.2086, 728.3732
642.6907, 734.7278
643.1728, 735.2900
643.6549, 726.7415
644.1370, 719.2596
644.6191, 718.1581
645.1013, 720.0317
645.5834, 720.5583
646.0655, 719.3568
646.5476, 716.1278
647.0297, 707.5977
647.5118, 697.8228
647.9940, 700.5058
648.4761, 720.5728
648.9582, 734.3310
649.4403, 729.9479
649.9224, 713.1454
650.4045, 706.9584
650.8867, 711.0781
651.3688, 716.6513
651.8509, 716.2051
652.3330, 713.7979
652.8151, 716.8377
653.2972, 726.3351
653.7794, 733.0746
654.2615, 729.3445
654.7436, 721.4484
655.2257, 715.0400
655.7078, 712.3396
656.1899, 709.1983
656.6721, 704.7971
657.1542, 699.7715
657.6363, 694.5485
658.1184, 687.7581
658.6005, 684.4960
659.0826, 686.5427
659.5648, 692.0558
660.0469, 697.0831
660.5290, 701.5955
661.0111, 703.5162
661.4932, 701.0958
661.9753, 695.7857
662.4575, 687.9810
662.9396, 678.4986
663.4217, 673.3101
663.9038, 683.1744
664.3859, 694.0920
664.8680, 692.0109
665.3502, 672.3588
665.8323, 661.2874
666.3144, 674.8949
666.7965, 693.0553
667.2786, 700.4523
667.7607, 690.5489
668.2429, 683.6959
668.7250, 681.2924
669.2071, 680.7064
669.6892, 678.3159
670.1713, 674.0844
670.6534, 668.7662
671.1355, 660.8217
671.6176, 654.6660
672.0997, 661.8804
672.5818, 677.9081
673.0640, 688.2453
673.5461, 679.8937
674.0282, 668.1204
674.5103, 664.5895
674.9924, 668.0057
675.4745, 669.7595
675.9567, 665.8008
676.4388, 660.7756
676.9209, 656.1325
677.4030, 651.6130
677.8851, 650.6334
678.3672, 655.2031
678.8494, 659.8336
679.3315, 659.5245
679.8136, 654.1412
680.2957, 652.6569
680.7778, 656.1782
681.2599, 660.6588
681.7421, 661.1509
682.2242, 659.0444
682.7063, 657.4811
683.1884, 657.2148
683.6705, 657.7313
684.1526, 660.1065
684.6348, 662.6945
685.1169, 662.8372
685.5990, 655.3817
686.0811, 650.2546
686.5632, 652.2250
687.0453, 658.4886
687.5275, 660.3011
688.0096, 655.7496
688.4917, 650.9286
688.9738, 647.8737
689.4559, 646.2607
689.9380, 643.1495
690.4202, 638.4520
690.9023, 636.4217
691.3844, 642.6826
691.8665, 652.6654
692.3486, 659.3096
692.8307, 662.2125
693.3129, 661.3854
693.7950, 651.8986
694.2771, 641.6671
694.7592, 638.1338
695.2413, 646.1010
695.7234, 651.7751
696.2056, 650.6915
696.6877, 647.9473
697.1698, 648.5704
697.6519, 654.3956
698.1340, 657.8444
698.6161, 657.9539
699.0983, 655.7162
699.5804, 652.4733
700.0625, 648.3139
700.5446, 643.2510
701.0267, 635.4934
701.5089, 629.2781
701.9910, 632.5348
702.4731, 641.9018
702.9552, 648.0146
703.4373, 644.2505
703.9194, 638.2809
704.4016, 632.0026
704.8837, 625.9321
705.3658, 624.7231
705.8479, 634.2208
706.3300, 641.4999
706.8121, 640.1563
707.2943, 629.9162
707.7764, 627.2252
708.2585, 633.3146
708.7406, 640.9153
709.2227, 644.2314
709.7048, 644.4346
710.1870, 645.7303
710.6691, 648.7144
711.1512, 649.5416
711.6333, 641.4081
712.1154, 631.1067
712.5975, 627.4942
713.0797, 637.4681
713.5618, 642.5350
714.0439, 630.2595
714.5260, 613.4249
715.0081, 607.5294
715.4902, 617.4528
715.9724, 628.9462
716.4545, 642.3525
716.9366, 654.6349
717.4187, 659.0811
717.9008, 655.8546
718.3829, 649.9990
718.8651, 640.4951
719.3472, 632.5094
719.8293, 636.7294
720.3114, 649.2698
720.7935, 658.1815
721.2756, 652.8169
721.7578, 646.2268
722.2399, 646.8504
722.7220, 653.7916
723.2041, 658.1075
723.6862, 655.5981
724.1683, 653.5970
724.6505, 655.6100
725.1326, 661.5945
725.6147, 661.2592
726.0968, 652.9464
726.5789, 645.3216
727.0610, 644.9758
727.5432, 650.2692
728.0253, 657.0181
728.5074, 665.0642
728.9895, 670.4725
729.4716, 666.3409
729.9537, 659.7491
730.4359, 659.4819
730.9180, 670.1256
731.4001, 676.5409
731.8822, 670.2271
732.3643, 660.3114
732.8464, 655.4388
733.3285, 657.0170
733.8106, 660.7383
734.2927, 667.3749
734.7748, 674.5845
735.2570, 679.2950
735.7391, 681.5692
736.2212, 681.7183
736.7033, 678.8658
737.1854, 676.0139
737.6675, 677.7361
738.1497, 682.1969
738.6318, 685.6073
739.1139, 684.5394
739.5960, 684.1331
740.0781, 686.7626
740.5602, 691.7388
741.0424, 696.8932
741.5245, 702.2199
742.0066, 707.4596
742.4887, 712.1207
742.9708, 716.6349
743.4529, 723.7155
743.9351, 733.5775
744.4172, 742.5585
744.8993, 747.8914
745.3814, 751.2294
745.8635, 756.9789
746.3456, 764.4651
746.8278, 769.1857
747.3099, 765.0209
747.7920, 759.7177
748.2741, 757.6334
748.7562, 759.0880
749.2383, 765.4612
749.7205, 784.1058
750.2026, 800.0850
750.6847, 805.1035
751.1668, 797.7934
751.6489, 789.2237
752.1310, 777.9147
752.6132, 771.5908
753.0953, 780.4946
753.5774, 800.0483
754.0595, 817.7560
754.5416, 832.8392
755.0237, 842.3024
755.5059, 839.3231
755.9880, 831.9028
756.4701, 828.5692
756.9522, 833.5045
757.4343, 837.8219
757.9164, 840.0521
758.3986, 840.9443
758.8807, 840.7175
759.3628, 838.4305
759.8449, 839.0871
760.3270, 844.2006
760.8091, 850.3898
761.2913, 851.5784
761.7734, 849.2023
762.2555, 849.7418
762.7376, 857.3248
763.2197, 863.9020
763.7018, 858.5308
764.1840, 847.7906
764.6661, 843.0977
765.1482, 854.0663
765.6303, 864.8557
766.1124, 873.1647
766.5945, 878.5283
767.0767, 879.2209
767.5588, 874.1991
768.0409, 867.0385
768.5230, 856.5843
769.0051, 846.4653
769.4872, 848.2802
769.9694, 860.0111
770.4515, 869.0604
770.9336, 866.6204
771.4157, 860.3600
771.8978, 855.9276
772.3799, 853.5739
772.8621, 854.1564
773.3442, 864.2887
773.8263, 870.9187
774.3084, 866.7908
774.7905, 853.6329
775.2726, 846.7300
775.7548, 847.5694
776.2369, 850.5467
776.7190, 854.7602
777.2011, 858.8978
777.6832, 855.6698
778.1653, 845.6132
778.6475, 835.5173
779.1296, 828.1116
779.6117, 824.1527
780.0938, 825.7747
780.5759, 832.9662
781.0580, 839.1729
781.5402, 847.0795
782.0223, 848.8604
782.5044, 837.1022
782.9865, 808.3055
783.4686, 798.8581
783.9507, 814.5389
784.4329, 833.2870
784.9150, 837.9919
785.3971, 831.8415
785.8792, 828.9674
786.3613, 830.1712
786.8434, 830.6293
787.3256, 825.1390
787.8077, 817.7003
788.2898, 811.6743
788.7719, 807.2096
789.2540, 806.1918
789.7361, 813.2990
790.2183, 820.8894
790.7004, 823.5452
791.1825, 819.7070
791.6646, 816.2097
792.1467, 812.7469
792.6288, 810.6573
793.1110, 810.9097
793.5930, 813.6366
794.0751, 820.7212
794.5573, 833.3979
795.0394, 843.9007
795.5215, 844.4535
796.0036, 840.0563
796.4857, 835.8881
796.9678, 833.3428
797.4500, 830.5075
797.9321, 825.7392
798.4142, 821.7250
798.8963, 821.8940
799.3784, 827.4182
799.8605, 829.1307
800.3427, 824.4962
800.8248, 821.2415
801.3069, 833.7866
801.7890, 855.2626
802.2711, 868.3209
802.7532, 866.7709
803.2354, 861.2928
803.7175, 857.1829
804.1996, 853.5919
804.6817, 849.4355
805.1638, 839.2194
805.6459, 836.3544
806.1281, 844.7548
806.6102, 857.5362
807.0923, 864.3395
807.5744, 865.0835
808.0565, 866.2806
808.5386, 869.5678
809.0208, 872.5599
809.5029, 869.6378
809.9850, 864.3669
810.4671, 864.0844
810.9492, 873.6445
811.4313, 884.7749
811.9135, 894.6827
812.3956, 903.8483
812.8777, 913.4201
813.3598, 926.1929
813.8419, 933.2744
814.3240, 931.7049
814.8062, 926.3691
815.2883, 925.8588
815.7704, 929.6912
816.2525, 934.1065
816.7346, 938.5017
817.2167, 942.1257
817.6989, 942.0517
818.1810, 941.0486
818.6631, 944.0146
819.1452, 956.4194
819.6273, 968.4654
820.1094, 977.7495
820.5916, 985.2545
821.0737, 992.3181
821.5558, 998.8710
822.0379, 1005.286
822.5200, 1012.098
823.0021, 1017.877
823.4843, 1018.853
823.9664, 1016.491
824.4485, 1015.913
824.9306, 1020.551
825.4127, 1025.127
825.8948, 1026.056
826.3770, 1024.319
826.8591, 1021.654
827.3412, 1016.868
827.8233, 1013.147
828.3054, 1010.869
828.7875, 1009.811
829.2697, 1009.800
829.7518, 1010.876
830.2339, 1012.030
830.7160, 1012.946
831.1981, 1014.008
831.6802, 1016.415
832.1624, 1019.341
832.6445, 1020.949
833.1266, 1017.528
833.6087, 1016.201
834.0908, 1018.511
834.5729, 1024.973
835.0551, 1036.676
835.5372, 1056.736
836.0193, 1074.609
836.5014, 1089.498
836.9835, 1100.078
837.4656, 1098.897
837.9478, 1089.487
838.4299, 1089.180
838.9120, 1105.737
839.3941, 1128.818
839.8762, 1150.223
840.3583, 1171.872
840.8405, 1197.018
841.3226, 1237.576
841.8047, 1266.005
842.2868, 1272.000
842.7689, 1269.716
843.2510, 1283.975
843.7332, 1316.493
844.2153, 1345.146
844.6974, 1364.088
845.1795, 1381.105
845.6616, 1408.599
846.1437, 1441.961
846.6259, 1471.201
847.1080, 1488.192
847.5901, 1508.540
848.0722, 1547.110
848.5543, 1589.687
849.0364, 1615.277
849.5186, 1616.201
850.0007, 1618.786
850.4828, 1625.688
850.9649, 1634.592
851.4470, 1642.717
851.9291, 1650.000
852.4113, 1657.906
852.8934, 1669.608
853.3755, 1672.621
853.8576, 1650.968
854.3397, 1616.841
854.8218, 1584.975
855.3040, 1561.663
855.7860, 1535.889
856.2681, 1506.524
856.7502, 1475.197
857.2324, 1442.211
857.7145, 1407.590
858.1966, 1377.117
858.6787, 1351.764
859.1608, 1328.684
859.6429, 1305.374
860.1251, 1281.712
860.6072, 1255.992
861.0893, 1226.156
861.5714, 1199.904
862.0535, 1180.281
862.5356, 1165.335
863.0178, 1153.425
863.4999, 1147.167
863.9820, 1135.757
864.4641, 1118.458
864.9462, 1098.751
865.4283, 1078.464
865.9105, 1058.975
866.3926, 1044.876
866.8747, 1037.205
867.3568, 1028.929
867.8389, 1012.713
868.3210, 995.9377
868.8032, 985.0628
869.2853, 983.5427
869.7674, 978.6946
870.2495, 969.4125
870.7316, 958.4960
871.2137, 946.6127
871.6959, 934.2009
872.1780, 926.9838
872.6601, 925.0594
873.1422, 922.9381
873.6243, 913.8113
874.1064, 904.0399
874.5886, 900.9288
875.0707, 905.1630
875.5528, 907.9061
876.0349, 905.2612
876.5170, 902.6235
876.9991, 902.7982
877.4813, 905.4780
877.9634, 904.0405
878.4455, 898.2775
878.9276, 891.3131
879.4097, 882.4355
879.8918, 875.1011
880.3740, 877.2190
880.8561, 886.7446
881.3382, 892.3913
881.8203, 881.6669
882.3024, 873.7823
882.7845, 880.5896
883.2667, 897.8695
883.7488, 904.1017
884.2309, 895.9113
884.7130, 892.0327
885.1951, 902.5179
885.6772, 919.0521
886.1594, 922.9791
886.6415, 917.7510
887.1236, 915.0322
887.6057, 926.8407
888.0878, 935.8418
888.5699, 928.8516
889.0521, 912.8906
889.5342, 906.3743
890.0163, 910.4767
890.4984, 924.0154
890.9805, 951.8116
891.4626, 981.6782
891.9448, 984.0001
892.4269, 966.3986
892.9090, 961.4099
893.3911, 985.5474
893.8732, 1011.675
894.3553, 1016.475
894.8375, 1011.884
895.3196, 1014.154
895.8017, 1033.372
896.2838, 1048.192
896.7659, 1056.188
897.2480, 1062.274
897.7302, 1073.186
898.2123, 1088.084
898.6944, 1101.191
899.1765, 1111.303
899.6586, 1121.697
900.1407, 1135.752
900.6229, 1151.397
901.1050, 1165.958
901.5871, 1178.391
902.0692, 1192.516
902.5513, 1209.508
903.0334, 1227.668
903.5156, 1246.141
903.9977, 1265.090
904.4798, 1283.242
904.9619, 1300.571
905.4440, 1317.058
905.9261, 1333.521
906.4083, 1348.536
906.8904, 1359.585
907.3725, 1366.606
907.8546, 1375.352
908.3367, 1392.102
908.8188, 1405.890
909.3010, 1410.389
909.7831, 1407.319
910.2652, 1412.267
910.7473, 1425.516
911.2294, 1440.975
911.7115, 1454.786
912.1937, 1469.574
912.6758, 1490.703
913.1579, 1516.140
913.6400, 1539.985
914.1221, 1553.374
914.6042, 1572.598
915.0864, 1604.262
915.5685, 1644.135
916.0506, 1682.048
916.5327, 1717.480
917.0148, 1757.170
917.4969, 1803.979
917.9790, 1853.974
918.4611, 1898.794
918.9432, 1943.231
919.4254, 1997.127
919.9075, 2072.198
920.3896, 2143.279
920.8717, 2194.526
921.3538, 2242.157
921.8359, 2302.779
922.3181, 2379.093
922.8002, 2456.540
923.2823, 2534.866
923.7644, 2611.142
924.2465, 2675.210
924.7286, 2735.654
925.2108, 2810.267
925.6929, 2904.445
926.1750, 2987.310
926.6571, 3037.422
927.1392, 3079.310
927.6213, 3129.659
928.1035, 3188.796
928.5856, 3243.099
929.0677, 3293.646
929.5498, 3334.425
930.0319, 3367.294
930.5140, 3385.842
930.9962, 3376.661
931.4783, 3341.374
931.9604, 3292.094
932.4425, 3230.405
932.9246, 3159.405
933.4067, 3081.486
933.8889, 2995.381
934.3710, 2888.789
934.8531, 2759.025
935.3352, 2627.459
935.8173, 2502.568
936.2994, 2381.263
936.7816, 2260.526
937.2637, 2141.445
937.7458, 2029.063
938.2279, 1923.087
938.7100, 1826.881
939.1921, 1747.862
939.6743, 1677.608
940.1564, 1602.766
940.6385, 1520.612
941.1206, 1450.044
941.6027, 1392.803
942.0848, 1344.357
942.5670, 1302.073
943.0491, 1264.102
943.5312, 1225.407
944.0133, 1184.896
944.4954, 1148.363
944.9775, 1122.344
945.4597, 1097.326
945.9418, 1065.851
946.4239, 1026.787
946.9060, 1002.333
947.3881, 993.8129
947.8702, 987.0493
948.3524, 972.3378
948.8345, 953.9144
949.3166, 936.8306
949.7987, 921.4517
950.2808, 909.5386
950.7629, 905.5114
951.2451, 901.0636
951.7272, 893.8761
952.2093, 884.3102
952.6914, 872.9815
953.1735, 859.7595
953.6556, 845.8914
954.1378, 830.4052
954.6199, 817.6268
955.1020, 817.5896
955.5841, 822.6601
956.0662, 819.7309
956.5483, 796.0962
957.0305, 779.5858
957.5126, 778.9775
957.9947, 783.6489
958.4768, 783.6549
958.9589, 778.8206
959.4410, 778.1256
959.9232, 782.6597
960.4053, 784.6989
960.8874, 773.5206
961.3695, 758.5676
961.8516, 750.8416
962.3337, 751.6230
962.8159, 752.0016
963.2980, 751.4625
963.7801, 748.4945
964.2622, 741.0419
964.7443, 730.6640
965.2264, 726.0052
965.7086, 726.8218
966.1907, 730.4525
966.6728, 738.8617
967.1549, 746.3266
967.6370, 747.6985
968.1191, 744.4699
968.6013, 739.7950
969.0834, 731.7801
969.5655, 726.6717
970.0476, 726.4623
970.5297, 727.2328
971.0118, 721.7356
971.4940, 711.7504
971.9761, 705.3284
972.4582, 703.8887
972.9403, 705.8989
973.4224, 713.8185
973.9045, 722.2896
974.3867, 726.3921
974.8688, 725.0731
975.3509, 722.4245
975.8330, 718.2873
976.3151, 713.2689
976.7972, 706.1614
977.2794, 698.8184
977.7615, 697.7422
978.2436, 701.8442
978.7257, 704.8121
979.2078, 701.7006
979.6899, 698.2539
980.1720, 697.7846
980.6541, 699.0181
981.1362, 697.9366
981.6183, 693.7984
982.1005, 690.9641
982.5826, 690.3563
983.0647, 691.6495
983.5468, 696.2659
984.0289, 702.0123
984.5110, 704.7953
984.9932, 703.5420
985.4753, 699.4882
985.9574, 689.4929
986.4395, 679.6852
986.9216, 673.6741
987.4037, 671.2743
987.8859, 677.4543
988.3680, 692.8486
988.8501, 704.2994
989.3322, 695.9651
989.8143, 682.3821
990.2964, 679.9104
990.7786, 687.8941
991.2607, 695.0187
991.7428, 699.6701
992.2249, 701.9144
992.7070, 701.9134
993.1891, 699.3372
993.6713, 690.8798
994.1534, 678.1160
994.6355, 670.9445
995.1176, 674.0867
995.5997, 680.2897
996.0818, 686.3994
996.5640, 691.2358
997.0461, 693.0472
997.5282, 690.4047
998.0103, 687.6510
998.4924, 684.3075
998.9745, 682.0746
999.4567, 683.1841
999.9388, 686.4054
1000.421, 688.1277
1000.903, 688.4032
1001.385, 690.0427
1001.867, 698.4731
1002.349, 704.7087
1002.831, 702.5949
1003.314, 694.4170
1003.796, 688.7622
1004.278, 685.6113
1004.760, 685.1964
1005.242, 688.8689
1005.724, 692.8885
1006.206, 692.1252
1006.688, 688.1313
1007.171, 683.4659
1007.653, 677.1246
1008.135, 673.3798
1008.617, 674.3289
1009.099, 675.8985
1009.581, 673.5186
1010.063, 667.6548
1010.545, 666.7310
1011.027, 670.9721
1011.510, 676.2184
1011.992, 679.1543
1012.474, 681.9727
1012.956, 687.8966
1013.438, 696.2387
1013.920, 698.5571
1014.402, 692.3608
1014.884, 685.7398
1015.367, 679.7536
1015.849, 676.3604
1016.331, 683.2039
1016.813, 695.6730
1017.295, 700.8124
1017.777, 689.9022
1018.259, 680.8970
1018.741, 684.1890
1019.223, 690.4084
1019.706, 690.6149
1020.188, 683.0460
1020.670, 681.2418
1021.152, 685.7751
1021.634, 691.3405
1022.116, 694.1899
1022.598, 695.3207
1023.080, 694.9982
1023.563, 693.6319
1024.045, 693.7828
1024.527, 697.1652
1025.009, 700.5274
1025.491, 703.5246
1025.973, 705.6277
1026.455, 705.7316
1026.937, 703.8839
1027.419, 699.6093
1027.901, 691.2319
1028.384, 685.2743
1028.866, 689.0641
1029.348, 695.5787
1029.830, 697.5215
1030.312, 693.4446
1030.794, 690.7782
1031.276, 689.3398
1031.758, 690.3054
1032.241, 698.1240
1032.723, 706.9995
1033.205, 705.1404
1033.687, 695.0624
1034.169, 688.3746
1034.651, 689.5698
1035.133, 695.2872
1035.615, 708.4957
1036.098, 722.3961
1036.580, 721.6559
1037.062, 708.0821
1037.544, 698.8985
1038.026, 698.0745
1038.508, 699.4718
1038.990, 699.9537
1039.472, 698.8615
1039.954, 694.2141
1040.437, 684.3412
1040.919, 682.1198
1041.401, 689.3624
1041.883, 698.2679
1042.365, 705.5778
1042.847, 711.0989
1043.329, 714.7241
1043.811, 716.3001
1044.293, 715.3028
1044.776, 708.2641
1045.258, 702.8394
1045.740, 701.6949
1046.222, 702.3967
1046.704, 702.2248
1047.186, 701.1509
1047.668, 697.4241
1048.150, 690.4249
1048.633, 686.3900
1049.115, 693.4022
1049.597, 703.7921
1050.079, 712.6780
1050.561, 719.3566
1051.043, 717.5064
1051.525, 702.5610
1052.007, 692.6645
1052.490, 696.8215
1052.972, 707.3260
1053.454, 708.5475
1053.936, 703.8608
1054.418, 701.3392
1054.900, 704.1940
1055.382, 708.8804
1055.864, 717.8864
1056.346, 725.2444
1056.828, 724.2907
1057.311, 715.0427
1057.793, 712.8307
1058.275, 718.0060
1058.757, 722.1276
1059.239, 717.9363
1059.721, 711.3946
1060.203, 706.0450
1060.685, 702.3253
1061.168, 701.0515
1061.650, 702.9351
1062.132, 705.1480
1062.614, 707.1923
1063.096, 709.0837
1063.578, 711.1263
1064.060, 712.9271
1064.542, 713.6843
1065.025, 713.0296
1065.507, 712.2501
1065.989, 710.8098
1066.471, 710.2674
1066.953, 710.0259
1067.435, 711.0822
1067.917, 727.3566
1068.399, 756.0110
1068.881, 770.8004
1069.364, 740.7364
1069.846, 709.9341
1070.328, 709.3911
1070.810, 726.2529
1071.292, 737.3109
1071.774, 741.4366
1072.256, 740.5871
1072.738, 733.6641
1073.220, 727.4232
1073.703, 730.3342
1074.185, 737.5257
1074.667, 742.6893
1075.149, 745.3634
1075.631, 746.7923
1076.113, 747.6997
1076.595, 746.6000
1077.077, 742.0317
1077.559, 736.2110
1078.042, 736.3636
1078.524, 740.2469
1079.006, 738.0535
1079.488, 723.2847
1079.970, 712.8745
1080.452, 721.0825
1080.934, 733.8474
1081.416, 738.8879
1081.899, 735.5521
1082.381, 733.2942
1082.863, 732.1321
1083.345, 731.7385
1083.827, 731.4144
1084.309, 732.1367
1084.791, 737.0657
1085.273, 743.6597
1085.755, 744.9439
1086.238, 736.3500
1086.720, 730.1333
1087.202, 727.2029
1087.684, 727.3737
1088.166, 734.3640
1088.648, 743.1454
1089.130, 739.7635
1089.612, 723.1154
1090.094, 714.1810
1090.577, 730.6093
1091.059, 746.1583
1091.541, 751.3453
1092.023, 748.6762
1092.505, 744.5243
1092.987, 739.3987
1093.469, 736.9395
1093.951, 739.4082
1094.434, 741.5992
1094.916, 740.2552
1095.398, 736.4963
1095.880, 730.5107
1096.362, 721.2178
1096.844, 718.1108
1097.326, 721.4787
1097.808, 728.0938
1098.291, 739.7776
1098.773, 750.7426
1099.255, 753.0204
1099.737, 748.8029
1100.219, 743.1281
1100.701, 732.1741
1101.183, 729.1906
1101.665, 737.7310
1102.147, 748.8451
1102.630, 752.1891
1103.112, 749.9343
1103.594, 746.4886
1104.076, 742.3262
1104.558, 738.1389
1105.040, 733.2651
1105.522, 729.6208
1106.004, 727.7236
1106.486, 727.5208
1106.969, 729.8605
1107.451, 734.1861
1107.933, 736.9431
1108.415, 737.3773
1108.897, 735.3262
1109.379, 726.7751
1109.861, 718.6190
1110.343, 717.4709
1110.826, 723.5833
1111.308, 729.0972
1111.790, 733.8950
1112.272, 739.6126
1112.754, 751.1235
1113.236, 759.8814
1113.718, 752.5882
1114.200, 736.4930
1114.682, 725.4693
1115.165, 723.0605
1115.647, 723.7365
1116.129, 728.6147
1116.611, 732.8510
1117.093, 729.3680
1117.575, 723.1534
1118.057, 725.4662
1118.539, 735.1679
1119.021, 741.6690
1119.504, 737.9963
1119.986, 734.7319
1120.468, 734.1904
1120.950, 735.1558
1121.432, 735.2499
1121.914, 734.9325
1122.396, 736.8426
1122.878, 741.9474
1123.361, 744.3023
1123.843, 736.2904
1124.325, 728.7609
1124.807, 728.6217
1125.289, 734.4032
1125.771, 738.0274
1126.253, 739.4374
1126.735, 737.0052
1127.218, 727.1353
1127.700, 719.4707
1128.182, 724.4056
1128.664, 734.5873
1129.146, 741.3324
1129.628, 743.6088
1130.110, 745.4569
1130.592, 746.8105
1131.074, 748.0598
1131.557, 751.9205
1132.039, 753.9527
1132.521, 746.8381
1133.003, 733.7563
1133.485, 722.3402
1133.967, 710.6119
1134.449, 708.3673
1134.931, 718.9080
1135.413, 731.6781
1135.896, 734.2429
1136.378, 731.4689
1136.860, 732.9808
1137.342, 738.7479
1137.824, 741.8680
1138.306, 735.5992
1138.788, 732.6322
1139.270, 737.8590
1139.752, 745.2117
1140.235, 740.1639
1140.717, 727.6440
1141.199, 724.4142
1141.681, 735.0417
1142.163, 744.0391
1142.645, 740.1863
1143.127, 736.6598
1143.609, 741.5999
1144.092, 752.1639
1144.574, 754.2722
1145.056, 748.7589
1145.538, 740.9914
1146.020, 730.9247
1146.502, 723.6019
1146.984, 724.2774
1147.466, 728.2017
1147.948, 730.9526
1148.431, 732.4674
1148.913, 733.8359
1149.395, 735.1173
1149.877, 732.8641
1150.359, 718.3052
1150.841, 705.6985
1151.323, 707.9311
1151.805, 719.9673
1152.287, 732.5011
1152.770, 747.0902
1153.252, 753.0833
1153.734, 748.6658
1154.216, 743.3748
1154.698, 746.4842
1155.180, 752.9791
1155.662, 759.2026
1156.144, 764.1201
1156.627, 762.7833
1157.109, 751.4878
1157.591, 743.5462
1158.073, 741.7341
1158.555, 742.2535
1159.037, 740.5429
1159.519, 737.6997
1160.001, 734.7126
1160.484, 731.6389
1160.966, 731.9395
1161.448, 738.7479
1161.930, 744.2457
1162.412, 746.1652
1162.894, 745.3552
1163.376, 742.0549
1163.858, 737.6152
1164.340, 735.1278
1164.823, 735.2855
1165.305, 737.7222
1165.787, 745.7202
1166.269, 751.3600
1166.751, 749.7243
1167.233, 743.1100
1167.715, 738.4664
1168.197, 736.0428
1168.679, 737.0879
1169.162, 745.6514
1169.644, 751.5313
1170.126, 749.4993
1170.608, 744.8985
1171.090, 740.1675
1171.572, 735.6893
1172.054, 738.1599
1172.536, 746.5350
1173.019, 752.6771
1173.501, 748.7169
1173.983, 745.3865
1174.465, 749.2389
1174.947, 755.4182
1175.429, 758.6854
1175.911, 759.0207
1176.393, 754.6871
1176.875, 745.7440
1177.358, 739.3902
1177.840, 740.3567
1178.322, 746.0214
1178.804, 759.9168
1179.286, 776.0733
1179.768, 779.5601
1180.250, 769.9539
1180.732, 758.6309
1181.214, 746.5283
1181.697, 740.7114
1182.179, 754.7061
1182.661, 771.1646
1183.143, 775.2013
1183.625, 768.1600
1184.107, 760.1254
1184.589, 750.5219
1185.071, 747.5816
1185.554, 755.2547
1186.036, 763.5586
1186.518, 760.4051
1187.000, 753.8581
1187.482, 753.6506
1187.964, 760.7382
1188.446, 760.0201
1188.928, 749.7800
1189.411, 744.9830
1189.893, 754.1188
1190.375, 766.6296
1190.857, 770.7797
1191.339, 770.3705
1191.821, 770.8820
1192.303, 774.6717
1192.785, 769.7874
1193.267, 753.6035
1193.750, 743.3291
1194.232, 754.8686
1194.714, 771.6396
1195.196, 770.7521
1195.678, 760.3998
1196.160, 755.9581
1196.642, 763.2265
1197.124, 769.3163
1197.606, 774.6323
1198.089, 776.9415
1198.571, 771.8712
1199.053, 764.6103
1199.535, 762.0629
1200.017, 763.2343
1200.499, 764.9250
1200.981, 767.9250
1201.463, 767.9976
1201.945, 764.0881
1202.428, 760.0441
1202.910, 759.2089
1203.392, 760.8079
1203.874, 764.7426
1204.356, 770.4023
1204.838, 774.5042
1205.320, 775.8788
1205.802, 777.6096
1206.285, 780.5270
1206.767, 782.6721
1207.249, 781.6737
1207.731, 778.3293
1208.213, 772.2562
1208.695, 763.8535
1209.177, 760.4449
1209.659, 765.5616
1210.141, 768.3521
1210.624, 765.0549
1211.106, 761.4150
1211.588, 768.9507
1212.070, 780.1140
1212.552, 781.0256
1213.034, 768.4545
1213.516, 766.1057
1213.998, 781.5074
1214.480, 793.2385
1214.963, 793.5468
1215.445, 788.3730
1215.927, 787.5376
1216.409, 788.2081
1216.891, 784.6776
1217.373, 773.9890
1217.855, 769.8691
1218.337, 775.8994
1218.820, 781.3260
1219.302, 781.3321
1219.784, 778.1703
1220.266, 773.7448
1220.748, 769.7838
1221.230, 769.9843
1221.712, 777.9073
1222.194, 781.9023
1222.677, 780.5531
1223.159, 777.8550
1223.641, 775.8035
1224.123, 774.0220
1224.605, 768.1960
1225.087, 762.8757
1225.569, 767.9606
1226.051, 801.7489
1226.533, 813.1774
1227.016, 795.0362
1227.498, 774.2581
1227.980, 769.0135
1228.462, 773.5108
1228.944, 782.8887
1229.426, 793.9392
1229.908, 798.8160
1230.390, 789.8323
1230.872, 786.0984
1231.355, 789.2276
1231.837, 793.6742
1232.319, 794.9116
1232.801, 794.5908
1233.283, 795.6215
1233.765, 797.0954
1234.247, 795.7012
1234.729, 788.4402
1235.212, 784.8978
1235.694, 786.3430
1236.176, 788.9473
1236.658, 788.5996
1237.140, 787.6522
1237.622, 790.3716
1238.104, 795.3318
1238.586, 795.8105
1239.068, 789.6083
1239.551, 784.7587
1240.033, 782.0752
1240.515, 781.3776
1240.997, 783.8950
1241.479, 787.2543
1241.961, 787.7338
1242.443, 786.3745
1242.925, 790.5234
1243.407, 803.5469
1243.890, 806.2011
1244.372, 793.5651
1244.854, 780.6648
1245.336, 786.4117
1245.818, 796.9462
1246.300, 797.2582
1246.782, 788.7031
1247.264, 789.2607
1247.747, 800.8710
1248.229, 806.4465
1248.711, 801.5789
1249.193, 795.0612
1249.675, 795.6445
1250.157, 797.9713
1250.639, 796.6606
1251.121, 792.4979
1251.604, 790.9850
1252.086, 792.2180
1252.568, 795.7047
1253.050, 802.1445
1253.532, 806.5775
1254.014, 799.0220
1254.496, 792.5925
1254.978, 802.2189
1255.460, 822.8682
1255.943, 826.0344
1256.425, 812.6254
1256.907, 802.2216
1257.389, 800.0884
1257.871, 801.7009
1258.353, 809.7633
1258.835, 814.4008
1259.317, 806.2544
1259.799, 789.2697
1260.281, 785.3652
1260.764, 792.7415
1261.246, 800.6217
1261.728, 806.5359
1262.210, 809.7516
1262.692, 806.8031
1263.174, 804.4827
1263.656, 808.0756
1264.138, 815.0616
1264.621, 814.5356
1265.103, 807.8040
1265.585, 798.7300
1266.067, 785.1564
1266.549, 779.3725
1267.031, 793.4285
1267.513, 806.8832
1267.995, 807.7938
1268.478, 801.1922
1268.960, 803.2700
1269.442, 811.3759
1269.924, 818.3385
1270.406, 822.8258
1270.888, 823.2831
1271.370, 817.6995
1271.852, 812.3912
1272.334, 811.4915
1272.817, 812.8879
1273.299, 811.5894
1273.781, 808.9013
1274.263, 807.5213
1274.745, 808.0134
1275.227, 811.3923
1275.709, 819.5912
1276.191, 824.6018
1276.673, 818.6031
1277.156, 809.5700
1277.638, 809.3899
1278.120, 815.3865
1278.602, 823.3622
1279.084, 835.6917
1279.566, 839.4939
1280.048, 833.7034
1280.530, 826.3950
1281.013, 822.3474
1281.495, 819.3687
1281.977, 812.5722
1282.459, 806.4018
1282.941, 809.4387
1283.423, 825.4165
1283.905, 829.6390
1284.387, 821.8593
1284.870, 813.4916
1285.352, 809.9345
1285.834, 810.3040
1286.316, 818.1407
1286.798, 826.9666
1287.280, 828.0779
1287.762, 821.0475
1288.244, 818.7977
1288.726, 821.0270
1289.208, 824.1312
1289.691, 825.9700
1290.173, 828.4293
1290.655, 835.0441
1291.137, 840.2000
1291.619, 837.5578
##END=



