##NAMES=Arseniopleite
##RRUFFID=R070144
##IDEAL CHEMISTRY=NaCaMn^2+^Mn^2+^_2_(As^5+^O_4_)_3_
##LOCALITY=Sjögruvan mine, Grythyttan, Västmanland, Sweden
##OWNER=RRUFF
##SOURCE=Michael Scott
##DESCRIPTION=Vitreous brownish red massive
##STATUS=The identification of this mineral is confirmed by single-crystal X-ray diffraction and chemical analysis.
##URL=rruff.info/R070144
##MEASURED CHEMISTRY=(Ca_0.81_Na_0.19_)_Σ=1_(Na_0.99_Pb^2+^_0.01_)_Σ=1_Mn^2+^_1.00_(Mn^2+^_1.10_Mg_0.65_Fe^3+^_0.18_Fe^2+^_0.07_)_Σ=2_(As_1.00_O_4_)_3_; trace amounts of P; Fe^2+^ and Fe^3+^ splitted by charge balance
55.25977, 40.07792
55.74188, 35.50863
56.22400, 32.74343
56.70612, 32.58294
57.18823, 33.06653
57.67035, 33.87657
58.15247, 35.35067
58.63458, 38.49179
59.11670, 44.12472
59.59882, 50.44931
60.08093, 52.73096
60.56305, 49.24570
61.04517, 45.99240
61.52728, 46.03737
62.00940, 48.70105
62.49151, 51.10432
62.97363, 52.43289
63.45575, 52.13748
63.93786, 49.37637
64.41998, 41.91793
64.90210, 34.57283
65.38422, 32.74959
65.86633, 37.41930
66.34845, 42.65378
66.83057, 46.87407
67.31268, 49.50827
67.79479, 49.15007
68.27691, 43.58830
68.75903, 35.43044
69.24114, 32.14512
69.72326, 37.11549
70.20538, 41.95782
70.68749, 43.85933
71.16961, 43.38227
71.65173, 41.36559
72.13384, 37.85573
72.61596, 32.88436
73.09808, 29.73111
73.58019, 29.21889
74.06231, 30.04188
74.54443, 32.70262
75.02654, 36.63142
75.50866, 40.54819
75.99078, 43.17243
76.47289, 44.35849
76.95501, 44.68383
77.43713, 43.21029
77.91924, 41.78138
78.40136, 41.58257
78.88348, 42.73357
79.36559, 44.39343
79.84771, 45.23566
80.32983, 43.43995
80.81194, 44.75226
81.29406, 53.76743
81.77618, 63.78382
82.25829, 67.25860
82.74041, 61.55524
83.22253, 51.25303
83.70464, 45.44424
84.18676, 45.37499
84.66888, 46.05202
85.15099, 47.68473
85.63311, 49.30199
86.11523, 48.21894
86.59734, 42.08585
87.07946, 34.51197
87.56158, 33.32525
88.04369, 40.93838
88.52581, 49.02237
89.00793, 52.24416
89.49004, 51.19184
89.97216, 50.94683
90.45428, 55.66426
90.93639, 61.37904
91.41851, 61.93444
91.90063, 54.49849
92.38274, 45.17181
92.86485, 40.64693
93.34697, 41.65969
93.82909, 43.64479
94.31120, 44.57856
94.79332, 45.35264
95.27544, 47.19616
95.75755, 51.27602
96.23967, 55.85028
96.72179, 56.48051
97.20390, 49.90634
97.68602, 45.67890
98.16814, 49.09277
98.65025, 55.99069
99.13237, 60.90143
99.61449, 60.33672
100.0966, 55.33123
100.5787, 51.89307
101.0608, 51.67359
101.5430, 51.24925
102.0251, 49.20023
102.5072, 46.30318
102.9893, 43.95647
103.4714, 43.13329
103.9535, 43.83609
104.4357, 45.85189
104.9178, 51.40054
105.3999, 56.14941
105.8820, 58.43704
106.3641, 58.59579
106.8462, 57.96471
107.3284, 57.70022
107.8105, 57.80791
108.2926, 58.34928
108.7747, 58.59402
109.2568, 59.72651
109.7389, 63.26836
110.2211, 68.88530
110.7032, 74.16421
111.1853, 76.30799
111.6674, 73.87883
112.1495, 73.25702
112.6316, 75.46487
113.1138, 78.74339
113.5959, 81.61102
114.0780, 83.80534
114.5601, 86.12770
115.0422, 89.87757
115.5243, 95.54461
116.0065, 100.3067
116.4886, 102.5332
116.9707, 104.1563
117.4528, 107.4082
117.9349, 112.8399
118.4170, 120.0807
118.8991, 130.1052
119.3813, 143.3684
119.8634, 153.6403
120.3455, 154.9594
120.8276, 152.1134
121.3097, 155.7867
121.7918, 169.7400
122.2740, 189.4949
122.7561, 209.5400
123.2382, 229.9860
123.7203, 250.4875
124.2024, 271.6917
124.6845, 293.2134
125.1667, 312.4435
125.6488, 326.5489
126.1309, 340.5658
126.6130, 359.6721
127.0951, 384.1651
127.5772, 410.1454
128.0594, 435.9090
128.5415, 461.4978
129.0236, 482.9980
129.5057, 497.9250
129.9878, 508.9724
130.4699, 516.6652
130.9521, 520.9800
131.4342, 525.7321
131.9163, 536.3697
132.3984, 554.5775
132.8805, 569.1323
133.3626, 573.7021
133.8448, 576.1605
134.3269, 579.9849
134.8090, 586.0889
135.2911, 595.9500
135.7732, 612.4705
136.2553, 638.1391
136.7375, 663.5626
137.2196, 683.1737
137.7017, 704.5265
138.1838, 734.3329
138.6659, 774.3530
139.1480, 820.0939
139.6302, 863.4366
140.1123, 904.6844
140.5944, 943.3138
141.0765, 975.4189
141.5586, 1007.454
142.0407, 1044.528
142.5229, 1088.434
143.0050, 1137.607
143.4871, 1188.945
143.9692, 1245.720
144.4513, 1299.390
144.9334, 1351.056
145.4156, 1399.002
145.8977, 1441.133
146.3798, 1476.648
146.8619, 1506.540
147.3440, 1532.984
147.8261, 1550.036
148.3083, 1570.974
148.7904, 1603.393
149.2725, 1637.348
149.7546, 1660.930
150.2367, 1668.794
150.7188, 1666.042
151.2010, 1667.481
151.6831, 1678.501
152.1652, 1687.507
152.6473, 1690.500
153.1294, 1691.719
153.6115, 1697.393
154.0937, 1710.608
154.5758, 1728.493
155.0579, 1742.255
155.5400, 1748.229
156.0221, 1754.757
156.5042, 1761.901
156.9864, 1770.558
157.4685, 1782.618
157.9506, 1799.266
158.4327, 1818.908
158.9148, 1836.700
159.3969, 1850.059
159.8791, 1865.393
160.3612, 1884.386
160.8433, 1906.390
161.3254, 1930.620
161.8075, 1957.210
162.2896, 1984.969
162.7718, 2010.473
163.2539, 2032.769
163.7360, 2054.762
164.2181, 2077.509
164.7002, 2100.707
165.1823, 2123.509
165.6645, 2145.555
166.1466, 2166.995
166.6287, 2187.996
167.1108, 2208.773
167.5929, 2228.969
168.0750, 2248.535
168.5572, 2267.465
169.0393, 2286.354
169.5214, 2306.474
170.0035, 2325.206
170.4856, 2336.381
170.9677, 2335.885
171.4499, 2338.786
171.9320, 2357.469
172.4141, 2386.895
172.8962, 2407.765
173.3783, 2407.877
173.8604, 2401.676
174.3426, 2414.646
174.8247, 2452.533
175.3068, 2488.159
175.7889, 2505.239
176.2710, 2506.620
176.7531, 2504.240
177.2353, 2497.850
177.7174, 2493.974
178.1995, 2501.415
178.6816, 2521.805
179.1637, 2544.341
179.6458, 2566.224
180.1279, 2586.120
180.6101, 2595.232
181.0922, 2582.781
181.5743, 2567.603
182.0564, 2571.729
182.5385, 2596.664
183.0206, 2625.703
183.5028, 2650.971
183.9849, 2672.233
184.4670, 2686.037
184.9491, 2684.903
185.4312, 2683.429
185.9133, 2697.167
186.3955, 2726.353
186.8776, 2755.968
187.3597, 2776.597
187.8418, 2788.943
188.3239, 2797.951
188.8060, 2802.402
189.2882, 2805.939
189.7703, 2811.244
190.2524, 2818.310
190.7345, 2826.763
191.2166, 2836.159
191.6987, 2846.638
192.1809, 2859.147
192.6630, 2875.538
193.1451, 2892.019
193.6272, 2905.659
194.1093, 2916.864
194.5914, 2927.746
195.0736, 2937.272
195.5557, 2946.647
196.0378, 2964.301
196.5199, 2996.614
197.0020, 3030.011
197.4841, 3057.295
197.9663, 3078.677
198.4484, 3094.935
198.9305, 3100.956
199.4126, 3084.289
199.8947, 3114.451
200.3768, 3136.331
200.8590, 3150.376
201.3411, 3133.109
201.8232, 3156.272
202.3053, 3163.233
202.7874, 3169.529
203.2695, 3198.382
203.7517, 3185.671
204.2338, 3214.167
204.7159, 3226.213
205.1980, 3245.788
205.6801, 3249.060
206.1622, 3257.367
206.6444, 3281.984
207.1265, 3281.910
207.6086, 3293.536
208.0907, 3302.435
208.5728, 3313.122
209.0549, 3328.596
209.5371, 3346.613
210.0192, 3363.866
210.5013, 3378.282
210.9834, 3391.548
211.4655, 3407.692
211.9476, 3427.284
212.4298, 3448.466
212.9119, 3471.715
213.3940, 3495.593
213.8761, 3518.229
214.3582, 3538.898
214.8403, 3558.058
215.3225, 3576.950
215.8046, 3596.814
216.2867, 3612.462
216.7688, 3615.791
217.2509, 3617.282
217.7330, 3627.019
218.2152, 3648.590
218.6973, 3676.454
219.1794, 3704.511
219.6615, 3733.911
220.1436, 3758.448
220.6257, 3771.186
221.1079, 3781.187
221.5900, 3795.531
222.0721, 3815.902
222.5542, 3836.885
223.0363, 3852.268
223.5184, 3861.727
224.0006, 3868.288
224.4827, 3865.458
224.9648, 3865.055
225.4469, 3877.485
225.9290, 3903.118
226.4111, 3929.384
226.8933, 3943.466
227.3754, 3945.036
227.8575, 3945.760
228.3396, 3939.960
228.8217, 3940.981
229.3038, 3961.422
229.7859, 3998.624
230.2681, 4034.447
230.7502, 4054.248
231.2323, 4059.251
231.7144, 4062.630
232.1965, 4061.311
232.6786, 4063.549
233.1608, 4074.250
233.6429, 4091.978
234.1250, 4112.332
234.6071, 4137.746
235.0892, 4164.764
235.5714, 4176.306
236.0535, 4163.596
236.5356, 4150.328
237.0177, 4145.472
237.4998, 4148.972
237.9819, 4162.143
238.4641, 4191.154
238.9462, 4227.303
239.4283, 4250.030
239.9104, 4254.151
240.3925, 4258.543
240.8746, 4277.168
241.3568, 4300.037
241.8389, 4314.045
242.3210, 4312.453
242.8031, 4303.922
243.2852, 4298.362
243.7673, 4294.858
244.2495, 4299.930
244.7316, 4329.287
245.2137, 4362.458
245.6958, 4376.801
246.1779, 4363.955
246.6600, 4345.641
247.1422, 4346.039
247.6243, 4365.217
248.1064, 4376.737
248.5885, 4364.163
249.0706, 4347.729
249.5527, 4349.260
250.0349, 4371.372
250.5170, 4395.910
250.9991, 4413.699
251.4812, 4424.319
251.9633, 4423.701
252.4454, 4404.679
252.9276, 4382.716
253.4097, 4370.691
253.8918, 4368.140
254.3739, 4374.525
254.8560, 4396.891
255.3381, 4427.470
255.8203, 4448.188
256.3024, 4456.385
256.7845, 4456.064
257.2666, 4445.172
257.7487, 4427.338
258.2308, 4414.478
258.7130, 4411.917
259.1951, 4415.428
259.6772, 4421.334
260.1593, 4430.084
260.6414, 4435.473
261.1235, 4430.308
261.6057, 4418.554
262.0878, 4411.682
262.5699, 4415.059
263.0520, 4420.458
263.5341, 4420.751
264.0162, 4416.498
264.4984, 4413.431
264.9805, 4416.514
265.4626, 4421.314
265.9447, 4416.647
266.4268, 4397.390
266.9089, 4377.877
267.3911, 4364.467
267.8732, 4356.272
268.3553, 4351.342
268.8374, 4349.531
269.3195, 4349.580
269.8016, 4349.375
270.2838, 4349.072
270.7659, 4348.179
271.2480, 4345.568
271.7301, 4342.635
272.2122, 4342.931
272.6943, 4347.647
273.1765, 4350.082
273.6586, 4339.452
274.1407, 4310.939
274.6228, 4296.404
275.1049, 4309.651
275.5870, 4329.149
276.0692, 4338.631
276.5513, 4336.492
277.0334, 4326.737
277.5155, 4310.397
277.9976, 4287.206
278.4797, 4276.593
278.9619, 4287.276
279.4440, 4300.248
279.9261, 4309.209
280.4082, 4313.559
280.8903, 4312.044
281.3724, 4302.893
281.8546, 4288.851
282.3367, 4284.001
282.8188, 4302.122
283.3009, 4312.413
283.7830, 4298.160
284.2651, 4277.189
284.7473, 4277.021
285.2294, 4307.993
285.7115, 4350.679
286.1936, 4365.677
286.6757, 4327.782
287.1578, 4301.134
287.6400, 4292.271
288.1221, 4289.413
288.6042, 4282.843
289.0863, 4271.578
289.5684, 4262.458
290.0505, 4264.771
290.5327, 4282.917
291.0148, 4292.005
291.4969, 4282.530
291.9790, 4273.706
292.4611, 4277.118
292.9432, 4288.357
293.4254, 4294.310
293.9075, 4284.052
294.3896, 4259.803
294.8717, 4243.675
295.3538, 4240.101
295.8359, 4239.736
296.3181, 4243.053
296.8002, 4247.259
297.2823, 4247.460
297.7644, 4240.713
298.2465, 4233.165
298.7286, 4239.984
299.2108, 4269.591
299.6929, 4291.242
300.1750, 4289.484
300.6571, 4283.713
301.1392, 4288.690
301.6213, 4307.065
302.1035, 4329.408
302.5855, 4346.804
303.0677, 4359.195
303.5498, 4368.354
304.0319, 4372.212
304.5140, 4375.079
304.9961, 4379.336
305.4782, 4384.921
305.9604, 4391.215
306.4425, 4395.021
306.9246, 4399.248
307.4067, 4415.264
307.8888, 4449.187
308.3709, 4478.814
308.8531, 4485.126
309.3352, 4478.455
309.8173, 4474.440
310.2994, 4478.309
310.7815, 4485.069
311.2636, 4488.733
311.7458, 4489.506
312.2279, 4493.358
312.7100, 4505.589
313.1921, 4520.226
313.6742, 4526.573
314.1563, 4522.507
314.6385, 4516.848
315.1206, 4506.744
315.6027, 4498.650
316.0848, 4512.080
316.5669, 4556.588
317.0490, 4604.575
317.5312, 4616.638
318.0133, 4588.987
318.4954, 4571.074
318.9775, 4575.151
319.4596, 4587.655
319.9417, 4597.666
320.4239, 4604.184
320.9060, 4610.639
321.3881, 4620.271
321.8702, 4632.658
322.3523, 4639.194
322.8344, 4635.792
323.3166, 4631.969
323.7987, 4629.838
324.2808, 4629.833
324.7629, 4634.097
325.2450, 4644.088
325.7271, 4655.047
326.2093, 4654.889
326.6914, 4628.942
327.1735, 4611.443
327.6556, 4607.274
328.1377, 4608.438
328.6198, 4608.050
329.1020, 4605.085
329.5841, 4603.777
330.0662, 4610.421
330.5483, 4628.259
331.0304, 4636.559
331.5125, 4627.766
331.9947, 4616.851
332.4768, 4605.060
332.9589, 4595.441
333.4410, 4593.479
333.9231, 4604.072
334.4052, 4623.380
334.8874, 4636.999
335.3695, 4643.763
335.8516, 4646.502
336.3337, 4642.432
336.8158, 4637.017
337.2979, 4635.692
337.7801, 4640.087
338.2622, 4647.448
338.7443, 4656.020
339.2264, 4666.041
339.7085, 4671.435
340.1906, 4665.566
340.6728, 4660.715
341.1549, 4666.598
341.6370, 4682.310
342.1191, 4700.147
342.6012, 4716.989
343.0833, 4733.051
343.5655, 4748.052
344.0476, 4761.494
344.5297, 4776.522
345.0118, 4796.916
345.4939, 4820.418
345.9760, 4841.002
346.4582, 4855.440
346.9403, 4869.745
347.4224, 4889.594
347.9045, 4913.107
348.3866, 4932.438
348.8687, 4942.576
349.3509, 4950.413
349.8330, 4971.712
350.3151, 5012.367
350.7972, 5046.496
351.2793, 5060.830
351.7614, 5071.244
352.2436, 5096.404
352.7257, 5138.155
353.2078, 5182.865
353.6899, 5217.366
354.1720, 5240.483
354.6541, 5264.895
355.1363, 5288.413
355.6184, 5315.216
356.1005, 5345.733
356.5826, 5380.804
357.0647, 5423.186
357.5468, 5474.952
358.0290, 5530.907
358.5111, 5576.088
358.9932, 5607.907
359.4753, 5632.570
359.9574, 5642.944
360.4395, 5652.649
360.9217, 5671.696
361.4038, 5701.499
361.8859, 5737.047
362.3680, 5776.526
362.8501, 5820.417
363.3322, 5853.152
363.8144, 5872.090
364.2965, 5881.769
364.7786, 5883.552
365.2607, 5878.576
365.7428, 5867.151
366.2249, 5844.487
366.7071, 5822.178
367.1892, 5825.473
367.6713, 5858.493
368.1534, 5878.608
368.6355, 5865.825
369.1176, 5835.033
369.5998, 5805.502
370.0819, 5778.811
370.5640, 5747.940
371.0461, 5701.820
371.5282, 5649.815
372.0103, 5613.062
372.4925, 5596.130
372.9746, 5587.969
373.4567, 5582.854
373.9388, 5579.799
374.4209, 5562.888
374.9030, 5519.988
375.3852, 5473.454
375.8673, 5430.912
376.3494, 5395.314
376.8315, 5375.550
377.3136, 5378.019
377.7957, 5392.805
378.2779, 5393.709
378.7600, 5367.629
379.2421, 5344.594
379.7242, 5327.276
380.2063, 5311.734
380.6884, 5294.057
381.1706, 5274.095
381.6527, 5255.612
382.1348, 5242.496
382.6169, 5234.993
383.0990, 5228.132
383.5811, 5208.711
384.0633, 5190.552
384.5454, 5214.234
385.0275, 5229.633
385.5096, 5237.195
385.9917, 5213.447
386.4738, 5230.130
386.9560, 5230.611
387.4381, 5230.426
387.9202, 5252.799
388.4023, 5233.605
388.8844, 5255.620
389.3665, 5261.186
389.8487, 5274.280
390.3308, 5271.072
390.8129, 5272.898
391.2950, 5291.033
391.7771, 5300.138
392.2592, 5295.052
392.7414, 5308.626
393.2235, 5288.863
393.7056, 5298.352
394.1877, 5320.462
394.6698, 5316.197
395.1519, 5330.067
395.6341, 5337.032
396.1162, 5312.604
396.5983, 5342.768
397.0804, 5349.324
397.5625, 5331.637
398.0446, 5359.931
398.5268, 5345.587
399.0089, 5346.462
399.4910, 5358.790
399.9731, 5359.179
400.4552, 5370.752
400.9373, 5381.588
401.4194, 5394.833
401.9016, 5411.068
402.3837, 5427.848
402.8658, 5434.357
403.3479, 5419.941
403.8300, 5411.791
404.3121, 5417.317
404.7943, 5427.128
405.2764, 5433.405
405.7585, 5434.760
406.2406, 5435.020
406.7227, 5440.675
407.2048, 5451.130
407.6870, 5450.032
408.1691, 5430.604
408.6512, 5409.630
409.1333, 5397.260
409.6154, 5389.621
410.0975, 5380.931
410.5797, 5374.363
411.0618, 5358.698
411.5439, 5314.493
412.0260, 5246.558
412.5081, 5189.865
412.9902, 5157.965
413.4724, 5138.346
413.9545, 5115.792
414.4366, 5091.682
414.9187, 5057.145
415.4008, 4998.150
415.8829, 4936.238
416.3651, 4892.467
416.8472, 4865.625
417.3293, 4840.390
417.8114, 4805.805
418.2935, 4764.678
418.7756, 4733.679
419.2578, 4736.184
419.7399, 4719.452
420.2220, 4661.382
420.7041, 4591.594
421.1862, 4538.390
421.6683, 4507.468
422.1505, 4486.000
422.6326, 4461.645
423.1147, 4434.672
423.5968, 4399.732
424.0789, 4343.796
424.5610, 4296.561
425.0432, 4275.922
425.5253, 4268.887
426.0074, 4254.518
426.4895, 4223.222
426.9716, 4186.862
427.4537, 4160.401
427.9359, 4143.354
428.4180, 4126.161
428.9001, 4104.030
429.3822, 4084.430
429.8643, 4083.119
430.3464, 4098.121
430.8286, 4092.717
431.3107, 4031.284
431.7928, 3963.101
432.2749, 3943.369
432.7570, 3965.776
433.2391, 3981.054
433.7213, 3960.633
434.2034, 3916.429
434.6855, 3886.438
435.1676, 3882.757
435.6497, 3876.423
436.1318, 3865.133
436.6140, 3851.166
437.0961, 3835.738
437.5782, 3819.461
438.0603, 3802.516
438.5424, 3783.912
439.0245, 3764.295
439.5067, 3756.409
439.9888, 3773.251
440.4709, 3782.625
440.9530, 3771.292
441.4351, 3751.474
441.9172, 3734.659
442.3994, 3723.848
442.8815, 3720.354
443.3636, 3729.954
443.8457, 3750.100
444.3278, 3762.394
444.8099, 3762.838
445.2921, 3758.879
445.7742, 3752.641
446.2563, 3746.283
446.7384, 3747.352
447.2205, 3767.269
447.7026, 3785.632
448.1848, 3785.540
448.6669, 3773.103
449.1490, 3763.498
449.6311, 3761.912
450.1132, 3766.441
450.5953, 3774.480
451.0775, 3787.174
451.5596, 3800.326
452.0417, 3817.916
452.5238, 3832.306
453.0059, 3837.892
453.4880, 3836.925
453.9702, 3834.657
454.4523, 3833.867
454.9344, 3834.605
455.4165, 3838.627
455.8986, 3850.558
456.3807, 3852.852
456.8629, 3827.950
457.3450, 3803.694
457.8271, 3799.369
458.3092, 3813.405
458.7913, 3828.284
459.2734, 3832.830
459.7556, 3831.478
460.2377, 3833.794
460.7198, 3840.265
461.2019, 3843.315
461.6840, 3838.673
462.1661, 3828.690
462.6483, 3817.231
463.1304, 3801.059
463.6125, 3792.438
464.0946, 3802.772
464.5767, 3817.753
465.0588, 3821.553
465.5410, 3813.025
466.0231, 3800.711
466.5052, 3791.123
466.9873, 3783.919
467.4694, 3776.157
467.9515, 3769.381
468.4337, 3759.808
468.9158, 3744.515
469.3979, 3727.737
469.8800, 3712.299
470.3621, 3699.166
470.8442, 3690.072
471.3264, 3691.034
471.8085, 3700.008
472.2906, 3692.597
472.7727, 3658.000
473.2548, 3630.842
473.7369, 3642.054
474.2191, 3668.224
474.7012, 3676.411
475.1833, 3655.443
475.6654, 3632.302
476.1475, 3626.450
476.6296, 3630.099
477.1118, 3625.728
477.5939, 3609.754
478.0760, 3594.240
478.5581, 3590.746
479.0402, 3599.407
479.5223, 3604.914
480.0045, 3606.629
480.4866, 3606.434
480.9687, 3603.112
481.4508, 3598.900
481.9329, 3599.118
482.4150, 3604.325
482.8972, 3605.546
483.3793, 3587.165
483.8614, 3545.818
484.3435, 3523.567
484.8256, 3531.916
485.3077, 3544.679
485.7899, 3554.960
486.2720, 3561.238
486.7541, 3559.427
487.2362, 3545.506
487.7183, 3532.868
488.2004, 3539.885
488.6826, 3559.349
489.1647, 3562.195
489.6468, 3540.294
490.1289, 3512.242
490.6110, 3494.708
491.0931, 3487.812
491.5753, 3479.520
492.0574, 3469.476
492.5395, 3458.413
493.0216, 3443.425
493.5037, 3428.669
493.9858, 3421.360
494.4680, 3423.446
494.9501, 3429.618
495.4322, 3433.676
495.9143, 3435.976
496.3964, 3433.586
496.8785, 3425.134
497.3607, 3413.166
497.8428, 3392.444
498.3249, 3370.865
498.8070, 3360.250
499.2891, 3365.391
499.7712, 3377.363
500.2533, 3393.141
500.7354, 3409.504
501.2176, 3406.698
501.6997, 3376.110
502.1818, 3344.053
502.6639, 3331.133
503.1460, 3336.673
503.6281, 3347.974
504.1103, 3377.998
504.5924, 3398.986
505.0745, 3390.478
505.5566, 3369.035
506.0387, 3359.140
506.5208, 3366.976
507.0030, 3383.012
507.4851, 3397.773
507.9672, 3411.774
508.4493, 3416.175
508.9314, 3397.260
509.4135, 3385.855
509.8957, 3401.096
510.3778, 3423.111
510.8599, 3424.827
511.3420, 3398.434
511.8241, 3369.080
512.3063, 3363.731
512.7884, 3375.624
513.2705, 3375.936
513.7526, 3358.842
514.2347, 3345.568
514.7169, 3356.715
515.1990, 3382.972
515.6811, 3385.606
516.1632, 3339.695
516.6453, 3306.910
517.1274, 3317.940
517.6096, 3345.990
518.0917, 3360.080
518.5738, 3355.683
519.0559, 3347.010
519.5380, 3347.473
520.0201, 3355.428
520.5023, 3352.064
520.9844, 3327.474
521.4665, 3307.849
521.9486, 3300.311
522.4307, 3298.191
522.9128, 3295.212
523.3950, 3290.744
523.8771, 3289.473
524.3592, 3297.529
524.8413, 3310.300
525.3234, 3318.628
525.8055, 3322.226
526.2877, 3320.698
526.7698, 3312.671
527.2519, 3300.394
527.7340, 3287.955
528.2161, 3270.462
528.6982, 3264.915
529.1804, 3284.262
529.6625, 3308.022
530.1446, 3320.011
530.6267, 3321.611
531.1088, 3322.642
531.5909, 3329.257
532.0731, 3338.636
532.5552, 3343.126
533.0373, 3341.109
533.5194, 3339.178
534.0015, 3337.225
534.4836, 3336.553
534.9658, 3334.782
535.4479, 3334.363
535.9300, 3344.114
536.4121, 3376.619
536.8942, 3411.886
537.3763, 3427.708
537.8585, 3427.613
538.3406, 3423.676
538.8227, 3418.567
539.3048, 3416.550
539.7869, 3423.739
540.2690, 3442.235
540.7512, 3457.671
541.2333, 3474.364
541.7154, 3483.654
542.1975, 3473.414
542.6796, 3457.307
543.1617, 3455.016
543.6439, 3472.519
544.1260, 3498.014
544.6081, 3519.586
545.0902, 3537.137
545.5723, 3548.100
546.0544, 3550.126
546.5366, 3550.484
547.0187, 3552.229
547.5008, 3555.047
547.9829, 3557.804
548.4650, 3558.589
548.9471, 3564.574
549.4292, 3584.923
549.9113, 3609.250
550.3934, 3624.280
550.8755, 3628.997
551.3577, 3629.345
551.8398, 3629.445
552.3219, 3628.523
552.8040, 3622.973
553.2861, 3607.516
553.7682, 3596.560
554.2504, 3591.188
554.7325, 3589.996
555.2146, 3593.799
555.6967, 3601.227
556.1788, 3608.727
556.6609, 3616.393
557.1431, 3620.601
557.6252, 3614.448
558.1073, 3598.570
558.5894, 3581.223
559.0715, 3564.889
559.5536, 3547.414
560.0358, 3525.353
560.5179, 3497.850
561.0000, 3474.027
561.4821, 3453.028
561.9642, 3436.674
562.4464, 3426.539
562.9285, 3421.142
563.4106, 3422.135
563.8927, 3428.542
564.3748, 3428.938
564.8569, 3405.890
565.3391, 3360.406
565.8212, 3329.619
566.3033, 3320.660
566.7854, 3311.845
567.2675, 3295.633
567.7496, 3273.651
568.2318, 3244.606
568.7139, 3206.380
569.1960, 3174.971
569.6781, 3160.215
570.1602, 3154.616
570.6423, 3153.034
571.1245, 3153.112
571.6066, 3146.838
572.0887, 3129.262
572.5708, 3105.008
573.0529, 3085.772
573.5350, 3076.629
574.0172, 3061.399
574.4993, 3033.406
574.9814, 3006.136
575.4635, 2983.771
575.9456, 2967.120
576.4277, 2958.316
576.9099, 2960.520
577.3920, 2963.163
577.8741, 2950.309
578.3562, 2927.321
578.8383, 2917.884
579.3204, 2927.881
579.8026, 2938.925
580.2847, 2937.680
580.7668, 2924.821
581.2489, 2905.102
581.7310, 2867.436
582.2131, 2838.636
582.6953, 2826.094
583.1774, 2822.127
583.6595, 2823.680
584.1416, 2827.813
584.6237, 2828.413
585.1058, 2821.180
585.5880, 2807.288
586.0701, 2786.419
586.5522, 2756.408
587.0343, 2738.091
587.5164, 2743.701
587.9985, 2753.475
588.4807, 2742.926
588.9628, 2715.834
589.4449, 2700.316
589.9270, 2715.030
590.4091, 2727.452
590.8912, 2716.465
591.3734, 2692.857
591.8555, 2674.134
592.3376, 2664.740
592.8197, 2658.971
593.3018, 2650.684
593.7839, 2640.240
594.2661, 2633.668
594.7482, 2632.296
595.2303, 2632.186
595.7124, 2638.458
596.1945, 2641.358
596.6766, 2628.531
597.1588, 2599.865
597.6409, 2576.062
598.1230, 2569.678
598.6051, 2569.860
599.0872, 2567.948
599.5693, 2563.119
600.0515, 2552.261
600.5336, 2533.771
601.0157, 2515.485
601.4978, 2509.687
601.9799, 2519.534
602.4620, 2523.190
602.9442, 2515.298
603.4263, 2507.319
603.9084, 2505.374
604.3905, 2503.318
604.8726, 2490.629
605.3547, 2465.279
605.8369, 2445.197
606.3190, 2450.149
606.8011, 2466.024
607.2832, 2466.092
607.7653, 2450.143
608.2474, 2432.166
608.7296, 2418.513
609.2117, 2406.699
609.6938, 2391.081
610.1759, 2365.601
610.6580, 2354.278
611.1401, 2373.936
611.6223, 2388.422
612.1044, 2375.023
612.5865, 2349.063
613.0686, 2337.338
613.5507, 2348.559
614.0328, 2361.613
614.5150, 2352.046
614.9971, 2327.078
615.4792, 2312.054
615.9613, 2309.167
616.4434, 2307.204
616.9255, 2287.503
617.4077, 2300.533
617.8898, 2305.283
618.3719, 2302.196
618.8540, 2267.799
619.3361, 2273.832
619.8182, 2263.663
620.3004, 2252.827
620.7825, 2264.551
621.2646, 2234.708
621.7467, 2246.073
622.2288, 2240.989
622.7109, 2243.435
623.1931, 2229.575
623.6752, 2220.753
624.1573, 2228.238
624.6394, 2226.693
625.1215, 2210.958
625.6036, 2213.882
626.0858, 2183.468
626.5679, 2182.309
627.0500, 2193.770
627.5321, 2178.855
628.0142, 2161.807
628.4963, 2159.161
628.9785, 2160.682
629.4606, 2160.818
629.9427, 2157.123
630.4248, 2149.943
630.9069, 2136.390
631.3890, 2117.527
631.8712, 2111.458
632.3533, 2123.519
632.8354, 2135.532
633.3175, 2139.406
633.7996, 2135.117
634.2817, 2121.426
634.7639, 2091.398
635.2460, 2071.190
635.7281, 2073.739
636.2102, 2081.102
636.6923, 2080.988
637.1744, 2074.724
637.6566, 2067.797
638.1387, 2062.618
638.6208, 2059.451
639.1029, 2058.799
639.5850, 2060.636
640.0671, 2065.214
640.5493, 2074.674
641.0314, 2080.273
641.5135, 2074.614
641.9956, 2063.066
642.4777, 2058.528
642.9598, 2065.655
643.4420, 2065.166
643.9241, 2046.898
644.4062, 2025.211
644.8883, 2007.790
645.3704, 1995.799
645.8525, 1990.989
646.3347, 1994.036
646.8168, 1998.681
647.2989, 1993.873
647.7810, 1980.543
648.2631, 1978.612
648.7452, 1992.921
649.2274, 2004.662
649.7095, 2004.357
650.1916, 1995.734
650.6737, 1984.809
651.1558, 1969.704
651.6379, 1960.228
652.1201, 1961.658
652.6022, 1965.614
653.0843, 1965.168
653.5664, 1963.597
654.0485, 1971.013
654.5306, 1990.274
655.0128, 2005.772
655.4949, 1992.973
655.9770, 1956.705
656.4591, 1937.042
656.9412, 1937.306
657.4233, 1939.759
657.9055, 1936.663
658.3876, 1931.832
658.8697, 1932.533
659.3518, 1940.136
659.8339, 1943.743
660.3160, 1940.426
660.7982, 1934.950
661.2803, 1926.145
661.7624, 1918.137
662.2445, 1918.804
662.7266, 1929.157
663.2087, 1938.645
663.6909, 1936.047
664.1730, 1924.528
664.6551, 1914.482
665.1372, 1905.854
665.6193, 1900.220
666.1014, 1899.075
666.5836, 1899.504
667.0657, 1898.714
667.5478, 1897.007
668.0299, 1889.729
668.5120, 1863.362
668.9941, 1847.885
669.4763, 1864.048
669.9584, 1888.993
670.4405, 1897.016
670.9226, 1885.655
671.4047, 1870.817
671.8868, 1863.480
672.3690, 1860.184
672.8511, 1852.589
673.3332, 1841.717
673.8153, 1838.145
674.2974, 1845.246
674.7795, 1857.331
675.2617, 1870.515
675.7438, 1884.349
676.2259, 1890.120
676.7080, 1879.749
677.1901, 1872.153
677.6722, 1870.527
678.1544, 1871.360
678.6365, 1874.257
679.1186, 1877.301
679.6007, 1875.385
680.0828, 1864.220
680.5649, 1850.941
681.0471, 1843.539
681.5292, 1840.346
682.0113, 1836.472
682.4934, 1831.185
682.9755, 1827.704
683.4576, 1828.858
683.9398, 1832.789
684.4219, 1833.224
684.9040, 1829.891
685.3861, 1823.566
685.8682, 1804.563
686.3503, 1792.425
686.8325, 1802.218
687.3146, 1823.544
687.7967, 1836.527
688.2788, 1834.690
688.7609, 1830.867
689.2430, 1833.383
689.7252, 1838.245
690.2073, 1841.569
690.6894, 1842.404
691.1715, 1838.424
691.6536, 1828.406
692.1357, 1815.396
692.6179, 1803.783
693.1000, 1793.078
693.5821, 1787.845
694.0642, 1789.245
694.5463, 1793.951
695.0284, 1805.421
695.5106, 1816.718
695.9927, 1818.597
696.4748, 1810.130
696.9569, 1801.739
697.4390, 1793.971
697.9211, 1789.429
698.4033, 1792.891
698.8854, 1799.611
699.3675, 1802.271
699.8496, 1798.974
700.3317, 1791.790
700.8138, 1780.690
701.2960, 1768.374
701.7781, 1766.482
702.2602, 1776.169
702.7423, 1781.101
703.2244, 1774.197
703.7065, 1767.534
704.1887, 1775.022
704.6708, 1795.437
705.1529, 1806.505
705.6350, 1800.617
706.1171, 1796.087
706.5992, 1794.905
707.0814, 1797.303
707.5635, 1809.015
708.0456, 1824.583
708.5277, 1827.853
709.0098, 1808.437
709.4919, 1782.462
709.9741, 1765.832
710.4562, 1758.155
710.9383, 1760.699
711.4204, 1773.221
711.9025, 1786.307
712.3846, 1794.883
712.8668, 1799.086
713.3489, 1798.555
713.8310, 1789.818
714.3131, 1786.305
714.7952, 1793.901
715.2773, 1799.921
715.7595, 1796.362
716.2416, 1790.355
716.7237, 1792.925
717.2058, 1806.278
717.6879, 1816.517
718.1700, 1814.536
718.6522, 1808.870
719.1343, 1808.144
719.6164, 1809.799
720.0985, 1805.794
720.5806, 1794.460
721.0627, 1784.784
721.5449, 1787.657
722.0270, 1799.551
722.5091, 1801.001
722.9912, 1789.808
723.4733, 1779.422
723.9554, 1771.383
724.4376, 1767.968
724.9197, 1774.980
725.4018, 1790.370
725.8839, 1795.185
726.3660, 1778.307
726.8481, 1765.663
727.3303, 1765.860
727.8124, 1769.406
728.2945, 1767.006
728.7766, 1761.214
729.2587, 1761.663
729.7408, 1773.790
730.2230, 1788.130
730.7051, 1793.857
731.1872, 1793.736
731.6693, 1796.102
732.1514, 1801.233
732.6335, 1801.133
733.1157, 1790.876
733.5978, 1776.679
734.0799, 1769.574
734.5620, 1770.330
735.0441, 1774.339
735.5262, 1784.738
736.0084, 1793.826
736.4905, 1797.739
736.9726, 1800.253
737.4547, 1804.799
737.9368, 1811.627
738.4189, 1820.021
738.9011, 1830.892
739.3832, 1842.098
739.8653, 1854.615
740.3474, 1865.481
740.8295, 1869.066
741.3116, 1865.691
741.7938, 1861.620
742.2759, 1861.082
742.7580, 1863.547
743.2401, 1867.066
743.7222, 1871.837
744.2043, 1884.467
744.6865, 1908.410
745.1686, 1928.940
745.6507, 1935.424
746.1328, 1932.200
746.6149, 1931.044
747.0970, 1924.800
747.5791, 1936.128
748.0612, 1988.617
748.5433, 2031.701
749.0255, 2035.640
749.5076, 2021.436
749.9897, 2018.017
750.4718, 2031.233
750.9539, 2050.196
751.4360, 2072.631
751.9182, 2094.539
752.4003, 2111.723
752.8824, 2124.870
753.3645, 2134.447
753.8466, 2141.182
754.3287, 2149.587
754.8109, 2163.852
755.2930, 2183.027
755.7751, 2203.939
756.2572, 2226.881
756.7393, 2249.511
757.2214, 2271.252
757.7036, 2293.512
758.1857, 2318.522
758.6678, 2344.864
759.1499, 2367.636
759.6320, 2389.231
760.1141, 2403.140
760.5963, 2403.875
761.0784, 2401.925
761.5605, 2398.171
762.0426, 2397.608
762.5247, 2409.342
763.0068, 2435.715
763.4890, 2462.947
763.9711, 2480.877
764.4532, 2494.439
764.9353, 2509.133
765.4174, 2525.283
765.8995, 2544.950
766.3817, 2568.169
766.8638, 2587.627
767.3459, 2594.450
767.8280, 2592.567
768.3101, 2603.015
768.7922, 2629.337
769.2744, 2649.683
769.7565, 2658.555
770.2386, 2663.365
770.7207, 2666.178
771.2028, 2669.469
771.6849, 2682.998
772.1671, 2716.613
772.6492, 2740.156
773.1313, 2743.842
773.6134, 2743.005
774.0955, 2744.826
774.5776, 2748.630
775.0598, 2752.325
775.5419, 2755.368
776.0240, 2758.183
776.5061, 2764.576
776.9882, 2768.443
777.4703, 2758.332
777.9525, 2739.119
778.4346, 2726.109
778.9167, 2722.783
779.3988, 2718.762
779.8809, 2703.635
780.3630, 2682.174
780.8452, 2673.999
781.3273, 2682.270
781.8094, 2680.765
782.2915, 2661.930
782.7736, 2641.448
783.2557, 2628.928
783.7379, 2622.420
784.2200, 2616.528
784.7021, 2610.554
785.1842, 2606.911
785.6663, 2608.803
786.1484, 2609.585
786.6306, 2602.874
787.1127, 2595.149
787.5948, 2595.559
788.0769, 2605.196
788.5590, 2616.106
789.0411, 2622.564
789.5233, 2629.587
790.0054, 2646.029
790.4875, 2665.257
790.9696, 2670.945
791.4517, 2663.170
791.9338, 2661.569
792.4160, 2681.131
792.8981, 2710.512
793.3802, 2722.372
793.8623, 2717.466
794.3444, 2728.042
794.8265, 2759.529
795.3087, 2792.411
795.7908, 2816.399
796.2729, 2836.527
796.7550, 2862.041
797.2371, 2894.925
797.7192, 2923.759
798.2014, 2936.587
798.6835, 2960.417
799.1656, 3015.104
799.6477, 3072.571
800.1298, 3106.312
800.6119, 3118.173
801.0941, 3129.495
801.5762, 3145.760
802.0583, 3164.568
802.5404, 3188.339
803.0225, 3211.461
803.5046, 3222.963
803.9868, 3228.237
804.4689, 3247.205
804.9510, 3289.171
805.4331, 3332.661
805.9152, 3347.740
806.3973, 3345.167
806.8795, 3357.670
807.3616, 3384.810
807.8437, 3410.364
808.3258, 3428.623
808.8079, 3445.704
809.2900, 3467.727
809.7722, 3494.815
810.2543, 3528.346
810.7364, 3571.630
811.2185, 3612.172
811.7006, 3648.617
812.1827, 3681.320
812.6649, 3705.190
813.1470, 3726.471
813.6291, 3762.047
814.1112, 3820.627
814.5933, 3870.506
815.0754, 3899.912
815.5576, 3927.281
816.0397, 3960.271
816.5218, 3997.995
817.0039, 4038.163
817.4860, 4080.599
817.9681, 4127.482
818.4503, 4180.891
818.9324, 4238.787
819.4145, 4294.424
819.8966, 4355.453
820.3787, 4438.840
820.8608, 4543.742
821.3430, 4653.624
821.8251, 4759.268
822.3072, 4860.637
822.7893, 4953.255
823.2714, 5039.658
823.7535, 5148.025
824.2357, 5281.104
824.7178, 5418.601
825.1999, 5550.629
825.6820, 5689.368
826.1641, 5852.389
826.6462, 6039.377
827.1284, 6227.302
827.6105, 6411.514
828.0926, 6604.982
828.5747, 6806.653
829.0568, 7022.736
829.5389, 7262.871
830.0211, 7520.218
830.5032, 7776.932
830.9853, 8027.230
831.4674, 8288.456
831.9495, 8583.595
832.4316, 8872.088
832.9138, 9113.503
833.3959, 9342.615
833.8780, 9620.473
834.3601, 9954.110
834.8422, 10281.98
835.3243, 10559.98
835.8065, 10822.64
836.2886, 11120.33
836.7707, 11425.81
837.2528, 11688.48
837.7349, 11901.91
838.2170, 12082.43
838.6992, 12238.39
839.1813, 12368.10
839.6634, 12470.46
840.1455, 12544.30
840.6276, 12588.44
841.1097, 12603.79
841.5919, 12565.99
842.0740, 12463.53
842.5561, 12313.52
843.0382, 12127.41
843.5203, 11908.88
844.0024, 11701.56
844.4846, 11525.22
844.9667, 11311.44
845.4488, 11027.79
845.9309, 10733.06
846.4130, 10466.08
846.8951, 10212.01
847.3773, 9939.906
847.8594, 9638.281
848.3415, 9354.535
848.8236, 9097.812
849.3057, 8857.358
849.7878, 8630.840
850.2700, 8416.553
850.7521, 8213.350
851.2342, 8020.553
851.7163, 7838.817
852.1984, 7670.850
852.6805, 7508.086
853.1627, 7331.495
853.6448, 7164.933
854.1269, 7039.213
854.6090, 6951.053
855.0911, 6884.151
855.5732, 6831.648
856.0554, 6782.279
856.5375, 6718.376
857.0196, 6650.564
857.5017, 6610.240
857.9838, 6592.522
858.4659, 6566.230
858.9481, 6524.063
859.4302, 6491.470
859.9123, 6488.963
860.3944, 6507.957
860.8765, 6524.261
861.3586, 6536.366
861.8408, 6561.400
862.3229, 6606.907
862.8050, 6643.519
863.2871, 6656.733
863.7692, 6657.730
864.2513, 6662.200
864.7335, 6670.780
865.2156, 6670.312
865.6977, 6670.117
866.1798, 6646.367
866.6619, 6578.139
867.1440, 6503.690
867.6262, 6450.679
868.1083, 6408.563
868.5904, 6352.651
869.0725, 6279.020
869.5546, 6194.887
870.0367, 6105.619
870.5189, 6003.328
871.0010, 5878.984
871.4831, 5741.904
871.9652, 5596.329
872.4473, 5447.824
872.9294, 5317.129
873.4116, 5222.417
873.8937, 5132.471
874.3758, 5021.768
874.8579, 4899.222
875.3400, 4764.206
875.8221, 4628.541
876.3043, 4529.064
876.7864, 4477.583
877.2685, 4434.411
877.7506, 4353.985
878.2327, 4254.500
878.7148, 4177.455
879.1970, 4119.311
879.6791, 4064.770
880.1612, 4010.578
880.6433, 3952.533
881.1254, 3886.765
881.6075, 3821.285
882.0897, 3773.610
882.5718, 3744.373
883.0539, 3721.965
883.5360, 3709.965
884.0181, 3679.956
884.5002, 3614.657
884.9824, 3546.518
885.4645, 3513.301
885.9466, 3510.585
886.4287, 3496.916
886.9108, 3466.479
887.3929, 3438.065
887.8751, 3413.166
888.3572, 3390.664
888.8393, 3377.515
889.3214, 3362.788
889.8035, 3322.840
890.2856, 3250.991
890.7678, 3203.154
891.2499, 3208.867
891.7320, 3205.531
892.2141, 3168.723
892.6962, 3123.152
893.1783, 3086.463
893.6605, 3058.430
894.1426, 3033.732
894.6247, 3011.434
895.1068, 2991.451
895.5889, 2977.931
896.0710, 2962.620
896.5532, 2937.858
897.0353, 2908.312
897.5174, 2883.302
897.9995, 2862.327
898.4816, 2832.484
898.9637, 2780.382
899.4459, 2730.047
899.9280, 2712.137
900.4101, 2705.099
900.8922, 2674.015
901.3743, 2624.166
901.8564, 2581.421
902.3386, 2554.739
902.8207, 2533.678
903.3028, 2511.354
903.7849, 2484.976
904.2670, 2443.494
904.7491, 2392.873
905.2313, 2361.128
905.7134, 2350.271
906.1955, 2331.575
906.6776, 2287.531
907.1597, 2234.726
907.6418, 2201.931
908.1240, 2186.907
908.6061, 2160.719
909.0882, 2122.521
909.5703, 2093.766
910.0524, 2082.116
910.5345, 2069.228
911.0167, 2038.058
911.4988, 1996.040
911.9809, 1968.788
912.4630, 1960.465
912.9451, 1946.565
913.4272, 1922.718
913.9094, 1903.227
914.3915, 1895.356
914.8736, 1891.612
915.3557, 1883.500
915.8378, 1871.239
916.3199, 1859.341
916.8021, 1850.225
917.2842, 1836.859
917.7663, 1812.561
918.2484, 1791.237
918.7305, 1780.853
919.2126, 1777.073
919.6948, 1774.060
920.1769, 1771.703
920.6590, 1769.754
921.1411, 1773.015
921.6232, 1770.143
922.1053, 1750.270
922.5875, 1730.793
923.0696, 1725.290
923.5517, 1729.870
924.0338, 1734.841
924.5159, 1738.903
924.9980, 1740.329
925.4802, 1738.566
925.9623, 1734.016
926.4444, 1723.232
926.9265, 1712.338
927.4086, 1708.370
927.8907, 1710.911
928.3729, 1715.969
928.8550, 1723.317
929.3371, 1728.038
929.8192, 1724.855
930.3013, 1719.648
930.7834, 1717.922
931.2656, 1718.268
931.7477, 1718.462
932.2298, 1717.590
932.7119, 1714.166
933.1940, 1706.405
933.6761, 1697.927
934.1583, 1690.780
934.6404, 1686.359
935.1225, 1687.872
935.6046, 1694.121
936.0867, 1702.957
936.5688, 1712.880
937.0510, 1718.347
937.5331, 1713.164
938.0152, 1702.568
938.4973, 1693.537
938.9794, 1686.616
939.4615, 1683.492
939.9437, 1684.123
940.4258, 1688.580
940.9079, 1696.816
941.3900, 1702.885
941.8721, 1698.361
942.3542, 1687.082
942.8364, 1680.482
943.3185, 1678.278
943.8006, 1679.933
944.2827, 1685.103
944.7648, 1688.229
945.2469, 1685.963
945.7290, 1680.941
946.2111, 1676.151
946.6932, 1672.190
947.1754, 1677.423
947.6575, 1692.421
948.1396, 1696.275
948.6217, 1683.078
949.1038, 1669.062
949.5859, 1665.613
950.0681, 1668.739
950.5502, 1669.879
951.0323, 1668.946
951.5144, 1666.557
951.9965, 1661.732
952.4786, 1661.234
952.9608, 1668.957
953.4429, 1675.163
953.9250, 1671.306
954.4071, 1659.831
954.8892, 1647.769
955.3713, 1632.950
955.8535, 1626.697
956.3356, 1631.554
956.8177, 1638.901
957.2998, 1647.962
957.7819, 1654.791
958.2640, 1653.333
958.7462, 1646.385
959.2283, 1651.122
959.7104, 1682.450
960.1925, 1688.212
960.6746, 1647.025
961.1567, 1615.177
961.6389, 1618.408
962.1210, 1636.753
962.6031, 1651.221
963.0852, 1661.360
963.5673, 1661.771
964.0494, 1640.073
964.5316, 1629.749
965.0137, 1642.042
965.4958, 1653.518
965.9779, 1653.404
966.4600, 1647.792
966.9421, 1642.171
967.4243, 1636.691
967.9064, 1637.877
968.3885, 1656.168
968.8706, 1665.767
969.3527, 1657.277
969.8348, 1647.119
970.3170, 1641.403
970.7991, 1640.112
971.2812, 1645.034
971.7633, 1656.292
972.2454, 1662.042
972.7275, 1660.585
973.2097, 1653.922
973.6918, 1632.666
974.1739, 1616.399
974.6560, 1621.482
975.1381, 1637.567
975.6202, 1647.922
976.1024, 1650.621
976.5845, 1652.816
977.0666, 1654.294
977.5487, 1657.731
978.0308, 1665.007
978.5129, 1673.439
978.9951, 1683.332
979.4772, 1692.156
979.9593, 1695.018
980.4414, 1690.974
980.9235, 1686.948
981.4056, 1682.540
981.8878, 1681.519
982.3699, 1688.567
982.8520, 1696.523
983.3341, 1700.537
983.8162, 1700.789
984.2983, 1696.667
984.7805, 1687.545
985.2626, 1685.146
985.7447, 1701.532
986.2268, 1715.241
986.7089, 1714.787
987.1910, 1709.436
987.6732, 1704.009
988.1553, 1701.259
988.6374, 1707.648
989.1195, 1725.590
989.6016, 1735.744
990.0837, 1722.829
990.5659, 1710.080
991.0480, 1709.961
991.5301, 1714.660
992.0122, 1717.926
992.4943, 1719.427
992.9764, 1719.172
993.4586, 1716.765
993.9407, 1719.252
994.4228, 1734.708
994.9049, 1749.672
995.3870, 1756.367
995.8691, 1759.369
996.3513, 1764.070
996.8334, 1768.765
997.3155, 1766.902
997.7976, 1756.186
998.2797, 1749.552
998.7618, 1757.125
999.2440, 1765.091
999.7261, 1765.733
1000.208, 1763.027
1000.690, 1758.173
1001.172, 1754.208
1001.655, 1757.537
1002.137, 1770.193
1002.619, 1783.260
1003.101, 1793.435
1003.583, 1801.991
1004.065, 1812.620
1004.547, 1819.651
1005.029, 1812.694
1005.511, 1798.556
1005.994, 1795.012
1006.476, 1807.009
1006.958, 1816.120
1007.440, 1809.879
1007.922, 1803.725
1008.404, 1807.161
1008.886, 1813.584
1009.368, 1817.180
1009.851, 1818.272
1010.333, 1817.551
1010.815, 1815.001
1011.297, 1818.630
1011.779, 1836.844
1012.261, 1855.780
1012.743, 1875.525
1013.225, 1886.768
1013.707, 1871.047
1014.190, 1843.653
1014.672, 1838.551
1015.154, 1863.162
1015.636, 1883.581
1016.118, 1881.907
1016.600, 1879.809
1017.082, 1885.837
1017.564, 1896.414
1018.047, 1914.268
1018.529, 1932.127
1019.011, 1934.922
1019.493, 1920.251
1019.975, 1908.951
1020.457, 1911.240
1020.939, 1913.587
1021.421, 1902.306
1021.903, 1897.776
1022.386, 1923.297
1022.868, 1962.218
1023.350, 1989.912
1023.832, 2002.273
1024.314, 1998.071
1024.796, 1956.249
1025.278, 1927.209
1025.760, 1934.716
1026.243, 1949.458
1026.725, 1952.235
1027.207, 1950.385
1027.689, 1955.687
1028.171, 1969.091
1028.653, 1984.902
1029.135, 2009.065
1029.617, 2024.994
1030.099, 2020.714
1030.582, 2017.479
1031.064, 2030.284
1031.546, 2048.271
1032.028, 2057.976
1032.510, 2059.120
1032.992, 2057.388
1033.474, 2047.489
1033.956, 2044.545
1034.438, 2057.533
1034.921, 2068.789
1035.403, 2071.589
1035.885, 2068.467
1036.367, 2056.554
1036.849, 2039.462
1037.331, 2039.557
1037.813, 2070.665
1038.295, 2093.820
1038.778, 2105.974
1039.260, 2113.626
1039.742, 2111.896
1040.224, 2113.092
1040.706, 2132.421
1041.188, 2163.335
1041.670, 2180.106
1042.152, 2173.405
1042.635, 2181.015
1043.117, 2214.033
1043.599, 2240.605
1044.081, 2252.051
1044.563, 2255.354
1045.045, 2253.751
1045.527, 2249.189
1046.009, 2245.868
1046.491, 2242.715
1046.974, 2248.446
1047.456, 2267.941
1047.938, 2282.369
1048.420, 2286.821
1048.902, 2287.380
1049.384, 2285.131
1049.866, 2286.248
1050.348, 2304.502
1050.830, 2339.961
1051.313, 2360.267
1051.795, 2362.865
1052.277, 2365.270
1052.759, 2370.683
1053.241, 2371.754
1053.723, 2362.134
1054.205, 2355.671
1054.687, 2373.538
1055.169, 2411.011
1055.652, 2443.874
1056.134, 2472.198
1056.616, 2473.075
1057.098, 2442.701
1057.580, 2426.918
1058.062, 2445.637
1058.544, 2472.904
1059.026, 2481.722
1059.509, 2478.515
1059.991, 2478.674
1060.473, 2482.785
1060.955, 2498.079
1061.437, 2522.880
1061.919, 2538.260
1062.401, 2538.942
1062.883, 2538.152
1063.365, 2545.834
1063.848, 2560.045
1064.330, 2581.437
1064.812, 2605.326
1065.294, 2617.982
1065.776, 2621.899
1066.258, 2625.738
1066.740, 2631.923
1067.222, 2641.666
1067.704, 2656.137
1068.187, 2670.342
1068.669, 2672.623
1069.151, 2676.039
1069.633, 2708.812
1070.115, 2752.705
1070.597, 2769.652
1071.079, 2762.169
1071.561, 2757.854
1072.044, 2767.434
1072.526, 2781.605
1073.008, 2796.439
1073.490, 2809.635
1073.972, 2819.550
1074.454, 2826.565
1074.936, 2826.052
1075.418, 2824.773
1075.901, 2836.449
1076.383, 2863.863
1076.865, 2898.374
1077.347, 2942.226
1077.829, 2983.665
1078.311, 3018.957
1078.793, 3048.095
1079.275, 3068.265
1079.757, 3084.005
1080.240, 3103.616
1080.722, 3125.709
1081.204, 3135.480
1081.686, 3115.292
1082.168, 3114.039
1082.650, 3156.628
1083.132, 3200.327
1083.614, 3230.235
1084.096, 3251.484
1084.579, 3263.167
1085.061, 3270.690
1085.543, 3293.339
1086.025, 3339.548
1086.507, 3369.120
1086.989, 3372.168
1087.471, 3376.702
1087.953, 3390.625
1088.436, 3402.597
1088.918, 3404.563
1089.400, 3401.622
1089.882, 3402.508
1090.364, 3407.127
1090.846, 3410.538
1091.328, 3412.974
1091.810, 3411.965
1092.292, 3405.560
1092.775, 3405.205
1093.257, 3417.459
1093.739, 3429.962
1094.221, 3427.962
1094.703, 3417.468
1095.185, 3418.913
1095.667, 3431.302
1096.149, 3441.965
1096.631, 3450.478
1097.114, 3461.441
1097.596, 3476.037
1098.078, 3493.518
1098.560, 3514.741
1099.042, 3529.612
1099.524, 3512.193
1100.006, 3481.813
1100.488, 3487.934
1100.971, 3519.390
1101.453, 3544.897
1101.935, 3560.793
1102.417, 3576.637
1102.899, 3596.545
1103.381, 3619.528
1103.863, 3651.307
1104.345, 3678.270
1104.828, 3682.077
1105.310, 3676.028
1105.792, 3664.709
1106.274, 3661.633
1106.756, 3699.857
1107.238, 3778.353
1107.720, 3838.546
1108.202, 3848.176
1108.684, 3848.903
1109.167, 3853.868
1109.649, 3862.627
1110.131, 3873.544
1110.613, 3889.120
1111.095, 3915.229
1111.577, 3948.593
1112.059, 3975.546
1112.541, 3990.077
1113.023, 4014.475
1113.506, 4068.844
1113.988, 4107.235
1114.470, 4107.801
1114.952, 4104.995
1115.434, 4115.719
1115.916, 4138.903
1116.398, 4177.291
1116.880, 4229.743
1117.363, 4256.225
1117.845, 4245.268
1118.327, 4252.034
1118.809, 4281.042
1119.291, 4333.731
1119.773, 4418.616
1120.255, 4488.785
1120.737, 4495.178
1121.219, 4465.028
1121.702, 4467.875
1122.184, 4499.836
1122.666, 4529.253
1123.148, 4555.619
1123.630, 4580.663
1124.112, 4605.482
1124.594, 4638.438
1125.076, 4684.174
1125.558, 4732.789
1126.041, 4777.565
1126.523, 4814.060
1127.005, 4828.287
1127.487, 4832.282
1127.969, 4845.887
1128.451, 4869.772
1128.933, 4897.518
1129.415, 4928.210
1129.898, 4969.958
1130.380, 5035.553
1130.862, 5094.252
1131.344, 5119.731
1131.826, 5137.705
1132.308, 5160.226
1132.790, 5192.177
1133.272, 5245.389
1133.755, 5311.738
1134.237, 5363.297
1134.719, 5390.388
1135.201, 5425.386
1135.683, 5485.455
1136.165, 5536.682
1136.647, 5564.620
1137.129, 5589.390
1137.611, 5620.049
1138.094, 5654.684
1138.576, 5690.645
1139.058, 5727.959
1139.540, 5767.605
1140.022, 5810.958
1140.504, 5846.971
1140.986, 5871.489
1141.468, 5909.523
1141.950, 5969.909
1142.433, 6039.462
1142.915, 6110.454
1143.397, 6174.616
1143.879, 6209.695
1144.361, 6225.994
1144.843, 6272.574
1145.325, 6342.080
1145.807, 6400.639
1146.290, 6446.930
1146.772, 6503.435
1147.254, 6577.926
1147.736, 6648.540
1148.218, 6692.548
1148.700, 6735.327
1149.182, 6807.068
1149.664, 6889.804
1150.146, 6968.119
1150.629, 7038.040
1151.111, 7092.834
1151.593, 7135.022
1152.075, 7176.220
1152.557, 7217.373
1153.039, 7268.958
1153.521, 7345.279
1154.003, 7417.567
1154.485, 7464.212
1154.968, 7515.493
1155.450, 7601.653
1155.932, 7701.511
1156.414, 7780.159
1156.896, 7839.265
1157.378, 7901.673
1157.860, 7966.370
1158.342, 8036.021
1158.825, 8107.336
1159.307, 8200.893
1159.789, 8329.612
1160.271, 8449.432
1160.753, 8524.556
1161.235, 8579.708
1161.717, 8665.164
1162.199, 8770.114
1162.682, 8832.874
1163.164, 8865.880
1163.646, 8932.642
1164.128, 9035.950
1164.610, 9142.504
1165.092, 9240.701
1165.574, 9344.596
1166.056, 9467.471
1166.538, 9591.216
1167.021, 9692.001
1167.503, 9788.623
1167.985, 9908.052
1168.467, 10033.32
1168.949, 10130.06
1169.431, 10209.39
1169.913, 10319.67
1170.395, 10476.94
1170.877, 10622.05
1171.360, 10737.09
1171.842, 10840.86
1172.324, 10920.97
1172.806, 11012.03
1173.288, 11129.69
1173.770, 11269.05
1174.252, 11432.48
1174.734, 11610.31
1175.217, 11761.50
1175.699, 11879.86
1176.181, 12002.12
1176.663, 12126.35
1177.145, 12276.07
1177.627, 12459.55
1178.109, 12619.79
1178.591, 12723.85
1179.073, 12826.44
1179.556, 12998.06
1180.038, 13205.60
1180.520, 13372.62
1181.002, 13519.00
1181.484, 13689.58
1181.966, 13879.37
1182.448, 14064.04
1182.930, 14238.93
1183.412, 14406.37
1183.895, 14564.05
1184.377, 14744.06
1184.859, 14991.74
1185.341, 15234.12
1185.823, 15414.31
1186.305, 15585.33
1186.787, 15799.85
1187.269, 16032.32
1187.752, 16230.32
1188.234, 16394.48
1188.716, 16595.56
1189.198, 16863.82
1189.680, 17096.77
1190.162, 17271.98
1190.644, 17476.87
1191.126, 17745.59
1191.609, 18008.71
1192.091, 18218.34
1192.573, 18415.10
1193.055, 18660.39
1193.537, 18939.85
1194.019, 19189.66
1194.501, 19422.42
1194.983, 19710.36
1195.465, 20037.84
1195.948, 20311.52
1196.430, 20518.80
1196.912, 20736.43
1197.394, 21005.61
1197.876, 21296.46
1198.358, 21593.68
1198.840, 21887.90
1199.322, 22159.39
1199.804, 22434.47
1200.287, 22752.91
1200.769, 23090.23
1201.251, 23401.79
1201.733, 23685.21
1202.215, 23979.13
1202.697, 24297.75
1203.179, 24607.66
1203.661, 24891.84
1204.144, 25201.44
1204.626, 25551.52
1205.108, 25924.06
1205.590, 26314.38
1206.072, 26698.44
1206.554, 27037.57
1207.036, 27340.78
1207.518, 27630.29
1208.000, 27915.54
1208.483, 28259.63
1208.965, 28651.27
1209.447, 28999.95
1209.929, 29302.73
1210.411, 29672.65
1210.893, 30177.74
1211.375, 30639.84
1211.857, 30847.54
1212.339, 31040.02
1212.822, 31423.38
1213.304, 31858.88
1213.786, 32231.00
1214.268, 32558.52
1214.750, 32859.84
1215.232, 33151.56
1215.714, 33515.07
1216.196, 34004.45
1216.679, 34422.99
1217.161, 34740.94
1217.643, 35055.21
1218.125, 35379.13
1218.607, 35720.96
1219.089, 36091.57
1219.571, 36453.46
1220.053, 36760.59
1220.536, 37040.55
1221.018, 37370.63
1221.500, 37737.78
1221.982, 38106.79
1222.464, 38472.73
1222.946, 38831.46
1223.428, 39180.49
1223.910, 39520.98
1224.392, 39852.72
1224.875, 40157.07
1225.357, 40394.20
1225.839, 40646.98
1226.321, 40986.30
1226.803, 41323.85
1227.285, 41576.44
1227.767, 41817.92
1228.249, 42165.62
1228.731, 42558.39
1229.214, 42814.21
1229.696, 42916.23
1230.178, 43140.80
1230.660, 43518.79
1231.142, 43875.70
1231.624, 44197.27
1232.106, 44462.39
1232.588, 44663.73
1233.071, 44850.18
1233.553, 45059.11
1234.035, 45269.71
1234.517, 45448.57
1234.999, 45614.02
1235.481, 45785.48
1235.963, 45973.45
1236.445, 46220.97
1236.927, 46490.87
1237.410, 46694.94
1237.892, 46825.08
1238.374, 46938.51
1238.856, 47030.61
1239.338, 47171.32
1239.820, 47423.52
1240.302, 47657.20
1240.784, 47847.05
1241.266, 47996.74
1241.749, 48094.44
1242.231, 48178.66
1242.713, 48301.27
1243.195, 48443.91
1243.677, 48546.70
1244.159, 48609.99
##END=



