##NAMES=Arsentsumebite
##RRUFFID=R070629
##IDEAL CHEMISTRY=Pb^2+^_2_Cu^2+^(As^5+^O_4_)(S^6+^O_4_)(OH)
##LOCALITY=Tsumeb mine, Tsumeb, Otavi District, Oshikoto, Namibia
##OWNER=RRUFF
##SOURCE=Royal Ontario Museum
##DESCRIPTION=Pale green tabular crystals coating white anglesite
##STATUS=The identification of this mineral has been confirmed only by single crystal X-ray diffraction.
##URL=rruff.info/R070629
148.9056, 5207.542
149.3877, 5207.229
149.8698, 5219.776
150.3519, 5215.987
150.8340, 5178.490
151.3161, 5112.467
151.7983, 5078.532
152.2804, 5105.050
152.7625, 5149.887
153.2446, 5183.608
153.7267, 5203.602
154.2088, 5211.744
154.6909, 5203.633
155.1731, 5175.758
155.6552, 5154.436
156.1373, 5146.445
156.6194, 5146.971
157.1015, 5150.093
157.5836, 5167.093
158.0658, 5176.624
158.5479, 5165.213
159.0300, 5115.118
159.5121, 5080.864
159.9942, 5098.418
160.4763, 5145.638
160.9585, 5171.204
161.4406, 5134.431
161.9227, 5082.150
162.4048, 5046.248
162.8869, 5045.108
163.3690, 5049.830
163.8512, 5043.215
164.3333, 5028.347
164.8154, 5025.266
165.2975, 5072.127
165.7796, 5126.784
166.2617, 5143.785
166.7439, 5056.619
167.2260, 4961.418
167.7081, 4929.529
168.1902, 4967.000
168.6723, 5010.275
169.1544, 5023.594
169.6366, 5014.215
170.1187, 4994.837
170.6008, 4962.528
171.0829, 4927.190
171.5650, 4901.657
172.0471, 4891.202
172.5293, 4877.604
173.0114, 4839.931
173.4935, 4784.522
173.9756, 4732.719
174.4577, 4703.123
174.9398, 4683.144
175.4220, 4651.872
175.9041, 4596.808
176.3862, 4541.402
176.8683, 4520.385
177.3504, 4529.779
177.8326, 4534.228
178.3147, 4495.464
178.7968, 4430.981
179.2789, 4380.951
179.7610, 4369.141
180.2431, 4373.104
180.7253, 4350.701
181.2074, 4300.946
181.6895, 4248.099
182.1716, 4213.479
182.6537, 4195.818
183.1358, 4188.567
183.6180, 4206.430
184.1001, 4233.589
184.5822, 4218.955
185.0643, 4155.602
185.5464, 4075.352
186.0285, 4014.683
186.5107, 3973.253
186.9928, 3943.674
187.4749, 3929.780
187.9570, 3926.943
188.4391, 3910.686
188.9212, 3876.244
189.4034, 3832.188
189.8855, 3790.669
190.3676, 3751.763
190.8497, 3719.598
191.3318, 3700.336
191.8139, 3692.829
192.2961, 3685.463
192.7782, 3680.118
193.2603, 3671.410
193.7424, 3639.529
194.2245, 3581.119
194.7066, 3517.137
195.1888, 3468.460
195.6709, 3435.588
196.1530, 3397.869
196.6351, 3344.423
197.1172, 3280.299
197.5993, 3243.228
198.0815, 3239.615
198.5636, 3244.978
199.0457, 3231.598
199.5278, 3198.360
200.0099, 3154.162
200.4920, 3095.153
200.9742, 3021.318
201.4563, 2965.222
201.9384, 2926.568
202.4205, 2905.855
202.9026, 2914.296
203.3847, 2962.930
203.8668, 2994.067
204.3490, 2972.229
204.8311, 2887.575
205.3132, 2821.525
205.7953, 2775.942
206.2774, 2750.631
206.7595, 2749.909
207.2417, 2781.563
207.7238, 2816.237
208.2059, 2840.414
208.6880, 2856.714
209.1701, 2849.004
209.6522, 2807.885
210.1344, 2742.692
210.6165, 2694.996
211.0986, 2668.938
211.5807, 2652.239
212.0628, 2634.423
212.5449, 2610.996
213.0271, 2602.384
213.5092, 2619.769
213.9913, 2659.923
214.4734, 2671.724
214.9555, 2648.062
215.4376, 2606.866
215.9198, 2560.999
216.4019, 2499.029
216.8840, 2461.349
217.3661, 2464.146
217.8482, 2510.699
218.3303, 2539.519
218.8125, 2543.132
219.2946, 2536.131
219.7767, 2539.221
220.2588, 2561.544
220.7409, 2574.344
221.2230, 2563.565
221.7052, 2519.270
222.1873, 2501.022
222.6694, 2524.442
223.1515, 2564.188
223.6336, 2570.678
224.1157, 2521.302
224.5979, 2477.875
225.0800, 2468.566
225.5621, 2514.912
226.0442, 2533.148
226.5263, 2505.477
227.0084, 2454.899
227.4906, 2444.415
227.9727, 2500.530
228.4548, 2557.390
228.9369, 2580.227
229.4190, 2547.744
229.9011, 2529.966
230.3833, 2534.700
230.8654, 2556.475
231.3475, 2572.634
231.8296, 2577.668
232.3117, 2583.903
232.7938, 2600.061
233.2760, 2633.635
233.7581, 2661.177
234.2402, 2679.966
234.7223, 2690.717
235.2044, 2698.031
235.6865, 2700.522
236.1687, 2701.243
236.6508, 2702.292
237.1329, 2703.331
237.6150, 2705.038
238.0971, 2704.476
238.5792, 2701.892
239.0614, 2715.785
239.5435, 2757.109
240.0256, 2804.029
240.5077, 2836.313
240.9898, 2849.521
241.4719, 2856.314
241.9541, 2857.719
242.4362, 2853.202
242.9183, 2850.659
243.4004, 2855.306
243.8825, 2857.583
244.3646, 2843.904
244.8468, 2798.504
245.3289, 2764.421
245.8110, 2752.333
246.2931, 2764.509
246.7752, 2788.685
247.2573, 2840.464
247.7395, 2892.848
248.2216, 2901.397
248.7037, 2833.996
249.1858, 2778.266
249.6679, 2763.174
250.1500, 2800.786
250.6322, 2833.264
251.1143, 2867.820
251.5964, 2892.721
252.0785, 2880.842
252.5606, 2803.463
253.0427, 2738.288
253.5248, 2719.878
254.0070, 2772.943
254.4891, 2793.766
254.9712, 2772.193
255.4533, 2723.233
255.9354, 2675.255
256.4175, 2616.207
256.8997, 2579.119
257.3818, 2585.383
257.8639, 2660.773
258.3460, 2705.478
258.8281, 2707.313
259.3102, 2682.160
259.7924, 2674.278
260.2745, 2691.617
260.7566, 2711.764
261.2387, 2727.817
261.7208, 2747.335
262.2029, 2734.627
262.6851, 2673.045
263.1672, 2581.445
263.6493, 2525.614
264.1314, 2510.512
264.6135, 2520.170
265.0956, 2552.625
265.5778, 2618.946
266.0599, 2664.262
266.5420, 2678.914
267.0241, 2669.688
267.5062, 2661.811
267.9883, 2655.509
268.4705, 2650.069
268.9526, 2648.442
269.4347, 2655.012
269.9168, 2642.173
270.3989, 2594.302
270.8810, 2526.434
271.3632, 2510.812
271.8453, 2566.055
272.3274, 2626.516
272.8095, 2636.249
273.2916, 2582.737
273.7737, 2548.661
274.2559, 2549.945
274.7380, 2579.354
275.2201, 2606.879
275.7022, 2633.632
276.1843, 2654.711
276.6664, 2661.213
277.1486, 2650.386
277.6307, 2652.592
278.1128, 2679.315
278.5949, 2722.776
279.0770, 2744.544
279.5591, 2739.988
280.0413, 2731.752
280.5234, 2745.233
281.0055, 2781.982
281.4876, 2802.417
281.9697, 2787.004
282.4518, 2750.979
282.9340, 2762.537
283.4161, 2828.577
283.8982, 2906.419
284.3803, 2954.066
284.8624, 2972.476
285.3445, 2992.655
285.8267, 3021.267
286.3088, 3057.394
286.7909, 3097.051
287.2730, 3139.796
287.7551, 3188.786
288.2372, 3252.917
288.7194, 3329.284
289.2015, 3397.334
289.6836, 3448.948
290.1657, 3488.188
290.6478, 3520.608
291.1299, 3545.075
291.6121, 3576.782
292.0942, 3632.399
292.5763, 3709.160
293.0584, 3794.749
293.5405, 3893.938
294.0226, 3994.899
294.5048, 4071.318
294.9869, 4122.993
295.4690, 4162.551
295.9511, 4193.556
296.4332, 4221.106
296.9153, 4262.011
297.3975, 4332.188
297.8796, 4413.494
298.3617, 4466.940
298.8438, 4492.442
299.3259, 4531.181
299.8080, 4640.341
300.2902, 4791.117
300.7723, 4919.345
301.2544, 4985.506
301.7365, 5024.819
302.2186, 5084.043
302.7007, 5162.197
303.1829, 5241.071
303.6650, 5299.598
304.1471, 5348.496
304.6292, 5405.997
305.1113, 5496.754
305.5934, 5587.739
306.0756, 5639.673
306.5577, 5654.791
307.0398, 5668.602
307.5219, 5706.809
308.0040, 5759.470
308.4861, 5812.010
308.9683, 5873.215
309.4504, 5922.933
309.9325, 5938.011
310.4146, 5920.895
310.8967, 5909.523
311.3788, 5936.561
311.8610, 5978.322
312.3431, 6008.708
312.8252, 6013.428
313.3073, 6008.302
313.7894, 6003.612
314.2715, 5998.585
314.7537, 5982.711
315.2358, 5942.291
315.7179, 5892.347
316.2000, 5847.064
316.6821, 5815.052
317.1642, 5784.119
317.6464, 5749.449
318.1285, 5711.320
318.6106, 5675.242
319.0927, 5638.646
319.5748, 5607.087
320.0569, 5584.979
320.5391, 5589.579
321.0212, 5587.230
321.5033, 5564.186
321.9854, 5522.891
322.4675, 5489.133
322.9496, 5473.728
323.4318, 5464.157
323.9139, 5451.985
324.3960, 5429.025
324.8781, 5411.278
325.3602, 5396.154
325.8423, 5385.256
326.3245, 5393.353
326.8066, 5445.481
327.2887, 5500.569
327.7708, 5535.214
328.2529, 5527.489
328.7350, 5526.273
329.2171, 5535.913
329.6992, 5554.831
330.1814, 5573.406
330.6635, 5587.075
331.1456, 5604.889
331.6277, 5632.087
332.1098, 5672.083
332.5919, 5717.142
333.0741, 5779.239
333.5562, 5847.042
334.0383, 5871.545
334.5204, 5834.713
335.0025, 5784.326
335.4846, 5742.555
335.9668, 5703.492
336.4489, 5693.819
336.9310, 5726.852
337.4131, 5784.999
337.8952, 5818.686
338.3773, 5826.907
338.8595, 5813.700
339.3416, 5774.512
339.8237, 5704.731
340.3058, 5650.021
340.7879, 5621.621
341.2701, 5597.926
341.7522, 5524.088
342.2343, 5394.708
342.7164, 5269.924
343.1985, 5187.142
343.6806, 5142.520
344.1628, 5099.019
344.6449, 5059.212
345.1270, 5008.905
345.6091, 4914.212
346.0912, 4778.980
346.5733, 4648.416
347.0555, 4549.957
347.5376, 4474.040
348.0197, 4384.745
348.5018, 4276.088
348.9839, 4169.937
349.4660, 4105.926
349.9482, 4071.028
350.4303, 4015.197
350.9124, 3889.729
351.3945, 3736.791
351.8766, 3620.047
352.3587, 3543.649
352.8409, 3491.216
353.3230, 3466.782
353.8051, 3455.235
354.2872, 3427.478
354.7693, 3360.329
355.2514, 3278.105
355.7336, 3197.402
356.2157, 3118.707
356.6978, 3053.987
357.1799, 3028.647
357.6620, 3016.803
358.1441, 2984.066
358.6263, 2889.046
359.1084, 2793.938
359.5905, 2734.536
360.0726, 2709.382
360.5547, 2691.576
361.0368, 2674.660
361.5190, 2657.267
362.0011, 2638.016
362.4832, 2622.263
362.9653, 2598.779
363.4474, 2560.333
363.9295, 2509.087
364.4117, 2460.373
364.8938, 2405.403
365.3759, 2361.843
365.8580, 2340.453
366.3401, 2372.231
366.8222, 2391.207
367.3044, 2383.885
367.7865, 2356.865
368.2686, 2339.418
368.7507, 2347.223
369.2328, 2351.625
369.7149, 2338.956
370.1971, 2287.732
370.6792, 2256.091
371.1613, 2247.792
371.6434, 2257.985
372.1255, 2276.395
372.6076, 2308.767
373.0898, 2339.633
373.5719, 2363.668
374.0540, 2381.635
374.5361, 2388.071
375.0182, 2378.365
375.5003, 2361.905
375.9825, 2353.304
376.4646, 2352.979
376.9467, 2359.303
377.4288, 2378.535
377.9109, 2409.372
378.3930, 2410.928
378.8752, 2375.791
379.3573, 2333.555
379.8394, 2322.438
380.3215, 2341.485
380.8036, 2366.220
381.2857, 2392.777
381.7679, 2418.138
382.2500, 2430.226
382.7321, 2427.820
383.2142, 2429.204
383.6963, 2455.884
384.1784, 2501.173
384.6606, 2544.701
385.1427, 2583.530
385.6248, 2614.197
386.1069, 2631.054
386.5890, 2634.414
387.0711, 2626.687
387.5533, 2597.159
388.0354, 2561.497
388.5175, 2542.582
388.9996, 2557.138
389.4817, 2571.927
389.9638, 2563.059
390.4460, 2534.247
390.9281, 2497.078
391.4102, 2434.517
391.8923, 2380.212
392.3744, 2365.346
392.8565, 2417.498
393.3387, 2453.985
393.8208, 2435.750
394.3029, 2380.967
394.7850, 2322.908
395.2671, 2253.282
395.7492, 2196.770
396.2314, 2165.782
396.7135, 2166.592
397.1956, 2173.498
397.6777, 2192.846
398.1598, 2213.235
398.6419, 2220.510
399.1241, 2192.179
399.6062, 2175.860
400.0883, 2188.193
400.5704, 2232.750
401.0525, 2251.140
401.5346, 2226.540
402.0168, 2192.365
402.4989, 2177.836
402.9810, 2190.802
403.4631, 2204.847
403.9452, 2217.674
404.4273, 2228.607
404.9095, 2231.621
405.3916, 2223.428
405.8737, 2216.748
406.3558, 2222.429
406.8379, 2241.396
407.3200, 2255.114
407.8022, 2258.970
408.2843, 2260.381
408.7664, 2283.958
409.2485, 2329.577
409.7306, 2356.888
410.2127, 2327.990
410.6949, 2260.677
411.1770, 2213.023
411.6591, 2187.603
412.1412, 2185.973
412.6233, 2225.097
413.1054, 2292.176
413.5876, 2349.997
414.0697, 2381.716
414.5518, 2394.195
415.0339, 2387.423
415.5160, 2361.144
415.9981, 2341.022
416.4803, 2342.988
416.9624, 2363.069
417.4445, 2395.748
417.9266, 2467.472
418.4087, 2526.316
418.8908, 2528.057
419.3730, 2483.668
419.8551, 2466.636
420.3372, 2526.809
420.8193, 2611.761
421.3014, 2684.442
421.7835, 2734.837
422.2657, 2779.344
422.7478, 2810.867
423.2299, 2837.845
423.7120, 2884.397
424.1941, 2975.718
424.6762, 3067.346
425.1584, 3141.571
425.6404, 3189.390
426.1226, 3247.440
426.6047, 3318.794
427.0868, 3398.573
427.5689, 3478.726
428.0510, 3558.839
428.5331, 3639.259
429.0153, 3718.241
429.4974, 3795.071
429.9795, 3888.030
430.4616, 3998.203
430.9437, 4120.471
431.4258, 4249.987
431.9080, 4386.758
432.3901, 4524.856
432.8722, 4657.604
433.3543, 4795.140
433.8364, 4973.385
434.3185, 5190.706
434.8007, 5413.075
435.2828, 5612.144
435.7649, 5795.919
436.2470, 5987.998
436.7291, 6194.375
437.2112, 6396.956
437.6934, 6593.303
438.1755, 6771.904
438.6576, 6900.153
439.1397, 6941.552
439.6218, 6936.659
440.1039, 6931.317
440.5861, 6933.548
441.0682, 6883.387
441.5503, 6709.519
442.0324, 6476.795
442.5145, 6260.235
442.9966, 6088.367
443.4788, 5931.549
443.9609, 5782.173
444.4430, 5639.179
444.9251, 5500.918
445.4072, 5346.601
445.8893, 5210.836
446.3715, 5114.703
446.8536, 5108.801
447.3357, 5079.424
447.8178, 5021.090
448.2999, 4938.994
448.7820, 4845.150
449.2642, 4737.521
449.7463, 4625.265
450.2284, 4514.550
450.7105, 4410.338
451.1926, 4279.189
451.6747, 4105.545
452.1569, 3929.318
452.6390, 3808.195
453.1211, 3747.757
453.6032, 3684.014
454.0853, 3587.524
454.5674, 3475.385
455.0496, 3415.787
455.5317, 3411.472
456.0138, 3408.174
456.4959, 3352.434
456.9780, 3261.191
457.4601, 3176.776
457.9423, 3106.708
458.4244, 3050.678
458.9065, 3017.761
459.3886, 3001.699
459.8707, 2981.000
460.3528, 2945.373
460.8350, 2898.793
461.3171, 2842.741
461.7992, 2776.109
462.2813, 2708.459
462.7634, 2634.104
463.2455, 2564.929
463.7277, 2517.492
464.2098, 2529.381
464.6919, 2531.735
465.1740, 2497.802
465.6561, 2427.126
466.1382, 2358.646
466.6204, 2290.004
467.1025, 2228.805
467.5846, 2180.320
468.0667, 2159.555
468.5488, 2126.185
469.0309, 2071.121
469.5131, 2004.835
469.9952, 1956.125
470.4773, 1929.824
470.9594, 1909.427
471.4415, 1889.338
471.9236, 1869.479
472.4058, 1848.034
472.8879, 1825.158
473.3700, 1800.878
473.8521, 1773.610
474.3342, 1743.892
474.8163, 1718.513
475.2985, 1702.156
475.7806, 1689.656
476.2627, 1668.962
476.7448, 1640.942
477.2269, 1613.928
477.7090, 1587.006
478.1912, 1567.095
478.6733, 1569.977
479.1554, 1611.186
479.6375, 1643.931
480.1196, 1625.910
480.6017, 1573.363
481.0839, 1520.792
481.5660, 1464.831
482.0481, 1426.440
482.5302, 1426.710
483.0123, 1473.181
483.4944, 1501.565
483.9766, 1480.589
484.4587, 1442.276
484.9408, 1414.288
485.4229, 1404.750
485.9050, 1398.743
486.3871, 1392.617
486.8693, 1388.514
487.3514, 1399.486
487.8335, 1440.884
488.3156, 1472.039
488.7977, 1467.355
489.2798, 1416.458
489.7620, 1387.325
490.2441, 1385.465
490.7262, 1396.325
491.2083, 1402.967
491.6904, 1405.359
492.1725, 1394.361
492.6547, 1359.317
493.1368, 1311.760
493.6189, 1273.557
494.1010, 1245.287
494.5831, 1240.493
495.0652, 1296.594
495.5474, 1378.816
496.0295, 1421.849
496.5116, 1400.543
496.9937, 1364.890
497.4758, 1346.825
497.9579, 1344.228
498.4401, 1351.789
498.9222, 1381.971
499.4043, 1409.734
499.8864, 1418.096
500.3685, 1402.182
500.8506, 1393.071
501.3328, 1400.380
501.8149, 1416.224
502.2970, 1433.609
502.7791, 1469.439
503.2612, 1484.472
503.7433, 1465.153
504.2255, 1421.417
504.7076, 1395.226
505.1897, 1393.103
505.6718, 1396.204
506.1539, 1392.888
506.6360, 1379.895
507.1182, 1389.273
507.6003, 1429.266
508.0824, 1472.778
508.5645, 1483.588
509.0466, 1463.655
509.5287, 1433.427
510.0109, 1393.689
510.4930, 1351.816
510.9751, 1324.253
511.4572, 1309.812
511.9393, 1296.840
512.4214, 1272.076
512.9036, 1245.617
513.3857, 1231.420
513.8678, 1234.940
514.3499, 1241.918
514.8320, 1246.088
515.3141, 1247.382
515.7963, 1245.670
516.2784, 1255.984
516.7605, 1249.278
517.2426, 1198.038
517.7247, 1098.753
518.2068, 1040.873
518.6890, 1076.780
519.1711, 1126.988
519.6532, 1142.184
520.1353, 1095.002
520.6174, 1067.812
521.0995, 1073.805
521.5817, 1096.217
522.0638, 1092.234
522.5459, 1052.316
523.0280, 1026.645
523.5101, 1046.402
523.9922, 1102.228
524.4744, 1120.829
524.9565, 1098.425
525.4386, 1068.775
525.9207, 1070.358
526.4028, 1091.703
526.8849, 1098.210
527.3671, 1075.418
527.8492, 1045.733
528.3313, 1031.071
528.8134, 1028.949
529.2955, 1031.572
529.7776, 1039.826
530.2598, 1047.905
530.7419, 1051.300
531.2240, 1049.185
531.7061, 1046.384
532.1882, 1048.376
532.6703, 1048.491
533.1525, 1040.637
533.6346, 998.9865
534.1167, 980.2713
534.5988, 1006.577
535.0809, 1060.388
535.5630, 1078.111
536.0452, 1042.662
536.5273, 1004.169
537.0094, 986.8393
537.4915, 993.8084
537.9736, 978.0496
538.4557, 932.4203
538.9379, 884.5148
539.4200, 860.8864
539.9021, 861.3821
540.3842, 894.5350
540.8663, 984.5826
541.3484, 1079.759
541.8306, 1078.510
542.3127, 1000.364
542.7948, 936.2480
543.2769, 957.3754
543.7590, 1009.106
544.2411, 1039.570
544.7233, 1041.525
545.2054, 1036.484
545.6875, 1030.719
546.1696, 1025.032
546.6517, 1020.248
547.1339, 1019.881
547.6160, 1016.769
548.0981, 1001.742
548.5802, 980.8626
549.0623, 981.9250
549.5444, 1027.375
550.0266, 1064.079
550.5087, 1066.994
550.9908, 1028.421
551.4729, 1001.398
551.9550, 987.4270
552.4371, 981.2636
552.9193, 975.8288
553.4014, 971.4716
553.8835, 976.7430
554.3656, 996.5733
554.8477, 1023.542
555.3298, 1047.581
555.8120, 1067.928
556.2941, 1079.607
556.7762, 1074.627
557.2583, 1061.902
557.7404, 1050.313
558.2225, 1040.598
558.7047, 1033.423
559.1868, 1030.409
559.6689, 1029.475
560.1510, 1028.482
560.6331, 1029.958
561.1152, 1027.851
561.5974, 1020.674
562.0795, 1008.766
562.5616, 992.7178
563.0437, 957.0608
563.5258, 938.3829
564.0079, 957.5024
564.4901, 1021.427
564.9722, 1051.089
565.4543, 1035.890
565.9364, 1010.465
566.4185, 1015.340
566.9006, 1048.387
567.3828, 1060.970
567.8649, 1038.001
568.3470, 1001.194
568.8291, 985.2615
569.3112, 986.7850
569.7933, 991.9182
570.2755, 990.7079
570.7576, 990.9783
571.2397, 1005.159
571.7218, 1033.430
572.2039, 1054.217
572.6860, 1052.428
573.1682, 1040.062
573.6503, 1027.228
574.1323, 1018.176
574.6144, 1005.387
575.0966, 974.7205
575.5787, 941.4883
576.0608, 938.2348
576.5429, 985.9900
577.0250, 1029.274
577.5071, 1052.965
577.9893, 1057.991
578.4714, 1058.187
578.9535, 1052.428
579.4356, 1045.990
579.9177, 1040.061
580.3998, 1035.772
580.8820, 1044.183
581.3641, 1069.609
581.8462, 1096.840
582.3283, 1103.429
582.8104, 1096.928
583.2925, 1096.015
583.7747, 1122.671
584.2568, 1146.734
584.7389, 1135.389
585.2210, 1096.726
585.7031, 1074.762
586.1852, 1104.655
586.6674, 1144.103
587.1495, 1169.323
587.6316, 1172.313
588.1137, 1175.053
588.5958, 1172.598
589.0779, 1174.260
589.5601, 1192.240
590.0422, 1234.753
590.5243, 1270.267
591.0064, 1291.780
591.4885, 1304.055
591.9706, 1323.523
592.4528, 1351.111
592.9349, 1371.230
593.4170, 1361.206
593.8991, 1338.686
594.3812, 1358.883
594.8633, 1424.182
595.3455, 1491.255
595.8276, 1521.363
596.3097, 1532.200
596.7918, 1547.743
597.2739, 1578.267
597.7560, 1607.010
598.2382, 1607.955
598.7203, 1603.726
599.2024, 1638.247
599.6845, 1782.567
600.1666, 1902.334
600.6487, 1965.904
601.1309, 1973.968
601.6130, 1939.464
602.0951, 1833.688
602.5772, 1735.237
603.0593, 1707.206
603.5414, 1757.893
604.0236, 1760.289
604.5057, 1696.154
604.9878, 1621.020
605.4699, 1621.733
605.9520, 1679.868
606.4341, 1717.448
606.9163, 1700.468
607.3984, 1661.499
607.8805, 1635.243
608.3626, 1618.882
608.8447, 1601.875
609.3268, 1579.653
609.8090, 1554.756
610.2911, 1522.889
610.7732, 1479.283
611.2553, 1460.559
611.7374, 1501.622
612.2195, 1552.413
612.7017, 1574.651
613.1838, 1555.122
613.6659, 1531.650
614.1480, 1501.240
614.6301, 1471.777
615.1122, 1461.783
615.5944, 1473.154
616.0765, 1484.980
616.5586, 1489.820
617.0407, 1489.774
617.5228, 1492.453
618.0049, 1497.255
618.4871, 1495.901
618.9692, 1479.564
619.4513, 1455.125
619.9334, 1431.401
620.4155, 1409.952
620.8976, 1385.232
621.3798, 1345.595
621.8619, 1304.972
622.3440, 1278.464
622.8261, 1281.229
623.3082, 1284.366
623.7903, 1292.563
624.2725, 1297.698
624.7546, 1273.474
625.2367, 1199.103
625.7188, 1142.247
626.2009, 1132.509
626.6830, 1164.017
627.1652, 1180.507
627.6473, 1181.177
628.1294, 1173.434
628.6115, 1159.883
629.0936, 1142.783
629.5757, 1126.543
630.0579, 1110.832
630.5400, 1100.409
631.0221, 1097.400
631.5042, 1102.935
631.9863, 1118.801
632.4684, 1169.054
632.9506, 1205.129
633.4327, 1206.392
633.9148, 1178.915
634.3969, 1145.172
634.8790, 1085.933
635.3611, 1046.073
635.8433, 1044.423
636.3254, 1083.727
636.8075, 1116.085
637.2896, 1143.365
637.7717, 1159.963
638.2538, 1155.150
638.7360, 1131.886
639.2181, 1119.914
639.7002, 1125.106
640.1823, 1132.361
640.6644, 1117.172
641.1465, 1090.796
641.6287, 1077.891
642.1108, 1101.164
642.5929, 1127.493
643.0750, 1132.742
643.5571, 1123.070
644.0392, 1119.609
644.5214, 1141.294
645.0035, 1159.161
645.4856, 1160.576
645.9677, 1144.417
646.4498, 1123.489
646.9319, 1090.060
647.4141, 1062.852
647.8962, 1060.873
648.3783, 1087.190
648.8604, 1094.856
649.3425, 1074.722
649.8246, 1052.749
650.3068, 1077.220
650.7889, 1132.534
651.2710, 1160.964
651.7531, 1125.157
652.2352, 1075.967
652.7173, 1060.302
653.1995, 1071.127
653.6816, 1086.971
654.1637, 1112.715
654.6458, 1129.153
655.1279, 1122.610
655.6100, 1089.714
656.0922, 1064.020
656.5743, 1040.427
657.0564, 1031.203
657.5385, 1049.237
658.0206, 1105.540
658.5027, 1138.162
658.9849, 1141.995
659.4670, 1131.176
659.9491, 1121.454
660.4312, 1112.887
660.9133, 1105.630
661.3954, 1098.589
661.8776, 1094.769
662.3597, 1100.686
662.8418, 1113.061
663.3239, 1123.007
663.8060, 1123.081
664.2881, 1122.274
664.7703, 1127.986
665.2524, 1139.843
665.7345, 1143.071
666.2166, 1124.227
666.6987, 1105.873
667.1808, 1098.407
667.6630, 1104.675
668.1451, 1109.703
668.6272, 1113.335
669.1093, 1116.151
669.5914, 1116.475
670.0735, 1115.202
670.5557, 1121.894
671.0378, 1139.405
671.5199, 1162.609
672.0020, 1195.598
672.4841, 1229.679
672.9662, 1243.717
673.4484, 1197.407
673.9305, 1157.326
674.4126, 1172.549
674.8947, 1231.890
675.3768, 1273.720
675.8589, 1266.332
676.3411, 1256.737
676.8232, 1264.494
677.3053, 1292.818
677.7874, 1306.134
678.2695, 1300.365
678.7516, 1288.528
679.2338, 1280.594
679.7159, 1276.215
680.1980, 1269.195
680.6801, 1257.161
681.1622, 1250.274
681.6443, 1267.995
682.1265, 1298.494
682.6086, 1318.103
683.0907, 1313.510
683.5728, 1302.848
684.0549, 1297.687
684.5370, 1294.134
685.0192, 1283.003
685.5013, 1249.472
685.9834, 1221.720
686.4655, 1205.089
686.9476, 1199.899
687.4297, 1211.675
687.9119, 1247.830
688.3940, 1281.620
688.8761, 1300.167
689.3582, 1303.682
689.8403, 1290.340
690.3224, 1258.264
690.8046, 1230.998
691.2867, 1235.804
691.7688, 1258.251
692.2509, 1273.627
692.7330, 1272.911
693.2151, 1277.803
693.6973, 1315.193
694.1794, 1360.892
694.6615, 1382.408
695.1436, 1348.045
695.6257, 1320.138
696.1078, 1304.811
696.5900, 1301.364
697.0721, 1311.639
697.5542, 1342.082
698.0363, 1362.597
698.5184, 1356.099
699.0005, 1333.402
699.4827, 1338.261
699.9648, 1368.824
700.4469, 1392.973
700.9290, 1377.299
701.4111, 1348.653
701.8932, 1340.298
702.3754, 1355.588
702.8575, 1377.892
703.3396, 1413.634
703.8217, 1444.120
704.3038, 1453.717
704.7859, 1419.781
705.2681, 1400.701
705.7502, 1401.077
706.2323, 1412.747
706.7144, 1427.082
707.1965, 1444.634
707.6786, 1462.651
708.1608, 1483.107
708.6429, 1499.940
709.1250, 1495.013
709.6071, 1474.723
710.0892, 1464.558
710.5714, 1489.545
711.0535, 1519.449
711.5356, 1520.182
712.0177, 1500.310
712.4998, 1496.606
712.9819, 1550.298
713.4641, 1598.491
713.9462, 1606.110
714.4283, 1569.932
714.9104, 1549.722
715.3925, 1556.182
715.8746, 1559.910
716.3568, 1532.666
716.8389, 1475.061
717.3210, 1452.517
717.8031, 1471.901
718.2852, 1502.362
718.7673, 1510.494
719.2495, 1506.358
719.7316, 1510.316
720.2137, 1531.712
720.6958, 1551.223
721.1779, 1556.258
721.6600, 1552.102
722.1422, 1546.174
722.6243, 1532.876
723.1064, 1526.797
723.5885, 1530.938
724.0706, 1543.198
724.5527, 1560.013
725.0349, 1584.369
725.5170, 1600.432
725.9991, 1599.885
726.4812, 1588.047
726.9633, 1578.924
727.4454, 1572.598
727.9276, 1570.813
728.4097, 1578.259
728.8918, 1588.479
729.3739, 1597.730
729.8560, 1605.662
730.3381, 1604.734
730.8203, 1582.183
731.3024, 1557.175
731.7845, 1540.375
732.2666, 1527.092
732.7487, 1538.900
733.2308, 1589.675
733.7130, 1644.010
734.1951, 1664.192
734.6772, 1650.952
735.1593, 1633.196
735.6414, 1610.155
736.1235, 1599.532
736.6057, 1643.046
737.0878, 1713.523
737.5699, 1753.795
738.0520, 1717.137
738.5341, 1680.038
739.0162, 1681.703
739.4984, 1711.789
739.9805, 1747.002
740.4626, 1798.685
740.9447, 1835.782
741.4268, 1849.936
741.9089, 1844.865
742.3911, 1832.241
742.8732, 1809.290
743.3553, 1795.831
743.8374, 1800.212
744.3195, 1821.881
744.8016, 1868.031
745.2838, 1935.841
745.7659, 1994.968
746.2480, 2012.596
746.7301, 2020.204
747.2122, 2046.317
747.6943, 2097.214
748.1765, 2141.478
748.6586, 2172.612
749.1407, 2194.484
749.6228, 2207.876
750.1049, 2208.057
750.5870, 2213.728
751.0692, 2223.202
751.5513, 2242.155
752.0334, 2282.345
752.5155, 2339.346
752.9976, 2389.403
753.4797, 2426.447
753.9619, 2462.576
754.4440, 2513.597
754.9261, 2571.205
755.4082, 2623.498
755.8903, 2661.796
756.3724, 2698.029
756.8546, 2729.571
757.3367, 2761.989
757.8188, 2806.718
758.3009, 2868.396
758.7830, 2933.875
759.2651, 3002.082
759.7473, 3070.986
760.2294, 3135.639
760.7115, 3195.666
761.1936, 3248.455
761.6757, 3289.256
762.1578, 3323.208
762.6400, 3355.612
763.1221, 3386.883
763.6042, 3419.150
764.0863, 3454.428
764.5684, 3490.381
765.0505, 3523.903
765.5327, 3553.880
766.0148, 3592.365
766.4969, 3643.535
766.9790, 3696.337
767.4611, 3744.696
767.9432, 3788.766
768.4254, 3822.892
768.9075, 3846.179
769.3896, 3866.933
769.8717, 3894.327
770.3538, 3923.975
770.8359, 3947.762
771.3180, 3963.636
771.8001, 3978.958
772.2822, 3992.183
772.7643, 4009.432
773.2465, 4037.286
773.7286, 4086.887
774.2107, 4130.756
774.6928, 4168.355
775.1749, 4200.234
775.6570, 4226.050
776.1392, 4245.782
776.6213, 4272.377
777.1034, 4313.958
777.5855, 4351.565
778.0676, 4344.603
778.5497, 4313.639
779.0319, 4305.329
779.5140, 4369.742
779.9961, 4429.321
780.4782, 4437.620
780.9603, 4413.745
781.4424, 4414.776
781.9246, 4451.673
782.4067, 4501.395
782.8888, 4563.091
783.3709, 4631.938
783.8530, 4687.679
784.3351, 4729.850
784.8173, 4780.206
785.2994, 4857.333
785.7815, 4946.866
786.2636, 5018.747
786.7457, 5077.979
787.2278, 5147.436
787.7100, 5253.201
788.1921, 5360.158
788.6742, 5438.091
789.1563, 5482.371
789.6384, 5568.887
790.1205, 5718.604
790.6027, 5876.506
791.0848, 6005.416
791.5669, 6107.589
792.0490, 6251.895
792.5311, 6439.509
793.0132, 6642.489
793.4954, 6829.179
793.9775, 7017.350
794.4596, 7238.800
794.9417, 7502.537
795.4238, 7761.169
795.9059, 7971.657
796.3881, 8180.943
796.8702, 8425.153
797.3523, 8716.191
797.8344, 9018.036
798.3165, 9335.706
798.7986, 9654.563
799.2808, 9963.961
799.7629, 10263.04
800.2450, 10553.82
800.7271, 10832.80
801.2092, 11122.18
801.6913, 11454.55
802.1735, 11810.25
802.6556, 12160.67
803.1377, 12501.68
803.6198, 12829.31
804.1019, 13147.59
804.5840, 13451.81
805.0662, 13737.79
805.5483, 13989.55
806.0304, 14258.29
806.5125, 14558.40
806.9946, 14864.54
807.4767, 15131.32
807.9589, 15362.79
808.4410, 15586.95
808.9231, 15818.97
809.4052, 16030.93
809.8873, 16188.47
810.3694, 16306.22
810.8516, 16412.88
811.3337, 16530.60
811.8158, 16623.28
812.2979, 16677.72
812.7800, 16703.02
813.2621, 16718.23
813.7443, 16723.70
814.2264, 16719.89
814.7085, 16707.28
815.1906, 16685.90
815.6727, 16662.77
816.1548, 16633.01
816.6370, 16575.55
817.1191, 16458.10
817.6012, 16327.80
818.0833, 16217.50
818.5654, 16122.22
819.0475, 16020.34
819.5297, 15909.56
820.0118, 15785.30
820.4939, 15644.56
820.9760, 15489.53
821.4581, 15339.71
821.9402, 15196.41
822.4224, 15055.47
822.9045, 14921.25
823.3866, 14785.63
823.8687, 14628.62
824.3508, 14454.47
824.8329, 14272.43
825.3151, 14080.31
825.7972, 13891.32
826.2793, 13716.67
826.7614, 13559.15
827.2435, 13385.44
827.7256, 13178.30
828.2078, 12989.43
828.6899, 12850.12
829.1720, 12752.11
829.6541, 12628.32
830.1362, 12479.70
830.6183, 12297.08
831.1005, 12052.45
831.5826, 11785.22
832.0647, 11535.44
832.5468, 11306.00
833.0289, 11090.59
833.5110, 10908.16
833.9932, 10717.12
834.4753, 10492.60
834.9574, 10227.88
835.4395, 9980.278
835.9216, 9753.962
836.4037, 9538.598
836.8859, 9323.143
837.3680, 9112.069
837.8501, 8921.809
838.3322, 8752.785
838.8143, 8577.348
839.2964, 8371.123
839.7786, 8154.177
840.2607, 7939.320
840.7428, 7725.592
841.2249, 7528.127
841.7070, 7359.401
842.1891, 7190.873
842.6713, 6998.626
843.1534, 6780.437
843.6355, 6586.341
844.1176, 6416.200
844.5997, 6267.257
845.0818, 6151.123
845.5640, 6048.470
846.0461, 5927.607
846.5282, 5780.283
847.0103, 5649.199
847.4924, 5571.727
847.9745, 5500.180
848.4567, 5396.520
848.9388, 5244.280
849.4209, 5128.112
849.9030, 5056.370
850.3851, 4997.600
850.8672, 4926.924
851.3494, 4846.760
851.8315, 4757.689
852.3136, 4658.155
852.7957, 4574.390
853.2778, 4553.705
853.7599, 4541.882
854.2421, 4483.960
854.7242, 4345.916
855.2063, 4243.290
855.6884, 4198.171
856.1705, 4168.698
856.6526, 4123.534
857.1348, 4062.124
857.6169, 4006.565
858.0990, 3958.691
858.5811, 3911.560
859.0632, 3857.434
859.5453, 3800.695
860.0275, 3747.521
860.5096, 3699.888
860.9917, 3652.994
861.4738, 3601.580
861.9559, 3553.416
862.4380, 3515.502
862.9202, 3490.416
863.4023, 3464.282
863.8844, 3437.225
864.3665, 3407.866
864.8486, 3376.118
865.3307, 3340.582
865.8129, 3292.708
866.2950, 3230.017
866.7771, 3176.535
867.2592, 3159.282
867.7413, 3150.289
868.2234, 3124.884
868.7056, 3071.270
869.1877, 3025.950
869.6698, 2992.178
870.1519, 2962.698
870.6340, 2933.207
871.1161, 2903.811
871.5983, 2872.642
872.0804, 2839.484
872.5625, 2809.211
873.0446, 2788.272
873.5267, 2771.279
874.0089, 2753.844
874.4910, 2736.899
874.9731, 2710.662
875.4552, 2661.274
875.9373, 2612.048
876.4194, 2576.364
876.9016, 2555.721
877.3837, 2534.817
877.8658, 2513.599
878.3479, 2492.191
878.8300, 2468.763
879.3121, 2445.938
879.7943, 2430.099
880.2764, 2422.011
880.7585, 2410.274
881.2406, 2379.332
881.7227, 2351.386
882.2048, 2345.029
882.6870, 2364.913
883.1691, 2365.070
883.6512, 2342.829
884.1333, 2308.842
884.6154, 2260.693
885.0975, 2207.371
885.5797, 2179.515
886.0618, 2176.499
886.5439, 2172.767
887.0260, 2145.256
887.5081, 2116.140
887.9902, 2100.307
888.4724, 2100.147
888.9545, 2105.701
889.4366, 2122.630
889.9187, 2133.779
890.4008, 2126.775
890.8829, 2105.946
891.3651, 2099.976
891.8472, 2108.092
892.3293, 2118.435
892.8114, 2128.695
893.2935, 2133.474
893.7756, 2121.540
894.2578, 2095.420
894.7399, 2083.287
895.2220, 2103.909
895.7041, 2124.493
896.1862, 2138.905
896.6683, 2144.858
897.1505, 2117.585
897.6326, 2057.211
898.1147, 2018.362
898.5968, 2048.163
899.0789, 2104.969
899.5610, 2147.378
900.0432, 2174.098
900.5253, 2180.492
901.0074, 2142.952
901.4895, 2109.721
901.9716, 2098.529
902.4537, 2102.223
902.9359, 2095.052
903.4180, 2076.008
903.9001, 2054.627
904.3822, 2031.412
904.8643, 2011.397
905.3464, 2002.511
905.8286, 2003.181
906.3107, 2009.078
906.7928, 2024.695
907.2749, 2038.207
907.7570, 2051.110
908.2391, 2057.624
908.7213, 2044.304
909.2034, 2006.221
909.6855, 1966.903
910.1676, 1929.958
910.6497, 1896.379
911.1318, 1867.230
911.6140, 1843.204
912.0961, 1825.498
912.5782, 1811.766
913.0603, 1809.580
913.5424, 1841.094
914.0245, 1878.539
914.5067, 1878.913
914.9888, 1815.335
915.4709, 1790.418
915.9530, 1823.026
916.4351, 1870.929
916.9172, 1877.610
917.3994, 1853.975
917.8815, 1830.976
918.3636, 1814.338
918.8457, 1801.492
919.3278, 1795.833
919.8099, 1790.350
920.2921, 1777.283
920.7742, 1751.143
921.2563, 1731.132
921.7384, 1719.210
922.2205, 1709.207
922.7026, 1689.497
923.1848, 1666.578
923.6669, 1671.677
924.1490, 1707.944
924.6311, 1737.743
925.1132, 1725.199
925.5953, 1701.420
926.0775, 1689.882
926.5596, 1694.729
927.0417, 1702.826
927.5238, 1716.051
928.0059, 1728.747
928.4880, 1743.215
928.9702, 1755.188
929.4523, 1730.701
929.9344, 1674.414
930.4165, 1631.853
930.8986, 1644.853
931.3807, 1672.509
931.8629, 1681.752
932.3450, 1674.839
932.8271, 1690.689
933.3092, 1755.666
933.7913, 1796.440
934.2734, 1778.686
934.7556, 1728.049
935.2377, 1729.150
935.7198, 1774.317
936.2019, 1817.382
936.6840, 1834.209
937.1661, 1842.149
937.6483, 1849.548
938.1304, 1857.737
938.6125, 1870.509
939.0946, 1894.511
939.5767, 1911.431
940.0588, 1915.697
940.5410, 1915.794
941.0231, 1928.736
941.5052, 1952.157
941.9873, 1971.724
942.4694, 1979.770
942.9515, 1993.867
943.4337, 2031.626
943.9158, 2082.151
944.3979, 2132.453
944.8800, 2179.835
945.3621, 2225.684
945.8442, 2266.844
946.3264, 2312.412
946.8085, 2377.765
947.2906, 2457.599
947.7727, 2521.133
948.2548, 2564.527
948.7369, 2607.606
949.2191, 2661.504
949.7012, 2724.986
950.1833, 2794.193
950.6654, 2865.920
951.1475, 2966.143
951.6296, 3102.274
952.1118, 3252.786
952.5939, 3405.072
953.0760, 3560.553
953.5581, 3715.071
954.0402, 3871.684
954.5223, 4057.794
955.0045, 4309.772
955.4866, 4580.839
955.9687, 4835.976
956.4508, 5077.535
956.9329, 5336.141
957.4150, 5604.258
957.8972, 5908.946
958.3793, 6264.811
958.8614, 6656.639
959.3435, 7041.829
959.8256, 7424.537
960.3077, 7827.506
960.7899, 8272.314
961.2720, 8723.125
961.7541, 9145.935
962.2362, 9572.446
962.7183, 10056.32
963.2004, 10636.17
963.6826, 11184.87
964.1647, 11684.17
964.6468, 12159.80
965.1289, 12649.77
965.6110, 13138.30
966.0931, 13595.36
966.5753, 14008.03
967.0574, 14411.71
967.5395, 14868.51
968.0216, 15291.83
968.5037, 15606.11
968.9858, 15804.37
969.4679, 15959.62
969.9500, 16085.24
970.4321, 16115.96
970.9142, 15981.35
971.3964, 15726.95
971.8785, 15430.76
972.3606, 15095.30
972.8427, 14706.44
973.3248, 14235.70
973.8069, 13726.05
974.2891, 13192.68
974.7712, 12637.47
975.2533, 12055.81
975.7354, 11446.70
976.2175, 10841.33
976.6996, 10254.72
977.1818, 9682.913
977.6639, 9126.260
978.1460, 8575.014
978.6281, 8028.742
979.1102, 7455.283
979.5923, 6922.821
980.0745, 6442.537
980.5566, 6001.479
981.0387, 5574.041
981.5208, 5159.179
982.0029, 4805.189
982.4850, 4525.572
982.9672, 4286.640
983.4493, 4061.534
983.9314, 3856.737
984.4135, 3680.473
984.8956, 3542.349
985.3777, 3404.984
985.8599, 3257.887
986.3420, 3120.318
986.8241, 3004.589
987.3062, 2909.678
987.7883, 2826.569
988.2704, 2755.534
988.7526, 2689.538
989.2347, 2626.306
989.7168, 2564.658
990.1989, 2498.931
990.6810, 2431.990
991.1631, 2381.511
991.6453, 2355.279
992.1274, 2328.172
992.6095, 2289.873
993.0916, 2252.046
993.5737, 2252.928
994.0558, 2277.790
994.5380, 2276.885
995.0201, 2218.313
995.5022, 2157.324
995.9843, 2122.689
996.4664, 2101.971
996.9485, 2079.431
997.4307, 2055.821
997.9128, 2022.645
998.3949, 1975.271
998.8770, 1934.729
999.3591, 1931.868
999.8412, 1947.385
1000.323, 1946.870
1000.805, 1926.300
1001.288, 1905.576
1001.770, 1896.141
1002.252, 1884.574
1002.734, 1860.926
1003.216, 1828.057
1003.698, 1819.937
1004.180, 1837.187
1004.662, 1848.613
1005.145, 1827.911
1005.627, 1803.709
1006.109, 1819.062
1006.591, 1854.804
1007.073, 1864.212
1007.555, 1802.230
1008.037, 1757.491
1008.519, 1742.751
1009.001, 1745.188
1009.484, 1748.217
1009.966, 1751.533
1010.448, 1754.849
1010.930, 1759.409
1011.412, 1756.504
1011.894, 1729.763
1012.376, 1698.831
1012.858, 1681.909
1013.341, 1681.779
1013.823, 1689.482
1014.305, 1710.482
1014.787, 1721.655
1015.269, 1690.805
1015.751, 1644.448
1016.233, 1656.009
1016.715, 1713.752
1017.197, 1754.949
1017.680, 1725.299
1018.162, 1701.282
1018.644, 1719.472
1019.126, 1761.019
1019.608, 1783.972
1020.090, 1788.695
1020.572, 1764.436
1021.054, 1695.439
1021.536, 1634.766
1022.019, 1665.473
1022.501, 1733.600
1022.983, 1761.445
1023.465, 1704.542
1023.947, 1672.807
1024.429, 1684.636
1024.911, 1705.425
1025.393, 1706.319
1025.876, 1691.737
1026.358, 1692.253
1026.840, 1707.400
1027.322, 1720.873
1027.804, 1714.544
1028.286, 1710.138
1028.768, 1728.153
1029.250, 1762.472
1029.733, 1776.588
1030.215, 1766.383
1030.697, 1749.971
1031.179, 1729.101
1031.661, 1710.430
1032.143, 1707.095
1032.625, 1713.608
1033.107, 1718.862
1033.589, 1718.211
1034.072, 1718.473
1034.554, 1718.393
1035.036, 1722.602
1035.518, 1740.257
1036.000, 1771.555
1036.482, 1776.311
1036.964, 1752.681
1037.446, 1729.709
1037.928, 1731.876
1038.411, 1742.988
1038.893, 1747.170
1039.375, 1745.206
1039.857, 1758.061
1040.339, 1790.255
1040.821, 1827.942
1041.303, 1868.717
1041.785, 1909.702
1042.268, 1945.089
1042.750, 1976.955
1043.232, 2011.078
1043.714, 2049.172
1044.196, 2090.957
1044.678, 2139.201
1045.160, 2189.261
1045.642, 2233.246
1046.125, 2268.138
1046.607, 2329.113
1047.089, 2418.486
1047.571, 2514.580
1048.053, 2595.417
1048.535, 2677.200
1049.017, 2778.251
1049.499, 2898.114
1049.981, 3009.911
1050.464, 3101.256
1050.946, 3201.870
1051.428, 3319.245
1051.910, 3453.527
1052.392, 3652.847
1052.874, 3872.775
1053.356, 3970.560
1053.838, 3860.553
1054.320, 3698.965
1054.803, 3547.701
1055.285, 3384.987
1055.767, 3184.109
1056.249, 2931.663
1056.731, 2716.387
1057.213, 2539.019
1057.695, 2391.635
1058.177, 2275.359
1058.660, 2180.492
1059.142, 2096.435
1059.624, 2022.761
1060.106, 1968.421
1060.588, 1942.674
1061.070, 1917.806
1061.552, 1884.575
1062.034, 1851.663
1062.516, 1840.778
1062.999, 1846.224
1063.481, 1848.209
1063.963, 1837.423
1064.445, 1832.090
1064.927, 1858.537
1065.409, 1881.256
1065.891, 1864.466
1066.373, 1797.990
1066.855, 1769.410
1067.338, 1780.757
1067.820, 1799.055
1068.302, 1801.922
1068.784, 1798.262
1069.266, 1796.894
1069.748, 1797.305
1070.230, 1795.036
1070.712, 1781.804
1071.194, 1782.370
1071.677, 1807.878
1072.159, 1837.962
1072.641, 1830.575
1073.123, 1799.569
1073.605, 1783.665
1074.087, 1794.120
1074.569, 1807.733
1075.051, 1828.900
1075.534, 1834.455
1076.016, 1799.490
1076.498, 1724.065
1076.980, 1710.252
1077.462, 1758.038
1077.944, 1806.607
1078.426, 1820.221
1078.908, 1816.575
1079.391, 1804.154
1079.873, 1786.657
1080.355, 1772.668
1080.837, 1758.613
1081.319, 1760.744
1081.801, 1786.890
1082.283, 1813.967
1082.765, 1811.449
1083.247, 1789.150
1083.729, 1761.082
1084.212, 1727.945
1084.694, 1710.705
1085.176, 1732.891
1085.658, 1757.077
1086.140, 1768.454
1086.622, 1768.669
1087.104, 1764.736
1087.586, 1756.697
1088.069, 1744.734
1088.551, 1725.952
1089.033, 1707.463
1089.515, 1690.232
1089.997, 1678.371
1090.479, 1679.035
1090.961, 1698.094
1091.443, 1706.124
1091.926, 1700.129
1092.408, 1694.182
1092.890, 1709.380
1093.372, 1727.232
1093.854, 1717.856
1094.336, 1683.209
1094.818, 1660.229
1095.300, 1656.211
1095.782, 1668.301
1096.265, 1705.194
1096.747, 1747.077
1097.229, 1742.819
1097.711, 1706.764
1098.193, 1686.440
1098.675, 1700.873
1099.157, 1711.291
1099.639, 1687.251
1100.121, 1662.485
1100.604, 1662.954
1101.086, 1689.278
1101.568, 1714.512
1102.050, 1738.650
1102.532, 1751.846
1103.014, 1748.600
1103.496, 1730.957
1103.978, 1683.201
1104.461, 1624.217
1104.943, 1604.907
1105.425, 1641.359
1105.907, 1675.884
1106.389, 1704.480
1106.871, 1719.803
1107.353, 1699.331
1107.835, 1665.585
1108.318, 1656.806
1108.800, 1678.766
1109.282, 1693.634
1109.764, 1688.891
1110.246, 1680.801
1110.728, 1673.061
1111.210, 1667.273
1111.692, 1669.281
1112.174, 1677.787
1112.656, 1689.321
1113.139, 1708.445
1113.621, 1719.220
1114.103, 1711.050
1114.585, 1693.520
1115.067, 1671.704
1115.549, 1643.883
1116.031, 1641.084
1116.513, 1663.816
1116.996, 1685.387
1117.478, 1679.759
1117.960, 1671.677
1118.442, 1685.687
1118.924, 1714.440
1119.406, 1726.658
1119.888, 1715.341
1120.370, 1712.734
1120.853, 1727.256
1121.335, 1741.896
1121.817, 1728.945
1122.299, 1705.076
1122.781, 1695.273
1123.263, 1704.914
1123.745, 1713.211
1124.227, 1715.350
1124.709, 1720.230
1125.192, 1736.777
1125.674, 1724.431
1126.156, 1740.349
1126.638, 1703.295
1127.120, 1674.083
1127.602, 1656.383
1128.084, 1661.907
1128.566, 1720.233
1129.048, 1779.922
1129.531, 1792.267
1130.013, 1760.029
1130.495, 1731.949
1130.977, 1710.174
1131.459, 1704.981
1131.941, 1741.875
1132.423, 1779.140
1132.905, 1788.182
1133.388, 1777.820
1133.870, 1772.856
1134.352, 1773.686
1134.834, 1776.898
1135.316, 1782.955
1135.798, 1785.991
1136.280, 1772.307
1136.762, 1757.271
1137.245, 1757.609
1137.727, 1777.259
1138.209, 1801.352
1138.691, 1833.677
1139.173, 1856.081
1139.655, 1857.816
1140.137, 1849.116
1140.619, 1840.732
1141.101, 1836.608
1141.583, 1845.275
1142.066, 1887.615
1142.548, 1907.707
1143.030, 1892.637
1143.512, 1872.125
1143.994, 1869.013
1144.476, 1879.877
1144.958, 1894.135
1145.440, 1911.741
1145.923, 1933.969
1146.405, 1968.448
1146.887, 1999.644
1147.369, 2028.494
1147.851, 2047.415
1148.333, 2033.957
1148.815, 1995.321
1149.297, 1977.018
1149.780, 1986.149
1150.262, 2010.004
1150.744, 2060.189
1151.226, 2103.519
1151.708, 2112.439
1152.190, 2095.317
1152.672, 2097.206
1153.154, 2117.890
1153.636, 2137.996
1154.119, 2156.337
1154.601, 2159.958
1155.083, 2119.739
1155.565, 2068.317
1156.047, 2047.007
1156.529, 2064.164
1157.011, 2066.701
1157.493, 2052.437
1157.975, 2039.636
1158.458, 2044.066
1158.940, 2052.906
1159.422, 2052.701
1159.904, 2045.126
1160.386, 2034.274
1160.868, 2022.120
1161.350, 2002.902
1161.832, 1973.846
1162.315, 1945.198
1162.797, 1939.229
1163.279, 1935.545
1163.761, 1890.652
1164.243, 1808.027
1164.725, 1754.950
1165.207, 1767.461
1165.689, 1779.089
1166.172, 1777.953
1166.654, 1765.107
1167.136, 1732.041
1167.618, 1690.777
1168.100, 1671.895
1168.582, 1686.391
1169.064, 1692.528
1169.546, 1665.531
1170.028, 1640.583
1170.510, 1634.501
1170.993, 1641.269
1171.475, 1640.046
1171.957, 1632.935
1172.439, 1628.833
1172.921, 1639.789
1173.403, 1639.253
1173.885, 1603.013
1174.367, 1562.403
1174.850, 1541.103
1175.332, 1538.479
1175.814, 1538.045
1176.296, 1539.422
1176.778, 1539.183
1177.260, 1531.262
1177.742, 1525.592
1178.224, 1532.966
1178.707, 1542.811
1179.189, 1535.743
1179.671, 1511.137
1180.153, 1502.971
1180.635, 1515.306
1181.117, 1529.419
1181.599, 1534.752
1182.081, 1532.905
1182.563, 1521.307
1183.046, 1503.125
1183.528, 1487.389
1184.010, 1472.955
1184.492, 1478.468
1184.974, 1514.734
1185.456, 1545.570
1185.938, 1525.121
1186.420, 1489.085
1186.902, 1475.283
1187.385, 1487.606
1187.867, 1492.369
1188.349, 1489.864
1188.831, 1474.606
1189.313, 1430.797
1189.795, 1395.202
1190.277, 1430.792
1190.759, 1495.023
1191.242, 1523.941
1191.724, 1500.457
1192.206, 1461.696
1192.688, 1400.071
1193.170, 1359.375
1193.652, 1388.219
1194.134, 1442.225
1194.616, 1466.185
1195.099, 1466.657
1195.581, 1459.525
1196.063, 1438.324
1196.545, 1433.651
1197.027, 1452.817
1197.509, 1470.277
1197.991, 1450.050
1198.473, 1417.782
1198.955, 1415.946
1199.438, 1441.710
1199.920, 1454.871
1200.402, 1439.503
1200.884, 1431.019
1201.366, 1437.819
1201.848, 1448.492
1202.330, 1445.880
1202.812, 1436.324
1203.294, 1429.961
1203.777, 1428.356
1204.259, 1427.506
1204.741, 1424.124
1205.223, 1427.798
1205.705, 1447.414
1206.187, 1467.640
1206.669, 1447.022
1207.151, 1406.409
1207.634, 1390.904
1208.116, 1422.268
1208.598, 1436.350
1209.080, 1412.369
1209.562, 1393.876
1210.044, 1411.317
1210.526, 1445.177
1211.008, 1443.949
1211.490, 1418.538
1211.973, 1397.654
1212.455, 1394.105
1212.937, 1390.094
1213.419, 1379.313
1213.901, 1374.307
1214.383, 1389.965
1214.865, 1418.080
1215.347, 1438.138
1215.829, 1448.575
1216.312, 1444.640
1216.794, 1405.202
1217.276, 1377.623
1217.758, 1369.090
1218.240, 1374.842
1218.722, 1399.363
1219.204, 1432.151
1219.686, 1440.211
1220.169, 1424.021
1220.651, 1409.311
1221.133, 1403.180
1221.615, 1405.629
1222.097, 1419.404
1222.579, 1437.295
1223.061, 1453.075
1223.543, 1462.620
1224.026, 1447.445
1224.508, 1403.668
1224.990, 1376.912
1225.472, 1406.768
1225.954, 1428.383
1226.436, 1420.514
1226.918, 1395.524
1227.400, 1373.722
1227.882, 1358.218
1228.365, 1361.482
1228.847, 1392.288
1229.329, 1411.509
1229.811, 1396.447
1230.293, 1382.819
1230.775, 1386.789
1231.257, 1402.967
1231.739, 1421.940
1232.221, 1440.046
1232.704, 1446.746
1233.186, 1432.671
1233.668, 1420.578
1234.150, 1414.602
1234.632, 1412.108
1235.114, 1412.079
1235.596, 1414.056
1236.078, 1419.533
1236.561, 1425.967
1237.043, 1425.272
1237.525, 1407.270
1238.007, 1391.942
1238.489, 1382.247
1238.971, 1374.916
1239.453, 1367.644
1239.935, 1360.513
1240.417, 1351.888
1240.900, 1343.324
1241.382, 1341.173
1241.864, 1345.763
1242.346, 1363.185
1242.828, 1400.546
1243.310, 1437.076
1243.792, 1444.578
1244.274, 1434.592
1244.756, 1433.763
1245.239, 1441.770
1245.721, 1442.269
1246.203, 1425.203
1246.685, 1406.705
1247.167, 1388.708
1247.649, 1371.487
1248.131, 1347.077
1248.613, 1326.876
1249.096, 1341.920
1249.578, 1394.232
1250.060, 1417.311
1250.542, 1381.231
1251.024, 1354.589
1251.506, 1355.467
1251.988, 1370.460
1252.470, 1382.169
1252.953, 1392.052
1253.435, 1405.610
1253.917, 1425.585
1254.399, 1422.962
1254.881, 1384.903
1255.363, 1356.964
1255.845, 1356.949
1256.327, 1371.629
1256.809, 1386.405
1257.292, 1399.783
1257.774, 1410.772
1258.256, 1420.402
1258.738, 1417.694
1259.220, 1399.502
1259.702, 1381.580
1260.184, 1371.863
1260.666, 1364.942
1261.148, 1353.305
1261.631, 1339.639
1262.113, 1326.235
1262.595, 1308.919
1263.077, 1313.193
1263.559, 1341.635
1264.041, 1374.948
1264.523, 1410.442
1265.005, 1435.129
1265.487, 1427.879
1265.970, 1403.233
1266.452, 1383.479
1266.934, 1367.334
1267.416, 1370.719
1267.898, 1395.096
1268.380, 1417.872
1268.862, 1426.194
1269.344, 1424.387
1269.827, 1410.721
1270.309, 1390.871
1270.791, 1372.941
1271.273, 1355.441
1271.755, 1356.832
1272.237, 1377.598
1272.719, 1397.304
1273.201, 1395.892
1273.683, 1394.700
1274.166, 1417.034
1274.648, 1404.118
1275.130, 1435.052
1275.612, 1395.441
1276.094, 1374.004
1276.576, 1373.819
1277.058, 1369.595
1277.540, 1327.656
1278.022, 1298.688
1278.505, 1311.632
1278.987, 1345.923
1279.469, 1371.677
1279.951, 1389.543
1280.433, 1401.294
1280.915, 1407.275
1281.397, 1408.609
1281.879, 1402.632
1282.362, 1395.944
1282.844, 1390.231
1283.326, 1385.513
1283.808, 1382.005
1284.290, 1379.428
1284.772, 1374.625
1285.254, 1366.885
1285.736, 1371.166
1286.219, 1408.519
1286.701, 1431.707
1287.183, 1423.188
1287.665, 1402.634
1288.147, 1407.071
1288.629, 1423.015
1289.111, 1423.019
1289.593, 1400.546
1290.075, 1392.910
1290.557, 1409.234
1291.040, 1423.857
1291.522, 1427.999
1292.004, 1427.803
1292.486, 1425.095
1292.968, 1427.436
1293.450, 1452.964
1293.932, 1510.526
1294.414, 1523.437
1294.897, 1485.859
1295.379, 1435.441
1295.861, 1373.450
1296.343, 1333.750
1296.825, 1382.195
1297.307, 1455.592
1297.789, 1474.352
1298.271, 1436.990
1298.754, 1427.532
1299.236, 1445.787
1299.718, 1454.041
1300.200, 1427.697
1300.682, 1406.557
##END=



