##NAMES=Arsentsumebite
##RRUFFID=R110041
##IDEAL CHEMISTRY=Pb^2+^_2_Cu^2+^(As^5+^O_4_)(S^6+^O_4_)(OH)
##LOCALITY=Tsumeb, Namibia
##OWNER=RRUFF
##SOURCE=William W Pinch
##DESCRIPTION=Green tabular crystals associated with linarite and goethite
##STATUS=The identification of this mineral has been confirmed only by single crystal X-ray diffraction.
##URL=rruff.info/R110041
194.6294, 1362.136
195.1115, 1357.465
195.5936, 1352.756
196.0757, 1347.988
196.5579, 1343.149
197.0400, 1338.535
197.5221, 1334.267
198.0042, 1329.042
198.4863, 1321.483
198.9684, 1311.589
199.4506, 1302.804
199.9327, 1295.569
200.4148, 1289.419
200.8969, 1283.807
201.3790, 1278.909
201.8611, 1273.396
202.3433, 1265.982
202.8254, 1256.400
203.3075, 1248.212
203.7896, 1242.045
204.2717, 1237.166
204.7538, 1231.711
205.2360, 1225.430
205.7181, 1219.409
206.2002, 1214.593
206.6823, 1211.299
207.1644, 1206.896
207.6465, 1200.804
208.1287, 1193.659
208.6108, 1186.980
209.0929, 1180.529
209.5750, 1175.126
210.0571, 1171.552
210.5392, 1170.154
211.0214, 1168.963
211.5035, 1168.256
211.9856, 1167.534
212.4677, 1164.625
212.9498, 1158.594
213.4319, 1152.526
213.9140, 1148.488
214.3962, 1147.265
214.8783, 1145.210
215.3604, 1141.539
215.8425, 1136.888
216.3246, 1134.088
216.8067, 1133.786
217.2889, 1134.012
217.7710, 1133.494
218.2531, 1131.831
218.7352, 1130.593
219.2173, 1130.144
219.6994, 1130.181
220.1816, 1129.218
220.6637, 1126.539
221.1458, 1124.007
221.6279, 1122.964
222.1100, 1124.159
222.5921, 1124.869
223.0743, 1125.124
223.5564, 1124.761
224.0385, 1122.558
224.5206, 1117.034
225.0027, 1112.123
225.4848, 1110.617
225.9670, 1114.471
226.4491, 1117.076
226.9312, 1117.708
227.4133, 1116.716
227.8954, 1115.605
228.3775, 1113.987
228.8597, 1112.858
229.3418, 1112.977
229.8239, 1115.077
230.3060, 1116.686
230.7881, 1117.461
231.2702, 1117.563
231.7524, 1117.641
232.2345, 1117.124
232.7166, 1117.322
233.1987, 1119.204
233.6808, 1123.915
234.1629, 1127.699
234.6451, 1130.216
235.1272, 1131.615
235.6093, 1132.580
236.0914, 1132.897
236.5735, 1133.077
237.0556, 1133.453
237.5378, 1134.336
238.0199, 1134.778
238.5020, 1134.637
238.9841, 1134.052
239.4662, 1133.474
239.9483, 1132.650
240.4305, 1132.251
240.9126, 1132.707
241.3947, 1134.475
241.8768, 1136.158
242.3589, 1137.702
242.8410, 1139.126
243.3232, 1140.432
243.8053, 1141.143
244.2874, 1142.374
244.7695, 1144.991
245.2516, 1150.705
245.7337, 1153.835
246.2159, 1153.209
246.6980, 1149.974
247.1801, 1147.900
247.6622, 1147.577
248.1443, 1147.441
248.6264, 1146.646
249.1086, 1144.499
249.5907, 1143.388
250.0728, 1143.849
250.5549, 1145.238
251.0370, 1145.800
251.5191, 1145.158
252.0013, 1144.327
252.4834, 1143.695
252.9655, 1143.188
253.4476, 1143.224
253.9297, 1144.292
254.4118, 1145.705
254.8940, 1145.745
255.3761, 1143.434
255.8582, 1141.469
256.3403, 1141.125
256.8224, 1143.048
257.3046, 1144.365
257.7867, 1144.869
258.2688, 1144.849
258.7509, 1144.766
259.2330, 1144.330
259.7151, 1144.369
260.1973, 1145.259
260.6794, 1147.128
261.1615, 1149.297
261.6436, 1152.172
262.1257, 1154.987
262.6078, 1156.022
263.0900, 1154.018
263.5721, 1153.325
264.0542, 1156.071
264.5363, 1163.176
265.0184, 1167.893
265.5005, 1169.859
265.9827, 1170.039
266.4648, 1169.308
266.9469, 1166.774
267.4290, 1166.018
267.9111, 1168.822
268.3932, 1175.500
268.8754, 1179.953
269.3575, 1181.334
269.8396, 1181.738
270.3217, 1183.923
270.8038, 1188.358
271.2859, 1192.614
271.7681, 1195.947
272.2502, 1198.362
272.7323, 1200.776
273.2144, 1203.145
273.6965, 1205.499
274.1786, 1207.515
274.6608, 1208.890
275.1429, 1211.783
275.6250, 1217.157
276.1071, 1224.605
276.5892, 1231.341
277.0714, 1237.234
277.5535, 1242.500
278.0356, 1247.004
278.5177, 1250.606
278.9998, 1254.881
279.4819, 1260.344
279.9641, 1266.691
280.4462, 1272.424
280.9283, 1277.514
281.4104, 1282.167
281.8925, 1286.171
282.3746, 1289.504
282.8568, 1294.180
283.3389, 1300.814
283.8210, 1308.817
284.3031, 1316.432
284.7852, 1323.630
285.2673, 1331.261
285.7495, 1340.257
286.2316, 1350.532
286.7137, 1360.453
287.1958, 1369.364
287.6779, 1378.530
288.1600, 1391.534
288.6422, 1408.450
289.1243, 1424.606
289.6064, 1435.634
290.0885, 1442.744
290.5706, 1451.728
291.0527, 1463.181
291.5349, 1476.392
292.0170, 1491.387
292.4991, 1507.754
292.9812, 1522.655
293.4633, 1532.555
293.9454, 1539.478
294.4276, 1550.294
294.9097, 1565.803
295.3918, 1582.814
295.8739, 1597.791
296.3560, 1610.797
296.8381, 1622.815
297.3203, 1633.926
297.8024, 1644.290
298.2845, 1654.539
298.7666, 1664.793
299.2487, 1674.226
299.7308, 1681.420
300.2130, 1687.147
300.6951, 1693.527
301.1772, 1702.322
301.6593, 1711.779
302.1414, 1719.324
302.6235, 1724.920
303.1057, 1730.061
303.5878, 1736.671
304.0699, 1743.597
304.5520, 1748.538
305.0341, 1750.072
305.5162, 1749.947
305.9984, 1749.427
306.4805, 1748.636
306.9626, 1748.376
307.4447, 1750.348
307.9268, 1752.827
308.4089, 1753.680
308.8911, 1752.719
309.3732, 1749.446
309.8553, 1742.379
310.3374, 1732.411
310.8195, 1722.381
311.3016, 1713.285
311.7838, 1705.292
312.2659, 1698.743
312.7480, 1694.443
313.2301, 1689.881
313.7122, 1682.599
314.1943, 1673.881
314.6765, 1666.602
315.1586, 1664.323
315.6407, 1662.313
316.1228, 1657.221
316.6049, 1647.973
317.0870, 1638.573
317.5692, 1630.841
318.0513, 1624.091
318.5334, 1617.412
319.0155, 1609.687
319.4976, 1602.678
319.9797, 1597.610
320.4619, 1594.739
320.9440, 1591.453
321.4261, 1585.928
321.9082, 1580.089
322.3903, 1575.783
322.8724, 1574.618
323.3546, 1573.758
323.8367, 1572.583
324.3188, 1571.070
324.8009, 1569.404
325.2830, 1567.365
325.7651, 1565.373
326.2473, 1563.715
326.7294, 1562.070
327.2115, 1561.225
327.6936, 1561.770
328.1757, 1563.406
328.6578, 1564.547
329.1400, 1563.948
329.6221, 1563.937
330.1042, 1565.533
330.5863, 1569.535
331.0684, 1573.885
331.5505, 1578.763
332.0327, 1583.904
332.5148, 1588.662
332.9969, 1592.691
333.4790, 1596.696
333.9611, 1600.815
334.4432, 1604.801
334.9254, 1609.857
335.4075, 1616.824
335.8896, 1624.005
336.3717, 1628.855
336.8538, 1630.373
337.3359, 1631.887
337.8180, 1634.800
338.3001, 1639.051
338.7823, 1640.478
339.2644, 1638.902
339.7465, 1634.942
340.2286, 1628.533
340.7107, 1619.229
341.1928, 1610.781
341.6750, 1604.590
342.1571, 1599.715
342.6392, 1592.911
343.1213, 1584.070
343.6034, 1573.687
344.0855, 1561.458
344.5677, 1547.573
345.0498, 1533.898
345.5319, 1520.617
346.0140, 1507.881
346.4961, 1496.113
346.9782, 1485.333
347.4604, 1474.850
347.9425, 1464.069
348.4246, 1453.256
348.9067, 1444.137
349.3888, 1437.088
349.8709, 1430.292
350.3531, 1421.119
350.8352, 1410.193
351.3173, 1399.888
351.7994, 1391.095
352.2815, 1383.503
352.7636, 1376.774
353.2458, 1370.892
353.7279, 1365.177
354.2100, 1358.787
354.6921, 1352.191
355.1742, 1346.289
355.6563, 1341.789
356.1385, 1337.521
356.6206, 1332.002
357.1027, 1325.520
357.5848, 1319.677
358.0669, 1316.327
358.5490, 1313.565
359.0312, 1309.441
359.5133, 1302.930
359.9954, 1296.419
360.4775, 1291.188
360.9596, 1286.951
361.4417, 1283.164
361.9239, 1279.545
362.4060, 1276.336
362.8881, 1273.940
363.3702, 1272.663
363.8523, 1270.779
364.3344, 1265.827
364.8166, 1260.634
365.2987, 1258.411
365.7808, 1265.098
366.2629, 1269.699
366.7450, 1268.336
367.2271, 1260.983
367.7093, 1254.363
368.1914, 1248.459
368.6735, 1244.000
369.1556, 1241.464
369.6377, 1243.244
370.1198, 1243.993
370.6020, 1242.983
371.0841, 1240.708
371.5662, 1239.035
372.0483, 1238.899
372.5304, 1238.217
373.0125, 1235.873
373.4947, 1230.807
373.9768, 1227.161
374.4589, 1225.194
374.9410, 1224.395
375.4231, 1224.075
375.9052, 1224.408
376.3874, 1224.766
376.8695, 1224.796
377.3516, 1224.555
377.8337, 1225.609
378.3158, 1228.392
378.7979, 1231.388
379.2801, 1233.110
379.7622, 1233.550
380.2443, 1233.420
380.7264, 1232.694
381.2085, 1231.624
381.6906, 1230.542
382.1728, 1229.415
382.6549, 1229.245
383.1370, 1231.453
383.6191, 1235.325
384.1012, 1237.742
384.5833, 1238.048
385.0655, 1238.011
385.5476, 1240.301
386.0297, 1244.351
386.5118, 1248.026
386.9939, 1250.666
387.4760, 1252.208
387.9582, 1251.758
388.4403, 1249.292
388.9224, 1247.865
389.4045, 1251.498
389.8866, 1257.348
390.3687, 1261.399
390.8509, 1261.582
391.3330, 1260.351
391.8151, 1258.650
392.2972, 1256.775
392.7793, 1255.859
393.2614, 1257.358
393.7436, 1259.455
394.2257, 1260.976
394.7078, 1261.799
395.1899, 1261.755
395.6720, 1259.418
396.1541, 1256.393
396.6363, 1255.268
397.1184, 1258.432
397.6005, 1261.934
398.0826, 1264.492
398.5647, 1265.941
399.0468, 1267.217
399.5290, 1268.567
400.0111, 1269.683
400.4932, 1270.301
400.9753, 1269.473
401.4574, 1269.448
401.9395, 1270.743
402.4217, 1273.069
402.9038, 1274.928
403.3859, 1275.688
403.8680, 1276.923
404.3501, 1279.682
404.8322, 1284.757
405.3144, 1288.406
405.7965, 1290.181
406.2786, 1291.014
406.7607, 1292.388
407.2428, 1294.425
407.7249, 1296.323
408.2071, 1297.698
408.6892, 1298.672
409.1713, 1299.828
409.6534, 1301.078
410.1355, 1303.049
410.6176, 1307.296
411.0998, 1313.193
411.5819, 1316.711
412.0640, 1316.412
412.5461, 1314.491
413.0282, 1314.388
413.5103, 1315.892
413.9925, 1317.746
414.4746, 1319.505
414.9567, 1321.062
415.4388, 1322.034
415.9209, 1322.312
416.4030, 1322.825
416.8852, 1324.943
417.3673, 1327.738
417.8494, 1329.703
418.3315, 1330.126
418.8136, 1329.691
419.2957, 1328.163
419.7779, 1325.855
420.2600, 1324.615
420.7421, 1326.737
421.2242, 1329.405
421.7063, 1330.332
422.1884, 1327.612
422.6706, 1326.058
423.1527, 1326.993
423.6348, 1329.862
424.1169, 1333.585
424.5990, 1338.025
425.0811, 1343.302
425.5633, 1349.516
426.0454, 1356.707
426.5275, 1364.366
427.0096, 1372.410
427.4917, 1381.027
427.9738, 1390.496
428.4560, 1401.321
428.9381, 1411.709
429.4202, 1420.763
429.9023, 1429.231
430.3844, 1440.511
430.8665, 1455.259
431.3487, 1470.779
431.8308, 1485.726
432.3129, 1499.995
432.7950, 1514.353
433.2771, 1528.304
433.7592, 1543.648
434.2414, 1563.701
434.7235, 1588.121
435.2056, 1612.792
435.6877, 1636.885
436.1698, 1660.027
436.6519, 1681.454
437.1341, 1701.247
437.6162, 1720.600
438.0983, 1742.771
438.5804, 1764.791
439.0625, 1781.074
439.5446, 1789.912
440.0268, 1795.641
440.5089, 1802.807
440.9910, 1809.706
441.4731, 1812.782
441.9552, 1809.963
442.4373, 1803.219
442.9195, 1793.623
443.4016, 1781.206
443.8837, 1765.841
444.3658, 1745.443
444.8479, 1723.080
445.3300, 1701.323
445.8122, 1679.234
446.2943, 1659.353
446.7764, 1643.437
447.2585, 1629.969
447.7406, 1615.083
448.2227, 1595.307
448.7049, 1577.293
449.1870, 1563.360
449.6691, 1554.572
450.1512, 1544.105
450.6333, 1530.839
451.1154, 1517.296
451.5976, 1505.705
452.0797, 1496.168
452.5618, 1488.767
453.0439, 1483.854
453.5260, 1480.978
454.0081, 1478.608
454.4903, 1476.786
454.9724, 1475.194
455.4545, 1473.225
455.9366, 1471.128
456.4187, 1471.091
456.9008, 1473.508
457.3830, 1476.101
457.8651, 1475.158
458.3472, 1471.956
458.8293, 1470.907
459.3114, 1475.017
459.7935, 1480.291
460.2757, 1481.895
460.7578, 1480.177
461.2399, 1477.066
461.7220, 1471.842
462.2041, 1466.828
462.6862, 1464.924
463.1684, 1467.407
463.6505, 1469.132
464.1326, 1467.272
464.6147, 1463.193
465.0968, 1458.596
465.5789, 1454.004
466.0611, 1449.112
466.5432, 1443.295
467.0253, 1436.772
467.5074, 1431.503
467.9895, 1428.526
468.4716, 1426.225
468.9538, 1423.977
469.4359, 1422.294
469.9180, 1419.577
470.4001, 1415.572
470.8822, 1410.646
471.3643, 1405.076
471.8465, 1398.292
472.3286, 1392.503
472.8107, 1388.503
473.2928, 1386.003
473.7749, 1383.142
474.2570, 1379.928
474.7392, 1376.328
475.2213, 1372.023
475.7034, 1367.178
476.1855, 1362.932
476.6676, 1359.437
477.1497, 1356.475
477.6319, 1353.706
478.1140, 1351.245
478.5961, 1349.507
479.0782, 1349.645
479.5603, 1350.013
480.0424, 1348.141
480.5246, 1344.340
481.0067, 1341.218
481.4888, 1341.297
481.9709, 1342.274
482.4530, 1341.984
482.9352, 1339.432
483.4173, 1337.025
483.8994, 1336.464
484.3815, 1336.459
484.8636, 1335.063
485.3457, 1329.615
485.8279, 1325.009
486.3100, 1323.050
486.7921, 1323.769
487.2742, 1323.518
487.7563, 1321.830
488.2384, 1319.682
488.7206, 1317.629
489.2027, 1315.825
489.6848, 1313.775
490.1669, 1311.391
490.6490, 1308.879
491.1311, 1306.464
491.6133, 1304.150
492.0954, 1302.022
492.5775, 1299.976
493.0596, 1298.160
493.5417, 1297.510
494.0238, 1298.040
494.5060, 1298.055
494.9881, 1295.111
495.4702, 1290.723
495.9523, 1289.114
496.4344, 1291.332
496.9165, 1293.964
497.3987, 1293.347
497.8808, 1290.724
498.3629, 1288.455
498.8450, 1287.821
499.3271, 1287.616
499.8092, 1287.369
500.2914, 1287.003
500.7735, 1286.119
501.2556, 1283.360
501.7377, 1280.942
502.2198, 1280.552
502.7019, 1283.859
503.1841, 1285.352
503.6662, 1282.495
504.1483, 1278.264
504.6304, 1276.197
505.1125, 1277.983
505.5946, 1279.234
506.0768, 1279.227
506.5589, 1278.149
507.0410, 1276.769
507.5231, 1274.731
508.0052, 1273.350
508.4873, 1273.690
508.9695, 1275.760
509.4516, 1276.949
509.9337, 1277.224
510.4158, 1276.637
510.8979, 1274.410
511.3800, 1271.098
511.8622, 1269.544
512.3443, 1271.380
512.8264, 1274.008
513.3085, 1273.593
513.7906, 1270.887
514.2728, 1268.586
514.7549, 1268.891
515.2370, 1269.829
515.7191, 1269.540
516.2012, 1267.820
516.6833, 1266.382
517.1655, 1266.336
517.6476, 1266.759
518.1297, 1266.863
518.6118, 1266.087
519.0939, 1265.492
519.5760, 1265.228
520.0582, 1265.264
520.5403, 1265.532
521.0224, 1266.519
521.5045, 1267.016
521.9866, 1266.405
522.4688, 1264.679
522.9509, 1264.072
523.4330, 1264.911
523.9151, 1266.050
524.3972, 1266.310
524.8793, 1265.639
525.3615, 1266.463
525.8436, 1269.338
526.3257, 1272.799
526.8078, 1274.875
527.2899, 1275.660
527.7720, 1275.498
528.2542, 1273.985
528.7363, 1272.018
529.2184, 1270.804
529.7005, 1270.243
530.1826, 1269.734
530.6647, 1268.996
531.1469, 1268.114
531.6290, 1266.998
532.1111, 1265.496
532.5932, 1264.588
533.0753, 1264.910
533.5574, 1265.937
534.0396, 1267.116
534.5217, 1268.982
535.0038, 1270.294
535.4859, 1270.608
535.9680, 1270.248
536.4501, 1270.290
536.9323, 1271.215
537.4144, 1271.699
537.8965, 1270.890
538.3786, 1268.717
538.8607, 1268.466
539.3428, 1270.711
539.8250, 1273.059
540.3071, 1272.587
540.7892, 1269.722
541.2713, 1268.899
541.7534, 1271.266
542.2355, 1274.522
542.7177, 1275.209
543.1998, 1274.050
543.6819, 1273.327
544.1640, 1275.192
544.6461, 1277.212
545.1282, 1276.300
545.6104, 1273.051
546.0925, 1271.131
546.5746, 1274.063
547.0567, 1277.841
547.5388, 1279.795
548.0209, 1279.164
548.5031, 1277.982
548.9852, 1275.820
549.4673, 1273.704
549.9494, 1272.730
550.4315, 1273.633
550.9136, 1274.547
551.3958, 1275.380
551.8779, 1276.062
552.3600, 1276.283
552.8421, 1275.840
553.3242, 1275.643
553.8063, 1276.398
554.2885, 1277.855
554.7706, 1277.606
555.2527, 1275.467
555.7348, 1273.602
556.2169, 1273.642
556.6990, 1275.436
557.1812, 1279.416
557.6633, 1286.577
558.1454, 1292.323
558.6275, 1290.983
559.1096, 1285.311
559.5917, 1280.123
560.0739, 1276.958
560.5560, 1275.191
561.0381, 1275.437
561.5202, 1277.111
562.0023, 1277.708
562.4844, 1274.885
562.9666, 1272.293
563.4487, 1271.546
563.9308, 1272.825
564.4129, 1275.132
564.8950, 1279.758
565.3771, 1283.974
565.8593, 1285.228
566.3414, 1282.641
566.8235, 1280.876
567.3056, 1280.621
567.7877, 1280.983
568.2698, 1280.005
568.7520, 1277.807
569.2341, 1276.512
569.7162, 1277.557
570.1983, 1279.598
570.6804, 1280.249
571.1625, 1279.630
571.6447, 1278.527
572.1268, 1276.202
572.6089, 1274.383
573.0910, 1275.244
573.5731, 1279.400
574.0552, 1283.326
574.5374, 1285.385
575.0195, 1286.500
575.5016, 1287.541
575.9837, 1289.225
576.4658, 1290.090
576.9479, 1289.313
577.4301, 1287.754
577.9122, 1287.140
578.3943, 1287.877
578.8764, 1288.629
579.3585, 1288.881
579.8406, 1288.780
580.3228, 1289.680
580.8049, 1291.772
581.2870, 1293.610
581.7691, 1294.197
582.2512, 1293.738
582.7333, 1292.866
583.2155, 1291.570
583.6975, 1290.514
584.1796, 1290.544
584.6617, 1291.193
585.1439, 1291.590
585.6260, 1291.102
586.1081, 1291.076
586.5902, 1292.875
587.0723, 1295.677
587.5544, 1297.853
588.0366, 1297.094
588.5187, 1297.524
589.0008, 1301.631
589.4829, 1309.082
589.9650, 1313.389
590.4471, 1312.479
590.9293, 1311.039
591.4114, 1311.381
591.8935, 1313.854
592.3756, 1315.298
592.8577, 1315.347
593.3398, 1315.344
593.8220, 1316.611
594.3041, 1319.090
594.7862, 1322.619
595.2683, 1327.662
595.7504, 1332.500
596.2325, 1334.612
596.7147, 1334.783
597.1968, 1335.004
597.6789, 1335.891
598.1610, 1337.406
598.6431, 1339.630
599.1252, 1342.501
599.6074, 1345.734
600.0895, 1350.711
600.5716, 1354.791
601.0537, 1356.112
601.5358, 1353.540
602.0179, 1353.129
602.5001, 1356.529
602.9822, 1360.535
603.4643, 1362.804
603.9464, 1363.025
604.4285, 1362.788
604.9106, 1362.153
605.3928, 1361.157
605.8749, 1359.778
606.3570, 1358.025
606.8391, 1356.133
607.3212, 1354.207
607.8033, 1352.128
608.2855, 1349.141
608.7676, 1345.679
609.2497, 1343.263
609.7318, 1344.625
610.2139, 1345.982
610.6960, 1343.482
611.1782, 1337.137
611.6603, 1332.351
612.1424, 1332.196
612.6245, 1333.292
613.1066, 1333.520
613.5887, 1332.061
614.0709, 1331.380
614.5530, 1332.233
615.0351, 1333.216
615.5172, 1332.701
615.9993, 1330.267
616.4814, 1328.222
616.9636, 1326.824
617.4457, 1326.075
617.9278, 1326.202
618.4099, 1327.119
618.8920, 1327.990
619.3741, 1328.623
619.8563, 1328.879
620.3384, 1328.578
620.8205, 1327.710
621.3026, 1326.288
621.7847, 1323.229
622.2668, 1320.382
622.7490, 1319.629
623.2311, 1321.374
623.7132, 1322.203
624.1953, 1320.254
624.6774, 1317.766
625.1595, 1316.401
625.6417, 1317.594
626.1238, 1317.093
626.6059, 1314.082
627.0880, 1310.333
627.5701, 1308.398
628.0522, 1308.521
628.5344, 1308.169
629.0165, 1306.679
629.4986, 1304.623
629.9807, 1302.977
630.4628, 1301.709
630.9449, 1300.728
631.4271, 1299.486
631.9092, 1298.782
632.3913, 1300.001
632.8734, 1302.803
633.3555, 1305.079
633.8376, 1305.090
634.3198, 1304.779
634.8019, 1305.500
635.2840, 1307.718
635.7661, 1309.145
636.2482, 1309.203
636.7303, 1308.712
637.2125, 1308.020
637.6946, 1306.526
638.1767, 1306.917
638.6588, 1310.040
639.1409, 1313.803
639.6230, 1315.128
640.1052, 1314.159
640.5873, 1312.673
641.0694, 1310.995
641.5515, 1309.278
642.0336, 1307.267
642.5157, 1305.366
642.9979, 1304.731
643.4800, 1307.163
643.9621, 1310.045
644.4442, 1311.766
644.9263, 1312.361
645.4084, 1312.212
645.8906, 1310.127
646.3727, 1308.472
646.8548, 1308.770
647.3369, 1311.446
647.8190, 1312.651
648.3011, 1311.590
648.7833, 1310.240
649.2654, 1310.189
649.7475, 1311.574
650.2296, 1312.650
650.7117, 1313.386
651.1938, 1313.572
651.6760, 1312.210
652.1581, 1309.998
652.6402, 1309.277
653.1223, 1311.123
653.6044, 1313.625
654.0865, 1315.851
654.5687, 1317.411
655.0508, 1317.596
655.5329, 1313.657
656.0150, 1310.850
656.4971, 1311.894
656.9792, 1316.020
657.4614, 1319.064
657.9435, 1320.714
658.4256, 1321.434
658.9077, 1321.047
659.3898, 1319.623
659.8719, 1319.232
660.3541, 1320.100
660.8362, 1320.925
661.3183, 1320.439
661.8004, 1319.107
662.2825, 1319.072
662.7646, 1320.542
663.2468, 1321.731
663.7289, 1320.031
664.2110, 1317.513
664.6931, 1317.222
665.1752, 1320.959
665.6573, 1323.957
666.1395, 1323.289
666.6216, 1321.074
667.1037, 1319.917
667.5858, 1322.083
668.0679, 1322.782
668.5500, 1320.467
669.0322, 1317.003
669.5143, 1316.820
669.9964, 1320.608
670.4785, 1324.357
670.9606, 1327.241
671.4427, 1328.974
671.9249, 1327.746
672.4070, 1323.998
672.8891, 1321.408
673.3712, 1323.158
673.8533, 1326.649
674.3354, 1329.189
674.8176, 1330.717
675.2997, 1331.497
675.7818, 1331.230
676.2639, 1330.585
676.7460, 1329.835
677.2281, 1328.846
677.7103, 1328.512
678.1924, 1328.865
678.6745, 1329.862
679.1566, 1331.706
679.6387, 1334.762
680.1208, 1336.785
680.6030, 1337.410
681.0851, 1337.682
681.5672, 1339.156
682.0493, 1341.489
682.5314, 1343.314
683.0135, 1344.304
683.4957, 1344.604
683.9778, 1343.824
684.4599, 1342.513
684.9420, 1341.735
685.4241, 1342.766
685.9063, 1343.461
686.3884, 1342.523
686.8705, 1340.551
687.3526, 1339.622
687.8347, 1339.972
688.3168, 1341.268
688.7990, 1344.052
689.2811, 1347.861
689.7632, 1348.940
690.2453, 1346.928
690.7274, 1344.725
691.2095, 1343.859
691.6917, 1344.111
692.1738, 1345.316
692.6559, 1347.380
693.1380, 1348.747
693.6201, 1347.070
694.1022, 1344.828
694.5844, 1344.784
695.0665, 1347.694
695.5486, 1349.896
696.0307, 1349.643
696.5128, 1348.470
696.9949, 1347.557
697.4771, 1346.934
697.9592, 1346.584
698.4413, 1346.489
698.9234, 1346.736
699.4055, 1347.785
699.8876, 1349.690
700.3698, 1350.374
700.8519, 1349.177
701.3340, 1347.531
701.8161, 1347.477
702.2982, 1348.585
702.7803, 1349.769
703.2625, 1350.688
703.7446, 1351.496
704.2267, 1352.252
704.7088, 1352.967
705.1909, 1353.660
705.6730, 1354.152
706.1552, 1354.786
706.6373, 1355.678
707.1194, 1356.748
707.6015, 1357.792
708.0836, 1358.962
708.5657, 1359.454
709.0479, 1358.359
709.5300, 1356.361
710.0121, 1356.902
710.4942, 1359.871
710.9763, 1362.684
711.4584, 1363.859
711.9406, 1363.760
712.4227, 1362.125
712.9048, 1359.061
713.3869, 1357.355
713.8690, 1359.740
714.3511, 1362.967
714.8333, 1365.088
715.3154, 1365.893
715.7975, 1365.364
716.2796, 1362.442
716.7617, 1359.550
717.2438, 1358.617
717.7260, 1359.807
718.2081, 1361.826
718.6902, 1364.922
719.1723, 1367.515
719.6544, 1366.729
720.1365, 1364.002
720.6187, 1363.158
721.1008, 1365.565
721.5829, 1368.340
722.0650, 1369.135
722.5471, 1369.021
723.0292, 1369.459
723.5114, 1371.566
723.9935, 1373.314
724.4756, 1374.018
724.9577, 1374.288
725.4398, 1375.247
725.9219, 1377.172
726.4041, 1378.855
726.8862, 1379.963
727.3683, 1380.739
727.8504, 1381.671
728.3325, 1382.756
728.8146, 1384.009
729.2968, 1385.699
729.7789, 1387.322
730.2610, 1387.939
730.7431, 1387.940
731.2252, 1388.618
731.7073, 1392.384
732.1895, 1395.155
732.6716, 1394.052
733.1537, 1389.473
733.6358, 1387.912
734.1179, 1390.797
734.6000, 1394.326
735.0822, 1397.178
735.5643, 1399.366
736.0464, 1400.494
736.5285, 1400.514
737.0106, 1400.603
737.4927, 1401.946
737.9749, 1403.794
738.4570, 1404.612
738.9391, 1404.365
739.4212, 1404.570
739.9033, 1406.229
740.3854, 1408.588
740.8676, 1411.487
741.3497, 1415.505
741.8318, 1417.358
742.3139, 1415.042
742.7960, 1412.611
743.2781, 1412.911
743.7603, 1416.332
744.2424, 1419.862
744.7245, 1423.531
745.2066, 1426.967
745.6887, 1430.084
746.1708, 1432.711
746.6530, 1434.021
747.1351, 1433.560
747.6172, 1433.496
748.0993, 1435.477
748.5814, 1438.734
749.0635, 1442.445
749.5457, 1447.421
750.0278, 1451.255
750.5099, 1452.033
750.9920, 1452.488
751.4741, 1456.106
751.9562, 1463.781
752.4384, 1470.517
752.9205, 1475.390
753.4026, 1479.396
753.8847, 1484.187
754.3668, 1489.469
754.8489, 1494.073
755.3311, 1496.999
755.8132, 1500.299
756.2953, 1506.579
756.7774, 1514.328
757.2595, 1520.761
757.7416, 1523.174
758.2238, 1526.453
758.7059, 1532.595
759.1880, 1540.233
759.6701, 1546.477
760.1522, 1550.927
760.6343, 1555.534
761.1165, 1560.854
761.5986, 1566.685
762.0807, 1572.554
762.5628, 1578.505
763.0449, 1584.731
763.5270, 1590.713
764.0092, 1597.519
764.4913, 1606.933
764.9734, 1618.141
765.4555, 1628.762
765.9376, 1637.054
766.4197, 1645.373
766.9019, 1654.363
767.3840, 1663.950
767.8661, 1673.995
768.3482, 1684.697
768.8303, 1695.122
769.3124, 1704.586
769.7946, 1713.471
770.2767, 1723.574
770.7588, 1734.787
771.2409, 1746.108
771.7230, 1756.596
772.2051, 1767.146
772.6873, 1778.877
773.1694, 1791.689
773.6515, 1804.207
774.1336, 1816.615
774.6157, 1828.110
775.0978, 1837.823
775.5800, 1845.883
776.0621, 1855.873
776.5442, 1868.653
777.0263, 1880.977
777.5084, 1890.214
777.9905, 1897.362
778.4727, 1907.145
778.9548, 1919.448
779.4369, 1932.415
779.9190, 1944.961
780.4011, 1957.321
780.8832, 1969.900
781.3654, 1982.607
781.8475, 1995.387
782.3296, 2008.028
782.8117, 2020.885
783.2938, 2034.298
783.7759, 2048.325
784.2581, 2062.073
784.7402, 2075.054
785.2223, 2089.115
785.7044, 2106.070
786.1865, 2125.263
786.6686, 2145.021
787.1508, 2165.376
787.6329, 2185.097
788.1150, 2201.653
788.5971, 2218.574
789.0792, 2239.219
789.5613, 2264.603
790.0435, 2289.906
790.5256, 2314.796
791.0077, 2338.686
791.4898, 2360.897
791.9719, 2380.491
792.4540, 2404.117
792.9362, 2432.152
793.4183, 2460.812
793.9004, 2486.333
794.3825, 2509.767
794.8646, 2532.694
795.3467, 2555.400
795.8289, 2579.949
796.3110, 2609.062
796.7931, 2639.695
797.2752, 2668.591
797.7573, 2694.970
798.2394, 2722.745
798.7216, 2752.067
799.2037, 2783.281
799.6858, 2816.751
800.1679, 2853.014
800.6500, 2888.369
801.1321, 2923.159
801.6143, 2957.996
802.0964, 2994.155
802.5785, 3030.542
803.0606, 3065.174
803.5427, 3097.641
804.0248, 3130.469
804.5070, 3166.990
804.9891, 3203.542
805.4712, 3237.348
805.9533, 3268.175
806.4354, 3296.481
806.9175, 3322.208
807.3997, 3345.427
807.8818, 3366.426
808.3639, 3385.011
808.8460, 3400.108
809.3281, 3411.604
809.8102, 3420.496
810.2924, 3427.965
810.7745, 3433.277
811.2566, 3435.237
811.7387, 3433.562
812.2208, 3429.905
812.7029, 3425.990
813.1851, 3419.543
813.6672, 3408.750
814.1493, 3392.992
814.6314, 3376.068
815.1135, 3358.294
815.5956, 3338.879
816.0778, 3317.117
816.5599, 3293.254
817.0420, 3268.786
817.5241, 3243.656
818.0062, 3218.066
818.4883, 3191.133
818.9705, 3163.952
819.4526, 3138.351
819.9347, 3115.079
820.4168, 3089.689
820.8989, 3060.065
821.3810, 3029.114
821.8632, 2998.003
822.3453, 2966.833
822.8274, 2934.201
823.3095, 2900.402
823.7916, 2866.962
824.2737, 2836.286
824.7559, 2807.073
825.2380, 2776.859
825.7201, 2745.775
826.2022, 2714.190
826.6843, 2682.148
827.1664, 2650.217
827.6486, 2618.543
828.1307, 2586.678
828.6128, 2557.250
829.0949, 2531.113
829.5770, 2505.490
830.0591, 2478.246
830.5413, 2449.714
831.0234, 2422.950
831.5055, 2397.912
831.9876, 2372.916
832.4697, 2345.850
832.9518, 2318.546
833.4340, 2291.953
833.9161, 2266.398
834.3982, 2243.368
834.8803, 2225.882
835.3624, 2208.610
835.8445, 2188.612
836.3267, 2166.206
836.8088, 2147.257
837.2909, 2132.710
837.7730, 2117.745
838.2551, 2098.506
838.7372, 2077.290
839.2194, 2060.324
839.7015, 2047.019
840.1836, 2033.935
840.6657, 2018.812
841.1478, 2003.520
841.6299, 1989.068
842.1121, 1975.486
842.5942, 1963.093
843.0763, 1952.387
843.5584, 1941.719
844.0405, 1930.406
844.5226, 1918.770
845.0048, 1908.317
845.4869, 1898.955
845.9690, 1889.440
846.4511, 1878.973
846.9332, 1868.318
847.4153, 1858.539
847.8975, 1849.322
848.3796, 1839.758
848.8617, 1828.590
849.3438, 1818.151
849.8259, 1809.314
850.3080, 1801.669
850.7902, 1794.288
851.2723, 1787.242
851.7544, 1780.504
852.2365, 1774.143
852.7186, 1767.989
853.2007, 1762.036
853.6829, 1756.039
854.1650, 1749.234
854.6471, 1739.758
855.1292, 1731.303
855.6113, 1726.641
856.0934, 1723.945
856.5756, 1719.792
857.0577, 1713.917
857.5398, 1706.549
858.0219, 1696.966
858.5040, 1686.851
858.9861, 1679.176
859.4683, 1673.552
859.9504, 1668.295
860.4325, 1663.385
860.9146, 1657.636
861.3967, 1648.319
861.8788, 1638.329
862.3610, 1631.299
862.8431, 1630.612
863.3252, 1628.564
863.8073, 1624.634
864.2894, 1619.096
864.7715, 1611.427
865.2537, 1601.405
865.7358, 1594.867
866.2179, 1592.644
866.7000, 1591.008
867.1821, 1585.206
867.6642, 1577.995
868.1464, 1573.802
868.6285, 1573.695
869.1106, 1573.485
869.5927, 1571.670
870.0748, 1569.064
870.5569, 1566.076
871.0391, 1562.547
871.5212, 1559.731
872.0033, 1557.796
872.4854, 1555.716
872.9675, 1551.806
873.4496, 1547.330
873.9318, 1546.453
874.4139, 1548.870
874.8960, 1549.903
875.3781, 1545.116
875.8602, 1539.526
876.3423, 1536.391
876.8245, 1535.929
877.3066, 1534.779
877.7887, 1532.707
878.2708, 1530.681
878.7529, 1529.345
879.2350, 1528.345
879.7172, 1526.129
880.1993, 1522.935
880.6814, 1519.926
881.1635, 1517.215
881.6456, 1515.410
882.1277, 1515.717
882.6099, 1517.326
883.0920, 1517.831
883.5741, 1515.678
884.0562, 1513.783
884.5383, 1512.459
885.0204, 1511.651
885.5026, 1511.654
885.9847, 1512.329
886.4668, 1511.724
886.9489, 1508.361
887.4310, 1505.583
887.9131, 1507.914
888.3953, 1513.036
888.8774, 1517.539
889.3595, 1521.343
889.8416, 1523.067
890.3237, 1520.719
890.8058, 1517.863
891.2880, 1518.349
891.7701, 1522.433
892.2522, 1527.109
892.7343, 1532.372
893.2164, 1536.802
893.6985, 1537.594
894.1807, 1537.147
894.6628, 1539.043
895.1449, 1544.013
895.6270, 1549.912
896.1091, 1557.615
896.5912, 1564.592
897.0734, 1569.067
897.5555, 1570.677
898.0376, 1574.274
898.5197, 1580.174
899.0018, 1586.124
899.4839, 1590.345
899.9661, 1593.600
900.4482, 1597.237
900.9303, 1601.258
901.4124, 1605.219
901.8945, 1608.730
902.3766, 1612.330
902.8588, 1616.834
903.3409, 1621.739
903.8230, 1625.019
904.3051, 1626.614
904.7872, 1626.684
905.2693, 1624.884
905.7515, 1622.031
906.2336, 1619.757
906.7157, 1617.825
907.1978, 1615.585
907.6799, 1612.879
908.1620, 1609.673
908.6442, 1605.616
909.1263, 1601.149
909.6084, 1597.081
910.0905, 1593.935
910.5726, 1589.804
911.0547, 1584.287
911.5369, 1578.200
912.0190, 1572.067
912.5011, 1566.250
912.9832, 1562.127
913.4653, 1560.232
913.9474, 1558.007
914.4296, 1552.989
914.9117, 1547.490
915.3938, 1543.591
915.8759, 1541.828
916.3580, 1539.736
916.8401, 1537.164
917.3223, 1534.566
917.8044, 1532.503
918.2865, 1530.676
918.7686, 1527.427
919.2507, 1522.983
919.7328, 1519.438
920.2150, 1519.213
920.6971, 1519.328
921.1792, 1517.553
921.6613, 1514.203
922.1434, 1512.287
922.6255, 1512.783
923.1077, 1512.552
923.5898, 1510.497
924.0719, 1507.373
924.5540, 1504.283
925.0361, 1501.499
925.5182, 1500.411
926.0004, 1503.066
926.4825, 1504.920
926.9646, 1501.294
927.4467, 1495.648
927.9288, 1493.616
928.4109, 1499.559
928.8931, 1500.261
929.3752, 1493.553
929.8573, 1484.701
930.3394, 1479.041
930.8215, 1476.224
931.3036, 1475.250
931.7858, 1476.141
932.2679, 1476.962
932.7500, 1476.368
933.2321, 1475.215
933.7142, 1474.250
934.1964, 1473.672
934.6785, 1472.066
935.1606, 1468.725
935.6427, 1466.186
936.1248, 1466.001
936.6069, 1467.593
937.0891, 1469.242
937.5712, 1470.936
938.0533, 1472.537
938.5354, 1474.012
939.0175, 1475.293
939.4996, 1475.744
939.9818, 1475.956
940.4639, 1477.688
940.9460, 1481.618
941.4281, 1485.220
941.9102, 1488.073
942.3923, 1490.273
942.8745, 1490.850
943.3566, 1490.918
943.8387, 1494.087
944.3208, 1501.958
944.8029, 1510.160
945.2850, 1516.821
945.7672, 1522.350
946.2493, 1526.834
946.7314, 1529.613
947.2135, 1534.387
947.6956, 1541.370
948.1777, 1549.634
948.6599, 1558.600
949.1420, 1568.134
949.6241, 1577.668
950.1062, 1587.275
950.5883, 1597.636
951.0704, 1609.248
951.5526, 1621.600
952.0347, 1632.914
952.5168, 1644.549
952.9989, 1662.588
953.4810, 1688.597
953.9631, 1713.352
954.4453, 1733.468
954.9274, 1752.350
955.4095, 1774.320
955.8916, 1799.506
956.3737, 1828.818
956.8558, 1864.065
957.3380, 1900.686
957.8201, 1934.859
958.3022, 1971.754
958.7843, 2016.304
959.2664, 2069.640
959.7485, 2125.265
960.2307, 2182.503
960.7128, 2243.938
961.1949, 2312.169
961.6770, 2385.951
962.1591, 2462.030
962.6412, 2541.007
963.1234, 2625.457
963.6055, 2717.609
964.0876, 2815.302
964.5697, 2918.992
965.0518, 3027.375
965.5339, 3138.956
966.0161, 3254.157
966.4982, 3372.471
966.9803, 3493.297
967.4624, 3617.734
967.9445, 3749.915
968.4266, 3884.517
968.9088, 4010.025
969.3909, 4129.091
969.8730, 4231.824
970.3551, 4320.392
970.8372, 4391.495
971.3193, 4446.871
971.8015, 4484.888
972.2836, 4493.567
972.7657, 4471.837
973.2478, 4422.241
973.7299, 4342.279
974.2120, 4238.075
974.6942, 4111.209
975.1763, 3961.538
975.6584, 3803.104
976.1405, 3630.949
976.6226, 3459.382
977.1047, 3292.489
977.5869, 3130.072
978.0690, 2973.793
978.5511, 2825.731
979.0332, 2689.078
979.5153, 2564.174
979.9974, 2450.298
980.4796, 2348.333
980.9617, 2256.782
981.4438, 2172.859
981.9259, 2094.754
982.4080, 2026.664
982.8901, 1969.084
983.3723, 1918.840
983.8544, 1873.729
984.3365, 1833.365
984.8186, 1797.071
985.3007, 1764.672
985.7828, 1736.453
986.2650, 1714.522
986.7471, 1694.445
987.2292, 1673.450
987.7113, 1652.408
988.1934, 1636.545
988.6755, 1626.032
989.1577, 1616.354
989.6398, 1606.229
990.1219, 1595.568
990.6040, 1583.326
991.0861, 1570.752
991.5682, 1559.986
992.0504, 1552.770
992.5325, 1545.719
993.0146, 1538.492
993.4967, 1531.398
993.9788, 1524.609
994.4609, 1518.099
994.9431, 1511.290
995.4252, 1504.145
995.9073, 1498.033
996.3894, 1494.882
996.8715, 1492.293
997.3536, 1488.185
997.8358, 1482.683
998.3179, 1478.301
998.8000, 1475.604
999.2821, 1472.652
999.7642, 1468.781
1000.246, 1464.412
1000.728, 1460.100
1001.211, 1456.072
1001.693, 1453.247
1002.175, 1452.706
1002.657, 1451.568
1003.139, 1447.308
1003.621, 1442.825
1004.103, 1440.975
1004.585, 1442.424
1005.068, 1442.696
1005.550, 1441.747
1006.032, 1439.926
1006.514, 1436.629
1006.996, 1433.126
1007.478, 1430.893
1007.960, 1429.873
1008.442, 1429.436
1008.924, 1430.649
1009.407, 1430.584
1009.889, 1427.804
1010.371, 1424.198
1010.853, 1424.833
1011.335, 1428.752
1011.817, 1429.116
1012.299, 1423.619
1012.781, 1417.700
1013.263, 1415.703
1013.746, 1415.116
1014.228, 1413.277
1014.710, 1409.453
1015.192, 1407.760
1015.674, 1408.786
1016.156, 1410.112
1016.638, 1409.933
1017.120, 1409.180
1017.603, 1410.483
1018.085, 1413.095
1018.567, 1414.391
1019.049, 1411.868
1019.531, 1409.358
1020.013, 1407.733
1020.495, 1406.828
1020.977, 1406.652
1021.459, 1407.209
1021.942, 1407.352
1022.424, 1406.938
1022.906, 1406.000
1023.388, 1404.147
1023.870, 1402.088
1024.352, 1400.317
1024.834, 1398.883
1025.316, 1398.917
1025.799, 1401.337
1026.281, 1403.478
1026.763, 1404.383
1027.245, 1404.262
1027.727, 1402.923
1028.209, 1400.973
1028.691, 1400.478
1029.173, 1403.326
1029.656, 1406.065
1030.138, 1407.415
1030.620, 1407.570
1031.102, 1406.617
1031.584, 1404.217
1032.066, 1402.376
1032.548, 1401.095
1033.030, 1400.467
1033.512, 1400.432
1033.995, 1401.176
1034.477, 1403.717
1034.959, 1407.567
1035.441, 1409.676
1035.923, 1408.121
1036.405, 1406.556
1036.887, 1405.554
1037.369, 1405.095
1037.851, 1405.391
1038.334, 1406.224
1038.816, 1406.926
1039.298, 1407.574
1039.780, 1407.061
1040.262, 1402.926
1040.744, 1398.760
1041.226, 1397.952
1041.708, 1400.815
1042.191, 1400.947
1042.673, 1397.992
1043.155, 1395.441
1043.637, 1395.362
1044.119, 1396.590
1044.601, 1397.657
1045.083, 1398.745
1045.565, 1400.230
1046.047, 1403.230
1046.530, 1405.107
1047.012, 1405.305
1047.494, 1404.818
1047.976, 1404.655
1048.458, 1404.763
1048.940, 1404.798
1049.422, 1404.742
1049.904, 1405.090
1050.386, 1407.443
1050.869, 1409.089
1051.351, 1407.301
1051.833, 1403.264
1052.315, 1402.219
1052.797, 1404.687
1053.279, 1405.953
1053.761, 1404.382
1054.243, 1402.123
1054.726, 1401.302
1055.208, 1401.782
1055.690, 1403.674
1056.172, 1407.883
1056.654, 1410.572
1057.136, 1411.151
1057.618, 1410.803
1058.100, 1409.675
1058.583, 1408.288
1059.065, 1409.125
1059.547, 1411.730
1060.029, 1413.991
1060.511, 1414.937
1060.993, 1415.134
1061.475, 1414.102
1061.957, 1412.809
1062.439, 1412.541
1062.922, 1413.352
1063.404, 1415.090
1063.886, 1417.905
1064.368, 1420.009
1064.850, 1419.026
1065.332, 1417.119
1065.814, 1416.284
1066.296, 1416.643
1066.778, 1417.605
1067.261, 1419.111
1067.743, 1421.132
1068.225, 1423.855
1068.707, 1426.726
1069.189, 1428.740
1069.671, 1430.048
1070.153, 1430.851
1070.635, 1430.941
1071.118, 1431.469
1071.600, 1433.922
1072.082, 1435.930
1072.564, 1435.860
1073.046, 1433.968
1073.528, 1433.282
1074.010, 1433.769
1074.492, 1434.597
1074.974, 1435.544
1075.457, 1436.454
1075.939, 1436.807
1076.421, 1437.186
1076.903, 1438.805
1077.385, 1442.737
1077.867, 1444.320
1078.349, 1442.805
1078.831, 1441.182
1079.313, 1442.655
1079.796, 1445.518
1080.278, 1447.687
1080.760, 1448.932
1081.242, 1448.673
1081.724, 1445.586
1082.206, 1442.240
1082.688, 1438.616
1083.170, 1435.711
1083.652, 1436.396
1084.135, 1439.525
1084.617, 1440.114
1085.099, 1436.738
1085.581, 1434.718
1086.063, 1440.885
1086.545, 1445.849
1087.027, 1441.878
1087.509, 1444.617
1087.992, 1446.028
1088.474, 1439.565
1088.956, 1445.036
1089.438, 1437.607
1089.920, 1427.386
1090.402, 1423.825
1090.884, 1423.820
1091.366, 1423.156
1091.849, 1420.777
1092.331, 1419.124
1092.813, 1418.388
1093.295, 1417.732
1093.777, 1416.474
1094.259, 1414.900
1094.741, 1413.364
1095.223, 1411.934
1095.705, 1410.835
1096.188, 1410.427
1096.670, 1409.932
1097.152, 1409.007
1097.634, 1408.182
1098.116, 1408.401
1098.598, 1409.356
1099.080, 1409.761
1099.562, 1409.492
1100.044, 1408.413
1100.527, 1405.702
1101.009, 1402.898
1101.491, 1400.589
1101.973, 1398.910
1102.455, 1398.917
1102.937, 1400.661
1103.419, 1400.501
1103.901, 1397.075
1104.384, 1393.467
1104.866, 1392.862
1105.348, 1393.493
1105.830, 1393.757
1106.312, 1393.500
1106.794, 1392.296
1107.276, 1389.708
1107.758, 1387.946
1108.240, 1388.654
1108.723, 1389.919
1109.205, 1387.877
1109.687, 1384.274
1110.169, 1382.559
1110.651, 1385.470
1111.133, 1386.878
1111.615, 1385.694
1112.097, 1384.155
1112.579, 1383.695
1113.062, 1384.298
1113.544, 1386.726
1114.026, 1390.440
1114.508, 1392.777
1114.990, 1391.673
1115.472, 1389.902
1115.954, 1387.969
1116.436, 1386.194
1116.919, 1385.038
1117.401, 1384.477
1117.883, 1384.225
1118.365, 1384.273
1118.847, 1384.086
1119.329, 1382.957
1119.811, 1381.784
1120.293, 1381.318
1120.776, 1381.297
1121.258, 1380.532
1121.740, 1378.811
1122.222, 1378.691
1122.704, 1381.189
1123.186, 1383.179
1123.668, 1380.579
1124.150, 1376.318
1124.632, 1373.400
1125.115, 1372.306
1125.597, 1371.464
1126.079, 1370.850
1126.561, 1370.570
1127.043, 1371.024
1127.525, 1371.292
1128.007, 1369.342
1128.489, 1366.318
1128.971, 1364.309
1129.454, 1364.625
1129.936, 1363.766
1130.418, 1360.857
1130.900, 1357.912
1131.382, 1356.141
1131.864, 1355.261
1132.346, 1354.466
1132.828, 1353.743
1133.311, 1353.060
1133.793, 1351.738
1134.275, 1351.341
1134.757, 1352.728
1135.239, 1354.488
1135.721, 1355.211
1136.203, 1355.021
1136.685, 1355.495
1137.167, 1356.529
1137.650, 1356.730
1138.132, 1354.395
1138.614, 1351.970
1139.096, 1350.640
1139.578, 1349.995
1140.060, 1349.560
1140.542, 1349.360
1141.024, 1348.670
1141.506, 1347.387
1141.989, 1346.595
1142.471, 1348.968
1142.953, 1350.606
1143.435, 1346.947
1143.917, 1339.633
1144.399, 1337.276
1144.881, 1340.797
1145.363, 1342.994
1145.846, 1341.989
1146.328, 1340.414
1146.810, 1341.873
1147.292, 1343.806
1147.774, 1342.852
1148.256, 1338.302
1148.738, 1336.833
1149.220, 1339.670
1149.703, 1341.261
1150.185, 1339.009
1150.667, 1335.862
1151.149, 1336.483
1151.631, 1339.091
1152.113, 1340.826
1152.595, 1340.746
1153.077, 1341.091
1153.559, 1342.338
1154.042, 1343.293
1154.524, 1343.222
1155.006, 1342.546
1155.488, 1342.560
1155.970, 1342.687
1156.452, 1341.406
1156.934, 1336.089
1157.416, 1333.518
1157.898, 1335.820
1158.381, 1338.627
1158.863, 1338.209
1159.345, 1335.591
1159.827, 1335.261
1160.309, 1336.578
1160.791, 1336.960
1161.273, 1333.536
1161.755, 1331.266
1162.238, 1331.878
1162.720, 1333.498
1163.202, 1334.301
1163.684, 1334.356
1164.166, 1334.457
1164.648, 1334.510
1165.130, 1333.376
1165.612, 1328.893
1166.094, 1324.817
1166.577, 1323.161
1167.059, 1320.495
1167.541, 1318.952
1168.023, 1318.427
1168.505, 1317.426
1168.987, 1318.241
1169.469, 1319.063
1169.951, 1319.215
1170.433, 1318.420
1170.916, 1315.873
1171.398, 1312.399
1171.880, 1309.862
1172.362, 1308.240
1172.844, 1307.273
1173.326, 1307.008
1173.808, 1306.670
1174.290, 1305.340
1174.773, 1303.898
1175.255, 1303.082
1175.737, 1302.776
1176.219, 1302.416
1176.701, 1301.994
1177.183, 1301.716
1177.665, 1301.708
1178.147, 1301.634
1178.630, 1301.783
1179.112, 1301.304
1179.594, 1298.296
1180.076, 1292.774
1180.558, 1292.652
1181.040, 1298.713
1181.522, 1302.449
1182.004, 1299.816
1182.486, 1295.264
1182.969, 1292.716
1183.451, 1291.510
1183.933, 1290.924
1184.415, 1290.884
1184.897, 1291.346
1185.379, 1292.398
1185.861, 1293.325
1186.343, 1293.953
1186.825, 1293.986
1187.308, 1292.429
1187.790, 1290.275
1188.272, 1289.353
1188.754, 1291.229
1189.236, 1289.627
1189.718, 1283.690
1190.200, 1278.831
1190.682, 1279.851
1191.165, 1282.867
1191.647, 1283.093
1192.129, 1281.462
1192.611, 1279.742
1193.093, 1277.518
1193.575, 1277.172
1194.057, 1279.156
1194.539, 1281.334
1195.021, 1282.237
1195.504, 1282.197
1195.986, 1280.839
1196.468, 1278.923
1196.950, 1278.854
1197.432, 1283.167
1197.914, 1284.004
1198.396, 1279.989
1198.878, 1275.695
1199.360, 1275.482
1199.843, 1277.709
1200.325, 1281.375
1200.807, 1285.580
1201.289, 1286.757
1201.771, 1282.227
1202.253, 1279.774
1202.735, 1280.807
1203.217, 1282.364
1203.700, 1280.710
1204.182, 1277.789
1204.664, 1275.880
1205.146, 1275.257
1205.628, 1276.673
1206.110, 1281.912
1206.592, 1285.083
1207.074, 1284.947
1207.557, 1283.348
1208.039, 1281.603
1208.521, 1280.423
1209.003, 1281.645
1209.485, 1285.123
1209.967, 1286.202
1210.449, 1282.950
1210.931, 1280.824
1211.413, 1281.217
1211.896, 1282.451
1212.378, 1282.497
1212.860, 1281.815
1213.342, 1281.029
1213.824, 1280.224
1214.306, 1279.253
1214.788, 1278.213
1215.270, 1276.704
1215.752, 1274.344
1216.235, 1272.225
1216.717, 1272.449
1217.199, 1273.646
1217.681, 1273.773
1218.163, 1272.475
1218.645, 1271.271
1219.127, 1270.431
1219.609, 1269.210
1220.092, 1267.141
1220.574, 1265.074
1221.056, 1264.048
1221.538, 1263.935
1222.020, 1264.858
1222.502, 1267.047
1222.984, 1267.971
1223.466, 1266.999
1223.948, 1266.510
1224.431, 1267.478
1224.913, 1269.082
1225.395, 1271.346
1225.877, 1272.879
1226.359, 1271.101
1226.841, 1264.345
1227.323, 1261.382
1227.805, 1263.070
1228.287, 1265.402
1228.770, 1267.192
1229.252, 1267.908
1229.734, 1265.445
1230.216, 1262.129
1230.698, 1261.658
1231.180, 1265.648
1231.662, 1265.987
1232.144, 1261.921
1232.627, 1258.719
1233.109, 1259.472
1233.591, 1261.101
1234.073, 1258.676
1234.555, 1255.479
1235.037, 1257.166
1235.519, 1266.105
1236.001, 1266.519
1236.484, 1257.307
1236.966, 1249.679
1237.448, 1250.710
1237.930, 1253.600
1238.412, 1250.281
1238.894, 1245.189
1239.376, 1245.022
1239.858, 1250.931
1240.340, 1253.934
1240.823, 1253.869
1241.305, 1252.891
1241.787, 1251.759
1242.269, 1250.637
1242.751, 1249.073
1243.233, 1247.975
1243.715, 1248.822
1244.197, 1251.969
1244.679, 1253.090
1245.162, 1252.213
1245.644, 1250.100
1246.126, 1245.654
1246.608, 1242.143
1247.090, 1242.657
1247.572, 1244.780
1248.054, 1245.846
1248.536, 1245.900
1249.019, 1244.439
1249.501, 1241.656
1249.983, 1239.384
1250.465, 1238.824
1250.947, 1238.828
1251.429, 1238.803
1251.911, 1239.086
1252.393, 1240.459
1252.875, 1242.732
1253.358, 1241.818
1253.840, 1238.245
1254.322, 1235.688
1254.804, 1237.246
1255.286, 1238.548
1255.768, 1237.608
1256.250, 1236.282
1256.732, 1236.391
1257.214, 1237.548
1257.697, 1237.119
1258.179, 1235.433
1258.661, 1234.008
1259.143, 1234.194
1259.625, 1233.721
1260.107, 1231.593
1260.589, 1229.689
1261.071, 1229.710
1261.554, 1231.207
1262.036, 1233.219
1262.518, 1235.446
1263.000, 1237.004
1263.482, 1238.013
1263.964, 1237.243
1264.446, 1233.874
1264.928, 1230.464
1265.411, 1229.441
1265.893, 1229.711
1266.375, 1229.281
1266.857, 1228.361
1267.339, 1227.555
1267.821, 1226.577
1268.303, 1226.935
1268.785, 1229.191
1269.267, 1230.880
1269.750, 1229.076
1270.232, 1226.339
1270.714, 1226.247
1271.196, 1227.783
1271.678, 1228.575
1272.160, 1228.611
1272.642, 1226.764
1273.124, 1222.652
1273.606, 1219.631
1274.089, 1220.859
1274.571, 1223.505
1275.053, 1226.399
1275.535, 1228.312
1276.017, 1226.853
1276.499, 1221.044
1276.981, 1218.975
1277.463, 1220.760
1277.946, 1222.670
1278.428, 1222.245
1278.910, 1221.251
1279.392, 1221.181
1279.874, 1220.863
1280.356, 1218.252
1280.838, 1213.514
1281.320, 1212.529
1281.802, 1214.992
1282.285, 1217.436
1282.767, 1218.605
1283.249, 1218.538
1283.731, 1216.041
1284.213, 1213.615
1284.695, 1213.984
1285.177, 1216.336
1285.659, 1216.781
1286.141, 1215.619
1286.624, 1214.257
1287.106, 1212.289
1287.588, 1211.817
1288.070, 1213.468
1288.552, 1215.678
1289.034, 1217.960
1289.516, 1219.494
1289.998, 1217.046
1290.481, 1212.422
1290.963, 1210.274
1291.445, 1214.763
1291.927, 1216.648
1292.409, 1215.435
1292.891, 1213.439
1293.373, 1212.151
1293.855, 1211.168
1294.338, 1209.643
1294.820, 1209.405
1295.302, 1207.883
1295.784, 1209.291
1296.266, 1210.410
1296.748, 1211.260
1297.230, 1211.411
1297.712, 1210.017
1298.194, 1208.478
1298.677, 1207.767
1299.159, 1207.616
1299.641, 1207.648
1300.123, 1207.855
1300.605, 1207.810
1301.087, 1207.492
1301.569, 1206.747
1302.051, 1205.322
1302.533, 1203.463
1303.016, 1201.180
##END=



