##NAMES=Arsenuranospathite
##RRUFFID=R100008
##IDEAL CHEMISTRY=Al(U^6+^O_2_)_2_(As^5+^O_4_)_2_F&#183;20H_2_O
##LOCALITY=Krunkelbach valley, Menzenschwand, Schwarzwald, Germany
##OWNER=RRUFF
##SOURCE=William Pinch
##DESCRIPTION=Blocky aggregates of yellowish-brown platy crystals, cell parameters are consistent with a partially dehydrated sample
##STATUS=The identification of this mineral has been confirmed by single-crystal X-ray diffraction.
##URL=rruff.info/R100008
89.60352, 87.02537
90.08563, 86.87233
90.56775, 86.82368
91.04987, 86.83389
91.53198, 86.99241
92.01410, 87.50265
92.49622, 88.34901
92.97833, 89.21447
93.46045, 89.86934
93.94257, 90.32192
94.42468, 90.57897
94.90680, 90.48003
95.38892, 90.18719
95.87103, 90.25703
96.35315, 90.74686
96.83527, 91.36938
97.31738, 91.68796
97.79950, 91.69093
98.28162, 91.83268
98.76373, 92.49873
99.24585, 93.71824
99.72797, 94.34766
100.2101, 94.15366
100.6922, 93.56064
101.1743, 93.61250
101.6564, 94.49776
102.1385, 95.51645
102.6207, 96.26208
103.1028, 96.62136
103.5849, 97.04115
104.0670, 97.56819
104.5491, 98.19089
105.0313, 98.83227
105.5134, 99.57582
105.9955, 100.2577
106.4776, 100.7497
106.9597, 100.8906
107.4418, 101.0647
107.9240, 101.3610
108.4061, 101.8104
108.8882, 102.1405
109.3703, 102.2171
109.8524, 102.2252
110.3345, 102.3584
110.8167, 102.5981
111.2988, 102.9829
111.7809, 103.5527
112.2630, 104.3805
112.7451, 105.1817
113.2272, 105.9160
113.7094, 106.5978
114.1915, 107.2625
114.6736, 107.6259
115.1557, 108.1757
115.6378, 109.1864
116.1199, 110.9864
116.6021, 112.7809
117.0842, 114.1754
117.5663, 115.3297
118.0484, 116.7234
118.5305, 118.2076
119.0126, 120.1873
119.4948, 122.9622
119.9769, 126.4732
120.4590, 130.9686
120.9411, 136.3950
121.4232, 142.8173
121.9053, 150.6137
122.3875, 160.2712
122.8696, 171.4044
123.3517, 183.4783
123.8338, 195.7774
124.3159, 209.2434
124.7980, 224.5229
125.2802, 241.6647
125.7623, 260.8973
126.2444, 282.2067
126.7265, 305.7327
127.2086, 331.8467
127.6907, 359.8040
128.1729, 390.5931
128.6550, 425.8459
129.1371, 465.6283
129.6192, 510.5063
130.1013, 561.6487
130.5834, 618.6866
131.0656, 682.4046
131.5477, 753.8074
132.0298, 832.4195
132.5119, 916.3751
132.9940, 1007.118
133.4761, 1101.102
133.9583, 1196.138
134.4404, 1292.408
134.9225, 1388.108
135.4046, 1482.654
135.8867, 1576.612
136.3688, 1662.762
136.8510, 1739.735
137.3331, 1807.800
137.8152, 1872.029
138.2973, 1930.900
138.7794, 1990.645
139.2615, 2056.993
139.7437, 2129.519
140.2258, 2207.567
140.7079, 2290.838
141.1900, 2379.144
141.6721, 2475.680
142.1542, 2580.235
142.6364, 2692.609
143.1185, 2813.287
143.6006, 2943.347
144.0827, 3077.691
144.5648, 3215.353
145.0469, 3359.810
145.5291, 3497.108
146.0112, 3628.147
146.4933, 3753.176
146.9754, 3875.230
147.4575, 3994.737
147.9396, 4109.085
148.4218, 4218.750
148.9039, 4322.964
149.3860, 4422.483
149.8681, 4516.643
150.3502, 4604.893
150.8323, 4686.473
151.3145, 4758.141
151.7966, 4825.025
152.2787, 4889.065
152.7608, 4946.599
153.2429, 5006.330
153.7250, 5069.491
154.2072, 5135.330
154.6893, 5201.750
155.1714, 5245.819
155.6535, 5263.200
156.1356, 5287.163
156.6177, 5327.749
157.0999, 5370.035
157.5820, 5409.963
158.0641, 5448.961
158.5462, 5492.971
159.0283, 5544.539
159.5104, 5600.890
159.9926, 5660.197
160.4747, 5725.577
160.9568, 5790.344
161.4389, 5854.013
161.9210, 5915.451
162.4031, 5972.701
162.8853, 6022.640
163.3674, 6068.409
163.8495, 6112.873
164.3316, 6159.354
164.8137, 6202.690
165.2958, 6240.025
165.7780, 6271.505
166.2601, 6299.296
166.7422, 6324.359
167.2243, 6346.840
167.7064, 6366.622
168.1885, 6383.521
168.6707, 6398.074
169.1528, 6410.123
169.6349, 6419.617
170.1170, 6428.533
170.5991, 6437.806
171.0812, 6447.629
171.5634, 6458.162
172.0455, 6470.459
172.5276, 6483.125
173.0097, 6494.058
173.4918, 6502.749
173.9739, 6512.716
174.4561, 6528.122
174.9382, 6547.404
175.4203, 6566.886
175.9024, 6585.868
176.3845, 6603.384
176.8666, 6617.086
177.3488, 6625.896
177.8309, 6634.361
178.3130, 6648.931
178.7951, 6668.013
179.2772, 6685.117
179.7593, 6693.921
180.2415, 6698.642
180.7236, 6708.110
181.2057, 6724.360
181.6878, 6743.214
182.1699, 6761.099
182.6520, 6777.407
183.1342, 6790.350
183.6163, 6796.247
184.0984, 6797.446
184.5805, 6801.144
185.0626, 6809.569
185.5447, 6818.907
186.0269, 6822.084
186.5090, 6819.251
186.9911, 6815.606
187.4732, 6814.907
187.9553, 6816.578
188.4374, 6818.186
188.9196, 6819.689
189.4017, 6820.531
189.8838, 6819.286
190.3659, 6815.901
190.8480, 6811.735
191.3301, 6808.436
191.8123, 6805.742
192.2944, 6800.667
192.7765, 6792.056
193.2586, 6781.146
193.7407, 6771.256
194.2228, 6762.317
194.7050, 6755.161
195.1871, 6751.525
195.6692, 6751.382
196.1513, 6749.893
196.6334, 6745.698
197.1155, 6739.500
197.5977, 6733.768
198.0798, 6728.471
198.5619, 6723.674
199.0440, 6718.995
199.5261, 6714.222
200.0082, 6711.894
200.4904, 6713.695
200.9725, 6718.557
201.4546, 6719.597
201.9367, 6716.287
202.4188, 6710.458
202.9009, 6703.379
203.3831, 6694.668
203.8652, 6686.739
204.3473, 6680.077
204.8294, 6674.646
205.3115, 6670.468
205.7936, 6667.897
206.2758, 6665.861
206.7579, 6663.530
207.2400, 6661.213
207.7221, 6657.522
208.2042, 6651.784
208.6863, 6644.077
209.1685, 6637.094
209.6506, 6630.818
210.1327, 6625.394
210.6148, 6620.920
211.0969, 6617.430
211.5790, 6615.226
212.0612, 6614.781
212.5433, 6616.159
213.0254, 6616.720
213.5075, 6615.945
213.9896, 6614.952
214.4717, 6615.628
214.9538, 6619.383
215.4360, 6620.624
215.9181, 6616.644
216.4002, 6606.836
216.8823, 6601.556
217.3644, 6602.938
217.8465, 6606.335
218.3287, 6605.460
218.8108, 6597.756
219.2929, 6591.618
219.7750, 6589.624
220.2571, 6592.353
220.7392, 6594.274
221.2214, 6595.741
221.7035, 6596.145
222.1856, 6594.435
222.6677, 6589.539
223.1498, 6584.894
223.6319, 6581.649
224.1141, 6580.001
224.5962, 6577.723
225.0783, 6574.163
225.5604, 6570.542
226.0425, 6568.349
226.5246, 6567.500
227.0068, 6568.312
227.4889, 6571.500
227.9710, 6577.806
228.4531, 6581.700
228.9352, 6583.067
229.4173, 6582.089
229.8995, 6578.563
230.3816, 6570.345
230.8637, 6563.395
231.3458, 6559.970
231.8279, 6560.916
232.3100, 6559.433
232.7922, 6554.112
233.2743, 6547.571
233.7564, 6542.866
234.2385, 6539.442
234.7206, 6539.084
235.2027, 6543.423
235.6849, 6553.787
236.1670, 6560.323
236.6491, 6562.129
237.1312, 6560.912
237.6133, 6558.466
238.0954, 6553.298
238.5776, 6549.492
239.0597, 6548.443
239.5418, 6550.662
240.0239, 6552.042
240.5060, 6552.484
240.9881, 6552.177
241.4703, 6551.284
241.9524, 6549.470
242.4345, 6547.698
242.9166, 6546.034
243.3987, 6544.354
243.8808, 6544.145
244.3630, 6546.771
244.8451, 6549.758
245.3272, 6549.577
245.8093, 6542.761
246.2914, 6539.313
246.7735, 6542.953
247.2557, 6554.843
247.7378, 6561.552
248.2199, 6560.165
248.7020, 6556.389
249.1841, 6556.828
249.6662, 6564.171
250.1484, 6570.166
250.6305, 6572.569
251.1126, 6571.055
251.5947, 6569.923
252.0768, 6568.502
252.5589, 6567.997
253.0411, 6570.315
253.5232, 6577.972
254.0053, 6582.749
254.4874, 6582.177
254.9695, 6576.153
255.4516, 6571.753
255.9338, 6569.344
256.4159, 6568.283
256.8980, 6568.203
257.3801, 6569.732
257.8622, 6571.248
258.3444, 6573.234
258.8265, 6575.661
259.3086, 6574.292
259.7907, 6567.422
260.2728, 6559.517
260.7549, 6554.241
261.2371, 6551.389
261.7192, 6551.938
262.2013, 6557.425
262.6834, 6567.114
263.1655, 6572.429
263.6476, 6570.940
264.1298, 6569.070
264.6119, 6572.801
265.0940, 6584.629
265.5761, 6593.095
266.0582, 6595.532
266.5403, 6593.011
267.0225, 6592.213
267.5046, 6594.055
267.9867, 6595.527
268.4688, 6593.745
268.9509, 6587.363
269.4330, 6583.415
269.9152, 6583.307
270.3973, 6586.095
270.8794, 6588.078
271.3615, 6589.078
271.8436, 6589.779
272.3257, 6590.968
272.8079, 6593.019
273.2900, 6593.200
273.7721, 6590.592
274.2542, 6586.497
274.7363, 6584.651
275.2184, 6585.425
275.7006, 6587.373
276.1827, 6590.346
276.6648, 6594.673
277.1469, 6596.748
277.6290, 6595.719
278.1111, 6593.054
278.5933, 6591.493
279.0754, 6590.845
279.5575, 6592.214
280.0396, 6598.134
280.5217, 6608.559
281.0038, 6612.484
281.4860, 6607.623
281.9681, 6599.072
282.4502, 6596.343
282.9323, 6599.760
283.4144, 6603.272
283.8965, 6603.095
284.3787, 6599.700
284.8608, 6599.055
285.3429, 6601.670
285.8250, 6605.962
286.3071, 6609.703
286.7892, 6612.944
287.2714, 6616.705
287.7535, 6622.817
288.2356, 6630.378
288.7177, 6633.621
289.1998, 6632.330
289.6819, 6628.514
290.1641, 6622.607
290.6462, 6615.269
291.1283, 6611.690
291.6104, 6616.196
292.0925, 6625.628
292.5746, 6630.520
293.0568, 6630.685
293.5389, 6629.011
294.0210, 6626.813
294.5031, 6624.805
294.9852, 6626.135
295.4673, 6633.646
295.9495, 6644.004
296.4316, 6650.130
296.9137, 6652.086
297.3958, 6653.682
297.8779, 6658.576
298.3600, 6665.518
298.8422, 6671.540
299.3243, 6675.563
299.8064, 6678.583
300.2885, 6681.856
300.7706, 6685.357
301.2527, 6689.067
301.7349, 6693.507
302.2170, 6698.036
302.6991, 6701.110
303.1812, 6701.494
303.6633, 6702.155
304.1454, 6707.021
304.6276, 6715.108
305.1097, 6723.000
305.5918, 6728.450
306.0739, 6732.586
306.5560, 6736.743
307.0381, 6741.387
307.5203, 6745.414
308.0024, 6747.107
308.4845, 6747.432
308.9666, 6748.647
309.4487, 6752.836
309.9308, 6757.901
310.4130, 6761.899
310.8951, 6764.455
311.3772, 6767.088
311.8593, 6770.102
312.3414, 6773.923
312.8235, 6779.229
313.3057, 6788.540
313.7878, 6797.774
314.2699, 6803.553
314.7520, 6805.435
315.2341, 6808.805
315.7162, 6817.500
316.1984, 6828.567
316.6805, 6838.594
317.1626, 6847.406
317.6447, 6854.197
318.1268, 6858.314
318.6089, 6859.880
319.0911, 6860.248
319.5732, 6859.563
320.0553, 6858.070
320.5374, 6855.988
321.0195, 6848.794
321.5016, 6845.964
321.9838, 6853.596
322.4659, 6868.943
322.9480, 6878.497
323.4301, 6875.378
323.9122, 6868.833
324.3943, 6863.565
324.8765, 6858.350
325.3586, 6856.736
325.8407, 6862.668
326.3228, 6872.542
326.8049, 6877.286
327.2870, 6869.938
327.7692, 6862.786
328.2513, 6860.006
328.7334, 6863.108
329.2155, 6867.199
329.6976, 6874.344
330.1797, 6881.794
330.6619, 6884.929
331.1440, 6879.272
331.6261, 6875.329
332.1082, 6876.327
332.5903, 6883.068
333.0724, 6889.216
333.5546, 6895.709
334.0367, 6900.789
334.5188, 6901.967
335.0009, 6896.815
335.4830, 6893.373
335.9651, 6893.890
336.4473, 6897.921
336.9294, 6899.331
337.4115, 6896.552
337.8936, 6894.296
338.3757, 6896.962
338.8578, 6905.812
339.3399, 6913.767
339.8221, 6920.203
340.3042, 6925.111
340.7863, 6927.321
341.2684, 6926.279
341.7505, 6925.782
342.2326, 6928.632
342.7148, 6934.789
343.1969, 6940.390
343.6790, 6945.166
344.1611, 6949.081
344.6432, 6950.372
345.1253, 6949.028
345.6075, 6951.063
346.0896, 6962.344
346.5717, 6979.915
347.0538, 6989.904
347.5359, 6991.126
348.0180, 6990.251
348.5002, 6996.188
348.9823, 7007.102
349.4644, 7015.554
349.9465, 7018.412
350.4286, 7017.478
350.9107, 7015.116
351.3929, 7011.503
351.8750, 7008.125
352.3571, 7005.915
352.8392, 7005.063
353.3213, 7005.828
353.8034, 7008.540
354.2856, 7012.892
354.7677, 7020.004
355.2498, 7029.055
355.7319, 7036.623
356.2140, 7037.976
356.6961, 7037.989
357.1783, 7041.938
357.6604, 7051.627
358.1425, 7062.071
358.6246, 7069.942
359.1067, 7076.197
359.5888, 7082.893
360.0710, 7091.713
360.5531, 7100.385
361.0352, 7107.937
361.5173, 7114.320
361.9994, 7118.807
362.4815, 7119.596
362.9637, 7118.952
363.4458, 7119.318
363.9279, 7123.303
364.4100, 7126.552
364.8921, 7126.261
365.3742, 7122.936
365.8564, 7123.273
366.3385, 7133.612
366.8206, 7144.577
367.3027, 7150.539
367.7848, 7147.086
368.2669, 7143.442
368.7491, 7138.391
369.2312, 7133.440
369.7133, 7133.253
370.1954, 7142.278
370.6775, 7151.479
371.1596, 7157.506
371.6418, 7159.602
372.1239, 7161.088
372.6060, 7161.439
373.0881, 7161.694
373.5702, 7162.909
374.0523, 7164.015
374.5345, 7168.692
375.0166, 7178.948
375.4987, 7194.648
375.9808, 7207.783
376.4629, 7217.826
376.9450, 7226.183
377.4272, 7234.222
377.9093, 7241.857
378.3914, 7248.840
378.8735, 7255.203
379.3556, 7260.693
379.8377, 7264.072
380.3199, 7265.022
380.8020, 7267.268
381.2841, 7275.042
381.7662, 7286.982
382.2483, 7295.245
382.7304, 7299.244
383.2126, 7299.826
383.6947, 7295.677
384.1768, 7288.229
384.6589, 7284.250
385.1410, 7289.249
385.6231, 7298.964
386.1053, 7306.413
386.5874, 7311.456
387.0695, 7315.774
387.5516, 7320.613
388.0337, 7325.766
388.5158, 7330.931
388.9980, 7336.962
389.4801, 7341.937
389.9622, 7342.702
390.4443, 7340.393
390.9264, 7339.854
391.4085, 7345.147
391.8907, 7352.499
392.3728, 7358.756
392.8549, 7362.625
393.3370, 7366.997
393.8191, 7373.450
394.3012, 7381.075
394.7834, 7388.355
395.2655, 7394.316
395.7476, 7400.235
396.2297, 7407.335
396.7118, 7416.134
397.1939, 7421.930
397.6761, 7420.622
398.1582, 7417.705
398.6403, 7417.771
399.1224, 7425.989
399.6045, 7431.492
400.0866, 7431.102
400.5688, 7426.413
401.0509, 7426.981
401.5330, 7437.297
402.0151, 7447.622
402.4972, 7452.802
402.9793, 7449.408
403.4615, 7450.350
403.9436, 7457.260
404.4257, 7467.190
404.9078, 7475.585
405.3899, 7483.026
405.8720, 7486.563
406.3542, 7482.829
406.8363, 7472.818
407.3184, 7471.779
407.8005, 7481.068
408.2826, 7493.118
408.7647, 7500.783
409.2469, 7504.259
409.7290, 7507.029
410.2111, 7508.942
410.6932, 7511.615
411.1753, 7519.953
411.6574, 7533.253
412.1396, 7545.019
412.6217, 7550.505
413.1038, 7551.741
413.5859, 7551.766
414.0680, 7550.526
414.5501, 7550.610
415.0323, 7555.053
415.5144, 7562.554
415.9965, 7570.653
416.4786, 7579.018
416.9607, 7586.808
417.4428, 7593.883
417.9250, 7599.963
418.4071, 7603.866
418.8892, 7601.012
419.3713, 7597.627
419.8534, 7599.279
420.3355, 7610.367
420.8177, 7621.368
421.2998, 7631.893
421.7819, 7640.222
422.2640, 7642.849
422.7461, 7630.251
423.2282, 7619.859
423.7104, 7618.991
424.1925, 7630.943
424.6746, 7641.104
425.1567, 7647.501
425.6388, 7652.876
426.1209, 7659.658
426.6031, 7668.088
427.0852, 7677.425
427.5673, 7688.235
428.0494, 7699.866
428.5315, 7708.468
429.0136, 7712.708
429.4958, 7715.988
429.9779, 7720.332
430.4600, 7726.094
430.9421, 7729.182
431.4242, 7728.493
431.9063, 7726.859
432.3885, 7728.813
432.8706, 7734.401
433.3527, 7740.985
433.8348, 7748.908
434.3169, 7756.937
434.7990, 7760.034
435.2812, 7758.261
435.7633, 7756.873
436.2454, 7761.540
436.7275, 7769.959
437.2096, 7776.804
437.6917, 7780.968
438.1739, 7783.600
438.6560, 7784.442
439.1381, 7784.567
439.6202, 7786.799
440.1023, 7795.121
440.5844, 7804.491
441.0666, 7810.398
441.5487, 7812.384
442.0308, 7814.757
442.5129, 7820.305
442.9950, 7827.003
443.4771, 7832.912
443.9593, 7836.910
444.4414, 7840.648
444.9235, 7843.450
445.4056, 7846.021
445.8877, 7851.048
446.3698, 7861.566
446.8520, 7872.109
447.3341, 7880.214
447.8162, 7884.424
448.2983, 7890.000
448.7804, 7898.233
449.2625, 7906.729
449.7447, 7912.691
450.2268, 7915.806
450.7089, 7916.910
451.1910, 7914.979
451.6731, 7911.170
452.1552, 7912.239
452.6374, 7919.516
453.1195, 7927.109
453.6016, 7930.648
454.0837, 7930.374
454.5658, 7932.770
455.0479, 7938.857
455.5301, 7946.119
456.0122, 7951.132
456.4943, 7954.161
456.9764, 7956.135
457.4585, 7956.377
457.9406, 7956.415
458.4228, 7959.477
458.9049, 7965.195
459.3870, 7970.515
459.8691, 7971.170
460.3512, 7970.799
460.8333, 7974.195
461.3155, 7983.127
461.7976, 7993.392
462.2797, 8003.872
462.7618, 8013.619
463.2439, 8020.807
463.7260, 8022.444
464.2082, 8023.465
464.6903, 8026.601
465.1724, 8031.955
465.6545, 8035.475
466.1366, 8034.275
466.6187, 8032.360
467.1009, 8032.346
467.5830, 8035.843
468.0651, 8039.397
468.5472, 8042.875
469.0293, 8046.448
469.5114, 8050.436
469.9936, 8054.618
470.4757, 8059.717
470.9578, 8066.748
471.4399, 8075.640
471.9220, 8080.493
472.4041, 8080.341
472.8863, 8078.751
473.3684, 8078.318
473.8505, 8079.022
474.3326, 8081.811
474.8147, 8087.625
475.2968, 8093.951
475.7790, 8095.040
476.2611, 8091.862
476.7432, 8090.867
477.2253, 8097.740
477.7074, 8107.942
478.1895, 8114.370
478.6717, 8116.917
479.1538, 8117.854
479.6359, 8118.099
480.1180, 8118.088
480.6001, 8118.257
481.0822, 8118.202
481.5644, 8119.377
482.0465, 8122.921
482.5286, 8128.315
483.0107, 8134.380
483.4928, 8142.735
483.9749, 8149.971
484.4571, 8153.961
484.9392, 8153.986
485.4213, 8155.575
485.9034, 8159.115
486.3855, 8164.266
486.8676, 8170.976
487.3498, 8180.578
487.8319, 8188.938
488.3140, 8195.432
488.7961, 8200.458
489.2782, 8205.056
489.7603, 8209.217
490.2425, 8212.553
490.7246, 8214.871
491.2067, 8216.225
491.6888, 8216.598
492.1709, 8215.911
492.6530, 8215.343
493.1352, 8217.415
493.6173, 8221.050
494.0994, 8220.831
494.5815, 8214.950
495.0636, 8207.298
495.5457, 8202.063
496.0279, 8199.229
496.5100, 8198.541
496.9921, 8200.397
497.4742, 8204.018
497.9563, 8208.694
498.4384, 8214.415
498.9206, 8221.296
499.4027, 8231.651
499.8848, 8241.838
500.3669, 8248.824
500.8490, 8248.959
501.3311, 8250.572
501.8133, 8257.808
502.2954, 8267.302
502.7775, 8272.754
503.2596, 8269.149
503.7417, 8266.473
504.2238, 8266.637
504.7060, 8269.559
505.1881, 8274.692
505.6702, 8284.057
506.1523, 8292.177
506.6344, 8294.185
507.1165, 8288.713
507.5987, 8287.257
508.0808, 8291.354
508.5629, 8297.983
509.0450, 8303.112
509.5271, 8306.786
510.0092, 8308.931
510.4914, 8308.393
510.9735, 8307.187
511.4556, 8310.403
511.9377, 8317.495
512.4199, 8323.621
512.9020, 8323.472
513.3841, 8321.350
513.8662, 8323.116
514.3483, 8330.437
514.8304, 8337.210
515.3126, 8338.133
515.7947, 8336.659
516.2768, 8337.213
516.7589, 8344.127
517.2410, 8349.935
517.7231, 8351.249
518.2053, 8349.055
518.6874, 8348.466
519.1695, 8353.223
519.6516, 8356.721
520.1337, 8355.949
520.6158, 8349.238
521.0980, 8346.205
521.5801, 8348.118
522.0622, 8352.292
522.5443, 8356.260
523.0264, 8360.053
523.5085, 8364.043
523.9907, 8368.537
524.4728, 8373.041
524.9549, 8375.823
525.4370, 8377.035
525.9191, 8379.568
526.4012, 8388.109
526.8834, 8398.341
527.3655, 8398.824
527.8476, 8389.726
528.3297, 8380.884
528.8118, 8379.925
529.2939, 8383.740
529.7761, 8389.059
530.2582, 8396.191
530.7403, 8401.900
531.2224, 8401.892
531.7045, 8399.568
532.1866, 8400.549
532.6688, 8410.609
533.1509, 8419.754
533.6330, 8424.110
534.1151, 8423.735
534.5972, 8425.137
535.0793, 8431.016
535.5615, 8435.881
536.0436, 8436.986
536.5257, 8433.457
537.0078, 8428.933
537.4899, 8421.988
537.9720, 8416.572
538.4542, 8420.826
538.9363, 8435.958
539.4184, 8441.686
539.9005, 8430.370
540.3826, 8410.931
540.8647, 8402.494
541.3469, 8404.073
541.8290, 8407.665
542.3111, 8409.829
542.7932, 8410.781
543.2753, 8409.756
543.7574, 8406.762
544.2396, 8405.652
544.7217, 8410.935
545.2038, 8418.373
545.6859, 8423.559
546.1680, 8424.108
546.6501, 8424.549
547.1323, 8427.188
547.6144, 8430.443
548.0965, 8431.652
548.5786, 8426.696
549.0607, 8423.786
549.5428, 8425.838
550.0250, 8432.155
550.5071, 8434.832
550.9892, 8431.821
551.4713, 8429.030
551.9534, 8430.877
552.4355, 8438.384
552.9177, 8439.573
553.3998, 8433.033
553.8819, 8424.618
554.3640, 8421.401
554.8461, 8422.590
555.3282, 8423.826
555.8104, 8424.121
556.2925, 8423.777
556.7746, 8422.986
557.2567, 8421.854
557.7388, 8420.728
558.2209, 8419.677
558.7031, 8418.831
559.1852, 8418.850
559.6673, 8419.673
560.1494, 8419.235
560.6315, 8415.004
561.1136, 8410.490
561.5958, 8408.096
562.0779, 8409.341
562.5600, 8410.504
563.0421, 8411.360
563.5242, 8412.008
564.0063, 8412.506
564.4885, 8412.662
564.9706, 8412.784
565.4527, 8412.483
565.9348, 8412.172
566.4169, 8413.897
566.8990, 8417.848
567.3812, 8421.230
567.8633, 8421.457
568.3454, 8419.783
568.8275, 8422.306
569.3096, 8429.153
569.7917, 8434.348
570.2739, 8430.855
570.7560, 8422.956
571.2381, 8417.207
571.7202, 8415.390
572.2023, 8414.723
572.6844, 8414.792
573.1666, 8414.663
573.6487, 8412.882
574.1308, 8407.097
574.6129, 8401.771
575.0950, 8398.746
575.5771, 8397.621
576.0593, 8395.403
576.5414, 8390.459
577.0235, 8386.325
577.5056, 8384.325
577.9877, 8384.589
578.4698, 8385.260
578.9520, 8386.162
579.4341, 8387.685
579.9162, 8391.678
580.3983, 8397.649
580.8804, 8397.852
581.3625, 8389.949
581.8447, 8379.718
582.3268, 8375.536
582.8089, 8375.663
583.2910, 8374.845
583.7731, 8368.768
584.2552, 8362.938
584.7373, 8362.913
585.2194, 8367.564
585.7015, 8372.557
586.1837, 8378.873
586.6658, 8382.569
587.1479, 8380.379
587.6300, 8370.805
588.1121, 8363.581
588.5942, 8361.688
589.0764, 8361.095
589.5585, 8359.426
590.0406, 8356.968
590.5227, 8352.276
591.0048, 8344.243
591.4869, 8335.168
591.9691, 8328.178
592.4512, 8323.314
592.9333, 8321.747
593.4154, 8325.210
593.8975, 8330.825
594.3796, 8332.611
594.8618, 8330.959
595.3439, 8328.066
595.8260, 8324.906
596.3081, 8321.387
596.7902, 8316.533
597.2723, 8310.408
597.7545, 8306.165
598.2366, 8307.565
598.7187, 8310.195
599.2008, 8310.924
599.6829, 8309.703
600.1650, 8305.374
600.6472, 8294.251
601.1293, 8281.530
601.6114, 8273.158
602.0935, 8271.237
602.5756, 8269.685
603.0577, 8268.084
603.5399, 8266.221
604.0220, 8263.419
604.5041, 8259.759
604.9862, 8255.267
605.4683, 8249.362
605.9504, 8242.822
606.4326, 8238.031
606.9147, 8234.876
607.3968, 8231.831
607.8789, 8227.254
608.3610, 8222.323
608.8431, 8219.021
609.3253, 8217.840
609.8074, 8215.494
610.2895, 8207.698
610.7716, 8199.038
611.2537, 8193.885
611.7358, 8198.737
612.2180, 8200.202
612.7001, 8195.396
613.1822, 8186.968
613.6643, 8178.860
614.1464, 8171.146
614.6285, 8164.292
615.1107, 8158.219
615.5928, 8153.251
616.0749, 8151.053
616.5570, 8151.895
617.0391, 8152.456
617.5212, 8150.798
618.0034, 8147.347
618.4855, 8142.287
618.9676, 8135.580
619.4497, 8130.409
619.9318, 8130.232
620.4139, 8132.359
620.8961, 8133.825
621.3782, 8134.030
621.8603, 8133.514
622.3424, 8133.362
622.8245, 8132.253
623.3066, 8128.686
623.7888, 8117.741
624.2709, 8110.282
624.7530, 8108.390
625.2351, 8110.253
625.7172, 8112.310
626.1993, 8115.774
626.6815, 8115.271
627.1636, 8107.251
627.6457, 8094.301
628.1278, 8088.823
628.6099, 8090.838
629.0920, 8091.557
629.5742, 8083.932
630.0563, 8071.498
630.5384, 8060.142
631.0205, 8050.225
631.5026, 8041.317
631.9847, 8033.192
632.4669, 8026.050
632.9490, 8020.123
633.4311, 8016.135
633.9132, 8012.239
634.3953, 8010.462
634.8774, 8007.595
635.3596, 7999.280
635.8417, 7979.736
636.3238, 7964.565
636.8059, 7956.186
637.2880, 7952.701
637.7701, 7950.344
638.2523, 7949.467
638.7344, 7946.437
639.2165, 7938.641
639.6986, 7928.227
640.1807, 7921.318
640.6628, 7917.621
641.1450, 7915.281
641.6271, 7914.442
642.1092, 7913.545
642.5913, 7910.524
643.0734, 7905.234
643.5555, 7900.127
644.0377, 7898.253
644.5198, 7895.861
645.0019, 7889.771
645.4840, 7876.648
645.9661, 7866.125
646.4482, 7859.397
646.9304, 7854.880
647.4125, 7851.443
647.8946, 7849.884
648.3767, 7846.287
648.8588, 7839.395
649.3409, 7831.129
649.8231, 7825.487
650.3052, 7822.080
650.7873, 7817.412
651.2694, 7808.303
651.7515, 7798.850
652.2336, 7796.639
652.7158, 7799.747
653.1979, 7801.014
653.6800, 7796.627
654.1621, 7789.129
654.6442, 7778.056
655.1263, 7763.560
655.6085, 7753.438
656.0906, 7754.311
656.5727, 7755.876
657.0548, 7752.830
657.5369, 7743.947
658.0190, 7735.352
658.5012, 7726.760
658.9833, 7718.974
659.4654, 7713.553
659.9475, 7710.361
660.4296, 7704.726
660.9117, 7695.698
661.3939, 7685.689
661.8760, 7677.383
662.3581, 7670.481
662.8402, 7664.400
663.3223, 7659.625
663.8044, 7654.621
664.2866, 7648.825
664.7687, 7642.019
665.2508, 7633.617
665.7329, 7620.211
666.2150, 7608.705
666.6971, 7602.693
667.1793, 7600.917
667.6614, 7596.406
668.1435, 7586.856
668.6256, 7579.626
669.1077, 7580.165
669.5898, 7586.969
670.0720, 7580.787
670.5541, 7560.424
671.0362, 7540.179
671.5183, 7531.103
672.0004, 7529.675
672.4825, 7530.256
672.9647, 7532.541
673.4468, 7531.795
673.9289, 7521.933
674.4110, 7508.555
674.8931, 7497.637
675.3752, 7491.938
675.8574, 7485.133
676.3395, 7475.736
676.8216, 7464.752
677.3037, 7453.190
677.7858, 7440.326
678.2679, 7429.303
678.7501, 7421.204
679.2322, 7414.658
679.7143, 7406.074
680.1964, 7395.700
680.6785, 7387.300
681.1606, 7383.236
681.6428, 7380.864
682.1249, 7375.808
682.6070, 7368.579
683.0891, 7361.261
683.5712, 7354.712
684.0533, 7348.497
684.5355, 7342.394
685.0176, 7336.302
685.4997, 7329.411
685.9818, 7318.638
686.4639, 7309.699
686.9460, 7305.743
687.4282, 7307.664
687.9103, 7305.737
688.3924, 7298.548
688.8745, 7290.539
689.3566, 7285.747
689.8387, 7283.661
690.3209, 7278.296
690.8030, 7269.159
691.2851, 7258.533
691.7672, 7249.823
692.2493, 7241.179
692.7314, 7228.880
693.2136, 7210.620
693.6957, 7193.657
694.1778, 7182.862
694.6599, 7175.743
695.1420, 7169.184
695.6241, 7161.349
696.1063, 7156.015
696.5884, 7155.538
697.0705, 7156.727
697.5526, 7153.234
698.0347, 7143.847
698.5168, 7134.599
698.9990, 7127.234
699.4811, 7120.521
699.9632, 7111.415
700.4453, 7100.195
700.9274, 7088.999
701.4095, 7078.822
701.8917, 7069.260
702.3738, 7060.538
702.8559, 7052.264
703.3380, 7042.816
703.8201, 7028.651
704.3022, 7015.627
704.7844, 7007.898
705.2665, 7006.071
705.7486, 7001.327
706.2307, 6992.209
706.7128, 6982.257
707.1949, 6972.800
707.6771, 6963.804
708.1592, 6958.221
708.6413, 6956.506
709.1234, 6954.979
709.6055, 6949.330
710.0876, 6941.484
710.5698, 6936.297
711.0519, 6934.619
711.5340, 6932.545
712.0161, 6927.203
712.4982, 6919.856
712.9803, 6911.651
713.4625, 6902.305
713.9446, 6893.042
714.4267, 6883.958
714.9088, 6875.164
715.3909, 6866.903
715.8730, 6859.884
716.3552, 6851.753
716.8373, 6842.584
717.3194, 6832.037
717.8015, 6819.230
718.2836, 6804.425
718.7657, 6789.742
719.2479, 6775.631
719.7300, 6762.528
720.2121, 6750.839
720.6942, 6740.544
721.1763, 6731.213
721.6584, 6723.911
722.1406, 6716.391
722.6227, 6707.829
723.1048, 6698.366
723.5869, 6688.462
724.0690, 6676.892
724.5511, 6666.939
725.0333, 6660.219
725.5154, 6655.929
725.9975, 6649.217
726.4796, 6639.715
726.9617, 6631.354
727.4438, 6628.132
727.9260, 6626.933
728.4081, 6620.813
728.8902, 6610.231
729.3723, 6599.001
729.8544, 6587.820
730.3365, 6578.091
730.8187, 6571.539
731.3008, 6568.511
731.7829, 6564.244
732.2650, 6555.505
732.7471, 6547.359
733.2292, 6542.835
733.7114, 6543.124
734.1935, 6538.817
734.6756, 6529.088
735.1577, 6517.476
735.6398, 6506.586
736.1219, 6496.450
736.6041, 6487.047
737.0862, 6478.428
737.5683, 6470.761
738.0504, 6465.330
738.5325, 6460.591
739.0146, 6455.299
739.4968, 6450.491
739.9789, 6441.772
740.4610, 6422.031
740.9431, 6401.166
741.4252, 6389.160
741.9073, 6390.353
742.3895, 6389.686
742.8716, 6386.181
743.3537, 6380.614
743.8358, 6373.622
744.3179, 6365.373
744.8000, 6356.780
745.2822, 6347.721
745.7643, 6339.188
746.2464, 6332.616
746.7285, 6327.288
747.2106, 6322.053
747.6927, 6318.599
748.1749, 6312.683
748.6570, 6299.670
749.1391, 6283.625
749.6212, 6273.378
750.1033, 6271.722
750.5854, 6270.672
751.0676, 6269.796
751.5497, 6267.932
752.0318, 6261.751
752.5139, 6251.330
752.9960, 6239.945
753.4781, 6228.033
753.9603, 6216.868
754.4424, 6208.380
754.9245, 6202.172
755.4066, 6197.322
755.8887, 6195.023
756.3708, 6192.377
756.8530, 6187.845
757.3351, 6181.753
757.8172, 6175.553
758.2993, 6169.868
758.7814, 6163.230
759.2635, 6154.498
759.7457, 6144.404
760.2278, 6136.635
760.7099, 6131.252
761.1920, 6126.963
761.6741, 6122.995
762.1563, 6119.644
762.6384, 6118.787
763.1205, 6119.604
763.6026, 6117.714
764.0847, 6107.353
764.5668, 6096.405
765.0490, 6089.874
765.5311, 6087.977
766.0132, 6086.494
766.4953, 6086.526
766.9774, 6085.112
767.4595, 6080.518
767.9417, 6072.909
768.4238, 6066.604
768.9059, 6061.686
769.3880, 6057.720
769.8701, 6053.982
770.3522, 6051.094
770.8344, 6050.639
771.3165, 6052.502
771.7986, 6054.454
772.2807, 6054.635
772.7628, 6054.708
773.2449, 6056.085
773.7271, 6059.262
774.2092, 6060.851
774.6913, 6060.172
775.1734, 6058.706
775.6555, 6057.167
776.1376, 6055.603
776.6198, 6054.517
777.1019, 6053.925
777.5840, 6054.675
778.0661, 6058.230
778.5482, 6063.521
779.0303, 6068.606
779.5125, 6073.288
779.9946, 6078.583
780.4767, 6085.356
780.9588, 6092.708
781.4409, 6099.628
781.9230, 6104.806
782.4052, 6113.038
782.8873, 6125.135
783.3694, 6138.880
783.8515, 6152.833
784.3336, 6166.843
784.8157, 6179.797
785.2979, 6191.375
785.7800, 6202.690
786.2621, 6213.505
786.7442, 6225.162
787.2263, 6240.439
787.7084, 6260.378
788.1906, 6280.687
788.6727, 6298.908
789.1548, 6317.349
789.6369, 6338.351
790.1190, 6362.739
790.6011, 6387.391
791.0833, 6411.593
791.5654, 6437.058
792.0475, 6465.268
792.5296, 6496.228
793.0117, 6525.885
793.4938, 6554.006
793.9760, 6581.693
794.4581, 6608.549
794.9402, 6636.745
795.4223, 6669.731
795.9044, 6710.047
796.3865, 6748.944
796.8687, 6780.438
797.3508, 6811.613
797.8329, 6848.510
798.3150, 6894.021
798.7971, 6938.898
799.2792, 6982.841
799.7614, 7027.232
800.2435, 7075.363
800.7256, 7126.303
801.2077, 7175.562
801.6898, 7222.162
802.1719, 7269.939
802.6541, 7323.503
803.1362, 7378.741
803.6183, 7431.527
804.1004, 7480.020
804.5825, 7528.676
805.0646, 7580.637
805.5468, 7631.802
806.0289, 7679.039
806.5110, 7721.514
806.9931, 7764.117
807.4752, 7807.578
807.9573, 7847.366
808.4395, 7878.859
808.9216, 7902.738
809.4037, 7920.730
809.8858, 7933.079
810.3679, 7939.675
810.8500, 7939.026
811.3322, 7933.401
811.8143, 7925.225
812.2964, 7916.879
812.7785, 7900.370
813.2606, 7874.772
813.7427, 7841.999
814.2249, 7804.780
814.7070, 7763.075
815.1891, 7710.017
815.6712, 7644.534
816.1533, 7572.227
816.6354, 7497.006
817.1176, 7419.417
817.5997, 7338.956
818.0818, 7255.206
818.5639, 7169.201
819.0460, 7080.548
819.5281, 6990.562
820.0103, 6899.550
820.4924, 6807.490
820.9745, 6718.125
821.4566, 6632.257
821.9387, 6546.448
822.4208, 6458.937
822.9030, 6369.487
823.3851, 6282.897
823.8672, 6198.945
824.3493, 6119.081
824.8314, 6046.840
825.3135, 5978.539
825.7957, 5910.958
826.2778, 5843.229
826.7599, 5780.534
827.2420, 5724.922
827.7241, 5673.744
828.2062, 5625.998
828.6884, 5582.508
829.1705, 5537.201
829.6526, 5489.545
830.1347, 5444.908
830.6168, 5409.135
831.0989, 5378.882
831.5811, 5346.184
832.0632, 5311.227
832.5453, 5279.174
833.0274, 5253.150
833.5095, 5231.287
833.9916, 5214.197
834.4738, 5202.567
834.9559, 5184.909
835.4380, 5157.637
835.9201, 5131.149
836.4022, 5111.459
836.8843, 5097.361
837.3665, 5081.002
837.8486, 5062.532
838.3307, 5044.330
838.8128, 5027.768
839.2949, 5012.451
839.7770, 4998.128
840.2592, 4984.686
840.7413, 4972.127
841.2234, 4960.955
841.7055, 4950.167
842.1876, 4939.089
842.6697, 4929.354
843.1519, 4918.388
843.6340, 4910.610
844.1161, 4902.831
844.5982, 4894.494
845.0803, 4885.290
845.5624, 4874.417
846.0446, 4862.183
846.5267, 4849.903
847.0088, 4837.896
847.4909, 4826.357
847.9730, 4815.325
848.4551, 4804.861
848.9373, 4795.266
849.4194, 4786.755
849.9015, 4778.801
850.3836, 4771.984
850.8657, 4765.159
851.3478, 4754.662
851.8300, 4741.271
852.3121, 4729.611
852.7942, 4722.397
853.2763, 4716.278
853.7584, 4708.233
854.2405, 4699.141
854.7227, 4690.510
855.2048, 4683.913
855.6869, 4676.259
856.1690, 4666.178
856.6511, 4655.669
857.1332, 4647.989
857.6154, 4643.362
858.0975, 4636.666
858.5796, 4626.184
859.0617, 4615.995
859.5438, 4612.774
860.0259, 4613.126
860.5081, 4611.038
860.9902, 4603.659
861.4723, 4596.832
861.9544, 4593.497
862.4365, 4591.310
862.9186, 4588.054
863.4008, 4583.651
863.8829, 4577.977
864.3650, 4570.625
864.8471, 4563.203
865.3292, 4557.386
865.8113, 4552.773
866.2935, 4548.546
866.7756, 4544.670
867.2577, 4539.825
867.7398, 4530.280
868.2219, 4521.371
868.7040, 4518.511
869.1862, 4524.978
869.6683, 4524.400
870.1504, 4513.639
870.6325, 4501.423
871.1146, 4492.122
871.5967, 4485.850
872.0789, 4486.001
872.5610, 4492.146
873.0431, 4495.674
873.5252, 4487.780
874.0073, 4476.606
874.4894, 4469.648
874.9716, 4466.752
875.4537, 4463.149
875.9358, 4456.298
876.4179, 4450.336
876.9000, 4446.693
877.3821, 4444.885
877.8643, 4443.073
878.3464, 4441.289
878.8285, 4437.754
879.3106, 4430.256
879.7927, 4422.087
880.2748, 4418.002
880.7570, 4416.769
881.2391, 4415.327
881.7212, 4412.819
882.2033, 4409.554
882.6854, 4404.779
883.1675, 4399.661
883.6497, 4396.235
884.1318, 4394.818
884.6139, 4393.205
885.0960, 4391.054
885.5781, 4388.295
886.0602, 4384.460
886.5424, 4379.978
887.0245, 4375.599
887.5066, 4370.861
887.9887, 4367.913
888.4708, 4371.724
888.9529, 4375.357
889.4351, 4371.201
889.9172, 4354.783
890.3993, 4343.509
890.8814, 4338.646
891.3635, 4335.866
891.8456, 4331.314
892.3278, 4325.494
892.8099, 4319.464
893.2920, 4313.407
893.7741, 4308.135
894.2562, 4305.822
894.7383, 4303.378
895.2205, 4298.236
895.7026, 4289.964
896.1847, 4282.724
896.6668, 4276.583
897.1489, 4271.649
897.6310, 4268.532
898.1132, 4266.623
898.5953, 4263.750
899.0774, 4259.947
899.5595, 4255.557
900.0416, 4249.606
900.5237, 4244.047
901.0059, 4240.547
901.4880, 4238.505
901.9701, 4235.587
902.4522, 4231.285
902.9343, 4226.514
903.4164, 4221.186
903.8986, 4215.667
904.3807, 4211.330
904.8628, 4207.747
905.3449, 4201.916
905.8270, 4192.431
906.3091, 4181.743
906.7913, 4171.458
907.2734, 4161.572
907.7555, 4151.957
908.2376, 4143.119
908.7197, 4133.814
909.2018, 4123.083
909.6840, 4113.256
910.1661, 4107.157
910.6482, 4104.430
911.1303, 4100.086
911.6124, 4093.734
912.0945, 4086.184
912.5767, 4077.030
913.0588, 4067.712
913.5409, 4059.738
914.0230, 4053.344
914.5051, 4047.046
914.9872, 4040.976
915.4694, 4034.343
915.9515, 4026.422
916.4336, 4017.509
916.9157, 4010.542
917.3978, 4005.417
917.8799, 3999.143
918.3621, 3988.004
918.8442, 3976.534
919.3263, 3970.207
919.8084, 3967.329
920.2905, 3962.799
920.7726, 3953.580
921.2548, 3944.708
921.7369, 3936.951
922.2190, 3929.974
922.7011, 3923.187
923.1832, 3916.652
923.6653, 3910.281
924.1475, 3904.095
924.6296, 3897.954
925.1117, 3892.196
925.5938, 3886.122
926.0759, 3878.434
926.5580, 3867.293
927.0402, 3858.668
927.5223, 3854.506
928.0044, 3851.263
928.4865, 3846.148
928.9686, 3839.236
929.4507, 3833.684
929.9329, 3829.606
930.4150, 3825.518
930.8971, 3820.508
931.3792, 3814.775
931.8613, 3807.314
932.3434, 3798.647
932.8256, 3792.917
933.3077, 3793.905
933.7898, 3794.344
934.2719, 3792.532
934.7540, 3788.524
935.2361, 3781.331
935.7183, 3771.236
936.2004, 3764.232
936.6825, 3764.058
937.1646, 3765.087
937.6467, 3761.850
938.1288, 3756.019
938.6110, 3750.306
939.0931, 3746.605
939.5752, 3741.061
940.0573, 3732.641
940.5394, 3723.689
941.0215, 3717.137
941.5037, 3712.769
941.9858, 3708.147
942.4679, 3703.017
942.9500, 3697.908
943.4321, 3692.352
943.9142, 3687.723
944.3964, 3685.299
944.8785, 3685.316
945.3606, 3686.722
945.8427, 3692.323
946.3248, 3693.823
946.8069, 3685.926
947.2891, 3671.464
947.7712, 3662.826
948.2533, 3659.343
948.7354, 3657.305
949.2175, 3656.716
949.6996, 3654.948
950.1818, 3648.967
950.6639, 3640.638
951.1460, 3634.183
951.6281, 3631.220
952.1102, 3627.544
952.5923, 3622.589
953.0745, 3617.191
953.5566, 3612.510
954.0387, 3608.378
954.5208, 3604.296
955.0029, 3600.327
955.4850, 3595.570
955.9672, 3587.835
956.4493, 3580.242
956.9314, 3575.861
957.4135, 3575.423
957.8956, 3572.110
958.3777, 3564.879
958.8599, 3557.909
959.3420, 3554.414
959.8241, 3552.448
960.3062, 3545.832
960.7883, 3535.922
961.2704, 3528.369
961.7526, 3528.164
962.2347, 3528.411
962.7168, 3525.792
963.1989, 3521.626
963.6810, 3518.459
964.1631, 3516.320
964.6453, 3515.619
965.1274, 3517.191
965.6095, 3517.484
966.0916, 3509.140
966.5737, 3497.234
967.0558, 3491.665
967.5380, 3495.321
968.0201, 3497.853
968.5022, 3495.347
968.9843, 3490.505
969.4664, 3484.677
969.9485, 3477.985
970.4307, 3469.839
970.9128, 3460.088
971.3949, 3453.829
971.8770, 3458.377
972.3591, 3465.183
972.8412, 3462.410
973.3234, 3453.221
973.8055, 3446.669
974.2876, 3449.019
974.7697, 3449.565
975.2518, 3445.737
975.7339, 3440.121
976.2161, 3436.946
976.6982, 3435.955
977.1803, 3434.413
977.6624, 3431.688
978.1445, 3429.535
978.6266, 3431.156
979.1088, 3433.027
979.5909, 3431.247
980.0730, 3424.378
980.5551, 3418.960
981.0372, 3415.337
981.5193, 3412.875
982.0015, 3412.038
982.4836, 3411.815
982.9657, 3408.216
983.4478, 3401.827
983.9299, 3395.387
984.4120, 3388.584
984.8942, 3383.927
985.3763, 3384.852
985.8584, 3388.146
986.3405, 3387.328
986.8226, 3381.073
987.3047, 3375.324
987.7869, 3370.938
988.2690, 3366.487
988.7511, 3358.780
989.2332, 3350.422
989.7153, 3347.227
990.1974, 3350.451
990.6796, 3351.646
991.1617, 3345.337
991.6438, 3338.250
992.1259, 3333.751
992.6080, 3331.544
993.0901, 3328.250
993.5723, 3323.851
994.0544, 3320.096
994.5365, 3317.911
995.0186, 3316.519
995.5007, 3315.317
995.9828, 3314.122
996.4650, 3312.609
996.9471, 3310.613
997.4292, 3308.079
997.9113, 3304.240
998.3934, 3300.870
998.8755, 3300.940
999.3577, 3303.466
999.8398, 3302.719
1000.322, 3298.311
1000.804, 3292.356
1001.286, 3284.141
1001.768, 3276.754
1002.250, 3273.558
1002.732, 3274.082
1003.215, 3271.216
1003.697, 3263.949
1004.179, 3257.136
1004.661, 3252.150
1005.143, 3248.655
1005.625, 3246.540
1006.107, 3245.312
1006.589, 3243.941
1007.072, 3242.637
1007.554, 3240.053
1008.036, 3233.336
1008.518, 3227.118
1009.000, 3225.588
1009.482, 3229.365
1009.964, 3229.105
1010.446, 3224.654
1010.928, 3219.793
1011.411, 3216.833
1011.893, 3215.018
1012.375, 3214.146
1012.857, 3213.862
1013.339, 3212.698
1013.821, 3210.039
1014.303, 3206.987
1014.785, 3203.138
1015.268, 3199.901
1015.750, 3201.137
1016.232, 3205.008
1016.714, 3204.914
1017.196, 3198.901
1017.678, 3192.750
1018.160, 3189.535
1018.642, 3187.932
1019.124, 3187.198
1019.607, 3187.345
1020.089, 3187.019
1020.571, 3186.249
1021.053, 3184.848
1021.535, 3182.647
1022.017, 3179.798
1022.499, 3175.847
1022.981, 3171.424
1023.464, 3167.995
1023.946, 3166.811
1024.428, 3165.506
1024.910, 3163.761
1025.392, 3161.765
1025.874, 3159.188
1026.356, 3156.363
1026.838, 3156.370
1027.320, 3159.433
1027.803, 3161.022
1028.285, 3157.097
1028.767, 3151.204
1029.249, 3145.327
1029.731, 3139.724
1030.213, 3135.073
1030.695, 3131.768
1031.177, 3127.864
1031.660, 3122.488
1032.142, 3116.929
1032.624, 3113.030
1033.106, 3110.558
1033.588, 3109.498
1034.070, 3111.060
1034.552, 3110.681
1035.034, 3105.769
1035.516, 3100.268
1035.999, 3096.331
1036.481, 3093.937
1036.963, 3092.848
1037.445, 3092.901
1037.927, 3092.049
1038.409, 3087.031
1038.891, 3082.526
1039.373, 3083.006
1039.855, 3086.187
1040.338, 3086.361
1040.820, 3081.614
1041.302, 3078.572
1041.784, 3078.106
1042.266, 3078.483
1042.748, 3078.380
1043.230, 3077.469
1043.712, 3074.482
1044.195, 3069.293
1044.677, 3065.743
1045.159, 3068.528
1045.641, 3069.298
1046.123, 3063.868
1046.605, 3054.801
1047.087, 3051.395
1047.569, 3053.008
1048.052, 3053.912
1048.534, 3052.140
1049.016, 3049.431
1049.498, 3046.676
1049.980, 3043.906
1050.462, 3041.271
1050.944, 3039.082
1051.426, 3035.181
1051.908, 3028.850
1052.391, 3023.705
1052.873, 3023.706
1053.355, 3025.572
1053.837, 3022.426
1054.319, 3015.952
1054.801, 3011.562
1055.283, 3012.719
1055.765, 3014.445
1056.247, 3016.734
1056.730, 3018.177
1057.212, 3016.331
1057.694, 3011.681
1058.176, 3007.604
1058.658, 3004.440
1059.140, 3001.685
1059.622, 2998.886
1060.104, 2996.509
1060.587, 2995.063
1061.069, 2994.402
1061.551, 2993.551
1062.033, 2992.384
1062.515, 2992.016
1062.997, 2993.313
1063.479, 2994.270
1063.961, 2991.384
1064.443, 2986.783
1064.926, 2983.751
1065.408, 2983.808
1065.890, 2982.766
1066.372, 2979.886
1066.854, 2976.416
1067.336, 2972.590
1067.818, 2968.825
1068.300, 2967.003
1068.782, 2966.886
1069.265, 2967.562
1069.747, 2970.616
1070.229, 2971.976
1070.711, 2968.285
1071.193, 2962.944
1071.675, 2959.997
1072.157, 2959.733
1072.639, 2958.747
1073.122, 2956.810
1073.604, 2955.184
1074.086, 2955.424
1074.568, 2956.079
1075.050, 2955.922
1075.532, 2954.945
1076.014, 2953.427
1076.496, 2950.823
1076.979, 2949.427
1077.461, 2950.210
1077.943, 2951.182
1078.425, 2949.168
1078.907, 2945.260
1079.389, 2941.495
1079.871, 2938.207
1080.353, 2934.794
1080.835, 2929.288
1081.318, 2925.772
1081.800, 2926.966
1082.282, 2931.155
1082.764, 2930.831
1083.246, 2926.850
1083.728, 2924.495
1084.210, 2927.311
1084.692, 2929.242
1085.174, 2925.524
1085.656, 2919.668
1086.139, 2915.219
1086.621, 2912.408
1087.103, 2910.449
1087.585, 2909.433
1088.067, 2908.641
1088.549, 2908.798
1089.031, 2907.994
1089.513, 2901.706
1089.996, 2892.930
1090.478, 2889.661
1090.960, 2896.994
1091.442, 2902.354
1091.924, 2904.678
1092.406, 2904.966
1092.888, 2903.323
1093.370, 2900.739
1093.853, 2900.026
1094.335, 2901.060
1094.817, 2900.152
1095.299, 2892.166
1095.781, 2886.531
1096.263, 2886.774
1096.745, 2890.417
1097.227, 2892.248
1097.709, 2892.544
1098.192, 2892.876
1098.674, 2893.639
1099.156, 2894.157
1099.638, 2895.222
1100.120, 2894.779
1100.602, 2890.237
1101.084, 2882.208
1101.566, 2877.987
1102.048, 2877.698
1102.531, 2878.084
1103.013, 2878.120
1103.495, 2877.767
1103.977, 2875.852
1104.459, 2874.043
1104.941, 2875.138
1105.423, 2882.067
1105.905, 2883.681
1106.388, 2878.742
1106.870, 2872.476
1107.352, 2867.479
1107.834, 2863.856
1108.316, 2861.546
1108.798, 2860.619
1109.280, 2861.215
1109.762, 2864.857
1110.245, 2867.992
1110.727, 2870.458
1111.209, 2871.973
1111.691, 2872.231
1112.173, 2871.296
1112.655, 2868.982
1113.137, 2865.457
1113.619, 2862.464
1114.101, 2860.413
1114.583, 2859.800
1115.066, 2861.766
1115.548, 2864.709
1116.030, 2865.809
1116.512, 2865.132
1116.994, 2863.480
1117.476, 2860.872
1117.958, 2858.479
1118.440, 2857.601
1118.923, 2856.961
1119.405, 2855.586
1119.887, 2853.539
1120.369, 2851.447
1120.851, 2849.294
1121.333, 2847.152
1121.815, 2844.953
1122.297, 2843.044
1122.780, 2841.963
1123.262, 2841.270
1123.744, 2840.509
1124.226, 2839.668
1124.708, 2838.084
1125.190, 2834.817
1125.672, 2833.958
1126.154, 2838.535
1126.636, 2845.212
1127.119, 2848.702
1127.601, 2849.621
1128.083, 2848.958
1128.565, 2845.849
1129.047, 2843.590
1129.529, 2842.688
1130.011, 2842.262
1130.493, 2841.962
1130.975, 2841.589
1131.458, 2840.151
1131.940, 2837.968
1132.422, 2836.266
1132.904, 2835.869
1133.386, 2835.673
1133.868, 2834.933
1134.350, 2834.726
1134.832, 2836.701
1135.315, 2840.478
1135.797, 2842.815
1136.279, 2843.617
1136.761, 2843.375
1137.243, 2841.694
1137.725, 2839.814
1138.207, 2838.279
1138.689, 2836.984
1139.172, 2835.652
1139.654, 2834.256
1140.136, 2833.765
1140.618, 2834.316
1141.100, 2835.283
1141.582, 2836.449
1142.064, 2837.581
1142.546, 2838.602
1143.028, 2839.424
1143.510, 2839.725
1143.993, 2839.399
1144.475, 2839.169
1144.957, 2839.192
1145.439, 2839.296
1145.921, 2839.353
1146.403, 2839.356
1146.885, 2839.172
1147.367, 2838.799
1147.850, 2839.177
1148.332, 2840.672
1148.814, 2841.742
1149.296, 2841.997
1149.778, 2841.384
1150.260, 2838.858
1150.742, 2835.818
1151.224, 2834.387
1151.707, 2835.232
1152.189, 2836.634
1152.671, 2838.809
1153.153, 2840.536
1153.635, 2841.304
1154.117, 2841.147
1154.599, 2839.816
1155.081, 2837.674
1155.563, 2835.485
1156.046, 2832.916
1156.528, 2831.833
1157.010, 2833.620
1157.492, 2834.805
1157.974, 2832.833
1158.456, 2828.659
1158.938, 2824.344
1159.420, 2820.520
1159.902, 2819.222
1160.385, 2824.144
1160.867, 2827.543
1161.349, 2826.742
1161.831, 2825.300
1162.313, 2826.535
1162.795, 2829.846
1163.277, 2832.044
1163.759, 2833.122
1164.242, 2833.455
1164.724, 2832.344
1165.206, 2831.549
1165.688, 2831.916
1166.170, 2832.662
1166.652, 2832.632
1167.134, 2832.035
1167.616, 2834.207
1168.099, 2838.931
1168.581, 2840.242
1169.063, 2829.397
1169.545, 2819.787
1170.027, 2819.331
1170.509, 2823.807
1170.991, 2827.288
1171.473, 2829.827
1171.955, 2831.924
1172.438, 2833.601
1172.920, 2835.381
1173.402, 2838.469
1173.884, 2840.911
1174.366, 2840.733
1174.848, 2839.031
1175.330, 2838.637
1175.812, 2839.562
1176.294, 2838.893
1176.777, 2835.888
1177.259, 2833.573
1177.741, 2835.203
1178.223, 2837.884
1178.705, 2839.583
1179.187, 2840.381
1179.669, 2841.166
1180.151, 2842.023
1180.634, 2841.597
1181.116, 2839.258
1181.598, 2837.191
1182.080, 2837.975
1182.562, 2839.584
1183.044, 2839.897
1183.526, 2838.994
1184.008, 2839.936
1184.490, 2843.056
1184.973, 2844.670
1185.455, 2843.317
1185.937, 2841.103
1186.419, 2839.220
1186.901, 2838.265
1187.383, 2839.691
1187.865, 2843.790
1188.347, 2844.026
1188.829, 2839.594
1189.312, 2838.201
1189.794, 2844.247
1190.276, 2851.532
1190.758, 2852.893
1191.240, 2851.495
1191.722, 2851.370
1192.204, 2853.368
1192.686, 2853.070
1193.169, 2849.951
1193.651, 2847.562
1194.133, 2847.568
1194.615, 2849.015
1195.097, 2852.033
1195.579, 2855.219
1196.061, 2856.289
1196.543, 2854.370
1197.026, 2853.327
1197.508, 2853.247
1197.990, 2853.763
1198.472, 2855.194
1198.954, 2856.554
1199.436, 2856.406
1199.918, 2855.442
1200.400, 2854.833
1200.882, 2855.231
1201.365, 2853.829
1201.847, 2849.942
1202.329, 2847.937
1202.811, 2852.917
1203.293, 2859.264
1203.775, 2859.567
1204.257, 2856.442
1204.739, 2854.825
1205.221, 2855.267
1205.704, 2857.800
1206.186, 2863.027
1206.668, 2867.065
1207.150, 2865.875
1207.632, 2863.014
1208.114, 2863.482
1208.596, 2865.315
1209.078, 2863.498
1209.561, 2854.901
1210.043, 2850.991
1210.525, 2852.681
1211.007, 2855.817
1211.489, 2857.236
1211.971, 2858.330
1212.453, 2861.111
1212.935, 2864.751
1213.417, 2866.871
1213.900, 2866.956
1214.382, 2866.626
1214.864, 2865.830
1215.346, 2865.378
1215.828, 2865.344
1216.310, 2868.347
1216.792, 2865.691
1217.274, 2867.452
1217.756, 2868.357
1218.239, 2867.195
1218.721, 2870.175
1219.203, 2868.658
1219.685, 2866.156
1220.167, 2864.910
1220.649, 2864.878
1221.131, 2867.215
1221.613, 2870.657
1222.096, 2871.140
1222.578, 2867.454
1223.060, 2866.276
1223.542, 2868.383
1224.024, 2871.658
1224.506, 2875.852
1224.988, 2878.956
1225.470, 2877.926
1225.953, 2874.347
1226.435, 2874.022
1226.917, 2877.731
1227.399, 2879.389
1227.881, 2878.202
1228.363, 2876.226
1228.845, 2873.715
1229.327, 2872.542
1229.809, 2875.365
1230.292, 2880.673
1230.774, 2884.073
1231.256, 2885.594
1231.738, 2885.270
1232.220, 2883.075
1232.702, 2880.079
1233.184, 2875.202
1233.666, 2871.746
1234.148, 2873.867
1234.631, 2871.661
1235.113, 2871.708
1235.595, 2874.240
1236.077, 2873.567
1236.559, 2878.178
1237.041, 2883.282
1237.523, 2885.901
1238.005, 2887.350
1238.488, 2888.383
1238.970, 2888.753
1239.452, 2886.885
1239.934, 2883.153
1240.416, 2883.556
1240.898, 2888.894
1241.380, 2893.019
1241.862, 2889.114
1242.344, 2886.160
1242.827, 2889.862
1243.309, 2896.325
1243.791, 2897.749
1244.273, 2895.039
1244.755, 2893.136
1245.237, 2892.660
1245.719, 2893.250
1246.201, 2895.110
1246.683, 2897.682
1247.166, 2901.151
1247.648, 2904.624
1248.130, 2906.054
1248.612, 2906.071
1249.094, 2906.607
1249.576, 2907.917
1250.058, 2910.297
1250.540, 2917.685
1251.023, 2920.503
1251.505, 2914.558
1251.987, 2905.866
1252.469, 2903.809
1252.951, 2906.461
1253.433, 2910.323
1253.915, 2914.786
1254.397, 2916.321
1254.880, 2911.014
1255.362, 2907.456
1255.844, 2907.381
1256.326, 2909.601
1256.808, 2914.507
1257.290, 2919.626
1257.772, 2919.612
1258.254, 2914.627
1258.736, 2912.218
1259.219, 2914.191
1259.701, 2916.861
1260.183, 2919.903
1260.665, 2922.345
1261.147, 2922.567
1261.629, 2921.811
1262.111, 2921.360
1262.593, 2921.352
1263.075, 2921.892
1263.558, 2923.026
1264.040, 2924.373
1264.522, 2925.962
1265.004, 2926.885
1265.486, 2924.782
1265.968, 2922.785
1266.450, 2924.339
1266.932, 2928.739
1267.415, 2932.339
1267.897, 2935.305
1268.379, 2935.423
1268.861, 2932.167
1269.343, 2929.394
1269.825, 2930.762
1270.307, 2933.187
1270.789, 2934.588
1271.271, 2935.500
1271.754, 2937.372
1272.236, 2940.076
1272.718, 2940.704
1273.200, 2938.971
1273.682, 2938.367
1274.164, 2943.660
1274.646, 2947.345
1275.128, 2945.062
1275.610, 2940.546
1276.093, 2940.085
1276.575, 2942.637
1277.057, 2943.924
1277.539, 2943.663
1278.021, 2943.659
1278.503, 2945.875
1278.985, 2946.562
1279.467, 2943.752
1279.950, 2941.196
1280.432, 2945.172
1280.914, 2952.452
1281.396, 2955.966
1281.878, 2955.774
1282.360, 2954.969
1282.842, 2953.463
1283.324, 2953.337
1283.807, 2955.168
1284.289, 2957.287
1284.771, 2957.438
1285.253, 2957.185
1285.735, 2959.546
1286.217, 2963.427
1286.699, 2963.808
1287.181, 2958.431
1287.663, 2958.231
1288.146, 2964.766
1288.628, 2970.569
1289.110, 2967.388
1289.592, 2962.676
1290.074, 2963.527
1290.556, 2967.293
1291.038, 2967.680
1291.520, 2964.334
1292.002, 2962.976
1292.485, 2963.868
1292.967, 2965.915
1293.449, 2970.257
1293.931, 2973.447
1294.413, 2972.801
1294.895, 2970.678
1295.377, 2969.310
1295.859, 2968.573
1296.342, 2966.888
1296.824, 2964.804
1297.306, 2965.235
1297.788, 2972.296
1298.270, 2978.012
1298.752, 2981.064
1299.234, 2982.249
1299.716, 2981.563
1300.198, 2979.792
1300.681, 2977.497
1301.163, 2976.117
1301.645, 2979.132
1302.127, 2986.518
##END=



