##NAMES=Arsenbrackebuschite
##RRUFFID=R100184
##IDEAL CHEMISTRY=Pb^2+^_2_(Fe^3+^,Zn^2+^)(As^5+^O_4_)_2_(OH,H_2_O)
##LOCALITY=Mina Ojuela (Campo Sur), Mapimi, Durango, Mexico
##OWNER=RRUFF
##SOURCE=Marcus Origlieri
##DESCRIPTION=Yellow to yellowish-orange wedge shaped crystals associated with mimetite and segnitite
##STATUS=The identification of this mineral has been confirmed only by single crystal X-ray diffraction.
##URL=rruff.info/R100184
151.8342, 934.6777
152.3164, 929.6506
152.7985, 924.9944
153.2806, 920.4122
153.7627, 915.7601
154.2448, 911.0276
154.7269, 906.1899
155.2091, 901.8275
155.6912, 896.8642
156.1733, 890.4045
156.6554, 882.4884
157.1375, 874.2358
157.6196, 866.9753
158.1018, 860.9929
158.5839, 855.2207
159.0660, 849.5920
159.5481, 844.1097
160.0302, 838.7510
160.5123, 833.5271
160.9945, 828.5310
161.4766, 823.9788
161.9587, 820.0578
162.4408, 816.3044
162.9229, 812.5071
163.4050, 808.9622
163.8871, 805.9901
164.3693, 803.6974
164.8514, 801.9486
165.3335, 800.4524
165.8156, 799.5923
166.2977, 798.4612
166.7798, 796.1191
167.2620, 793.5903
167.7441, 792.8007
168.2262, 794.9111
168.7083, 798.5059
169.1904, 799.3814
169.6725, 796.2010
170.1547, 793.3752
170.6368, 792.6988
171.1189, 793.7985
171.6010, 795.4772
172.0831, 797.4361
172.5652, 799.4944
173.0474, 801.3187
173.5295, 802.8167
174.0116, 804.2510
174.4937, 805.8245
174.9758, 807.5401
175.4579, 809.2294
175.9401, 810.8804
176.4222, 812.4348
176.9043, 813.8365
177.3864, 815.1035
177.8685, 816.1645
178.3506, 816.7902
178.8328, 816.7601
179.3149, 817.1078
179.7970, 818.2983
180.2791, 819.9539
180.7612, 821.7295
181.2433, 823.4700
181.7255, 825.4207
182.2076, 828.2956
182.6897, 833.0872
183.1718, 836.9203
183.6539, 838.5416
184.1360, 839.3425
184.6181, 840.6601
185.1003, 843.1349
185.5824, 846.5858
186.0645, 850.3783
186.5466, 855.2299
187.0287, 859.5446
187.5108, 862.5862
187.9930, 865.0999
188.4751, 867.9786
188.9572, 871.7023
189.4393, 876.1990
189.9214, 881.0648
190.4035, 887.3074
190.8857, 892.7975
191.3678, 896.9015
191.8499, 899.9791
192.3320, 902.6282
192.8141, 905.1597
193.2962, 907.5996
193.7784, 910.1866
194.2605, 913.4869
194.7426, 916.3137
195.2247, 918.1178
195.7068, 919.0928
196.1889, 919.9086
196.6711, 921.1174
197.1532, 922.3795
197.6353, 922.2654
198.1174, 919.6746
198.5995, 916.8610
199.0816, 915.2607
199.5638, 914.6708
200.0459, 913.7452
200.5280, 911.6308
201.0101, 908.5530
201.4922, 905.4974
201.9743, 902.6217
202.4565, 899.6351
202.9386, 896.2255
203.4207, 892.3781
203.9028, 888.5179
204.3849, 885.1785
204.8670, 881.8585
205.3492, 877.7977
205.8313, 872.5563
206.3134, 866.9242
206.7955, 861.9032
207.2776, 857.5885
207.7597, 853.4484
208.2419, 849.7285
208.7240, 845.8665
209.2061, 841.1508
209.6882, 835.1254
210.1703, 828.6084
210.6524, 823.0204
211.1346, 818.6614
211.6167, 814.5716
212.0988, 810.4527
212.5809, 806.4316
213.0630, 802.6934
213.5451, 799.3845
214.0273, 796.1921
214.5094, 792.3503
214.9915, 787.3211
215.4736, 782.6068
215.9557, 778.8499
216.4378, 775.3474
216.9200, 771.2345
217.4021, 766.1258
217.8842, 760.5333
218.3663, 756.0003
218.8484, 753.5543
219.3305, 750.7546
219.8127, 746.9174
220.2948, 742.7615
220.7769, 738.9332
221.2590, 735.7263
221.7411, 733.1641
222.2232, 731.3494
222.7054, 732.0424
223.1875, 731.3239
223.6696, 728.0264
224.1517, 723.5407
224.6338, 719.2911
225.1159, 715.8894
225.5980, 713.3351
226.0802, 711.6600
226.5623, 711.9474
227.0444, 711.8543
227.5265, 711.0065
228.0086, 709.7445
228.4907, 708.4231
228.9729, 707.1733
229.4550, 706.0975
229.9371, 705.5118
230.4192, 705.5800
230.9013, 705.8356
231.3834, 706.5876
231.8656, 707.4042
232.3477, 707.5224
232.8298, 706.5732
233.3119, 705.1110
233.7940, 704.2557
234.2761, 703.7498
234.7583, 704.1951
235.2404, 706.6084
235.7225, 709.9423
236.2046, 712.2727
236.6867, 712.8162
237.1688, 712.5323
237.6510, 713.2668
238.1331, 715.2589
238.6152, 716.6700
239.0973, 715.9590
239.5794, 714.2823
240.0615, 714.2985
240.5437, 717.1017
241.0258, 721.0161
241.5079, 723.9001
241.9900, 725.8129
242.4721, 727.4625
242.9542, 729.1388
243.4364, 730.7706
243.9185, 732.0094
244.4006, 732.4160
244.8827, 733.1409
245.3648, 735.5515
245.8469, 739.4265
246.3290, 743.2971
246.8112, 746.5243
247.2933, 749.1924
247.7754, 751.4938
248.2575, 753.0477
248.7396, 754.9325
249.2217, 758.3132
249.7039, 762.7642
250.1860, 766.8192
250.6681, 769.4352
251.1502, 770.9731
251.6323, 772.7774
252.1144, 774.8167
252.5966, 777.2896
253.0787, 780.6510
253.5608, 784.4827
254.0429, 787.8425
254.5250, 789.6392
255.0071, 790.5032
255.4893, 793.1391
255.9714, 798.8787
256.4535, 804.2646
256.9356, 807.7803
257.4177, 809.9733
257.8998, 811.7029
258.3820, 813.3049
258.8641, 814.8273
259.3462, 816.3721
259.8283, 817.6029
260.3104, 819.4774
260.7925, 822.9145
261.2747, 826.9119
261.7568, 830.0692
262.2389, 831.5917
262.7210, 832.0664
263.2031, 833.3273
263.6852, 836.2518
264.1674, 838.4299
264.6495, 838.9669
265.1316, 838.7333
265.6137, 838.6747
266.0958, 839.2136
266.5779, 840.0032
267.0601, 840.2275
267.5422, 839.7481
268.0243, 838.8818
268.5064, 837.9482
268.9885, 836.5988
269.4706, 834.4352
269.9528, 831.3322
270.4349, 827.6379
270.9170, 824.0258
271.3991, 820.7770
271.8812, 817.0626
272.3633, 812.8350
272.8455, 808.2178
273.3276, 803.2783
273.8097, 798.0400
274.2918, 792.5765
274.7739, 786.9355
275.2560, 780.8101
275.7382, 775.1788
276.2202, 770.1887
276.7024, 765.4541
277.1845, 760.7134
277.6666, 755.9216
278.1487, 751.2059
278.6308, 746.7087
279.1129, 742.4636
279.5951, 738.3626
280.0772, 733.9252
280.5593, 729.9803
281.0414, 727.2896
281.5235, 725.6345
282.0056, 724.0068
282.4878, 721.3373
282.9699, 717.3074
283.4520, 714.5020
283.9341, 713.3126
284.4162, 712.7490
284.8983, 712.1200
285.3805, 711.7441
285.8626, 712.6584
286.3447, 715.8672
286.8268, 721.3015
287.3089, 725.2782
287.7910, 726.3967
288.2732, 727.6874
288.7553, 729.6098
289.2374, 732.3484
289.7195, 736.1214
290.2016, 741.0967
290.6837, 747.1139
291.1659, 753.4974
291.6480, 760.7556
292.1301, 767.7300
292.6122, 774.0290
293.0943, 779.9776
293.5764, 785.9496
294.0586, 792.1345
294.5407, 798.5834
295.0228, 805.4720
295.5049, 813.1642
295.9870, 820.8932
296.4691, 828.5182
296.9513, 836.2202
297.4334, 844.1024
297.9155, 852.1804
298.3976, 860.6950
298.8797, 870.1038
299.3618, 881.5075
299.8440, 891.6992
300.3261, 899.2222
300.8082, 906.3931
301.2903, 915.4319
301.7724, 926.5938
302.2545, 938.3113
302.7367, 948.7664
303.2188, 957.4197
303.7009, 966.7094
304.1830, 977.0399
304.6651, 987.6400
305.1472, 998.1664
305.6294, 1008.541
306.1115, 1018.771
306.5936, 1028.917
307.0757, 1039.042
307.5578, 1048.141
308.0399, 1056.458
308.5221, 1063.750
309.0042, 1069.602
309.4863, 1074.308
309.9684, 1078.788
310.4505, 1083.880
310.9326, 1089.048
311.4148, 1090.106
311.8969, 1084.964
312.3790, 1078.866
312.8611, 1072.890
313.3432, 1066.802
313.8253, 1060.215
314.3075, 1053.019
314.7896, 1045.001
315.2717, 1035.472
315.7538, 1023.426
316.2359, 1011.268
316.7180, 998.6543
317.2001, 986.2487
317.6823, 975.0170
318.1644, 965.1542
318.6465, 955.7835
319.1286, 945.4564
319.6107, 933.2773
320.0928, 922.5399
320.5750, 913.4518
321.0571, 905.5498
321.5392, 898.5821
322.0213, 892.4828
322.5034, 887.1371
322.9855, 882.6049
323.4677, 879.0375
323.9498, 874.8284
324.4319, 868.8057
324.9140, 863.2996
325.3961, 859.5641
325.8782, 857.3785
326.3604, 855.8248
326.8425, 854.3361
327.3246, 852.9003
327.8067, 851.3105
328.2888, 848.8502
328.7709, 847.0735
329.2531, 846.5904
329.7352, 847.0323
330.2173, 847.9381
330.6994, 849.1276
331.1815, 850.3601
331.6636, 850.9767
332.1458, 850.3631
332.6279, 849.8672
333.1100, 849.4709
333.5921, 849.2405
334.0742, 849.1368
334.5563, 849.1795
335.0385, 849.6301
335.5206, 850.9300
336.0027, 853.6066
336.4848, 855.7972
336.9669, 857.6766
337.4490, 859.0139
337.9312, 859.7722
338.4133, 859.8856
338.8954, 859.0914
339.3775, 857.0010
339.8596, 853.4327
340.3417, 850.7984
340.8239, 850.2564
341.3060, 849.3224
341.7881, 847.3700
342.2702, 844.3346
342.7523, 840.2433
343.2344, 835.1110
343.7166, 829.0040
344.1987, 822.2853
344.6808, 814.3170
345.1629, 806.3940
345.6450, 799.4763
346.1271, 792.3674
346.6093, 783.3549
347.0914, 771.9540
347.5735, 759.5084
348.0556, 748.9576
348.5377, 742.5594
349.0198, 733.8155
349.5020, 721.0966
349.9841, 707.5911
350.4662, 695.4272
350.9483, 684.9117
351.4304, 675.1262
351.9125, 665.1127
352.3947, 654.7293
352.8768, 645.1959
353.3589, 636.4255
353.8410, 628.5927
354.3231, 622.1514
354.8052, 616.7180
355.2874, 611.4566
355.7695, 605.7651
356.2516, 599.8674
356.7337, 594.9672
357.2158, 592.0023
357.6979, 588.8060
358.1800, 584.5936
358.6621, 580.1227
359.1443, 576.2987
359.6264, 573.4474
360.1085, 571.1497
360.5906, 568.5323
361.0727, 565.1782
361.5548, 562.6310
362.0370, 561.5010
362.5191, 560.8241
363.0012, 560.1303
363.4833, 559.3181
363.9654, 558.4422
364.4475, 557.4227
364.9297, 556.2162
365.4118, 555.6427
365.8939, 556.8429
366.3760, 557.3942
366.8581, 555.7755
367.3402, 552.8310
367.8224, 550.3434
368.3045, 549.4962
368.7866, 549.7161
369.2687, 549.2706
369.7508, 547.8345
370.2329, 546.4457
370.7151, 545.6976
371.1972, 545.0545
371.6793, 543.7835
372.1614, 541.5891
372.6435, 539.4851
373.1256, 539.0494
373.6078, 540.4476
374.0899, 541.1457
374.5720, 540.3028
375.0541, 538.8174
375.5362, 537.2705
376.0183, 535.6916
376.5005, 534.0892
376.9826, 532.0897
377.4647, 530.0093
377.9468, 529.2628
378.4289, 530.6173
378.9110, 531.7772
379.3932, 530.7716
379.8753, 528.5121
380.3574, 526.6904
380.8395, 525.9709
381.3216, 525.7870
381.8037, 525.4971
382.2859, 525.0977
382.7680, 524.7555
383.2501, 524.6157
383.7322, 524.5275
384.2143, 524.2870
384.6964, 523.9132
385.1786, 523.3227
385.6607, 522.3572
386.1428, 521.1443
386.6249, 519.9706
387.1070, 518.8649
387.5891, 517.9411
388.0713, 517.5721
388.5534, 517.6959
389.0355, 517.2778
389.5176, 515.6779
389.9997, 513.7106
390.4818, 512.2157
390.9640, 511.2127
391.4461, 510.1837
391.9282, 508.6548
392.4103, 506.8292
392.8924, 505.7363
393.3745, 506.1010
393.8567, 506.3315
394.3388, 505.3616
394.8209, 503.8634
395.3030, 503.1628
395.7851, 503.7647
396.2672, 505.2664
396.7494, 507.1087
397.2315, 509.8732
397.7136, 511.4702
398.1957, 510.7751
398.6778, 509.5800
399.1599, 509.2822
399.6420, 510.0388
400.1241, 511.3612
400.6063, 512.8765
401.0884, 514.6022
401.5705, 516.1301
402.0526, 517.2872
402.5347, 518.4774
403.0168, 519.9279
403.4990, 521.4800
403.9811, 522.8015
404.4632, 523.7241
404.9453, 524.4922
405.4274, 525.6907
405.9095, 527.4675
406.3917, 529.4679
406.8738, 532.0875
407.3559, 534.6034
407.8380, 536.1761
408.3201, 536.9228
408.8022, 537.9482
409.2844, 540.4387
409.7665, 544.4711
410.2486, 548.6194
410.7307, 553.8251
411.2128, 558.0383
411.6949, 559.8851
412.1771, 560.4987
412.6592, 561.6024
413.1413, 563.9934
413.6234, 567.5022
414.1055, 572.1012
414.5876, 578.5117
415.0698, 583.8650
415.5519, 586.1077
416.0340, 587.9630
416.5161, 591.4832
416.9982, 596.8568
417.4803, 602.3669
417.9625, 606.4886
418.4446, 609.4211
418.9267, 612.5919
419.4088, 615.9388
419.8909, 619.8057
420.3730, 624.8354
420.8552, 630.4647
421.3373, 635.4631
421.8194, 639.1066
422.3015, 642.2623
422.7836, 646.0977
423.2657, 650.5912
423.7479, 654.6478
424.2300, 657.7348
424.7121, 660.2064
425.1942, 662.7639
425.6763, 665.5009
426.1584, 667.8440
426.6406, 669.1194
427.1227, 669.9691
427.6048, 671.6122
428.0869, 674.3172
428.5690, 677.1180
429.0511, 679.2220
429.5333, 680.5692
430.0154, 681.4307
430.4975, 682.4047
430.9796, 682.3297
431.4617, 679.8342
431.9438, 675.7339
432.4260, 672.1190
432.9081, 670.0207
433.3902, 668.8490
433.8723, 667.2401
434.3544, 664.9918
434.8365, 662.6033
435.3187, 660.1596
435.8008, 657.5291
436.2829, 654.5858
436.7650, 651.3342
437.2471, 647.8934
437.7292, 644.3730
438.2114, 640.7594
438.6935, 637.0775
439.1756, 632.4811
439.6577, 628.7675
440.1398, 627.0306
440.6219, 626.2203
441.1040, 624.8564
441.5862, 622.3269
442.0683, 619.3786
442.5504, 617.4874
443.0325, 617.1083
443.5146, 616.3855
443.9967, 614.8782
444.4789, 613.2341
444.9610, 611.5363
445.4431, 609.9578
445.9252, 608.9045
446.4073, 608.7947
446.8894, 609.4349
447.3716, 610.1884
447.8537, 611.2550
448.3358, 611.9190
448.8179, 611.2704
449.3000, 610.3065
449.7821, 610.2559
450.2643, 611.5535
450.7464, 612.8818
451.2285, 612.5378
451.7106, 611.0397
452.1927, 611.2208
452.6748, 614.1474
453.1570, 617.8126
453.6391, 620.0996
454.1212, 621.3183
454.6033, 622.8478
455.0854, 625.1474
455.5675, 627.7746
456.0497, 630.2849
456.5318, 632.7257
457.0139, 635.5645
457.4960, 639.1708
457.9781, 643.1730
458.4602, 646.5298
458.9424, 648.9352
459.4245, 651.4653
459.9066, 654.2310
460.3887, 657.2448
460.8708, 660.5670
461.3529, 664.1829
461.8351, 667.9646
462.3172, 671.8551
462.7993, 675.8428
463.2814, 679.5820
463.7635, 682.8948
464.2456, 686.1784
464.7278, 689.5424
465.2099, 692.9606
465.6920, 696.3770
466.1741, 699.7863
466.6562, 703.1873
467.1383, 706.6725
467.6205, 710.5182
468.1026, 713.6631
468.5847, 716.0352
469.0668, 717.7195
469.5489, 718.4894
470.0310, 718.5596
470.5132, 718.4603
470.9953, 718.6035
471.4774, 718.7171
471.9595, 718.1717
472.4416, 717.0260
472.9237, 715.0283
473.4059, 712.0428
473.8880, 708.1326
474.3701, 703.3010
474.8522, 697.5730
475.3343, 690.9899
475.8164, 683.3795
476.2986, 674.9886
476.7807, 666.3760
477.2628, 657.6906
477.7449, 648.4766
478.2270, 638.0568
478.7091, 626.7582
479.1913, 616.1485
479.6734, 606.8978
480.1555, 597.7065
480.6376, 587.9235
481.1197, 577.7181
481.6018, 567.2679
482.0839, 556.5949
482.5660, 546.1380
483.0482, 536.4880
483.5303, 527.9402
484.0124, 519.3079
484.4945, 510.5201
484.9766, 501.7425
485.4587, 492.6625
485.9409, 483.6308
486.4230, 475.4486
486.9051, 468.5484
487.3872, 462.6457
487.8693, 457.0204
488.3514, 451.7682
488.8336, 446.5389
489.3157, 441.0177
489.7978, 435.7416
490.2799, 431.0367
490.7620, 426.9396
491.2441, 423.4178
491.7263, 420.6499
492.2084, 418.4392
492.6905, 415.7608
493.1726, 412.3625
493.6547, 409.1242
494.1368, 406.7263
494.6190, 404.5405
495.1011, 401.8915
495.5832, 398.6263
496.0653, 395.2225
496.5474, 391.7865
497.0295, 388.5064
497.5117, 386.1280
497.9938, 384.9236
498.4759, 383.9268
498.9580, 382.3957
499.4401, 380.3751
499.9222, 378.2190
500.4044, 375.6608
500.8865, 373.2595
501.3686, 371.3876
501.8507, 369.8574
502.3328, 368.2161
502.8149, 366.3090
503.2971, 364.3954
503.7792, 362.8584
504.2613, 361.8027
504.7434, 360.7379
505.2255, 359.9473
505.7076, 358.8775
506.1898, 356.9634
506.6719, 354.5995
507.1540, 352.5576
507.6361, 351.2355
508.1182, 350.5093
508.6003, 350.1667
509.0825, 350.3957
509.5646, 350.5031
510.0467, 350.8446
510.5288, 350.6863
511.0109, 349.1424
511.4930, 346.6204
511.9752, 344.5908
512.4573, 344.2129
512.9394, 344.7845
513.4215, 344.6437
513.9036, 343.6714
514.3857, 342.7113
514.8679, 341.8853
515.3500, 341.3962
515.8321, 341.6440
516.3142, 342.7559
516.7963, 343.4933
517.2784, 342.9421
517.7606, 341.8824
518.2427, 341.4908
518.7248, 341.8389
519.2069, 342.1662
519.6890, 342.0077
520.1711, 341.4037
520.6533, 340.5396
521.1354, 338.8218
521.6175, 337.6613
522.0996, 337.3369
522.5817, 337.6508
523.0638, 338.7814
523.5460, 340.5370
524.0281, 341.9592
524.5102, 342.0182
524.9923, 340.7672
525.4744, 340.0787
525.9565, 340.3316
526.4387, 340.6967
526.9208, 340.8730
527.4029, 341.1394
527.8850, 341.9923
528.3671, 343.5060
528.8492, 344.8483
529.3314, 344.8531
529.8135, 343.7126
530.2956, 343.4325
530.7777, 344.5297
531.2598, 345.6486
531.7419, 345.9196
532.2241, 345.6602
532.7062, 345.2738
533.1883, 344.6208
533.6704, 344.2844
534.1525, 344.7973
534.6346, 345.9082
535.1168, 347.1462
535.5989, 348.4385
536.0810, 349.4652
536.5631, 349.7993
537.0452, 349.3992
537.5273, 349.4154
538.0095, 350.5653
538.4916, 351.2931
538.9737, 350.4385
539.4558, 348.9960
539.9379, 348.5089
540.4200, 349.4547
540.9022, 351.0860
541.3843, 352.4978
541.8664, 353.8018
542.3485, 354.2465
542.8306, 352.7213
543.3127, 351.5240
543.7948, 351.6112
544.2769, 352.4196
544.7590, 353.1061
545.2411, 353.3742
545.7233, 353.3712
546.2054, 353.2546
546.6875, 353.0219
547.1696, 352.5857
547.6517, 351.7350
548.1339, 351.0518
548.6160, 351.1322
549.0981, 351.7789
549.5802, 352.5225
550.0623, 353.7284
550.5444, 354.5229
551.0266, 353.9308
551.5087, 352.5362
551.9908, 351.9024
552.4729, 352.5441
552.9550, 353.1634
553.4371, 352.0282
553.9193, 348.7007
554.4014, 346.2452
554.8835, 345.1718
555.3656, 344.2743
555.8477, 342.9147
556.3298, 341.5111
556.8120, 340.8837
557.2941, 341.2930
557.7762, 341.9609
558.2583, 341.8039
558.7404, 340.7626
559.2225, 339.3890
559.7047, 337.4876
560.1868, 335.5260
560.6689, 333.4880
561.1510, 331.5942
561.6331, 330.2910
562.1152, 329.9131
562.5974, 329.5976
563.0795, 328.5952
563.5616, 326.9971
564.0437, 324.9350
564.5258, 322.2500
565.0079, 319.9520
565.4901, 319.1611
565.9722, 319.8096
566.4543, 319.8636
566.9364, 319.3242
567.4185, 318.2054
567.9006, 316.0452
568.3828, 313.4903
568.8649, 311.3986
569.3470, 310.0110
569.8291, 309.0591
570.3112, 308.3377
570.7933, 307.8816
571.2755, 306.9691
571.7576, 305.2467
572.2397, 303.4835
572.7218, 301.6231
573.2039, 299.9314
573.6860, 298.7853
574.1682, 298.2587
574.6503, 297.8629
575.1324, 297.0017
575.6145, 295.8493
576.0966, 295.3964
576.5787, 296.0028
577.0609, 296.0969
577.5430, 294.3626
578.0251, 291.5445
578.5072, 289.4160
578.9893, 287.9408
579.4714, 287.3167
579.9536, 288.8391
580.4357, 290.6208
580.9178, 289.6713
581.3999, 286.0522
581.8820, 282.9918
582.3641, 283.1170
582.8463, 285.7510
583.3284, 286.9339
583.8105, 285.7175
584.2926, 284.3483
584.7747, 282.8337
585.2568, 281.3595
585.7390, 279.8324
586.2211, 278.4159
586.7032, 277.6991
587.1853, 278.3991
587.6674, 279.8836
588.1495, 280.3607
588.6317, 279.6827
589.1138, 278.8885
589.5959, 278.1432
590.0780, 277.5883
590.5601, 277.3945
591.0422, 277.5541
591.5244, 277.8356
592.0065, 278.5521
592.4886, 279.0594
592.9707, 278.4436
593.4528, 277.0543
593.9349, 276.1567
594.4171, 276.3366
594.8992, 277.0702
595.3813, 277.4580
595.8634, 277.4100
596.3455, 277.2621
596.8276, 276.8662
597.3098, 276.5383
597.7919, 276.3163
598.2740, 276.2766
598.7561, 276.6090
599.2382, 277.4099
599.7203, 278.2653
600.2025, 278.6322
600.6846, 278.5208
601.1667, 278.0993
601.6488, 276.9790
602.1309, 276.3732
602.6130, 277.6831
603.0952, 280.0372
603.5773, 281.6362
604.0594, 281.9159
604.5415, 282.0719
605.0236, 282.8363
605.5057, 283.8242
605.9879, 284.2542
606.4700, 284.0792
606.9521, 284.2350
607.4342, 285.6117
607.9163, 287.9580
608.3984, 289.3637
608.8806, 288.5364
609.3627, 288.5339
609.8448, 290.4666
610.3269, 292.6485
610.8090, 293.6280
611.2911, 293.4821
611.7733, 293.3662
612.2554, 294.1735
612.7375, 295.4664
613.2196, 296.1625
613.7017, 296.1973
614.1838, 296.3802
614.6660, 297.0629
615.1481, 297.8644
615.6302, 298.3018
616.1123, 298.4062
616.5944, 298.5989
617.0765, 299.1649
617.5587, 299.6596
618.0408, 299.5674
618.5229, 299.2009
619.0050, 299.5366
619.4871, 300.8832
619.9692, 301.9550
620.4514, 300.7867
620.9335, 296.8839
621.4156, 294.4879
621.8977, 295.2477
622.3798, 295.5978
622.8619, 294.4350
623.3441, 292.4897
623.8262, 290.5890
624.3083, 288.9401
624.7904, 287.2884
625.2725, 285.4859
625.7546, 283.5184
626.2367, 281.1828
626.7188, 278.3982
627.2009, 276.1180
627.6830, 275.1030
628.1652, 274.6843
628.6473, 273.1085
629.1294, 269.7536
629.6115, 267.4408
630.0936, 267.3652
630.5757, 267.7878
631.0579, 267.6609
631.5400, 266.9374
632.0221, 265.7003
632.5042, 263.9740
632.9863, 262.2172
633.4684, 261.3883
633.9506, 261.7092
634.4327, 261.8514
634.9148, 261.7559
635.3969, 261.4530
635.8790, 260.9275
636.3611, 260.2354
636.8433, 259.4253
637.3254, 258.4293
637.8075, 257.5851
638.2896, 257.2030
638.7717, 257.1294
639.2538, 257.1328
639.7360, 257.1712
640.2181, 257.0616
640.7002, 256.6192
641.1823, 255.9766
641.6644, 255.6726
642.1465, 256.2990
642.6287, 256.4446
643.1108, 255.8067
643.5929, 254.9363
644.0750, 253.9522
644.5571, 253.0582
645.0392, 252.7146
645.5214, 253.2957
646.0035, 254.1613
646.4856, 253.9742
646.9677, 252.7421
647.4498, 252.4699
647.9319, 253.9561
648.4141, 255.5291
648.8962, 255.5928
649.3783, 254.5718
649.8604, 254.0852
650.3425, 254.8087
650.8246, 255.3279
651.3068, 254.9279
651.7889, 254.0991
652.2710, 253.3192
652.7531, 252.7224
653.2352, 252.4522
653.7173, 252.6876
654.1995, 253.2267
654.6816, 253.1424
655.1637, 252.0046
655.6458, 251.2747
656.1279, 251.2429
656.6100, 251.6531
657.0922, 252.7578
657.5743, 254.2455
658.0564, 255.1373
658.5385, 254.9537
659.0206, 254.1838
659.5027, 252.9892
659.9849, 251.5885
660.4670, 250.5580
660.9491, 250.0313
661.4312, 249.9720
661.9133, 250.4458
662.3954, 251.3941
662.8776, 251.9649
663.3597, 251.9313
663.8418, 251.8094
664.3239, 251.6723
664.8060, 251.4478
665.2881, 250.9112
665.7703, 250.1939
666.2524, 249.7911
666.7345, 250.0672
667.2166, 250.7581
667.6987, 251.4440
668.1808, 252.1228
668.6630, 252.7522
669.1451, 253.4136
669.6272, 253.7812
670.1093, 253.2696
670.5914, 252.0091
671.0735, 251.5951
671.5557, 252.9815
672.0378, 254.0739
672.5199, 253.9693
673.0020, 253.3561
673.4841, 252.8201
673.9662, 252.5499
674.4484, 252.7251
674.9305, 253.5762
675.4126, 254.8346
675.8947, 255.6861
676.3768, 256.1863
676.8589, 255.9661
677.3411, 254.2056
677.8232, 252.5423
678.3053, 252.4665
678.7874, 253.5927
679.2695, 254.5371
679.7516, 255.0786
680.2338, 255.2469
680.7159, 254.5051
681.1980, 253.6128
681.6801, 254.0302
682.1622, 255.8548
682.6443, 257.7349
683.1265, 258.5902
683.6086, 258.5497
684.0907, 258.1705
684.5728, 257.0548
685.0549, 256.4695
685.5370, 256.8613
686.0192, 257.5878
686.5013, 258.4879
686.9834, 259.4278
687.4655, 260.1213
687.9476, 260.4469
688.4297, 260.5123
688.9119, 260.0665
689.3940, 259.4884
689.8761, 259.7896
690.3582, 261.1335
690.8403, 262.7192
691.3224, 264.0013
691.8046, 264.9681
692.2867, 265.5630
692.7688, 265.4746
693.2509, 265.5145
693.7330, 265.8920
694.2151, 266.2400
694.6973, 266.1863
695.1794, 265.9379
695.6615, 266.0180
696.1436, 266.6832
696.6257, 267.6357
697.1078, 268.5055
697.5900, 269.3858
698.0721, 270.8817
698.5542, 273.1481
699.0363, 274.6903
699.5184, 274.1137
700.0005, 272.3137
700.4827, 272.4935
700.9648, 277.0497
701.4469, 279.6548
701.9290, 278.4658
702.4111, 276.9652
702.8932, 277.1925
703.3754, 278.7272
703.8575, 280.4266
704.3396, 281.8281
704.8217, 283.0395
705.3038, 284.0098
705.7859, 284.8497
706.2681, 286.1973
706.7502, 288.1746
707.2323, 290.1164
707.7144, 291.6168
708.1965, 292.8891
708.6786, 294.4843
709.1607, 296.6682
709.6428, 298.3815
710.1249, 299.1401
710.6071, 299.8346
711.0892, 301.0981
711.5713, 302.6069
712.0534, 303.5467
712.5355, 303.7029
713.0176, 304.1414
713.4998, 306.4830
713.9819, 310.2576
714.4640, 312.8491
714.9461, 314.0476
715.4282, 315.1492
715.9103, 316.6549
716.3925, 318.3664
716.8746, 319.9880
717.3567, 321.4966
717.8388, 323.0882
718.3209, 325.0511
718.8030, 326.7953
719.2852, 327.8700
719.7673, 328.6307
720.2494, 329.5213
720.7315, 330.6664
721.2136, 332.0113
721.6957, 333.4930
722.1779, 335.1424
722.6600, 337.1900
723.1421, 339.7396
723.6242, 341.8849
724.1063, 343.3614
724.5884, 344.3419
725.0706, 344.8535
725.5527, 344.9407
726.0348, 345.1530
726.5169, 345.4157
726.9990, 345.9397
727.4811, 347.1526
727.9633, 348.4402
728.4454, 349.1488
728.9275, 349.2336
729.4096, 348.9778
729.8917, 348.5179
730.3738, 347.9869
730.8560, 347.7447
731.3381, 347.8077
731.8202, 347.4720
732.3023, 346.3101
732.7844, 345.5425
733.2665, 346.6366
733.7487, 348.8106
734.2308, 349.0274
734.7129, 345.5640
735.1950, 343.4161
735.6771, 344.9150
736.1592, 346.9774
736.6414, 347.0737
737.1235, 345.6801
737.6056, 344.5065
738.0877, 344.3186
738.5698, 344.6013
739.0519, 344.8004
739.5341, 344.8824
740.0162, 344.3692
740.4983, 343.0240
740.9804, 342.1378
741.4625, 342.5778
741.9446, 343.6434
742.4268, 344.0168
742.9089, 343.5583
743.3910, 343.2100
743.8731, 343.0024
744.3552, 342.9676
744.8373, 343.3173
745.3195, 343.7620
745.8016, 343.7386
746.2837, 343.2154
746.7658, 342.9867
747.2479, 344.0521
747.7300, 345.7836
748.2122, 346.2414
748.6943, 345.4024
749.1764, 345.0485
749.6585, 345.8022
750.1406, 346.8814
750.6227, 347.5195
751.1049, 347.7251
751.5870, 347.9850
752.0691, 348.4043
752.5512, 348.7310
753.0333, 348.9208
753.5154, 348.9996
753.9976, 348.8132
754.4797, 348.5278
754.9618, 348.6810
755.4439, 349.6784
755.9260, 350.7536
756.4081, 350.6568
756.8903, 349.7346
757.3724, 349.6350
757.8545, 350.6244
758.3366, 351.1740
758.8187, 350.1886
759.3008, 348.3357
759.7830, 347.2569
760.2651, 347.0869
760.7472, 347.4121
761.2293, 349.1295
761.7114, 350.3121
762.1935, 349.5825
762.6757, 348.1290
763.1578, 347.7300
763.6399, 348.7459
764.1220, 349.6519
764.6041, 348.6754
765.0862, 347.3217
765.5684, 348.2914
766.0505, 351.1176
766.5326, 353.3322
767.0147, 354.1415
767.4968, 354.2993
767.9789, 354.5853
768.4611, 354.9966
768.9432, 355.4264
769.4253, 355.6898
769.9074, 356.2947
770.3895, 357.4604
770.8716, 358.8485
771.3538, 360.3996
771.8359, 361.9845
772.3180, 363.2501
772.8001, 363.9762
773.2822, 364.5793
773.7643, 365.0851
774.2465, 365.7702
774.7286, 367.1542
775.2107, 369.1776
775.6928, 371.3074
776.1749, 373.2609
776.6570, 375.1319
777.1392, 377.1262
777.6213, 379.2968
778.1034, 381.1678
778.5855, 382.2952
779.0676, 384.0002
779.5497, 387.3075
780.0319, 391.2460
780.5140, 394.6113
780.9961, 397.3875
781.4782, 399.7704
781.9603, 401.2506
782.4424, 402.9395
782.9246, 405.6879
783.4067, 408.9706
783.8888, 411.9438
784.3709, 414.4891
784.8530, 417.1130
785.3351, 420.2126
785.8173, 423.6734
786.2994, 427.2234
786.7815, 430.8490
787.2636, 434.6205
787.7457, 438.7421
788.2278, 442.2740
788.7100, 443.8734
789.1921, 444.4289
789.6742, 447.5587
790.1563, 455.5597
790.6384, 461.8178
791.1205, 464.0903
791.6026, 466.4516
792.0847, 471.4253
792.5668, 477.9983
793.0490, 484.3957
793.5311, 490.0736
794.0132, 495.4315
794.4953, 500.4700
794.9774, 505.5683
795.4595, 511.3814
795.9417, 517.8864
796.4238, 524.6358
796.9059, 531.4995
797.3880, 538.6467
797.8701, 546.2866
798.3522, 554.4230
798.8344, 562.3987
799.3165, 569.5336
799.7986, 577.8489
800.2807, 588.8915
800.7628, 600.0764
801.2449, 609.3721
801.7271, 617.5525
802.2092, 626.7189
802.6913, 637.5021
803.1734, 648.9030
803.6555, 659.8867
804.1376, 671.5041
804.6198, 685.4694
805.1019, 701.0499
805.5840, 716.2559
806.0661, 730.1304
806.5482, 743.2963
807.0303, 756.2979
807.5125, 769.2259
807.9946, 782.6927
808.4767, 796.8206
808.9588, 811.1056
809.4409, 825.1341
809.9230, 839.5593
810.4052, 855.2953
810.8873, 872.3401
811.3694, 888.8818
811.8515, 904.6759
812.3336, 920.2127
812.8157, 935.1139
813.2979, 950.1227
813.7800, 965.5940
814.2621, 981.5621
814.7442, 998.0809
815.2263, 1015.243
815.7084, 1032.336
816.1906, 1049.016
816.6727, 1064.802
817.1548, 1078.720
817.6369, 1090.733
818.1190, 1101.013
818.6011, 1109.569
819.0833, 1117.102
819.5654, 1124.714
820.0475, 1132.469
820.5296, 1138.662
821.0117, 1143.215
821.4938, 1146.463
821.9760, 1149.139
822.4581, 1149.885
822.9402, 1147.138
823.4223, 1141.411
823.9044, 1135.135
824.3865, 1129.459
824.8687, 1122.288
825.3508, 1111.247
825.8329, 1099.489
826.3150, 1090.871
826.7971, 1084.304
827.2792, 1075.728
827.7614, 1063.285
828.2435, 1050.045
828.7256, 1040.161
829.2077, 1032.617
829.6898, 1023.174
830.1719, 1011.781
830.6541, 1001.159
831.1362, 992.3574
831.6183, 984.6710
832.1004, 977.2899
832.5825, 970.2480
833.0646, 963.2814
833.5468, 956.3204
834.0289, 949.6243
834.5110, 943.2695
834.9931, 937.1853
835.4752, 930.6879
835.9573, 924.4623
836.4395, 920.3917
836.9216, 919.7205
837.4037, 918.6533
837.8858, 914.8736
838.3679, 909.9369
838.8500, 904.8121
839.3322, 900.0071
839.8143, 896.8464
840.2964, 895.6132
840.7785, 894.0356
841.2606, 889.3158
841.7427, 882.3633
842.2249, 876.8036
842.7070, 872.7054
843.1891, 868.9958
843.6712, 865.6272
844.1533, 861.9684
844.6354, 857.3567
845.1176, 852.0420
845.5997, 847.3185
846.0818, 844.7021
846.5639, 840.2600
847.0460, 832.4486
847.5281, 824.5308
848.0103, 817.8808
848.4924, 812.1403
848.9745, 806.6424
849.4566, 801.2584
849.9387, 796.3004
850.4208, 792.2759
850.9030, 788.4113
851.3851, 783.8562
851.8672, 778.9543
852.3493, 774.4973
852.8314, 770.5740
853.3135, 766.3065
853.7957, 760.8979
854.2778, 755.3093
854.7599, 752.2225
855.2420, 751.5580
855.7241, 749.5226
856.2062, 745.5085
856.6884, 741.1828
857.1705, 737.3535
857.6526, 733.9020
858.1347, 730.6854
858.6168, 727.9160
859.0989, 724.4163
859.5811, 719.9410
860.0632, 715.0698
860.5453, 709.3895
861.0274, 703.7538
861.5095, 699.2270
861.9916, 695.5049
862.4738, 691.1054
862.9559, 685.3126
863.4380, 679.0277
863.9201, 673.3041
864.4022, 667.1161
864.8843, 658.7883
865.3665, 648.8260
865.8486, 639.3405
866.3307, 631.2172
866.8128, 623.4232
867.2949, 614.9876
867.7770, 605.8627
868.2592, 595.3923
868.7413, 583.5685
869.2234, 572.3489
869.7055, 562.3566
870.1876, 552.6057
870.6697, 542.2982
871.1519, 531.4963
871.6340, 520.5972
872.1161, 508.9437
872.5981, 498.4502
873.0803, 490.5797
873.5624, 482.4758
874.0445, 472.3278
874.5266, 461.5375
875.0087, 452.1923
875.4908, 444.7009
875.9730, 436.8422
876.4551, 426.9514
876.9372, 417.5170
877.4193, 410.3893
877.9014, 404.4844
878.3835, 398.3995
878.8657, 391.9508
879.3478, 385.5832
879.8299, 379.5761
880.3120, 373.7027
880.7941, 367.3181
881.2762, 360.8127
881.7584, 355.6128
882.2405, 351.7559
882.7226, 348.3653
883.2047, 345.1206
883.6868, 341.7826
884.1689, 338.0359
884.6511, 333.8836
885.1332, 329.6187
885.6153, 325.1504
886.0974, 320.7623
886.5795, 316.1543
887.0616, 312.0862
887.5438, 309.7022
888.0259, 308.2553
888.5080, 305.2721
888.9901, 299.3214
889.4722, 295.1439
889.9543, 294.8658
890.4365, 294.9147
890.9186, 293.5740
891.4007, 291.3322
891.8828, 288.8084
892.3649, 286.1962
892.8470, 283.8493
893.3292, 282.0583
893.8113, 280.4969
894.2934, 278.9722
894.7755, 277.4171
895.2576, 275.6173
895.7397, 273.6542
896.2219, 272.0175
896.7040, 270.9865
897.1861, 270.0301
897.6682, 268.1871
898.1503, 265.6322
898.6324, 263.7841
899.1146, 262.6983
899.5967, 261.6538
900.0788, 260.4797
900.5609, 259.0492
901.0430, 257.0937
901.5251, 254.7962
902.0073, 253.3489
902.4894, 253.3219
902.9715, 252.9612
903.4536, 252.0423
903.9357, 250.9317
904.4178, 249.6128
904.9000, 248.2941
905.3821, 247.3900
905.8642, 246.9711
906.3463, 246.1609
906.8284, 244.0629
907.3105, 242.3609
907.7927, 242.4478
908.2748, 242.8869
908.7569, 241.9063
909.2390, 239.8369
909.7211, 238.3750
910.2032, 238.3772
910.6854, 238.5449
911.1675, 237.5258
911.6496, 235.9837
912.1317, 234.9054
912.6138, 234.3017
913.0959, 234.0625
913.5781, 234.1214
914.0602, 234.1719
914.5423, 233.9494
915.0244, 233.4647
915.5065, 232.6127
915.9886, 231.3869
916.4708, 230.7160
916.9529, 230.8582
917.4350, 230.6857
917.9171, 229.4119
918.3992, 227.7770
918.8813, 227.1449
919.3635, 227.7027
919.8456, 227.8098
920.3277, 227.3919
920.8098, 226.6471
921.2919, 224.9051
921.7740, 223.4934
922.2562, 223.8034
922.7383, 225.1871
923.2204, 225.6366
923.7025, 224.5074
924.1846, 223.5088
924.6667, 223.3990
925.1489, 223.1777
925.6310, 221.9470
926.1131, 220.3875
926.5952, 219.3802
927.0773, 219.0826
927.5594, 219.2946
928.0416, 220.3045
928.5237, 221.1193
929.0058, 220.6015
929.4879, 219.4177
929.9700, 218.5720
930.4521, 218.0972
930.9343, 217.5792
931.4164, 216.8541
931.8985, 216.3327
932.3806, 216.6859
932.8627, 217.5553
933.3448, 217.7949
933.8270, 217.4341
934.3091, 216.5819
934.7912, 215.2141
935.2733, 214.3480
935.7554, 214.8116
936.2375, 216.0008
936.7197, 216.4638
937.2018, 216.1028
937.6839, 215.5423
938.1660, 214.6669
938.6481, 213.8665
939.1302, 213.1810
939.6124, 212.7172
940.0945, 212.5936
940.5766, 212.7938
941.0587, 213.1837
941.5408, 214.0878
942.0229, 214.6749
942.5051, 214.9337
942.9872, 214.8342
943.4693, 213.9689
943.9514, 212.9410
944.4335, 212.6876
944.9156, 213.2845
945.3978, 213.6573
945.8799, 213.1658
946.3620, 212.6974
946.8441, 212.6743
947.3262, 212.9251
947.8083, 213.5186
948.2905, 214.1920
948.7726, 214.2185
949.2547, 213.3202
949.7368, 212.6783
950.2189, 213.6855
950.7010, 215.2154
951.1832, 215.6246
951.6653, 215.3455
952.1474, 215.4897
952.6295, 216.2341
953.1116, 217.1116
953.5938, 217.8288
954.0759, 218.4946
954.5580, 219.3284
955.0400, 220.2814
955.5222, 221.0217
956.0043, 221.5528
956.4864, 222.3845
956.9685, 223.7296
957.4506, 224.9923
957.9327, 225.5471
958.4149, 225.5887
958.8970, 225.8248
959.3791, 226.1385
959.8612, 227.4001
960.3433, 230.1800
960.8254, 232.5279
961.3076, 233.4091
961.7897, 233.5422
962.2718, 233.7843
962.7539, 234.1291
963.2360, 234.8494
963.7181, 236.1882
964.2003, 237.5255
964.6824, 239.0711
965.1645, 240.3179
965.6466, 240.8534
966.1287, 240.9724
966.6108, 241.1350
967.0930, 241.3748
967.5751, 241.7420
968.0572, 242.3149
968.5393, 242.9328
969.0214, 243.9226
969.5035, 244.6101
969.9857, 244.0001
970.4678, 242.6104
970.9499, 241.9204
971.4320, 242.4814
971.9141, 243.0581
972.3962, 243.4328
972.8784, 243.0278
973.3605, 240.4450
973.8426, 237.1714
974.3247, 235.8592
974.8068, 236.4356
975.2889, 236.5764
975.7711, 234.9410
976.2532, 232.8083
976.7353, 231.4216
977.2174, 230.6157
977.6995, 230.0883
978.1816, 229.8500
978.6638, 230.1091
979.1459, 230.8735
979.6280, 231.6803
980.1101, 232.1289
980.5922, 232.9792
981.0743, 233.2631
981.5565, 234.4279
982.0386, 235.3636
982.5207, 236.0482
983.0028, 237.3965
983.4849, 239.7950
983.9670, 242.6402
984.4492, 245.3212
984.9313, 247.8326
985.4134, 250.1192
985.8955, 252.1217
986.3776, 254.3390
986.8597, 256.8483
987.3419, 259.5013
987.8240, 262.2822
988.3061, 265.0593
988.7882, 267.6209
989.2703, 269.9591
989.7524, 272.5341
990.2346, 275.7855
990.7167, 278.2605
991.1988, 279.2195
991.6809, 280.1883
992.1630, 282.1741
992.6451, 284.6411
993.1273, 286.7894
993.6094, 288.7139
994.0915, 289.6252
994.5736, 288.7574
995.0557, 287.9388
995.5378, 287.6587
996.0200, 287.3915
996.5021, 287.2029
996.9842, 286.6426
997.4663, 284.6703
997.9484, 280.9356
998.4305, 277.4487
998.9127, 275.0263
999.3948, 272.5664
999.8769, 270.1170
1000.359, 267.0220
1000.841, 262.2423
1001.323, 256.3896
1001.805, 251.1402
1002.287, 247.0601
1002.770, 243.0181
1003.252, 238.4709
1003.734, 233.7316
1004.216, 228.3766
1004.698, 223.3262
1005.180, 219.9835
1005.662, 218.0826
1006.144, 216.1460
1006.627, 213.5126
1007.109, 210.8316
1007.591, 208.5699
1008.073, 206.6160
1008.555, 204.9499
1009.037, 203.4558
1009.519, 201.6973
1010.001, 199.8129
1010.483, 198.7937
1010.966, 199.3144
1011.448, 200.1856
1011.930, 199.9602
1012.412, 199.1071
1012.894, 198.4387
1013.376, 197.9811
1013.858, 197.8157
1014.340, 197.8818
1014.823, 197.5903
1015.305, 196.4628
1015.787, 195.1269
1016.269, 194.6921
1016.751, 194.9282
1017.233, 194.8993
1017.715, 194.6452
1018.197, 194.8542
1018.679, 195.7087
1019.162, 196.6088
1019.644, 197.0981
1020.126, 197.1907
1020.608, 196.7762
1021.090, 195.9136
1021.572, 195.4174
1022.054, 195.3271
1022.536, 195.3747
1023.018, 195.4955
1023.501, 195.5478
1023.983, 195.3859
1024.465, 195.0930
1024.947, 194.9054
1025.429, 194.8157
1025.911, 194.9878
1026.393, 195.5267
1026.875, 195.7862
1027.358, 195.5320
1027.840, 194.9130
1028.322, 193.9230
1028.804, 192.8132
1029.286, 192.8044
1029.768, 194.3873
1030.250, 194.9600
1030.732, 194.1216
1031.214, 193.2192
1031.697, 192.7332
1032.179, 192.3351
1032.661, 191.6080
1033.143, 190.6993
1033.625, 190.3794
1034.107, 190.9228
1034.589, 191.3910
1035.071, 191.9084
1035.553, 192.0959
1036.036, 191.5560
1036.518, 190.9253
1037.000, 190.8124
1037.482, 191.1707
1037.964, 191.7608
1038.446, 192.9805
1038.928, 193.6367
1039.410, 193.4631
1039.893, 193.0809
1040.375, 192.4537
1040.857, 191.8982
1041.339, 191.9690
1041.821, 192.4531
1042.303, 192.1298
1042.785, 189.9498
1043.267, 188.9675
1043.750, 190.4976
1044.232, 191.7581
1044.714, 190.8898
1045.196, 189.9910
1045.678, 191.8720
1046.160, 195.6940
1046.642, 197.2921
1047.124, 195.1836
1047.606, 193.3314
1048.089, 191.9564
1048.571, 191.2817
1049.053, 191.9367
1049.535, 192.9056
1050.017, 193.2640
1050.499, 193.0495
1050.981, 192.6207
1051.463, 191.7495
1051.945, 191.4458
1052.428, 192.4635
1052.910, 193.4413
1053.392, 193.8677
1053.874, 193.8830
1054.356, 193.3457
1054.838, 192.5478
1055.320, 192.4301
1055.802, 193.3992
1056.285, 194.2903
1056.767, 194.5847
1057.249, 194.9519
1057.731, 196.2032
1058.213, 197.2969
1058.695, 196.6823
1059.177, 195.0300
1059.659, 194.6682
1060.141, 196.4811
1060.624, 197.9177
1061.106, 197.7942
1061.588, 197.4425
1062.070, 197.4168
1062.552, 197.5953
1063.034, 197.7415
1063.516, 197.9758
1063.998, 198.8206
1064.480, 200.5635
1064.963, 201.6190
1065.445, 200.6862
1065.927, 199.7320
1066.409, 199.8659
1066.891, 200.4005
1067.373, 200.7288
1067.855, 200.8548
1068.337, 200.9702
1068.820, 201.1217
1069.302, 201.2367
1069.784, 200.9098
1070.266, 201.0054
1070.748, 202.6010
1071.230, 204.2824
1071.712, 204.5839
1072.194, 203.9844
1072.677, 203.6967
1073.159, 203.9859
1073.641, 204.2921
1074.123, 204.6226
1074.605, 204.5905
1075.087, 203.3329
1075.569, 202.2373
1076.051, 202.7297
1076.533, 204.2076
1077.016, 205.5220
1077.498, 206.4328
1077.980, 207.1012
1078.462, 207.7082
1078.944, 207.9296
1079.426, 207.1440
1079.908, 206.3667
1080.390, 206.5505
1080.872, 207.2453
1081.354, 207.7394
1081.837, 207.9055
1082.319, 207.8786
1082.801, 207.6245
1083.283, 207.3557
1083.765, 206.9833
1084.247, 206.8281
1084.729, 207.4423
1085.211, 208.2253
1085.694, 208.2382
1086.176, 207.5572
1086.658, 207.1266
1087.140, 207.2799
1087.622, 207.6430
1088.104, 208.4622
1088.586, 208.9887
1089.068, 208.4878
1089.551, 207.6124
1090.033, 206.9728
1090.515, 206.6853
1090.997, 206.8899
1091.479, 207.7809
1091.961, 208.4394
1092.443, 208.7232
1092.925, 208.4420
1093.407, 206.7311
1093.890, 205.0386
1094.372, 205.0924
1094.854, 206.2659
1095.336, 206.6713
1095.818, 205.8096
1096.300, 205.3488
1096.782, 206.3660
1097.264, 207.1572
1097.746, 206.9800
1098.229, 206.3887
1098.711, 205.7816
1099.193, 205.1143
1099.675, 204.0011
1100.157, 202.3945
1100.639, 201.7177
1101.121, 203.3466
1101.603, 204.4860
1102.086, 203.9165
1102.568, 203.1333
1103.050, 203.1495
1103.532, 203.4792
1104.014, 203.3355
1104.496, 202.7173
1104.978, 202.2981
1105.460, 202.4663
1105.943, 202.3740
1106.425, 201.6432
1106.907, 200.9236
1107.389, 200.5730
1107.871, 200.3236
1108.353, 199.8680
1108.835, 199.2476
1109.317, 198.7098
1109.799, 198.2965
1110.281, 197.9083
1110.764, 197.7933
1111.246, 197.3663
1111.728, 195.8852
1112.210, 194.5543
1112.692, 194.4868
1113.174, 195.2657
1113.656, 195.9327
1114.138, 196.6747
1114.621, 196.4201
1115.103, 194.1977
1115.585, 192.5681
1116.067, 192.0732
1116.549, 192.0964
1117.031, 192.5844
1117.513, 193.1453
1117.995, 193.1133
1118.478, 192.4832
1118.960, 191.8849
1119.442, 191.3629
1119.924, 190.7343
1120.406, 189.7244
1120.888, 189.1914
1121.370, 189.8166
1121.852, 190.5960
1122.334, 190.3754
1122.817, 189.2986
1123.299, 188.0774
1123.781, 186.5429
1124.263, 185.5621
1124.745, 185.2254
1125.227, 185.1893
1125.709, 185.3543
1126.191, 185.8307
1126.673, 186.8587
1127.156, 187.9830
1127.638, 187.9679
1128.120, 186.7580
1128.602, 186.1355
1129.084, 186.1631
1129.566, 186.1614
1130.048, 185.9860
1130.530, 185.9236
1131.013, 185.8108
1131.495, 186.3379
1131.977, 185.4934
1132.459, 185.5605
1132.941, 185.2562
1133.423, 184.6175
1133.905, 184.6540
1134.387, 183.6994
1134.870, 183.0196
1135.352, 183.1140
1135.834, 183.7326
1136.316, 184.7289
1136.798, 185.8317
1137.280, 186.5896
1137.762, 186.9452
1138.244, 186.3570
1138.726, 185.1153
1139.208, 184.7537
1139.691, 185.5370
1140.173, 186.3957
1140.655, 186.6806
1141.137, 186.5970
1141.619, 186.2674
1142.101, 185.8433
1142.583, 185.4006
1143.065, 185.1510
1143.548, 185.9510
1144.030, 187.4340
1144.512, 187.8107
1144.994, 186.4492
1145.476, 185.1071
1145.958, 185.5020
1146.440, 184.4017
1146.922, 185.2809
1147.405, 184.0491
1147.887, 184.1075
1148.369, 185.0172
1148.851, 185.7753
1149.333, 186.1084
1149.815, 185.9380
1150.297, 184.9505
1150.779, 184.2090
1151.261, 184.7885
1151.744, 185.3472
1152.226, 184.8598
1152.708, 183.8179
1153.190, 182.5547
1153.672, 181.3592
1154.154, 180.8866
1154.636, 181.3923
1155.118, 181.8179
1155.600, 181.7405
1156.083, 181.6868
1156.565, 182.1595
1157.047, 182.3910
1157.529, 181.5748
1158.011, 180.2982
1158.493, 179.5146
1158.975, 179.2635
1159.457, 179.0737
1159.940, 178.9950
1160.422, 178.8471
1160.904, 178.5726
1161.386, 178.3210
1161.868, 178.4532
1162.350, 178.2227
1162.832, 176.5354
1163.314, 176.5913
1163.796, 176.2487
1164.279, 175.3432
1164.761, 176.0291
1165.243, 175.2693
1165.725, 174.6817
1166.207, 174.5076
1166.689, 174.9348
1167.171, 176.3841
1167.653, 177.4916
1168.135, 176.0123
1168.618, 172.6378
1169.100, 171.5112
1169.582, 172.5966
1170.064, 172.8775
1170.546, 172.1185
1171.028, 171.3711
1171.510, 170.9849
1171.992, 170.9012
1172.474, 171.1088
1172.957, 171.4011
1173.439, 171.4998
1173.921, 171.3674
1174.403, 170.6987
1174.885, 169.7218
1175.367, 169.2885
1175.849, 169.4015
1176.331, 169.3615
1176.814, 168.8630
1177.296, 168.1478
1177.778, 167.2293
1178.260, 166.4748
1178.742, 166.4998
1179.224, 166.8125
1179.706, 166.6813
1180.188, 166.3186
1180.671, 166.3148
1181.153, 166.7038
1181.635, 167.0166
1182.117, 167.0878
1182.599, 166.9245
1183.081, 166.4572
1183.563, 165.8444
1184.045, 164.7410
1184.527, 163.9226
1185.010, 164.7273
1185.492, 166.2512
1185.974, 166.1703
1186.456, 164.0595
1186.938, 162.5127
1187.420, 162.1450
1187.902, 162.0705
1188.384, 162.7700
1188.866, 162.9617
1189.349, 161.5038
1189.831, 159.8604
1190.313, 159.7148
1190.795, 160.6276
1191.277, 160.8276
1191.759, 160.1107
1192.241, 159.5014
1192.723, 158.8305
1193.206, 159.0574
1193.688, 160.7507
1194.170, 161.7809
1194.652, 160.7183
1195.134, 159.0516
1195.616, 158.9513
1196.098, 159.9728
1196.580, 160.1278
1197.063, 159.5402
1197.545, 159.7176
1198.027, 160.6141
1198.509, 160.4635
1198.991, 158.8712
1199.473, 157.6306
1199.955, 158.0266
1200.437, 158.9556
1200.919, 158.9903
1201.401, 158.5752
1201.884, 158.3327
1202.366, 158.3108
1202.848, 158.9091
1203.330, 159.7460
1203.812, 159.4135
1204.294, 157.6705
1204.776, 156.5889
1205.258, 157.8047
1205.741, 159.1541
1206.223, 159.2554
1206.705, 158.9547
1207.187, 158.8296
1207.669, 158.7417
1208.151, 158.6035
1208.633, 158.2936
1209.115, 157.2811
1209.598, 155.1219
1210.080, 154.3541
1210.562, 156.8998
1211.044, 158.5757
1211.526, 157.7855
1212.008, 156.9194
1212.490, 157.1649
1212.972, 157.7970
1213.454, 158.0495
1213.937, 157.9335
1214.419, 157.4376
1214.901, 156.4189
1215.383, 155.7251
1215.865, 155.3564
1216.347, 155.4363
1216.829, 156.0711
1217.311, 156.4536
1217.793, 156.0942
1218.276, 155.3653
1218.758, 154.6030
1219.240, 154.0726
1219.722, 154.8589
1220.204, 156.4858
1220.686, 157.2209
1221.168, 157.1185
1221.650, 156.9661
1222.133, 156.9411
1222.615, 156.7917
1223.097, 156.4044
1223.579, 155.5908
1224.061, 153.3872
1224.543, 151.5161
1225.025, 152.2400
1225.507, 153.8071
1225.990, 154.0802
1226.472, 153.5264
1226.954, 153.4749
1227.436, 154.1095
1227.918, 154.7254
1228.400, 155.3238
1228.882, 155.4499
1229.364, 154.5526
1229.846, 153.7463
1230.328, 153.4709
1230.811, 153.4431
1231.293, 153.4443
1231.775, 153.5352
1232.257, 153.8592
1232.739, 154.4142
1233.221, 154.8573
1233.703, 155.1685
1234.185, 155.4444
1234.668, 155.6735
1235.150, 156.0582
1235.632, 156.7267
1236.114, 156.9853
1236.596, 156.2200
1237.078, 155.1045
1237.560, 154.8623
1238.042, 155.2076
1238.525, 155.2521
1239.007, 155.0482
1239.489, 154.7086
1239.971, 154.2925
1240.453, 153.9297
1240.935, 153.6527
1241.417, 153.3696
1241.899, 153.0013
1242.381, 152.6895
1242.864, 152.3049
1243.346, 152.2866
1243.828, 153.4575
1244.310, 154.8237
1244.792, 155.1322
1245.274, 154.7618
1245.756, 154.8318
1246.238, 155.4976
1246.720, 155.6774
1247.203, 154.8118
1247.685, 154.0818
1248.167, 153.4970
1248.649, 153.2011
1249.131, 153.4661
1249.613, 153.6326
1250.095, 153.0443
1250.577, 152.2741
1251.059, 152.6056
1251.542, 152.0966
1252.024, 151.6904
1252.506, 151.9461
1252.988, 151.0585
1253.470, 151.1487
1253.952, 151.4232
1254.434, 151.6069
1254.916, 151.5087
1255.399, 150.9394
1255.881, 150.5060
1256.363, 151.1403
1256.845, 152.2299
1257.327, 153.1669
1257.809, 153.7586
1258.291, 153.5688
1258.773, 152.8646
1259.255, 152.1841
1259.738, 151.6723
1260.220, 151.3492
1260.702, 151.2211
1261.184, 151.2886
1261.666, 151.7912
1262.148, 152.1719
1262.630, 152.1042
1263.112, 151.9520
1263.594, 152.0349
1264.077, 151.8522
1264.559, 151.9611
1265.041, 151.5184
1265.523, 151.2861
1266.005, 150.9417
1266.487, 151.0383
1266.969, 150.2588
1267.451, 149.6162
1267.934, 149.2371
1268.416, 149.6685
1268.898, 151.2746
1269.380, 152.8257
1269.862, 152.8200
1270.344, 151.9134
1270.826, 150.9706
1271.308, 150.2001
1271.791, 150.1311
1272.273, 150.4992
1272.755, 150.6913
1273.237, 150.6870
1273.719, 150.9407
1274.201, 151.6393
1274.683, 152.0539
1275.165, 151.4213
1275.647, 151.0769
1276.130, 151.8855
1276.612, 152.6995
1277.094, 153.0284
1277.576, 152.8490
1278.058, 151.6940
1278.540, 150.2561
1279.022, 150.7244
1279.504, 150.3081
1279.986, 150.1793
1280.469, 151.3892
1280.951, 150.5678
1281.433, 151.9382
1281.915, 152.6272
1282.397, 151.5937
1282.879, 150.3343
1283.361, 149.9915
1283.843, 150.3099
1284.326, 150.9927
1284.808, 152.0314
##END=



