##NAMES=Arseniosiderite
##RRUFFID=R150062
##IDEAL CHEMISTRY=Ca_2_Fe^3+^_3_O_2_(As^5+^O_4_)_3_&#183;3H_2_O
##LOCALITY=Benjamin Hill, Sonora, Mexico
##OWNER=RRUFF
##SOURCE=Michael Scott
##DESCRIPTION=Dark red platy crystals, associated with yellow tan colored granular aggregates of beudantite,  euhedral red sewardite and quartz
##STATUS=The identification of this mineral has been confirmed only by single crystal X-ray diffraction.
##URL=rruff.info/R150062
89.78320, 73.24129
90.26532, 72.44939
90.74744, 72.32446
91.22955, 72.93015
91.71167, 74.21994
92.19379, 76.70274
92.67590, 80.16185
93.15802, 82.78783
93.64014, 82.72832
94.12225, 80.74767
94.60437, 78.90015
95.08649, 77.65108
95.56860, 76.85737
96.05072, 76.36833
96.53284, 76.28495
97.01495, 76.18958
97.49707, 75.42009
97.97919, 73.99556
98.46130, 73.07322
98.94342, 72.98958
99.42554, 73.69473
99.90765, 74.85971
100.3898, 76.59222
100.8719, 78.55016
101.3540, 80.24699
101.8361, 81.65366
102.3182, 82.98611
102.8004, 84.26266
103.2825, 85.34343
103.7646, 86.88416
104.2467, 88.89684
104.7288, 91.31995
105.2109, 94.04853
105.6931, 97.27331
106.1752, 100.5521
106.6573, 103.7087
107.1394, 106.4031
107.6215, 109.5327
108.1036, 113.5583
108.5858, 118.1953
109.0679, 121.8311
109.5500, 123.5940
110.0321, 125.0466
110.5142, 127.0063
110.9963, 129.3387
111.4785, 132.3007
111.9606, 136.2187
112.4427, 141.0447
112.9248, 145.4985
113.4069, 149.2218
113.8890, 152.6026
114.3712, 155.9973
114.8533, 159.2216
115.3354, 162.6768
115.8175, 166.6897
116.2996, 171.4041
116.7817, 175.6891
117.2639, 178.6879
117.7460, 181.1918
118.2281, 184.2035
118.7102, 188.5271
119.1923, 193.1680
119.6744, 197.4607
120.1566, 201.2597
120.6387, 205.0960
121.1208, 209.4962
121.6029, 214.1555
122.0850, 218.4175
122.5671, 222.0024
123.0493, 224.9975
123.5314, 227.5017
124.0135, 229.5520
124.4956, 231.0506
124.9777, 231.6197
125.4598, 231.4411
125.9420, 231.2005
126.4241, 231.1876
126.9062, 231.4281
127.3883, 232.0415
127.8704, 233.2465
128.3525, 234.5721
128.8347, 235.7439
129.3168, 236.7043
129.7989, 236.4560
130.2810, 233.6994
130.7631, 228.9183
131.2452, 223.9498
131.7274, 219.1447
132.2095, 214.5107
132.6916, 209.9742
133.1737, 205.4606
133.6558, 201.3803
134.1379, 197.9102
134.6201, 195.0551
135.1022, 193.0645
135.5843, 192.1333
136.0664, 192.1776
136.5485, 192.6098
137.0306, 193.4077
137.5128, 194.6671
137.9949, 196.5323
138.4770, 199.0311
138.9591, 202.0704
139.4412, 205.8750
139.9233, 210.5081
140.4055, 214.5233
140.8876, 217.7970
141.3697, 220.5817
141.8518, 223.3115
142.3339, 226.0131
142.8160, 228.5647
143.2982, 230.8705
143.7803, 232.7549
144.2624, 234.8864
144.7445, 237.2502
145.2266, 239.8745
145.7087, 242.6858
146.1909, 245.6053
146.6730, 248.8706
147.1551, 252.6578
147.6372, 257.3854
148.1193, 261.8777
148.6014, 266.1219
149.0836, 270.1292
149.5657, 274.1294
150.0478, 279.0607
150.5299, 283.1494
151.0120, 285.6321
151.4941, 286.1472
151.9763, 285.4725
152.4584, 283.4321
152.9405, 280.1322
153.4226, 276.1164
153.9047, 270.7152
154.3868, 265.0643
154.8690, 259.7817
155.3511, 254.7247
155.8332, 250.2652
156.3153, 246.5584
156.7974, 243.5719
157.2795, 241.0336
157.7617, 238.9382
158.2438, 237.2462
158.7259, 235.9299
159.2080, 235.5433
159.6901, 235.0027
160.1722, 233.7181
160.6544, 231.7478
161.1365, 230.2879
161.6186, 229.6464
162.1007, 229.7587
162.5828, 230.5519
163.0649, 232.3856
163.5471, 234.5792
164.0292, 236.9124
164.5113, 239.3742
164.9934, 241.8051
165.4755, 243.9398
165.9576, 246.0516
166.4398, 248.4472
166.9219, 251.2420
167.4040, 254.3918
167.8861, 257.9216
168.3682, 261.8634
168.8503, 265.8766
169.3325, 269.7082
169.8146, 273.4884
170.2967, 277.3677
170.7788, 281.6660
171.2609, 286.0119
171.7430, 290.2152
172.2252, 294.3546
172.7073, 297.7632
173.1894, 299.6889
173.6715, 300.4761
174.1536, 300.8519
174.6357, 300.7693
175.1179, 300.6529
175.6000, 301.1088
176.0821, 302.2578
176.5642, 303.5473
177.0463, 304.4394
177.5284, 305.0296
178.0106, 305.5971
178.4927, 306.3780
178.9748, 307.2190
179.4569, 307.7841
179.9390, 307.9847
180.4211, 308.1578
180.9033, 308.5899
181.3854, 309.3066
181.8675, 310.3961
182.3496, 312.2894
182.8317, 314.5759
183.3138, 316.3325
183.7960, 317.3765
184.2781, 318.0687
184.7602, 318.7653
185.2423, 319.4892
185.7244, 320.3811
186.2065, 321.3064
186.6887, 322.4262
187.1708, 324.4228
187.6529, 327.4652
188.1350, 331.1836
188.6171, 334.8673
189.0992, 338.5560
189.5814, 342.5733
190.0635, 347.2345
190.5456, 352.5183
191.0277, 357.7784
191.5098, 362.9102
191.9919, 368.0950
192.4741, 373.4926
192.9562, 379.0668
193.4383, 385.1133
193.9204, 391.7259
194.4025, 398.9086
194.8846, 406.6905
195.3668, 414.9881
195.8489, 423.9809
196.3310, 434.1509
196.8131, 445.5411
197.2952, 457.7188
197.7773, 470.9088
198.2595, 485.0957
198.7416, 498.8963
199.2237, 512.3695
199.7058, 525.0284
200.1879, 535.6965
200.6700, 544.7089
201.1522, 550.6669
201.6343, 553.2020
202.1164, 552.5263
202.5985, 546.1022
203.0806, 533.3033
203.5627, 514.8151
204.0449, 492.2225
204.5270, 464.7935
205.0091, 435.6490
205.4912, 406.1171
205.9733, 375.6757
206.4554, 347.9483
206.9376, 323.2132
207.4197, 301.6062
207.9018, 282.8814
208.3839, 267.2410
208.8660, 253.9259
209.3481, 242.7588
209.8303, 233.8857
210.3124, 226.2215
210.7945, 219.6531
211.2766, 214.2348
211.7587, 210.0353
212.2408, 207.2686
212.7230, 205.2641
213.2051, 203.5618
213.6872, 202.1031
214.1693, 201.1714
214.6514, 200.9317
215.1335, 201.2395
215.6157, 201.3779
216.0978, 201.1172
216.5799, 201.1017
217.0620, 201.8197
217.5441, 203.5363
218.0262, 205.2493
218.5084, 206.9907
218.9905, 208.6799
219.4726, 209.7846
219.9547, 210.0732
220.4368, 210.2077
220.9189, 210.4765
221.4011, 210.5750
221.8832, 211.6778
222.3653, 214.1817
222.8474, 217.7690
223.3295, 221.2811
223.8116, 225.0592
224.2938, 228.1161
224.7759, 229.6813
225.2580, 229.0085
225.7401, 228.6721
226.2222, 229.2201
226.7043, 230.2436
227.1865, 229.9601
227.6686, 227.8728
228.1507, 225.2259
228.6328, 222.8012
229.1149, 221.0179
229.5970, 218.4449
230.0792, 214.7078
230.5613, 210.1196
231.0434, 206.0058
231.5255, 202.4746
232.0076, 199.3353
232.4897, 196.5735
232.9719, 194.3757
233.4540, 192.1564
233.9361, 189.8767
234.4182, 187.5518
234.9003, 185.2202
235.3824, 182.9982
235.8646, 180.6021
236.3467, 177.8601
236.8288, 174.5809
237.3109, 171.3624
237.7930, 168.1851
238.2751, 165.0676
238.7573, 162.1685
239.2394, 159.5119
239.7215, 157.0283
240.2036, 154.6338
240.6857, 152.1699
241.1678, 150.1657
241.6500, 148.7506
242.1321, 147.7630
242.6142, 146.7834
243.0963, 145.8189
243.5784, 144.8580
244.0605, 143.8743
244.5427, 142.7397
245.0248, 141.9173
245.5069, 141.5581
245.9890, 141.4512
246.4711, 141.1089
246.9532, 140.3125
247.4354, 139.6438
247.9175, 139.4038
248.3996, 139.8462
248.8817, 139.8707
249.3638, 139.2763
249.8459, 138.3820
250.3281, 137.8121
250.8102, 137.8302
251.2923, 137.7143
251.7744, 137.1676
252.2565, 136.0583
252.7386, 135.0915
253.2208, 134.2449
253.7029, 133.5583
254.1850, 133.1065
254.6671, 132.9978
255.1492, 132.9117
255.6313, 132.7852
256.1135, 132.6422
256.5956, 132.2921
257.0777, 131.7197
257.5598, 130.9555
258.0419, 130.0354
258.5240, 128.9636
259.0062, 127.7439
259.4883, 126.3591
259.9704, 124.8307
260.4525, 123.1796
260.9346, 121.4229
261.4167, 119.5492
261.8989, 117.4996
262.3810, 115.1782
262.8631, 113.0012
263.3452, 111.1674
263.8273, 109.6513
264.3094, 107.8204
264.7916, 105.4827
265.2737, 103.0971
265.7558, 101.1283
266.2379, 99.75564
266.7200, 98.23476
267.2021, 96.28628
267.6843, 94.00154
268.1664, 92.24747
268.6485, 91.17439
269.1306, 90.32194
269.6127, 89.30888
270.0948, 88.08357
270.5770, 86.92863
271.0591, 85.86887
271.5412, 84.92393
272.0233, 84.20787
272.5054, 83.80075
272.9875, 83.43201
273.4697, 82.87795
273.9518, 82.08694
274.4339, 81.43045
274.9160, 80.99895
275.3981, 80.70454
275.8802, 80.25119
276.3624, 79.60949
276.8445, 78.95352
277.3266, 78.39931
277.8087, 77.95427
278.2908, 77.49938
278.7729, 77.00851
279.2551, 76.52352
279.7372, 76.20087
280.2193, 76.07706
280.7014, 75.87021
281.1835, 75.38181
281.6656, 74.61674
282.1478, 73.90018
282.6299, 73.24113
283.1120, 72.64258
283.5941, 72.14722
284.0762, 71.76030
284.5583, 71.32631
285.0405, 70.68047
285.5226, 69.86829
286.0047, 69.35064
286.4868, 69.17857
286.9689, 69.13905
287.4510, 68.92064
287.9332, 68.53507
288.4153, 68.23026
288.8974, 68.19717
289.3795, 68.32973
289.8616, 68.17690
290.3438, 67.70293
290.8259, 67.18999
291.3080, 67.02263
291.7901, 67.13245
292.2722, 67.09370
292.7543, 66.71815
293.2365, 66.12841
293.7186, 65.56744
294.2007, 65.03901
294.6828, 64.60266
295.1649, 64.40314
295.6470, 64.35890
296.1292, 64.18125
296.6113, 63.74276
297.0934, 63.19619
297.5755, 62.78860
298.0576, 62.50702
298.5397, 62.23156
299.0219, 61.82607
299.5040, 61.36168
299.9861, 61.00115
300.4682, 60.79201
300.9503, 60.66462
301.4324, 60.53010
301.9146, 60.40198
302.3967, 60.32985
302.8788, 60.36055
303.3609, 60.46289
303.8430, 60.61611
304.3251, 60.84216
304.8073, 61.02378
305.2894, 61.03032
305.7715, 60.90578
306.2536, 60.75797
306.7357, 60.58712
307.2178, 60.44818
307.7000, 60.44001
308.1821, 60.58706
308.6642, 60.68648
309.1463, 60.54865
309.6284, 60.27129
310.1105, 60.00446
310.5927, 59.83618
311.0748, 59.68633
311.5569, 59.48615
312.0390, 59.23503
312.5211, 59.00330
313.0032, 58.87367
313.4854, 58.76648
313.9675, 58.59875
314.4496, 58.23790
314.9317, 57.90721
315.4138, 57.72489
315.8959, 57.67476
316.3781, 57.64678
316.8602, 57.47042
317.3423, 57.36988
317.8244, 57.56506
318.3065, 58.68485
318.7886, 59.27634
319.2708, 58.39884
319.7529, 56.55947
320.2350, 55.18101
320.7171, 55.10571
321.1992, 55.29203
321.6813, 55.21203
322.1635, 54.62957
322.6456, 54.16395
323.1277, 53.99761
323.6098, 54.01029
324.0919, 54.00105
324.5740, 53.87163
325.0562, 53.77671
325.5383, 53.78156
326.0204, 53.92459
326.5025, 54.02149
326.9846, 54.01484
327.4667, 53.97585
327.9489, 53.98124
328.4310, 54.17977
328.9131, 54.25748
329.3952, 54.10947
329.8773, 53.72798
330.3594, 53.47143
330.8416, 53.43896
331.3237, 53.45037
331.8058, 53.35467
332.2879, 52.89976
332.7700, 52.79211
333.2521, 53.30217
333.7343, 54.23692
334.2164, 54.61355
334.6985, 54.11376
335.1806, 53.54517
335.6627, 53.34218
336.1448, 53.61929
336.6270, 53.93189
337.1091, 54.31734
337.5912, 54.69246
338.0733, 54.84617
338.5554, 54.68738
339.0375, 54.59832
339.5197, 54.75148
340.0018, 55.15846
340.4839, 55.56847
340.9660, 55.96563
341.4481, 56.38366
341.9302, 56.87438
342.4124, 57.44930
342.8945, 57.99342
343.3766, 58.48502
343.8587, 58.91919
344.3408, 59.22997
344.8229, 59.38163
345.3051, 59.64711
345.7872, 60.38215
346.2693, 61.50488
346.7514, 62.45710
347.2335, 63.00334
347.7156, 63.46642
348.1978, 64.50610
348.6799, 66.09030
349.1620, 67.81219
349.6441, 69.53882
350.1262, 71.19423
350.6083, 72.57169
351.0905, 73.63387
351.5726, 74.51651
352.0547, 75.39229
352.5368, 76.22635
353.0189, 76.91293
353.5010, 77.36678
353.9832, 77.65848
354.4653, 77.88509
354.9474, 78.05506
355.4295, 78.08757
355.9116, 78.10569
356.3937, 77.90629
356.8759, 77.18765
357.3580, 75.42622
357.8401, 73.44951
358.3222, 71.77605
358.8043, 70.36660
359.2864, 69.07985
359.7686, 67.66589
360.2507, 66.42616
360.7328, 65.65707
361.2149, 65.60550
361.6970, 65.70755
362.1791, 65.74393
362.6613, 65.76836
363.1434, 65.90502
363.6255, 66.14723
364.1076, 66.54613
364.5897, 67.21324
365.0718, 68.30193
365.5540, 69.11402
366.0361, 69.27396
366.5182, 69.17667
367.0003, 69.29605
367.4824, 69.91786
367.9645, 70.52283
368.4467, 70.92091
368.9288, 71.08474
369.4109, 71.55883
369.8930, 72.53168
370.3751, 73.67186
370.8572, 74.75295
371.3394, 75.59473
371.8215, 76.67692
372.3036, 78.17522
372.7857, 79.93551
373.2678, 81.39397
373.7499, 82.37801
374.2321, 83.38735
374.7142, 84.65279
375.1963, 86.23972
375.6784, 87.83297
376.1605, 89.40799
376.6426, 91.00883
377.1248, 92.61842
377.6069, 94.22874
378.0890, 95.99747
378.5711, 98.01966
379.0532, 100.2625
379.5353, 102.3622
380.0175, 104.3381
380.4996, 106.1719
380.9817, 107.7744
381.4638, 109.1746
381.9459, 110.6979
382.4280, 112.4304
382.9102, 114.2702
383.3923, 116.0163
383.8744, 117.6804
384.3565, 119.2420
384.8386, 120.6058
385.3207, 121.8666
385.8029, 123.1617
386.2850, 124.5139
386.7671, 125.9190
387.2492, 127.3696
387.7313, 128.8800
388.2134, 130.4557
388.6956, 132.1736
389.1777, 133.8886
389.6598, 135.4782
390.1419, 136.9389
390.6240, 138.3442
391.1061, 139.9374
391.5883, 141.4320
392.0704, 142.5061
392.5525, 142.7487
393.0346, 143.0054
393.5167, 143.9866
393.9988, 145.3313
394.4810, 146.0387
394.9631, 145.4996
395.4452, 144.4402
395.9273, 143.2057
396.4094, 141.8549
396.8915, 140.2649
397.3737, 138.5053
397.8558, 136.4612
398.3379, 133.9914
398.8200, 130.7486
399.3021, 127.4257
399.7842, 124.1423
400.2664, 120.8990
400.7485, 117.5683
401.2306, 114.0490
401.7127, 110.5793
402.1948, 107.3147
402.6769, 104.2777
403.1591, 101.4038
403.6412, 98.71204
404.1233, 96.17844
404.6054, 93.61028
405.0875, 90.91048
405.5696, 88.53989
406.0518, 86.75452
406.5339, 85.57039
407.0160, 84.41056
407.4981, 83.25285
407.9802, 82.21784
408.4623, 81.46237
408.9445, 80.98286
409.4266, 80.64928
409.9087, 80.41089
410.3908, 80.31059
410.8729, 80.50420
411.3550, 80.98718
411.8372, 81.54543
412.3193, 81.99353
412.8014, 82.41023
413.2835, 82.98624
413.7656, 83.75910
414.2477, 84.65520
414.7299, 85.62745
415.2120, 86.66051
415.6941, 87.69091
416.1762, 88.56081
416.6583, 89.50949
417.1404, 90.83062
417.6226, 92.52249
418.1047, 94.17068
418.5868, 95.60945
419.0689, 96.86441
419.5510, 97.99325
420.0331, 99.12643
420.5153, 99.96152
420.9974, 100.3192
421.4795, 100.2809
421.9616, 100.0316
422.4437, 99.50254
422.9258, 98.87312
423.4080, 98.27898
423.8901, 97.84389
424.3722, 97.01128
424.8543, 95.34549
425.3364, 93.45412
425.8185, 91.93726
426.3007, 90.97791
426.7828, 90.10458
427.2649, 89.23813
427.7470, 88.40013
428.2291, 87.70438
428.7112, 87.14489
429.1934, 86.74605
429.6755, 86.56999
430.1576, 86.69459
430.6397, 86.59975
431.1218, 86.16713
431.6039, 85.67921
432.0861, 85.62418
432.5682, 86.03065
433.0503, 86.45980
433.5324, 86.74770
434.0145, 86.94700
434.4966, 87.22997
434.9788, 87.59754
435.4609, 88.04140
435.9430, 88.47640
436.4251, 88.98623
436.9072, 89.85098
437.3893, 91.23355
437.8715, 92.70811
438.3536, 93.83311
438.8357, 94.66064
439.3178, 95.33569
439.7999, 95.66309
440.2820, 96.04214
440.7642, 96.88815
441.2463, 98.23064
441.7284, 99.63860
442.2105, 100.9772
442.6926, 102.2296
443.1747, 103.3763
443.6569, 104.3205
444.1390, 105.2699
444.6211, 106.2477
445.1032, 107.2740
445.5853, 108.3764
446.0674, 109.6214
446.5496, 110.9007
447.0317, 112.1800
447.5138, 113.4697
447.9959, 114.7392
448.4780, 115.8945
448.9601, 117.1067
449.4423, 118.5920
449.9244, 120.5197
450.4065, 122.3195
450.8886, 123.7850
451.3707, 125.0612
451.8528, 126.9132
452.3350, 129.5500
452.8171, 132.1601
453.2992, 134.1631
453.7813, 135.5507
454.2634, 137.6596
454.7455, 140.6267
455.2277, 144.0135
455.7098, 147.1909
456.1919, 150.2314
456.6740, 153.8666
457.1561, 158.2537
457.6382, 163.3568
458.1204, 169.1390
458.6025, 175.5928
459.0846, 182.2616
459.5667, 188.8951
460.0488, 195.6235
460.5309, 202.7777
461.0131, 210.5086
461.4952, 218.0673
461.9773, 225.2843
462.4594, 231.8144
462.9415, 237.2419
463.4236, 241.6367
463.9058, 244.5917
464.3879, 246.2329
464.8700, 246.4248
465.3521, 244.3917
465.8342, 239.7409
466.3163, 232.9330
466.7985, 224.0535
467.2806, 211.8964
467.7627, 199.9170
468.2448, 188.1259
468.7269, 176.6769
469.2090, 165.6052
469.6912, 154.5835
470.1733, 144.3156
470.6554, 134.8803
471.1375, 126.3010
471.6196, 118.8827
472.1017, 112.7517
472.5839, 107.4079
473.0660, 102.4729
473.5481, 97.97057
474.0302, 93.73351
474.5123, 89.71606
474.9944, 86.05319
475.4766, 82.94712
475.9587, 80.38062
476.4408, 78.24930
476.9229, 76.75455
477.4050, 75.54733
477.8871, 73.97515
478.3693, 72.09274
478.8514, 70.39359
479.3335, 69.30560
479.8156, 68.55893
480.2977, 67.84615
480.7798, 67.10152
481.2620, 66.43054
481.7441, 65.88949
482.2262, 65.46252
482.7083, 65.12659
483.1904, 64.86545
483.6725, 64.69997
484.1547, 64.69473
484.6368, 64.83234
485.1189, 64.89280
485.6010, 64.75253
486.0831, 64.59980
486.5652, 64.54606
487.0474, 64.72657
487.5295, 64.69033
488.0116, 64.23984
488.4937, 63.71895
488.9758, 63.67847
489.4579, 64.34301
489.9401, 64.79925
490.4222, 64.80022
490.9043, 64.42889
491.3864, 64.06720
491.8685, 63.72361
492.3506, 63.31886
492.8328, 62.74972
493.3149, 62.06286
493.7970, 61.43359
494.2791, 60.85949
494.7612, 60.42002
495.2433, 60.37300
495.7255, 60.53524
496.2076, 60.42846
496.6897, 59.69923
497.1718, 58.80382
497.6539, 58.14094
498.1360, 57.68434
498.6182, 57.31914
499.1003, 57.10867
499.5824, 56.88739
500.0645, 56.52359
500.5466, 55.95744
501.0287, 55.43071
501.5109, 55.08214
501.9930, 54.77390
502.4751, 54.37272
502.9572, 53.81865
503.4393, 53.21742
503.9214, 52.50634
504.4036, 51.75666
504.8857, 51.14382
505.3678, 50.42005
505.8499, 50.28279
506.3320, 51.40165
506.8141, 53.96962
507.2963, 54.69767
507.7784, 53.15466
508.2605, 50.92924
508.7426, 49.55265
509.2247, 48.98232
509.7068, 48.52411
510.1890, 47.95360
510.6711, 47.61848
511.1532, 48.49704
511.6353, 50.30024
512.1174, 51.62057
512.5995, 51.34535
513.0817, 50.40527
513.5638, 49.82436
514.0459, 49.62756
514.5280, 49.68020
515.0101, 49.97321
515.4922, 50.43848
515.9744, 51.01271
516.4565, 51.70051
516.9386, 52.46741
517.4207, 53.27891
517.9028, 54.16750
518.3849, 55.18628
518.8671, 56.35888
519.3492, 57.65158
519.8313, 59.12668
520.3134, 60.75346
520.7955, 62.24702
521.2776, 63.44827
521.7598, 64.75649
522.2419, 66.39353
522.7240, 68.41306
523.2061, 70.52700
523.6882, 72.76571
524.1703, 75.04408
524.6525, 77.19616
525.1346, 79.24819
525.6167, 81.45950
526.0988, 83.76683
526.5809, 86.39411
527.0630, 90.25491
527.5452, 95.04136
528.0273, 99.07308
528.5094, 100.8549
528.9915, 101.6322
529.4736, 102.7808
529.9557, 104.4129
530.4379, 106.1758
530.9200, 108.0558
531.4021, 109.8864
531.8842, 111.5202
532.3663, 112.9989
532.8484, 114.1606
533.3306, 114.7910
533.8127, 115.0820
534.2948, 115.4267
534.7769, 116.3578
535.2590, 116.7767
535.7411, 116.4561
536.2233, 115.4077
536.7054, 113.6936
537.1875, 111.0559
537.6696, 108.2847
538.1517, 105.8780
538.6339, 103.8880
539.1160, 101.8020
539.5981, 99.54343
540.0802, 97.35973
540.5623, 95.62123
541.0444, 94.24772
541.5266, 92.72229
542.0087, 90.76788
542.4908, 88.71526
542.9729, 87.09205
543.4550, 85.83094
543.9371, 84.60943
544.4193, 83.21188
544.9014, 81.78609
545.3835, 80.47961
545.8656, 79.31299
546.3477, 78.08603
546.8298, 76.57099
547.3120, 75.02349
547.7941, 73.66866
548.2762, 72.73489
548.7583, 71.71421
549.2404, 70.52018
549.7225, 69.23081
550.2047, 67.96249
550.6868, 66.66122
551.1689, 65.48399
551.6510, 64.49691
552.1331, 63.67564
552.6152, 62.89778
553.0974, 62.16723
553.5795, 61.46515
554.0616, 60.79035
554.5437, 60.13811
555.0258, 59.46581
555.5079, 58.76258
555.9901, 58.08974
556.4722, 57.48019
556.9543, 56.94363
557.4364, 56.50837
557.9185, 56.22252
558.4006, 55.97367
558.8828, 55.65856
559.3649, 55.30908
559.8470, 54.99255
560.3291, 54.79252
560.8112, 54.57822
561.2933, 54.24249
561.7755, 53.78009
562.2576, 53.44898
562.7397, 53.28774
563.2218, 53.27084
563.7039, 53.43280
564.1860, 53.97610
564.6682, 54.13161
565.1503, 53.71723
565.6324, 53.14605
566.1145, 53.01164
566.5966, 53.37598
567.0787, 53.57272
567.5609, 53.40465
568.0430, 53.05933
568.5251, 52.94337
569.0072, 53.03463
569.4893, 53.16084
569.9714, 53.22253
570.4536, 53.26608
570.9357, 53.34861
571.4178, 53.47149
571.8999, 53.64277
572.3820, 53.93866
572.8641, 54.24293
573.3463, 54.43852
573.8284, 54.46568
574.3105, 54.49485
574.7926, 54.59048
575.2747, 54.71068
575.7568, 54.80189
576.2390, 54.82275
576.7211, 54.86594
577.2032, 54.95968
577.6853, 55.08189
578.1674, 55.14914
578.6495, 55.14478
579.1317, 55.13275
579.6138, 55.11588
580.0959, 55.10638
580.5780, 55.23565
581.0601, 55.51784
581.5422, 55.79816
582.0244, 55.89862
582.5065, 55.90222
582.9886, 56.06084
583.4707, 56.45353
583.9528, 56.76397
584.4349, 56.52491
584.9171, 56.06752
585.3992, 55.88698
585.8813, 56.46666
586.3634, 57.02118
586.8455, 57.21530
587.3276, 57.13441
587.8098, 57.00055
588.2919, 56.76377
588.7740, 56.57330
589.2561, 56.49197
589.7382, 56.52221
590.2203, 56.48637
590.7025, 56.31820
591.1846, 56.20291
591.6667, 56.30208
592.1488, 56.63910
592.6309, 56.85260
593.1130, 56.91789
593.5952, 56.91291
594.0773, 56.94016
594.5594, 56.98034
595.0415, 56.93589
595.5236, 56.71812
596.0057, 56.53127
596.4879, 56.66235
596.9700, 57.00352
597.4521, 57.30107
597.9342, 57.42849
598.4163, 57.48830
598.8984, 57.50362
599.3806, 57.48593
599.8627, 57.51746
600.3448, 57.68825
600.8269, 57.85033
601.3090, 57.91498
601.7911, 57.82581
602.2733, 57.87799
602.7554, 58.16009
603.2375, 58.45846
603.7196, 58.52791
604.2017, 58.33374
604.6838, 58.29626
605.1660, 58.50152
605.6481, 58.79663
606.1302, 58.89938
606.6123, 58.85928
607.0944, 58.91251
607.5765, 59.23275
608.0587, 59.60334
608.5408, 59.73656
609.0229, 59.69545
609.5050, 59.71161
609.9871, 59.90344
610.4692, 60.18929
610.9514, 60.56374
611.4335, 61.03624
611.9156, 61.41029
612.3977, 61.57404
612.8798, 61.68125
613.3619, 61.81384
613.8441, 61.96171
614.3262, 62.17498
614.8083, 62.49216
615.2904, 62.82524
615.7725, 62.99326
616.2546, 62.97313
616.7368, 63.24911
617.2189, 64.03874
617.7010, 64.96128
618.1831, 65.26623
618.6652, 65.07753
619.1473, 64.88753
619.6295, 64.87340
620.1116, 65.01638
620.5937, 65.32860
621.0758, 65.79118
621.5579, 66.32497
622.0400, 66.94898
622.5222, 67.57516
623.0043, 68.18562
623.4864, 68.80748
623.9685, 69.23450
624.4506, 69.24426
624.9327, 69.22417
625.4149, 69.44620
625.8970, 70.02052
626.3791, 70.48242
626.8612, 70.76934
627.3433, 71.01987
627.8254, 71.50669
628.3076, 72.20947
628.7897, 72.65231
629.2718, 72.60728
629.7539, 72.42590
630.2360, 72.72398
630.7181, 73.36886
631.2003, 73.93736
631.6824, 74.20300
632.1645, 74.32194
632.6466, 74.27860
633.1287, 74.13488
633.6108, 74.25912
634.0930, 75.15211
634.5751, 76.03288
635.0572, 76.44444
635.5393, 76.24564
636.0214, 76.24398
636.5035, 76.51929
636.9857, 76.89500
637.4678, 77.28361
637.9499, 77.71638
638.4320, 77.87460
638.9141, 77.65788
639.3962, 77.38856
639.8784, 77.57699
640.3605, 78.11066
640.8426, 78.49493
641.3247, 78.52979
641.8068, 78.47318
642.2889, 78.61021
642.7711, 78.87208
643.2532, 79.10545
643.7353, 79.20448
644.2174, 79.29367
644.6995, 79.51524
645.1816, 79.81902
645.6638, 79.87449
646.1459, 79.23746
646.6280, 78.75123
647.1101, 78.74949
647.5922, 79.26625
648.0743, 79.66594
648.5565, 79.95630
649.0386, 80.09750
649.5207, 80.00687
650.0028, 79.71035
650.4849, 79.40180
650.9670, 79.08239
651.4492, 78.84734
651.9313, 78.89384
652.4134, 79.08344
652.8955, 79.13628
653.3776, 78.90665
653.8597, 78.70110
654.3419, 78.85133
654.8240, 79.11784
655.3061, 79.13071
655.7882, 78.50978
656.2703, 77.95023
656.7524, 77.66166
657.2346, 77.54769
657.7167, 77.30611
658.1988, 76.84836
658.6809, 76.47664
659.1630, 76.36301
659.6451, 76.42580
660.1273, 76.14888
660.6094, 75.51308
661.0915, 74.81091
661.5736, 74.13220
662.0557, 73.54542
662.5378, 73.25966
663.0200, 73.28195
663.5021, 73.27254
663.9842, 72.90689
664.4663, 72.44268
664.9484, 72.14391
665.4305, 72.13064
665.9127, 72.05602
666.3948, 71.86044
666.8769, 71.54945
667.3590, 71.13815
667.8411, 70.65224
668.3232, 69.98589
668.8054, 69.00789
669.2875, 67.99174
669.7696, 67.51600
670.2517, 67.59328
670.7338, 67.52313
671.2159, 67.03449
671.6981, 66.37593
672.1802, 66.02266
672.6623, 65.88908
673.1444, 65.65524
673.6265, 64.97011
674.1086, 64.27724
674.5908, 64.02836
675.0729, 64.13692
675.5550, 63.98524
676.0371, 63.15382
676.5192, 62.22551
677.0013, 61.38526
677.4835, 60.61425
677.9656, 60.17647
678.4477, 60.23108
678.9298, 60.32465
679.4119, 60.10639
679.8940, 59.56994
680.3762, 59.21195
680.8583, 59.07776
681.3404, 58.90172
681.8225, 58.24799
682.3046, 57.37254
682.7867, 56.83913
683.2689, 56.85866
683.7510, 56.92205
684.2331, 56.64752
684.7152, 56.20684
685.1973, 55.82457
685.6794, 55.62335
686.1616, 55.40539
686.6437, 55.15728
687.1258, 54.86449
687.6079, 54.47908
688.0900, 53.93084
688.5721, 53.48450
689.0543, 53.20973
689.5364, 53.07947
690.0185, 53.06565
690.5006, 53.16145
690.9827, 53.18256
691.4648, 53.01317
691.9470, 52.72225
692.4291, 52.35096
692.9112, 51.92710
693.3933, 51.60609
693.8754, 51.66989
694.3575, 51.70683
694.8397, 51.37469
695.3218, 50.60861
695.8039, 50.03221
696.2860, 49.86461
696.7681, 49.77617
697.2502, 49.61032
697.7324, 49.35665
698.2145, 49.07849
698.6966, 48.77124
699.1787, 48.45317
699.6608, 48.15343
700.1429, 47.86304
700.6251, 47.50305
701.1072, 47.04623
701.5893, 46.61591
702.0714, 46.38448
702.5535, 46.24240
703.0356, 46.01963
703.5178, 45.59320
703.9999, 45.21406
704.4820, 45.01209
704.9641, 44.90751
705.4462, 44.77312
705.9283, 44.58398
706.4105, 44.39348
706.8926, 44.21796
707.3747, 44.03888
707.8568, 43.79825
708.3389, 43.48914
708.8210, 43.19670
709.3032, 42.92994
709.7853, 42.71651
710.2674, 42.64447
710.7495, 42.68714
711.2316, 42.73471
711.7137, 42.78030
712.1959, 42.76498
712.6780, 42.57685
713.1601, 42.25189
713.6422, 42.05455
714.1243, 42.22313
714.6064, 42.37207
715.0886, 42.32163
715.5707, 42.06321
716.0528, 41.90318
716.5349, 41.85957
717.0170, 41.86547
717.4991, 41.91286
717.9813, 41.98613
718.4634, 41.95970
718.9455, 41.82931
719.4276, 41.63008
719.9097, 41.32170
720.3918, 40.99258
720.8740, 40.76453
721.3561, 40.65710
721.8382, 40.62565
722.3203, 40.65424
722.8024, 40.74514
723.2845, 40.91160
723.7667, 41.32763
724.2488, 41.49230
724.7309, 41.26090
725.2130, 40.93309
725.6951, 40.88605
726.1772, 41.14236
726.6594, 41.33279
727.1415, 41.39526
727.6236, 41.38684
728.1057, 41.31500
728.5878, 41.23454
729.0699, 41.30997
729.5521, 41.75671
730.0342, 42.11556
730.5163, 41.95445
730.9984, 41.51332
731.4805, 41.21978
731.9626, 41.23185
732.4448, 41.34615
732.9269, 41.58780
733.4090, 41.88916
733.8911, 42.03168
734.3732, 41.95529
734.8553, 41.96884
735.3375, 42.20349
735.8196, 42.56395
736.3017, 42.79982
736.7838, 42.92838
737.2659, 43.05492
737.7480, 43.27448
738.2302, 43.48994
738.7123, 43.59041
739.1944, 43.59852
739.6765, 43.63146
740.1586, 43.72705
740.6407, 43.86164
741.1229, 44.04454
741.6050, 44.27243
742.0871, 44.43252
742.5692, 44.45707
743.0513, 44.57542
743.5334, 44.93183
744.0156, 45.50261
744.4977, 46.08879
744.9798, 46.69287
745.4619, 47.27481
745.9440, 47.77664
746.4261, 48.24459
746.9083, 48.73864
747.3904, 49.26406
747.8725, 49.80537
748.3546, 50.39185
748.8367, 50.95777
749.3188, 51.40921
749.8010, 51.60998
750.2831, 52.16672
750.7652, 53.17399
751.2473, 54.39347
751.7294, 55.70327
752.2115, 57.09072
752.6937, 58.41330
753.1758, 59.67009
753.6579, 60.84459
754.1400, 61.76853
754.6221, 62.64729
755.1042, 63.88930
755.5864, 65.65502
756.0685, 67.40075
756.5506, 68.74585
757.0327, 69.96851
757.5148, 71.30595
757.9969, 72.79259
758.4791, 74.45338
758.9612, 76.37570
759.4433, 78.37460
759.9254, 80.16343
760.4075, 81.74368
760.8896, 83.45025
761.3718, 85.39323
761.8539, 87.28657
762.3360, 88.69274
762.8181, 89.77347
763.3002, 90.86893
763.7823, 92.14615
764.2645, 93.36353
764.7466, 94.48770
765.2287, 95.43491
765.7108, 96.10631
766.1929, 96.30359
766.6750, 96.46544
767.1572, 96.62727
767.6393, 96.77332
768.1214, 96.90761
768.6035, 97.03980
769.0856, 96.95759
769.5677, 96.49852
770.0499, 96.00389
770.5320, 96.10023
771.0141, 96.59107
771.4962, 96.97424
771.9783, 96.99040
772.4604, 96.88902
772.9426, 96.88342
773.4247, 96.85091
773.9068, 96.49197
774.3889, 95.51546
774.8710, 94.58131
775.3531, 93.81446
775.8353, 93.15674
776.3174, 92.41790
776.7995, 91.59740
777.2816, 90.85386
777.7637, 90.24380
778.2458, 89.74912
778.7280, 89.42060
779.2101, 89.19312
779.6922, 88.86473
780.1743, 88.30859
780.6564, 87.65181
781.1385, 86.85765
781.6207, 85.98727
782.1028, 85.32524
782.5849, 84.97292
783.0670, 84.66792
783.5491, 84.31211
784.0313, 83.95837
784.5134, 83.93577
784.9955, 84.25272
785.4776, 84.26631
785.9597, 83.46277
786.4418, 82.32462
786.9240, 81.59415
787.4061, 81.19900
787.8882, 80.88502
788.3703, 80.75107
788.8524, 80.45985
789.3345, 79.73064
789.8167, 78.63053
790.2988, 77.78053
790.7809, 77.33450
791.2630, 76.86113
791.7451, 76.17467
792.2272, 75.35348
792.7094, 74.67223
793.1915, 74.13540
793.6736, 73.71098
794.1557, 73.42956
794.6378, 73.22614
795.1199, 73.08522
795.6021, 72.97336
796.0842, 72.73315
796.5663, 72.01589
797.0484, 71.42702
797.5305, 71.34483
798.0126, 71.69824
798.4948, 71.85752
798.9769, 71.74467
799.4590, 71.62442
799.9411, 71.59621
800.4232, 71.65023
800.9053, 71.72781
801.3875, 71.83835
801.8696, 72.07136
802.3517, 72.57002
802.8338, 73.15835
803.3159, 73.69579
803.7980, 74.17458
804.2802, 74.56956
804.7623, 74.85548
805.2444, 75.06670
805.7265, 75.17700
806.2086, 75.20704
806.6907, 75.32679
807.1729, 75.52187
807.6550, 75.88216
808.1371, 76.61841
808.6192, 77.48325
809.1013, 77.73598
809.5834, 77.46435
810.0656, 77.16870
810.5477, 77.12386
811.0298, 77.17782
811.5119, 77.23643
811.9940, 77.30019
812.4761, 77.39560
812.9583, 77.31283
813.4404, 77.55028
813.9225, 78.37165
814.4046, 79.65188
814.8867, 80.73435
815.3688, 81.61474
815.8510, 82.20860
816.3331, 82.13866
816.8152, 81.94628
817.2973, 82.62942
817.7794, 84.01957
818.2615, 85.44740
818.7437, 86.54371
819.2258, 87.61401
819.7079, 88.83110
820.1900, 90.17522
820.6721, 91.40301
821.1542, 92.41631
821.6364, 93.54621
822.1185, 94.94234
822.6006, 96.50842
823.0827, 97.98918
823.5648, 99.39500
824.0469, 100.9098
824.5291, 102.6732
825.0112, 104.5527
825.4933, 106.4363
825.9754, 108.3480
826.4575, 110.3853
826.9396, 112.7297
827.4218, 115.0255
827.9039, 117.0713
828.3860, 119.0088
828.8681, 121.3247
829.3502, 124.1432
829.8323, 126.7291
830.3145, 128.8249
830.7966, 130.5633
831.2787, 132.0840
831.7608, 133.4556
832.2429, 134.8431
832.7250, 136.6920
833.2072, 138.2258
833.6893, 139.0183
834.1714, 139.1861
834.6535, 139.0345
835.1356, 138.8167
835.6177, 137.9059
836.0999, 136.0159
836.5820, 133.5197
837.0641, 131.2270
837.5462, 129.1124
838.0283, 126.8764
838.5104, 124.3631
838.9926, 121.7984
839.4747, 119.3979
839.9568, 117.1382
840.4389, 114.9445
840.9210, 112.5481
841.4031, 110.5349
841.8853, 108.9435
842.3674, 107.8623
842.8495, 107.5390
843.3316, 108.0973
843.8137, 108.7839
844.2958, 109.4577
844.7780, 110.2735
845.2601, 111.3721
845.7422, 112.7948
846.2243, 114.6692
846.7064, 117.0435
847.1885, 119.8360
847.6707, 123.1907
848.1528, 126.8504
848.6349, 130.5232
849.1170, 133.9515
849.5991, 137.7066
850.0812, 141.7055
850.5634, 146.1963
851.0455, 151.7271
851.5276, 158.1603
852.0097, 164.3598
852.4918, 170.1558
852.9739, 176.0883
853.4561, 182.6664
853.9382, 189.6587
854.4203, 196.8923
854.9024, 204.5837
855.3845, 211.7200
855.8666, 218.4277
856.3488, 224.3360
856.8309, 229.0906
857.3130, 232.7306
857.7951, 235.4254
858.2772, 237.2319
858.7593, 237.5141
859.2415, 235.6496
859.7236, 231.8964
860.2057, 226.2392
860.6878, 218.7182
861.1699, 210.9770
861.6520, 203.7317
862.1342, 196.5277
862.6163, 188.8829
863.0984, 180.8203
863.5805, 173.1624
864.0626, 165.9474
864.5447, 159.1630
865.0269, 152.7897
865.5090, 146.8220
865.9911, 141.5293
866.4732, 136.8808
866.9553, 132.4857
867.4374, 127.9954
867.9196, 123.8120
868.4017, 120.4601
868.8838, 117.8317
869.3659, 115.0674
869.8480, 111.8605
870.3301, 108.9120
870.8123, 106.3618
871.2944, 104.2163
871.7765, 102.5873
872.2586, 101.4452
872.7407, 100.2520
873.2228, 98.68159
873.7050, 97.07781
874.1871, 95.76008
874.6692, 94.68809
875.1513, 93.75476
875.6334, 92.89442
876.1155, 92.24537
876.5977, 91.89609
877.0798, 91.70937
877.5619, 91.39007
878.0440, 90.91251
878.5261, 90.71046
879.0082, 90.92946
879.4904, 91.28844
879.9725, 91.42109
880.4546, 91.43382
880.9367, 91.49438
881.4188, 91.57963
881.9009, 91.86973
882.3831, 92.54927
882.8652, 93.40128
883.3473, 94.17608
883.8294, 94.83158
884.3115, 95.58083
884.7936, 96.40791
885.2758, 97.41787
885.7579, 98.87968
886.2400, 100.5753
886.7221, 101.9335
887.2042, 102.8560
887.6863, 103.9300
888.1685, 105.5136
888.6506, 107.3636
889.1327, 109.3142
889.6148, 111.3498
890.0969, 113.5697
890.5790, 115.9817
891.0612, 118.6092
891.5433, 121.5170
892.0254, 124.6485
892.5075, 127.6984
892.9896, 130.7125
893.4717, 133.9431
893.9539, 137.6586
894.4360, 141.5954
894.9181, 145.5187
895.4002, 149.5039
895.8823, 153.8649
896.3644, 158.8468
896.8466, 163.7791
897.3287, 168.3986
897.8108, 172.9720
898.2929, 178.3304
898.7750, 184.4151
899.2571, 191.0003
899.7393, 198.2745
900.2214, 205.5882
900.7035, 212.1397
901.1856, 218.3623
901.6677, 224.8433
902.1498, 231.9235
902.6320, 239.1187
903.1141, 246.4237
903.5962, 253.8457
904.0783, 261.3203
904.5604, 268.8853
905.0425, 276.2859
905.5247, 283.5083
906.0068, 290.4354
906.4889, 297.3562
906.9710, 303.7080
907.4531, 308.8520
907.9352, 312.6823
908.4174, 315.4830
908.8995, 317.5397
909.3816, 318.3919
909.8637, 317.7858
910.3458, 315.7193
910.8279, 312.2164
911.3101, 307.2772
911.7922, 300.8472
912.2743, 291.9461
912.7564, 282.1643
913.2385, 273.0209
913.7206, 264.5807
914.2028, 256.7155
914.6849, 249.2361
915.1670, 242.5344
915.6491, 236.5881
916.1312, 231.5214
916.6133, 227.9089
917.0955, 225.7543
917.5776, 224.4399
918.0597, 223.7144
918.5418, 223.7191
919.0239, 224.4342
919.5060, 226.0503
919.9882, 228.9071
920.4703, 233.2001
920.9524, 238.7318
921.4345, 245.5900
921.9166, 253.4334
922.3987, 261.6144
922.8809, 270.0710
923.3630, 280.5455
923.8451, 293.3623
924.3272, 307.7723
924.8093, 322.5686
925.2914, 338.5546
925.7736, 356.4155
926.2557, 376.2976
926.7378, 398.4563
927.2199, 423.4629
927.7020, 450.1472
928.1841, 478.1904
928.6663, 507.4877
929.1484, 537.1817
929.6305, 567.5131
930.1126, 598.1855
930.5947, 629.8696
931.0768, 661.7367
931.5590, 692.0071
932.0411, 721.4039
932.5232, 751.0189
933.0053, 781.5173
933.4874, 812.7332
933.9695, 845.1910
934.4517, 878.1556
934.9338, 910.8788
935.4159, 943.1162
935.8980, 975.0217
936.3801, 1006.445
936.8622, 1036.342
937.3444, 1064.800
937.8265, 1089.753
938.3086, 1108.895
938.7907, 1124.347
939.2728, 1127.728
939.7549, 1117.823
940.2371, 1095.718
940.7192, 1060.790
941.2013, 1012.979
941.6834, 955.4858
942.1655, 888.3620
942.6476, 817.2925
943.1298, 743.8364
943.6119, 672.0667
944.0940, 604.9639
944.5761, 542.3213
945.0582, 485.7143
945.5403, 436.1577
946.0225, 392.0393
946.5046, 353.2887
946.9867, 319.7122
947.4688, 289.9688
947.9509, 264.3571
948.4330, 241.7626
948.9152, 222.0993
949.3973, 204.8220
949.8794, 189.8177
950.3615, 176.7322
950.8436, 164.8905
951.3257, 154.5224
951.8079, 145.1764
952.2900, 136.9735
952.7721, 129.5873
953.2542, 122.6620
953.7363, 116.2053
954.2184, 110.2430
954.7006, 104.7476
955.1827, 99.90195
955.6648, 96.15972
956.1469, 92.82861
956.6290, 89.28551
957.1111, 85.38565
957.5933, 81.99235
958.0754, 79.30091
958.5575, 76.75803
959.0396, 74.06933
959.5217, 71.36938
960.0038, 69.16975
960.4860, 67.38786
960.9681, 65.58792
961.4502, 63.28680
961.9323, 61.17530
962.4144, 59.84010
962.8965, 58.97408
963.3787, 57.90696
963.8608, 56.46838
964.3429, 55.18333
964.8250, 54.13236
965.3071, 53.18185
965.7892, 52.17717
966.2714, 51.13891
966.7535, 50.05813
967.2356, 48.91601
967.7177, 47.94755
968.1998, 47.49914
968.6819, 47.11056
969.1641, 46.41214
969.6462, 45.35523
970.1283, 44.59887
970.6104, 44.18618
971.0925, 43.77760
971.5746, 43.10693
972.0568, 42.34242
972.5389, 41.81182
973.0210, 41.45095
973.5031, 41.06435
973.9852, 40.53265
974.4673, 40.00602
974.9495, 39.50029
975.4316, 39.03903
975.9137, 38.67819
976.3958, 38.42200
976.8779, 38.24694
977.3600, 38.18665
977.8422, 38.04160
978.3243, 37.40970
978.8064, 36.65631
979.2885, 36.32021
979.7706, 36.62002
980.2527, 36.66189
980.7349, 36.15010
981.2170, 35.56166
981.6991, 35.11566
982.1812, 34.81020
982.6633, 34.73566
983.1454, 34.86308
983.6276, 34.87016
984.1097, 34.38321
984.5918, 33.87007
985.0739, 33.78464
985.5560, 33.95058
986.0381, 33.87289
986.5203, 33.35026
987.0024, 32.94093
987.4845, 32.73158
987.9666, 32.62752
988.4487, 32.53029
988.9308, 32.42474
989.4130, 32.25782
989.8951, 32.01640
990.3772, 31.75008
990.8593, 31.49251
991.3414, 31.21663
991.8235, 30.86694
992.3057, 30.43060
992.7878, 30.20963
993.2699, 30.24246
993.7520, 30.23977
994.2341, 30.03703
994.7162, 29.70697
995.1984, 29.26916
995.6805, 28.80575
996.1626, 28.55372
996.6447, 28.88364
997.1268, 29.06791
997.6089, 28.90592
998.0911, 28.56405
998.5732, 28.22946
999.0553, 27.90161
999.5374, 27.74282
1000.020, 27.79204
1000.502, 27.86115
1000.984, 27.80719
1001.466, 27.66922
1001.948, 27.43969
1002.430, 27.10369
1002.912, 26.94410
1003.394, 27.11712
1003.876, 27.18342
1004.359, 26.90574
1004.841, 26.42541
1005.323, 26.17212
1005.805, 26.10846
1006.287, 26.09448
1006.769, 26.12386
1007.251, 26.11395
1007.733, 26.00259
1008.216, 25.83415
1008.698, 25.66920
1009.180, 25.49557
1009.662, 25.37120
1010.144, 25.30316
1010.626, 25.26408
1011.108, 25.27987
1011.590, 25.28263
1012.072, 25.13208
1012.555, 24.82967
1013.037, 24.58962
1013.519, 24.50247
1014.001, 24.48022
1014.483, 24.52965
1014.965, 24.60736
1015.447, 24.56701
1015.929, 24.41420
1016.411, 24.18119
1016.894, 23.80663
1017.376, 23.52682
1017.858, 23.67098
1018.340, 23.97816
1018.822, 24.11503
1019.304, 23.95243
1019.786, 23.84040
1020.268, 23.78502
1020.751, 23.76477
1021.233, 23.80889
1021.715, 23.86529
1022.197, 23.75863
1022.679, 23.51605
1023.161, 23.31326
1023.643, 23.34247
1024.125, 23.30892
1024.607, 22.98646
1025.090, 22.56142
1025.572, 22.44696
1026.054, 22.66417
1026.536, 22.89875
1027.018, 23.10712
1027.500, 23.25748
1027.982, 23.28392
1028.464, 23.25080
1028.947, 23.24551
1029.429, 23.30313
1029.911, 23.25851
1030.393, 23.06873
1030.875, 22.84107
1031.357, 22.59982
1031.839, 22.37548
1032.321, 22.29978
1032.803, 22.34669
1033.286, 22.40225
1033.768, 22.45357
1034.250, 22.45196
1034.732, 22.32296
1035.214, 22.15226
1035.696, 22.06933
1036.178, 22.09304
1036.660, 22.09744
1037.143, 22.07339
1037.625, 22.03148
1038.107, 21.65904
1038.589, 21.46877
1039.071, 22.42921
1039.553, 24.49468
1040.035, 25.80771
1040.517, 25.71894
1041.000, 25.20701
1041.482, 24.40205
1041.964, 23.47076
1042.446, 22.83735
1042.928, 22.45138
1043.410, 22.12620
1043.892, 21.79436
1044.374, 21.55194
1044.856, 21.56108
1045.339, 21.62028
1045.821, 21.52343
1046.303, 21.22676
1046.785, 21.12136
1047.267, 21.23056
1047.749, 21.32657
1048.231, 21.19606
1048.713, 21.00942
1049.195, 20.97665
1049.677, 21.07056
1050.160, 21.20984
1050.642, 21.50880
1051.124, 21.63934
1051.606, 21.49992
1052.088, 21.27893
1052.570, 21.23849
1053.052, 21.33556
1053.534, 21.42996
1054.017, 21.50738
1054.499, 21.49881
1054.981, 21.26259
1055.463, 21.01581
1055.945, 20.89721
1056.427, 20.89003
1056.909, 20.92572
1057.391, 21.01260
1057.874, 21.04375
1058.356, 20.96429
1058.838, 20.85322
1059.320, 20.79679
1059.802, 20.77567
1060.284, 20.75625
1060.766, 20.70459
1061.248, 20.73623
1061.730, 20.90776
1062.213, 21.05656
1062.695, 21.03148
1063.177, 20.89230
1063.659, 20.87971
1064.141, 20.96241
1064.623, 20.99115
1065.105, 20.77316
1065.587, 20.62078
1066.070, 20.69074
1066.552, 20.88106
1067.034, 21.08277
1067.516, 21.29998
1067.998, 21.35256
1068.480, 21.20436
1068.962, 21.04037
1069.444, 20.98428
1069.927, 21.02254
1070.409, 21.20155
1070.891, 21.51293
1071.373, 21.65920
1071.855, 21.62487
1072.337, 21.43161
1072.819, 21.01476
1073.301, 20.55840
1073.783, 20.39670
1074.266, 20.44294
1074.748, 20.52392
1075.230, 20.62182
1075.712, 20.67076
1076.194, 20.61782
1076.676, 20.55021
1077.158, 20.50148
1077.640, 20.47801
1078.122, 20.57687
1078.604, 20.78080
1079.087, 20.94346
1079.569, 20.94707
1080.051, 20.92169
1080.533, 20.94876
1081.015, 20.99493
1081.497, 20.99616
1081.979, 20.93864
1082.461, 20.90438
1082.944, 20.90410
1083.426, 20.89618
1083.908, 20.83680
1084.390, 20.75016
1084.872, 20.64624
1085.354, 20.53240
1085.836, 20.48097
1086.318, 20.56197
1086.801, 20.58047
1087.283, 20.46313
1087.765, 20.30360
1088.247, 20.32059
1088.729, 20.42988
1089.211, 20.38953
1089.693, 20.11330
1090.175, 19.87471
1090.657, 19.82510
1091.140, 19.81191
1091.622, 19.74598
1092.104, 19.63993
1092.586, 19.61690
1093.068, 19.66735
1093.550, 19.67585
1094.032, 19.55457
1094.514, 19.42814
1094.997, 19.39619
1095.479, 19.40969
1095.961, 19.40732
1096.443, 19.40277
1096.925, 19.29318
1097.407, 19.04968
1097.889, 18.88291
1098.371, 19.06116
1098.854, 19.34064
1099.336, 19.39262
1099.818, 19.26686
1100.300, 19.18759
1100.782, 19.28118
1101.264, 19.28740
1101.746, 19.15795
1102.228, 18.96519
1102.710, 18.77643
1103.193, 18.60706
1103.675, 18.50513
1104.157, 18.47671
1104.639, 18.43489
1105.121, 18.30123
1105.603, 18.19454
1106.085, 18.16843
1106.567, 18.19526
1107.049, 18.18775
1107.531, 18.15140
1108.014, 18.13842
1108.496, 18.17847
1108.978, 18.18794
1109.460, 18.05291
1109.942, 17.90212
1110.424, 17.86543
1110.906, 17.94993
1111.388, 17.96385
1111.871, 17.90517
1112.353, 17.79860
1112.835, 17.60015
1113.317, 17.43133
1113.799, 17.48910
1114.281, 17.64985
1114.763, 17.70479
1115.245, 17.54284
1115.728, 17.42004
1116.210, 17.31619
1116.692, 17.32028
1117.174, 17.65393
1117.656, 18.07444
1118.138, 18.05616
1118.620, 17.70094
1119.102, 17.46891
1119.584, 17.64758
1120.067, 17.79180
1120.549, 17.85719
1121.031, 17.82658
1121.513, 17.57545
1121.995, 17.21040
1122.477, 17.15944
1122.959, 17.45388
1123.441, 17.69389
1123.924, 17.56326
1124.406, 17.45407
1124.888, 17.59201
1125.370, 17.84554
1125.852, 17.81981
1126.334, 17.53991
1126.816, 17.27897
1127.298, 17.08736
1127.781, 16.99625
1128.263, 17.10655
1128.745, 17.26846
1129.227, 17.37774
1129.709, 17.43180
1130.191, 17.36773
1130.673, 17.17533
1131.155, 17.01679
1131.637, 16.95906
1132.120, 16.95840
1132.602, 16.99183
1133.084, 17.04299
1133.566, 17.08826
1134.048, 17.12298
1134.530, 17.16562
1135.012, 17.22679
1135.494, 17.25141
1135.976, 17.11835
1136.458, 16.98329
1136.941, 17.16885
1137.423, 17.55060
1137.905, 17.82458
1138.387, 17.86105
1138.869, 17.84258
1139.351, 17.76428
1139.833, 17.66241
1140.315, 17.55899
1140.798, 17.46395
1141.280, 17.40350
1141.762, 17.37539
1142.244, 17.36238
1142.726, 17.38036
1143.208, 17.37712
1143.690, 17.31425
1144.172, 17.25801
1144.655, 17.32844
1145.137, 17.49482
1145.619, 17.65566
1146.101, 17.79827
1146.583, 17.87414
1147.065, 17.77755
1147.547, 17.69651
1148.029, 17.73158
1148.511, 17.83780
1148.994, 17.87210
1149.476, 17.84717
1149.958, 17.87078
1150.440, 17.96312
1150.922, 18.13325
1151.404, 18.49549
1151.886, 18.84512
1152.368, 18.99744
1152.851, 18.97990
1153.333, 19.06780
1153.815, 19.26150
1154.297, 19.43159
1154.779, 19.50227
1155.261, 19.59320
1155.743, 19.81892
1156.225, 20.11948
1156.708, 20.44000
1157.190, 20.78578
1157.672, 21.07276
1158.154, 21.29710
1158.636, 21.49521
1159.118, 21.64985
1159.600, 21.82743
1160.082, 22.20603
1160.564, 22.62797
1161.047, 22.79663
1161.529, 22.50260
1162.011, 22.40996
1162.493, 22.58673
1162.975, 22.68799
1163.457, 22.41069
1163.939, 21.92477
1164.421, 21.41164
1164.903, 20.89201
1165.385, 20.41276
1165.868, 19.99776
1166.350, 19.59708
1166.832, 19.19449
1167.314, 18.84962
1167.796, 18.71322
1168.278, 18.64137
1168.760, 18.31887
1169.242, 17.78274
1169.725, 17.38414
1170.207, 17.30693
1170.689, 17.27345
1171.171, 17.27631
1171.653, 17.24346
1172.135, 16.99463
1172.617, 16.65342
1173.099, 16.52329
1173.582, 16.63415
1174.064, 16.71789
1174.546, 16.72443
1175.028, 16.60493
1175.510, 16.27338
1175.992, 15.90016
1176.474, 15.89244
1176.956, 16.12588
1177.438, 16.24046
1177.921, 16.15921
1178.403, 16.04912
1178.885, 15.94505
1179.367, 15.86658
1179.849, 15.83365
1180.331, 15.82323
1180.813, 15.75003
1181.295, 15.63584
1181.778, 15.55806
1182.260, 15.53207
1182.742, 15.56678
1183.224, 15.75712
1183.706, 15.91547
1184.188, 15.92228
1184.670, 15.81120
1185.152, 15.77098
1185.635, 15.78651
1186.117, 15.77493
1186.599, 15.67999
1187.081, 15.60464
1187.563, 15.65954
1188.045, 15.69886
1188.527, 15.57757
1189.009, 15.32051
1189.491, 15.26919
1189.974, 15.39922
1190.456, 15.53274
1190.938, 15.57344
1191.420, 15.60699
1191.902, 15.76175
1192.384, 15.86266
1192.866, 15.68956
1193.348, 15.23228
1193.830, 14.99613
1194.313, 14.97248
1194.795, 15.04765
1195.277, 15.28075
1195.759, 15.45261
1196.241, 15.37502
1196.723, 15.20527
1197.205, 15.14510
1197.687, 15.19790
1198.169, 15.20809
1198.652, 15.17303
1199.134, 15.21276
1199.616, 15.52308
1200.098, 15.81084
1200.580, 15.86265
1201.062, 15.79231
1201.544, 15.79898
1202.026, 15.88646
1202.509, 15.88958
1202.991, 15.79309
1203.473, 15.71129
1203.955, 15.76618
1204.437, 15.82374
1204.919, 15.79171
1205.401, 15.69849
1205.883, 15.59834
1206.365, 15.48950
1206.848, 15.43341
1207.330, 15.44280
1207.812, 15.42139
1208.294, 15.18692
1208.776, 14.99545
1209.258, 15.08741
1209.740, 15.35879
1210.222, 15.54637
1210.705, 15.65192
1211.187, 15.62365
1211.669, 15.43158
1212.151, 15.30516
1212.633, 15.54224
1213.115, 15.81387
1213.597, 15.82263
1214.079, 15.66147
1214.562, 15.72025
1215.044, 15.99058
1215.526, 16.05551
1216.008, 15.77538
1216.490, 15.52309
1216.972, 15.60940
1217.454, 15.82794
1217.936, 16.09212
1218.418, 16.35249
1218.901, 16.29185
1219.383, 15.93021
1219.865, 15.74830
1220.347, 15.92438
1220.829, 16.13938
1221.311, 16.14306
1221.793, 16.10328
1222.275, 16.17067
1222.757, 16.31836
1223.240, 16.29887
1223.722, 16.13040
1224.204, 16.06410
1224.686, 16.23731
1225.168, 16.37287
1225.650, 16.22964
1226.132, 16.02170
1226.614, 15.90581
1227.096, 15.87760
1227.579, 15.91395
1228.061, 16.00643
1228.543, 16.08084
1229.025, 16.10509
1229.507, 16.11229
1229.989, 16.13381
1230.471, 16.13075
1230.953, 16.04993
1231.436, 15.91081
1231.918, 15.94581
1232.400, 16.12226
1232.882, 16.21489
1233.364, 16.10155
1233.846, 15.94161
1234.328, 15.75936
1234.810, 15.60767
1235.292, 15.51440
1235.775, 15.48412
1236.257, 15.61576
1236.739, 15.86191
1237.221, 15.96920
1237.703, 15.72772
1238.185, 15.49014
1238.667, 15.40223
1239.149, 15.35575
1239.632, 15.27153
1240.114, 15.16377
1240.596, 15.11087
1241.078, 15.10631
1241.560, 15.12077
1242.042, 15.14981
1242.524, 15.18737
1243.006, 15.27546
1243.489, 15.31352
1243.971, 15.16408
1244.453, 14.89903
1244.935, 14.82127
1245.417, 14.90303
1245.899, 15.04176
1246.381, 15.33999
1246.863, 15.45775
1247.345, 15.26278
1247.828, 15.05496
1248.310, 15.16683
1248.792, 15.43961
1249.274, 15.41414
1249.756, 15.16496
1250.238, 14.96501
1250.720, 14.87747
1251.202, 14.92639
1251.684, 15.16736
1252.167, 15.40439
1252.649, 15.48463
1253.131, 15.43377
1253.613, 15.23168
1254.095, 14.94060
1254.577, 14.75867
1255.059, 14.80591
1255.541, 14.83112
1256.023, 14.81874
1256.506, 14.79417
1256.988, 14.78512
1257.470, 14.77378
1257.952, 14.71560
1258.434, 14.63468
1258.916, 14.61076
1259.398, 14.68228
1259.880, 14.70380
1260.363, 14.65092
1260.845, 14.64647
1261.327, 14.90234
1261.809, 15.16782
1262.291, 15.13947
1262.773, 14.91780
1263.255, 14.78634
1263.737, 14.76760
1264.219, 14.80322
1264.702, 14.89583
1265.184, 14.94926
1265.666, 14.82452
1266.148, 14.69458
1266.630, 14.72148
1267.112, 14.83259
1267.594, 14.85629
1268.076, 14.78241
1268.559, 14.80797
1269.041, 14.94429
1269.523, 15.03938
1270.005, 14.96939
1270.487, 14.84939
1270.969, 14.70500
1271.451, 14.57581
1271.933, 14.54363
1272.416, 14.59479
1272.898, 14.50961
1273.380, 14.29249
1273.862, 14.16305
1274.344, 14.36299
1274.826, 14.52790
1275.308, 14.50806
1275.790, 14.42150
1276.272, 14.36211
1276.755, 14.36418
1277.237, 14.68866
1277.719, 15.26780
1278.201, 15.57125
1278.683, 14.93709
1279.165, 14.64884
1279.647, 15.10558
1280.129, 15.64380
1280.611, 15.41543
1281.094, 14.76642
1281.576, 14.40070
1282.058, 14.31133
1282.540, 14.28198
1283.022, 14.27159
1283.504, 14.29673
1283.986, 14.37173
1284.468, 14.43826
1284.950, 14.40343
1285.433, 14.34946
1285.915, 14.41942
1286.397, 14.57003
1286.879, 14.61029
1287.361, 14.48983
1287.843, 14.39917
1288.325, 14.34824
1288.807, 14.38779
1289.290, 14.71807
1289.772, 15.01351
1290.254, 14.91411
1290.736, 14.57686
1291.218, 14.39580
1291.700, 14.37938
1292.182, 14.45186
1292.664, 14.60650
1293.146, 14.64675
1293.629, 14.21408
1294.111, 13.87060
1294.593, 14.05533
1295.075, 14.44149
1295.557, 14.66275
1296.039, 14.72993
1296.521, 14.67370
1297.003, 14.52111
1297.486, 14.47856
1297.968, 14.82528
1298.450, 15.06456
1298.932, 15.05440
1299.414, 14.93239
1299.896, 14.81384
1300.378, 14.71325
1300.860, 14.69066
1301.343, 14.72975
1301.825, 14.74747
##END=



