##NAMES=Arsenuranospathite
##RRUFFID=R100008
##IDEAL CHEMISTRY=Al(U^6+^O_2_)_2_(As^5+^O_4_)_2_F&#183;20H_2_O
##LOCALITY=Krunkelbach valley, Menzenschwand, Schwarzwald, Germany
##OWNER=RRUFF
##SOURCE=William Pinch
##DESCRIPTION=Blocky aggregates of yellowish-brown platy crystals, cell parameters are consistent with a partially dehydrated sample
##STATUS=The identification of this mineral has been confirmed by single-crystal X-ray diffraction.
##URL=rruff.info/R100008
91.18097, 0.0000000E+00
91.66309, 2135.725
92.14520, 2152.905
92.62732, 2171.232
93.10944, 2175.722
93.59155, 2165.002
94.07367, 2138.381
94.55579, 2099.411
95.03790, 2056.025
95.52002, 2014.174
96.00214, 1973.974
96.48425, 1934.262
96.96637, 1895.430
97.44849, 1858.356
97.93060, 1823.583
98.41272, 1789.194
98.89484, 1753.876
99.37695, 1720.949
99.85907, 1692.079
100.3412, 1663.760
100.8233, 1633.214
101.3054, 1602.759
101.7875, 1576.053
102.2697, 1555.192
102.7518, 1539.900
103.2339, 1524.552
103.7160, 1508.871
104.1981, 1493.101
104.6802, 1477.492
105.1624, 1461.931
105.6445, 1445.563
106.1266, 1427.111
106.6087, 1406.458
107.0908, 1386.770
107.5729, 1368.852
108.0551, 1351.534
108.5372, 1333.186
109.0193, 1313.111
109.5014, 1293.277
109.9835, 1275.687
110.4656, 1259.819
110.9478, 1244.701
111.4299, 1229.873
111.9120, 1215.344
112.3941, 1201.217
112.8762, 1187.127
113.3583, 1173.899
113.8405, 1162.010
114.3226, 1151.492
114.8047, 1141.853
115.2868, 1132.931
115.7689, 1125.209
116.2510, 1116.468
116.7332, 1104.680
117.2153, 1093.025
117.6974, 1083.846
118.1795, 1077.800
118.6616, 1073.681
119.1437, 1068.812
119.6259, 1063.675
120.1080, 1056.927
120.5901, 1047.111
121.0722, 1036.000
121.5543, 1025.733
122.0364, 1017.409
122.5186, 1010.795
123.0007, 1004.932
123.4828, 998.8055
123.9649, 994.1456
124.4470, 992.8866
124.9291, 994.1119
125.4113, 994.2755
125.8934, 990.7870
126.3755, 984.1323
126.8576, 978.1053
127.3397, 972.4739
127.8218, 967.6683
128.3040, 964.1571
128.7861, 962.0558
129.2682, 960.7570
129.7503, 960.5488
130.2324, 960.8239
130.7145, 960.5510
131.1967, 959.0739
131.6788, 956.7377
132.1609, 954.7359
132.6430, 953.8642
133.1251, 952.0579
133.6072, 947.4628
134.0894, 941.2018
134.5715, 935.7567
135.0536, 933.0985
135.5357, 933.3800
136.0178, 934.3704
136.4999, 938.3789
136.9821, 941.1562
137.4642, 940.1716
137.9463, 935.9406
138.4284, 931.2104
138.9105, 929.3298
139.3926, 932.0007
139.8748, 933.0585
140.3569, 931.4225
140.8390, 929.2458
141.3211, 926.8397
141.8032, 924.6493
142.2853, 924.6479
142.7675, 930.6571
143.2496, 949.1404
143.7317, 961.4075
144.2138, 963.1898
144.6959, 959.2809
145.1780, 955.0250
145.6602, 951.9498
146.1423, 950.5497
146.6244, 952.3025
147.1065, 957.4487
147.5886, 963.6527
148.0707, 970.2747
148.5529, 977.2956
149.0350, 984.5069
149.5171, 991.3654
149.9992, 998.9835
150.4813, 1009.258
150.9634, 1023.433
151.4456, 1037.182
151.9277, 1045.715
152.4098, 1048.423
152.8919, 1052.942
153.3740, 1063.292
153.8561, 1076.539
154.3383, 1091.351
154.8204, 1107.701
155.3025, 1124.135
155.7846, 1137.614
156.2667, 1145.476
156.7488, 1156.253
157.2310, 1172.663
157.7131, 1192.355
158.1952, 1213.374
158.6773, 1234.755
159.1594, 1256.582
159.6415, 1279.111
160.1237, 1302.372
160.6058, 1326.678
161.0879, 1350.658
161.5700, 1375.815
162.0521, 1404.704
162.5342, 1439.250
163.0164, 1479.071
163.4985, 1514.923
163.9806, 1543.227
164.4627, 1571.816
164.9448, 1601.905
165.4269, 1634.018
165.9091, 1668.236
166.3912, 1705.134
166.8733, 1744.719
167.3554, 1783.833
167.8375, 1821.588
168.3196, 1859.863
168.8018, 1899.455
169.2839, 1940.553
169.7660, 1982.710
170.2481, 2025.917
170.7302, 2070.098
171.2123, 2113.907
171.6945, 2155.838
172.1766, 2198.039
172.6587, 2243.079
173.1408, 2291.470
173.6229, 2340.427
174.1050, 2387.691
174.5872, 2433.827
175.0693, 2479.901
175.5514, 2527.207
176.0335, 2574.755
176.5156, 2619.947
176.9977, 2662.284
177.4799, 2703.651
177.9620, 2745.609
178.4441, 2787.836
178.9262, 2828.979
179.4083, 2869.471
179.8904, 2909.015
180.3726, 2943.521
180.8547, 2973.036
181.3368, 2996.317
181.8189, 3012.840
182.3010, 3023.215
182.7831, 3028.831
183.2653, 3030.746
183.7474, 3028.996
184.2295, 3023.100
184.7116, 3014.418
185.1937, 2999.817
185.6758, 2977.633
186.1580, 2948.110
186.6401, 2912.466
187.1222, 2871.375
187.6043, 2823.814
188.0864, 2774.891
188.5685, 2727.219
189.0507, 2676.163
189.5328, 2619.132
190.0149, 2556.014
190.4970, 2489.351
190.9791, 2420.817
191.4612, 2349.991
191.9434, 2280.004
192.4255, 2211.096
192.9076, 2143.066
193.3897, 2075.538
193.8718, 2008.689
194.3539, 1942.949
194.8361, 1878.707
195.3182, 1815.219
195.8003, 1756.329
196.2824, 1703.964
196.7645, 1655.434
197.2466, 1608.247
197.7288, 1561.832
198.2109, 1517.146
198.6930, 1475.967
199.1751, 1438.563
199.6572, 1401.937
200.1393, 1364.147
200.6215, 1327.361
201.1036, 1294.807
201.5857, 1267.496
202.0678, 1242.880
202.5499, 1217.616
203.0320, 1191.836
203.5142, 1166.788
203.9963, 1142.856
204.4784, 1119.934
204.9605, 1097.721
205.4426, 1075.705
205.9247, 1055.394
206.4069, 1038.901
206.8890, 1025.691
207.3711, 1012.586
207.8532, 997.0816
208.3353, 979.8584
208.8174, 964.6849
209.2996, 952.4135
209.7817, 942.1833
210.2638, 934.3291
210.7459, 928.3028
211.2280, 921.0722
211.7101, 909.1287
212.1923, 892.6890
212.6744, 879.1458
213.1565, 872.1478
213.6386, 865.5551
214.1207, 855.7581
214.6028, 843.3020
215.0850, 830.9788
215.5671, 822.0004
216.0492, 816.9285
216.5313, 810.3565
217.0134, 798.3019
217.4955, 787.9353
217.9777, 783.8383
218.4598, 784.8356
218.9419, 785.5123
219.4240, 779.5178
219.9061, 764.6038
220.3882, 754.4946
220.8704, 752.2828
221.3525, 751.8723
221.8346, 752.0696
222.3167, 751.9672
222.7988, 749.9797
223.2809, 743.7625
223.7631, 731.0286
224.2452, 723.9504
224.7273, 726.5335
225.2094, 730.2443
225.6915, 731.4294
226.1736, 729.6595
226.6558, 725.9567
227.1379, 720.9430
227.6200, 713.5545
228.1021, 710.3078
228.5842, 714.3935
229.0663, 719.2573
229.5485, 721.2257
230.0306, 720.1039
230.5127, 717.8455
230.9948, 716.4642
231.4769, 716.3303
231.9590, 714.5384
232.4412, 708.4466
232.9233, 702.8979
233.4054, 701.1447
233.8875, 703.2977
234.3696, 707.3504
234.8517, 711.8281
235.3339, 716.8099
235.8160, 720.3058
236.2981, 721.3736
236.7802, 721.6855
237.2623, 722.1671
237.7444, 722.9459
238.2266, 724.2680
238.7087, 726.6258
239.1908, 729.9236
239.6729, 732.3500
240.1550, 733.8693
240.6371, 734.4615
241.1193, 733.9508
241.6014, 732.3385
242.0835, 730.0853
242.5656, 727.0512
243.0477, 723.6080
243.5298, 721.1830
244.0120, 719.7900
244.4941, 719.5712
244.9762, 721.5486
245.4583, 725.8928
245.9404, 729.0758
246.4225, 727.5892
246.9047, 723.4680
247.3868, 721.2134
247.8689, 722.5215
248.3510, 725.0578
248.8331, 725.5932
249.3152, 723.7197
249.7974, 724.0759
250.2795, 732.9837
250.7616, 744.4080
251.2437, 749.4164
251.7258, 744.2118
252.2079, 735.1179
252.6901, 728.4418
253.1722, 724.1589
253.6543, 722.6843
254.1364, 726.3021
254.6185, 732.0814
255.1006, 737.5001
255.5828, 742.0919
256.0649, 745.9549
256.5470, 748.5794
257.0291, 749.5292
257.5112, 751.9772
257.9933, 759.4389
258.4755, 767.6064
258.9576, 772.9513
259.4397, 774.4639
259.9218, 775.0013
260.4039, 778.3123
260.8860, 785.0712
261.3682, 790.7208
261.8503, 794.0375
262.3324, 795.9124
262.8145, 795.7606
263.2966, 793.6542
263.7787, 792.4445
264.2609, 796.0188
264.7430, 805.3787
265.2251, 813.9039
265.7072, 821.7776
266.1893, 827.6462
266.6714, 829.3890
267.1536, 827.4068
267.6357, 825.3778
268.1178, 827.7336
268.5999, 835.4628
269.0820, 841.7453
269.5641, 846.1400
270.0463, 849.0333
270.5284, 850.1279
271.0105, 849.6428
271.4926, 848.2653
271.9747, 846.1540
272.4568, 842.9891
272.9390, 841.8470
273.4211, 846.1644
273.9032, 849.5431
274.3853, 849.2183
274.8674, 845.9040
275.3495, 842.1376
275.8317, 840.2606
276.3138, 840.3343
276.7959, 838.0602
277.2780, 828.8309
277.7601, 821.5959
278.2422, 821.1259
278.7244, 824.4473
279.2065, 825.3455
279.6886, 818.9859
280.1707, 806.3450
280.6528, 797.8114
281.1349, 798.9223
281.6171, 798.5309
282.0992, 792.9863
282.5813, 784.8887
283.0634, 778.5504
283.5455, 776.7167
284.0276, 777.9067
284.5098, 775.3037
284.9919, 764.4391
285.4740, 755.0189
285.9561, 748.2924
286.4382, 743.6179
286.9203, 740.2349
287.4025, 737.8134
287.8846, 736.3625
288.3667, 736.1076
288.8488, 739.9583
289.3309, 740.7034
289.8130, 735.0680
290.2952, 727.7900
290.7773, 723.4049
291.2594, 723.3653
291.7415, 725.6161
292.2236, 726.4301
292.7057, 724.4037
293.1879, 723.2446
293.6700, 723.0106
294.1521, 723.4781
294.6342, 724.9474
295.1163, 727.2543
295.5984, 729.3189
296.0806, 729.3956
296.5627, 725.6350
297.0448, 725.4557
297.5269, 731.9413
298.0090, 738.8583
298.4911, 742.1318
298.9733, 741.8912
299.4554, 741.0497
299.9375, 742.4912
300.4196, 746.5637
300.9017, 750.7471
301.3839, 755.5355
301.8660, 759.9577
302.3481, 763.1224
302.8302, 765.5145
303.3123, 768.5228
303.7944, 773.3040
304.2766, 779.7818
304.7587, 785.5877
305.2408, 792.9365
305.7229, 797.3367
306.2050, 795.2531
306.6871, 789.6102
307.1693, 785.0850
307.6514, 784.2428
308.1335, 786.8712
308.6156, 792.0259
309.0977, 804.2015
309.5798, 813.7101
310.0620, 817.6255
310.5441, 819.0557
311.0262, 821.8483
311.5083, 827.5740
311.9904, 835.0302
312.4725, 841.4752
312.9547, 845.0475
313.4368, 850.2836
313.9189, 859.7028
314.4010, 869.2754
314.8831, 874.8811
315.3652, 875.7842
315.8474, 875.2157
316.3295, 877.8688
316.8116, 885.9313
317.2937, 891.4811
317.7758, 894.2465
318.2579, 895.1260
318.7401, 894.6097
319.2222, 892.7476
319.7043, 889.4180
320.1864, 884.6457
320.6685, 878.6677
321.1506, 869.1312
321.6328, 854.2513
322.1149, 838.2557
322.5970, 822.2210
323.0791, 806.3450
323.5612, 790.5381
324.0433, 774.3969
324.5255, 758.1992
325.0076, 744.9957
325.4897, 736.8376
325.9718, 729.3255
326.4539, 721.9216
326.9360, 714.5656
327.4182, 707.7249
327.9003, 701.6488
328.3824, 695.2303
328.8645, 685.1250
329.3466, 663.9999
329.8287, 649.1611
330.3109, 644.5945
330.7930, 644.5459
331.2751, 644.8781
331.7572, 644.0391
332.2393, 641.3657
332.7214, 635.2582
333.2036, 622.0336
333.6857, 614.1472
334.1678, 615.5116
334.6499, 618.0956
335.1320, 617.0682
335.6141, 612.1846
336.0963, 605.9197
336.5784, 600.5197
337.0605, 595.8758
337.5426, 592.9908
338.0247, 593.0400
338.5068, 593.5780
338.9890, 594.7921
339.4711, 595.8348
339.9532, 595.1094
340.4353, 591.3738
340.9174, 585.1719
341.3995, 579.8775
341.8817, 574.8259
342.3638, 571.7604
342.8459, 572.2467
343.3280, 574.3091
343.8101, 575.6802
344.2922, 575.3937
344.7744, 574.0859
345.2565, 573.0648
345.7386, 572.2432
346.2207, 571.9377
346.7028, 572.5292
347.1849, 573.3005
347.6671, 573.5674
348.1492, 573.2928
348.6313, 573.1342
349.1134, 574.1037
349.5955, 576.6649
350.0776, 578.2787
350.5598, 576.8935
351.0419, 576.3913
351.5240, 580.1600
352.0061, 586.4806
352.4882, 590.3838
352.9703, 587.2643
353.4525, 578.0349
353.9346, 572.0329
354.4167, 570.3605
354.8988, 570.8350
355.3809, 574.6184
355.8630, 579.4337
356.3452, 582.0144
356.8273, 580.5963
357.3094, 577.0569
357.7915, 575.4348
358.2736, 576.1504
358.7557, 577.7778
359.2379, 580.9453
359.7200, 584.2535
360.2021, 586.3605
360.6842, 587.0342
361.1663, 587.6750
361.6484, 590.5963
362.1306, 596.1817
362.6127, 599.0544
363.0948, 595.8836
363.5769, 592.4208
364.0590, 591.6993
364.5411, 593.5192
365.0233, 596.4246
365.5054, 599.8224
365.9875, 603.5646
366.4696, 607.0786
366.9517, 610.5644
367.4338, 613.4140
367.9160, 614.8434
368.3981, 615.6058
368.8802, 616.7904
369.3623, 618.7593
369.8444, 621.3652
370.3265, 624.8214
370.8087, 629.3581
371.2908, 632.7094
371.7729, 632.1445
372.2550, 631.2312
372.7371, 634.2480
373.2192, 642.1133
373.7014, 650.1562
374.1835, 654.4982
374.6656, 655.9280
375.1477, 658.0784
375.6298, 661.6417
376.1119, 666.1063
376.5941, 671.5739
377.0762, 677.7571
377.5583, 682.9501
378.0404, 685.9070
378.5225, 687.7422
379.0046, 689.5803
379.4868, 691.3542
379.9689, 694.6961
380.4510, 701.8758
380.9331, 711.4466
381.4152, 718.8944
381.8973, 722.9382
382.3795, 725.8160
382.8616, 728.3133
383.3437, 730.7008
383.8258, 734.1857
384.3079, 739.5474
384.7900, 745.8476
385.2722, 751.3674
385.7543, 756.2156
386.2364, 760.2920
386.7185, 762.8676
387.2006, 764.9163
387.6827, 767.8451
388.1649, 771.9435
388.6470, 776.2447
389.1291, 779.6494
389.6112, 781.9730
390.0933, 785.1564
390.5754, 790.8525
391.0576, 795.9547
391.5397, 798.1841
392.0218, 798.0742
392.5039, 797.7059
392.9860, 798.3174
393.4681, 799.6906
393.9503, 800.7722
394.4324, 801.6717
394.9145, 802.1747
395.3966, 802.7190
395.8787, 802.6581
396.3608, 801.1922
396.8430, 798.0795
397.3251, 793.7045
397.8072, 788.5173
398.2893, 781.8935
398.7714, 776.1415
399.2535, 772.3754
399.7357, 768.3787
400.2178, 762.3964
400.6999, 754.9197
401.1820, 747.9974
401.6641, 743.3799
402.1462, 740.7662
402.6284, 736.0022
403.1105, 727.2858
403.5926, 718.3943
404.0747, 709.1678
404.5568, 700.4539
405.0389, 693.2928
405.5211, 688.0844
406.0032, 684.1292
406.4853, 680.3676
406.9674, 676.8981
407.4495, 673.2352
407.9316, 668.8111
408.4138, 664.6093
408.8959, 661.7403
409.3780, 659.8419
409.8601, 657.2364
410.3422, 652.0240
410.8243, 644.6426
411.3065, 638.5036
411.7886, 633.3730
412.2707, 629.9832
412.7528, 629.4058
413.2349, 630.3280
413.7170, 630.9327
414.1992, 630.5594
414.6813, 629.7012
415.1634, 629.0685
415.6455, 628.6934
416.1276, 627.8871
416.6097, 626.0530
417.0919, 624.0573
417.5740, 623.3839
418.0561, 624.0988
418.5382, 623.2275
419.0203, 616.8940
419.5024, 608.2091
419.9846, 604.2022
420.4667, 606.1400
420.9488, 610.4520
421.4309, 616.0008
421.9130, 621.7943
422.3951, 624.1965
422.8773, 620.2496
423.3594, 615.0187
423.8415, 611.1063
424.3236, 608.6586
424.8057, 608.5605
425.2878, 611.7483
425.7700, 616.4375
426.2521, 618.5137
426.7342, 616.6008
427.2163, 616.3902
427.6984, 620.2366
428.1805, 625.4682
428.6627, 629.6600
429.1448, 632.3604
429.6269, 633.7868
430.1090, 633.9660
430.5911, 632.8046
431.0732, 632.3313
431.5554, 632.7590
432.0375, 633.4869
432.5196, 634.1716
433.0017, 635.0464
433.4838, 636.5460
433.9659, 638.8713
434.4481, 641.8044
434.9302, 644.9669
435.4123, 648.9001
435.8944, 652.0014
436.3765, 653.0143
436.8586, 654.2526
437.3408, 657.6956
437.8229, 663.0570
438.3050, 668.2724
438.7871, 671.4225
439.2692, 672.6576
439.7513, 674.6579
440.2335, 677.9733
440.7156, 681.3100
441.1977, 684.1684
441.6798, 686.8854
442.1619, 689.8385
442.6440, 693.1671
443.1262, 696.8442
443.6083, 701.2227
444.0904, 706.4527
444.5725, 710.4166
445.0546, 711.5204
445.5367, 712.4333
446.0189, 715.2885
446.5010, 719.8265
446.9831, 724.3889
447.4652, 728.4863
447.9473, 731.9219
448.4294, 734.0817
448.9116, 734.8083
449.3937, 735.3559
449.8758, 735.6784
450.3579, 736.6621
450.8400, 740.4035
451.3221, 749.1658
451.8043, 756.2433
452.2864, 756.4922
452.7685, 752.6771
453.2506, 750.6165
453.7327, 751.8154
454.2148, 754.8079
454.6970, 758.5330
455.1791, 763.3959
455.6612, 765.1741
456.1433, 760.8338
456.6254, 756.0712
457.1075, 754.1542
457.5897, 754.7303
458.0718, 756.1903
458.5539, 757.7264
459.0360, 759.2654
459.5181, 760.6178
460.0002, 763.5218
460.4824, 763.7230
460.9645, 759.7299
461.4466, 754.0438
461.9287, 747.9658
462.4108, 742.0640
462.8929, 737.2740
463.3751, 734.9963
463.8572, 735.2741
464.3393, 732.5423
464.8214, 724.2714
465.3035, 715.9193
465.7856, 708.3679
466.2678, 701.7890
466.7499, 696.2863
467.2320, 691.9114
467.7141, 688.5051
468.1962, 686.2882
468.6783, 685.4425
469.1605, 683.5388
469.6426, 679.1754
470.1247, 674.7491
470.6068, 672.3342
471.0889, 671.4480
471.5710, 670.0110
472.0532, 666.9613
472.5353, 662.8073
473.0174, 657.9147
473.4995, 652.2189
473.9816, 647.4485
474.4637, 644.6144
474.9459, 643.1494
475.4280, 641.9514
475.9101, 641.4012
476.3922, 639.9785
476.8743, 636.7934
477.3564, 632.5056
477.8386, 627.9269
478.3207, 623.1885
478.8028, 618.4258
479.2849, 613.6160
479.7670, 608.7618
480.2491, 605.2748
480.7313, 603.2503
481.2134, 602.2416
481.6955, 603.3177
482.1776, 604.9720
482.6597, 604.5684
483.1418, 601.2178
483.6240, 596.9025
484.1061, 595.2031
484.5882, 597.8502
485.0703, 598.1659
485.5524, 593.5545
486.0345, 589.2849
486.5167, 588.5856
486.9988, 590.1666
487.4809, 590.7432
487.9630, 588.2608
488.4451, 583.7575
488.9272, 579.4368
489.4094, 574.7447
489.8915, 572.0103
490.3736, 574.3348
490.8557, 577.1674
491.3378, 577.2080
491.8199, 574.3035
492.3021, 570.8294
492.7842, 567.6819
493.2663, 565.1980
493.7484, 564.7086
494.2305, 566.7148
494.7126, 568.1506
495.1948, 566.6390
495.6769, 563.3682
496.1590, 561.4147
496.6411, 561.3395
497.1232, 561.6843
497.6053, 562.2161
498.0875, 562.5865
498.5696, 561.9415
499.0517, 560.0891
499.5338, 558.1260
500.0159, 557.2482
500.4980, 557.5751
500.9802, 557.7831
501.4623, 559.2330
501.9444, 559.1316
502.4265, 554.4561
502.9086, 547.9970
503.3907, 544.6112
503.8729, 546.1929
504.3550, 550.1013
504.8371, 551.7119
505.3192, 550.1959
505.8013, 548.6619
506.2834, 547.1777
506.7656, 545.6144
507.2477, 543.3909
507.7298, 541.0630
508.2119, 539.9614
508.6940, 541.1182
509.1761, 543.3655
509.6583, 544.2477
510.1404, 543.5200
510.6225, 542.8136
511.1046, 542.5756
511.5867, 542.5356
512.0688, 542.7264
512.5510, 543.0856
513.0331, 542.6313
513.5152, 539.2633
513.9973, 535.5780
514.4794, 536.6920
514.9615, 542.6483
515.4437, 546.3316
515.9258, 542.8677
516.4079, 535.0074
516.8900, 531.2177
517.3721, 533.6485
517.8542, 534.9932
518.3364, 532.7242
518.8185, 529.1639
519.3006, 526.2365
519.7827, 524.4066
520.2648, 524.0723
520.7469, 525.9802
521.2291, 529.8041
521.7112, 530.5953
522.1933, 524.8859
522.6754, 520.2260
523.1575, 518.0289
523.6396, 517.0833
524.1218, 516.4613
524.6039, 515.8198
525.0860, 514.8272
525.5681, 512.5486
526.0502, 509.0614
526.5323, 507.8634
527.0145, 510.4782
527.4966, 512.7592
527.9787, 512.2680
528.4608, 510.4288
528.9429, 509.1954
529.4250, 509.1269
529.9072, 509.3931
530.3893, 510.0108
530.8714, 510.4746
531.3535, 508.6054
531.8356, 503.4890
532.3177, 498.2890
532.7999, 496.2787
533.2820, 497.2887
533.7641, 496.8366
534.2462, 492.1847
534.7283, 488.8887
535.2104, 490.7861
535.6926, 495.4626
536.1747, 498.6951
536.6568, 499.0744
537.1389, 498.1736
537.6210, 498.2884
538.1031, 500.0555
538.5853, 499.9658
539.0674, 495.7521
539.5495, 492.2097
540.0316, 491.0385
540.5137, 491.5951
540.9958, 493.0984
541.4780, 495.3021
541.9601, 497.0777
542.4422, 496.0826
542.9243, 491.9953
543.4064, 489.8021
543.8885, 491.4936
544.3707, 493.4316
544.8528, 492.7680
545.3349, 490.4138
545.8170, 488.7552
546.2991, 488.7006
546.7813, 489.4583
547.2634, 490.7700
547.7455, 492.3643
548.2276, 492.9751
548.7097, 492.0027
549.1918, 490.6555
549.6740, 490.4151
550.1561, 491.4357
550.6382, 493.1426
551.1203, 498.3298
551.6024, 501.4589
552.0845, 497.6591
552.5667, 489.9761
553.0488, 484.3345
553.5309, 483.3309
554.0130, 485.0989
554.4951, 486.4950
554.9772, 487.4863
555.4594, 488.1851
555.9415, 490.4880
556.4236, 490.5728
556.9057, 484.2133
557.3878, 474.8844
557.8699, 469.3885
558.3521, 471.2145
558.8342, 476.5784
559.3163, 481.6948
559.7984, 486.4128
560.2805, 486.5445
560.7626, 478.4707
561.2448, 470.1995
561.7269, 471.5145
562.2090, 480.1166
562.6911, 485.4214
563.1732, 484.1291
563.6553, 480.2390
564.1375, 474.2150
564.6196, 467.7324
565.1017, 465.2231
565.5838, 468.3372
566.0659, 473.5157
566.5480, 475.8104
567.0302, 474.7133
567.5123, 472.9182
567.9944, 469.3964
568.4765, 466.3780
568.9586, 464.7342
569.4407, 464.1159
569.9229, 464.4720
570.4050, 465.7573
570.8871, 466.3176
571.3692, 462.5822
571.8513, 454.1883
572.3334, 450.0223
572.8156, 452.6909
573.2977, 456.7885
573.7798, 460.2145
574.2619, 462.5892
574.7440, 463.0347
575.2261, 460.9213
575.7083, 457.6551
576.1904, 452.6389
576.6725, 447.4153
577.1546, 446.6446
577.6367, 451.6150
578.1188, 457.1180
578.6010, 457.8886
579.0831, 453.9492
579.5652, 452.7165
580.0473, 457.3714
580.5294, 460.4815
581.0115, 459.1141
581.4937, 455.6070
581.9758, 452.0523
582.4579, 449.2416
582.9400, 447.9179
583.4221, 449.1827
583.9042, 452.9072
584.3864, 456.1688
584.8685, 459.8574
585.3506, 461.4643
585.8327, 457.8871
586.3148, 453.1645
586.7969, 452.0377
587.2791, 455.3780
587.7612, 458.2801
588.2433, 456.2812
588.7254, 451.9583
589.2075, 451.0410
589.6896, 453.9664
590.1718, 455.7576
590.6539, 452.8568
591.1360, 447.1988
591.6181, 444.7081
592.1002, 446.8530
592.5823, 448.7559
593.0645, 449.8421
593.5466, 450.4215
594.0287, 450.6193
594.5108, 450.5365
594.9929, 450.3796
595.4750, 450.2997
595.9572, 449.7709
596.4393, 449.6363
596.9214, 448.4491
597.4035, 447.4136
597.8856, 446.3322
598.3677, 445.7162
598.8499, 445.9936
599.3320, 447.0226
599.8141, 448.2558
600.2962, 449.3074
600.7783, 450.6035
601.2604, 453.6708
601.7426, 457.8577
602.2247, 458.9376
602.7068, 455.0493
603.1889, 449.5775
603.6710, 445.9110
604.1531, 444.0869
604.6353, 445.8392
605.1174, 456.8728
605.5995, 465.2104
606.0816, 462.2805
606.5637, 454.6461
607.0458, 453.0335
607.5280, 460.2683
608.0101, 469.5395
608.4922, 472.4980
608.9743, 468.9192
609.4564, 465.0370
609.9385, 460.1242
610.4207, 456.1322
610.9028, 453.3995
611.3849, 452.0409
611.8670, 452.7162
612.3491, 455.6894
612.8312, 458.3850
613.3134, 458.8246
613.7955, 457.9591
614.2776, 457.5215
614.7597, 457.6328
615.2418, 457.3131
615.7239, 455.3827
616.2061, 453.3783
616.6882, 455.9294
617.1703, 468.3612
617.6524, 475.2620
618.1345, 472.6931
618.6166, 467.2417
619.0988, 461.8848
619.5809, 457.5375
620.0630, 455.1934
620.5451, 455.5423
621.0272, 457.2454
621.5093, 457.5636
621.9915, 456.2528
622.4736, 455.2531
622.9557, 454.8237
623.4378, 454.7412
623.9199, 455.2159
624.4020, 455.8901
624.8842, 455.7642
625.3663, 453.9533
625.8484, 452.3307
626.3305, 452.7513
626.8126, 454.1870
627.2947, 454.1173
627.7769, 452.1057
628.2590, 450.7408
628.7411, 452.6202
629.2232, 457.3549
629.7053, 460.0504
630.1874, 458.9754
630.6696, 457.9487
631.1517, 458.1599
631.6338, 457.9312
632.1159, 454.9842
632.5980, 449.8659
633.0801, 445.8385
633.5623, 445.4077
634.0444, 447.4434
634.5265, 449.5736
635.0086, 451.8275
635.4907, 453.7203
635.9728, 455.2530
636.4550, 456.1796
636.9371, 455.9702
637.4192, 454.7359
637.9013, 453.4559
638.3834, 452.4883
638.8655, 451.2997
639.3477, 449.1694
639.8298, 446.7085
640.3119, 444.2395
640.7940, 442.0893
641.2761, 442.5663
641.7582, 449.3119
642.2404, 462.4853
642.7225, 470.3831
643.2046, 471.0390
643.6867, 469.1646
644.1688, 464.0984
644.6509, 458.5586
645.1331, 455.3344
645.6152, 454.7021
646.0973, 454.6552
646.5794, 454.3735
647.0615, 453.7193
647.5436, 452.3534
648.0258, 450.3320
648.5079, 448.0729
648.9900, 445.5880
649.4721, 443.4592
649.9542, 442.7016
650.4363, 443.6424
650.9185, 444.9077
651.4006, 446.7622
651.8827, 448.6460
652.3648, 450.1504
652.8469, 451.5928
653.3290, 453.6172
653.8112, 456.3828
654.2933, 459.0705
654.7754, 461.2287
655.2575, 462.6820
655.7396, 461.3502
656.2217, 456.1560
656.7039, 451.8207
657.1860, 451.0599
657.6681, 452.2236
658.1502, 452.3109
658.6323, 450.9737
659.1144, 450.4690
659.5966, 450.7429
660.0787, 452.6722
660.5608, 459.0975
661.0429, 467.8262
661.5250, 472.7602
662.0071, 471.1931
662.4893, 466.1899
662.9714, 462.6583
663.4535, 460.7700
663.9356, 459.4618
664.4177, 459.6903
664.8998, 459.2162
665.3820, 456.1821
665.8641, 452.4868
666.3462, 450.6899
666.8283, 451.3808
667.3104, 452.8549
667.7925, 454.8091
668.2747, 456.4771
668.7568, 456.3587
669.2389, 454.5316
669.7210, 452.3316
670.2031, 450.3160
670.6852, 448.7007
671.1674, 447.8999
671.6495, 447.9400
672.1316, 448.7963
672.6137, 451.3718
673.0958, 453.7029
673.5779, 454.7681
674.0601, 455.1063
674.5422, 455.7607
675.0243, 457.0717
675.5064, 458.0124
675.9885, 456.9500
676.4706, 454.6013
676.9528, 453.8196
677.4349, 454.9025
677.9170, 456.3810
678.3991, 457.7807
678.8812, 458.8680
679.3633, 459.1534
679.8455, 458.7318
680.3276, 457.3556
680.8097, 452.8385
681.2918, 449.4233
681.7739, 450.4923
682.2560, 454.4268
682.7382, 458.1079
683.2203, 460.3142
683.7024, 461.5835
684.1845, 462.7788
684.6666, 463.8557
685.1487, 463.1751
685.6309, 459.6398
686.1130, 457.3735
686.5951, 459.9979
687.0772, 464.0510
687.5593, 463.7343
688.0414, 458.0204
688.5236, 453.8824
689.0057, 453.7677
689.4878, 455.6233
689.9699, 458.7451
690.4520, 462.4025
690.9341, 465.2351
691.4163, 466.7188
691.8984, 467.2156
692.3805, 466.9871
692.8626, 465.9264
693.3447, 465.8892
693.8268, 467.2824
694.3090, 468.9968
694.7911, 471.6959
695.2732, 473.8898
695.7553, 473.3680
696.2374, 469.8795
696.7195, 467.4679
697.2017, 469.3117
697.6838, 471.9648
698.1659, 471.2631
698.6480, 468.3072
699.1301, 466.9699
699.6122, 468.6523
700.0944, 471.5123
700.5765, 473.1528
701.0586, 473.4779
701.5407, 474.1923
702.0228, 476.2386
702.5049, 477.2598
702.9871, 475.0118
703.4692, 472.7118
703.9513, 473.9921
704.4334, 478.7618
704.9155, 482.8924
705.3976, 483.9020
705.8798, 483.2921
706.3619, 482.7414
706.8440, 482.0753
707.3261, 480.0428
707.8082, 476.1345
708.2903, 473.2729
708.7725, 475.0392
709.2546, 481.3588
709.7367, 485.5919
710.2188, 486.6030
710.7009, 487.0062
711.1830, 486.5846
711.6652, 486.1541
712.1473, 486.4684
712.6294, 487.4295
713.1115, 488.2847
713.5936, 488.4756
714.0757, 488.6093
714.5579, 489.5099
715.0400, 490.9920
715.5221, 492.3117
716.0042, 493.2759
716.4863, 494.5446
716.9684, 496.8787
717.4506, 499.9913
717.9327, 501.9487
718.4148, 502.0546
718.8969, 501.9250
719.3790, 501.9065
719.8611, 501.4544
720.3433, 499.5008
720.8254, 496.8366
721.3075, 495.6136
721.7896, 497.1140
722.2717, 499.2487
722.7538, 499.1302
723.2360, 497.7376
723.7181, 498.5035
724.2002, 501.9401
724.6823, 505.8102
725.1644, 508.8525
725.6465, 511.1192
726.1287, 512.7356
726.6108, 513.1534
727.0929, 513.9482
727.5750, 515.9257
728.0571, 517.4387
728.5392, 517.3343
729.0214, 516.3147
729.5035, 515.3918
729.9856, 514.8656
730.4677, 515.1800
730.9498, 517.1933
731.4319, 520.2423
731.9141, 522.9022
732.3962, 525.0856
732.8783, 526.6711
733.3604, 527.5421
733.8425, 527.9080
734.3246, 527.9559
734.8068, 527.3143
735.2889, 528.0458
735.7710, 532.3590
736.2531, 535.2838
736.7352, 533.1172
737.2173, 530.0865
737.6995, 531.6691
738.1816, 538.2288
738.6637, 544.3729
739.1458, 545.3667
739.6279, 544.3277
740.1100, 546.9534
740.5922, 552.4180
741.0743, 555.6494
741.5564, 554.9408
742.0385, 553.5912
742.5206, 555.0638
743.0027, 559.2100
743.4849, 562.5313
743.9670, 564.2435
744.4491, 566.1935
744.9312, 568.6839
745.4133, 571.3547
745.8954, 574.3143
746.3776, 577.2433
746.8597, 579.0467
747.3418, 578.5242
747.8239, 578.5123
748.3060, 582.5192
748.7881, 589.1901
749.2703, 595.6050
749.7524, 601.2549
750.2345, 604.9645
750.7166, 605.5881
751.1987, 604.5345
751.6808, 605.5907
752.1630, 608.9911
752.6451, 613.9853
753.1272, 623.7016
753.6093, 631.6530
754.0914, 633.0850
754.5735, 632.1900
755.0557, 635.4137
755.5378, 644.3260
756.0199, 653.8609
756.5020, 661.2598
756.9841, 667.1697
757.4662, 671.5419
757.9484, 675.0223
758.4305, 679.9506
758.9126, 687.2069
759.3947, 695.9233
759.8768, 705.2314
760.3589, 715.2082
760.8411, 723.6801
761.3232, 729.2804
761.8053, 735.9109
762.2874, 746.7063
762.7695, 757.1671
763.2516, 762.2874
763.7338, 763.3644
764.2159, 767.7824
764.6980, 779.4423
765.1801, 793.2236
765.6622, 806.9329
766.1443, 820.0372
766.6265, 831.2092
767.1086, 840.7252
767.5907, 850.9468
768.0728, 863.5389
768.5549, 877.6375
769.0370, 890.5607
769.5192, 901.4682
770.0013, 916.5575
770.4834, 938.5002
770.9655, 960.9143
771.4476, 980.7172
771.9297, 998.3098
772.4119, 1013.796
772.8940, 1026.170
773.3761, 1040.777
773.8582, 1059.417
774.3403, 1080.427
774.8224, 1103.636
775.3046, 1127.991
775.7867, 1151.178
776.2688, 1172.748
776.7509, 1195.058
777.2330, 1220.768
777.7151, 1249.240
778.1973, 1278.047
778.6794, 1307.047
779.1615, 1338.006
779.6436, 1371.738
780.1257, 1407.178
780.6078, 1443.235
781.0900, 1480.035
781.5721, 1518.424
782.0542, 1558.568
782.5363, 1599.855
783.0184, 1641.241
783.5005, 1684.495
783.9827, 1731.576
784.4648, 1781.929
784.9469, 1833.396
785.4290, 1884.847
785.9111, 1939.246
786.3932, 2002.093
786.8754, 2070.302
787.3575, 2134.244
787.8396, 2193.261
788.3217, 2254.750
788.8038, 2321.758
789.2859, 2393.591
789.7681, 2469.050
790.2502, 2547.717
790.7323, 2629.921
791.2144, 2715.249
791.6965, 2804.581
792.1786, 2900.097
792.6608, 2998.507
793.1429, 3096.283
793.6250, 3193.911
794.1071, 3296.068
794.5892, 3405.240
795.0714, 3519.190
795.5535, 3636.771
796.0356, 3757.607
796.5177, 3882.071
796.9998, 4009.799
797.4819, 4137.918
797.9641, 4264.615
798.4462, 4392.287
798.9283, 4527.323
799.4104, 4670.999
799.8925, 4814.304
800.3746, 4956.246
800.8568, 5099.763
801.3389, 5248.334
801.8210, 5399.401
802.3031, 5549.103
802.7852, 5697.179
803.2673, 5845.128
803.7495, 5991.295
804.2316, 6138.827
804.7137, 6293.078
805.1958, 6447.687
805.6779, 6593.491
806.1600, 6728.734
806.6422, 6854.260
807.1243, 6970.596
807.6064, 7078.106
808.0885, 7179.748
808.5706, 7274.526
809.0527, 7355.288
809.5349, 7419.987
810.0170, 7472.587
810.4991, 7516.522
810.9812, 7550.772
811.4633, 7570.979
811.9454, 7571.503
812.4276, 7568.162
812.9097, 7562.159
813.3918, 7551.219
813.8739, 7535.479
814.3560, 7513.637
814.8381, 7483.224
815.3203, 7443.500
815.8024, 7398.796
816.2845, 7355.453
816.7666, 7304.513
817.2487, 7238.911
817.7308, 7158.018
818.2130, 7061.647
818.6951, 6949.896
819.1772, 6824.244
819.6593, 6686.465
820.1414, 6535.421
820.6235, 6366.763
821.1057, 6180.315
821.5878, 5977.835
822.0699, 5758.883
822.5520, 5525.407
823.0341, 5273.994
823.5162, 5008.375
823.9984, 4734.126
824.4805, 4446.791
824.9626, 4164.905
825.4447, 3883.487
825.9268, 3615.290
826.4089, 3363.352
826.8911, 3129.375
827.3732, 2915.168
827.8553, 2720.054
828.3374, 2541.971
828.8195, 2380.362
829.3016, 2233.785
829.7838, 2100.696
830.2659, 1981.000
830.7480, 1874.923
831.2301, 1782.614
831.7122, 1697.038
832.1943, 1612.622
832.6765, 1538.884
833.1586, 1470.781
833.6407, 1405.279
834.1228, 1348.211
834.6049, 1298.046
835.0870, 1248.363
835.5692, 1206.908
836.0513, 1170.392
836.5334, 1133.467
837.0155, 1095.272
837.4976, 1061.208
837.9797, 1033.772
838.4619, 1009.745
838.9440, 989.4531
839.4261, 970.4951
839.9082, 948.9157
840.3903, 924.7145
840.8724, 902.2171
841.3546, 884.7186
841.8367, 869.8464
842.3188, 853.8287
842.8009, 836.9590
843.2830, 821.0433
843.7651, 806.3083
844.2473, 792.1072
844.7294, 777.8837
845.2115, 764.5790
845.6936, 754.9067
846.1757, 750.1830
846.6578, 743.6690
847.1400, 734.3035
847.6221, 724.7410
848.1042, 714.7708
848.5863, 705.7226
849.0684, 699.4047
849.5505, 695.6345
850.0327, 691.4850
850.5148, 685.7283
850.9969, 679.9993
851.4790, 675.3464
851.9611, 670.9561
852.4432, 665.4188
852.9254, 659.2272
853.4075, 654.5287
853.8896, 652.5515
854.3717, 650.8101
854.8538, 645.2288
855.3359, 637.2425
855.8181, 632.2584
856.3002, 630.4447
856.7823, 629.4387
857.2644, 628.4895
857.7465, 627.1141
858.2286, 624.5446
858.7108, 620.8340
859.1929, 618.2795
859.6750, 617.4397
860.1571, 616.6492
860.6392, 615.0297
861.1213, 614.0115
861.6035, 614.8298
862.0856, 616.8557
862.5677, 618.6863
863.0498, 620.2943
863.5319, 621.1570
864.0140, 620.8137
864.4962, 619.9334
864.9783, 617.7891
865.4604, 615.9119
865.9425, 617.5042
866.4246, 622.8815
866.9067, 628.1461
867.3889, 630.2709
867.8710, 630.0468
868.3531, 627.3021
868.8352, 623.1855
869.3173, 623.6650
869.7994, 629.7859
870.2816, 636.6122
870.7637, 640.9382
871.2458, 643.0881
871.7279, 643.1496
872.2100, 639.4733
872.6921, 641.0518
873.1743, 651.6229
873.6564, 660.5493
874.1385, 662.2331
874.6206, 661.4031
875.1027, 663.2758
875.5848, 667.7972
876.0670, 673.4019
876.5491, 681.9248
877.0312, 688.8168
877.5133, 689.6748
877.9954, 690.6383
878.4775, 698.2527
878.9597, 710.5129
879.4418, 721.4894
879.9239, 728.8973
880.4060, 733.9273
880.8881, 735.0814
881.3702, 735.9155
881.8524, 743.3168
882.3345, 755.7990
882.8166, 766.8575
883.2987, 774.5643
883.7808, 781.6224
884.2629, 790.8663
884.7451, 801.2802
885.2272, 808.1223
885.7093, 810.6459
886.1914, 816.0225
886.6735, 826.0577
887.1556, 836.6033
887.6378, 845.0763
888.1199, 854.9006
888.6020, 861.3246
889.0841, 872.3790
889.5662, 881.7002
890.0483, 888.7536
890.5305, 894.7357
891.0126, 898.5643
891.4947, 902.5466
891.9768, 909.3882
892.4589, 918.5308
892.9410, 927.0457
893.4232, 935.0107
893.9053, 939.8920
894.3874, 939.1331
894.8695, 935.2728
895.3516, 931.1874
895.8337, 926.4841
896.3159, 919.0974
896.7980, 908.3630
897.2801, 896.6330
897.7622, 885.9279
898.2443, 876.1409
898.7264, 867.4554
899.2086, 859.5970
899.6907, 850.0851
900.1728, 838.3334
900.6549, 825.3798
901.1370, 811.7073
901.6191, 797.9647
902.1013, 786.4108
902.5834, 778.0667
903.0655, 767.6213
903.5476, 753.4430
904.0297, 740.3467
904.5118, 731.0130
904.9940, 723.0510
905.4761, 713.3873
905.9582, 702.2186
906.4403, 692.0150
906.9224, 684.1532
907.4045, 675.6633
907.8867, 665.3981
908.3688, 654.7351
908.8509, 644.4321
909.3330, 634.5081
909.8151, 624.6100
910.2972, 614.6521
910.7794, 605.0588
911.2615, 596.3738
911.7436, 587.8805
912.2257, 578.9330
912.7078, 569.6156
913.1899, 559.5897
913.6721, 549.1583
914.1542, 540.3161
914.6363, 534.5563
915.1184, 530.5353
915.6005, 526.3361
916.0826, 521.8320
916.5648, 516.1109
917.0469, 509.1351
917.5290, 501.5271
918.0111, 493.3492
918.4932, 485.6802
918.9753, 480.0748
919.4575, 476.3344
919.9396, 470.9552
920.4217, 462.8475
920.9038, 456.0697
921.3859, 451.5878
921.8680, 448.0041
922.3502, 444.6863
922.8323, 441.5555
923.3144, 438.5278
923.7965, 435.8296
924.2786, 432.2932
924.7607, 426.7950
925.2429, 421.6756
925.7250, 418.8500
926.2071, 416.0098
926.6892, 409.9014
927.1713, 401.4673
927.6534, 395.1732
928.1356, 393.0365
928.6177, 392.3347
929.0998, 392.4063
929.5819, 392.2040
930.0640, 390.1237
930.5461, 386.9386
931.0283, 384.6388
931.5104, 383.6969
931.9925, 382.6885
932.4746, 380.2536
932.9567, 377.1910
933.4388, 375.0728
933.9210, 373.6036
934.4031, 371.8042
934.8852, 369.5048
935.3673, 366.0706
935.8494, 363.4698
936.3315, 356.3997
936.8137, 357.2362
937.2958, 353.8179
937.7779, 351.1496
938.2600, 353.2446
938.7421, 347.7154
939.2242, 350.4902
939.7064, 354.2967
940.1885, 353.2006
940.6706, 348.4100
941.1527, 344.3692
941.6348, 341.2425
942.1169, 338.4899
942.5991, 335.8236
943.0812, 333.9150
943.5633, 334.1234
944.0454, 334.3960
944.5275, 332.2220
945.0096, 327.9065
945.4918, 324.3830
945.9739, 322.0295
946.4560, 320.8801
946.9381, 321.3974
947.4202, 322.6974
947.9023, 325.3578
948.3845, 327.8613
948.8666, 326.5912
949.3487, 321.1194
949.8308, 317.8612
950.3129, 323.9247
950.7950, 330.9795
951.2772, 330.9095
951.7593, 326.5397
952.2414, 321.2521
952.7235, 316.1936
953.2056, 312.9290
953.6877, 312.2058
954.1699, 313.0226
954.6520, 315.0627
955.1341, 317.4360
955.6162, 317.2527
956.0983, 314.8880
956.5804, 312.7548
957.0626, 311.4324
957.5447, 310.6256
958.0268, 310.1884
958.5089, 309.8470
958.9910, 308.9081
959.4731, 307.3462
959.9553, 305.3344
960.4374, 302.3218
960.9195, 301.8362
961.4016, 306.1884
961.8837, 311.0706
962.3658, 311.7915
962.8480, 308.9433
963.3301, 306.8036
963.8122, 305.0093
964.2943, 304.7802
964.7764, 308.2188
965.2585, 310.5167
965.7407, 307.6353
966.2228, 303.5445
966.7049, 304.1166
967.1870, 309.3622
967.6691, 310.9017
968.1512, 303.7227
968.6334, 298.5396
969.1155, 299.5645
969.5976, 301.5751
970.0797, 300.8551
970.5618, 298.5628
971.0439, 297.1614
971.5261, 297.1659
972.0082, 297.6658
972.4903, 297.2754
972.9724, 298.3753
973.4545, 304.5825
973.9366, 311.6757
974.4188, 314.1196
974.9009, 312.7899
975.3830, 312.6208
975.8651, 315.7256
976.3472, 318.2329
976.8293, 314.8845
977.3115, 310.3913
977.7936, 311.4650
978.2757, 316.4818
978.7578, 322.0687
979.2399, 327.1807
979.7220, 330.3785
980.2042, 330.4786
980.6863, 330.3811
981.1684, 335.5443
981.6505, 343.9949
982.1326, 348.4895
982.6147, 349.2661
983.0969, 350.4442
983.5790, 353.2191
984.0611, 356.2232
984.5432, 357.9601
985.0253, 360.0804
985.5074, 367.6049
985.9896, 380.6749
986.4717, 394.1925
986.9538, 408.8012
987.4359, 418.2583
987.9180, 420.2485
988.4001, 415.9965
988.8823, 406.3554
989.3644, 391.7437
989.8465, 374.7518
990.3286, 353.1797
990.8107, 335.9344
991.2928, 324.0347
991.7750, 315.6585
992.2571, 312.0041
992.7392, 309.4609
993.2213, 302.2900
993.7034, 290.5407
994.1855, 283.8396
994.6677, 286.6259
995.1498, 287.8621
995.6319, 285.6796
996.1140, 283.1346
996.5961, 281.6537
997.0782, 280.7390
997.5604, 279.6817
998.0425, 278.4356
998.5246, 277.0432
999.0067, 272.4011
999.4888, 271.8661
999.9709, 282.0287
1000.453, 292.6713
1000.935, 297.4332
1001.417, 296.8130
1001.899, 291.1827
1002.382, 280.6158
1002.864, 272.7906
1003.346, 272.6683
1003.828, 274.0327
1004.310, 273.8764
1004.792, 273.1170
1005.274, 272.2864
1005.756, 271.8390
1006.238, 272.7944
1006.721, 275.4873
1007.203, 277.9027
1007.685, 278.7053
1008.167, 278.5729
1008.649, 277.8788
1009.131, 276.8062
1009.613, 275.3424
1010.095, 273.7563
1010.578, 272.6491
1011.060, 272.2909
1011.542, 272.8612
1012.024, 275.8185
1012.506, 278.9142
1012.988, 277.9439
1013.470, 274.4894
1013.952, 272.1145
1014.434, 271.5384
1014.917, 273.0058
1015.399, 276.7520
1015.881, 280.0878
1016.363, 278.6659
1016.845, 274.2970
1017.327, 272.0742
1017.809, 271.6041
1018.291, 270.4352
1018.773, 268.2376
1019.256, 267.6080
1019.738, 270.3440
1020.220, 274.1702
1020.702, 275.0436
1021.184, 273.4803
1021.666, 273.2415
1022.148, 274.2731
1022.630, 274.8903
1023.113, 274.6682
1023.595, 274.9484
1024.077, 276.8310
1024.559, 279.2071
1025.041, 279.6131
1025.523, 278.0280
1026.005, 277.3839
1026.487, 277.7892
1026.969, 278.1584
1027.452, 278.1313
1027.934, 278.6588
1028.416, 280.9810
1028.898, 283.3512
1029.380, 280.7567
1029.862, 272.0764
1030.344, 268.5417
1030.826, 271.6996
1031.309, 274.8962
1031.791, 277.0591
1032.273, 277.3344
1032.755, 274.5844
1033.237, 269.8547
1033.719, 265.7735
1034.201, 261.8844
1034.683, 260.9869
1035.166, 264.5586
1035.648, 268.0321
1036.130, 271.1759
1036.612, 272.4779
1037.094, 269.6031
1037.576, 264.4266
1038.058, 262.5762
1038.540, 265.2220
1039.022, 267.1138
1039.505, 268.9928
1039.987, 268.8803
1040.469, 264.2446
1040.951, 259.5882
1041.433, 258.5861
1041.915, 260.1936
1042.397, 261.4449
1042.879, 262.0987
1043.361, 263.1713
1043.844, 265.1981
1044.326, 266.9264
1044.808, 268.6488
1045.290, 269.4312
1045.772, 268.3867
1046.254, 265.9006
1046.736, 262.6961
1047.218, 258.3355
1047.700, 255.2462
1048.183, 254.2943
1048.665, 253.8367
1049.147, 253.6458
1049.629, 253.5692
1050.111, 253.3617
1050.593, 253.2181
1051.075, 253.8245
1051.557, 255.5887
1052.040, 256.1771
1052.522, 254.4383
1053.004, 252.4078
1053.486, 249.8468
1053.968, 248.0804
1054.450, 248.7864
1054.932, 250.8992
1055.414, 252.1084
1055.896, 251.9919
1056.379, 251.5846
1056.861, 251.2354
1057.343, 250.5335
1057.825, 248.9355
1058.307, 247.2882
1058.789, 245.8098
1059.271, 244.9438
1059.753, 246.1901
1060.236, 249.9467
1060.718, 251.0095
1061.200, 244.4462
1061.682, 239.1654
1062.164, 240.0103
1062.646, 242.4668
1063.128, 243.2065
1063.610, 242.6847
1064.093, 242.4104
1064.575, 242.6293
1065.057, 242.0040
1065.539, 239.3206
1066.021, 236.6598
1066.503, 234.7308
1066.985, 233.3576
1067.467, 232.0227
1067.949, 231.3083
1068.432, 232.7593
1068.914, 236.3414
1069.396, 238.7948
1069.878, 238.4507
1070.360, 237.2920
1070.842, 235.9764
1071.324, 234.3954
1071.806, 230.0835
1072.288, 226.6640
1072.771, 232.1044
1073.253, 245.5354
1073.735, 253.1741
1074.217, 247.3953
1074.699, 239.5406
1075.181, 233.7246
1075.663, 229.0166
1076.145, 223.6751
1076.627, 219.5924
1077.110, 220.4737
1077.592, 225.6259
1078.074, 229.6844
1078.556, 230.7081
1079.038, 230.4671
1079.520, 228.8778
1080.002, 227.3169
1080.484, 226.7931
1080.967, 226.8462
1081.449, 226.7033
1081.931, 226.5092
1082.413, 227.3904
1082.895, 230.2729
1083.377, 231.7849
1083.859, 229.5432
1084.341, 226.4245
1084.823, 223.2398
1085.306, 220.8578
1085.788, 220.9590
1086.270, 222.5130
1086.752, 222.1261
1087.234, 218.4876
1087.716, 216.4029
1088.198, 219.1340
1088.680, 222.4700
1089.163, 224.8517
1089.645, 226.1812
1090.127, 226.0434
1090.609, 224.9486
1091.091, 223.7787
1091.573, 222.7150
1092.055, 222.1780
1092.537, 223.0170
1093.020, 223.5082
1093.502, 223.0946
1093.984, 221.8475
1094.466, 218.8133
1094.948, 215.4481
1095.430, 214.4080
1095.912, 215.9105
1096.394, 217.0816
1096.876, 216.8361
1097.359, 216.3966
1097.841, 214.6060
1098.323, 214.4307
1098.805, 221.1298
1099.287, 228.5666
1099.769, 226.8416
1100.251, 216.9267
1100.733, 211.0821
1101.215, 214.0486
1101.698, 217.1858
1102.180, 218.2815
1102.662, 218.9625
1103.144, 220.4613
1103.626, 221.6275
1104.108, 220.7818
1104.590, 218.5005
1105.072, 217.1279
1105.554, 217.3739
1106.037, 217.3409
1106.519, 215.8009
1107.001, 215.0872
1107.483, 217.3965
1107.965, 219.5703
1108.447, 218.7675
1108.929, 215.9815
1109.411, 213.3483
1109.894, 210.8299
1110.376, 209.8894
1110.858, 212.9700
1111.340, 214.3030
1111.822, 211.0654
1112.304, 207.6338
1112.786, 206.5162
1113.268, 206.8091
1113.750, 206.1381
1114.233, 204.3572
1114.715, 208.0459
1115.197, 224.4905
1115.679, 234.4650
1116.161, 234.7468
1116.643, 231.4040
1117.125, 224.6436
1117.607, 217.4038
1118.090, 212.7663
1118.572, 210.4544
1119.054, 208.7415
1119.536, 207.5459
1120.018, 207.2552
1120.500, 208.8465
1120.982, 209.3227
1121.464, 207.1179
1121.947, 204.6708
1122.429, 203.9453
1122.911, 204.3931
1123.393, 204.4755
1123.875, 203.8948
1124.357, 205.6974
1124.839, 211.5126
1125.321, 213.9973
1125.803, 210.7918
1126.286, 206.7612
1126.768, 204.5123
1127.250, 203.5644
1127.732, 203.4084
1128.214, 203.8841
1128.696, 202.7497
1129.178, 199.5144
1129.660, 198.7564
1130.142, 201.1836
1130.625, 204.5701
1131.107, 208.2001
1131.589, 211.3829
1132.071, 213.5403
1132.553, 214.3805
1133.035, 212.0867
1133.517, 206.9216
1133.999, 205.5400
1134.481, 208.0945
1134.964, 209.7814
1135.446, 209.2996
1135.928, 207.7071
1136.410, 205.6046
1136.892, 203.7579
1137.374, 203.7287
1137.856, 205.0136
1138.338, 205.5586
1138.821, 205.4873
1139.303, 205.2489
1139.785, 204.9856
1140.267, 205.1529
1140.749, 205.9450
1141.231, 206.6255
1141.713, 206.1056
1142.195, 205.4881
1142.677, 207.6292
1143.160, 210.8250
1143.642, 210.8340
1144.124, 208.3110
1144.606, 206.6780
1145.088, 206.6682
1145.570, 206.0070
1146.052, 202.9175
1146.534, 199.8507
1147.017, 199.3042
1147.499, 200.2676
1147.981, 202.3876
1148.463, 204.6261
1148.945, 204.5204
1149.427, 202.8420
1149.909, 203.5846
1150.391, 208.4012
1150.874, 212.5127
1151.356, 212.3010
1151.838, 210.9298
1152.320, 210.1885
1152.802, 209.7668
1153.284, 209.9045
1153.766, 209.8401
1154.248, 207.2223
1154.730, 202.2074
1155.213, 200.6768
1155.695, 208.4131
1156.177, 213.2085
1156.659, 207.3047
1157.141, 201.6609
1157.623, 205.1204
1158.105, 210.0176
1158.587, 205.8654
1159.069, 195.3671
1159.552, 190.8243
1160.034, 195.8155
1160.516, 198.8874
1160.998, 198.2341
1161.480, 196.7466
1161.962, 193.3912
1162.444, 191.3105
1162.926, 193.5411
1163.408, 197.3524
1163.891, 198.0119
1164.373, 195.5987
1164.855, 195.6660
1165.337, 199.5230
1165.819, 202.1221
1166.301, 202.7265
1166.783, 203.1422
1167.265, 203.9587
1167.748, 205.1662
1168.230, 207.2085
1168.712, 208.9327
1169.194, 206.2954
1169.676, 199.0151
1170.158, 195.5721
1170.640, 196.1414
1171.122, 196.9092
1171.604, 197.1423
1172.087, 196.5989
1172.569, 195.0350
1173.051, 193.9158
1173.533, 195.4187
1174.015, 198.4394
1174.497, 200.3041
1174.979, 200.9065
1175.461, 198.7579
1175.944, 194.7171
1176.426, 193.5469
1176.908, 196.2623
1177.390, 199.0302
1177.872, 199.2916
1178.354, 198.1521
1178.836, 196.7254
1179.318, 194.8492
1179.801, 191.5249
1180.283, 187.9814
1180.765, 186.4361
1181.247, 186.8058
1181.729, 188.0928
1182.211, 189.9091
1182.693, 191.3978
1183.175, 192.2298
1183.657, 192.3078
1184.140, 190.1284
1184.622, 188.6008
1185.104, 191.1257
1185.586, 195.3386
1186.068, 198.1669
1186.550, 199.1883
1187.032, 198.7182
1187.514, 196.5151
1187.996, 193.7753
1188.479, 188.8349
1188.961, 185.9496
1189.443, 188.6604
1189.925, 191.7247
1190.407, 190.3779
1190.889, 187.3451
1191.371, 187.4910
1191.853, 190.8433
1192.335, 192.9101
1192.818, 193.5263
1193.300, 193.1649
1193.782, 191.2713
1194.264, 190.1600
1194.746, 191.0630
1195.228, 191.6822
1195.710, 189.7007
1196.192, 190.7103
1196.675, 186.7084
1197.157, 189.6219
1197.639, 189.5627
1198.121, 186.6737
1198.603, 185.5772
1199.085, 186.9260
1199.567, 188.5181
1200.049, 189.3484
1200.531, 189.6716
1201.014, 189.6904
1201.496, 189.4612
1201.978, 188.9887
1202.460, 188.3892
1202.942, 187.8022
1203.424, 187.3409
1203.906, 187.4671
1204.388, 188.0282
1204.871, 187.9800
1205.353, 186.8042
1205.835, 185.7083
1206.317, 185.5405
1206.799, 185.8613
1207.281, 185.9708
1207.763, 186.7219
1208.245, 190.2483
1208.728, 194.4160
1209.210, 195.0952
1209.692, 192.2936
1210.174, 190.4310
1210.656, 191.3812
1211.138, 191.4769
1211.620, 189.1345
1212.102, 186.9574
1212.584, 185.8409
1213.067, 185.2551
1213.549, 185.0200
1214.031, 184.8682
1214.513, 183.9393
1214.995, 182.2446
1215.477, 183.7847
1215.959, 190.4668
1216.441, 192.8256
1216.923, 189.0078
1217.406, 185.9004
1217.888, 185.9827
1218.370, 186.8382
1218.852, 186.6195
1219.334, 185.4355
1219.816, 183.0336
1220.298, 179.8834
1220.780, 178.5325
1221.262, 178.6949
1221.745, 179.3309
1222.227, 180.0420
1222.709, 179.2300
1223.191, 176.5814
1223.673, 175.0338
1224.155, 176.7007
1224.637, 180.8100
1225.119, 189.1558
1225.602, 197.0916
1226.084, 198.2501
1226.566, 195.6077
1227.048, 193.2134
1227.530, 191.7745
1228.012, 191.5655
1228.494, 192.6899
1228.976, 192.1424
1229.458, 186.7695
1229.941, 182.5110
1230.423, 181.1161
1230.905, 181.4007
1231.387, 185.0617
1231.869, 188.1946
1232.351, 185.1978
1232.833, 178.4289
1233.315, 175.2627
1233.798, 176.1482
1234.280, 178.2257
1234.762, 182.3822
1235.244, 184.5318
1235.726, 183.6134
1236.208, 182.5180
1236.690, 182.5316
1237.172, 183.0085
1237.655, 183.4111
1238.137, 183.4744
1238.619, 182.7271
1239.101, 181.0597
1239.583, 176.7047
1240.065, 170.8780
1240.547, 169.5922
1241.029, 172.9843
1241.511, 176.6689
1241.994, 178.7783
1242.476, 179.2087
1242.958, 176.8388
1243.440, 174.7849
1243.922, 177.0322
1244.404, 180.1081
1244.886, 180.3504
1245.368, 179.1492
1245.850, 178.8174
1246.333, 179.1446
1246.815, 177.9343
1247.297, 174.2213
1247.779, 173.8520
1248.261, 182.2896
1248.743, 187.8467
1249.225, 187.0737
1249.707, 184.3049
1250.189, 180.1325
1250.672, 176.2033
1251.154, 174.1129
1251.636, 173.4499
1252.118, 173.0862
1252.600, 173.0290
1253.082, 172.9673
1253.564, 172.8354
1254.046, 174.5618
1254.529, 178.4101
1255.011, 178.7692
1255.493, 173.4459
1255.975, 168.7251
1256.457, 170.3677
1256.939, 167.9469
1257.421, 172.9787
1257.903, 170.0145
1258.385, 171.4384
1258.868, 175.1598
1259.350, 177.3151
1259.832, 177.6675
1260.314, 177.1687
1260.796, 176.1652
1261.278, 175.2188
1261.760, 174.8027
1262.242, 174.0371
1262.725, 171.8070
1263.207, 170.0890
1263.689, 169.8119
1264.171, 170.5612
1264.653, 172.3992
1265.135, 174.7949
1265.617, 177.1277
1266.099, 179.3739
1266.582, 178.7458
1267.064, 174.0765
1267.546, 171.2225
1268.028, 170.5454
1268.510, 172.0397
1268.992, 175.9960
1269.474, 178.9259
1269.956, 178.4658
1270.438, 176.2586
1270.921, 174.1962
1271.403, 172.5862
1271.885, 172.5235
1272.367, 173.3060
1272.849, 172.9420
1273.331, 172.0839
1273.813, 173.7102
1274.295, 177.3340
1274.777, 177.4070
1275.260, 170.8907
1275.742, 167.4189
1276.224, 177.1657
1276.706, 184.4638
1277.188, 178.9428
1277.670, 171.3472
1278.152, 169.2576
1278.634, 169.4013
1279.116, 166.2248
1279.599, 161.3421
1280.081, 161.1012
1280.563, 165.8853
1281.045, 174.2107
1281.527, 188.9034
1282.009, 192.5307
1282.491, 181.0531
1282.973, 170.9266
1283.456, 168.8866
1283.938, 170.2091
1284.420, 170.9593
1284.902, 171.3353
1285.384, 171.5643
##END=



