##NAMES=Arseniosiderite
##RRUFFID=R150062
##IDEAL CHEMISTRY=Ca_2_Fe^3+^_3_O_2_(As^5+^O_4_)_3_&#183;3H_2_O
##LOCALITY=Benjamin Hill, Sonora, Mexico
##OWNER=RRUFF
##SOURCE=Michael Scott
##DESCRIPTION=Dark red platy crystals, associated with yellow tan colored granular aggregates of beudantite,  euhedral red sewardite and quartz
##STATUS=The identification of this mineral has been confirmed only by single crystal X-ray diffraction.
##URL=rruff.info/R150062
90.59570, 180.8050
91.07782, 174.2578
91.55994, 171.9384
92.04205, 177.0804
92.52417, 184.2509
93.00629, 191.7066
93.48840, 197.7954
93.97052, 201.0889
94.45264, 200.8880
94.93475, 199.8508
95.41687, 197.9727
95.89898, 195.0145
96.38110, 191.7587
96.86321, 188.8731
97.34533, 186.4998
97.82745, 184.1534
98.30956, 182.0189
98.79168, 179.5537
99.27380, 177.8576
99.75591, 177.0967
100.2380, 177.2029
100.7201, 178.1501
101.2023, 180.0167
101.6844, 182.7775
102.1665, 185.7924
102.6486, 189.5824
103.1307, 193.2869
103.6128, 196.0081
104.0950, 197.6366
104.5771, 198.9374
105.0592, 200.3088
105.5413, 201.6591
106.0234, 202.8215
106.5055, 203.4233
106.9877, 203.7216
107.4698, 204.7983
107.9519, 206.7801
108.4340, 209.5008
108.9161, 212.8552
109.3982, 216.8065
109.8804, 221.2780
110.3625, 226.3761
110.8446, 232.2989
111.3267, 237.6700
111.8088, 242.7189
112.2909, 247.1218
112.7731, 250.6818
113.2552, 253.3719
113.7373, 255.3418
114.2194, 256.7694
114.7015, 257.5211
115.1836, 257.8423
115.6658, 257.4481
116.1479, 256.7777
116.6300, 256.1591
117.1121, 255.6896
117.5942, 255.4758
118.0763, 255.8464
118.5584, 256.8294
119.0406, 258.1246
119.5227, 259.6717
120.0048, 261.4658
120.4869, 263.5862
120.9690, 266.2972
121.4511, 269.1482
121.9333, 271.4352
122.4154, 273.3523
122.8975, 274.3832
123.3796, 273.7553
123.8617, 271.2923
124.3438, 268.6572
124.8260, 265.9717
125.3081, 263.7688
125.7902, 262.7289
126.2723, 263.2827
126.7544, 264.9072
127.2365, 266.4873
127.7187, 268.1076
128.2008, 269.5240
128.6829, 270.9621
129.1650, 272.1495
129.6471, 272.7391
130.1292, 272.5251
130.6114, 271.5182
131.0935, 269.8360
131.5756, 266.6251
132.0577, 263.5086
132.5398, 260.7216
133.0219, 258.3445
133.5041, 256.4259
133.9862, 254.9898
134.4683, 254.0404
134.9504, 253.7263
135.4325, 254.1640
135.9146, 254.9949
136.3968, 255.8549
136.8789, 256.7668
137.3610, 258.2355
137.8431, 260.9243
138.3252, 265.1320
138.8073, 269.3363
139.2895, 273.2681
139.7716, 277.2397
140.2537, 281.7226
140.7358, 286.8842
141.2179, 292.2277
141.7000, 297.0650
142.1821, 301.4399
142.6643, 305.7396
143.1464, 310.1474
143.6285, 314.6085
144.1106, 318.8966
144.5927, 322.6756
145.0748, 326.6200
145.5570, 331.1276
146.0391, 336.2061
146.5212, 342.0114
147.0033, 348.8247
147.4854, 356.7403
147.9675, 364.8553
148.4497, 373.7084
148.9318, 382.3403
149.4139, 390.6122
149.8960, 398.3722
150.3781, 404.9430
150.8602, 409.4295
151.3424, 412.2878
151.8245, 411.6508
152.3066, 406.5094
152.7887, 399.1202
153.2708, 390.9657
153.7529, 382.6808
154.2351, 374.1720
154.7172, 365.1927
155.1993, 354.3273
155.6814, 344.8106
156.1635, 336.7238
156.6456, 330.0446
157.1278, 324.9638
157.6099, 321.6197
158.0920, 319.6830
158.5741, 317.8322
159.0562, 316.0326
159.5383, 314.3345
160.0205, 312.4080
160.5026, 310.5647
160.9847, 309.5762
161.4668, 310.0081
161.9489, 311.6161
162.4310, 313.0512
162.9131, 314.1599
163.3953, 315.2519
163.8774, 316.6261
164.3595, 318.2363
164.8416, 319.5798
165.3237, 320.2295
165.8058, 320.3973
166.2880, 320.5936
166.7701, 320.6105
167.2522, 320.8851
167.7343, 322.0108
168.2164, 324.1163
168.6985, 326.4540
169.1807, 328.6539
169.6628, 330.7977
170.1449, 333.0363
170.6270, 335.5815
171.1091, 338.1534
171.5912, 340.2542
172.0734, 342.3268
172.5555, 342.9308
173.0376, 341.3515
173.5197, 338.2901
174.0018, 334.6587
174.4839, 330.9149
174.9661, 327.0599
175.4482, 323.1244
175.9303, 318.8350
176.4124, 314.7880
176.8945, 311.1784
177.3766, 307.9178
177.8588, 304.8739
178.3409, 301.9315
178.8230, 299.0845
179.3051, 296.4884
179.7872, 294.2154
180.2693, 292.1122
180.7515, 290.2004
181.2336, 288.4340
181.7157, 286.7302
182.1978, 284.9947
182.6799, 283.1918
183.1620, 281.7570
183.6441, 281.1205
184.1263, 280.3864
184.6084, 279.0179
185.0905, 277.0725
185.5726, 275.0100
186.0547, 273.2079
186.5368, 271.6940
187.0190, 270.6094
187.5011, 269.6311
187.9832, 269.2787
188.4653, 270.0099
188.9474, 271.8560
189.4296, 274.4328
189.9117, 277.5366
190.3938, 281.1596
190.8759, 284.8895
191.3580, 288.7302
191.8401, 292.6200
192.3223, 296.5224
192.8044, 300.4476
193.2865, 304.3446
193.7686, 307.8614
194.2507, 311.2101
194.7328, 315.2571
195.2150, 320.3949
195.6971, 326.4005
196.1792, 332.8318
196.6613, 339.5830
197.1434, 346.9698
197.6255, 355.3853
198.1077, 364.6067
198.5898, 373.9656
199.0719, 383.6581
199.5540, 393.3908
200.0361, 401.9587
200.5182, 409.9954
201.0004, 415.6436
201.4825, 418.9477
201.9646, 419.5920
202.4467, 416.7957
202.9288, 410.0343
203.4109, 399.3415
203.8930, 385.0721
204.3752, 364.3816
204.8573, 342.7923
205.3394, 321.5251
205.8215, 301.0945
206.3036, 281.9983
206.7857, 264.5937
207.2679, 248.8405
207.7500, 235.5923
208.2321, 226.1932
208.7142, 218.2444
209.1963, 211.2910
209.6784, 205.2558
210.1606, 200.2237
210.6427, 196.3113
211.1248, 193.6065
211.6069, 191.4816
212.0890, 189.8754
212.5711, 188.8311
213.0533, 188.4873
213.5354, 188.7584
214.0175, 189.3872
214.4996, 190.1198
214.9817, 190.8933
215.4638, 192.3318
215.9460, 194.7727
216.4281, 197.4175
216.9102, 199.9879
217.3923, 202.4199
217.8744, 204.7244
218.3565, 206.8861
218.8387, 208.8842
219.3208, 210.8701
219.8029, 212.7448
220.2850, 214.6947
220.7671, 216.8760
221.2492, 219.2737
221.7314, 221.7146
222.2135, 224.0416
222.6956, 226.2465
223.1777, 228.5553
223.6598, 231.1219
224.1419, 233.6823
224.6240, 236.1745
225.1062, 238.5706
225.5883, 240.5581
226.0704, 241.9769
226.5525, 242.7104
227.0346, 242.5409
227.5167, 241.1179
227.9989, 238.9891
228.4810, 236.5757
228.9631, 233.8999
229.4452, 231.0039
229.9273, 227.6510
230.4094, 224.1214
230.8916, 221.1736
231.3737, 218.9410
231.8558, 217.3545
232.3379, 216.5800
232.8200, 216.7470
233.3021, 216.8139
233.7843, 215.8247
234.2664, 214.3527
234.7485, 213.2769
235.2306, 212.9567
235.7127, 213.0090
236.1948, 212.9200
236.6770, 212.6511
237.1591, 212.3991
237.6412, 212.3524
238.1233, 212.3526
238.6054, 212.1875
239.0875, 211.7061
239.5697, 211.1570
240.0518, 210.9613
240.5339, 211.2083
241.0160, 211.5271
241.4981, 211.8519
241.9802, 212.1424
242.4624, 212.3760
242.9445, 212.5616
243.4266, 212.6295
243.9087, 212.3933
244.3908, 211.6802
244.8729, 211.1378
245.3550, 211.2118
245.8372, 211.3840
246.3193, 211.2370
246.8014, 210.6300
247.2835, 209.6492
247.7656, 208.3753
248.2477, 206.6636
248.7299, 205.0038
249.2120, 203.5963
249.6941, 202.2080
250.1762, 200.6670
250.6583, 198.9172
251.1404, 197.0218
251.6226, 195.0199
252.1047, 192.7580
252.5868, 190.7817
253.0689, 189.2795
253.5510, 187.9384
254.0331, 186.4930
254.5153, 184.8955
254.9974, 183.3274
255.4795, 182.1120
255.9616, 181.5838
256.4437, 180.6811
256.9258, 179.2188
257.4080, 177.5763
257.8901, 175.9929
258.3722, 174.5147
258.8543, 173.0276
259.3364, 171.4151
259.8185, 169.8158
260.3007, 167.6780
260.7828, 164.6845
261.2649, 161.4983
261.7470, 158.5047
262.2291, 155.7466
262.7112, 153.0807
263.1934, 150.3015
263.6755, 147.2900
264.1576, 144.6272
264.6397, 142.4289
265.1218, 140.4129
265.6039, 138.4488
266.0861, 136.5289
266.5682, 134.7064
267.0503, 133.0427
267.5324, 131.5666
268.0145, 130.1073
268.4966, 128.5259
268.9788, 127.0792
269.4609, 125.8666
269.9430, 124.9028
270.4251, 124.1942
270.9072, 123.7674
271.3893, 123.6349
271.8715, 123.5155
272.3536, 123.3676
272.8357, 123.2688
273.3178, 123.2731
273.7999, 123.3573
274.2820, 123.4723
274.7642, 123.6022
275.2463, 123.7336
275.7284, 123.6820
276.2105, 123.3731
276.6926, 123.0112
277.1747, 122.5487
277.6568, 122.0805
278.1389, 121.8568
278.6211, 122.0638
279.1032, 122.5456
279.5853, 122.6092
280.0674, 121.9618
280.5495, 121.3345
281.0316, 121.1683
281.5138, 121.1154
281.9959, 120.4911
282.4780, 118.9529
282.9601, 116.8380
283.4422, 115.0186
283.9243, 113.5175
284.4065, 112.1868
284.8886, 111.0869
285.3707, 110.1175
285.8528, 109.0909
286.3349, 107.9254
286.8170, 106.8049
287.2992, 106.0810
287.7813, 105.8791
288.2634, 105.6135
288.7455, 105.1322
289.2276, 104.5677
289.7097, 104.1021
290.1919, 103.7802
290.6740, 103.4776
291.1561, 103.0304
291.6382, 102.4206
292.1203, 101.8075
292.6024, 101.0474
293.0846, 100.3803
293.5667, 100.1278
294.0488, 100.3215
294.5309, 100.5765
295.0130, 100.5522
295.4951, 100.2319
295.9773, 99.86354
296.4594, 99.40443
296.9415, 98.93572
297.4236, 98.54194
297.9057, 98.21797
298.3878, 97.84193
298.8700, 97.25610
299.3521, 96.54715
299.8342, 96.18245
300.3163, 96.32578
300.7984, 96.65528
301.2805, 97.04533
301.7627, 97.48134
302.2448, 97.90780
302.7269, 98.28584
303.2090, 98.64587
303.6911, 99.09030
304.1732, 99.73657
304.6554, 100.2784
305.1375, 100.4423
305.6196, 100.3888
306.1017, 100.5788
306.5838, 101.2573
307.0659, 102.1260
307.5481, 102.5857
308.0302, 102.5911
308.5123, 102.5196
308.9944, 102.4823
309.4765, 102.4486
309.9586, 102.3743
310.4408, 102.2535
310.9229, 102.0684
311.4050, 101.7658
311.8871, 101.3416
312.3692, 100.9441
312.8513, 100.6543
313.3335, 100.3819
313.8156, 99.99512
314.2977, 99.47163
314.7798, 98.94026
315.2619, 98.54868
315.7440, 98.27834
316.2262, 97.88071
316.7083, 97.20757
317.1904, 96.48992
317.6725, 95.94627
318.1546, 95.56825
318.6367, 95.16995
319.1188, 94.62011
319.6010, 93.94625
320.0831, 93.30291
320.5652, 92.62385
321.0473, 92.03533
321.5294, 91.62092
322.0115, 91.35924
322.4937, 91.17921
322.9758, 91.06969
323.4579, 90.99988
323.9400, 90.88084
324.4221, 90.64739
324.9042, 90.50684
325.3864, 90.55709
325.8685, 90.74612
326.3506, 90.99494
326.8327, 91.29256
327.3148, 91.59669
327.7969, 91.87892
328.2791, 92.18656
328.7612, 92.25517
329.2433, 91.85911
329.7254, 91.27913
330.2075, 90.79288
330.6896, 90.44809
331.1718, 90.28336
331.6539, 90.42152
332.1360, 90.89079
332.6181, 91.06357
333.1002, 90.70375
333.5823, 90.20509
334.0645, 89.95898
334.5466, 89.91534
335.0287, 89.56192
335.5108, 88.41863
335.9929, 86.65434
336.4750, 85.54909
336.9572, 85.62995
337.4393, 85.72086
337.9214, 85.31383
338.4035, 84.53706
338.8856, 83.68807
339.3677, 82.88419
339.8499, 82.13965
340.3320, 81.50211
340.8141, 80.92738
341.2962, 80.51311
341.7783, 80.28899
342.2604, 80.23140
342.7426, 80.36857
343.2247, 80.70858
343.7068, 81.07996
344.1889, 81.19582
344.6710, 80.81553
345.1531, 80.96348
345.6353, 81.92977
346.1174, 83.22865
346.5995, 84.53835
347.0816, 85.80634
347.5637, 87.11327
348.0458, 88.51746
348.5280, 90.02952
349.0101, 91.55253
349.4922, 92.90404
349.9743, 94.44229
350.4564, 96.48460
350.9385, 98.82668
351.4207, 101.0347
351.9028, 102.8544
352.3849, 104.3225
352.8670, 105.5965
353.3491, 106.8870
353.8312, 107.7242
354.3134, 107.8382
354.7955, 107.5514
355.2776, 107.2270
355.7597, 106.9917
356.2418, 106.7449
356.7239, 106.3052
357.2061, 105.5460
357.6882, 104.8401
358.1703, 104.1196
358.6524, 103.4945
359.1345, 102.9013
359.6166, 102.4204
360.0987, 102.3735
360.5808, 103.1388
361.0630, 104.8257
361.5451, 106.2685
362.0272, 107.2008
362.5093, 108.1782
362.9914, 109.3990
363.4735, 110.8051
363.9557, 112.2302
364.4378, 113.5704
364.9199, 114.8709
365.4020, 116.3240
365.8841, 117.9843
366.3662, 119.7409
366.8484, 121.4774
367.3305, 123.3413
367.8126, 125.5353
368.2947, 128.0985
368.7768, 130.8280
369.2589, 133.3896
369.7411, 135.6315
370.2232, 138.1183
370.7053, 140.7803
371.1874, 143.7492
371.6695, 147.1496
372.1516, 150.9536
372.6338, 155.0985
373.1159, 159.5484
373.5980, 164.2878
374.0801, 169.1227
374.5622, 174.0209
375.0443, 179.0854
375.5265, 184.3579
376.0086, 189.8094
376.4907, 195.3563
376.9728, 201.0025
377.4549, 206.7061
377.9370, 212.4369
378.4192, 218.2742
378.9013, 223.9045
379.3834, 228.9403
379.8655, 233.9261
380.3476, 239.4847
380.8297, 245.7243
381.3119, 251.7602
381.7940, 256.4111
382.2761, 259.7230
382.7582, 263.5720
383.2403, 268.6310
383.7224, 273.7716
384.2046, 278.3682
384.6867, 282.4276
385.1688, 286.1301
385.6509, 289.3551
386.1330, 292.2867
386.6151, 295.2588
387.0973, 298.1499
387.5794, 301.4929
388.0615, 306.0498
388.5436, 311.1528
389.0257, 315.9156
389.5078, 320.2326
389.9900, 324.0616
390.4721, 327.2390
390.9542, 329.8316
391.4363, 332.3562
391.9184, 335.2689
392.4005, 337.7885
392.8827, 338.9634
393.3648, 338.8372
393.8469, 337.7100
394.3290, 335.8130
394.8111, 332.9523
395.2932, 328.8512
395.7754, 323.4302
396.2575, 316.8030
396.7396, 308.7236
397.2217, 299.2638
397.7038, 289.8328
398.1859, 280.6695
398.6681, 271.2939
399.1501, 261.2878
399.6323, 250.7596
400.1144, 240.0449
400.5965, 229.2404
401.0786, 218.4792
401.5607, 208.3174
402.0428, 198.6922
402.5250, 189.6243
403.0071, 181.1486
403.4892, 173.2082
403.9713, 165.7619
404.4534, 158.8322
404.9355, 152.4576
405.4177, 146.6702
405.8998, 141.4903
406.3819, 137.1665
406.8640, 133.8283
407.3461, 131.1115
407.8282, 128.9735
408.3104, 127.3028
408.7925, 125.8691
409.2746, 124.4997
409.7567, 123.2833
410.2388, 122.6094
410.7209, 123.0553
411.2031, 123.3250
411.6852, 122.9838
412.1673, 122.5997
412.6494, 122.8054
413.1315, 123.7245
413.6136, 124.8807
414.0958, 125.5903
414.5779, 125.6609
415.0600, 126.0732
415.5421, 126.8553
416.0242, 127.9675
416.5063, 129.6533
416.9885, 131.6804
417.4706, 133.4831
417.9527, 134.6273
418.4348, 135.3675
418.9169, 136.6663
419.3990, 138.8548
419.8812, 140.8519
420.3633, 142.5351
420.8454, 143.7728
421.3275, 144.3481
421.8096, 144.2015
422.2917, 143.6380
422.7739, 142.8599
423.2560, 141.8796
423.7381, 140.9372
424.2202, 140.0658
424.7023, 139.2459
425.1844, 138.3639
425.6666, 137.4859
426.1487, 136.8613
426.6308, 136.8017
427.1129, 136.9614
427.5950, 136.8021
428.0771, 136.3030
428.5593, 135.7974
429.0414, 135.4977
429.5235, 135.2854
430.0056, 134.8723
430.4877, 134.1099
430.9698, 133.4849
431.4520, 133.3733
431.9341, 133.5512
432.4162, 133.5533
432.8983, 133.2521
433.3804, 132.8495
433.8625, 132.5258
434.3447, 132.2733
434.8268, 132.3107
435.3089, 132.7897
435.7910, 133.4371
436.2731, 134.1111
436.7552, 134.7997
437.2374, 135.5116
437.7195, 136.2488
438.2016, 137.0173
438.6837, 137.8293
439.1658, 138.4371
439.6479, 139.4184
440.1301, 141.0221
440.6122, 142.8944
441.0943, 144.8105
441.5764, 146.6624
442.0585, 148.2986
442.5406, 149.4827
443.0227, 150.1260
443.5049, 150.9926
443.9870, 152.2974
444.4691, 153.6052
444.9512, 154.9222
445.4333, 156.1177
445.9154, 157.0103
446.3976, 157.4891
446.8797, 157.6549
447.3618, 157.7643
447.8439, 157.9268
448.3260, 157.6994
448.8081, 156.7205
449.2903, 155.5216
449.7724, 154.4710
450.2545, 153.5623
450.7366, 152.4695
451.2187, 150.8154
451.7008, 148.7440
452.1830, 146.9191
452.6651, 145.4171
453.1472, 144.0199
453.6293, 142.4917
454.1114, 141.0148
454.5935, 139.9113
455.0757, 139.3866
455.5578, 138.9881
456.0399, 138.1584
456.5220, 137.0801
457.0041, 136.5499
457.4862, 136.8291
457.9684, 137.6591
458.4505, 138.7942
458.9326, 140.2132
459.4147, 141.8354
459.8968, 143.7256
460.3789, 145.7530
460.8611, 147.7951
461.3432, 149.8606
461.8253, 152.1308
462.3074, 154.8705
462.7895, 157.7628
463.2716, 159.5131
463.7538, 159.9953
464.2359, 159.6015
464.7180, 158.4662
465.2001, 156.4197
465.6822, 153.1772
466.1643, 148.7328
466.6465, 143.4829
467.1286, 137.8172
467.6107, 131.6526
468.0928, 125.4252
468.5749, 118.7803
469.0570, 112.4502
469.5392, 106.6489
470.0213, 101.3000
470.5034, 96.25439
470.9855, 91.42988
471.4676, 87.06011
471.9497, 83.65988
472.4319, 81.42908
472.9140, 79.30891
473.3961, 77.18533
473.8782, 75.12853
474.3603, 73.10763
474.8424, 71.17982
475.3246, 69.49422
475.8067, 68.19778
476.2888, 67.19637
476.7709, 66.27235
477.2530, 65.42104
477.7351, 64.70147
478.2173, 64.16420
478.6994, 63.77436
479.1815, 63.45636
479.6636, 63.19499
480.1457, 63.05223
480.6278, 63.13375
481.1100, 63.33654
481.5920, 63.46882
482.0742, 63.49491
482.5563, 63.49275
483.0384, 63.49913
483.5205, 63.52512
484.0026, 63.73535
484.4847, 64.16988
484.9669, 64.72969
485.4490, 65.46006
485.9311, 66.27323
486.4132, 66.98936
486.8953, 67.54530
487.3774, 68.09324
487.8596, 68.92287
488.3417, 70.33727
488.8238, 71.19634
489.3059, 71.24818
489.7880, 71.08475
490.2701, 70.93092
490.7523, 70.79692
491.2344, 70.63267
491.7165, 70.41100
492.1986, 70.13303
492.6807, 69.83409
493.1628, 69.60658
493.6450, 69.10461
494.1271, 67.94930
494.6092, 66.71856
495.0913, 65.87116
495.5734, 65.39161
496.0555, 64.81404
496.5377, 63.64972
497.0198, 62.16196
497.5019, 61.12745
497.9840, 60.64443
498.4661, 60.22516
498.9482, 59.68492
499.4304, 58.99343
499.9125, 58.07655
500.3946, 56.79113
500.8767, 55.61620
501.3588, 54.86079
501.8409, 54.35009
502.3231, 53.74785
502.8052, 52.98620
503.2873, 52.24202
503.7694, 51.71376
504.2515, 51.40783
504.7336, 50.91029
505.2158, 50.05764
505.6979, 49.21970
506.1800, 48.46553
506.6621, 47.82806
507.1442, 47.39989
507.6263, 47.20327
508.1085, 47.07319
508.5906, 46.73693
509.0727, 46.09481
509.5548, 45.60564
510.0369, 45.31676
510.5190, 45.13569
511.0012, 45.06616
511.4833, 45.07419
511.9654, 45.09881
512.4475, 45.10233
512.9296, 45.13323
513.4117, 45.27558
513.8939, 45.53345
514.3760, 45.87860
514.8581, 46.33225
515.3402, 46.85304
515.8223, 47.44324
516.3044, 48.08205
516.7866, 48.63859
517.2687, 48.91114
517.7508, 49.15860
518.2329, 49.78090
518.7150, 50.75274
519.1971, 51.63922
519.6793, 52.15418
520.1614, 52.55883
520.6435, 53.49169
521.1256, 55.12830
521.6077, 56.66402
522.0898, 57.88580
522.5720, 59.00266
523.0541, 60.13836
523.5362, 61.32594
524.0183, 62.59973
524.5004, 63.96467
524.9825, 65.44420
525.4647, 67.22409
525.9468, 69.70242
526.4289, 71.88942
526.9110, 73.57992
527.3931, 75.05570
527.8752, 76.44121
528.3574, 77.81206
528.8395, 79.32940
529.3216, 81.23399
529.8037, 83.42132
530.2858, 85.31166
530.7679, 86.95915
531.2501, 88.16550
531.7322, 88.65259
532.2143, 88.73690
532.6964, 88.70237
533.1785, 88.58853
533.6606, 88.35899
534.1428, 88.07545
534.6249, 87.64317
535.1070, 86.78531
535.5891, 85.44266
536.0712, 83.99570
536.5533, 82.74535
537.0355, 81.63693
537.5176, 80.36198
537.9997, 78.92941
538.4818, 77.33350
538.9639, 75.33456
539.4460, 73.27328
539.9282, 71.59870
540.4103, 70.38953
540.8924, 69.37788
541.3745, 68.30795
541.8566, 67.17911
542.3387, 66.00937
542.8209, 64.73142
543.3029, 63.50150
543.7850, 62.34441
544.2672, 61.25753
544.7493, 60.24203
545.2314, 59.29670
545.7135, 58.41809
546.1956, 57.68690
546.6777, 57.07257
547.1599, 56.19451
547.6420, 54.87132
548.1241, 53.63133
548.6062, 52.95825
549.0883, 52.55592
549.5704, 51.93145
550.0526, 50.91911
550.5347, 49.86380
551.0168, 48.94636
551.4989, 48.14454
551.9810, 47.40544
552.4631, 46.71761
552.9453, 46.11195
553.4274, 45.63187
553.9095, 45.27666
554.3916, 44.89964
554.8737, 44.53662
555.3558, 44.11314
555.8380, 43.52394
556.3201, 42.89842
556.8022, 42.42528
557.2843, 42.13812
557.7664, 41.88970
558.2485, 41.47389
558.7307, 40.87894
559.2128, 40.52071
559.6949, 40.59406
560.1770, 40.63309
560.6591, 40.47258
561.1412, 40.19883
561.6234, 39.87900
562.1055, 39.51869
562.5876, 39.24708
563.0697, 39.24471
563.5518, 39.42637
564.0339, 39.49232
564.5161, 39.38878
564.9982, 39.27252
565.4803, 39.27718
565.9624, 39.36016
566.4445, 39.33316
566.9266, 39.10626
567.4088, 38.89838
567.8909, 38.77276
568.3730, 38.71275
568.8551, 38.68086
569.3372, 38.67865
569.8193, 38.77864
570.3015, 39.07714
570.7836, 39.55465
571.2657, 39.81374
571.7478, 39.73659
572.2299, 39.58458
572.7120, 39.16203
573.1942, 38.83162
573.6763, 39.08232
574.1584, 39.90871
574.6405, 40.64586
575.1226, 40.59177
575.6047, 39.95177
576.0869, 39.59288
576.5690, 39.56849
577.0511, 39.60138
577.5332, 39.55366
578.0153, 39.49591
578.4974, 39.54934
578.9796, 39.74293
579.4617, 39.92509
579.9438, 40.03985
580.4259, 40.11280
580.9080, 40.14336
581.3901, 40.14892
581.8723, 40.22213
582.3544, 40.43635
582.8365, 40.73299
583.3186, 40.91439
583.8007, 40.94254
584.2828, 40.90454
584.7650, 40.74102
585.2471, 40.56765
585.7292, 40.40392
586.2113, 40.29467
586.6934, 40.35069
587.1755, 40.68005
587.6577, 41.14398
588.1398, 41.42245
588.6219, 41.49706
589.1040, 41.50413
589.5861, 41.41255
590.0682, 41.33415
590.5504, 41.38406
591.0325, 41.54442
591.5146, 41.70222
591.9967, 41.84205
592.4788, 41.94950
592.9609, 42.01471
593.4431, 42.03625
593.9252, 41.97970
594.4073, 41.82258
594.8894, 41.69102
595.3715, 41.78158
595.8536, 42.17579
596.3358, 42.42256
596.8179, 42.48019
597.3000, 42.46058
597.7821, 42.33739
598.2642, 42.18539
598.7463, 42.09269
599.2285, 42.09069
599.7106, 42.17062
600.1927, 42.37969
600.6748, 42.70832
601.1569, 42.84522
601.6390, 42.68829
602.1212, 42.52741
602.6033, 42.51991
603.0854, 42.61703
603.5675, 42.76965
604.0496, 43.00624
604.5317, 43.19733
605.0139, 43.24289
605.4960, 43.21916
605.9781, 43.23894
606.4602, 43.31294
606.9423, 43.38488
607.4244, 43.40960
607.9066, 43.40461
608.3887, 43.44923
608.8708, 43.55655
609.3529, 43.70003
609.8350, 43.95193
610.3171, 44.17931
610.7993, 44.26434
611.2814, 44.23372
611.7635, 44.20117
612.2456, 44.22960
612.7277, 44.31465
613.2098, 44.47115
613.6920, 44.71034
614.1741, 44.88361
614.6562, 44.88937
615.1383, 44.90507
615.6204, 45.17633
616.1025, 45.64872
616.5847, 45.97715
617.0668, 45.88804
617.5489, 45.83543
618.0310, 46.21021
618.5131, 46.81416
618.9952, 47.21364
619.4774, 47.28531
619.9595, 47.28356
620.4416, 47.52839
620.9237, 48.05008
621.4058, 48.36755
621.8879, 48.23045
622.3701, 48.19413
622.8522, 48.40824
623.3343, 48.75618
623.8164, 49.16030
624.2985, 49.58812
624.7806, 49.94345
625.2628, 50.02540
625.7448, 49.99044
626.2269, 50.35984
626.7090, 51.19282
627.1912, 51.81710
627.6733, 51.82756
628.1554, 51.54927
628.6375, 51.63414
629.1196, 52.16805
629.6017, 52.57364
630.0839, 52.64484
630.5660, 52.67074
631.0481, 52.85086
631.5302, 53.15102
632.0123, 53.46582
632.4944, 53.74566
632.9766, 53.99041
633.4587, 54.21035
633.9408, 54.42326
634.4229, 54.50773
634.9050, 54.25953
635.3871, 54.15365
635.8693, 54.55596
636.3514, 55.16475
636.8335, 55.49601
637.3156, 55.38778
637.7977, 55.21228
638.2798, 55.22171
638.7620, 55.34974
639.2441, 55.48245
639.7262, 55.60529
640.2083, 55.73518
640.6904, 55.89952
641.1725, 56.06050
641.6547, 56.09011
642.1368, 55.83940
642.6189, 55.67360
643.1010, 55.66824
643.5831, 55.68009
644.0652, 55.57965
644.5474, 55.42057
645.0295, 55.36848
645.5116, 55.52678
645.9937, 55.75234
646.4758, 55.81498
646.9579, 55.71571
647.4401, 55.57723
647.9222, 55.42212
648.4043, 55.21946
648.8864, 54.87479
649.3685, 54.46294
649.8506, 54.21919
650.3328, 54.08546
650.8149, 54.23935
651.2970, 55.20595
651.7791, 56.24988
652.2612, 56.36211
652.7433, 55.53470
653.2255, 54.53441
653.7076, 53.91154
654.1897, 53.59324
654.6718, 53.30766
655.1539, 53.03834
655.6360, 52.84315
656.1182, 52.84829
656.6003, 52.82711
657.0824, 52.59653
657.5645, 52.22927
658.0466, 51.97143
658.5287, 51.99256
659.0109, 52.03090
659.4930, 51.81787
659.9751, 51.42497
660.4572, 51.02004
660.9393, 50.63686
661.4214, 50.35120
661.9036, 50.26214
662.3857, 50.33808
662.8678, 50.23783
663.3499, 49.85930
663.8320, 49.43589
664.3141, 48.87848
664.7963, 48.36525
665.2784, 48.07137
665.7605, 47.96321
666.2426, 47.86325
666.7247, 47.66380
667.2068, 47.40545
667.6890, 47.17288
668.1711, 46.96341
668.6532, 46.66332
669.1353, 46.21393
669.6174, 45.75026
670.0995, 45.38379
670.5817, 45.11773
671.0638, 44.94330
671.5459, 45.02105
672.0280, 44.99210
672.5101, 44.65084
672.9922, 44.20103
673.4744, 43.88526
673.9565, 43.71132
674.4386, 43.50597
674.9207, 43.13523
675.4028, 42.63510
675.8849, 42.06517
676.3671, 41.34576
676.8492, 40.93434
677.3313, 41.17916
677.8134, 41.46516
678.2955, 41.24689
678.7776, 40.65646
679.2598, 40.16354
679.7419, 39.89134
680.2240, 39.72040
680.7061, 39.66037
681.1882, 39.62602
681.6703, 39.47036
682.1525, 39.17653
682.6346, 38.83893
683.1167, 38.53366
683.5988, 38.24993
684.0809, 37.92003
684.5630, 37.47537
685.0452, 37.13643
685.5273, 37.05502
686.0094, 36.98170
686.4915, 36.77808
686.9736, 36.46255
687.4557, 36.10218
687.9379, 35.67976
688.4200, 35.29691
688.9021, 35.04876
689.3842, 34.90910
689.8663, 34.84331
690.3484, 34.84156
690.8306, 34.82747
691.3127, 34.73947
691.7948, 34.59034
692.2769, 34.44348
692.7590, 34.33104
693.2411, 34.16753
693.7233, 33.93834
694.2054, 33.67252
694.6875, 33.35033
695.1696, 33.00731
695.6517, 32.72886
696.1339, 32.56491
696.6160, 32.43829
697.0981, 32.25023
697.5802, 32.02642
698.0623, 31.87190
698.5444, 31.80921
699.0266, 31.72080
699.5087, 31.50454
699.9908, 31.21091
700.4729, 31.03833
700.9550, 31.17630
701.4371, 31.14322
701.9193, 30.75617
702.4014, 30.36014
702.8835, 30.18050
703.3656, 30.15690
703.8477, 30.13643
704.3298, 30.05949
704.8120, 29.91870
705.2941, 29.63473
705.7762, 29.26391
706.2583, 29.11806
706.7404, 29.25880
707.2225, 29.39726
707.7046, 29.35900
708.1867, 29.21092
708.6688, 29.11727
709.1509, 29.07437
709.6331, 29.09080
710.1152, 29.24852
710.5973, 29.38633
711.0794, 29.40619
711.5615, 29.33815
712.0436, 29.24700
712.5258, 29.15565
713.0079, 29.04054
713.4900, 28.83192
713.9721, 28.56417
714.4542, 28.45706
714.9363, 28.55020
715.4185, 28.58755
715.9006, 28.41661
716.3827, 28.16389
716.8648, 28.05566
717.3469, 28.12160
717.8290, 28.13774
718.3112, 27.98993
718.7933, 27.89077
719.2754, 28.02081
719.7575, 28.23497
720.2396, 28.31654
720.7217, 28.21410
721.2039, 28.04068
721.6860, 27.87884
722.1681, 27.74121
722.6502, 27.70211
723.1323, 27.77888
723.6144, 27.79751
724.0966, 27.65950
724.5787, 27.50657
725.0608, 27.51022
725.5429, 27.66816
726.0250, 27.84343
726.5071, 28.09114
726.9893, 28.28178
727.4714, 28.32949
727.9535, 28.31940
728.4356, 28.35851
728.9177, 28.44854
729.3998, 28.49560
729.8820, 28.40902
730.3641, 28.27472
730.8462, 28.31025
731.3283, 28.52222
731.8104, 28.70696
732.2925, 28.81215
732.7747, 28.91503
733.2568, 29.10003
733.7389, 29.33898
734.2210, 29.48662
734.7031, 29.45165
735.1852, 29.46531
735.6674, 29.66796
736.1495, 29.86175
736.6316, 29.78996
737.1137, 29.56592
737.5958, 29.56059
738.0779, 29.97602
738.5601, 30.51133
739.0422, 30.66359
739.5243, 30.48756
740.0064, 30.54572
740.4885, 30.92954
740.9706, 31.32626
741.4528, 31.55068
741.9349, 31.68483
742.4170, 31.91074
742.8991, 32.24739
743.3812, 32.60019
743.8633, 32.96452
744.3455, 33.34066
744.8276, 33.72783
745.3097, 34.12749
745.7918, 34.53511
746.2739, 34.95081
746.7560, 35.40145
747.2382, 35.89220
747.7203, 36.43914
748.2024, 37.10801
748.6845, 37.90289
749.1666, 38.71471
749.6487, 39.51062
750.1309, 40.29647
750.6130, 41.05988
751.0951, 41.78875
751.5772, 42.70765
752.0593, 44.01058
752.5414, 45.23202
753.0236, 46.13784
753.5057, 47.01905
753.9878, 48.12597
754.4699, 49.46873
754.9520, 50.94114
755.4341, 52.48771
755.9163, 54.14277
756.3984, 56.00543
756.8805, 58.02863
757.3626, 59.93668
757.8447, 61.67750
758.3268, 63.49765
758.8090, 65.58562
759.2911, 67.87413
759.7732, 70.13410
760.2553, 72.14318
760.7374, 74.55947
761.2195, 77.98059
761.7017, 81.14322
762.1838, 83.31457
762.6659, 84.88042
763.1480, 86.48150
763.6301, 88.28858
764.1122, 90.11227
764.5944, 92.00117
765.0765, 93.72020
765.5586, 94.75706
766.0407, 95.22160
766.5228, 95.77659
767.0049, 96.68948
767.4871, 97.65568
767.9692, 98.26393
768.4513, 98.50352
768.9334, 98.72413
769.4155, 98.84499
769.8976, 99.08020
770.3798, 99.68144
770.8619, 100.2476
771.3440, 100.4333
771.8261, 100.2767
772.3082, 100.0680
772.7903, 99.92658
773.2725, 99.73767
773.7546, 99.47787
774.2367, 99.09544
774.7188, 98.51231
775.2009, 97.71925
775.6830, 96.73599
776.1652, 95.56396
776.6473, 94.23925
777.1294, 92.80637
777.6115, 91.21842
778.0936, 89.81551
778.5757, 88.62322
779.0579, 87.61174
779.5400, 86.88957
780.0221, 86.29117
780.5042, 85.50294
780.9863, 84.42485
781.4684, 83.58255
781.9506, 83.36096
782.4327, 83.15527
782.9148, 82.48301
783.3969, 81.58813
783.8790, 80.89767
784.3611, 80.52209
784.8433, 80.29856
785.3254, 80.11820
785.8075, 79.94987
786.2896, 79.75798
786.7717, 79.54697
787.2538, 79.00586
787.7360, 77.97547
788.2181, 76.84890
788.7002, 76.02479
789.1823, 75.44469
789.6644, 74.63838
790.1465, 73.54856
790.6286, 72.32174
791.1107, 70.81176
791.5928, 69.31290
792.0750, 67.98097
792.5571, 66.81248
793.0392, 65.73172
793.5213, 64.70672
794.0034, 63.84764
794.4855, 63.39708
794.9677, 63.11753
795.4498, 62.48290
795.9319, 61.53698
796.4140, 60.82639
796.8961, 60.59127
797.3782, 60.49909
797.8604, 60.07389
798.3425, 59.29205
798.8246, 58.67371
799.3067, 58.16464
799.7888, 57.91275
800.2709, 58.17311
800.7531, 58.53598
801.2352, 58.67511
801.7173, 58.63610
802.1994, 58.68284
802.6815, 58.81831
803.1636, 59.14855
803.6458, 59.97729
804.1279, 60.87336
804.6100, 61.22889
805.0921, 61.13294
805.5742, 61.11634
806.0563, 61.46421
806.5385, 62.03722
807.0206, 62.71476
807.5027, 63.46997
807.9848, 63.81295
808.4669, 63.61306
808.9490, 63.59639
809.4312, 64.14992
809.9133, 64.96057
810.3954, 65.57274
810.8775, 65.95515
811.3596, 66.32735
811.8417, 66.56297
812.3239, 66.94656
812.8060, 67.64601
813.2881, 68.46188
813.7702, 69.13001
814.2523, 69.70792
814.7344, 70.54534
815.2166, 71.91955
815.6987, 73.39498
816.1808, 74.43243
816.6629, 75.23615
817.1450, 76.23343
817.6271, 77.47766
818.1093, 78.92719
818.5914, 80.58198
819.0735, 82.28537
819.5556, 83.71342
820.0377, 84.81340
820.5198, 85.97149
821.0020, 87.19518
821.4841, 88.48262
821.9662, 89.96786
822.4483, 91.41586
822.9304, 92.48348
823.4125, 93.18845
823.8947, 94.05257
824.3768, 95.17831
824.8589, 96.47807
825.3410, 97.88251
825.8231, 99.46959
826.3052, 101.3493
826.7874, 103.4987
827.2695, 105.7888
827.7516, 108.1576
828.2337, 110.6428
828.7158, 113.3893
829.1979, 116.3119
829.6801, 118.9853
830.1622, 121.3554
830.6443, 123.9223
831.1264, 126.9671
831.6085, 130.2164
832.0906, 133.2919
832.5728, 136.2117
833.0549, 138.7162
833.5370, 140.7528
834.0191, 142.4040
834.5012, 143.9294
834.9833, 144.9030
835.4655, 144.9280
835.9476, 144.0657
836.4297, 142.7248
836.9118, 140.9951
837.3939, 138.8690
837.8760, 136.2185
838.3582, 133.2420
838.8403, 129.9799
839.3224, 126.6019
839.8045, 123.4620
840.2866, 120.7298
840.7687, 118.4283
841.2509, 116.5622
841.7330, 115.1651
842.2151, 114.4975
842.6972, 114.5812
843.1793, 115.0910
843.6614, 115.8400
844.1436, 117.1800
844.6257, 119.5808
845.1078, 123.0245
845.5899, 126.6021
846.0720, 130.0253
846.5541, 133.9996
847.0363, 138.7916
847.5184, 143.9477
848.0005, 149.0511
848.4826, 154.3421
848.9647, 160.4004
849.4468, 167.4052
849.9290, 175.0189
850.4111, 182.9088
850.8932, 191.4812
851.3753, 201.3229
851.8574, 212.2167
852.3395, 223.5828
852.8217, 235.2033
853.3038, 247.5791
853.7859, 261.1407
854.2680, 275.6808
854.7501, 290.7421
855.2322, 306.3530
855.7144, 320.9000
856.1965, 334.2622
856.6786, 345.4918
857.1607, 354.0318
857.6428, 359.7023
858.1249, 361.9748
858.6071, 360.9620
859.0892, 356.1779
859.5713, 346.3131
860.0534, 334.3280
860.5355, 320.3903
861.0176, 305.3275
861.4998, 289.8322
861.9819, 274.0112
862.4640, 258.3778
862.9461, 242.5116
863.4282, 227.3571
863.9103, 213.5197
864.3925, 200.8462
864.8746, 189.4324
865.3567, 179.0434
865.8388, 169.2219
866.3209, 159.6847
866.8030, 150.6361
867.2852, 142.4910
867.7673, 135.1969
868.2494, 128.3702
868.7315, 122.0010
869.2136, 116.2547
869.6957, 111.2126
870.1779, 106.7021
870.6600, 102.5463
871.1421, 98.73661
871.6242, 95.35057
872.1063, 92.56454
872.5884, 89.89141
873.0705, 87.20518
873.5526, 84.68150
874.0347, 82.41901
874.5168, 80.41344
874.9990, 78.58447
875.4811, 76.87680
875.9632, 75.52322
876.4453, 75.08535
876.9274, 74.57884
877.4095, 73.02937
877.8917, 70.98825
878.3738, 69.42963
878.8559, 68.57253
879.3380, 67.97111
879.8201, 67.28502
880.3022, 66.65114
880.7844, 66.33607
881.2665, 66.26801
881.7486, 66.18427
882.2307, 66.04458
882.7128, 65.93492
883.1949, 65.90403
883.6771, 65.96253
884.1592, 66.13708
884.6413, 66.43533
885.1234, 66.80931
885.6055, 67.32322
886.0876, 67.74306
886.5698, 67.88267
887.0519, 68.00288
887.5340, 68.45089
888.0161, 69.19798
888.4982, 69.81052
888.9803, 69.93943
889.4625, 70.40776
889.9446, 71.61510
890.4267, 72.96558
890.9088, 74.03082
891.3909, 74.93136
891.8730, 75.88281
892.3552, 76.93802
892.8373, 78.35762
893.3194, 80.56664
893.8015, 83.01154
894.2836, 85.11390
894.7657, 86.98204
895.2479, 88.77963
895.7300, 90.58165
896.2121, 92.55400
896.6942, 94.79565
897.1763, 97.31734
897.6584, 100.1627
898.1406, 103.3095
898.6227, 106.6936
899.1048, 110.3204
899.5869, 113.9771
900.0690, 117.6253
900.5511, 121.1131
901.0333, 124.1511
901.5154, 126.6982
901.9975, 129.7052
902.4796, 133.2326
902.9617, 137.1409
903.4438, 141.6981
903.9260, 146.3555
904.4081, 150.7229
904.8902, 154.8956
905.3723, 159.0913
905.8544, 163.4303
906.3365, 167.4714
906.8187, 171.2923
907.3008, 174.5697
907.7829, 177.0312
908.2650, 178.8248
908.7471, 180.3477
909.2292, 181.5314
909.7114, 181.6735
910.1935, 180.4129
910.6756, 177.8458
911.1577, 173.7443
911.6398, 168.5241
912.1219, 162.7784
912.6041, 156.6973
913.0862, 150.3993
913.5683, 143.9443
914.0504, 137.8130
914.5325, 132.6026
915.0146, 128.2758
915.4968, 124.3601
915.9789, 120.8335
916.4610, 118.3165
916.9431, 117.0241
917.4252, 116.4404
917.9073, 116.2296
918.3895, 116.2968
918.8716, 116.2132
919.3537, 115.4588
919.8358, 115.9121
920.3179, 118.2038
920.8000, 120.8006
921.2822, 122.8955
921.7643, 125.1331
922.2464, 128.1161
922.7285, 131.8602
923.2106, 136.3780
923.6927, 141.5094
924.1749, 147.6260
924.6570, 155.2276
925.1391, 163.4904
925.6212, 171.5245
926.1033, 179.7388
926.5854, 189.0813
927.0676, 199.8405
927.5497, 211.3421
928.0318, 222.8999
928.5139, 235.1079
928.9960, 249.0424
929.4781, 264.0417
929.9603, 278.9902
930.4424, 293.7156
930.9245, 308.4027
931.4066, 323.1718
931.8887, 337.9342
932.3708, 352.2212
932.8530, 366.2738
933.3351, 381.0707
933.8172, 396.6288
934.2993, 412.8495
934.7814, 429.5928
935.2635, 446.8236
935.7457, 464.5453
936.2278, 482.6465
936.7099, 500.7348
937.1920, 519.2979
937.6741, 536.0865
938.1563, 552.0239
938.6384, 563.8085
939.1205, 570.6679
939.6026, 571.5490
940.0847, 564.6637
940.5668, 549.9007
941.0490, 528.1446
941.5311, 496.7686
942.0132, 462.2280
942.4953, 423.0494
942.9774, 383.5194
943.4595, 345.8683
943.9417, 310.4265
944.4238, 277.8417
944.9059, 248.1241
945.3880, 221.5094
945.8701, 198.1400
946.3522, 177.6285
946.8344, 160.3860
947.3165, 145.7072
947.7986, 133.0295
948.2807, 122.0971
948.7628, 112.3262
949.2449, 103.4372
949.7271, 95.53296
950.2092, 88.79001
950.6913, 82.99449
951.1734, 77.86904
951.6555, 73.33443
952.1376, 69.27730
952.6198, 65.64214
953.1019, 62.31206
953.5840, 59.14520
954.0661, 56.21023
954.5482, 53.74443
955.0303, 51.68158
955.5124, 49.52877
955.9945, 47.20686
956.4766, 45.16213
956.9587, 43.63395
957.4409, 42.45599
957.9230, 41.41528
958.4051, 40.50000
958.8872, 39.43956
959.3693, 38.18109
959.8514, 36.97390
960.3336, 35.83913
960.8157, 34.85392
961.2978, 34.14829
961.7799, 33.60498
962.2620, 32.88456
962.7441, 31.90141
963.2263, 31.00776
963.7084, 30.19098
964.1905, 29.48737
964.6726, 28.91039
965.1547, 28.44452
965.6368, 28.12860
966.1190, 27.92022
966.6011, 27.63029
967.0832, 27.16436
967.5653, 26.75944
968.0474, 26.51392
968.5295, 26.29011
969.0117, 26.00369
969.4938, 25.69531
969.9759, 25.45502
970.4580, 25.27269
970.9401, 25.00014
971.4222, 24.51801
971.9044, 24.01938
972.3865, 23.52552
972.8686, 23.15498
973.3507, 23.14960
973.8328, 23.35081
974.3149, 23.40135
974.7971, 23.19638
975.2792, 22.87905
975.7613, 22.47316
976.2434, 22.11668
976.7255, 22.07695
977.2076, 22.20069
977.6898, 22.15127
978.1719, 21.91261
978.6540, 21.64560
979.1361, 21.42572
979.6182, 21.23603
980.1003, 21.04788
980.5825, 20.87451
981.0646, 20.77053
981.5467, 20.73097
982.0288, 20.73900
982.5109, 20.79091
982.9930, 20.76442
983.4752, 20.56859
983.9573, 20.30109
984.4394, 20.15724
984.9215, 20.13845
985.4036, 20.07400
985.8857, 19.96918
986.3679, 19.76028
986.8500, 19.38001
987.3321, 19.05829
987.8142, 19.01163
988.2963, 19.13873
988.7784, 19.11136
989.2606, 18.86266
989.7427, 18.70047
990.2248, 18.67426
990.7069, 18.64133
991.1890, 18.58277
991.6711, 18.46894
992.1533, 18.20696
992.6354, 17.84799
993.1175, 17.70806
993.5996, 18.00995
994.0817, 18.12946
994.5638, 17.92717
995.0460, 17.69801
995.5281, 17.51439
996.0102, 17.38899
996.4923, 17.36884
996.9744, 17.43185
997.4565, 17.42408
997.9387, 17.28925
998.4208, 17.12775
998.9029, 16.89199
999.3850, 16.71362
999.8671, 16.76464
1000.349, 16.88002
1000.831, 16.80259
1001.313, 16.51719
1001.796, 16.24701
1002.278, 16.05562
1002.760, 15.94468
1003.242, 15.94819
1003.724, 16.00382
1004.206, 16.08693
1004.688, 16.16492
1005.170, 16.18667
1005.653, 16.14266
1006.135, 16.07627
1006.617, 16.02244
1007.099, 15.94661
1007.581, 15.75675
1008.063, 15.56204
1008.545, 15.57513
1009.027, 15.72327
1009.509, 15.74460
1009.992, 15.55516
1010.474, 15.32691
1010.956, 15.18916
1011.438, 15.12509
1011.920, 15.14428
1012.402, 15.20784
1012.884, 15.24515
1013.366, 15.23623
1013.849, 15.12664
1014.331, 14.89555
1014.813, 14.66215
1015.295, 14.53962
1015.777, 14.52931
1016.259, 14.70640
1016.741, 15.00978
1017.223, 15.14082
1017.705, 15.06308
1018.188, 14.89907
1018.670, 14.70732
1019.152, 14.53214
1019.634, 14.43259
1020.116, 14.40319
1020.598, 14.43915
1021.080, 14.53591
1021.562, 14.57904
1022.044, 14.54945
1022.527, 14.43023
1023.009, 14.19361
1023.491, 13.95254
1023.973, 13.90899
1024.455, 14.04557
1024.937, 14.04655
1025.419, 13.88416
1025.901, 13.84855
1026.384, 14.03547
1026.866, 14.14847
1027.348, 13.96908
1027.830, 13.67822
1028.312, 13.62227
1028.794, 13.81317
1029.276, 13.93841
1029.758, 13.99746
1030.240, 13.98985
1030.723, 13.89941
1031.205, 13.77747
1031.687, 13.64418
1032.169, 13.51505
1032.651, 13.41979
1033.133, 13.35840
1033.615, 13.33070
1034.097, 13.33670
1034.579, 13.38350
1035.062, 13.53852
1035.544, 13.62961
1036.026, 13.47820
1036.508, 13.22468
1036.990, 13.19095
1037.472, 13.44864
1037.954, 13.51944
1038.436, 13.22750
1038.919, 13.03007
1039.401, 13.02288
1039.883, 13.11383
1040.365, 13.34990
1040.847, 13.61073
1041.329, 13.59197
1041.811, 13.19518
1042.293, 13.04275
1042.776, 13.43134
1043.258, 13.66386
1043.740, 13.48451
1044.222, 13.23892
1044.704, 13.15547
1045.186, 13.16226
1045.668, 13.09356
1046.150, 12.91468
1046.632, 12.83841
1047.115, 12.98835
1047.597, 13.10356
1048.079, 13.09903
1048.561, 13.05998
1049.043, 13.04157
1049.525, 13.03300
1050.007, 13.00504
1050.489, 12.95230
1050.971, 12.90885
1051.454, 12.87987
1051.936, 12.86308
1052.418, 12.89857
1052.900, 12.90653
1053.382, 12.80094
1053.864, 12.63754
1054.346, 12.51419
1054.828, 12.44438
1055.311, 12.41417
1055.793, 12.38470
1056.275, 12.44189
1056.757, 12.72788
1057.239, 13.00200
1057.721, 13.09494
1058.203, 13.04201
1058.685, 12.88603
1059.167, 12.64057
1059.650, 12.48473
1060.132, 12.53218
1060.614, 12.60438
1061.096, 12.66777
1061.578, 12.69718
1062.060, 12.59859
1062.542, 12.48780
1063.024, 12.60703
1063.506, 12.96696
1063.989, 13.19837
1064.471, 13.05458
1064.953, 12.91952
1065.435, 12.97183
1065.917, 13.07191
1066.399, 13.13122
1066.881, 13.15671
1067.363, 13.16806
1067.846, 13.17002
1068.328, 13.16780
1068.810, 13.17091
1069.292, 13.15698
1069.774, 13.13208
1070.256, 13.07022
1070.738, 12.88046
1071.220, 12.68174
1071.703, 12.69417
1072.185, 12.89331
1072.667, 12.95358
1073.149, 12.64876
1073.631, 12.43613
1074.113, 12.58421
1074.595, 12.84303
1075.077, 13.10685
1075.559, 13.32298
1076.042, 13.44814
1076.524, 13.47568
1077.006, 13.40182
1077.488, 13.19043
1077.970, 12.99136
1078.452, 12.81160
1078.934, 12.73573
1079.416, 12.90984
1079.898, 13.15732
1080.380, 13.24542
1080.863, 13.20575
1081.345, 13.25874
1081.827, 13.51264
1082.309, 13.65344
1082.791, 13.39490
1083.273, 13.14961
1083.755, 13.24380
1084.237, 13.42540
1084.720, 13.39708
1085.202, 13.21321
1085.684, 13.09264
1086.166, 13.09496
1086.648, 13.13607
1087.130, 13.21797
1087.612, 13.28302
1088.094, 13.28409
1088.577, 13.27010
1089.059, 13.30696
1089.541, 13.35959
1090.023, 13.33490
1090.505, 13.21341
1090.987, 13.11842
1091.469, 13.08850
1091.951, 13.10411
1092.433, 13.22899
1092.916, 13.32658
1093.398, 13.26169
1093.880, 13.10589
1094.362, 12.98373
1094.844, 12.91288
1095.326, 12.84390
1095.808, 12.77368
1096.290, 12.68530
1096.772, 12.50228
1097.255, 12.37572
1097.737, 12.44007
1098.219, 12.59492
1098.701, 12.72423
1099.183, 12.80937
1099.665, 12.84616
1100.147, 12.85251
1100.629, 12.76993
1101.112, 12.43946
1101.594, 12.18759
1102.076, 12.28042
1102.558, 12.45153
1103.040, 12.41244
1103.522, 12.19371
1104.004, 11.96643
1104.486, 11.69130
1104.969, 11.61253
1105.451, 11.97685
1105.933, 12.27974
1106.415, 12.32030
1106.897, 12.25568
1107.379, 12.16096
1107.861, 12.07533
1108.343, 12.12018
1108.825, 12.37077
1109.307, 12.36386
1109.790, 11.73496
1110.272, 11.30737
1110.754, 11.34452
1111.236, 11.52416
1111.718, 11.75681
1112.200, 11.95840
1112.682, 11.98432
1113.164, 11.82642
1113.647, 11.63526
1114.129, 11.31368
1114.611, 11.12200
1115.093, 11.10739
1115.575, 11.18851
1116.057, 11.40604
1116.539, 11.63438
1117.021, 11.73148
1117.504, 11.70764
1117.986, 11.63504
1118.468, 11.48324
1118.950, 11.35210
1119.432, 11.21590
1119.914, 11.15946
1120.396, 11.24668
1120.878, 11.36348
1121.360, 11.42595
1121.843, 11.43301
1122.325, 11.36735
1122.807, 11.19954
1123.289, 11.14573
1123.771, 11.23715
1124.253, 11.34440
1124.735, 11.46039
1125.217, 11.52276
1125.699, 11.48217
1126.182, 11.38487
1126.664, 11.30711
1127.146, 11.24826
1127.628, 11.19628
1128.110, 11.15118
1128.592, 11.09870
1129.074, 11.02358
1129.556, 11.07970
1130.039, 11.36919
1130.521, 11.61551
1131.003, 11.46961
1131.485, 11.07700
1131.967, 10.96173
1132.449, 11.10863
1132.931, 11.27165
1133.413, 11.43413
1133.896, 11.52488
1134.378, 11.52234
1134.860, 11.43359
1135.342, 11.24707
1135.824, 11.06734
1136.306, 11.13448
1136.788, 11.36503
1137.270, 11.40927
1137.752, 11.30912
1138.234, 11.30365
1138.717, 11.42264
1139.199, 11.53740
1139.681, 11.58263
1140.163, 11.54374
1140.645, 11.34016
1141.127, 11.10201
1141.609, 11.10393
1142.091, 11.24143
1142.574, 11.28845
1143.056, 11.24556
1143.538, 11.20593
1144.020, 11.20112
1144.502, 11.21921
1144.984, 11.26596
1145.466, 11.29781
1145.948, 11.24977
1146.431, 11.17620
1146.913, 11.15590
1147.395, 11.15806
1147.877, 11.08477
1148.359, 10.95947
1148.841, 10.95460
1149.323, 11.16536
1149.805, 11.36158
1150.287, 11.39398
1150.770, 11.36476
1151.252, 11.30415
1151.734, 11.25661
1152.216, 11.29000
1152.698, 11.36726
1153.180, 11.36902
1153.662, 11.27161
1154.144, 11.29251
1154.626, 11.64254
1155.109, 11.92638
1155.591, 11.95512
1156.073, 11.94282
1156.555, 12.06549
1157.037, 12.19862
1157.519, 12.11771
1158.001, 11.86270
1158.483, 11.78603
1158.966, 12.02446
1159.448, 12.21745
1159.930, 12.32461
1160.412, 12.40991
1160.894, 12.51805
1161.376, 12.57973
1161.858, 12.53347
1162.340, 12.40970
1162.822, 12.26607
1163.305, 12.09654
1163.787, 11.97106
1164.269, 11.90413
1164.751, 11.84356
1165.233, 11.79398
1165.715, 11.71822
1166.197, 11.59800
1166.679, 11.44017
1167.161, 11.23833
1167.644, 11.02019
1168.126, 10.91251
1168.608, 10.92024
1169.090, 10.87111
1169.572, 10.75525
1170.054, 10.69758
1170.536, 10.73353
1171.018, 10.77148
1171.500, 10.74625
1171.983, 10.70402
1172.465, 10.74324
1172.947, 10.81709
1173.429, 10.74730
1173.911, 10.57269
1174.393, 10.41638
1174.875, 10.30670
1175.357, 10.28646
1175.840, 10.36702
1176.322, 10.48905
1176.804, 10.63760
1177.286, 10.72667
1177.768, 10.58697
1178.250, 10.36554
1178.732, 10.25096
1179.214, 10.23554
1179.697, 10.31517
1180.179, 10.44891
1180.661, 10.51445
1181.143, 10.46347
1181.625, 10.32440
1182.107, 9.980041
1182.589, 9.715727
1183.071, 9.747778
1183.553, 9.923582
1184.036, 10.18942
1184.518, 10.44360
1185.000, 10.51779
1185.482, 10.39583
1185.964, 10.25349
1186.446, 9.943586
1186.928, 9.917910
1187.410, 10.67631
1187.892, 11.20390
1188.375, 10.76728
1188.857, 10.18091
1189.339, 10.31918
1189.821, 10.86953
1190.303, 10.88879
1190.785, 10.23776
1191.267, 9.886003
1191.749, 9.922535
1192.232, 10.02657
1192.714, 10.19009
1193.196, 10.28576
1193.678, 10.23311
1194.160, 10.13021
1194.642, 10.09420
1195.124, 10.11120
1195.606, 10.12234
1196.089, 10.12927
1196.571, 10.20340
1197.053, 10.34099
1197.535, 10.39977
1198.017, 10.34737
1198.499, 10.27603
1198.981, 10.24232
1199.463, 10.22549
1199.945, 10.19738
1200.427, 10.16760
1200.910, 10.14328
1201.392, 10.13728
1201.874, 10.20477
1202.356, 10.31383
1202.838, 10.37361
1203.320, 10.35473
1203.802, 10.24496
1204.284, 9.987204
1204.767, 9.789456
1205.249, 9.874506
1205.731, 10.01536
1206.213, 10.01408
1206.695, 9.965395
1207.177, 9.996545
1207.659, 10.08898
1208.141, 10.16187
1208.624, 10.19898
1209.106, 10.22204
1209.588, 10.28073
1210.070, 10.25881
1210.552, 10.03752
1211.034, 9.842053
1211.516, 9.757162
1211.998, 9.778251
1212.480, 9.959667
1212.963, 10.23332
1213.445, 10.32982
1213.927, 10.20886
1214.409, 10.10010
1214.891, 9.979181
1215.373, 9.984045
1215.855, 10.16804
1216.337, 10.34776
1216.819, 10.42662
1217.302, 10.45727
1217.784, 10.51676
1218.266, 10.55702
1218.748, 10.35329
1219.230, 9.990078
1219.712, 9.926599
1220.194, 10.13201
1220.676, 10.33205
1221.159, 10.45650
1221.641, 10.52486
1222.123, 10.54652
1222.605, 10.55350
1223.087, 10.61222
1223.569, 10.63872
1224.051, 10.49272
1224.533, 10.28927
1225.016, 10.18181
1225.498, 10.13876
1225.980, 10.06426
1226.462, 9.952066
1226.944, 9.876177
1227.426, 9.861284
1227.908, 9.888743
1228.390, 9.941525
1228.872, 10.04929
1229.354, 10.30021
1229.837, 10.53685
1230.319, 10.65886
1230.801, 10.66956
1231.283, 10.55145
1231.765, 10.31115
1232.247, 10.19392
1232.729, 10.24680
1233.211, 10.27825
1233.694, 10.27242
1234.176, 10.27201
1234.658, 10.28777
1235.140, 10.32983
1235.622, 10.41693
1236.104, 10.48804
1236.586, 10.43393
1237.068, 10.27654
1237.551, 10.06393
1238.033, 9.830863
1238.515, 9.748851
1238.997, 9.806090
1239.479, 9.867199
1239.961, 9.888679
1240.443, 9.888397
1240.925, 9.877433
1241.407, 9.849080
1241.890, 9.752714
1242.372, 9.682053
1242.854, 9.793684
1243.336, 9.934305
1243.818, 9.845778
1244.300, 9.656184
1244.782, 9.724047
1245.264, 10.07674
1245.746, 10.24638
1246.229, 9.943832
1246.711, 9.761776
1247.193, 9.914698
1247.675, 10.04781
1248.157, 10.05806
1248.639, 9.984631
1249.121, 9.801646
1249.603, 9.605720
1250.085, 9.588418
1250.568, 9.735102
1251.050, 9.772282
1251.532, 9.681586
1252.014, 9.703228
1252.496, 9.861333
1252.978, 9.951434
1253.460, 9.912436
1253.942, 9.845510
1254.425, 9.820443
1254.907, 9.802364
1255.389, 9.723802
1255.871, 9.634139
1256.353, 9.623865
1256.835, 9.673582
1257.317, 9.765182
1257.799, 9.879309
1258.281, 10.00013
1258.764, 10.11059
1259.246, 10.15794
1259.728, 10.11748
1260.210, 10.01921
1260.692, 9.760208
1261.174, 9.600660
1261.656, 9.793451
1262.138, 10.00055
1262.620, 9.924994
1263.103, 9.713216
1263.585, 9.592676
1264.067, 9.562893
1264.549, 9.623275
1265.031, 9.837847
1265.513, 9.909821
1265.995, 9.795061
1266.477, 9.740751
1266.960, 9.816586
1267.442, 9.848471
1267.924, 9.735260
1268.406, 9.567867
1268.888, 9.437758
1269.370, 9.361804
1269.852, 9.408185
1270.334, 9.525607
1270.817, 9.585022
1271.299, 9.600730
1271.781, 9.644320
1272.263, 9.710340
1272.745, 9.722672
1273.227, 9.652044
1273.709, 9.566961
1274.191, 9.482550
1274.673, 9.429551
1275.156, 9.456923
1275.638, 9.481922
1276.120, 9.442014
1276.602, 9.375445
1277.084, 9.290101
1277.566, 9.224155
1278.048, 9.313861
1278.530, 9.595843
1279.012, 9.674708
1279.495, 9.457256
1279.977, 9.393588
1280.459, 9.571228
1280.941, 9.674958
1281.423, 9.579874
1281.905, 9.489195
1282.387, 9.570904
1282.869, 9.710636
1283.352, 9.695575
1283.834, 9.601225
1284.316, 9.588442
1284.798, 9.657724
##END=



