##NAMES=Artinite
##RRUFFID=R060166
##IDEAL CHEMISTRY=Mg_2_CO_3_(OH)_2_&#183;3H_2_O
##LOCALITY=San Benito County, California, USA
##OWNER=RRUFF
##SOURCE=Marcus Origlieri
##DESCRIPTION=Spherical aggregates of divergent colorless acicular crystals
##STATUS=The identification of this mineral has been confirmed by X-ray diffraction and chemical analysis
##URL=rruff.info/R060166
##MEASURED CHEMISTRY=Mg_2.00_CO_3_(OH)_2_Â·3H_2_O ; C and H not measured but estimated by charge balance
90.26367, 31.94586
90.74579, 31.62628
91.22791, 31.81712
91.71002, 32.45203
92.19214, 32.94220
92.67426, 32.65036
93.15637, 31.81796
93.63850, 31.08747
94.12061, 30.64821
94.60273, 30.45184
95.08485, 30.45653
95.56696, 30.69005
96.04908, 30.93652
96.53120, 30.96222
97.01331, 30.77052
97.49543, 30.43342
97.97755, 29.85072
98.45966, 29.05456
98.94178, 28.53843
99.42390, 28.29076
99.90602, 28.34779
100.3881, 28.87121
100.8703, 29.99106
101.3524, 31.13131
101.8345, 32.15766
102.3166, 33.21634
102.7987, 33.39006
103.2808, 32.19029
103.7630, 30.06735
104.2451, 29.17482
104.7272, 30.28614
105.2093, 31.59470
105.6914, 31.84640
106.1735, 30.18220
106.6557, 28.93057
107.1378, 28.45704
107.6199, 28.78065
108.1020, 29.13318
108.5841, 29.54708
109.0662, 29.97537
109.5484, 30.38084
110.0305, 30.45521
110.5126, 30.81659
110.9947, 31.56553
111.4768, 32.72696
111.9590, 34.19736
112.4411, 36.36808
112.9232, 38.75992
113.4053, 40.69251
113.8874, 41.31327
114.3695, 42.06953
114.8517, 43.41600
115.3338, 45.30519
115.8159, 48.04433
116.2980, 51.94818
116.7801, 56.80956
117.2622, 62.12023
117.7444, 67.62437
118.2265, 73.59531
118.7086, 80.15208
119.1907, 87.24122
119.6728, 95.16627
120.1549, 104.0626
120.6371, 113.9324
121.1192, 124.8332
121.6013, 136.7836
122.0834, 149.6852
122.5655, 163.3785
123.0477, 177.7970
123.5298, 193.0046
124.0119, 209.1209
124.4940, 226.1313
124.9761, 243.9021
125.4582, 262.1481
125.9404, 280.9580
126.4225, 300.3612
126.9046, 320.8917
127.3867, 341.8634
127.8688, 361.9604
128.3509, 381.0839
128.8331, 400.2948
129.3152, 420.8163
129.7973, 442.5714
130.2794, 464.6286
130.7615, 486.1988
131.2436, 507.7126
131.7258, 530.3156
132.2079, 554.0658
132.6900, 578.8607
133.1721, 604.3174
133.6542, 630.3201
134.1364, 658.0392
134.6185, 688.8178
135.1006, 722.6913
135.5827, 756.9144
136.0648, 792.0715
136.5469, 826.9543
137.0291, 858.6414
137.5112, 886.6404
137.9933, 912.6141
138.4754, 938.2225
138.9575, 963.6341
139.4396, 986.0870
139.9218, 1004.409
140.4039, 1019.449
140.8860, 1034.965
141.3681, 1051.060
141.8502, 1067.280
142.3323, 1082.535
142.8145, 1095.976
143.2966, 1111.184
143.7787, 1128.801
144.2608, 1148.950
144.7429, 1169.732
145.2251, 1193.151
145.7072, 1215.645
146.1893, 1234.163
146.6714, 1249.541
147.1535, 1259.732
147.6356, 1264.833
148.1178, 1265.325
148.5999, 1257.535
149.0820, 1237.424
149.5641, 1210.720
150.0462, 1184.203
150.5283, 1152.402
151.0105, 1126.568
151.4926, 1098.627
151.9747, 1076.618
152.4568, 1065.749
152.9389, 1069.478
153.4210, 1083.172
153.9032, 1100.633
154.3853, 1126.203
154.8674, 1150.804
155.3495, 1172.115
155.8316, 1191.669
156.3138, 1204.872
156.7959, 1211.189
157.2780, 1210.929
157.7601, 1204.585
158.2422, 1188.789
158.7243, 1169.598
159.2065, 1149.680
159.6886, 1129.391
160.1707, 1108.484
160.6528, 1085.769
161.1349, 1062.197
161.6170, 1040.338
162.0992, 1020.279
162.5813, 1002.643
163.0634, 987.8060
163.5455, 975.7099
164.0276, 966.4842
164.5097, 960.2361
164.9919, 956.8717
165.4740, 956.1306
165.9561, 957.4080
166.4382, 961.4169
166.9203, 968.7951
167.4025, 979.8010
167.8846, 994.0884
168.3667, 1012.681
168.8488, 1035.075
169.3309, 1058.043
169.8130, 1083.224
170.2952, 1106.967
170.7773, 1124.539
171.2594, 1136.944
171.7415, 1140.967
172.2236, 1134.609
172.7057, 1117.909
173.1879, 1090.496
173.6700, 1048.502
174.1521, 995.9694
174.6342, 939.7322
175.1163, 877.7993
175.5984, 815.0392
176.0806, 756.8643
176.5627, 702.9371
177.0448, 654.7316
177.5269, 614.0316
178.0090, 580.2487
178.4911, 550.8919
178.9733, 525.7097
179.4554, 504.4146
179.9375, 486.5095
180.4196, 472.1972
180.9017, 460.5641
181.3839, 451.4865
181.8660, 444.6226
182.3481, 438.4211
182.8302, 432.2406
183.3123, 426.2741
183.7944, 421.0147
184.2766, 416.4625
184.7587, 412.4423
185.2408, 409.0284
185.7229, 406.1008
186.2050, 402.6992
186.6871, 398.2015
187.1693, 392.8004
187.6514, 387.4745
188.1335, 382.1853
188.6156, 376.9502
189.0977, 371.7291
189.5798, 366.5316
190.0620, 361.2476
190.5441, 355.3880
191.0262, 349.1580
191.5083, 343.9843
191.9904, 339.8812
192.4725, 336.7583
192.9547, 334.8221
193.4368, 334.0984
193.9189, 333.2086
194.4010, 331.1839
194.8831, 328.1193
195.3652, 325.4823
195.8474, 323.4056
196.3295, 321.7412
196.8116, 320.1615
197.2937, 318.6449
197.7758, 317.4488
198.2579, 316.6688
198.7401, 316.2978
199.2222, 316.6050
199.7043, 317.7560
200.1864, 319.4098
200.6685, 320.7524
201.1507, 321.6787
201.6328, 322.7395
202.1149, 324.3014
202.5970, 326.4049
203.0791, 328.6031
203.5612, 330.8979
204.0434, 333.2137
204.5255, 335.2699
205.0076, 336.9909
205.4897, 338.7201
205.9718, 340.6859
206.4539, 342.9296
206.9361, 345.2280
207.4182, 347.7254
207.9003, 350.1910
208.3824, 351.9822
208.8645, 353.1015
209.3466, 353.5573
209.8288, 353.2784
210.3109, 352.1439
210.7930, 350.8520
211.2751, 349.6061
211.7572, 348.2170
212.2393, 345.8102
212.7215, 342.0998
213.2036, 338.0569
213.6857, 334.1404
214.1678, 330.1181
214.6499, 326.9745
215.1321, 324.8354
215.6142, 323.6040
216.0963, 322.9135
216.5784, 322.7647
217.0605, 323.1397
217.5426, 324.0143
218.0248, 325.3265
218.5069, 327.3193
218.9890, 330.2049
219.4711, 333.7985
219.9532, 337.3238
220.4353, 340.9559
220.9175, 344.2907
221.3996, 346.8926
221.8817, 347.9838
222.3638, 350.4422
222.8459, 355.1969
223.3280, 361.6266
223.8102, 366.0489
224.2923, 367.5004
224.7744, 368.5414
225.2565, 370.7891
225.7386, 374.7055
226.2208, 378.6534
226.7029, 382.3090
227.1850, 385.8566
227.6671, 390.1017
228.1492, 395.2229
228.6313, 400.7814
229.1135, 406.4751
229.5956, 412.2392
230.0777, 418.3693
230.5598, 424.8179
231.0419, 431.6644
231.5240, 439.4383
232.0062, 448.3067
232.4883, 457.8813
232.9704, 467.9289
233.4525, 478.3300
233.9346, 489.4420
234.4167, 501.4078
234.8989, 514.0781
235.3810, 526.8007
235.8631, 540.2483
236.3452, 553.0680
236.8273, 564.8297
237.3095, 576.2441
237.7916, 585.0359
238.2737, 591.1407
238.7558, 594.5553
239.2379, 595.4225
239.7200, 593.6992
240.2022, 589.4742
240.6843, 582.6219
241.1664, 572.4143
241.6485, 561.1104
242.1306, 548.4274
242.6127, 534.6880
243.0949, 521.4420
243.5770, 508.2272
244.0591, 496.1147
244.5412, 485.8940
245.0233, 478.2691
245.5054, 470.8334
245.9876, 463.4648
246.4697, 456.2723
246.9518, 449.3397
247.4339, 442.5413
247.9160, 436.1588
248.3981, 430.4257
248.8803, 425.5055
249.3624, 420.7784
249.8445, 416.4461
250.3266, 412.2339
250.8087, 407.3417
251.2909, 401.5565
251.7730, 395.4832
252.2551, 389.3989
252.7372, 383.1175
253.2193, 377.1260
253.7014, 371.2777
254.1836, 365.8256
254.6657, 361.5462
255.1478, 359.0427
255.6299, 356.6439
256.1120, 353.5675
256.5941, 349.5041
257.0763, 345.8626
257.5584, 342.8231
258.0405, 340.0573
258.5226, 336.9291
259.0047, 333.2354
259.4868, 329.5441
259.9690, 325.9949
260.4511, 322.4697
260.9332, 319.6450
261.4153, 317.5597
261.8974, 316.1049
262.3795, 315.2621
262.8617, 315.3815
263.3438, 315.2388
263.8259, 314.2579
264.3080, 312.2393
264.7901, 310.8504
265.2722, 310.2068
265.7544, 310.0491
266.2365, 310.1106
266.7186, 310.5269
267.2007, 310.7293
267.6829, 310.3991
268.1650, 309.4720
268.6471, 309.1691
269.1292, 309.6400
269.6113, 310.4900
270.0934, 311.3601
270.5756, 312.3961
271.0577, 312.8845
271.5398, 312.3620
272.0219, 310.8767
272.5040, 310.3870
272.9861, 311.1166
273.4683, 312.3590
273.9504, 313.5742
274.4325, 314.8622
274.9146, 315.5046
275.3967, 315.2792
275.8788, 314.2427
276.3610, 312.7932
276.8431, 310.8698
277.3252, 308.7645
277.8073, 306.8100
278.2894, 305.0463
278.7715, 303.0276
279.2537, 300.7069
279.7358, 298.0441
280.2179, 294.6779
280.7000, 290.4565
281.1821, 286.1739
281.6642, 282.5296
282.1464, 279.5290
282.6285, 276.2404
283.1106, 272.3904
283.5927, 268.2574
284.0748, 264.6021
284.5569, 261.4351
285.0391, 258.5087
285.5212, 255.6462
286.0033, 252.8449
286.4854, 250.0884
286.9675, 247.3339
287.4496, 244.6778
287.9318, 242.2698
288.4139, 240.0916
288.8960, 238.2642
289.3781, 237.0632
289.8602, 236.3230
290.3424, 235.1171
290.8245, 233.2507
291.3066, 231.2000
291.7887, 229.8209
292.2708, 229.0410
292.7530, 228.2229
293.2351, 226.9921
293.7172, 225.4534
294.1993, 223.8022
294.6814, 221.9335
295.1635, 220.4548
295.6457, 220.5136
296.1278, 221.7725
296.6099, 222.8045
297.0920, 222.9066
297.5741, 222.3322
298.0562, 221.3613
298.5384, 219.9623
299.0205, 218.7313
299.5026, 218.4704
299.9847, 218.8764
300.4668, 219.1307
300.9489, 218.6771
301.4311, 218.0114
301.9132, 217.8920
302.3953, 218.3009
302.8774, 218.7856
303.3595, 218.9297
303.8416, 218.9097
304.3238, 219.0390
304.8059, 219.4414
305.2880, 220.0103
305.7701, 220.5983
306.2522, 221.2331
306.7343, 222.0499
307.2165, 223.2430
307.6986, 224.6424
308.1807, 226.0608
308.6628, 227.5585
309.1449, 228.9152
309.6270, 229.9317
310.1092, 230.6754
310.5913, 231.3348
311.0734, 231.6877
311.5555, 232.1761
312.0376, 233.2473
312.5197, 235.1585
313.0019, 237.1730
313.4840, 238.9295
313.9661, 240.5125
314.4482, 242.1114
314.9304, 243.6395
315.4125, 245.3330
315.8946, 247.4306
316.3767, 250.0872
316.8588, 252.5468
317.3409, 254.3765
317.8231, 255.8822
318.3052, 257.4599
318.7873, 259.6047
319.2694, 261.5423
319.7515, 262.7449
320.2336, 263.1124
320.7158, 263.9023
321.1979, 266.0901
321.6800, 268.5635
322.1621, 270.3104
322.6442, 270.5132
323.1263, 270.6032
323.6085, 271.1697
324.0906, 272.1357
324.5727, 272.2378
325.0548, 270.5175
325.5369, 268.3793
326.0190, 266.6749
326.5012, 266.3952
326.9833, 265.4711
327.4654, 263.4838
327.9475, 260.6665
328.4296, 257.9803
328.9117, 255.5296
329.3939, 253.1216
329.8760, 250.6911
330.3581, 248.4638
330.8402, 245.7440
331.3223, 242.0199
331.8044, 237.9221
332.2866, 234.7140
332.7687, 232.5853
333.2508, 231.1184
333.7329, 230.3532
334.2150, 230.5515
334.6971, 230.0991
335.1793, 228.6249
335.6614, 226.8528
336.1435, 225.7805
336.6256, 225.6579
337.1077, 225.5435
337.5899, 225.0854
338.0720, 224.3317
338.5541, 224.4729
339.0362, 225.8815
339.5183, 227.3728
340.0005, 227.7490
340.4826, 226.8459
340.9647, 226.0222
341.4468, 225.4833
341.9289, 225.1949
342.4110, 225.1314
342.8932, 225.3422
343.3753, 225.4423
343.8574, 225.0073
344.3395, 224.0842
344.8216, 223.6072
345.3037, 223.8089
345.7859, 224.1973
346.2680, 223.7766
346.7501, 222.5958
347.2322, 221.5544
347.7143, 221.2132
348.1964, 221.3869
348.6786, 221.4760
349.1607, 221.4487
349.6428, 221.3984
350.1249, 221.4407
350.6070, 221.5511
351.0891, 221.6483
351.5713, 221.6085
352.0534, 221.5826
352.5355, 221.8323
353.0176, 222.3491
353.4997, 222.9341
353.9818, 223.4512
354.4640, 223.9298
354.9461, 224.3774
355.4282, 224.5317
355.9103, 224.9976
356.3924, 226.5984
356.8745, 229.0777
357.3567, 231.3748
357.8388, 232.6551
358.3209, 233.6414
358.8030, 234.9785
359.2851, 236.8372
359.7672, 238.8855
360.2494, 240.9803
360.7315, 243.1477
361.2136, 245.4002
361.6957, 247.4250
362.1779, 249.8154
362.6600, 253.0746
363.1421, 257.3810
363.6242, 261.3955
364.1063, 264.6320
364.5884, 267.4244
365.0706, 270.0865
365.5527, 272.3139
366.0348, 274.7881
366.5169, 277.6588
366.9990, 280.9200
367.4811, 284.4356
367.9633, 288.6232
368.4454, 292.7780
368.9275, 296.4792
369.4096, 299.7344
369.8917, 302.5015
370.3738, 304.5948
370.8560, 306.2125
371.3381, 307.8603
371.8202, 309.5461
372.3023, 311.2754
372.7844, 313.0493
373.2665, 314.8788
373.7487, 316.6848
374.2308, 318.4861
374.7129, 320.2477
375.1950, 322.0740
375.6771, 324.2162
376.1592, 325.6089
376.6414, 325.7906
377.1235, 324.8988
377.6056, 324.4785
378.0877, 324.7625
378.5698, 324.7538
379.0519, 323.4820
379.5341, 320.9545
380.0162, 318.1903
380.4983, 315.4893
380.9804, 312.5051
381.4625, 308.3937
381.9446, 303.1263
382.4268, 297.7515
382.9089, 292.8571
383.3910, 288.3475
383.8731, 283.6073
384.3553, 278.5064
384.8374, 273.7088
385.3195, 270.1621
385.8016, 267.5974
386.2837, 265.1582
386.7658, 262.2545
387.2480, 259.4092
387.7301, 257.4334
388.2122, 256.3012
388.6943, 255.1484
389.1764, 253.1359
389.6585, 250.8030
390.1407, 248.8583
390.6228, 247.5062
391.1049, 246.5795
391.5870, 246.1555
392.0691, 246.1133
392.5512, 246.0900
393.0334, 245.9671
393.5155, 245.7767
393.9976, 245.5186
394.4797, 245.1609
394.9618, 244.8495
395.4439, 244.6846
395.9261, 244.5785
396.4082, 244.4159
396.8903, 243.8557
397.3724, 243.5504
397.8545, 243.9581
398.3366, 245.1348
398.8188, 245.5691
399.3009, 244.3872
399.7830, 242.9421
400.2651, 242.1116
400.7472, 242.7024
401.2293, 242.6759
401.7115, 241.6542
402.1936, 239.9732
402.6757, 238.6403
403.1578, 237.7286
403.6399, 237.0352
404.1220, 236.5002
404.6042, 236.1322
405.0863, 235.8660
405.5684, 235.7456
406.0505, 235.6596
406.5326, 235.3765
407.0147, 234.8295
407.4969, 234.6241
407.9790, 235.0459
408.4611, 235.9064
408.9432, 236.3855
409.4254, 236.4438
409.9075, 236.5208
410.3896, 237.0217
410.8717, 237.8554
411.3538, 238.5938
411.8359, 239.1271
412.3181, 239.6452
412.8002, 240.2701
413.2823, 241.0558
413.7644, 242.2654
414.2465, 244.5989
414.7286, 247.1843
415.2108, 248.6028
415.6929, 248.7367
416.1750, 249.1693
416.6571, 251.7196
417.1392, 255.1131
417.6213, 257.6852
418.1035, 258.0663
418.5856, 258.3180
419.0677, 259.7601
419.5498, 262.1091
420.0319, 264.2453
420.5140, 265.5822
420.9962, 266.6864
421.4783, 267.8782
421.9604, 269.1780
422.4425, 270.6247
422.9246, 272.4555
423.4067, 274.3588
423.8889, 275.9313
424.3710, 276.6912
424.8531, 277.5571
425.3352, 278.7119
425.8173, 280.1531
426.2994, 281.6935
426.7816, 283.4328
427.2637, 285.1568
427.7458, 286.6996
428.2279, 287.9535
428.7100, 289.3447
429.1921, 290.9491
429.6743, 292.6627
430.1564, 294.1796
430.6385, 295.4645
431.1206, 296.6913
431.6028, 297.9432
432.0849, 299.2247
432.5670, 300.4303
433.0491, 301.6076
433.5312, 302.5280
434.0133, 302.8424
434.4955, 302.6335
434.9776, 302.4131
435.4597, 302.1964
435.9418, 302.1771
436.4239, 302.9487
436.9060, 304.3689
437.3882, 305.5617
437.8703, 306.0330
438.3524, 305.9082
438.8345, 305.2346
439.3166, 303.9414
439.7987, 302.6046
440.2809, 301.4832
440.7630, 300.6490
441.2451, 300.2250
441.7272, 300.9312
442.2093, 301.4560
442.6914, 300.8125
443.1736, 299.2020
443.6557, 297.9987
444.1378, 297.9724
444.6199, 298.3329
445.1020, 298.6037
445.5841, 298.6963
446.0663, 298.7475
446.5484, 298.5862
447.0305, 298.4386
447.5126, 298.6885
447.9947, 299.6257
448.4768, 300.6061
448.9590, 301.4673
449.4411, 302.1987
449.9232, 303.0893
450.4053, 304.1442
450.8874, 305.3547
451.3695, 306.7183
451.8517, 308.2668
452.3338, 309.8087
452.8159, 311.2223
453.2980, 312.7131
453.7801, 314.8429
454.2622, 317.6360
454.7444, 320.4200
455.2265, 322.7075
455.7086, 324.7112
456.1907, 327.4124
456.6729, 330.9091
457.1550, 334.2794
457.6371, 336.6701
458.1192, 338.3331
458.6013, 339.8616
459.0834, 341.1758
459.5656, 342.7890
460.0477, 345.4593
460.5298, 348.9319
461.0119, 352.3068
461.4940, 355.3656
461.9761, 358.0540
462.4583, 360.1778
462.9404, 361.6963
463.4225, 363.3547
463.9046, 365.8885
464.3867, 368.5607
464.8688, 370.6148
465.3510, 371.2211
465.8331, 371.9646
466.3152, 373.4664
466.7973, 375.4146
467.2794, 376.6698
467.7615, 376.8777
468.2437, 376.6840
468.7258, 376.3784
469.2079, 376.1404
469.6900, 374.9981
470.1721, 372.8391
470.6542, 369.8992
471.1364, 366.4061
471.6185, 362.3565
472.1006, 357.7357
472.5827, 352.4510
473.0648, 346.6497
473.5469, 341.0669
474.0291, 335.8164
474.5112, 329.4659
474.9933, 320.3121
475.4754, 309.1847
475.9575, 299.7490
476.4396, 292.2323
476.9218, 285.6113
477.4039, 279.4572
477.8860, 273.4130
478.3681, 266.5957
478.8503, 257.9803
479.3324, 249.3951
479.8145, 242.6144
480.2966, 237.3486
480.7787, 232.8071
481.2608, 229.0500
481.7430, 225.4023
482.2251, 221.3018
482.7072, 216.5691
483.1893, 212.0717
483.6714, 208.0008
484.1535, 204.3573
484.6357, 201.1358
485.1178, 198.8065
485.5999, 196.3294
486.0820, 193.2349
486.5641, 189.8259
487.0462, 187.1719
487.5284, 185.6612
488.0105, 184.3931
488.4926, 183.0446
488.9747, 181.6318
489.4568, 180.0841
489.9389, 178.3417
490.4211, 176.5951
490.9032, 175.1435
491.3853, 174.0053
491.8674, 172.6706
492.3495, 170.9063
492.8316, 169.0541
493.3138, 167.9951
493.7959, 167.6568
494.2780, 167.2918
494.7601, 166.2673
495.2422, 164.9685
495.7243, 164.2332
496.2065, 164.1092
496.6886, 164.0308
497.1707, 163.5949
497.6528, 162.8985
498.1349, 162.0356
498.6170, 160.7270
499.0992, 159.6974
499.5813, 159.6502
500.0634, 160.1886
500.5455, 160.3371
501.0276, 159.3610
501.5097, 158.3065
501.9919, 157.5418
502.4740, 157.1026
502.9561, 156.9332
503.4382, 157.4233
503.9203, 157.8983
504.4025, 157.8725
504.8846, 157.0408
505.3667, 156.3453
505.8488, 155.8915
506.3309, 155.5763
506.8130, 155.1516
507.2952, 154.5738
507.7773, 154.0952
508.2594, 153.8649
508.7415, 153.8255
509.2236, 153.6670
509.7057, 153.3943
510.1879, 152.9508
510.6700, 152.0920
511.1521, 151.0125
511.6342, 150.3087
512.1163, 150.1301
512.5984, 150.1576
513.0806, 150.0168
513.5627, 149.8351
514.0448, 149.8795
514.5269, 150.7180
515.0090, 151.4491
515.4911, 151.3459
515.9733, 150.5132
516.4554, 149.7096
516.9375, 149.0072
517.4196, 148.5770
517.9017, 148.6057
518.3839, 149.4449
518.8660, 149.9223
519.3481, 149.6380
519.8302, 149.0550
520.3123, 148.6563
520.7944, 148.4959
521.2766, 148.4356
521.7587, 148.5554
522.2408, 148.7505
522.7229, 148.5418
523.2050, 147.8125
523.6871, 147.1211
524.1693, 146.7688
524.6514, 146.7390
525.1335, 146.7474
525.6156, 146.7982
526.0977, 146.8638
526.5798, 146.9493
527.0620, 147.0297
527.5441, 147.0344
528.0262, 146.9561
528.5083, 146.7745
528.9904, 146.2936
529.4725, 145.6796
529.9547, 145.3461
530.4368, 145.8159
530.9189, 146.3783
531.4010, 146.5567
531.8831, 146.3379
532.3652, 146.0829
532.8474, 145.9217
533.3295, 145.7520
533.8116, 145.4892
534.2937, 144.9113
534.7758, 144.6225
535.2579, 144.8662
535.7401, 145.2947
536.2222, 145.3428
536.7043, 144.6880
537.1865, 144.4687
537.6686, 145.1906
538.1507, 146.5085
538.6328, 146.6212
539.1149, 145.3475
539.5970, 144.0179
540.0792, 143.4385
540.5613, 143.4901
541.0434, 143.7590
541.5255, 144.2588
542.0076, 144.6805
542.4897, 144.6672
542.9719, 144.3597
543.4540, 144.0222
543.9361, 143.6658
544.4182, 143.4106
544.9003, 143.3909
545.3824, 143.5457
545.8646, 143.7404
546.3467, 144.0254
546.8288, 144.2420
547.3109, 144.2639
547.7930, 144.0825
548.2751, 143.9933
548.7573, 144.3400
549.2394, 144.5539
549.7215, 144.2696
550.2036, 143.0035
550.6857, 142.3892
551.1678, 142.7529
551.6500, 143.4387
552.1321, 143.4547
552.6142, 142.6690
553.0963, 142.0990
553.5784, 142.0331
554.0605, 142.2901
554.5427, 142.4584
555.0248, 142.5360
555.5069, 142.4760
555.9890, 142.1143
556.4711, 141.6405
556.9532, 141.3598
557.4354, 141.2841
557.9175, 141.4206
558.3996, 142.0684
558.8817, 142.7965
559.3638, 143.0934
559.8459, 142.6222
560.3281, 142.1461
560.8102, 142.0652
561.2923, 142.1545
561.7744, 142.0605
562.2565, 141.3293
562.7386, 140.8458
563.2208, 140.9129
563.7029, 141.4324
564.1850, 141.7017
564.6671, 141.5786
565.1492, 141.4575
565.6313, 141.6201
566.1135, 142.1195
566.5956, 142.0690
567.0777, 141.3366
567.5598, 140.5187
568.0419, 140.3129
568.5240, 140.5978
569.0062, 140.7043
569.4883, 140.4196
569.9704, 140.1059
570.4525, 140.3248
570.9346, 140.8928
571.4167, 141.3262
571.8989, 141.2993
572.3810, 141.1560
572.8631, 141.1199
573.3452, 141.1817
573.8273, 141.2459
574.3094, 141.4377
574.7916, 141.4963
575.2737, 141.1767
575.7558, 140.1682
576.2379, 139.7483
576.7200, 140.4583
577.2021, 141.3419
577.6843, 141.5181
578.1664, 140.7171
578.6485, 139.9456
579.1306, 139.1435
579.6127, 138.5960
580.0948, 139.1622
580.5770, 140.8421
581.0591, 142.0332
581.5412, 141.7999
582.0233, 140.8208
582.5054, 140.6095
582.9875, 141.0857
583.4697, 141.6237
583.9518, 141.8717
584.4340, 141.9204
584.9161, 141.8136
585.3982, 141.5354
585.8803, 141.3230
586.3624, 141.5625
586.8445, 141.7900
587.3267, 141.5694
587.8088, 139.8808
588.2909, 138.9353
588.7730, 139.5606
589.2551, 140.9249
589.7372, 141.6367
590.2194, 141.4399
590.7015, 141.0677
591.1836, 140.5845
591.6657, 140.0669
592.1478, 140.0593
592.6299, 140.6495
593.1121, 141.0889
593.5942, 140.7288
594.0763, 139.8314
594.5584, 139.3688
595.0405, 139.3819
595.5226, 139.6132
596.0048, 140.0086
596.4869, 140.4246
596.9690, 140.6433
597.4511, 140.5655
597.9332, 140.4214
598.4153, 140.3520
598.8975, 140.3017
599.3796, 140.1846
599.8617, 139.7280
600.3438, 139.4800
600.8259, 139.8216
601.3080, 140.5317
601.7902, 140.6861
602.2723, 139.8961
602.7544, 139.1948
603.2365, 138.9675
603.7186, 139.2064
604.2007, 139.5466
604.6829, 140.0329
605.1650, 140.3765
605.6471, 140.1546
606.1292, 139.5458
606.6113, 139.3834
607.0934, 139.8243
607.5756, 140.3213
608.0577, 140.1885
608.5398, 139.7499
609.0219, 139.5858
609.5040, 140.2150
609.9861, 140.6978
610.4683, 140.2521
610.9504, 139.3015
611.4325, 138.7500
611.9146, 139.3974
612.3967, 139.9022
612.8788, 139.6980
613.3610, 138.8781
613.8431, 138.5542
614.3252, 138.9544
614.8073, 139.4761
615.2894, 139.8532
615.7715, 140.0806
616.2537, 140.1122
616.7358, 139.8669
617.2179, 139.7960
617.7000, 140.7793
618.1821, 142.3720
618.6642, 142.8369
619.1464, 141.6474
619.6285, 140.1551
620.1106, 139.6214
620.5927, 139.7514
621.0748, 140.0376
621.5569, 140.4838
622.0391, 140.8467
622.5212, 141.0568
623.0033, 141.1079
623.4854, 140.9808
623.9675, 140.4365
624.4496, 139.9622
624.9318, 139.6721
625.4139, 139.5678
625.8960, 139.6933
626.3781, 140.1502
626.8602, 140.6042
627.3423, 140.8216
627.8245, 140.8110
628.3066, 140.9070
628.7887, 141.1438
629.2708, 141.3131
629.7529, 140.9745
630.2350, 140.4210
630.7172, 140.4047
631.1993, 141.2870
631.6815, 142.1752
632.1636, 142.2163
632.6457, 141.8042
633.1278, 141.5696
633.6099, 141.9773
634.0920, 142.3230
634.5742, 142.2556
635.0563, 141.9268
635.5384, 141.9350
636.0205, 142.5612
636.5026, 143.1488
636.9847, 143.5347
637.4669, 143.7190
637.9490, 143.6650
638.4311, 143.3276
638.9132, 142.9632
639.3953, 142.6621
639.8774, 142.4622
640.3596, 142.6274
640.8417, 143.1934
641.3238, 143.7440
641.8059, 143.7996
642.2880, 143.6187
642.7701, 143.5710
643.2523, 143.7804
643.7344, 144.0063
644.2165, 144.0830
644.6986, 144.1179
645.1807, 144.2532
645.6628, 144.5975
646.1450, 144.9528
646.6271, 145.3719
647.1092, 145.7691
647.5913, 145.8941
648.0734, 145.6595
648.5555, 145.3920
649.0377, 145.1454
649.5198, 144.9558
650.0019, 145.0180
650.4840, 145.3307
650.9661, 145.6890
651.4482, 146.0283
651.9304, 146.3062
652.4125, 146.3438
652.8946, 146.1461
653.3767, 146.1613
653.8588, 146.9858
654.3409, 147.9678
654.8231, 148.5388
655.3052, 148.4604
655.7873, 148.3704
656.2694, 148.4164
656.7515, 148.5060
657.2336, 148.5208
657.7158, 148.2580
658.1979, 148.3774
658.6800, 149.0112
659.1621, 149.9503
659.6442, 150.9162
660.1263, 151.9062
660.6085, 152.6684
661.0906, 153.0637
661.5727, 153.2478
662.0548, 153.4481
662.5369, 153.6719
663.0190, 153.9488
663.5012, 154.2838
663.9833, 154.6892
664.4654, 155.2803
664.9475, 156.0075
665.4296, 156.5167
665.9117, 156.1543
666.3939, 156.0108
666.8760, 156.7684
667.3581, 158.6087
667.8402, 160.1510
668.3223, 161.4487
668.8044, 162.3922
669.2866, 162.7009
669.7687, 162.3287
670.2508, 162.5563
670.7329, 163.5342
671.2150, 164.7434
671.6971, 165.6288
672.1793, 166.2921
672.6614, 166.9808
673.1435, 167.7582
673.6256, 168.5695
674.1077, 169.4761
674.5898, 170.3725
675.0720, 171.0846
675.5541, 171.1704
676.0362, 171.5121
676.5183, 172.6089
677.0004, 174.1308
677.4825, 175.1556
677.9647, 175.3661
678.4468, 175.6805
678.9290, 176.3640
679.4111, 177.3478
679.8932, 178.3780
680.3753, 179.4600
680.8574, 180.4471
681.3395, 181.2248
681.8217, 181.8594
682.3038, 182.4431
682.7859, 182.9854
683.2680, 183.5335
683.7501, 184.1503
684.2322, 184.7678
684.7144, 185.3309
685.1965, 185.8113
685.6786, 186.3298
686.1607, 186.9456
686.6428, 187.5824
687.1249, 188.1794
687.6071, 188.6462
688.0892, 189.3180
688.5713, 190.3367
689.0534, 191.3364
689.5355, 191.7221
690.0176, 191.5390
690.4998, 191.7364
690.9819, 192.5124
691.4640, 193.6548
691.9461, 194.9479
692.4282, 196.3654
692.9103, 197.8419
693.3925, 199.4259
693.8746, 200.9725
694.3567, 202.4209
694.8388, 203.7540
695.3209, 204.9333
695.8030, 205.4275
696.2852, 206.3814
696.7673, 208.3473
697.2494, 211.0378
697.7315, 212.8109
698.2136, 213.4115
698.6957, 213.9288
699.1779, 214.8538
699.6600, 216.0838
700.1421, 217.1741
700.6242, 218.1308
701.1063, 218.9478
701.5884, 219.6376
702.0706, 220.1792
702.5527, 220.6670
703.0348, 221.1023
703.5169, 220.9832
703.9990, 219.6514
704.4811, 217.9644
704.9633, 216.6035
705.4454, 216.0027
705.9275, 214.6041
706.4096, 212.0759
706.8917, 209.1176
707.3738, 206.3300
707.8560, 203.8157
708.3381, 200.8783
708.8202, 197.3624
709.3023, 193.7874
709.7844, 190.7600
710.2665, 188.2159
710.7487, 185.8996
711.2308, 183.7950
711.7129, 181.8432
712.1950, 180.0673
712.6771, 178.3788
713.1592, 176.6369
713.6414, 174.5014
714.1235, 172.6710
714.6056, 171.4018
715.0877, 170.5300
715.5698, 169.8248
716.0519, 169.3940
716.5341, 168.8475
717.0162, 168.0914
717.4983, 167.1598
717.9804, 166.0856
718.4625, 164.8812
718.9446, 163.8532
719.4268, 163.3087
719.9089, 162.9182
720.3910, 162.1628
720.8731, 161.1493
721.3552, 160.2993
721.8373, 160.1100
722.3195, 159.8992
722.8016, 159.1165
723.2837, 157.7479
723.7658, 157.0615
724.2479, 157.6746
724.7300, 158.1974
725.2122, 157.9399
725.6943, 156.8902
726.1765, 155.9507
726.6586, 155.0884
727.1407, 154.4839
727.6228, 154.3564
728.1049, 154.5666
728.5870, 154.8882
729.0692, 155.3115
729.5513, 155.5243
730.0334, 155.0849
730.5155, 154.4541
730.9976, 154.1281
731.4797, 154.3895
731.9619, 154.3168
732.4440, 153.3093
732.9261, 152.2237
733.4082, 151.7462
733.8903, 152.1220
734.3724, 152.2940
734.8546, 152.1844
735.3367, 151.9312
735.8188, 151.6560
736.3009, 151.3770
736.7830, 151.1819
737.2651, 151.0949
737.7473, 151.0752
738.2294, 151.0824
738.7115, 151.1305
739.1936, 151.2480
739.6757, 151.7042
740.1578, 151.8940
740.6400, 151.3383
741.1221, 150.4972
741.6042, 150.2012
742.0863, 150.8356
742.5684, 151.1486
743.0505, 150.8962
743.5327, 150.2583
744.0148, 149.4290
744.4969, 148.4641
744.9790, 148.0410
745.4611, 148.6579
745.9432, 149.6390
746.4254, 150.1870
746.9075, 150.3915
747.3896, 150.4750
747.8717, 150.4424
748.3538, 150.4082
748.8359, 150.4281
749.3181, 150.4947
749.8002, 150.5529
750.2823, 150.5815
750.7644, 150.6524
751.2465, 150.8577
751.7286, 151.1171
752.2108, 150.8387
752.6929, 150.0022
753.1750, 149.5855
753.6571, 150.6796
754.1392, 152.2966
754.6213, 152.6580
755.1035, 151.9521
755.5856, 151.2737
756.0677, 151.2417
756.5498, 151.3848
757.0319, 151.4044
757.5140, 151.2761
757.9962, 151.3513
758.4783, 151.8660
758.9604, 152.2620
759.4425, 152.1903
759.9246, 151.6716
760.4067, 151.6520
760.8889, 152.1817
761.3710, 152.7528
761.8531, 152.8563
762.3352, 152.7834
762.8173, 153.1818
763.2994, 154.0649
763.7816, 154.8524
764.2637, 155.1340
764.7458, 155.2163
765.2279, 155.2975
765.7100, 155.3947
766.1921, 155.5266
766.6743, 155.5842
767.1564, 155.8081
767.6385, 156.4091
768.1206, 157.4503
768.6027, 158.3386
769.0848, 159.0749
769.5670, 159.6483
770.0491, 159.9872
770.5312, 160.1784
771.0133, 160.3374
771.4954, 160.4591
771.9775, 160.7770
772.4597, 161.6686
772.9418, 162.6751
773.4240, 163.4220
773.9061, 163.7997
774.3882, 164.0114
774.8703, 163.8086
775.3524, 163.7408
775.8345, 164.3808
776.3167, 165.8116
776.7988, 166.9598
777.2809, 167.7437
777.7630, 168.2901
778.2451, 168.5510
778.7272, 168.7083
779.2094, 169.1438
779.6915, 169.9638
780.1736, 170.8922
780.6557, 171.8618
781.1378, 172.7962
781.6199, 173.6119
782.1021, 174.1107
782.5842, 174.8088
783.0663, 175.8818
783.5484, 176.9563
784.0305, 177.4666
784.5126, 177.3811
784.9948, 177.9243
785.4769, 179.3455
785.9590, 180.9085
786.4411, 181.7495
786.9232, 182.1191
787.4053, 182.4922
787.8875, 183.0266
788.3696, 183.4623
788.8517, 183.6020
789.3338, 183.6170
789.8159, 183.7074
790.2980, 183.9811
790.7802, 184.1617
791.2623, 184.2127
791.7444, 184.2052
792.2265, 184.2812
792.7086, 184.4253
793.1907, 184.3246
793.6729, 183.8931
794.1550, 183.3428
794.6371, 182.9004
795.1192, 182.4992
795.6013, 182.0482
796.0834, 181.6203
796.5656, 180.9466
797.0477, 179.5378
797.5298, 178.0150
798.0119, 177.1535
798.4940, 177.3075
798.9761, 177.2809
799.4583, 176.9211
799.9404, 176.4844
800.4225, 176.4659
800.9046, 176.7385
801.3867, 176.4625
801.8688, 175.3436
802.3510, 174.1149
802.8331, 173.5424
803.3152, 173.3032
803.7973, 172.9529
804.2794, 172.2635
804.7615, 171.6365
805.2437, 171.3554
805.7258, 171.0556
806.2079, 170.2670
806.6900, 168.7648
807.1721, 167.6857
807.6542, 167.2176
808.1364, 167.0208
808.6185, 166.6850
809.1006, 166.2538
809.5827, 165.8833
810.0648, 165.6555
810.5469, 165.3311
811.0291, 164.5823
811.5112, 163.7054
811.9933, 163.0408
812.4754, 162.8852
812.9575, 162.5887
813.4396, 162.0675
813.9218, 161.4478
814.4039, 160.8283
814.8860, 160.1914
815.3681, 159.8311
815.8502, 159.8336
816.3323, 159.8718
816.8145, 159.4839
817.2966, 158.8831
817.7787, 158.4586
818.2608, 158.3521
818.7429, 158.2407
819.2251, 157.9710
819.7072, 157.6226
820.1893, 157.2743
820.6714, 156.9842
821.1536, 156.5653
821.6357, 155.9325
822.1178, 155.3194
822.5999, 155.0778
823.0820, 155.1264
823.5641, 154.8492
824.0463, 154.1256
824.5284, 153.4752
825.0105, 153.4819
825.4926, 153.7819
825.9747, 153.9559
826.4568, 153.8808
826.9390, 153.8299
827.4211, 153.9417
827.9032, 154.0360
828.3853, 153.9681
828.8674, 153.6782
829.3495, 153.6060
829.8317, 153.8518
830.3138, 153.8877
830.7959, 152.7270
831.2780, 151.0910
831.7601, 150.7695
832.2422, 152.0112
832.7244, 153.1187
833.2065, 152.7994
833.6886, 152.0816
834.1707, 151.7655
834.6528, 152.0841
835.1349, 152.1986
835.6171, 152.0566
836.0992, 151.8020
836.5813, 151.4989
837.0634, 151.1525
837.5455, 150.7698
838.0276, 150.3427
838.5098, 150.1912
838.9919, 150.8440
839.4740, 151.7162
839.9561, 152.1779
840.4382, 152.1891
840.9203, 152.0650
841.4025, 151.6311
841.8846, 151.3665
842.3667, 151.5912
842.8488, 152.2878
843.3309, 152.4407
843.8130, 151.9548
844.2952, 151.4653
844.7773, 151.4721
845.2594, 151.7033
845.7415, 151.3662
846.2236, 150.6001
846.7057, 150.1602
847.1879, 150.8844
847.6700, 151.6692
848.1521, 151.7713
848.6342, 151.2811
849.1163, 151.1907
849.5984, 151.6813
850.0806, 152.2619
850.5627, 152.7996
851.0448, 153.2917
851.5269, 153.7447
852.0090, 154.1489
852.4911, 154.4316
852.9733, 154.4893
853.4554, 154.4692
853.9375, 154.5188
854.4196, 154.5957
854.9017, 154.5958
855.3839, 154.3019
855.8660, 154.1642
856.3481, 154.3102
856.8302, 154.6396
857.3123, 154.9384
857.7944, 155.2064
858.2766, 155.5139
858.7587, 155.9465
859.2408, 156.2880
859.7229, 156.0326
860.2050, 155.4764
860.6871, 155.2467
861.1693, 155.8440
861.6514, 156.3394
862.1335, 156.1756
862.6156, 155.8140
863.0977, 155.8864
863.5798, 156.5736
864.0620, 157.1993
864.5441, 157.7431
865.0262, 158.1417
865.5083, 158.2732
865.9904, 158.2020
866.4726, 158.1074
866.9547, 158.0013
867.4368, 157.9765
867.9189, 158.0276
868.4011, 158.2318
868.8832, 158.7048
869.3653, 159.6940
869.8474, 160.3477
870.3295, 160.5806
870.8116, 160.6112
871.2938, 160.4492
871.7759, 160.1536
872.2580, 160.5736
872.7401, 161.7457
873.2222, 162.7224
873.7043, 162.3252
874.1865, 161.6476
874.6686, 161.8662
875.1507, 163.0854
875.6328, 164.1433
876.1149, 164.6389
876.5970, 165.0288
877.0792, 165.4326
877.5613, 165.8612
878.0434, 166.4021
878.5255, 167.0481
879.0076, 167.9154
879.4897, 169.4910
879.9719, 171.0469
880.4540, 171.1945
880.9361, 170.3613
881.4182, 170.0226
881.9003, 171.5528
882.3824, 172.8308
882.8646, 172.8423
883.3467, 172.1131
883.8288, 171.9966
884.3109, 172.5990
884.7930, 173.2250
885.2751, 173.7308
885.7573, 174.0952
886.2394, 174.0724
886.7215, 173.8893
887.2036, 174.1487
887.6857, 175.5041
888.1678, 176.5886
888.6500, 176.5681
889.1321, 176.0319
889.6142, 175.7393
890.0963, 175.6773
890.5784, 176.0496
891.0605, 177.0909
891.5427, 178.0311
892.0248, 177.6902
892.5069, 176.5449
892.9890, 176.1034
893.4711, 176.6508
893.9532, 177.2063
894.4354, 177.0580
894.9175, 176.6685
895.3996, 176.3595
895.8817, 176.1316
896.3638, 176.2127
896.8459, 176.7213
897.3281, 177.2890
897.8102, 177.8144
898.2923, 178.2228
898.7744, 177.8748
899.2565, 176.8501
899.7386, 176.0295
900.2208, 176.1432
900.7029, 176.5251
901.1850, 176.7717
901.6671, 176.8560
902.1492, 176.7556
902.6313, 176.3233
903.1135, 175.9754
903.5956, 175.8325
904.0777, 175.8379
904.5598, 175.8387
905.0419, 175.8390
905.5240, 175.8746
906.0062, 176.0481
906.4883, 176.1215
906.9704, 175.6649
907.4525, 175.0253
907.9346, 174.7570
908.4167, 175.8622
908.8989, 176.0560
909.3810, 174.7035
909.8631, 172.9682
910.3452, 172.4084
910.8273, 172.9372
911.3094, 173.2610
911.7916, 173.2156
912.2737, 173.0227
912.7558, 172.8497
913.2380, 172.6601
913.7201, 172.4397
914.2022, 172.2119
914.6843, 171.7865
915.1664, 170.8431
915.6486, 170.0733
916.1307, 169.9831
916.6128, 170.5044
917.0949, 170.3705
917.5770, 169.5825
918.0591, 168.7366
918.5413, 168.2322
919.0234, 167.8448
919.5055, 167.2327
919.9876, 166.5024
920.4697, 166.0980
920.9518, 166.4402
921.4340, 166.7943
921.9161, 167.1825
922.3982, 167.3733
922.8803, 166.5487
923.3624, 164.7550
923.8445, 163.3459
924.3267, 162.7791
924.8088, 162.5694
925.2909, 162.3072
925.7730, 162.0004
926.2551, 161.6544
926.7372, 161.2427
927.2194, 160.8402
927.7015, 160.3940
928.1836, 160.0233
928.6657, 159.9056
929.1478, 160.0433
929.6299, 159.9941
930.1121, 159.7426
930.5942, 159.2591
931.0763, 158.2531
931.5584, 157.1710
932.0405, 156.4706
932.5226, 156.2039
933.0048, 156.1212
933.4869, 156.4216
933.9690, 156.5772
934.4511, 156.3275
934.9332, 155.7840
935.4153, 155.5715
935.8975, 155.6707
936.3796, 155.7327
936.8617, 155.4918
937.3438, 155.2575
937.8259, 155.4530
938.3080, 155.8713
938.7902, 156.0962
939.2723, 156.0077
939.7544, 155.6855
940.2365, 154.9562
940.7186, 154.2196
941.2007, 154.1928
941.6829, 154.7907
942.1650, 154.9749
942.6471, 154.5844
943.1292, 153.9628
943.6113, 153.1362
944.0934, 152.4188
944.5756, 152.2305
945.0577, 152.7919
945.5398, 152.8460
946.0219, 151.8823
946.5040, 151.1105
946.9861, 151.2798
947.4683, 152.1886
947.9504, 152.6565
948.4325, 152.7097
948.9146, 152.5425
949.3967, 152.2495
949.8788, 151.7950
950.3610, 150.9408
950.8431, 149.8954
951.3252, 149.3165
951.8073, 149.5070
952.2894, 149.6522
952.7715, 149.6030
953.2537, 149.5101
953.7358, 149.7286
954.2179, 150.1379
954.7000, 150.1816
955.1821, 149.6563
955.6642, 149.2007
956.1464, 149.4305
956.6285, 149.8260
957.1106, 149.8731
957.5927, 149.4094
958.0748, 149.2058
958.5569, 149.3463
959.0391, 149.5162
959.5212, 149.4322
960.0033, 149.2275
960.4855, 149.3801
960.9676, 149.8193
961.4497, 150.1449
961.9318, 150.0838
962.4139, 149.9194
962.8961, 149.9040
963.3782, 149.8775
963.8603, 149.2766
964.3424, 147.8240
964.8245, 147.0837
965.3066, 147.5357
965.7888, 148.3803
966.2709, 148.4217
966.7530, 148.0246
967.2351, 147.9033
967.7172, 148.2985
968.1993, 148.6890
968.6815, 148.8418
969.1636, 148.9543
969.6457, 149.2035
970.1278, 149.6176
970.6099, 149.7133
971.0920, 149.4666
971.5742, 149.1956
972.0563, 149.1338
972.5384, 149.1629
973.0205, 149.0504
973.5026, 148.8743
973.9847, 148.9584
974.4669, 149.9338
974.9490, 150.4844
975.4311, 150.1801
975.9132, 149.4314
976.3953, 149.1089
976.8774, 149.1730
977.3596, 148.9587
977.8417, 148.2068
978.3238, 147.6516
978.8059, 148.0182
979.2880, 148.9182
979.7701, 150.0485
980.2523, 151.6250
980.7344, 152.4338
981.2165, 152.2369
981.6986, 151.6741
982.1807, 151.0036
982.6628, 150.2934
983.1450, 149.7918
983.6271, 149.5144
984.1092, 149.5641
984.5913, 150.4570
985.0734, 151.2251
985.5555, 151.3225
986.0377, 150.8705
986.5198, 150.2026
987.0019, 149.0776
987.4840, 148.6217
987.9661, 149.1407
988.4482, 150.0017
988.9304, 150.3516
989.4125, 150.4148
989.8946, 150.6366
990.3767, 151.1310
990.8588, 151.5531
991.3409, 151.7999
991.8231, 151.8907
992.3052, 151.8133
992.7873, 151.5773
993.2694, 151.3302
993.7515, 151.0639
994.2336, 151.0171
994.7158, 151.6095
995.1979, 152.2276
995.6800, 151.8571
996.1621, 150.9807
996.6442, 150.7294
997.1263, 152.2313
997.6085, 153.2124
998.0906, 153.2990
998.5727, 152.9942
999.0548, 152.8574
999.5369, 152.8903
1000.019, 153.2180
1000.501, 153.8823
1000.983, 154.3121
1001.465, 153.6650
1001.948, 152.9622
1002.430, 153.2051
1002.912, 154.4494
1003.394, 154.8076
1003.876, 153.9680
1004.358, 153.2770
1004.840, 153.3205
1005.322, 153.7331
1005.804, 153.7857
1006.287, 153.6236
1006.769, 153.5967
1007.251, 153.7365
1007.733, 154.1800
1008.215, 155.6409
1008.697, 156.9392
1009.179, 156.8418
1009.661, 155.1860
1010.144, 153.9337
1010.626, 153.1328
1011.108, 152.8096
1011.590, 153.4374
1012.072, 154.2027
1012.554, 154.1403
1013.036, 153.3429
1013.518, 152.8934
1014.000, 153.0586
1014.483, 153.4348
1014.965, 154.0469
1015.447, 154.6793
1015.929, 154.8678
1016.411, 154.6996
1016.893, 154.4922
1017.375, 154.3334
1017.857, 154.1145
1018.340, 153.5302
1018.822, 153.0284
1019.304, 152.9771
1019.786, 153.3822
1020.268, 154.2934
1020.750, 155.8374
1021.232, 157.0656
1021.714, 157.3561
1022.196, 156.9752
1022.679, 155.9402
1023.161, 154.5645
1023.643, 153.7630
1024.125, 154.4113
1024.607, 154.9324
1025.089, 155.1023
1025.571, 155.0025
1026.053, 154.5794
1026.536, 153.9247
1027.018, 153.7901
1027.500, 154.2916
1027.982, 154.8335
1028.464, 154.8202
1028.946, 154.7746
1029.428, 155.2620
1029.910, 156.2867
1030.392, 156.6115
1030.875, 156.0296
1031.357, 155.5014
1031.839, 155.3790
1032.321, 155.4729
1032.803, 155.2662
1033.285, 155.0465
1033.767, 155.5074
1034.249, 157.5058
1034.732, 158.8811
1035.214, 158.6448
1035.696, 158.0590
1036.178, 158.0503
1036.660, 158.6120
1037.142, 159.0462
1037.624, 159.3442
1038.106, 159.5165
1038.589, 159.4967
1039.071, 159.4190
1039.553, 159.1990
1040.035, 159.0064
1040.517, 159.4139
1040.999, 160.7558
1041.481, 161.8131
1041.963, 162.3846
1042.445, 162.7205
1042.927, 163.1303
1043.410, 163.5609
1043.892, 163.9056
1044.374, 164.1463
1044.856, 164.3605
1045.338, 164.4560
1045.820, 164.6597
1046.302, 165.0188
1046.784, 165.5640
1047.267, 166.6997
1047.749, 168.3422
1048.231, 169.3839
1048.713, 169.1069
1049.195, 168.5538
1049.677, 168.4735
1050.159, 168.6485
1050.641, 168.7630
1051.124, 168.6276
1051.606, 168.9390
1052.088, 169.8196
1052.570, 170.7131
1053.052, 171.1452
1053.534, 171.3292
1054.016, 171.5629
1054.498, 171.8951
1054.980, 172.4938
1055.463, 174.1090
1055.945, 175.0605
1056.427, 174.6250
1056.909, 173.6935
1057.391, 173.9013
1057.873, 175.0651
1058.355, 175.5657
1058.837, 175.0867
1059.319, 174.7397
1059.802, 175.6563
1060.284, 176.8195
1060.766, 177.4218
1061.248, 177.4713
1061.730, 177.6216
1062.212, 177.8279
1062.694, 178.4475
1063.176, 179.8653
1063.659, 181.3125
1064.141, 181.3282
1064.623, 180.6985
1065.105, 180.7905
1065.587, 182.3375
1066.069, 183.7969
1066.551, 185.0864
1067.033, 186.1286
1067.516, 186.7054
1067.998, 186.9670
1068.480, 187.6869
1068.962, 188.8246
1069.444, 190.1592
1069.926, 191.5155
1070.408, 193.0920
1070.890, 195.0647
1071.372, 197.2538
1071.854, 199.3682
1072.337, 201.3726
1072.819, 203.4814
1073.301, 205.6846
1073.783, 208.1415
1074.265, 210.9039
1074.747, 214.0331
1075.229, 217.6386
1075.711, 221.6983
1076.194, 225.9677
1076.676, 230.2447
1077.158, 234.9716
1077.640, 240.0715
1078.122, 245.9643
1078.604, 253.3455
1079.086, 262.0828
1079.568, 271.8848
1080.051, 282.7943
1080.533, 294.6927
1081.015, 307.0117
1081.497, 321.0108
1081.979, 337.7416
1082.461, 356.6160
1082.943, 374.6450
1083.425, 392.0924
1083.907, 409.7747
1084.390, 427.9669
1084.872, 446.7247
1085.354, 466.1078
1085.836, 485.9834
1086.318, 506.4814
1086.800, 527.0510
1087.282, 550.1465
1087.764, 575.9266
1088.247, 603.2518
1088.729, 630.9491
1089.211, 659.8629
1089.693, 691.9510
1090.175, 726.5464
1090.657, 761.1388
1091.139, 797.4847
1091.621, 830.3595
1092.104, 860.4701
1092.586, 883.9122
1093.068, 897.4645
1093.550, 899.7773
1094.032, 886.8976
1094.514, 858.3652
1094.996, 820.8273
1095.478, 771.9324
1095.960, 720.5286
1096.443, 668.5867
1096.925, 617.6735
1097.407, 570.8345
1097.889, 527.8328
1098.371, 488.5172
1098.853, 452.6800
1099.335, 419.9716
1099.817, 390.0287
1100.299, 363.2271
1100.782, 340.0304
1101.264, 320.1479
1101.746, 302.4276
1102.228, 286.8423
1102.710, 272.6226
1103.192, 259.4278
1103.674, 247.5608
1104.156, 237.8221
1104.639, 229.7252
1105.121, 222.3960
1105.603, 215.8672
1106.085, 209.8960
1106.567, 204.4888
1107.049, 199.5903
1107.531, 194.9289
1108.013, 190.7989
1108.495, 187.9308
1108.978, 186.0339
1109.460, 183.8951
1109.942, 180.6523
1110.424, 177.6589
1110.906, 175.1130
1111.388, 172.9015
1111.870, 170.8963
1112.352, 169.0846
1112.834, 167.3848
1113.317, 165.7816
1113.799, 164.4751
1114.281, 163.9110
1114.763, 163.3116
1115.245, 162.2486
1115.727, 160.9118
1116.209, 159.7184
1116.691, 158.6659
1117.174, 158.0043
1117.656, 157.8582
1118.138, 157.7128
1118.620, 157.0751
1119.102, 156.2871
1119.584, 155.6466
1120.066, 155.1626
1120.548, 154.6430
1121.031, 154.0871
1121.513, 153.4827
1121.995, 152.7780
1122.477, 152.1148
1122.959, 151.6825
1123.441, 151.3787
1123.923, 151.0690
1124.405, 150.7521
1124.887, 150.3068
1125.370, 149.6366
1125.852, 149.1076
1126.334, 149.0355
1126.816, 149.1785
1127.298, 149.0139
1127.780, 148.6516
1128.262, 148.3527
1128.744, 148.2608
1129.227, 148.1603
1129.709, 147.9957
1130.191, 147.8654
1130.673, 147.8904
1131.155, 148.0179
1131.637, 148.0954
1132.119, 148.0976
1132.601, 147.9119
1133.083, 147.2306
1133.566, 146.6530
1134.048, 146.3298
1134.530, 146.2485
1135.012, 146.6042
1135.494, 147.3053
1135.976, 147.2464
1136.458, 146.3382
1136.940, 145.4214
1137.422, 145.0661
1137.905, 144.8902
1138.387, 144.6525
1138.869, 144.4229
1139.351, 144.4293
1139.833, 144.6823
1140.315, 144.9626
1140.797, 145.2551
1141.279, 145.4030
1141.762, 145.1210
1142.244, 144.7461
1142.726, 144.6105
1143.208, 144.7054
1143.690, 144.5517
1144.172, 144.0544
1144.654, 143.9550
1145.136, 144.6603
1145.619, 145.3204
1146.101, 144.5703
1146.583, 143.3324
1147.065, 142.7586
1147.547, 143.1873
1148.029, 143.4935
1148.511, 143.6008
1148.993, 143.7958
1149.475, 144.3423
1149.958, 144.8503
1150.440, 144.5329
1150.922, 143.7490
1151.404, 143.1510
1151.886, 142.9886
1152.368, 142.8098
1152.850, 142.5377
1153.332, 142.3441
1153.814, 142.3514
1154.297, 142.5079
1154.779, 142.7402
1155.261, 143.0110
1155.743, 143.2056
1156.225, 143.3806
1156.707, 143.3027
1157.189, 142.8433
1157.671, 142.3141
1158.154, 141.8206
1158.636, 141.4793
1159.118, 142.0678
1159.600, 143.3587
1160.082, 144.2055
1160.564, 143.7873
1161.046, 143.1605
1161.528, 142.3096
1162.010, 141.7152
1162.493, 142.2782
1162.975, 143.7152
1163.457, 143.8631
1163.939, 142.7326
1164.421, 141.9021
1164.903, 142.7156
1165.385, 143.5649
1165.867, 143.7648
1166.349, 143.5379
1166.832, 143.0963
1167.314, 142.4756
1167.796, 142.2384
1168.278, 142.4470
1168.760, 142.7956
1169.242, 143.4254
1169.724, 143.7769
1170.206, 143.2024
1170.689, 142.1680
1171.171, 141.8877
1171.653, 142.3473
1172.135, 142.5747
1172.617, 142.3557
1173.099, 142.1779
1173.581, 142.6367
1174.063, 143.1309
1174.546, 143.0441
1175.028, 142.5556
1175.510, 142.6274
1175.992, 143.2931
1176.474, 143.7264
1176.956, 143.7029
1177.438, 143.4547
1177.920, 143.0216
1178.402, 142.5989
1178.885, 142.3678
1179.367, 142.3313
1179.849, 142.4498
1180.331, 142.7539
1180.813, 142.8928
1181.295, 142.7198
1181.777, 142.4089
1182.259, 141.9735
1182.742, 141.6059
1183.224, 141.6178
1183.706, 142.0922
1184.188, 142.0876
1184.670, 141.5157
1185.152, 141.0919
1185.634, 141.1173
1186.116, 141.4684
1186.599, 142.3943
1187.081, 143.3731
1187.563, 143.6090
1188.045, 142.8178
1188.527, 142.0663
1189.009, 141.2808
1189.491, 141.0311
1189.973, 142.0108
1190.455, 143.2338
1190.938, 143.4520
1191.420, 143.0808
1191.902, 142.7901
1192.384, 142.7584
1192.866, 142.5689
1193.348, 142.1734
1193.830, 141.8604
1194.312, 141.9683
1194.794, 142.1395
1195.277, 141.6174
1195.759, 140.8700
1196.241, 140.9303
1196.723, 142.6370
1197.205, 143.4812
1197.687, 143.3142
1198.169, 142.8161
1198.651, 142.3397
1199.134, 141.9685
1199.616, 141.8945
1200.098, 142.0127
1200.580, 142.0451
1201.062, 141.7409
1201.544, 141.9240
1202.026, 142.7661
1202.508, 143.5248
1202.990, 143.4496
1203.473, 142.9788
1203.955, 142.6269
1204.437, 142.3786
1204.919, 142.0973
1205.401, 141.6016
1205.883, 141.5077
1206.365, 141.9438
1206.847, 142.4530
1207.329, 142.5594
1207.812, 142.5087
1208.294, 142.5257
1208.776, 142.6603
1209.258, 143.1145
1209.740, 144.2456
1210.222, 144.7317
1210.704, 144.3174
1211.186, 143.7076
1211.669, 143.4794
1212.151, 143.5689
1212.633, 144.2537
1213.115, 145.2938
1213.597, 145.2259
1214.079, 143.3947
1214.561, 142.2102
1215.043, 142.0638
1215.526, 142.3799
1216.008, 142.6974
1216.490, 143.0194
1216.972, 143.5015
1217.454, 144.0482
1217.936, 143.9167
1218.418, 142.7463
1218.900, 142.1359
1219.382, 142.4453
1219.865, 142.9263
1220.347, 142.7513
1220.829, 142.2876
1221.311, 141.7627
1221.793, 141.2958
1222.275, 141.5626
1222.757, 142.9018
1223.239, 143.5505
1223.722, 143.0485
1224.204, 142.3609
1224.686, 142.5886
1225.168, 143.1461
1225.650, 143.5352
1226.132, 143.6758
1226.614, 143.3656
1227.096, 142.4247
1227.578, 142.1120
1228.061, 142.8258
1228.543, 143.5920
1229.025, 143.1670
1229.507, 142.4486
1229.989, 142.3533
1230.471, 142.8618
1230.953, 143.1540
1231.435, 143.2164
1231.917, 143.0916
1232.400, 142.6839
1232.882, 142.6242
1233.364, 144.2766
1233.846, 145.9456
1234.328, 145.7881
1234.810, 144.1275
1235.292, 143.2971
1235.774, 143.3401
1236.257, 143.3808
1236.739, 143.1999
1237.221, 143.0429
1237.703, 143.2500
1238.185, 143.4571
1238.667, 143.2636
1239.149, 142.8039
1239.631, 142.7054
1240.114, 142.9568
1240.596, 143.2005
1241.078, 143.3389
1241.560, 143.5070
1242.042, 144.1769
1242.524, 144.5165
1243.006, 143.6313
1243.488, 142.0442
1243.970, 141.9465
1244.453, 143.1309
1244.935, 143.8826
1245.417, 143.7197
1245.899, 143.5540
1246.381, 144.4212
1246.863, 144.8733
1247.345, 143.8010
1247.827, 141.9420
1248.309, 141.9640
1248.792, 143.4392
1249.274, 144.5959
1249.756, 145.0474
1250.238, 144.9279
1250.720, 143.4885
1251.202, 142.4751
1251.684, 142.7888
1252.166, 143.8424
1252.649, 144.1195
1253.131, 143.8620
1253.613, 143.7681
1254.095, 143.9866
1254.577, 144.3808
1255.059, 145.1828
1255.541, 145.7233
1256.023, 145.6786
1256.505, 145.3433
1256.988, 145.3813
1257.470, 145.5839
1257.952, 145.3961
1258.434, 144.6089
1258.916, 144.4449
1259.398, 145.5079
1259.880, 146.1731
1260.362, 145.7813
1260.844, 144.9612
1261.327, 144.6891
1261.809, 144.7133
1262.291, 144.5772
1262.773, 144.1741
1263.255, 144.3156
1263.737, 145.2709
1264.219, 145.8956
1264.701, 145.7521
1265.184, 145.3269
1265.666, 145.0533
1266.148, 144.9617
1266.630, 145.1020
1267.112, 145.4907
1267.594, 146.1346
1268.076, 147.1364
1268.558, 147.5445
1269.041, 146.9581
1269.523, 146.1769
1270.005, 146.1209
1270.487, 146.1235
1270.969, 145.1590
1271.451, 143.5796
1271.933, 144.0795
1272.415, 146.6038
1272.897, 147.1230
1273.380, 144.2150
1273.862, 141.8166
1274.344, 143.7835
1274.826, 146.2787
1275.308, 146.8212
1275.790, 145.9564
1276.272, 145.3465
1276.754, 144.9913
1277.237, 144.9585
1277.719, 145.3067
1278.201, 145.5533
1278.683, 145.4989
1279.165, 145.1540
1279.647, 144.2525
1280.129, 143.3836
1280.611, 144.1509
1281.094, 145.9118
1281.576, 146.9144
1282.058, 146.8636
1282.540, 146.5875
1283.022, 146.0234
1283.504, 145.8310
1283.986, 146.3129
1284.468, 146.9619
1284.950, 147.0187
1285.432, 146.6900
1285.915, 146.1916
1286.397, 145.5689
1286.879, 145.2579
1287.361, 145.2699
1287.843, 145.6932
1288.325, 146.6711
1288.807, 147.5674
1289.289, 147.4949
1289.772, 147.0669
1290.254, 146.8903
1290.736, 146.9894
1291.218, 147.1345
1291.700, 147.3410
1292.182, 147.3614
1292.664, 147.1174
1293.146, 147.0647
1293.629, 148.0597
1294.111, 148.9239
1294.593, 148.4283
1295.075, 147.3467
1295.557, 147.5229
1296.039, 148.7710
1296.521, 148.8050
1297.003, 147.3817
1297.485, 146.3484
1297.968, 147.2654
1298.450, 148.1975
1298.932, 148.3863
1299.414, 148.2941
1299.896, 148.7943
1300.378, 149.5671
1300.860, 149.3855
1301.342, 148.3125
1301.824, 147.6883
1302.307, 147.7486
##END=



