##NAMES=Artinite
##RRUFFID=R060166
##IDEAL CHEMISTRY=Mg_2_CO_3_(OH)_2_&#183;3H_2_O
##LOCALITY=San Benito County, California, USA
##OWNER=RRUFF
##SOURCE=Marcus Origlieri
##DESCRIPTION=Spherical aggregates of divergent colorless acicular crystals
##STATUS=The identification of this mineral has been confirmed by X-ray diffraction and chemical analysis
##URL=rruff.info/R060166
##MEASURED CHEMISTRY=Mg_2.00_CO_3_(OH)_2_Â·3H_2_O ; C and H not measured but estimated by charge balance
92.02539, 452.2717
92.50751, 469.4641
92.98962, 480.8717
93.47174, 474.5657
93.95386, 460.6051
94.43597, 444.4755
94.91809, 428.3959
95.40021, 413.1657
95.88232, 399.9843
96.36444, 389.3960
96.84656, 380.1369
97.32867, 372.7459
97.81078, 366.4629
98.29290, 360.1529
98.77502, 352.7628
99.25713, 343.7832
99.73925, 333.9769
100.2214, 322.7351
100.7035, 311.4764
101.1856, 300.5389
101.6677, 290.0208
102.1498, 280.1081
102.6320, 270.9668
103.1141, 262.2769
103.5962, 255.4650
104.0783, 251.2621
104.5604, 248.5205
105.0425, 246.2582
105.5247, 244.2939
106.0068, 242.2089
106.4889, 239.3353
106.9710, 235.8538
107.4531, 231.4300
107.9352, 225.7669
108.4173, 218.9563
108.8995, 211.3705
109.3816, 202.3683
109.8637, 193.1785
110.3458, 185.0565
110.8279, 178.1509
111.3100, 172.0758
111.7922, 166.2540
112.2743, 160.4795
112.7564, 155.7727
113.2385, 152.6795
113.7206, 150.5244
114.2027, 148.8410
114.6849, 147.4513
115.1670, 146.3299
115.6491, 145.4135
116.1312, 144.6341
116.6133, 144.1837
117.0954, 144.1071
117.5776, 144.3613
118.0597, 144.9101
118.5418, 145.7539
119.0239, 146.8994
119.5060, 147.9250
119.9881, 148.6147
120.4703, 149.4052
120.9524, 150.5127
121.4345, 151.9074
121.9166, 153.4175
122.3987, 154.9155
122.8808, 156.3997
123.3630, 157.6794
123.8451, 158.8448
124.3272, 159.7636
124.8093, 160.1960
125.2914, 160.0526
125.7735, 159.7493
126.2557, 159.7462
126.7378, 159.9829
127.2199, 160.2798
127.7020, 160.5099
128.1841, 160.7381
128.6662, 161.1847
129.1483, 161.9920
129.6305, 162.9158
130.1126, 163.8442
130.5947, 164.7574
131.0768, 165.5029
131.5589, 165.9472
132.0410, 166.0763
132.5232, 166.0189
133.0053, 165.6130
133.4874, 165.1399
133.9695, 164.6785
134.4516, 164.2648
134.9337, 163.9705
135.4159, 163.9278
135.8980, 164.3174
136.3801, 164.6306
136.8622, 164.7849
137.3443, 164.8940
137.8264, 165.1266
138.3086, 165.5365
138.7907, 165.9535
139.2728, 165.8968
139.7549, 164.6385
140.2370, 163.7263
140.7191, 163.4453
141.2013, 163.5511
141.6834, 163.7138
142.1655, 163.7826
142.6476, 163.7477
143.1297, 163.5636
143.6118, 162.8147
144.0939, 162.3662
144.5761, 162.7124
145.0582, 163.7261
145.5403, 164.8367
146.0224, 165.7715
146.5045, 166.5266
146.9866, 167.2016
147.4688, 168.1099
147.9509, 168.6783
148.4330, 168.2782
148.9151, 166.8167
149.3972, 164.9536
149.8793, 162.8802
150.3615, 160.6679
150.8436, 158.3389
151.3257, 155.7491
151.8078, 153.1270
152.2899, 151.0265
152.7720, 149.5101
153.2542, 148.4492
153.7363, 147.7174
154.2184, 147.3075
154.7005, 147.2356
155.1826, 147.5984
155.6647, 148.3384
156.1469, 148.8570
156.6290, 149.0391
157.1111, 149.0750
157.5932, 148.8777
158.0753, 148.5629
158.5574, 148.3609
159.0396, 148.5005
159.5217, 149.0499
160.0038, 149.3023
160.4859, 148.9818
160.9680, 148.6560
161.4501, 148.5163
161.9323, 148.5898
162.4144, 148.8399
162.8965, 149.2444
163.3786, 149.8585
163.8607, 150.4128
164.3428, 150.5058
164.8250, 150.8076
165.3071, 151.8141
165.7892, 153.5990
166.2713, 155.8822
166.7534, 158.3924
167.2355, 161.1373
167.7177, 164.0912
168.1998, 167.0952
168.6819, 170.3777
169.1640, 174.3452
169.6461, 179.1880
170.1282, 184.3005
170.6104, 189.2731
171.0925, 194.1244
171.5746, 197.9138
172.0567, 200.4779
172.5388, 201.7096
173.0209, 201.3196
173.5031, 199.3230
173.9852, 195.3085
174.4673, 188.9411
174.9494, 180.4003
175.4315, 171.1378
175.9136, 161.9164
176.3958, 152.7313
176.8779, 144.0076
177.3600, 135.6239
177.8421, 127.9576
178.3242, 121.1857
178.8063, 115.3112
179.2885, 110.3770
179.7706, 106.5271
180.2527, 103.9423
180.7348, 101.6662
181.2169, 99.62809
181.6990, 97.86971
182.1812, 96.50455
182.6633, 95.51394
183.1454, 94.74317
183.6275, 93.95696
184.1096, 93.02427
184.5917, 92.38338
185.0738, 92.29851
185.5560, 92.27429
186.0381, 91.96969
186.5202, 91.29816
187.0023, 90.40437
187.4844, 89.55123
187.9665, 89.00022
188.4487, 88.01976
188.9308, 86.22620
189.4129, 84.21980
189.8950, 82.57303
190.3771, 81.48000
190.8592, 80.69146
191.3414, 79.72662
191.8235, 78.39413
192.3056, 77.25523
192.7877, 76.51524
193.2698, 75.96624
193.7519, 75.29733
194.2341, 74.37473
194.7162, 73.37875
195.1983, 72.70222
195.6804, 72.36903
196.1625, 72.12061
196.6446, 71.88410
197.1268, 71.67521
197.6089, 71.55845
198.0910, 71.61518
198.5731, 71.67484
199.0552, 71.41180
199.5373, 70.74723
200.0195, 70.20694
200.5016, 70.15995
200.9837, 70.51591
201.4658, 70.80293
201.9479, 70.82347
202.4300, 70.78223
202.9122, 70.89678
203.3943, 71.17960
203.8764, 71.54697
204.3585, 71.98170
204.8406, 72.48397
205.3227, 72.90289
205.8048, 73.24886
206.2870, 73.44450
206.7691, 73.32549
207.2512, 72.88376
207.7333, 72.48971
208.2154, 72.63161
208.6975, 73.43633
209.1797, 74.02140
209.6618, 74.11790
210.1439, 74.02780
210.6260, 73.84635
211.1081, 73.60802
211.5902, 73.37441
212.0724, 73.25665
212.5545, 73.34427
213.0366, 73.27035
213.5187, 72.97634
214.0008, 72.55567
214.4829, 71.92226
214.9651, 71.12120
215.4472, 70.42924
215.9293, 70.32088
216.4114, 71.26413
216.8935, 71.82442
217.3756, 71.83882
217.8578, 71.65575
218.3399, 71.45502
218.8220, 71.30177
219.3041, 71.21590
219.7862, 71.23042
220.2683, 71.37633
220.7505, 71.58157
221.2326, 71.90172
221.7147, 72.24086
222.1968, 72.54587
222.6789, 72.79750
223.1610, 72.97452
223.6432, 73.02943
224.1253, 72.80619
224.6074, 72.80405
225.0895, 73.24288
225.5716, 73.77801
226.0537, 74.07584
226.5358, 74.06302
227.0180, 73.92953
227.5001, 73.93371
227.9822, 74.11487
228.4643, 74.32630
228.9464, 74.51058
229.4285, 74.74398
229.9107, 75.10679
230.3928, 75.61652
230.8749, 76.23904
231.3570, 76.95557
231.8391, 77.77378
232.3212, 78.58659
232.8034, 79.40650
233.2855, 80.19926
233.7676, 80.90722
234.2497, 81.51142
234.7318, 82.08150
235.2139, 82.66129
235.6961, 83.25274
236.1782, 83.96174
236.6603, 84.89197
237.1424, 85.93210
237.6245, 86.92326
238.1066, 87.84941
238.5888, 88.73253
239.0709, 89.73815
239.5530, 90.77136
240.0351, 91.43138
240.5172, 91.34132
240.9993, 90.83589
241.4815, 90.57633
241.9636, 90.68874
242.4457, 90.81534
242.9278, 90.70127
243.4099, 90.41032
243.8920, 90.04845
244.3742, 89.61624
244.8563, 89.15030
245.3384, 88.73943
245.8205, 88.40427
246.3026, 88.08059
246.7847, 87.61008
247.2668, 86.74236
247.7490, 86.66235
248.2311, 86.36629
248.7132, 85.86565
249.1953, 84.54778
249.6774, 84.28521
250.1595, 83.59972
250.6417, 82.89678
251.1238, 82.78275
251.6059, 81.58374
252.0880, 81.46037
252.5701, 80.90762
253.0522, 80.55139
253.5344, 79.76952
254.0165, 79.33923
254.4986, 79.32932
254.9807, 79.33367
255.4628, 78.92809
255.9449, 77.87572
256.4271, 76.51970
256.9092, 75.66028
257.3913, 75.48884
257.8734, 75.49937
258.3555, 75.82957
258.8376, 76.14120
259.3198, 76.01202
259.8019, 75.27022
260.2840, 74.30702
260.7661, 73.97845
261.2482, 74.68257
261.7303, 75.29061
262.2125, 75.80866
262.6946, 76.12056
263.1767, 76.01994
263.6588, 75.46928
264.1409, 74.77578
264.6230, 74.50639
265.1052, 74.95736
265.5873, 75.26810
266.0694, 75.29520
266.5515, 75.25849
267.0336, 75.33474
267.5157, 75.55581
267.9979, 75.81028
268.4800, 75.92276
268.9621, 75.79057
269.4442, 75.73733
269.9263, 75.80738
270.4084, 75.90775
270.8906, 75.94598
271.3727, 75.92817
271.8548, 75.96269
272.3369, 76.19561
272.8190, 76.70799
273.3011, 77.14991
273.7833, 77.58425
274.2654, 77.91458
274.7475, 78.04173
275.2296, 77.99197
275.7117, 77.89939
276.1938, 77.91180
276.6760, 78.08003
277.1581, 78.02406
277.6402, 77.62711
278.1223, 77.17078
278.6044, 76.72763
279.0865, 76.32961
279.5686, 76.04989
280.0508, 75.98734
280.5329, 76.15526
281.0150, 75.89292
281.4971, 74.77082
281.9792, 73.74325
282.4613, 73.25997
282.9435, 73.16203
283.4256, 73.03762
283.9077, 72.62559
284.3898, 71.94910
284.8719, 71.23619
285.3540, 70.57083
285.8362, 69.78051
286.3183, 68.66513
286.8004, 67.40746
287.2825, 66.34932
287.7646, 65.67851
288.2467, 65.28764
288.7289, 64.79256
289.2110, 64.19274
289.6931, 63.50422
290.1752, 62.57011
290.6573, 61.59193
291.1394, 60.89473
291.6216, 60.61318
292.1037, 60.56286
292.5858, 60.35643
293.0679, 59.84267
293.5500, 59.46882
294.0321, 59.44224
294.5143, 59.50660
294.9964, 59.34184
295.4785, 58.86210
295.9606, 58.27983
296.4427, 57.89928
296.9248, 57.81279
297.4070, 57.65958
297.8891, 57.29738
298.3712, 56.94121
298.8533, 56.85123
299.3354, 57.04578
299.8175, 57.22968
300.2997, 57.07579
300.7818, 56.50731
301.2639, 56.12244
301.7460, 56.07601
302.2281, 56.08991
302.7102, 55.92920
303.1924, 55.61394
303.6745, 55.38796
304.1566, 55.47565
304.6387, 55.85244
305.1208, 56.00574
305.6029, 55.75620
306.0851, 55.48118
306.5672, 55.36606
307.0493, 55.38344
307.5314, 55.42184
308.0135, 55.41452
308.4956, 55.38406
308.9778, 55.43055
309.4599, 55.58556
309.9420, 55.76146
310.4241, 55.95873
310.9062, 56.15537
311.3883, 56.31468
311.8705, 56.42692
312.3526, 56.47600
312.8347, 56.39832
313.3168, 56.11198
313.7989, 55.91105
314.2810, 55.88593
314.7632, 55.96728
315.2453, 56.06190
315.7274, 56.14374
316.2095, 56.25177
316.6916, 56.46081
317.1737, 56.81506
317.6559, 57.06977
318.1380, 57.10492
318.6201, 57.09220
319.1022, 57.22175
319.5843, 57.50974
320.0664, 57.78766
320.5485, 57.90549
321.0306, 57.84415
321.5128, 57.71586
321.9949, 57.29868
322.4770, 57.00023
322.9591, 57.24558
323.4412, 57.91776
323.9233, 58.42359
324.4055, 58.34145
324.8876, 57.75066
325.3697, 57.28305
325.8518, 57.01477
326.3339, 56.76386
326.8160, 56.46171
327.2982, 56.12652
327.7803, 55.78500
328.2624, 55.43967
328.7445, 55.11992
329.2266, 54.92342
329.7087, 54.98729
330.1909, 54.91331
330.6730, 54.54522
331.1551, 54.02801
331.6372, 53.50105
332.1193, 53.00222
332.6014, 52.62027
333.0836, 52.51753
333.5657, 52.85332
334.0478, 52.99145
334.5299, 52.82055
335.0120, 52.50473
335.4941, 52.10986
335.9763, 51.67252
336.4584, 51.31661
336.9405, 51.18736
337.4226, 51.31374
337.9047, 51.27693
338.3868, 50.88723
338.8690, 50.53060
339.3511, 50.42639
339.8332, 50.52904
340.3153, 50.68958
340.7974, 50.83484
341.2795, 50.94392
341.7617, 50.86354
342.2438, 50.34218
342.7259, 49.95695
343.2080, 49.86144
343.6901, 49.97598
344.1722, 50.24366
344.6544, 50.64782
345.1365, 51.04739
345.6186, 51.14567
346.1007, 50.74459
346.5828, 50.30762
347.0649, 49.70414
347.5471, 49.14544
348.0292, 48.84164
348.5113, 48.82219
348.9934, 48.94177
349.4755, 49.03431
349.9576, 49.09159
350.4398, 49.15525
350.9219, 49.27231
351.4040, 49.35296
351.8861, 49.31786
352.3682, 49.19728
352.8503, 49.08932
353.3325, 49.07033
353.8146, 49.13390
354.2967, 49.18184
354.7788, 49.29817
355.2609, 49.30328
355.7430, 49.03571
356.2252, 48.66560
356.7073, 48.37884
357.1894, 48.26154
357.6715, 47.98843
358.1536, 48.62544
358.6357, 49.04628
359.1179, 49.26258
359.5999, 48.66158
360.0821, 49.11594
360.5642, 49.14736
361.0463, 49.16143
361.5284, 49.76430
362.0105, 49.28219
362.4926, 49.75328
362.9748, 49.87761
363.4569, 49.98199
363.9390, 50.15751
364.4211, 50.53929
364.9032, 51.03963
365.3853, 51.41872
365.8675, 51.46923
366.3496, 51.23706
366.8317, 51.16639
367.3138, 51.38416
367.7959, 51.61346
368.2780, 51.76711
368.7602, 51.90552
369.2423, 52.15209
369.7244, 52.56796
370.2065, 52.98558
370.6886, 53.00978
371.1707, 52.38485
371.6529, 52.01710
372.1350, 52.11642
372.6171, 52.43336
373.0992, 52.90826
373.5813, 53.48782
374.0634, 54.00164
374.5456, 54.24135
375.0277, 54.19331
375.5098, 54.15618
375.9919, 54.03354
376.4740, 54.05256
376.9561, 54.49232
377.4383, 55.14965
377.9204, 55.55024
378.4025, 55.33813
378.8846, 54.73354
379.3667, 54.37664
379.8488, 54.38912
380.3310, 54.33343
380.8131, 53.95939
381.2952, 53.46131
381.7773, 53.02891
382.2594, 52.71494
382.7415, 52.44997
383.2237, 52.19923
383.7058, 51.96163
384.1879, 51.59509
384.6700, 50.93716
385.1521, 50.27224
385.6342, 49.86100
386.1164, 49.69353
386.5985, 49.56688
387.0806, 49.35029
387.5627, 49.09822
388.0448, 48.96541
388.5269, 49.00388
389.0091, 49.02868
389.4912, 48.85445
389.9733, 48.56417
390.4554, 48.33656
390.9375, 48.18097
391.4196, 48.12547
391.9018, 48.25269
392.3839, 48.54039
392.8660, 48.77104
393.3481, 48.82006
393.8302, 48.78529
394.3123, 48.89360
394.7945, 49.23501
395.2766, 49.42510
395.7587, 49.20240
396.2408, 48.75744
396.7229, 48.38866
397.2050, 48.15379
397.6872, 48.04547
398.1693, 48.07434
398.6514, 48.25412
399.1335, 48.45575
399.6156, 48.81159
400.0977, 49.07845
400.5798, 49.01689
401.0620, 48.68432
401.5441, 48.36096
402.0262, 48.22667
402.5083, 48.23383
402.9904, 48.14471
403.4725, 47.80959
403.9547, 47.57756
404.4368, 47.64339
404.9189, 47.79945
405.4010, 47.75723
405.8831, 47.43394
406.3652, 47.00420
406.8474, 46.73075
407.3295, 46.70704
407.8116, 46.57288
408.2937, 46.19080
408.7758, 45.83348
409.2579, 45.63634
409.7401, 45.60090
410.2222, 45.69536
410.7043, 45.92505
411.1864, 46.25091
411.6685, 46.33250
412.1506, 45.82957
412.6328, 45.49652
413.1149, 45.55341
413.5970, 45.78428
414.0791, 45.95539
414.5612, 45.98572
415.0433, 45.94653
415.5255, 45.95000
416.0076, 46.01645
416.4897, 46.05530
416.9718, 45.99982
417.4539, 45.96814
417.9360, 46.04263
418.4182, 46.19817
418.9003, 46.33645
419.3824, 46.37452
419.8645, 46.33986
420.3466, 46.36377
420.8287, 46.48107
421.3109, 46.58362
421.7930, 46.58895
422.2751, 46.57236
422.7572, 46.63884
423.2393, 46.83665
423.7214, 47.02771
424.2036, 47.02480
424.6857, 46.83778
425.1678, 46.74007
425.6499, 46.87093
426.1320, 47.00813
426.6141, 46.85757
427.0963, 46.47255
427.5784, 46.28633
428.0605, 46.66478
428.5426, 47.27836
429.0247, 47.61219
429.5068, 47.63174
429.9890, 47.55458
430.4711, 47.46835
430.9532, 47.39916
431.4353, 47.41143
431.9174, 47.53318
432.3995, 47.69526
432.8817, 47.90472
433.3638, 48.12494
433.8459, 48.27617
434.3280, 48.33053
434.8101, 48.32389
435.2922, 48.29654
435.7744, 48.23788
436.2565, 48.20269
436.7386, 48.16859
437.2207, 48.17719
437.7028, 48.26257
438.1849, 48.41947
438.6671, 48.65189
439.1492, 48.99327
439.6313, 49.38012
440.1134, 49.42638
440.5955, 48.65228
441.0776, 48.12844
441.5598, 48.12031
442.0418, 48.34251
442.5240, 48.49259
443.0061, 48.49708
443.4882, 48.51275
443.9703, 48.79156
444.4524, 49.46442
444.9345, 49.78748
445.4167, 49.34052
445.8988, 48.95462
446.3809, 48.96110
446.8630, 49.24548
447.3451, 49.57524
447.8272, 49.84292
448.3094, 50.01131
448.7915, 49.92327
449.2736, 49.41222
449.7557, 49.12220
450.2378, 49.36718
450.7199, 49.78667
451.2021, 50.14963
451.6842, 50.42649
452.1663, 50.70031
452.6484, 51.06636
453.1305, 51.49153
453.6126, 51.82046
454.0948, 52.03620
454.5769, 52.17010
455.0590, 52.17453
455.5411, 52.11998
456.0232, 52.11884
456.5053, 52.12312
456.9875, 52.28839
457.4696, 52.91280
457.9517, 53.86603
458.4338, 54.52614
458.9159, 54.61961
459.3980, 54.46791
459.8802, 54.53741
460.3623, 54.82949
460.8444, 55.19028
461.3265, 55.61489
461.8086, 56.08093
462.2907, 56.60594
462.7729, 57.16932
463.2550, 57.67213
463.7371, 58.04692
464.2192, 58.30738
464.7013, 58.54320
465.1834, 58.67591
465.6656, 58.88483
466.1477, 59.22466
466.6298, 59.64101
467.1119, 60.10879
467.5940, 60.60841
468.0761, 61.06653
468.5583, 61.39278
469.0404, 61.57555
469.5225, 61.71642
470.0046, 61.95097
470.4867, 61.99809
470.9688, 61.64526
471.4510, 61.07048
471.9331, 60.56972
472.4152, 60.28913
472.8973, 60.10601
473.3794, 59.79613
473.8615, 59.34806
474.3437, 58.82628
474.8258, 58.32530
475.3079, 57.67478
475.7900, 56.60852
476.2721, 55.22903
476.7542, 54.04634
477.2364, 53.54393
477.7185, 53.42955
478.2006, 52.99526
478.6827, 52.18333
479.1648, 51.40266
479.6469, 50.95417
480.1291, 50.62272
480.6112, 49.97834
481.0933, 48.83500
481.5754, 47.85493
482.0575, 47.56109
482.5396, 47.61558
483.0217, 47.36356
483.5038, 46.66709
483.9860, 45.84753
484.4681, 45.19059
484.9502, 44.70753
485.4323, 44.24447
485.9144, 43.75093
486.3965, 43.32939
486.8787, 43.05697
487.3608, 42.87900
487.8429, 42.67542
488.3250, 42.39744
488.8071, 42.14170
489.2892, 42.10556
489.7714, 42.47791
490.2535, 42.59845
490.7356, 42.32612
491.2177, 41.97776
491.6998, 41.71663
492.1819, 41.51539
492.6641, 41.24530
493.1462, 40.79889
493.6283, 40.28920
494.1104, 40.09389
494.5925, 40.38037
495.0746, 40.52714
495.5568, 40.18307
496.0389, 39.79159
496.5210, 39.69358
497.0031, 39.89820
497.4852, 40.12628
497.9673, 40.17929
498.4495, 40.10678
498.9316, 40.04020
499.4137, 39.98476
499.8958, 39.93398
500.3779, 39.92457
500.8600, 39.89988
501.3422, 39.72308
501.8243, 39.26393
502.3064, 38.92185
502.7885, 39.00243
503.2706, 39.30608
503.7527, 39.46852
504.2349, 39.40991
504.7170, 39.28438
505.1991, 39.26091
505.6812, 39.35015
506.1633, 39.24238
506.6454, 38.65575
507.1276, 38.20668
507.6097, 38.20293
508.0918, 38.45962
508.5739, 38.71151
509.0560, 38.85514
509.5381, 38.90441
510.0203, 38.86928
510.5024, 38.71813
510.9845, 38.59094
511.4666, 38.47140
511.9487, 38.39266
512.4308, 38.41059
512.9130, 38.47405
513.3951, 38.46030
513.8772, 38.27545
514.3593, 38.07937
514.8414, 38.23535
515.3235, 38.81397
515.8057, 39.20776
516.2878, 39.22351
516.7699, 39.05591
517.2520, 38.80914
517.7341, 38.50978
518.2162, 38.32325
518.6984, 38.40923
519.1805, 38.59343
519.6626, 38.68640
520.1447, 38.68120
520.6268, 38.51501
521.1089, 38.06677
521.5911, 37.54613
522.0732, 37.52356
522.5553, 38.25452
523.0374, 38.65014
523.5195, 38.22731
524.0016, 37.60602
524.4838, 37.31298
524.9659, 37.36967
525.4480, 37.54725
525.9301, 37.69485
526.4122, 37.80884
526.8943, 37.87140
527.3765, 37.86551
527.8586, 37.82660
528.3407, 37.69488
528.8228, 37.57660
529.3049, 37.55269
529.7870, 37.63393
530.2692, 37.79452
530.7513, 38.07089
531.2334, 38.41449
531.7155, 38.50624
532.1976, 38.23347
532.6797, 37.97099
533.1619, 37.89154
533.6440, 37.89588
534.1261, 37.89579
534.6082, 37.88008
535.0903, 37.84887
535.5724, 37.81157
536.0546, 37.75695
536.5367, 37.60777
537.0188, 37.33862
537.5009, 37.20506
537.9830, 37.44941
538.4651, 37.99260
538.9473, 38.36606
539.4294, 38.58074
539.9115, 38.63191
540.3936, 38.28492
540.8757, 37.88301
541.3578, 37.92863
541.8400, 38.47880
542.3221, 39.11845
542.8042, 39.43228
543.2863, 39.41701
543.7684, 39.27896
544.2505, 38.80680
544.7326, 38.46903
545.2147, 38.40653
545.6968, 38.49642
546.1790, 38.64035
546.6611, 38.80230
547.1432, 38.91638
547.6253, 38.84548
548.1074, 38.61893
548.5895, 38.61494
549.0717, 38.96988
549.5538, 39.28521
550.0359, 39.25333
550.5180, 39.04647
551.0001, 38.92921
551.4822, 39.00586
551.9644, 39.02364
552.4465, 38.67487
552.9286, 38.18266
553.4107, 38.08004
553.8928, 38.47839
554.3749, 38.91373
554.8571, 38.96006
555.3392, 38.62846
555.8213, 38.38746
556.3034, 38.23547
556.7855, 38.16012
557.2676, 38.22942
557.7498, 38.33888
558.2319, 38.36210
558.7140, 38.27277
559.1961, 38.13898
559.6782, 38.03727
560.1603, 37.96914
560.6425, 37.85210
561.1246, 37.62506
561.6067, 37.44163
562.0888, 37.34815
562.5709, 37.31755
563.0530, 37.32696
563.5352, 37.37223
564.0173, 37.42955
564.4994, 37.48280
564.9815, 37.53205
565.4636, 37.61480
565.9457, 37.76751
566.4279, 37.76477
566.9100, 37.33012
567.3921, 36.63982
567.8742, 36.32532
568.3563, 36.63586
568.8384, 36.90308
569.3206, 36.81196
569.8027, 36.59875
570.2848, 36.58124
570.7669, 36.78687
571.2490, 36.99069
571.7311, 36.98492
572.2133, 36.79672
572.6954, 36.72741
573.1775, 36.90482
573.6596, 37.02779
574.1417, 37.06950
574.6238, 37.03677
575.1060, 36.86029
575.5881, 36.57715
576.0702, 36.41607
576.5523, 36.69050
577.0344, 37.22904
577.5165, 37.32658
577.9987, 36.86492
578.4808, 36.48692
578.9629, 36.55252
579.4450, 36.79229
579.9271, 36.81434
580.4092, 36.58227
580.8914, 36.35071
581.3735, 36.14278
581.8556, 36.02921
582.3377, 36.16482
582.8198, 36.50414
583.3019, 36.76649
583.7841, 36.78026
584.2662, 36.63287
584.7483, 36.56659
585.2304, 36.66343
585.7125, 36.70720
586.1946, 36.67668
586.6768, 36.61554
587.1589, 36.50513
587.6410, 36.38701
588.1231, 36.36925
588.6052, 36.53680
589.0873, 36.77071
589.5695, 36.80431
590.0516, 36.60891
590.5337, 36.41016
591.0158, 36.18266
591.4979, 36.04856
591.9800, 36.19557
592.4622, 36.53686
592.9443, 36.71044
593.4264, 36.48709
593.9085, 36.16362
594.3906, 35.94436
594.8727, 35.82033
595.3549, 35.77550
595.8370, 35.80794
596.3191, 35.89165
596.8012, 36.01572
597.2833, 36.20897
597.7654, 36.22995
598.2476, 35.90808
598.7297, 35.63813
599.2118, 35.56244
599.6939, 35.59938
600.1760, 35.65236
600.6581, 35.68800
601.1403, 35.70123
601.6224, 35.64685
602.1045, 35.53337
602.5866, 35.60159
603.0687, 35.97030
603.5508, 36.25669
604.0330, 36.16335
604.5151, 35.92379
604.9972, 35.86532
605.4793, 36.08384
605.9614, 36.17969
606.4435, 35.73328
606.9257, 35.15200
607.4078, 35.07921
607.8899, 35.52035
608.3720, 35.99823
608.8541, 36.22619
609.3362, 36.24910
609.8184, 36.20638
610.3005, 36.01569
610.7826, 35.88284
611.2647, 35.87595
611.7468, 35.86550
612.2289, 35.73300
612.7111, 35.52475
613.1932, 35.37514
613.6753, 35.36018
614.1574, 35.44514
614.6395, 35.59654
615.1216, 35.82583
615.6038, 35.97436
616.0859, 35.99866
616.5680, 35.95540
617.0501, 35.85195
617.5322, 35.71448
618.0143, 35.63895
618.4965, 35.70345
618.9786, 35.76876
619.4607, 35.75573
619.9428, 35.68409
620.4249, 35.55902
620.9070, 35.38938
621.3892, 35.28056
621.8713, 35.36187
622.3534, 35.62901
622.8355, 35.73409
623.3176, 35.50897
623.7997, 35.33381
624.2819, 35.31311
624.7640, 35.33394
625.2461, 35.28772
625.7282, 35.16680
626.2103, 35.04535
626.6924, 34.94889
627.1745, 34.90392
627.6566, 35.03434
628.1387, 35.36189
628.6208, 35.54938
629.1030, 35.41851
629.5851, 35.15002
630.0672, 35.01870
630.5493, 35.03227
631.0314, 34.99679
631.5135, 34.74624
631.9957, 34.56888
632.4778, 34.74375
632.9599, 35.11432
633.4420, 35.36266
633.9241, 35.36623
634.4063, 35.20116
634.8884, 34.91654
635.3705, 34.45872
635.8526, 34.34048
636.3347, 34.82978
636.8168, 35.28958
637.2990, 35.53675
637.7811, 35.61885
638.2632, 35.54958
638.7453, 35.32228
639.2274, 35.12547
639.7095, 35.13530
640.1917, 35.24556
640.6738, 35.27340
641.1559, 35.20668
641.6380, 35.07061
642.1201, 34.84603
642.6022, 34.61755
643.0844, 34.59064
643.5665, 34.94672
644.0486, 35.12669
644.5307, 34.88676
645.0128, 34.70691
645.4949, 34.95457
645.9771, 35.44615
646.4592, 35.80307
646.9413, 35.85755
647.4234, 35.72245
647.9055, 35.47158
648.3876, 35.11176
648.8698, 35.04150
649.3519, 35.44563
649.8340, 35.78596
650.3161, 35.58949
650.7982, 35.13860
651.2803, 35.02797
651.7625, 35.45276
652.2446, 35.81456
652.7267, 35.78331
653.2088, 35.63172
653.6909, 35.74656
654.1730, 36.07156
654.6552, 36.17768
655.1373, 35.78416
655.6194, 35.09620
656.1015, 34.61918
656.5836, 34.34189
657.0657, 34.30951
657.5479, 34.84302
658.0300, 35.32160
658.5121, 35.40369
658.9942, 35.24866
659.4763, 35.21587
659.9584, 35.47565
660.4406, 35.71331
660.9227, 35.55293
661.4048, 35.16175
661.8869, 35.00815
662.3690, 35.16468
662.8511, 35.32164
663.3333, 35.24175
663.8154, 35.00167
664.2975, 34.92373
664.7796, 35.09271
665.2617, 35.30985
665.7438, 35.67583
666.2260, 35.99955
666.7081, 36.14993
667.1902, 36.14716
667.6723, 36.04820
668.1544, 35.85786
668.6365, 35.69768
669.1187, 35.81840
669.6008, 36.20261
670.0829, 36.43361
670.5650, 36.41425
671.0471, 36.33824
671.5292, 36.33555
672.0114, 36.38908
672.4935, 36.43132
672.9756, 36.45110
673.4577, 36.47681
673.9398, 36.49076
674.4219, 36.53168
674.9041, 36.67120
675.3862, 36.88165
675.8683, 37.04808
676.3504, 37.09717
676.8325, 37.07323
677.3146, 37.05721
677.7968, 37.02172
678.2789, 37.13887
678.7610, 37.55648
679.2431, 37.96539
679.7252, 38.18192
680.2073, 38.25951
680.6895, 38.30474
681.1716, 38.35162
681.6537, 38.33733
682.1358, 38.09784
682.6179, 37.83619
683.1000, 37.88224
683.5822, 38.23754
684.0643, 38.65286
684.5464, 38.97332
685.0285, 39.22530
685.5106, 39.48896
685.9927, 39.79100
686.4749, 40.04058
686.9570, 40.38512
687.4391, 40.52062
687.9212, 40.03728
688.4033, 39.31145
688.8854, 39.06471
689.3676, 39.59988
689.8497, 40.31993
690.3318, 40.73832
690.8139, 40.97199
691.2960, 41.28836
691.7781, 41.71204
692.2603, 42.04594
692.7424, 42.14005
693.2245, 42.12411
693.7066, 42.35515
694.1887, 43.07350
694.6708, 43.55199
695.1530, 43.60020
695.6351, 43.62066
696.1172, 43.79938
696.5993, 44.08781
697.0814, 44.39378
697.5635, 44.68785
698.0457, 44.94002
698.5278, 45.10012
699.0099, 45.19489
699.4920, 45.30769
699.9741, 45.44330
700.4562, 45.62427
700.9384, 45.91372
701.4205, 46.18924
701.9026, 46.15901
702.3847, 45.62154
702.8668, 45.32534
703.3489, 45.50709
703.8311, 45.69621
704.3132, 45.73281
704.7953, 45.59595
705.2774, 45.21408
705.7595, 44.58681
706.2416, 43.97257
706.7238, 43.75242
707.2059, 43.79890
707.6880, 43.49733
708.1701, 42.79234
708.6522, 42.09169
709.1343, 41.52311
709.6164, 41.09302
710.0985, 40.89451
710.5806, 41.00376
711.0627, 40.78011
711.5449, 39.84996
712.0270, 38.93445
712.5091, 38.34172
712.9912, 37.99242
713.4733, 37.81165
713.9554, 37.75004
714.4376, 37.68027
714.9197, 37.48884
715.4018, 37.18830
715.8839, 36.77636
716.3660, 36.22022
716.8481, 35.81739
717.3303, 35.70140
717.8124, 35.72211
718.2945, 35.72402
718.7766, 35.70997
719.2587, 35.72657
719.7408, 35.93286
720.2230, 35.98735
720.7051, 35.60192
721.1872, 35.08002
721.6693, 34.75541
722.1514, 34.68094
722.6335, 34.75677
723.1157, 34.94500
723.5978, 35.16339
724.0799, 35.15620
724.5620, 34.89470
725.0441, 34.70116
725.5262, 34.63894
726.0084, 34.65577
726.4905, 34.77777
726.9726, 34.95113
727.4547, 34.95927
727.9368, 34.66793
728.4189, 34.40416
728.9011, 34.25614
729.3832, 34.18446
729.8653, 34.15965
730.3474, 34.17803
730.8295, 34.26028
731.3116, 34.42442
731.7938, 34.60194
732.2759, 34.68715
732.7580, 34.67971
733.2401, 34.55146
733.7222, 34.24561
734.2043, 33.95619
734.6865, 33.73972
735.1686, 33.64199
735.6507, 33.78439
736.1328, 34.28002
736.6149, 34.62014
737.0970, 34.72865
737.5792, 34.62429
738.0613, 34.08052
738.5434, 33.39167
739.0255, 33.19210
739.5076, 33.67067
739.9897, 34.23989
740.4719, 34.12411
740.9540, 33.44541
741.4361, 33.10247
741.9182, 33.15582
742.4003, 33.24252
742.8824, 33.22123
743.3646, 33.18202
743.8467, 33.26249
744.3288, 33.46395
744.8109, 33.61964
745.2930, 33.74535
745.7751, 33.78894
746.2573, 33.66941
746.7394, 33.49011
747.2215, 33.36405
747.7036, 33.31094
748.1857, 33.29573
748.6678, 33.30026
749.1500, 33.31393
749.6321, 33.32055
750.1142, 33.32013
750.5963, 33.26842
751.0784, 33.12850
751.5605, 33.01977
752.0427, 33.05100
752.5248, 33.19751
753.0069, 33.32196
753.4890, 33.52927
753.9711, 33.55537
754.4532, 33.13655
754.9354, 32.72879
755.4175, 32.70012
755.8996, 32.94538
756.3817, 33.17656
756.8638, 33.27494
757.3459, 33.30081
757.8281, 33.34141
758.3102, 33.37038
758.7923, 33.24836
759.2744, 32.95709
759.7565, 32.71555
760.2386, 32.61496
760.7208, 32.65179
761.2029, 32.84863
761.6850, 33.28887
762.1671, 33.54554
762.6492, 33.58642
763.1313, 33.49703
763.6135, 33.15367
764.0956, 32.78413
764.5777, 32.63918
765.0598, 32.74421
765.5419, 32.93621
766.0240, 33.14425
766.5062, 33.34883
766.9883, 33.54913
767.4704, 33.72692
767.9525, 33.75785
768.4346, 33.60541
768.9167, 33.51099
769.3989, 33.72226
769.8810, 34.16072
770.3631, 34.33545
770.8452, 34.13494
771.3273, 33.86885
771.8094, 33.34411
772.2916, 32.97139
772.7737, 33.05724
773.2558, 33.44617
773.7379, 33.83551
774.2200, 34.17778
774.7021, 34.35764
775.1843, 34.14658
775.6664, 33.81573
776.1485, 33.75053
776.6306, 33.92738
777.1127, 34.13198
777.5948, 34.27082
778.0770, 34.36150
778.5591, 34.42933
779.0412, 34.47483
779.5233, 34.48085
780.0054, 34.39931
780.4875, 34.38168
780.9697, 34.55537
781.4518, 34.75497
781.9339, 34.79225
782.4160, 34.68291
782.8981, 34.63379
783.3802, 34.72467
783.8624, 34.85250
784.3445, 35.00801
784.8266, 35.14680
785.3087, 35.20249
785.7908, 35.17792
786.2729, 35.12367
786.7551, 35.06559
787.2372, 35.02791
787.7193, 35.06413
788.2014, 35.17353
788.6835, 35.32765
789.1656, 35.55362
789.6478, 35.71432
790.1299, 35.70576
790.6120, 35.58728
791.0941, 35.49292
791.5762, 35.41059
792.0583, 35.38597
792.5404, 35.55632
793.0225, 35.63767
793.5046, 35.37804
793.9868, 35.00748
794.4689, 34.83894
794.9510, 34.93320
795.4331, 35.12327
795.9152, 35.36481
796.3973, 35.56793
796.8795, 35.56263
797.3616, 35.37643
797.8437, 35.11364
798.3258, 34.79358
798.8079, 34.52258
799.2900, 34.38502
799.7722, 34.38237
800.2543, 34.55386
800.7364, 35.13862
801.2185, 35.40885
801.7006, 35.04915
802.1827, 34.61982
802.6649, 34.32409
803.1470, 34.15502
803.6291, 34.09642
804.1112, 34.15771
804.5933, 34.25995
805.0754, 34.37851
805.5576, 34.50797
806.0397, 34.69750
806.5218, 34.88639
807.0039, 34.91090
807.4860, 34.72400
807.9681, 34.48043
808.4503, 34.36147
808.9324, 34.33206
809.4145, 34.18040
809.8966, 33.87352
810.3787, 33.63805
810.8608, 33.51014
811.3430, 33.50924
811.8251, 33.71571
812.3072, 34.08550
812.7893, 34.31110
813.2714, 34.33387
813.7535, 34.30165
814.2357, 34.15702
814.7178, 34.03483
815.1999, 34.05838
815.6820, 34.17093
816.1641, 34.25102
816.6462, 34.25660
817.1284, 34.22085
817.6105, 34.19022
818.0926, 34.13198
818.5747, 33.93875
819.0568, 33.63921
819.5389, 33.41945
820.0211, 33.34476
820.5032, 33.36805
820.9853, 33.45072
821.4674, 33.58509
821.9495, 33.64717
822.4316, 33.60059
822.9138, 33.56178
823.3959, 33.56754
823.8780, 33.56933
824.3601, 33.51637
824.8422, 33.43618
825.3243, 33.40504
825.8065, 33.45456
826.2886, 33.50748
826.7707, 33.51892
827.2528, 33.53453
827.7349, 33.64429
828.2170, 33.78202
828.6992, 33.77994
829.1813, 33.58685
829.6634, 33.35293
830.1455, 33.23243
830.6276, 33.20192
831.1097, 33.19563
831.5919, 33.21288
832.0740, 33.19872
832.5561, 33.12179
833.0382, 33.08465
833.5203, 33.22379
834.0024, 33.49190
834.4846, 33.52308
834.9667, 33.06868
835.4488, 32.78453
835.9309, 32.83492
836.4130, 32.91549
836.8951, 32.82537
837.3773, 32.66936
837.8594, 32.68160
838.3415, 32.94305
838.8236, 33.11043
839.3057, 32.84205
839.7878, 32.53816
840.2700, 32.69714
840.7521, 33.10257
841.2342, 33.21274
841.7163, 32.91401
842.1984, 32.58787
842.6805, 32.60725
843.1627, 32.83154
843.6448, 32.82171
844.1269, 32.57106
844.6090, 32.32460
845.0911, 32.09239
845.5732, 31.98945
846.0554, 32.12342
846.5375, 32.42804
847.0196, 32.72518
847.5017, 33.07355
847.9838, 33.27095
848.4659, 33.29824
848.9481, 33.20322
849.4302, 32.81983
849.9123, 32.42915
850.3944, 32.39772
850.8765, 32.74825
851.3586, 33.14125
851.8408, 33.54820
852.3229, 33.79010
852.8050, 33.58778
853.2871, 33.17002
853.7692, 32.93793
854.2513, 32.92586
854.7335, 32.90814
855.2156, 32.73680
855.6977, 32.53325
856.1798, 32.57266
856.6619, 32.84250
857.1440, 32.89960
857.6262, 32.66050
858.1083, 32.56067
858.5904, 32.87363
859.0725, 33.28017
859.5546, 33.31723
860.0367, 32.94616
860.5189, 32.65829
861.0010, 32.42701
861.4831, 32.31247
861.9652, 32.30095
862.4473, 32.42926
862.9294, 32.85344
863.4116, 33.43389
863.8937, 33.80418
864.3758, 33.84629
864.8579, 33.69448
865.3400, 33.30879
865.8221, 32.86448
866.3043, 32.46232
866.7864, 32.18568
867.2685, 32.31075
867.7506, 32.88754
868.2327, 33.43290
868.7148, 33.40105
869.1970, 32.96730
869.6791, 32.67927
870.1612, 32.53782
870.6433, 32.58431
871.1254, 32.86806
871.6075, 33.15609
872.0897, 33.28012
872.5718, 33.26483
873.0539, 33.17583
873.5360, 32.91142
874.0181, 32.80702
874.5002, 32.95083
874.9823, 33.15761
875.4644, 33.47305
875.9465, 33.75766
876.4286, 33.83578
876.9108, 33.70150
877.3929, 33.54385
877.8750, 33.37620
878.3571, 33.26067
878.8392, 33.24842
879.3214, 33.29721
879.8035, 33.39654
880.2856, 33.50891
880.7677, 33.51435
881.2498, 33.33965
881.7319, 33.19170
882.2141, 33.45420
882.6962, 33.93166
883.1783, 33.94742
883.6604, 33.52714
884.1425, 33.23848
884.6246, 33.28822
885.1068, 33.48707
885.5889, 33.64782
886.0710, 33.76355
886.5531, 33.76048
887.0352, 33.57455
887.5173, 33.46738
887.9995, 33.58688
888.4816, 33.62699
888.9637, 33.28212
889.4458, 32.76122
889.9279, 32.47897
890.4100, 32.47192
890.8922, 32.58625
891.3743, 32.94680
891.8564, 33.25426
892.3385, 33.39862
892.8206, 33.39992
893.3027, 33.21585
893.7849, 32.90220
894.2670, 32.68119
894.7491, 32.68282
895.2312, 32.77328
895.7133, 32.87434
896.1954, 32.96038
896.6776, 32.97534
897.1597, 32.93055
897.6418, 32.90738
898.1239, 32.93874
898.6060, 32.91505
899.0881, 32.63197
899.5703, 32.18229
900.0524, 32.11752
900.5345, 32.46440
901.0166, 32.66180
901.4987, 32.55329
901.9808, 32.36840
902.4630, 32.27702
902.9451, 32.26265
903.4272, 32.27339
903.9093, 32.35327
904.3914, 32.35372
904.8735, 32.15288
905.3557, 32.02565
905.8378, 32.20003
906.3199, 32.40908
906.8020, 32.27621
907.2841, 31.81922
907.7662, 31.58915
908.2484, 31.93855
908.7305, 32.25640
909.2126, 32.25520
909.6947, 32.14750
910.1768, 32.10224
910.6589, 32.12894
911.1411, 32.20732
911.6232, 32.33206
912.1053, 32.41903
912.5874, 32.39330
913.0695, 32.28636
913.5516, 32.08920
914.0338, 31.85628
914.5159, 31.75354
914.9980, 31.81386
915.4801, 31.95005
915.9622, 32.11222
916.4443, 32.24533
916.9265, 32.19297
917.4086, 31.95565
917.8907, 31.73905
918.3728, 31.53630
918.8549, 31.49923
919.3370, 31.76462
919.8192, 32.07647
920.3013, 32.04847
920.7834, 31.66680
921.2655, 31.51632
921.7476, 31.74833
922.2297, 31.95028
922.7119, 32.08535
923.1940, 32.15541
923.6761, 32.16808
924.1582, 32.11361
924.6403, 31.94840
925.1224, 31.62872
925.6046, 31.38357
926.0867, 31.28273
926.5688, 31.25579
927.0509, 31.33021
927.5330, 31.41702
928.0151, 31.40662
928.4973, 31.30292
928.9794, 31.18779
929.4615, 31.08954
929.9436, 31.02579
930.4257, 30.98263
930.9078, 31.00062
931.3900, 31.25407
931.8721, 31.62234
932.3542, 31.65444
932.8363, 31.22868
933.3184, 30.80700
933.8005, 30.88706
934.2827, 31.26664
934.7648, 31.42821
935.2469, 31.38395
935.7290, 31.20762
936.2111, 30.90244
936.6932, 30.66704
937.1754, 30.62610
937.6575, 30.69749
938.1396, 30.74044
938.6217, 30.75694
939.1038, 30.70480
939.5859, 30.52795
940.0681, 30.43467
940.5502, 30.50606
941.0323, 30.63945
941.5144, 30.80080
941.9965, 30.95435
942.4786, 30.93372
942.9608, 30.59481
943.4429, 30.38764
943.9250, 30.49397
944.4071, 30.54202
944.8892, 30.26564
945.3713, 29.92699
945.8535, 29.83850
946.3356, 30.00372
946.8177, 30.20571
947.2998, 30.50187
947.7819, 30.62729
948.2640, 30.26643
948.7462, 29.83412
949.2283, 29.69993
949.7104, 29.81344
950.1925, 30.07036
950.6746, 30.41214
951.1567, 30.56775
951.6389, 30.12522
952.1210, 29.56145
952.6031, 29.51162
953.0852, 29.80540
953.5673, 30.14384
954.0494, 30.44276
954.5316, 30.59354
955.0137, 30.53608
955.4958, 30.35238
955.9779, 30.13595
956.4600, 29.89450
956.9421, 29.65520
957.4242, 29.41871
957.9063, 29.23362
958.3884, 29.11186
958.8705, 29.03848
959.3527, 28.99875
959.8348, 29.00434
960.3169, 29.12368
960.7990, 29.41611
961.2811, 29.48231
961.7632, 29.23211
962.2454, 28.98178
962.7275, 28.80520
963.2096, 28.74179
963.6917, 28.87935
964.1738, 29.19127
964.6559, 29.38266
965.1381, 29.46698
965.6202, 29.40562
966.1023, 28.98091
966.5844, 28.66206
967.0665, 28.76481
967.5486, 29.02919
968.0308, 29.07941
968.5129, 28.89442
968.9950, 28.81275
969.4771, 29.08767
969.9592, 29.23298
970.4413, 28.93090
970.9235, 28.57356
971.4056, 28.48438
971.8877, 28.58692
972.3698, 28.69043
972.8519, 28.74434
973.3340, 28.75966
973.8162, 28.71975
974.2983, 28.66704
974.7804, 28.63178
975.2625, 28.60823
975.7446, 28.58518
976.2267, 28.56458
976.7089, 28.56099
977.1910, 28.58231
977.6731, 28.60473
978.1552, 28.67971
978.6373, 28.69548
979.1194, 28.30410
979.6016, 27.69182
980.0837, 27.50915
980.5658, 27.84741
981.0479, 28.23215
981.5300, 28.34151
982.0121, 28.31610
982.4943, 28.44942
982.9764, 28.67886
983.4585, 28.58437
983.9406, 28.16757
984.4227, 27.85544
984.9048, 27.78344
985.3870, 27.84414
985.8691, 27.96020
986.3512, 28.09497
986.8333, 28.12774
987.3154, 28.05137
987.7975, 27.89646
988.2797, 27.60718
988.7618, 27.48369
989.2439, 27.70423
989.7260, 28.01516
990.2081, 28.11885
990.6902, 28.04032
991.1724, 28.02018
991.6545, 28.07720
992.1366, 28.15874
992.6187, 28.37390
993.1008, 28.43907
993.5829, 28.07835
994.0651, 27.59676
994.5472, 27.41513
995.0293, 27.53731
995.5114, 27.71765
995.9935, 28.12822
996.4756, 28.34099
996.9578, 28.09351
997.4399, 27.85243
997.9220, 27.95284
998.4041, 28.19564
998.8862, 28.24815
999.3683, 28.07018
999.8505, 27.89468
1000.333, 27.67806
1000.815, 27.60660
1001.297, 27.86511
1001.779, 28.19415
1002.261, 28.38289
1002.743, 28.47254
1003.225, 28.61483
1003.707, 28.84865
1004.190, 28.93915
1004.672, 28.64568
1005.154, 28.31091
1005.636, 28.08431
1006.118, 27.99841
1006.600, 28.20073
1007.082, 28.55779
1007.564, 28.69390
1008.046, 28.46966
1008.529, 28.20109
1009.011, 28.12215
1009.493, 28.13782
1009.975, 28.16973
1010.457, 28.20862
1010.939, 28.23972
1011.421, 28.26434
1011.903, 28.30212
1012.385, 28.36335
1012.868, 28.41401
1013.350, 28.44999
1013.832, 28.43122
1014.314, 28.16050
1014.796, 27.78478
1015.278, 27.83465
1015.760, 28.32613
1016.242, 28.67826
1016.725, 28.53900
1017.207, 28.23200
1017.689, 28.24048
1018.171, 28.46970
1018.653, 28.58853
1019.135, 28.60477
1019.617, 28.59860
1020.099, 28.58830
1020.581, 28.55106
1021.064, 28.46280
1021.546, 28.38703
1022.028, 28.48436
1022.510, 28.72899
1022.992, 28.79721
1023.474, 28.68426
1023.956, 28.57881
1024.438, 28.52984
1024.921, 28.48216
1025.403, 28.39344
1025.885, 28.27912
1026.367, 28.15194
1026.849, 28.00158
1027.331, 28.03397
1027.813, 28.28372
1028.295, 28.52954
1028.777, 28.72606
1029.260, 28.85684
1029.742, 28.90969
1030.224, 28.88323
1030.706, 28.73550
1031.188, 28.38675
1031.670, 28.39298
1032.152, 28.95142
1032.634, 29.26274
1033.116, 28.96486
1033.599, 28.62675
1034.081, 28.76007
1034.563, 29.19445
1035.045, 29.38636
1035.527, 29.24003
1036.009, 29.18847
1036.491, 29.29608
1036.973, 29.36845
1037.456, 29.26342
1037.938, 29.22092
1038.420, 29.51575
1038.902, 30.01934
1039.384, 30.29418
1039.866, 30.26834
1040.348, 30.20953
1040.830, 30.05871
1041.313, 29.95993
1041.795, 29.94333
1042.277, 29.99888
1042.759, 30.12487
1043.241, 30.31570
1043.723, 30.56461
1044.205, 30.92561
1044.687, 31.19395
1045.169, 31.34961
1045.651, 31.42655
1046.134, 31.43028
1046.616, 31.36087
1047.098, 31.14365
1047.580, 30.85939
1048.062, 30.74298
1048.544, 30.85766
1049.026, 30.65158
1049.508, 31.20732
1049.991, 31.54699
1050.473, 31.68199
1050.955, 30.99972
1051.437, 31.37277
1051.919, 31.32289
1052.401, 31.25569
1052.883, 31.77727
1053.365, 31.21387
1053.848, 31.72625
1054.330, 31.80910
1054.812, 32.08849
1055.294, 31.94234
1055.776, 31.92763
1056.258, 32.33859
1056.740, 32.51384
1057.222, 32.31871
1057.704, 32.61058
1058.187, 32.25253
1058.669, 32.34733
1059.151, 32.46404
1059.633, 32.51155
1060.115, 32.33286
1060.597, 32.04079
1061.079, 31.88441
1061.561, 31.91763
1062.043, 32.03634
1062.526, 32.28376
1063.008, 32.50868
1063.490, 32.64478
1063.972, 32.72943
1064.454, 32.80035
1064.936, 32.84549
1065.418, 32.83662
1065.900, 32.76808
1066.383, 32.64322
1066.865, 32.29208
1067.347, 32.10592
1067.829, 32.39349
1068.311, 32.80825
1068.793, 33.13790
1069.275, 33.33184
1069.757, 33.29414
1070.240, 33.02396
1070.722, 32.86861
1071.204, 33.06649
1071.686, 33.28701
1072.168, 33.32445
1072.650, 33.36975
1073.132, 33.60186
1073.614, 33.94894
1074.096, 34.24533
1074.578, 34.47851
1075.061, 34.83748
1075.543, 35.53116
1076.025, 36.15772
1076.507, 36.41507
1076.989, 36.63655
1077.471, 37.03092
1077.953, 37.59939
1078.435, 38.34780
1078.918, 39.24888
1079.400, 40.14770
1079.882, 40.90889
1080.364, 41.83447
1080.846, 43.23743
1081.328, 44.68689
1081.810, 45.78867
1082.292, 46.79695
1082.774, 48.11140
1083.257, 49.71284
1083.739, 51.24096
1084.221, 52.50165
1084.703, 53.91606
1085.185, 55.75463
1085.667, 57.71809
1086.149, 59.59169
1086.631, 61.48872
1087.114, 63.48366
1087.596, 65.64593
1088.078, 68.13017
1088.560, 70.98717
1089.042, 74.15096
1089.524, 77.64124
1090.006, 81.41751
1090.488, 85.47770
1090.970, 89.78508
1091.453, 94.59860
1091.935, 99.56175
1092.417, 103.8352
1092.899, 107.2681
1093.381, 109.7604
1093.863, 111.5897
1094.345, 112.0720
1094.827, 110.9485
1095.309, 108.2686
1095.792, 103.6416
1096.274, 97.66922
1096.756, 91.11628
1097.238, 84.14462
1097.720, 77.75632
1098.202, 72.40348
1098.684, 67.49236
1099.166, 62.75005
1099.649, 58.39620
1100.131, 54.64326
1100.613, 51.34355
1101.095, 48.20209
1101.577, 45.21592
1102.059, 42.71325
1102.541, 40.99711
1103.023, 39.42062
1103.505, 37.73826
1103.988, 36.25475
1104.470, 35.26546
1104.952, 34.47728
1105.434, 33.49024
1105.916, 32.36583
1106.398, 31.55525
1106.880, 31.26337
1107.362, 30.96210
1107.844, 30.54732
1108.327, 30.13669
1108.809, 29.75436
1109.291, 29.40917
1109.773, 28.62098
1110.255, 28.93933
1110.737, 29.04149
1111.219, 28.93914
1111.701, 28.01949
1112.184, 28.15484
1112.666, 27.86758
1113.148, 27.56302
1113.630, 27.84721
1114.112, 27.04642
1114.594, 27.32131
1115.076, 27.16679
1115.558, 27.20882
1116.041, 26.82491
1116.523, 26.88649
1117.005, 26.86703
1117.487, 26.41217
1117.969, 26.02567
1118.451, 25.93467
1118.933, 26.05446
1119.415, 26.35409
1119.897, 26.79519
1120.380, 26.95216
1120.862, 26.69729
1121.344, 26.46642
1121.826, 26.26258
1122.308, 26.10709
1122.790, 26.01093
1123.272, 25.96041
1123.754, 25.95378
1124.236, 25.97548
1124.719, 25.97635
1125.201, 25.96173
1125.683, 25.87975
1126.165, 25.68353
1126.647, 25.62210
1127.129, 25.80473
1127.611, 25.95361
1128.093, 25.85402
1128.576, 25.66042
1129.058, 25.67777
1129.540, 25.89170
1130.022, 26.00650
1130.504, 26.02718
1130.986, 25.79795
1131.468, 25.24669
1131.950, 25.01592
1132.432, 25.46681
1132.915, 26.01852
1133.397, 25.93898
1133.879, 25.42814
1134.361, 25.20364
1134.843, 25.23815
1135.325, 25.20692
1135.807, 25.09495
1136.289, 25.11578
1136.771, 25.33458
1137.254, 25.52856
1137.736, 25.51477
1138.218, 25.38381
1138.700, 25.27250
1139.182, 25.18685
1139.664, 25.18691
1140.146, 25.23420
1140.628, 25.11194
1141.111, 24.82194
1141.593, 24.67637
1142.075, 24.84161
1142.557, 25.07180
1143.039, 25.09185
1143.521, 24.99318
1144.003, 24.88422
1144.485, 24.79286
1144.968, 24.78841
1145.450, 24.85579
1145.932, 24.92374
1146.414, 24.97193
1146.896, 25.05154
1147.378, 25.25422
1147.860, 25.38702
1148.342, 25.16499
1148.824, 24.85310
1149.307, 24.73013
1149.789, 24.76731
1150.271, 24.93225
1150.753, 25.16755
1151.235, 25.30865
1151.717, 25.28059
1152.199, 25.19050
1152.681, 25.04043
1153.163, 24.91814
1153.646, 24.94994
1154.128, 24.98377
1154.610, 24.78570
1155.092, 24.47804
1155.574, 24.37465
1156.056, 24.53899
1156.538, 24.72919
1157.020, 24.94068
1157.503, 25.07482
1157.985, 25.09538
1158.467, 25.03959
1158.949, 24.82835
1159.431, 24.61907
1159.913, 24.66334
1160.395, 24.92679
1160.877, 25.05210
1161.359, 24.91254
1161.842, 24.85023
1162.324, 24.91322
1162.806, 24.98879
1163.288, 25.10400
1163.770, 25.14467
1164.252, 24.98712
1164.734, 24.72239
1165.216, 24.54010
1165.698, 24.43805
1166.181, 24.48837
1166.663, 24.78678
1167.145, 24.85790
1167.627, 24.57165
1168.109, 24.28709
1168.591, 24.16288
1169.073, 24.15210
1169.555, 24.20506
1170.037, 24.31892
1170.520, 24.51327
1171.002, 24.78279
1171.484, 24.90411
1171.966, 24.87247
1172.448, 24.93872
1172.930, 25.16655
1173.412, 25.31692
1173.894, 25.22151
1174.377, 25.04213
1174.859, 25.07314
1175.341, 25.18544
1175.823, 24.93981
1176.305, 24.48530
1176.787, 24.27926
1177.269, 24.33380
1177.751, 24.42721
1178.234, 24.47686
1178.716, 24.53573
1179.198, 24.66206
1179.680, 24.77732
1180.162, 24.72507
1180.644, 24.66927
1181.126, 24.92848
1181.608, 25.28571
1182.090, 25.28432
1182.573, 24.95796
1183.055, 24.74154
1183.537, 24.82008
1184.019, 24.84601
1184.501, 24.51073
1184.983, 24.23295
1185.465, 24.28677
1185.947, 24.46006
1186.429, 24.65549
1186.912, 24.79301
1187.394, 24.68932
1187.876, 24.34938
1188.358, 24.23461
1188.840, 24.71318
1189.322, 24.94919
1189.804, 24.61963
1190.286, 24.34740
1190.769, 24.31629
1191.251, 24.46678
1191.733, 24.88828
1192.215, 25.38333
1192.697, 25.39096
1193.179, 24.82409
1193.661, 24.52662
1194.143, 24.55671
1194.625, 24.65458
1195.108, 24.80169
1195.590, 24.93547
1196.072, 25.03038
1196.554, 25.08829
1197.036, 25.13128
1197.518, 25.10261
1198.000, 24.69407
1198.482, 23.99497
1198.964, 23.89436
1199.447, 24.34330
1199.929, 24.60638
1200.411, 24.52792
1200.893, 24.38763
1201.375, 24.34418
1201.857, 24.36809
1202.339, 24.42283
1202.821, 24.52543
1203.304, 24.81874
1203.786, 25.11441
1204.268, 24.98250
1204.750, 24.57483
1205.232, 24.36338
1205.714, 24.43554
1206.196, 24.51960
1206.678, 24.50330
1207.161, 24.39042
1207.643, 23.96826
1208.125, 23.69740
1208.607, 24.14326
1209.089, 24.70207
1209.571, 24.64388
1210.053, 24.19299
1210.535, 23.97240
1211.017, 24.07557
1211.500, 24.31348
1211.982, 24.96262
1212.464, 25.27307
1212.946, 24.86785
1213.428, 24.47125
1213.910, 24.34023
1214.392, 24.34561
1214.874, 24.41174
1215.356, 24.49068
1215.839, 24.41810
1216.321, 24.16546
1216.803, 24.04511
1217.285, 24.07754
1217.767, 24.10157
1218.249, 24.08598
1218.731, 24.11745
1219.213, 24.24469
1219.696, 24.36399
1220.178, 24.36353
1220.660, 24.26885
1221.142, 24.07341
1221.624, 23.84738
1222.106, 23.88498
1222.588, 24.10655
1223.070, 24.18381
1223.552, 24.08025
1224.035, 23.97332
1224.517, 23.94570
1224.999, 23.95833
1225.481, 23.98592
1225.963, 24.02991
1226.445, 24.14697
1226.927, 24.23086
1227.409, 24.17448
1227.891, 23.99876
1228.374, 23.64818
1228.856, 23.20717
1229.338, 23.08175
1229.820, 23.50252
1230.302, 23.81539
1230.784, 23.77413
1231.266, 23.73812
1231.748, 23.90963
1232.231, 24.01658
1232.713, 23.83097
1233.195, 23.53109
1233.677, 23.33947
1234.159, 23.26352
1234.641, 23.39594
1235.123, 23.80873
1235.605, 24.09341
1236.088, 24.22949
1236.570, 24.26834
1237.052, 24.21158
1237.534, 24.18437
1238.016, 24.27383
1238.498, 24.37780
1238.980, 24.33707
1239.462, 24.21667
1239.944, 24.22904
1240.427, 24.29936
1240.909, 24.12362
1241.391, 23.80273
1241.873, 23.78634
1242.355, 24.11619
1242.837, 24.36187
1243.319, 24.29024
1243.801, 24.13933
1244.283, 24.00283
1244.766, 23.95811
1245.248, 24.15530
1245.730, 24.39055
1246.212, 24.46471
1246.694, 24.42695
1247.176, 24.38067
1247.658, 24.33787
1248.140, 24.26995
1248.622, 24.11819
1249.105, 24.05906
1249.587, 24.22083
1250.069, 24.27125
1250.551, 24.02645
1251.033, 23.85202
1251.515, 24.01959
1251.997, 24.30677
1252.479, 24.37325
1252.962, 24.26563
1253.444, 24.26676
1253.926, 24.37249
1254.408, 24.36439
1254.890, 24.23433
1255.372, 23.99086
1255.854, 23.66626
1256.336, 23.61377
1256.818, 24.04796
1257.301, 24.42050
1257.783, 23.93934
1258.265, 23.27322
1258.747, 23.38877
1259.229, 23.85391
1259.711, 24.19037
1260.193, 24.34541
1260.675, 24.25344
1261.157, 23.98604
1261.640, 23.86011
1262.122, 24.01513
1262.604, 24.09748
1263.086, 23.90871
1263.568, 23.75371
1264.050, 23.65080
1264.532, 23.70568
1265.014, 24.16138
1265.497, 24.63015
1265.979, 24.61837
1266.461, 24.25263
1266.943, 24.00977
1267.425, 23.84175
1267.907, 24.40325
1268.389, 24.74859
1268.871, 24.88935
1269.354, 24.21302
1269.836, 24.59185
1270.318, 24.54775
1270.800, 24.48632
1271.282, 25.01366
1271.764, 24.45605
1272.246, 24.97406
1272.728, 24.81018
1273.210, 24.62781
1273.693, 24.19805
1274.175, 23.92678
1274.657, 23.86654
1275.139, 23.98643
1275.621, 24.26529
1276.103, 24.48111
1276.585, 24.53650
1277.067, 24.52388
1277.549, 24.19448
1278.032, 24.15521
1278.514, 25.20492
1278.996, 26.17225
1279.478, 25.95062
1279.960, 25.01731
1280.442, 24.13945
1280.924, 23.34666
1281.406, 23.90192
1281.889, 26.15210
1282.371, 26.89903
1282.853, 25.84308
1283.335, 24.76679
1283.817, 24.17413
1284.299, 23.94295
1284.781, 24.00892
1285.263, 24.18126
1285.745, 24.26330
1286.228, 24.25448
##END=



