##NAMES=Asbecasite
##RRUFFID=R060719
##IDEAL CHEMISTRY=Ca_3_Ti^4+^As^3+^_6_Be_2_Si_2_O_20_
##LOCALITY=Binntal, Wallis, Switzerland
##OWNER=RRUFF
##SOURCE=Bob Jenkins
##DESCRIPTION=Brownish-yellow transparent fragments associated with dark green chamosite
##STATUS=The identification of this mineral has been confirmed by single-crystal X-ray diffraction.
##URL=rruff.info/R060719
113.809, 2402.218
114.291, 2621.372
114.773, 2859.582
115.256, 3093.904
115.738, 3363.419
116.220, 3693.658
116.702, 4122.690
117.184, 4537.370
117.666, 4934.462
118.148, 5292.736
118.630, 5559.719
119.112, 5681.896
119.595, 5712.986
120.077, 5692.404
120.559, 5583.156
121.041, 5473.920
121.523, 5408.077
122.005, 5387.172
122.487, 5421.663
122.969, 5532.579
123.451, 5701.550
123.934, 5899.719
124.416, 6126.653
124.898, 6371.883
125.380, 6673.248
125.862, 7052.223
126.344, 7325.475
126.826, 7277.939
127.308, 6958.953
127.790, 6539.492
128.273, 6035.294
128.755, 5501.369
129.237, 5068.590
129.719, 4754.208
130.201, 4537.358
130.683, 4400.467
131.165, 4342.480
131.648, 4329.516
132.130, 4345.804
132.612, 4389.301
133.094, 4446.159
133.576, 4514.229
134.058, 4593.864
134.540, 4686.565
135.022, 4794.106
135.504, 4908.456
135.986, 5022.228
136.469, 5135.080
136.951, 5245.418
137.433, 5353.875
137.915, 5459.471
138.397, 5562.054
138.879, 5667.938
139.361, 5762.245
139.843, 5821.223
140.326, 5838.431
140.808, 5840.914
141.290, 5838.728
141.772, 5833.604
142.254, 5816.415
142.736, 5780.093
143.218, 5734.077
143.700, 5703.304
144.182, 5684.025
144.665, 5684.978
145.147, 5708.575
145.629, 5743.988
146.111, 5822.512
146.593, 5954.694
147.075, 6137.007
147.557, 6325.581
148.039, 6507.195
148.521, 6703.501
149.004, 6931.472
149.486, 7183.098
149.968, 7471.797
150.450, 7812.798
150.932, 8210.590
151.414, 8604.137
151.896, 8945.225
152.378, 9301.090
152.861, 9736.423
153.343, 10266.840
153.825, 10871.760
154.307, 11551.080
154.789, 12322.880
155.271, 13132.750
155.753, 14095.970
156.235, 15074.210
156.717, 15859.610
157.200, 16591.391
157.682, 16996.039
158.164, 16919.260
158.646, 16136.670
159.128, 15244.230
159.610, 14262.960
160.092, 13267.760
160.574, 12467.360
161.057, 11975.170
161.539, 11678.320
162.021, 11507.370
162.503, 11522.250
162.985, 11574.380
163.467, 11655.330
163.949, 11745.240
164.431, 11733.370
164.913, 11525.810
165.396, 11207.310
165.878, 10860.470
166.360, 10466.190
166.842, 10088.460
167.324, 9760.763
167.806, 9482.743
168.288, 9253.971
168.770, 9060.286
169.253, 8915.297
169.735, 8838.608
170.217, 8856.792
170.699, 8937.150
171.181, 9047.499
171.663, 9183.231
172.145, 9373.644
172.627, 9652.264
173.109, 10004.010
173.592, 10400.890
174.074, 10810.200
174.556, 11264.700
175.038, 11805.410
175.520, 12448.960
176.002, 13153.830
176.484, 13875.800
176.966, 14614.740
177.449, 15385.690
177.931, 16194.020
178.413, 17036.859
178.895, 17917.811
179.377, 18824.711
179.859, 19796.881
180.341, 20871.910
180.823, 22061.311
181.305, 23374.369
181.788, 24923.449
182.270, 26617.170
182.752, 28290.680
183.234, 30060.910
183.716, 31649.221
184.198, 32590.830
184.680, 32887.148
185.162, 32397.900
185.645, 30709.721
186.127, 28016.869
186.609, 25147.881
187.091, 22197.070
187.573, 19295.529
188.055, 16932.490
188.537, 15099.220
189.019, 13694.250
189.501, 12640.010
189.984, 11915.180
190.466, 11371.950
190.948, 10984.670
191.430, 10737.660
191.912, 10563.190
192.394, 10460.020
192.876, 10433.080
193.358, 10498.880
193.840, 10657.290
194.323, 10869.010
194.805, 11108.300
195.287, 11377.430
195.769, 11719.970
196.251, 12143.440
196.733, 12638.830
197.215, 13193.850
197.697, 13814.580
198.180, 14465.730
198.662, 15119.230
199.144, 15779.240
199.626, 16494.180
200.108, 17274.490
200.590, 18109.150
201.072, 18960.891
201.554, 19836.689
202.036, 20718.980
202.519, 21614.730
203.001, 22533.680
203.483, 23411.160
203.965, 24330.711
204.447, 25169.471
204.929, 25483.891
205.411, 25249.221
205.893, 24570.971
206.376, 23431.590
206.858, 21736.070
207.340, 20046.010
207.822, 18396.480
208.304, 16813.510
208.786, 15454.070
209.268, 14351.420
209.750, 13434.150
210.232, 12656.290
210.714, 12038.270
211.197, 11515.000
211.679, 11086.620
212.161, 10750.210
212.643, 10452.850
213.125, 10200.260
213.607, 9982.646
214.089, 9790.619
214.572, 9627.705
215.054, 9479.364
215.536, 9342.497
216.018, 9215.891
216.500, 9111.188
216.982, 9036.147
217.464, 8974.544
217.946, 8904.096
218.428, 8815.702
218.911, 8741.013
219.393, 8693.722
219.875, 8679.801
220.357, 8647.353
220.839, 8588.456
221.321, 8518.058
221.803, 8456.058
222.285, 8409.728
222.767, 8358.748
223.250, 8296.028
223.732, 8217.309
224.214, 8145.807
224.696, 8084.268
225.178, 8028.130
225.660, 7966.197
226.142, 7893.757
226.624, 7824.950
227.107, 7766.112
227.589, 7720.031
228.071, 7671.218
228.553, 7609.371
229.035, 7548.549
229.517, 7521.273
229.999, 7546.541
230.481, 7573.794
230.963, 7583.818
231.445, 7571.873
231.928, 7553.305
232.410, 7521.781
232.892, 7485.356
233.374, 7466.949
233.856, 7478.361
234.338, 7489.873
234.820, 7490.135
235.303, 7480.805
235.785, 7454.829
236.267, 7399.948
236.749, 7330.155
237.231, 7290.065
237.713, 7293.324
238.195, 7307.692
238.677, 7318.694
239.159, 7324.822
239.641, 7330.123
240.124, 7328.899
240.606, 7327.069
241.088, 7348.274
241.570, 7405.881
242.052, 7468.174
242.534, 7516.907
243.016, 7539.346
243.498, 7574.994
243.981, 7628.796
244.463, 7697.316
244.945, 7766.628
245.427, 7837.724
245.909, 7907.728
246.391, 7973.947
246.873, 8028.264
247.355, 8095.501
247.837, 8180.522
248.320, 8280.096
248.802, 8379.472
249.284, 8480.492
249.766, 8577.322
250.248, 8666.797
250.730, 8746.399
251.212, 8825.784
251.694, 8911.607
252.176, 8999.181
252.659, 9066.210
253.141, 9114.451
253.623, 9140.939
254.105, 9141.980
254.587, 9109.303
255.069, 9071.635
255.551, 9029.835
256.033, 8985.168
256.516, 8940.945
256.998, 8890.639
257.480, 8849.771
257.962, 8831.557
258.444, 8846.492
258.926, 8854.536
259.408, 8843.047
259.890, 8818.460
260.372, 8827.864
260.855, 8884.472
261.337, 8953.927
261.819, 9009.533
262.301, 9041.728
262.783, 9089.307
263.265, 9163.033
263.747, 9256.789
264.229, 9337.030
264.711, 9398.177
265.194, 9454.275
265.676, 9516.186
266.158, 9586.317
266.640, 9650.096
267.122, 9700.727
267.604, 9743.063
268.086, 9800.832
268.569, 9875.654
269.051, 9964.356
269.533, 10065.850
270.015, 10181.450
270.497, 10305.650
270.979, 10439.920
271.461, 10582.880
271.943, 10720.810
272.425, 10851.950
272.908, 10982.370
273.390, 11112.320
273.872, 11238.020
274.354, 11378.850
274.836, 11538.190
275.318, 11715.500
275.800, 11913.990
276.282, 12137.190
276.764, 12368.440
277.247, 12600.660
277.729, 12834.390
278.211, 13057.530
278.693, 13261.510
279.175, 13458.340
279.657, 13690.860
280.139, 13962.470
280.621, 14252.480
281.103, 14550.190
281.586, 14855.640
282.068, 15160.360
282.550, 15470.090
283.032, 15772.710
283.514, 16035.280
283.996, 16256.950
284.478, 16445.461
284.960, 16614.711
285.443, 16763.461
285.925, 16844.820
286.407, 16832.699
286.889, 16772.869
287.371, 16770.961
287.853, 16829.070
288.335, 16898.189
288.817, 16929.410
289.299, 16933.711
289.782, 16989.801
290.264, 17115.990
290.746, 17284.650
291.228, 17454.090
291.710, 17623.721
292.192, 17782.420
292.674, 17914.730
293.156, 18027.609
293.638, 18142.650
294.121, 18258.949
294.603, 18384.551
295.085, 18545.801
295.567, 18737.590
296.049, 18917.480
296.531, 19033.180
297.013, 19116.949
297.496, 19249.471
297.978, 19444.359
298.460, 19676.180
298.942, 19912.270
299.424, 20155.199
299.906, 20412.131
300.388, 20683.029
300.870, 20970.480
301.352, 21267.211
301.835, 21565.330
302.317, 21895.150
302.799, 22306.900
303.281, 22779.580
303.763, 23265.330
304.245, 23727.650
304.727, 24187.359
305.209, 24653.650
305.691, 25127.650
306.174, 25632.990
306.656, 26209.980
307.138, 26843.000
307.620, 27499.930
308.102, 28174.180
308.584, 28867.990
309.066, 29579.141
309.548, 30315.580
310.030, 31084.971
310.513, 31914.461
310.995, 32789.328
311.477, 33670.969
311.959, 34506.180
312.441, 35371.309
312.923, 36315.820
313.405, 37350.070
313.887, 38407.219
314.370, 39446.641
314.852, 40508.730
315.334, 41649.270
315.816, 42879.730
316.298, 44194.750
316.780, 45588.000
317.262, 47053.469
317.744, 48669.641
318.226, 50449.859
318.709, 52389.121
319.191, 54476.891
319.673, 56736.648
320.155, 59121.512
320.637, 61596.020
321.119, 64165.301
321.601, 66932.109
322.083, 69947.172
322.565, 73127.789
323.048, 76405.852
323.530, 79725.969
324.012, 83188.094
324.494, 86833.148
324.976, 90648.492
325.458, 94535.367
325.940, 98545.977
326.422, 102575.203
326.905, 106599.203
327.387, 110641.203
327.869, 114642.203
328.351, 118664.297
328.833, 122639.102
329.315, 126457.398
329.797, 130274.500
330.279, 133790.297
330.762, 136909.797
331.244, 139665.703
331.726, 141991.094
332.208, 144010.297
332.690, 145595.406
333.172, 146423.203
333.654, 146477.406
334.136, 145791.906
334.618, 144357.797
335.100, 142159.297
335.583, 139305.297
336.065, 135694.203
336.547, 131505.797
337.029, 126938.000
337.511, 121880.500
337.993, 116658.898
338.475, 111305.398
338.957, 105812.797
339.440, 100565.602
339.922, 95540.094
340.404, 90784.672
340.886, 86271.406
341.368, 82040.453
341.850, 78028.852
342.332, 74331.844
342.814, 70882.156
343.297, 67561.227
343.779, 64341.441
344.261, 61256.949
344.743, 58310.371
345.225, 55510.789
345.707, 52781.711
346.189, 50041.410
346.671, 47378.609
347.153, 44869.699
347.635, 42525.691
348.118, 40336.801
348.600, 38250.500
349.082, 36292.191
349.564, 34531.180
350.046, 32974.590
350.528, 31600.051
351.010, 30348.561
351.492, 29223.039
351.975, 28205.439
352.457, 27301.590
352.939, 26505.529
353.421, 25811.631
353.903, 25226.391
354.385, 24725.850
354.867, 24296.539
355.349, 23935.490
355.832, 23633.250
356.314, 23393.750
356.796, 23206.311
357.278, 23069.850
357.760, 22989.311
358.242, 22936.141
358.724, 22874.539
359.206, 22829.801
359.688, 22843.109
360.171, 22986.359
360.653, 23148.961
361.135, 23272.410
361.617, 23351.141
362.099, 23409.311
362.581, 23481.490
363.063, 23528.119
363.545, 23508.211
364.027, 23379.230
364.510, 23213.070
364.992, 23012.619
365.474, 22780.391
365.956, 22570.900
366.438, 22402.131
366.920, 22257.410
367.402, 22124.660
367.884, 21972.150
368.366, 21868.070
368.849, 21846.461
369.331, 21887.881
369.813, 21898.660
370.295, 21861.900
370.777, 21811.750
371.259, 21759.949
371.741, 21686.750
372.224, 21649.789
372.706, 21646.551
373.188, 21680.250
373.670, 21758.070
374.152, 21881.561
374.634, 22043.131
375.116, 22228.949
375.598, 22430.699
376.080, 22727.109
376.562, 23130.430
377.045, 23605.381
377.527, 24100.340
378.009, 24619.859
378.491, 25160.131
378.973, 25721.070
379.455, 26305.750
379.937, 26899.430
380.419, 27508.910
380.902, 28121.801
381.384, 28724.279
381.866, 29320.381
382.348, 29966.529
382.830, 30702.529
383.312, 31470.039
383.794, 32122.461
384.276, 32665.211
384.759, 33199.891
385.241, 33837.512
385.723, 34515.020
386.205, 35078.051
386.687, 35503.449
387.169, 35812.520
387.651, 36020.738
388.133, 36124.141
388.615, 36115.352
389.098, 35945.102
389.580, 35681.031
390.062, 35396.820
390.544, 35099.891
391.026, 34747.441
391.508, 34288.691
391.990, 33766.270
392.472, 33231.930
392.954, 32656.010
393.437, 32123.449
393.919, 31685.420
394.401, 31347.689
394.883, 31033.311
395.365, 30705.600
395.847, 30401.750
396.329, 30150.740
396.811, 29951.381
397.293, 29812.279
397.776, 29730.230
398.258, 29707.990
398.740, 29755.430
399.222, 29847.510
399.704, 30030.369
400.186, 30326.109
400.668, 30767.660
401.151, 31256.990
401.633, 31777.711
402.115, 32351.570
402.597, 33031.672
403.079, 33837.488
403.561, 34714.070
404.043, 35642.012
404.525, 36618.891
405.007, 37687.012
405.490, 38869.711
405.972, 40113.211
406.454, 41362.309
406.936, 42621.711
407.418, 43899.988
407.900, 45219.820
408.382, 46549.238
408.864, 47836.520
409.346, 49086.012
409.828, 50248.270
410.311, 51276.559
410.793, 52172.672
411.275, 52977.879
411.757, 53722.020
412.239, 54325.141
412.721, 54685.180
413.203, 54813.031
413.685, 54756.961
414.168, 54553.609
414.650, 54178.602
415.132, 53589.289
415.614, 52770.770
416.096, 51802.449
416.578, 50715.738
417.060, 49512.230
417.542, 48207.160
418.025, 46729.000
418.507, 45219.422
418.989, 43734.441
419.471, 42287.148
419.953, 40858.000
420.435, 39406.441
420.917, 38001.852
421.399, 36712.270
421.881, 35580.270
422.364, 34525.770
422.846, 33525.711
423.328, 32586.230
423.810, 31754.420
424.292, 31042.730
424.774, 30424.529
425.256, 29900.230
425.738, 29490.770
426.220, 29092.850
426.703, 28690.779
427.185, 28306.539
427.667, 27972.061
428.149, 27688.760
428.631, 27453.260
429.113, 27272.131
429.595, 27141.109
430.077, 27001.900
430.560, 26841.570
431.042, 26704.711
431.524, 26636.180
432.006, 26639.000
432.488, 26643.590
432.970, 26638.051
433.452, 26634.900
433.934, 26668.020
434.417, 26735.760
434.899, 26796.500
435.381, 26835.721
435.863, 26850.590
436.345, 26831.850
436.827, 26778.660
437.309, 26697.539
437.791, 26591.359
438.273, 26462.850
438.755, 26318.369
439.238, 26162.320
439.720, 25989.381
440.202, 25789.439
440.684, 25564.949
441.166, 25332.801
441.648, 25084.881
442.130, 24845.221
442.612, 24636.740
443.095, 24475.141
443.577, 24323.270
444.059, 24145.180
444.541, 23968.039
445.023, 23845.480
445.505, 23824.150
445.987, 23829.000
446.469, 23830.900
446.952, 23821.029
447.434, 23846.670
447.916, 23933.301
448.398, 24040.711
448.880, 24131.270
449.362, 24189.029
449.844, 24262.930
450.326, 24374.449
450.808, 24507.539
451.290, 24579.490
451.773, 24571.439
452.255, 24547.320
452.737, 24547.750
453.219, 24576.080
453.701, 24578.131
454.183, 24551.900
454.665, 24497.650
455.147, 24406.400
455.630, 24281.189
456.112, 24151.199
456.594, 24016.199
457.076, 23889.131
457.558, 23802.051
458.040, 23755.010
458.522, 23741.600
459.004, 23765.580
459.487, 23817.721
459.969, 23880.680
460.451, 23940.600
460.933, 24028.961
461.415, 24166.301
461.897, 24349.910
462.379, 24575.990
462.861, 24865.900
463.343, 25178.699
463.826, 25489.250
464.308, 25793.520
464.790, 26099.641
465.272, 26420.330
465.754, 26736.039
466.236, 27030.340
466.718, 27334.381
467.200, 27582.490
467.682, 27756.670
468.165, 27863.789
468.647, 27937.609
469.129, 27938.430
469.611, 27952.670
470.093, 28026.109
470.575, 28181.289
471.057, 28313.660
471.539, 28408.340
472.022, 28496.070
472.504, 28623.141
472.986, 28791.750
473.468, 28982.350
473.950, 29192.520
474.432, 29418.039
474.914, 29641.641
475.396, 29863.801
475.878, 30083.471
476.361, 30314.680
476.843, 30544.980
477.325, 30734.930
477.807, 30878.391
478.289, 30987.609
478.771, 31072.131
479.253, 31133.250
479.735, 31173.039
480.217, 31168.480
480.700, 31159.811
481.182, 31176.580
481.664, 31219.859
482.146, 31278.439
482.628, 31315.689
483.110, 31379.840
483.592, 31510.891
484.074, 31719.000
484.556, 31991.410
485.039, 32339.211
485.521, 32747.240
486.003, 33179.031
486.485, 33641.691
486.967, 34118.789
487.449, 34604.328
487.931, 35104.629
488.414, 35596.750
488.896, 36083.211
489.378, 36554.121
489.860, 37012.180
490.342, 37461.172
490.824, 37860.270
491.306, 38199.969
491.788, 38488.090
492.270, 38749.230
492.753, 38981.469
493.235, 39198.789
493.717, 39388.410
494.199, 39566.270
494.681, 39781.988
495.163, 40040.809
495.645, 40298.750
496.127, 40545.602
496.609, 40754.969
497.092, 40868.121
497.574, 40854.660
498.056, 40750.309
498.538, 40574.129
499.020, 40326.871
499.502, 40017.949
499.984, 39665.441
500.466, 39237.980
500.948, 38713.121
501.431, 38055.910
501.913, 37375.512
502.395, 36643.781
502.877, 35914.590
503.359, 35263.941
503.841, 34703.660
504.323, 34207.320
504.805, 33786.320
505.288, 33434.840
505.770, 33083.262
506.252, 32705.350
506.734, 32372.330
507.216, 32131.369
507.698, 31987.801
508.180, 31870.990
508.662, 31779.250
509.145, 31712.270
509.627, 31667.420
510.109, 31646.080
510.591, 31657.801
511.073, 31717.000
511.555, 31803.949
512.037, 31873.779
512.519, 31933.400
513.001, 32029.520
513.484, 32199.680
513.966, 32421.039
514.448, 32680.369
514.930, 32989.949
515.412, 33279.988
515.894, 33491.020
516.376, 33664.898
516.858, 33857.578
517.341, 34089.238
517.823, 34338.148
518.305, 34614.539
518.787, 34913.199
519.269, 35173.949
519.751, 35394.602
520.233, 35578.410
520.715, 35722.031
521.197, 35821.820
521.680, 35900.840
522.162, 35971.441
522.644, 36007.480
523.126, 35970.801
523.608, 35858.879
524.090, 35698.641
524.572, 35498.949
525.054, 35255.672
525.536, 34931.750
526.019, 34528.309
526.501, 34098.090
526.983, 33671.699
527.465, 33248.699
527.947, 32827.738
528.429, 32415.420
528.911, 32009.400
529.393, 31611.650
529.875, 31224.221
530.358, 30851.221
530.840, 30489.711
531.322, 30150.990
531.804, 29848.500
532.286, 29575.189
532.768, 29320.539
533.250, 29085.650
533.732, 28861.010
534.214, 28640.221
534.697, 28424.939
535.179, 28213.711
535.661, 28001.230
536.143, 27798.461
536.625, 27628.039
537.107, 27505.039
537.589, 27359.740
538.071, 27172.051
538.554, 26959.711
539.036, 26787.869
539.518, 26660.240
540.000, 26529.539
540.482, 26362.721
540.964, 26173.529
541.446, 26011.590
541.928, 25880.270
542.411, 25749.340
542.893, 25592.170
543.375, 25415.070
543.857, 25231.131
544.339, 25046.260
544.821, 24855.160
545.303, 24640.660
545.785, 24415.990
546.268, 24210.760
546.750, 24050.381
547.232, 23899.260
547.714, 23738.189
548.196, 23565.859
548.678, 23412.721
549.160, 23298.381
549.642, 23192.770
550.124, 23074.949
550.606, 22928.561
551.089, 22806.869
551.571, 22712.859
552.053, 22643.830
552.535, 22608.340
553.017, 22613.770
553.499, 22587.699
553.981, 22479.189
554.463, 22327.990
554.945, 22271.570
555.428, 22309.080
555.910, 22380.230
556.392, 22461.260
556.874, 22539.619
557.356, 22583.051
557.838, 22576.670
558.320, 22589.301
558.802, 22693.301
559.284, 22843.770
559.767, 22978.811
560.249, 23036.561
560.731, 23114.949
561.213, 23277.439
561.695, 23498.770
562.177, 23665.789
562.659, 23721.811
563.141, 23758.150
563.624, 23805.590
564.106, 23867.010
564.588, 23923.400
565.070, 23980.420
565.552, 24022.109
566.034, 24029.920
566.516, 24001.609
566.998, 23960.369
567.481, 23907.939
567.963, 23847.830
568.445, 23787.080
568.927, 23725.170
569.409, 23654.270
569.891, 23573.631
570.373, 23480.881
570.855, 23362.109
571.338, 23219.211
571.820, 23097.230
572.302, 23034.039
572.784, 22996.250
573.266, 22952.240
573.748, 22889.551
574.230, 22837.910
574.712, 22814.471
575.194, 22805.150
575.677, 22790.609
576.159, 22749.141
576.641, 22729.131
577.123, 22743.561
577.605, 22786.301
578.087, 22826.770
578.569, 22866.180
579.051, 22902.449
579.533, 22930.789
580.016, 22952.029
580.498, 22988.320
580.980, 23040.301
581.462, 23103.619
581.944, 23184.600
582.426, 23274.090
582.908, 23338.850
583.390, 23356.891
583.872, 23379.039
584.355, 23481.891
584.837, 23623.660
585.319, 23718.730
585.801, 23668.660
586.283, 23614.721
586.765, 23647.689
587.247, 23761.939
587.729, 23829.520
588.211, 23776.439
588.694, 23710.619
589.176, 23686.230
589.658, 23717.551
590.140, 23750.930
590.622, 23790.551
591.104, 23827.590
591.586, 23843.670
592.068, 23833.750
592.551, 23852.869
593.033, 23918.410
593.515, 24010.631
593.997, 24096.119
594.479, 24173.510
594.961, 24235.100
595.443, 24249.240
595.925, 24260.090
596.407, 24336.551
596.890, 24476.750
597.372, 24615.170
597.854, 24706.369
598.336, 24784.230
598.818, 24879.859
599.300, 25012.359
599.782, 25128.520
600.265, 25191.029
600.747, 25241.660
601.229, 25334.900
601.711, 25511.199
602.193, 25664.340
602.675, 25771.100
603.157, 25844.561
603.639, 25930.850
604.121, 26031.279
604.604, 26133.910
605.086, 26240.430
605.568, 26344.850
606.050, 26414.551
606.532, 26447.760
607.014, 26484.900
607.496, 26579.051
607.978, 26694.490
608.460, 26765.650
608.943, 26767.721
609.425, 26771.250
609.907, 26835.760
610.389, 26926.609
610.871, 26995.270
611.353, 27000.949
611.835, 27011.971
612.317, 27051.020
612.799, 27111.080
613.282, 27161.830
613.764, 27208.381
614.246, 27237.641
614.728, 27237.150
615.210, 27207.311
615.692, 27210.820
616.174, 27255.330
616.656, 27304.289
617.138, 27316.939
617.621, 27304.740
618.103, 27326.619
618.585, 27395.410
619.067, 27472.580
619.549, 27495.820
620.031, 27500.369
620.513, 27551.350
620.995, 27698.391
621.477, 27869.520
621.960, 28035.420
622.442, 28193.910
622.924, 28344.020
623.406, 28461.211
623.888, 28592.641
624.370, 28749.510
624.852, 28930.770
625.334, 29152.641
625.817, 29439.510
626.299, 29728.141
626.781, 29970.221
627.263, 30159.949
627.745, 30391.369
628.227, 30672.221
628.709, 30981.900
629.191, 31302.391
629.674, 31634.490
630.156, 31968.289
630.638, 32314.570
631.120, 32649.230
631.602, 32936.711
632.084, 33194.270
632.566, 33462.160
633.048, 33762.148
633.531, 34075.660
634.013, 34393.121
634.495, 34715.949
634.977, 35030.000
635.459, 35346.980
635.941, 35641.789
636.423, 35902.730
636.905, 36123.059
637.387, 36337.969
637.870, 36537.512
638.352, 36748.090
638.834, 37016.109
639.316, 37331.539
639.798, 37601.879
640.280, 37802.301
640.762, 37982.301
641.244, 38215.250
641.726, 38482.539
642.209, 38738.629
642.691, 38942.969
643.173, 39152.859
643.655, 39418.949
644.137, 39726.070
644.619, 40026.391
645.101, 40262.859
645.583, 40526.391
646.065, 40875.422
646.548, 41323.449
647.030, 41699.059
647.512, 41968.898
647.994, 42219.359
648.476, 42502.570
648.958, 42813.871
649.440, 43189.711
649.922, 43645.359
650.404, 44089.359
650.887, 44377.578
651.369, 44559.102
651.851, 44803.352
652.333, 45186.539
652.815, 45594.789
653.297, 45916.879
653.779, 46184.461
654.261, 46451.961
654.744, 46735.359
655.226, 47029.852
655.708, 47352.352
656.190, 47695.898
656.672, 47999.719
657.154, 48229.270
657.636, 48461.270
658.118, 48727.988
658.601, 49033.641
659.083, 49337.461
659.565, 49643.391
660.047, 49930.289
660.529, 50169.891
661.011, 50373.070
661.493, 50588.641
661.975, 50828.121
662.458, 51060.352
662.940, 51247.770
663.422, 51410.250
663.904, 51576.531
664.386, 51731.328
664.868, 51928.180
665.350, 52230.070
665.832, 52589.680
666.314, 52903.891
666.797, 53095.141
667.279, 53306.352
667.761, 53550.820
668.243, 53832.141
668.725, 54198.820
669.207, 54675.430
669.689, 55131.898
670.171, 55473.770
670.653, 55728.621
671.135, 56078.840
671.618, 56527.789
672.100, 56985.930
672.582, 57400.980
673.064, 57773.199
673.546, 58075.039
674.028, 58273.270
674.510, 58544.910
674.992, 59052.219
675.474, 59655.949
675.957, 60202.660
676.439, 60601.531
676.921, 61040.449
677.403, 61572.891
677.885, 62136.090
678.367, 62586.480
678.849, 62878.199
679.331, 63241.359
679.814, 63753.109
680.296, 64356.340
680.778, 64895.449
681.260, 65372.090
681.742, 65751.039
682.224, 65960.992
682.706, 66092.000
683.188, 66302.031
683.670, 66573.102
684.153, 66715.344
684.635, 66552.477
685.117, 66285.438
685.599, 66057.406
686.081, 65926.633
686.563, 65666.344
687.045, 65227.922
687.528, 64701.480
688.010, 64147.969
688.492, 63567.430
688.974, 63006.160
689.456, 62484.500
689.938, 61951.641
690.420, 61317.379
690.902, 60598.602
691.384, 59908.879
691.867, 59298.211
692.349, 58704.559
692.831, 58049.680
693.313, 57359.051
693.795, 56684.051
694.277, 56068.109
694.759, 55450.559
695.241, 54790.609
695.723, 54096.898
696.206, 53431.238
696.688, 52811.922
697.170, 52194.520
697.652, 51572.859
698.134, 50946.102
698.616, 50265.859
699.098, 49521.461
699.580, 48793.750
700.062, 48166.801
700.545, 47605.250
701.027, 47017.059
701.509, 46396.012
701.991, 45771.762
702.473, 45153.059
702.955, 44550.250
703.437, 43974.852
703.919, 43443.980
704.402, 42915.699
704.884, 42377.219
705.366, 41835.750
705.848, 41294.641
706.330, 40746.340
706.812, 40226.609
707.294, 39745.539
707.776, 39287.129
708.258, 38809.250
708.741, 38310.520
709.223, 37826.941
709.705, 37365.969
710.187, 36925.320
710.669, 36504.660
711.151, 36106.020
711.633, 35709.520
712.115, 35285.930
712.597, 34880.699
713.080, 34524.230
713.562, 34210.898
714.044, 33900.781
714.526, 33575.891
715.008, 33257.012
715.490, 32959.051
715.972, 32678.820
716.455, 32400.359
716.937, 32122.779
717.419, 31840.910
717.901, 31552.650
718.383, 31256.510
718.865, 30913.730
719.347, 30522.510
719.829, 30159.980
720.311, 29925.789
720.794, 29752.480
721.276, 29560.510
721.758, 29323.221
722.240, 29088.311
722.722, 28885.609
723.204, 28686.760
723.686, 28452.141
724.168, 28133.480
724.651, 27864.381
725.133, 27668.000
725.615, 27511.260
726.097, 27339.801
726.579, 27153.311
727.061, 26973.670
727.543, 26809.859
728.025, 26651.961
728.507, 26475.730
728.990, 26290.699
729.472, 26129.830
729.954, 26009.500
730.436, 25917.949
730.918, 25854.160
731.400, 25814.850
731.882, 25783.119
732.364, 25760.391
732.846, 25740.750
733.328, 25720.270
733.811, 25699.570
734.293, 25690.789
734.775, 25692.211
735.257, 25711.990
735.739, 25761.080
736.221, 25832.320
736.703, 25898.180
737.185, 25958.490
737.667, 26035.939
738.150, 26163.641
738.632, 26307.020
739.114, 26432.740
739.596, 26534.010
740.078, 26631.789
740.560, 26712.311
741.042, 26806.961
741.524, 26941.650
742.007, 27141.840
742.489, 27319.510
742.971, 27465.410
743.453, 27602.680
743.935, 27752.340
744.417, 27914.600
744.899, 28102.670
745.381, 28325.820
745.864, 28544.221
746.346, 28693.391
746.828, 28813.689
747.310, 28972.760
747.792, 29224.420
748.274, 29480.539
748.756, 29718.000
749.238, 29938.260
749.721, 30147.189
750.203, 30351.500
750.685, 30537.461
751.167, 30692.740
751.649, 30839.020
752.131, 31039.449
752.613, 31295.650
753.095, 31569.990
753.577, 31847.811
754.060, 32136.631
754.542, 32468.369
755.024, 32829.539
755.506, 33184.691
755.988, 33506.121
756.470, 33818.781
756.952, 34141.910
757.434, 34471.828
757.916, 34755.949
758.399, 34977.160
758.881, 35173.801
759.363, 35355.488
759.845, 35524.621
760.327, 35694.020
760.809, 35866.270
761.291, 36020.469
761.773, 36124.730
762.255, 36204.641
762.738, 36310.590
763.220, 36445.352
763.702, 36578.211
764.184, 36688.141
764.666, 36791.121
765.148, 36895.801
765.630, 37003.230
766.112, 37112.762
766.594, 37235.590
767.077, 37346.559
767.559, 37423.020
768.041, 37458.570
768.523, 37502.949
769.005, 37559.730
769.487, 37608.129
769.969, 37617.340
770.451, 37602.070
770.934, 37601.648
771.416, 37630.531
771.898, 37644.160
772.380, 37618.379
772.862, 37559.660
773.344, 37474.371
773.826, 37319.160
774.308, 37205.969
774.791, 37166.449
775.273, 37149.879
775.755, 37084.301
776.237, 36961.660
776.719, 36866.641
777.201, 36820.398
777.683, 36786.949
778.165, 36710.859
778.648, 36604.621
779.130, 36499.809
779.612, 36408.398
780.094, 36317.422
780.576, 36234.250
781.058, 36143.480
781.540, 36019.539
782.022, 35801.672
782.504, 35621.480
782.987, 35520.871
783.469, 35455.480
783.951, 35313.320
784.433, 35090.809
784.915, 34865.648
785.397, 34664.680
785.879, 34473.078
786.361, 34259.871
786.843, 34030.262
787.326, 33803.148
787.808, 33595.449
788.290, 33385.801
788.772, 33155.551
789.254, 32912.191
789.736, 32695.859
790.218, 32527.510
790.700, 32357.660
791.182, 32174.609
791.665, 31978.230
792.147, 31763.359
792.629, 31529.711
793.111, 31290.500
793.593, 31049.410
794.075, 30809.910
794.557, 30588.250
795.039, 30377.609
795.521, 30161.760
796.004, 29924.100
796.486, 29684.039
796.968, 29460.900
797.450, 29254.471
797.932, 29021.740
798.414, 28751.600
798.896, 28478.410
799.378, 28209.689
799.860, 27949.430
800.343, 27707.600
800.825, 27485.020
801.307, 27249.930
801.789, 26973.529
802.271, 26679.250
802.753, 26396.131
803.235, 26127.279
803.718, 25855.449
804.200, 25569.189
804.682, 25284.631
805.164, 25009.869
805.646, 24744.510
806.128, 24493.150
806.610, 24269.520
807.092, 24026.010
807.574, 23711.561
808.057, 23344.789
808.539, 23049.850
809.021, 22822.699
809.503, 22602.600
809.985, 22332.801
810.467, 22053.141
810.949, 21805.340
811.431, 21592.330
811.914, 21382.740
812.396, 21177.260
812.878, 20963.340
813.360, 20729.740
813.842, 20472.029
814.324, 20244.859
814.806, 20058.070
815.288, 19868.850
815.770, 19632.449
816.253, 19371.980
816.735, 19162.320
817.217, 19005.961
817.699, 18843.391
818.181, 18620.240
818.663, 18386.260
819.145, 18177.561
819.627, 18000.660
820.109, 17835.949
820.592, 17688.920
821.074, 17541.770
821.556, 17375.619
822.038, 17185.600
822.520, 17064.100
823.002, 17017.730
823.484, 16972.311
823.966, 16845.631
824.448, 16688.260
824.931, 16587.811
825.413, 16555.189
825.895, 16508.920
826.377, 16381.780
826.859, 16247.240
827.341, 16164.060
827.823, 16147.440
828.305, 16102.210
828.787, 16032.560
829.270, 15924.020
829.752, 15740.800
830.234, 15503.280
830.716, 15321.440
831.198, 15201.020
831.680, 15077.390
832.162, 14897.440
832.644, 14689.430
833.127, 14473.580
833.609, 14249.650
834.091, 14044.570
834.573, 13881.920
835.055, 13724.300
835.537, 13552.510
836.019, 13363.530
836.501, 13194.490
836.984, 13045.280
837.466, 12907.010
837.948, 12771.780
838.430, 12643.850
838.912, 12534.440
839.394, 12444.430
839.876, 12355.390
840.358, 12256.000
840.841, 12154.030
841.323, 12053.840
841.805, 11954.010
842.287, 11865.510
842.769, 11785.170
843.251, 11720.400
843.733, 11683.940
844.215, 11671.170
844.697, 11634.900
845.180, 11574.980
845.662, 11510.170
846.144, 11456.700
846.626, 11402.890
847.108, 11330.560
847.590, 11238.890
848.072, 11164.250
848.554, 11131.980
849.036, 11105.920
849.519, 11074.000
850.001, 11036.240
850.483, 10978.580
850.965, 10895.980
851.447, 10830.030
851.929, 10827.090
852.411, 10852.600
852.893, 10844.210
853.375, 10802.610
853.858, 10741.010
854.340, 10633.580
854.822, 10538.640
855.304, 10499.460
855.786, 10516.030
856.268, 10505.320
856.750, 10456.840
857.232, 10404.830
857.714, 10363.890
858.197, 10331.260
858.679, 10293.620
859.161, 10252.830
859.643, 10222.780
860.125, 10225.510
860.607, 10231.700
861.089, 10217.780
861.571, 10185.780
862.054, 10149.360
862.536, 10107.030
863.018, 10065.970
863.500, 10027.160
863.982, 9991.106
864.464, 9960.974
864.946, 9936.301
865.428, 9923.566
865.911, 9941.360
866.393, 9957.025
866.875, 9910.922
867.357, 9823.112
867.839, 9751.587
868.321, 9739.671
868.803, 9725.446
869.285, 9678.753
869.767, 9617.103
870.250, 9580.979
870.732, 9576.684
871.214, 9575.292
871.696, 9571.208
872.178, 9564.129
872.660, 9554.222
873.142, 9540.878
873.624, 9521.972
874.106, 9495.626
874.589, 9464.821
875.071, 9422.581
875.553, 9379.024
876.035, 9352.530
876.517, 9357.236
876.999, 9349.528
877.481, 9319.794
877.963, 9284.088
878.445, 9267.814
878.928, 9268.338
879.410, 9273.343
879.892, 9284.128
880.374, 9284.877
880.856, 9256.021
881.338, 9211.868
881.820, 9168.548
882.302, 9120.630
882.784, 9091.780
883.267, 9093.552
883.749, 9102.600
884.231, 9096.701
884.713, 9075.728
885.195, 9048.875
885.677, 9015.664
886.159, 8987.652
886.641, 8980.132
887.124, 8982.898
887.606, 8984.353
888.088, 8983.012
888.570, 8978.727
889.052, 8974.887
889.534, 8964.761
890.016, 8939.740
890.498, 8897.074
890.981, 8881.973
891.463, 8897.999
891.945, 8916.184
892.427, 8910.283
892.909, 8893.003
893.391, 8885.876
893.873, 8889.090
894.355, 8892.736
894.838, 8889.515
895.320, 8887.447
895.802, 8892.694
896.284, 8903.932
896.766, 8909.506
897.248, 8910.422
897.730, 8900.848
898.212, 8870.944
898.694, 8833.682
899.177, 8825.184
899.659, 8838.349
900.141, 8844.749
900.623, 8821.894
901.105, 8797.606
901.587, 8788.250
902.069, 8789.148
902.551, 8780.465
903.033, 8753.420
903.516, 8740.726
903.998, 8755.057
904.480, 8779.087
904.962, 8773.155
905.444, 8745.938
905.926, 8730.800
906.408, 8748.701
906.890, 8762.933
907.372, 8737.567
907.855, 8697.774
908.337, 8680.555
908.819, 8712.245
909.301, 8723.023
909.783, 8702.596
910.265, 8674.013
910.747, 8670.359
911.229, 8684.645
911.711, 8677.619
912.194, 8640.009
912.676, 8610.584
913.158, 8643.623
913.640, 8685.661
914.122, 8681.842
914.604, 8604.313
915.086, 8552.754
915.568, 8541.643
916.051, 8538.627
916.533, 8521.631
917.015, 8493.016
917.497, 8472.270
917.979, 8459.494
918.461, 8451.023
918.943, 8450.143
919.425, 8448.154
919.907, 8432.497
920.390, 8404.685
920.872, 8393.092
921.354, 8418.188
921.836, 8432.840
922.318, 8416.066
922.800, 8380.134
923.282, 8376.639
923.764, 8402.179
924.247, 8418.835
924.729, 8403.851
925.211, 8379.209
925.693, 8358.714
926.175, 8344.207
926.657, 8339.203
927.139, 8362.952
927.621, 8370.480
928.104, 8351.122
928.586, 8320.155
929.068, 8300.844
929.550, 8292.767
930.032, 8288.201
930.514, 8286.093
930.996, 8286.418
931.478, 8294.803
931.960, 8302.957
932.443, 8299.282
932.925, 8271.464
933.407, 8259.673
933.889, 8274.819
934.371, 8295.003
934.853, 8304.617
935.335, 8304.049
935.817, 8296.553
936.299, 8282.059
936.782, 8278.812
937.264, 8307.881
937.746, 8349.368
938.228, 8392.749
938.710, 8435.914
939.192, 8452.015
939.674, 8410.843
940.156, 8383.540
940.638, 8402.476
941.121, 8449.733
941.603, 8450.723
942.085, 8410.740
942.567, 8382.995
943.049, 8403.846
943.531, 8432.559
944.013, 8429.365
944.495, 8409.323
944.977, 8402.689
945.460, 8429.801
945.942, 8450.981
946.424, 8464.809
946.906, 8469.348
947.388, 8460.845
947.870, 8440.298
948.352, 8411.038
948.834, 8371.589
949.317, 8336.343
949.799, 8322.826
950.281, 8315.612
950.763, 8296.653
951.245, 8254.273
951.727, 8235.423
952.209, 8253.401
952.691, 8271.214
953.174, 8266.446
953.656, 8240.575
954.138, 8193.303
954.620, 8128.348
955.102, 8079.848
955.584, 8091.107
956.066, 8106.693
956.548, 8080.744
957.031, 8022.435
957.513, 7995.569
957.995, 8020.890
958.477, 8033.943
958.959, 8017.197
959.441, 7980.921
959.923, 7935.528
960.405, 7888.078
960.887, 7862.123
961.370, 7874.633
961.852, 7893.063
962.334, 7904.093
962.816, 7908.023
963.298, 7904.928
963.780, 7893.502
964.262, 7878.510
964.744, 7858.423
965.226, 7839.731
965.709, 7829.658
966.191, 7825.626
966.673, 7824.891
967.155, 7827.068
967.637, 7821.099
968.119, 7789.708
968.601, 7759.462
969.083, 7746.270
969.565, 7748.656
970.048, 7750.595
970.530, 7752.751
971.012, 7749.178
971.494, 7731.371
971.976, 7712.430
972.458, 7722.059
972.940, 7747.279
973.422, 7756.145
973.904, 7713.867
974.387, 7681.861
974.869, 7675.994
975.351, 7686.034
975.833, 7703.069
976.315, 7728.233
976.797, 7738.240
977.279, 7728.473
977.761, 7713.201
978.244, 7697.111
978.726, 7689.086
979.208, 7706.460
979.690, 7758.758
980.172, 7787.907
980.654, 7775.562
981.136, 7749.825
981.618, 7717.632
982.101, 7682.834
982.583, 7676.189
983.065, 7695.293
983.547, 7713.598
984.029, 7716.522
984.511, 7712.133
984.993, 7707.515
985.475, 7700.617
985.957, 7683.837
986.440, 7645.771
986.922, 7620.421
987.404, 7612.824
987.886, 7619.329
988.368, 7641.791
988.850, 7673.547
989.332, 7692.978
989.814, 7694.420
990.296, 7690.527
990.779, 7689.930
991.261, 7686.331
991.743, 7670.767
992.225, 7639.441
992.707, 7633.783
993.189, 7660.042
993.671, 7682.345
994.153, 7666.770
994.635, 7637.694
995.118, 7645.893
995.600, 7682.249
996.082, 7709.650
996.564, 7706.675
997.046, 7699.723
997.528, 7692.176
998.010, 7688.003
998.492, 7698.292
998.974, 7723.350
999.457, 7738.861
999.939, 7736.424
1000.421, 7738.460
1000.903, 7784.763
1001.385, 7840.874
1001.867, 7860.643
1002.349, 7821.452
1002.831, 7799.397
1003.314, 7804.584
1003.796, 7819.962
1004.278, 7841.395
1004.760, 7864.947
1005.242, 7862.285
1005.724, 7837.988
1006.206, 7825.484
1006.688, 7859.128
1007.171, 7896.378
1007.653, 7912.540
1008.135, 7912.812
1008.617, 7914.517
1009.099, 7914.811
1009.581, 7928.662
1010.063, 7962.904
1010.545, 8000.715
1011.027, 8019.508
1011.510, 8025.334
1011.992, 8028.769
1012.474, 8031.724
1012.956, 8032.907
1013.438, 8038.000
1013.920, 8034.444
1014.402, 8009.647
1014.884, 7964.976
1015.367, 7949.104
1015.849, 7962.263
1016.331, 7977.473
1016.813, 7978.659
1017.295, 7974.294
1017.777, 7974.508
1018.259, 7975.910
1018.741, 7968.856
1019.223, 7944.962
1019.706, 7924.946
1020.188, 7913.393
1020.670, 7903.340
1021.152, 7881.398
1021.634, 7852.094
1022.116, 7832.604
1022.598, 7825.987
1023.080, 7823.375
1023.563, 7825.123
1024.045, 7823.798
1024.527, 7810.006
1025.009, 7783.769
1025.491, 7776.574
1025.973, 7790.830
1026.455, 7805.125
1026.937, 7814.375
1027.419, 7812.029
1027.901, 7780.340
1028.384, 7730.073
1028.866, 7686.430
1029.348, 7658.918
1029.830, 7636.859
1030.312, 7618.711
1030.794, 7605.806
1031.276, 7603.735
1031.758, 7610.401
1032.241, 7607.216
1032.723, 7592.606
1033.205, 7571.004
1033.687, 7537.780
1034.169, 7505.494
1034.651, 7483.102
1035.133, 7471.051
1035.615, 7465.875
1036.098, 7467.470
1036.580, 7476.770
1037.062, 7498.047
1037.544, 7520.656
1038.026, 7526.759
1038.508, 7519.603
1038.990, 7505.415
1039.472, 7476.912
1039.954, 7458.471
1040.437, 7461.319
1040.919, 7470.368
1041.401, 7475.096
1041.883, 7475.636
1042.365, 7471.586
1042.847, 7463.168
1043.329, 7452.255
1043.811, 7434.219
1044.293, 7419.787
1044.776, 7424.011
1045.258, 7441.068
1045.740, 7438.113
1046.222, 7405.300
1046.704, 7378.325
1047.186, 7364.040
1047.668, 7360.876
1048.150, 7367.622
1048.633, 7383.062
1049.115, 7408.248
1049.597, 7448.928
1050.079, 7475.693
1050.561, 7474.759
1051.043, 7459.268
1051.525, 7431.144
1052.007, 7392.240
1052.490, 7366.931
1052.972, 7355.381
1053.454, 7360.522
1053.936, 7406.559
1054.418, 7448.216
1054.900, 7439.426
1055.382, 7402.800
1055.864, 7388.356
1056.346, 7409.903
1056.828, 7420.291
1057.311, 7411.358
1057.793, 7403.354
1058.275, 7433.982
1058.757, 7476.043
1059.239, 7470.485
1059.721, 7412.285
1060.203, 7373.817
1060.685, 7403.586
1061.168, 7434.509
1061.650, 7441.277
1062.132, 7431.692
1062.614, 7434.808
1063.096, 7448.005
1063.578, 7448.816
1064.060, 7423.493
1064.542, 7397.959
1065.025, 7386.900
1065.507, 7388.783
1065.989, 7407.374
1066.471, 7455.694
1066.953, 7459.584
1067.435, 7409.685
1067.917, 7359.362
1068.399, 7347.629
1068.881, 7359.407
1069.364, 7375.538
1069.846, 7394.703
1070.328, 7413.874
1070.810, 7439.825
1071.292, 7454.315
1071.774, 7452.276
1072.256, 7440.268
1072.738, 7425.252
1073.220, 7408.623
1073.703, 7399.611
1074.185, 7399.755
1074.667, 7400.963
1075.149, 7399.679
1075.631, 7396.230
1076.113, 7389.815
1076.595, 7381.150
1077.077, 7376.070
1077.559, 7374.978
1078.042, 7374.649
1078.524, 7371.823
1079.006, 7373.273
1079.488, 7402.238
1079.970, 7435.338
1080.452, 7436.111
1080.934, 7364.495
1081.416, 7322.065
1081.899, 7315.837
1082.381, 7323.552
1082.863, 7329.023
1083.345, 7334.472
1083.827, 7348.788
1084.309, 7369.681
1084.791, 7386.432
1085.273, 7385.765
1085.755, 7389.771
1086.238, 7409.058
1086.720, 7433.761
1087.202, 7447.034
1087.684, 7449.519
1088.166, 7451.154
1088.648, 7453.464
1089.130, 7454.843
1089.612, 7453.472
1090.094, 7451.263
1090.577, 7450.442
1091.059, 7451.042
1091.541, 7447.528
1092.023, 7438.325
1092.505, 7433.690
1092.987, 7436.794
1093.469, 7447.329
1093.951, 7472.754
1094.434, 7502.662
1094.916, 7519.930
1095.398, 7516.488
1095.880, 7505.799
1096.362, 7482.087
1096.844, 7464.197
1097.326, 7471.576
1097.808, 7495.112
1098.291, 7499.529
1098.773, 7488.059
1099.255, 7477.523
1099.737, 7468.345
1100.219, 7471.406
1100.701, 7505.463
1101.183, 7543.646
1101.665, 7543.844
1102.147, 7507.030
1102.630, 7486.825
1103.112, 7488.992
1103.594, 7501.177
1104.076, 7524.710
1104.558, 7544.767
1105.040, 7546.266
1105.522, 7531.055
1106.004, 7521.386
1106.486, 7517.487
1106.969, 7518.798
1107.451, 7528.458
1107.933, 7534.633
1108.415, 7512.538
1108.897, 7480.886
1109.379, 7467.948
1109.861, 7485.521
1110.343, 7499.136
1110.826, 7506.428
1111.308, 7510.054
1111.790, 7511.477
1112.272, 7510.337
1112.754, 7498.113
1113.236, 7481.854
1113.718, 7483.031
1114.200, 7542.679
1114.682, 7576.316
1115.165, 7542.933
1115.647, 7499.124
1116.129, 7504.593
1116.611, 7553.382
1117.093, 7579.341
1117.575, 7580.693
1118.057, 7573.246
1118.539, 7551.157
1119.021, 7539.556
1119.504, 7565.794
1119.986, 7610.434
1120.468, 7625.935
1120.950, 7608.353
1121.432, 7604.661
1121.914, 7624.088
1122.396, 7647.733
1122.878, 7651.632
1123.361, 7654.937
1123.843, 7682.670
1124.325, 7737.500
1124.807, 7765.152
1125.289, 7755.661
1125.771, 7750.887
1126.253, 7762.058
1126.735, 7789.557
1127.218, 7847.971
1127.700, 7918.304
1128.182, 7967.059
1128.664, 7975.874
1129.146, 7991.523
1129.628, 8016.625
1130.110, 8051.095
1130.592, 8095.556
1131.074, 8148.758
1131.557, 8213.302
1132.039, 8284.735
1132.521, 8345.206
1133.003, 8389.876
1133.485, 8420.286
1133.967, 8428.397
1134.449, 8432.307
1134.931, 8451.250
1135.413, 8483.523
1135.896, 8514.113
1136.378, 8541.382
1136.860, 8551.151
1137.342, 8516.000
1137.824, 8480.521
1138.306, 8477.432
1138.788, 8486.553
1139.270, 8468.204
1139.752, 8421.289
1140.235, 8369.894
1140.717, 8316.294
1141.199, 8268.346
1141.681, 8239.231
1142.163, 8214.013
1142.645, 8180.027
1143.127, 8137.094
1143.609, 8098.444
1144.092, 8064.715
1144.574, 8027.625
1145.056, 7980.964
1145.538, 7940.628
1146.020, 7935.220
1146.502, 7942.990
1146.984, 7936.750
1147.466, 7909.739
1147.948, 7879.862
1148.431, 7846.301
1148.913, 7814.021
1149.395, 7782.535
1149.877, 7756.242
1150.359, 7741.768
1150.841, 7738.466
1151.323, 7746.673
1151.805, 7790.453
1152.287, 7792.812
1152.770, 7725.796
1153.252, 7662.954
1153.734, 7672.353
1154.216, 7726.772
1154.698, 7745.480
1155.180, 7733.453
1155.662, 7711.326
1156.144, 7664.790
1156.627, 7642.960
1157.109, 7665.905
1157.591, 7700.582
1158.073, 7705.355
1158.555, 7688.023
1159.037, 7688.048
1159.519, 7705.834
1160.001, 7713.107
1160.484, 7677.400
1160.966, 7647.820
1161.448, 7648.323
1161.930, 7663.312
1162.412, 7664.546
1162.894, 7653.153
1163.376, 7627.489
1163.858, 7582.782
1164.340, 7584.222
1164.823, 7763.425
1165.305, 7918.868
1165.787, 7904.238
1166.269, 7763.904
1166.751, 7657.462
1167.233, 7584.954
1167.715, 7580.114
1168.197, 7673.897
1168.679, 7757.172
1169.162, 7714.903
1169.644, 7636.728
1170.126, 7610.961
1170.608, 7637.618
1171.090, 7630.208
1171.572, 7585.687
1172.054, 7558.777
1172.536, 7581.089
1173.019, 7615.951
1173.501, 7629.840
1173.983, 7633.461
1174.465, 7640.894
1174.947, 7653.655
1175.429, 7669.665
1175.911, 7690.523
1176.393, 7702.772
1176.875, 7693.155
1177.358, 7674.870
1177.840, 7659.298
1178.322, 7647.202
1178.804, 7641.616
1179.286, 7652.209
1179.768, 7640.979
1180.250, 7600.609
1180.732, 7569.497
1181.214, 7588.131
1181.697, 7629.012
1182.179, 7666.462
1182.661, 7695.188
1183.143, 7699.284
1183.625, 7658.627
1184.107, 7634.337
1184.589, 7635.833
1185.071, 7642.421
1185.554, 7625.574
1186.036, 7602.827
1186.518, 7610.125
1187.000, 7643.325
1187.482, 7652.091
1187.964, 7613.132
1188.446, 7577.245
1188.928, 7550.870
1189.411, 7536.086
1189.893, 7538.169
1190.375, 7552.875
1190.857, 7578.246
1191.339, 7613.974
1191.821, 7631.224
1192.303, 7611.596
1192.785, 7596.667
1193.267, 7599.993
1193.750, 7609.819
1194.232, 7599.221
1194.714, 7580.820
1195.196, 7585.037
1195.678, 7622.884
1196.160, 7642.478
1196.642, 7623.989
1197.124, 7598.754
1197.606, 7572.999
1198.089, 7554.030
1198.571, 7569.666
1199.053, 7604.131
1199.535, 7620.465
1200.017, 7605.267
1200.499, 7582.424
1200.981, 7543.508
1201.463, 7520.267
1201.945, 7535.676
1202.428, 7575.106
1202.910, 7604.103
1203.392, 7621.473
1203.874, 7622.845
1204.356, 7590.300
1204.838, 7576.176
1205.320, 7599.365
1205.802, 7628.006
1206.285, 7643.032
1206.767, 7645.995
1207.249, 7632.911
1207.731, 7611.418
1208.213, 7607.167
1208.695, 7647.308
1209.177, 7683.720
1209.659, 7713.063
1210.141, 7730.135
1210.624, 7724.391
1211.106, 7702.904
1211.588, 7687.196
1212.070, 7678.525
1212.552, 7680.181
1213.034, 7703.388
1213.516, 7724.738
1213.998, 7745.371
1214.480, 7754.576
1214.963, 7729.443
1215.445, 7684.645
1215.927, 7676.986
1216.409, 7701.885
1216.891, 7713.866
1217.373, 7660.753
1217.855, 7640.518
1218.337, 7687.376
1218.820, 7751.770
1219.302, 7768.059
1219.784, 7749.316
1220.266, 7728.608
1220.748, 7709.533
1221.230, 7701.445
1221.712, 7716.256
1222.194, 7733.319
1222.677, 7751.674
1223.159, 7763.999
1223.641, 7750.155
1224.123, 7723.106
1224.605, 7720.856
1225.087, 7746.414
1225.569, 7763.246
1226.051, 7746.775
1226.533, 7732.970
1227.016, 7729.301
1227.498, 7734.314
1227.980, 7751.408
1228.462, 7773.564
1228.944, 7782.383
1229.426, 7774.708
1229.908, 7772.087
1230.390, 7775.911
1230.872, 7797.143
1231.355, 7850.376
1231.837, 7904.644
1232.319, 7887.937
1232.801, 7832.487
1233.283, 7804.368
1233.765, 7818.115
1234.247, 7831.234
1234.729, 7834.875
1235.212, 7836.285
1235.694, 7837.187
1236.176, 7837.983
1236.658, 7841.092
1237.140, 7844.021
1237.622, 7841.063
1238.104, 7829.194
1238.586, 7822.125
1239.068, 7821.232
1239.551, 7825.698
1240.033, 7838.803
1240.515, 7851.834
1240.997, 7847.174
1241.479, 7832.844
1241.961, 7820.524
1242.443, 7810.376
1242.925, 7817.942
1243.407, 7851.362
1243.890, 7877.107
1244.372, 7877.126
1244.854, 7864.181
1245.336, 7855.558
1245.818, 7848.533
1246.300, 7836.798
1246.782, 7811.121
1247.264, 7814.157
1247.747, 7853.258
1248.229, 7886.220
1248.711, 7889.379
1249.193, 7877.580
1249.675, 7861.973
1250.157, 7847.684
1250.639, 7845.122
1251.121, 7861.460
1251.604, 7858.695
1252.086, 7833.956
1252.568, 7815.121
1253.050, 7821.440
1253.532, 7836.120
1254.014, 7842.207
1254.496, 7845.788
1254.978, 7858.785
1255.460, 7887.270
1255.943, 7882.999
1256.425, 7844.106
1256.907, 7813.223
1257.389, 7821.220
1257.871, 7837.408
1258.353, 7837.569
1258.835, 7831.396
1259.317, 7831.384
1259.799, 7837.819
1260.281, 7854.979
1260.764, 7881.646
1261.246, 7889.727
1261.728, 7836.595
1262.210, 7790.956
1262.692, 7806.666
1263.174, 7839.389
1263.656, 7840.907
1264.138, 7812.303
1264.621, 7784.739
1265.103, 7759.731
1265.585, 7745.816
1266.067, 7755.563
1266.549, 7768.031
1267.031, 7779.750
1267.513, 7786.121
1267.995, 7779.353
1268.478, 7762.313
1268.960, 7750.008
1269.442, 7743.770
1269.924, 7749.915
1270.406, 7777.518
1270.888, 7810.955
1271.370, 7857.641
1271.852, 7890.681
1272.334, 7868.096
1272.817, 7815.079
1273.299, 7814.065
1273.781, 7852.507
1274.263, 7875.772
1274.745, 7846.768
1275.227, 7827.699
1275.709, 7828.048
1276.191, 7829.904
1276.673, 7811.453
1277.156, 7786.688
1277.638, 7782.750
1278.120, 7794.363
1278.602, 7801.238
1279.084, 7792.617
1279.566, 7795.730
1280.048, 7814.141
1280.530, 7835.396
1281.013, 7848.773
1281.495, 7859.339
1281.977, 7878.618
1282.459, 7898.978
1282.941, 7899.270
1283.423, 7874.314
1283.905, 7845.551
1284.387, 7812.373
1284.870, 7793.468
1285.352, 7817.894
1285.834, 7847.764
1286.316, 7848.488
1286.798, 7836.587
1287.280, 7847.048
1287.762, 7881.983
1288.244, 7897.390
1288.726, 7891.868
1289.208, 7887.113
1289.691, 7902.139
1290.173, 7916.289
1290.655, 7917.067
1291.137, 7913.094
1291.619, 7915.479
1292.101, 7921.774
1292.583, 7914.240
1293.065, 7896.254
1293.548, 7885.126
1294.030, 7902.609
1294.512, 7906.712
1294.994, 7880.157
1295.476, 7850.607
1295.958, 7850.938
##END=



