##NAMES=Ashcroftine-(Y)
##RRUFFID=R110189
##IDEAL CHEMISTRY=K_5_Na_5_Y_12_Si_28_O_70_(OH)_2_(CO_3_)_8_&#183;8H_2_O
##LOCALITY=Poudrette quarry, Mont Saint-Hilaire, Quebec, Canada
##OWNER=RRUFF
##SOURCE=Donald Doell
##DESCRIPTION=Aggregate of pink fibrous crystals
##STATUS=The identification of this mineral has been confirmed by single-crystal X-ray diffraction.
##URL=rruff.info/R110189
195.7407, 502.4185
196.2228, 502.5454
196.7050, 502.7947
197.1871, 502.9032
197.6692, 502.8936
198.1513, 503.3080
198.6334, 504.9290
199.1155, 506.4213
199.5977, 506.7168
200.0798, 505.8085
200.5619, 504.7083
201.0440, 504.2467
201.5261, 504.4126
202.0082, 505.3205
202.4904, 508.0992
202.9725, 510.8559
203.4546, 512.6263
203.9367, 513.3110
204.4188, 513.4539
204.9009, 513.6015
205.3831, 513.6096
205.8652, 514.0932
206.3473, 515.1917
206.8294, 516.6199
207.3115, 518.5108
207.7936, 520.7377
208.2758, 522.7581
208.7579, 523.6551
209.2400, 522.4161
209.7221, 522.3061
210.2042, 523.9241
210.6863, 526.0308
211.1685, 527.8043
211.6506, 529.0795
212.1327, 530.2332
212.6148, 531.8597
213.0969, 534.4284
213.5790, 536.4252
214.0612, 537.3616
214.5433, 538.0674
215.0254, 539.2232
215.5075, 540.9739
215.9896, 543.0213
216.4717, 544.9728
216.9539, 546.9473
217.4360, 548.4511
217.9181, 549.2507
218.4002, 549.6917
218.8823, 549.9109
219.3644, 549.9349
219.8466, 550.2525
220.3287, 551.7406
220.8108, 554.7064
221.2929, 557.0966
221.7750, 558.4102
222.2571, 559.0932
222.7393, 559.6361
223.2214, 560.1223
223.7035, 560.5771
224.1856, 560.9697
224.6677, 561.3016
225.1498, 561.8082
225.6320, 562.7021
226.1141, 563.7723
226.5962, 564.6716
227.0783, 565.3287
227.5604, 565.8629
228.0425, 566.3937
228.5247, 566.9114
229.0068, 567.3620
229.4889, 567.5601
229.9710, 567.6855
230.4531, 568.2365
230.9352, 569.4896
231.4174, 570.6757
231.8995, 571.0740
232.3816, 570.9244
232.8637, 570.8649
233.3458, 571.3974
233.8279, 572.2764
234.3101, 572.6644
234.7922, 572.2980
235.2743, 571.8284
235.7564, 571.3167
236.2385, 570.9742
236.7206, 571.3055
237.2028, 573.1035
237.6849, 575.8362
238.1670, 577.1771
238.6491, 576.4070
239.1312, 575.2028
239.6133, 573.8837
240.0955, 572.7133
240.5776, 572.1279
241.0597, 572.4944
241.5418, 573.6266
242.0239, 574.6382
242.5060, 575.5876
242.9882, 576.3075
243.4703, 576.7359
243.9524, 576.9372
244.4345, 576.9898
244.9166, 576.9222
245.3987, 576.7582
245.8809, 576.6069
246.3630, 576.4159
246.8451, 576.3135
247.3272, 576.5116
247.8093, 576.7579
248.2914, 576.6240
248.7736, 575.8314
249.2557, 574.6751
249.7378, 574.4037
250.2199, 576.4368
250.7020, 577.5889
251.1841, 576.7997
251.6663, 575.1424
252.1484, 573.9651
252.6305, 573.9246
253.1126, 574.5753
253.5947, 574.5003
254.0768, 572.9772
254.5590, 571.5336
255.0411, 570.0605
255.5232, 568.7916
256.0053, 568.0613
256.4874, 568.0113
256.9695, 568.3419
257.4517, 568.3291
257.9338, 567.4626
258.4159, 566.8461
258.8980, 566.6978
259.3801, 566.7080
259.8622, 566.6188
260.3444, 566.3328
260.8265, 565.7879
261.3086, 564.8491
261.7907, 563.0203
262.2728, 561.5612
262.7549, 560.7516
263.2371, 560.1804
263.7192, 559.4214
264.2013, 558.3616
264.6834, 557.2253
265.1655, 556.3336
265.6476, 555.7410
266.1298, 555.3367
266.6119, 555.4385
267.0940, 555.5531
267.5761, 555.0526
268.0582, 553.8455
268.5403, 552.6574
269.0225, 552.4571
269.5046, 553.6230
269.9867, 553.9836
270.4688, 553.0839
270.9509, 551.6172
271.4330, 549.9359
271.9152, 548.1374
272.3973, 546.6500
272.8794, 545.9901
273.3615, 546.2368
273.8436, 546.2281
274.3257, 545.7200
274.8079, 545.1060
275.2900, 544.6325
275.7721, 544.3230
276.2542, 544.2337
276.7363, 544.5151
277.2184, 545.0893
277.7006, 545.3204
278.1827, 544.9355
278.6648, 544.4185
279.1469, 544.0330
279.6290, 543.7904
280.1111, 543.7229
280.5933, 543.8801
281.0754, 544.2382
281.5575, 544.6490
282.0396, 545.2093
282.5217, 545.7078
283.0038, 545.8817
283.4860, 545.8226
283.9681, 546.0539
284.4502, 546.9741
284.9323, 548.1939
285.4144, 548.8604
285.8965, 548.7447
286.3787, 548.6608
286.8608, 549.2359
287.3429, 550.2529
287.8250, 550.8221
288.3071, 550.3488
288.7892, 549.7357
289.2714, 550.4439
289.7535, 552.6321
290.2356, 554.6135
290.7177, 555.3434
291.1998, 555.2612
291.6819, 555.5668
292.1641, 556.6074
292.6462, 557.9317
293.1283, 559.1035
293.6104, 560.1346
294.0925, 561.0537
294.5746, 562.0034
295.0568, 562.8230
295.5389, 562.9965
296.0210, 562.1851
296.5031, 561.5653
296.9852, 562.5332
297.4673, 564.5623
297.9495, 566.2725
298.4316, 566.9652
298.9137, 567.1777
299.3958, 567.6431
299.8779, 568.3743
300.3600, 569.3864
300.8422, 570.9228
301.3243, 572.7199
301.8064, 574.2862
302.2885, 575.3093
302.7706, 576.2770
303.2527, 577.8987
303.7349, 580.2437
304.2170, 582.3481
304.6991, 583.6506
305.1812, 584.4817
305.6633, 585.2067
306.1454, 585.7211
306.6276, 586.4954
307.1097, 588.3087
307.5918, 591.0647
308.0739, 593.0355
308.5560, 593.0773
309.0381, 592.5635
309.5203, 593.1296
310.0024, 594.9085
310.4845, 596.8074
310.9666, 598.0092
311.4487, 598.6664
311.9308, 599.5489
312.4130, 600.9094
312.8951, 602.3672
313.3772, 603.5651
313.8593, 604.5331
314.3414, 605.4243
314.8235, 606.0911
315.3057, 606.7445
315.7878, 608.1349
316.2699, 610.7245
316.7520, 613.0621
317.2341, 613.7707
317.7162, 613.4277
318.1984, 613.2249
318.6805, 613.5299
319.1626, 614.2471
319.6447, 615.2069
320.1268, 616.3846
320.6089, 617.9440
321.0911, 620.3778
321.5732, 623.1653
322.0553, 625.5784
322.5374, 627.4351
323.0195, 628.9633
323.5016, 630.4059
323.9838, 631.7737
324.4659, 632.8063
324.9480, 633.0537
325.4301, 633.1607
325.9122, 633.9042
326.3943, 635.3974
326.8765, 637.1763
327.3586, 638.9193
327.8407, 640.6657
328.3228, 642.6596
328.8049, 645.1871
329.2870, 647.6428
329.7692, 649.4457
330.2513, 650.6324
330.7334, 651.4874
331.2155, 651.7396
331.6976, 651.7880
332.1797, 652.7571
332.6619, 655.1048
333.1440, 657.4103
333.6261, 657.9909
334.1082, 657.5757
334.5903, 657.9612
335.0724, 660.3337
335.5546, 663.4628
336.0367, 665.8290
336.5188, 667.3850
337.0009, 668.4946
337.4830, 668.9594
337.9651, 669.2377
338.4473, 670.2404
338.9294, 672.5076
339.4115, 674.8187
339.8936, 676.0786
340.3757, 676.4241
340.8578, 676.8235
341.3400, 677.5872
341.8221, 678.6429
342.3042, 679.8171
342.7863, 681.0864
343.2684, 682.5795
343.7505, 684.6270
344.2327, 686.9364
344.7148, 688.8198
345.1969, 690.1313
345.6790, 690.9918
346.1611, 691.2482
346.6432, 691.0113
347.1254, 691.0989
347.6075, 691.8754
348.0896, 693.0151
348.5717, 694.2444
349.0538, 695.5597
349.5359, 696.5745
350.0181, 696.7424
350.5002, 696.3488
350.9823, 696.6707
351.4644, 698.4915
351.9465, 700.4320
352.4286, 701.6194
352.9108, 702.1299
353.3929, 702.3050
353.8750, 702.1866
354.3571, 701.9480
354.8392, 701.9644
355.3214, 702.0671
355.8035, 702.7029
356.2856, 704.7575
356.7677, 707.3224
357.2498, 708.5774
357.7319, 707.8775
358.2141, 706.4791
358.6962, 706.0460
359.1783, 706.6758
359.6604, 707.6279
360.1425, 709.4704
360.6246, 711.2078
361.1068, 711.6539
361.5889, 710.7935
362.0710, 709.8480
362.5531, 709.8487
363.0352, 710.7997
363.5173, 711.5624
363.9995, 711.9690
364.4816, 712.3769
364.9637, 712.9907
365.4458, 713.7421
365.9279, 714.3954
366.4100, 714.7877
366.8922, 715.0884
367.3743, 715.8615
367.8564, 717.1838
368.3385, 718.8196
368.8206, 721.4431
369.3027, 724.0659
369.7849, 725.3274
370.2670, 724.8912
370.7491, 723.7852
371.2312, 723.4180
371.7133, 724.0775
372.1954, 724.6732
372.6776, 725.3246
373.1597, 725.8204
373.6418, 725.8496
374.1239, 725.5482
374.6060, 725.4520
375.0881, 726.0355
375.5703, 727.2694
376.0524, 728.1284
376.5345, 728.2577
377.0166, 728.4396
377.4987, 729.0715
377.9808, 729.8110
378.4630, 729.9571
378.9451, 729.1791
379.4272, 728.1489
379.9093, 728.5847
380.3914, 732.2087
380.8735, 734.4035
381.3557, 733.9630
381.8378, 732.9288
382.3199, 732.8378
382.8020, 733.8737
383.2841, 735.1793
383.7662, 735.7346
384.2484, 735.3665
384.7305, 735.4591
385.2126, 736.8102
385.6947, 737.8536
386.1768, 737.4994
386.6589, 736.4862
387.1411, 736.4489
387.6232, 738.6006
388.1053, 742.0831
388.5874, 743.6880
389.0695, 742.3226
389.5516, 741.0853
390.0338, 740.5268
390.5159, 740.4839
390.9980, 741.0323
391.4801, 742.1771
391.9622, 743.2726
392.4443, 743.4520
392.9265, 742.6249
393.4086, 741.7617
393.8907, 740.5262
394.3728, 739.7584
394.8549, 740.2532
395.3370, 741.7202
395.8192, 743.0368
396.3013, 743.6443
396.7834, 743.5523
397.2655, 742.5488
397.7476, 740.1225
398.2297, 738.1241
398.7119, 737.8410
399.1940, 738.4636
399.6761, 739.1046
400.1582, 739.6721
400.6403, 739.9034
401.1224, 739.3211
401.6046, 737.9772
402.0867, 736.8730
402.5688, 736.3477
403.0509, 736.1517
403.5330, 736.0995
404.0151, 736.2069
404.4973, 735.9588
404.9794, 734.6702
405.4615, 733.0089
405.9436, 732.3136
406.4257, 732.8542
406.9078, 733.4392
407.3900, 733.0220
407.8721, 731.7898
408.3542, 730.8071
408.8363, 730.4015
409.3184, 730.0423
409.8005, 729.3436
410.2827, 728.3990
410.7648, 727.5643
411.2469, 727.0235
411.7290, 726.6273
412.2111, 726.0203
412.6932, 725.1042
413.1754, 724.2560
413.6575, 723.7203
414.1396, 723.1849
414.6217, 722.1702
415.1038, 720.6498
415.5859, 719.2300
416.0681, 718.5878
416.5502, 718.8427
417.0323, 718.4972
417.5144, 716.8455
417.9965, 715.4250
418.4786, 715.0198
418.9608, 715.2865
419.4429, 715.5388
419.9250, 715.4310
420.4071, 715.0326
420.8892, 714.5341
421.3713, 714.0213
421.8535, 713.2609
422.3356, 712.3069
422.8177, 711.0864
423.2998, 709.3488
423.7819, 707.1797
424.2640, 705.1301
424.7462, 703.8494
425.2283, 703.4100
425.7104, 702.5726
426.1925, 700.7961
426.6746, 699.1951
427.1567, 698.2658
427.6389, 697.6762
428.1210, 696.8469
428.6031, 695.4495
429.0852, 693.8807
429.5673, 693.0374
430.0494, 693.1683
430.5316, 693.1228
431.0137, 692.5190
431.4958, 691.7293
431.9779, 691.0075
432.4600, 690.3589
432.9421, 689.5756
433.4243, 688.4903
433.9064, 687.1383
434.3885, 685.6462
434.8706, 683.9736
435.3527, 682.2561
435.8348, 680.4109
436.3170, 678.5979
436.7991, 677.1192
437.2812, 676.1891
437.7633, 675.4227
438.2454, 674.6414
438.7275, 673.7828
439.2097, 672.3154
439.6918, 669.7387
440.1739, 666.9562
440.6560, 665.4203
441.1381, 665.1545
441.6202, 665.0052
442.1024, 665.1236
442.5845, 664.9406
443.0666, 663.5309
443.5487, 660.8998
444.0308, 658.2660
444.5129, 656.5689
444.9951, 655.7068
445.4772, 654.5695
445.9593, 652.8357
446.4414, 651.2509
446.9235, 650.0362
447.4056, 649.1152
447.8878, 648.5821
448.3699, 648.4444
448.8520, 648.0692
449.3341, 646.3593
449.8162, 642.4819
450.2983, 639.6627
450.7805, 638.4115
451.2626, 637.5792
451.7447, 636.7619
452.2268, 635.8563
452.7089, 634.7902
453.1910, 633.5031
453.6732, 632.0557
454.1553, 630.7520
454.6374, 629.9277
455.1195, 628.6412
455.6016, 626.4644
456.0837, 624.0156
456.5659, 621.7568
457.0480, 619.7813
457.5301, 618.0514
458.0122, 616.5899
458.4943, 615.3851
458.9764, 614.1451
459.4586, 612.8970
459.9407, 611.5530
460.4228, 609.8601
460.9049, 608.0871
461.3870, 606.8125
461.8691, 606.5731
462.3513, 606.3592
462.8334, 604.6169
463.3155, 601.4254
463.7976, 598.9240
464.2797, 598.1536
464.7618, 597.9066
465.2440, 596.6505
465.7261, 594.3903
466.2082, 591.9441
466.6903, 589.0491
467.1724, 586.3924
467.6545, 585.1578
468.1367, 585.3382
468.6188, 585.3181
469.1009, 583.9368
469.5830, 581.5063
470.0651, 579.5797
470.5472, 578.5547
471.0294, 577.4681
471.5115, 575.8723
471.9936, 574.1659
472.4757, 573.0290
472.9578, 572.5797
473.4399, 572.0330
473.9221, 570.3404
474.4042, 567.1523
474.8863, 564.8582
475.3684, 564.2222
475.8505, 563.5364
476.3326, 562.1231
476.8148, 560.2408
477.2969, 558.3735
477.7790, 556.7646
478.2611, 555.3290
478.7432, 553.9455
479.2253, 552.7043
479.7075, 551.2753
480.1896, 549.3361
480.6717, 547.4468
481.1538, 545.9442
481.6359, 544.7956
482.1180, 543.7437
482.6002, 542.7121
483.0823, 541.6278
483.5644, 540.1819
484.0465, 538.2545
484.5286, 536.4429
485.0107, 535.2479
485.4929, 534.1868
485.9750, 532.6487
486.4571, 530.5188
486.9392, 528.2447
487.4213, 525.9675
487.9034, 523.7557
488.3856, 521.8881
488.8677, 520.4493
489.3498, 518.8972
489.8319, 516.6945
490.3140, 513.8845
490.7961, 511.3636
491.2783, 509.4922
491.7604, 507.5046
492.2425, 504.6095
492.7246, 501.4243
493.2067, 499.2567
493.6888, 498.5732
494.1710, 498.4356
494.6531, 497.4188
495.1352, 495.2441
495.6173, 493.0171
496.0994, 490.5615
496.5815, 488.2316
497.0637, 486.3307
497.5458, 484.6888
498.0279, 482.9374
498.5100, 480.8631
498.9921, 478.5671
499.4742, 476.1866
499.9564, 473.4917
500.4385, 471.3164
500.9206, 470.2639
501.4027, 469.3593
501.8848, 467.9975
502.3669, 466.1982
502.8491, 464.4032
503.3312, 463.0348
503.8133, 461.8639
504.2954, 460.1778
504.7775, 457.8487
505.2596, 455.6443
505.7418, 453.9338
506.2239, 452.5726
506.7060, 451.4183
507.1881, 450.5812
507.6702, 449.4719
508.1523, 447.7017
508.6345, 445.4994
509.1166, 443.0557
509.5987, 440.3882
510.0808, 438.1537
510.5629, 437.0591
511.0450, 436.9607
511.5272, 436.0892
512.0093, 433.8417
512.4914, 431.6404
512.9735, 429.7298
513.4556, 428.1642
513.9377, 427.1480
514.4199, 426.6826
514.9020, 426.2531
515.3841, 425.1656
515.8662, 423.2669
516.3483, 421.7857
516.8304, 421.4945
517.3126, 420.8065
517.7947, 419.1013
518.2768, 416.7739
518.7589, 414.3226
519.2410, 411.9250
519.7231, 409.7592
520.2053, 408.2367
520.6874, 407.4314
521.1695, 406.1761
521.6516, 403.9675
522.1337, 401.7238
522.6158, 400.1908
523.0980, 399.1286
523.5801, 397.8363
524.0622, 395.9258
524.5443, 393.8288
525.0264, 391.9788
525.5085, 390.3422
525.9907, 388.8329
526.4728, 387.4511
526.9549, 386.0975
527.4370, 384.5921
527.9191, 382.8741
528.4012, 381.3293
528.8834, 380.3582
529.3655, 379.2628
529.8476, 377.3839
530.3297, 374.9464
530.8118, 372.6610
531.2939, 370.9048
531.7761, 369.5387
532.2582, 368.2228
532.7403, 366.9818
533.2224, 365.7407
533.7045, 364.5865
534.1866, 363.3541
534.6688, 361.8462
535.1509, 360.1544
535.6330, 358.5911
536.1151, 357.4342
536.5972, 356.4453
537.0793, 354.8174
537.5615, 352.2879
538.0436, 350.2617
538.5257, 349.7210
539.0078, 349.4258
539.4899, 348.2114
539.9720, 346.0880
540.4542, 344.0229
540.9363, 342.6605
541.4184, 341.5557
541.9005, 339.9825
542.3826, 337.9481
542.8647, 336.0567
543.3469, 334.5922
543.8290, 333.4916
544.3111, 332.6865
544.7932, 332.5569
545.2753, 331.8107
545.7574, 329.5272
546.2396, 327.0727
546.7217, 325.8506
547.2038, 325.6915
547.6859, 325.3306
548.1680, 323.8319
548.6501, 321.5033
549.1323, 319.7303
549.6144, 318.9109
550.0965, 317.9836
550.5786, 316.7306
551.0607, 315.4149
551.5428, 314.2163
552.0250, 313.1503
552.5071, 312.1447
552.9892, 311.1202
553.4713, 310.1236
553.9534, 309.3471
554.4355, 308.8712
554.9177, 308.1931
555.3998, 306.9496
555.8819, 305.5128
556.3640, 304.4289
556.8461, 303.7604
557.3282, 302.9846
557.8104, 301.8957
558.2925, 300.5883
558.7746, 298.9939
559.2567, 297.1916
559.7388, 295.8307
560.2209, 295.4043
560.7031, 295.5143
561.1852, 294.8896
561.6673, 292.8945
562.1494, 291.0130
562.6315, 289.1407
563.1136, 287.4845
563.5958, 286.2485
564.0779, 285.3769
564.5600, 284.6831
565.0421, 284.0526
565.5242, 283.4634
566.0063, 282.8343
566.4885, 282.1424
566.9706, 281.4876
567.4527, 281.1922
567.9348, 280.7090
568.4169, 279.4568
568.8990, 277.5463
569.3812, 275.8273
569.8633, 274.9382
570.3454, 274.4124
570.8275, 273.4969
571.3096, 272.2308
571.7917, 271.2776
572.2739, 271.0309
572.7560, 271.0452
573.2381, 270.4676
573.7202, 269.1042
574.2023, 267.9511
574.6844, 267.2361
575.1666, 266.6370
575.6487, 265.9676
576.1308, 265.2260
576.6129, 264.4325
577.0950, 263.5864
577.5771, 262.7807
578.0593, 262.2766
578.5414, 262.3128
579.0235, 261.9933
579.5056, 260.9792
579.9877, 259.8676
580.4698, 258.8124
580.9520, 257.8750
581.4341, 257.1504
581.9162, 256.7342
582.3983, 256.4362
582.8804, 256.0523
583.3625, 255.5760
583.8447, 254.8859
584.3268, 253.8141
584.8089, 252.8462
585.2910, 252.6346
585.7731, 253.0904
586.2552, 253.2744
586.7374, 252.9717
587.2195, 252.5213
587.7016, 252.0240
588.1837, 251.5192
588.6658, 251.0429
589.1479, 250.6111
589.6301, 250.2903
590.1122, 250.2236
590.5943, 250.4878
591.0764, 250.2454
591.5585, 248.6533
592.0406, 247.5421
592.5228, 247.8190
593.0049, 248.5779
593.4870, 248.6285
593.9691, 247.6857
594.4512, 246.7203
594.9333, 246.9039
595.4155, 247.8871
595.8976, 248.0507
596.3797, 247.1522
596.8618, 246.1319
597.3439, 245.5501
597.8260, 245.2140
598.3082, 244.6639
598.7903, 243.8926
599.2724, 242.9329
599.7545, 241.4444
600.2366, 239.9898
600.7188, 239.3134
601.2009, 239.3577
601.6830, 239.4412
602.1651, 239.1046
602.6472, 238.4507
603.1293, 237.8602
603.6115, 237.3924
604.0936, 236.8754
604.5757, 236.1470
605.0578, 235.5021
605.5399, 235.2305
606.0220, 235.2167
606.5042, 235.0526
606.9863, 234.4407
607.4684, 233.6683
607.9505, 233.2740
608.4326, 233.2429
608.9147, 232.9762
609.3969, 232.2456
609.8790, 231.3651
610.3611, 230.6266
610.8432, 230.0235
611.3253, 229.5732
611.8074, 229.2027
612.2896, 229.0640
612.7717, 229.5021
613.2538, 230.1510
613.7359, 230.3573
614.2180, 229.9423
614.7001, 229.2585
615.1823, 228.6516
615.6644, 228.1012
616.1465, 228.0729
616.6286, 229.0763
617.1107, 229.9048
617.5928, 230.1559
618.0750, 230.1463
618.5571, 230.1939
619.0392, 230.3591
619.5213, 230.5156
620.0034, 230.4324
620.4855, 230.3055
620.9677, 230.5949
621.4498, 231.3267
621.9319, 232.2942
622.4140, 233.4820
622.8961, 234.7536
623.3782, 235.8227
623.8604, 236.6651
624.3425, 237.4162
624.8246, 237.7188
625.3067, 238.2571
625.7888, 239.5191
626.2709, 241.4002
626.7531, 243.7024
627.2352, 246.3307
627.7173, 248.9514
628.1994, 250.8245
628.6815, 251.7554
629.1636, 253.0352
629.6458, 254.8198
630.1279, 256.8506
630.6100, 258.7960
631.0921, 260.9206
631.5742, 263.6933
632.0563, 267.2767
632.5385, 271.3828
633.0206, 276.1972
633.5027, 281.2805
633.9848, 285.6747
634.4669, 289.2547
634.9490, 292.7815
635.4312, 296.8243
635.9133, 301.2748
636.3954, 305.6743
636.8775, 310.3766
637.3596, 314.4902
637.8417, 318.3753
638.3239, 321.3278
638.8060, 322.6744
639.2881, 322.6048
639.7702, 321.8498
640.2523, 320.8786
640.7344, 319.3930
641.2166, 316.8417
641.6987, 313.2035
642.1808, 308.6609
642.6629, 302.9532
643.1450, 296.7842
643.6271, 290.6814
644.1093, 284.6013
644.5914, 278.4854
645.0735, 272.1086
645.5556, 265.9808
646.0377, 260.4161
646.5198, 255.2139
647.0020, 250.0610
647.4841, 244.9501
647.9662, 240.1519
648.4483, 235.8940
648.9304, 232.1912
649.4125, 228.9891
649.8947, 226.4122
650.3768, 224.1603
650.8589, 222.5741
651.3410, 220.9748
651.8231, 218.7686
652.3052, 216.0571
652.7874, 213.4876
653.2695, 211.4070
653.7516, 209.6044
654.2337, 207.8465
654.7158, 206.1519
655.1979, 204.6088
655.6801, 203.2426
656.1622, 202.0331
656.6443, 200.9557
657.1264, 200.0140
657.6085, 199.1992
658.0906, 198.5716
658.5728, 197.9789
659.0549, 197.4797
659.5370, 196.9368
660.0191, 196.0735
660.5012, 194.9394
660.9833, 194.0358
661.4655, 193.9155
661.9476, 194.2552
662.4297, 193.9476
662.9118, 192.8810
663.3939, 192.0808
663.8760, 192.0133
664.3582, 192.1638
664.8403, 191.9458
665.3224, 191.3879
665.8045, 190.7133
666.2866, 189.8175
666.7687, 188.9594
667.2509, 188.3583
667.7330, 187.8701
668.2151, 187.1835
668.6972, 186.2491
669.1793, 185.4041
669.6614, 184.9972
670.1436, 185.0079
670.6257, 185.2273
671.1078, 186.1459
671.5899, 186.2578
672.0720, 184.3438
672.5541, 182.0119
673.0363, 180.4779
673.5184, 179.7745
674.0005, 179.2766
674.4826, 178.9187
674.9647, 178.4753
675.4468, 177.5219
675.9290, 176.2857
676.4111, 175.5697
676.8932, 175.6357
677.3753, 175.7631
677.8574, 175.0369
678.3395, 173.4018
678.8217, 172.3567
679.3038, 172.5802
679.7859, 172.5385
680.2680, 171.8882
680.7501, 170.9312
681.2322, 169.8049
681.7144, 168.6106
682.1965, 167.6335
682.6786, 167.2229
683.1607, 167.0413
683.6428, 166.4819
684.1249, 165.5968
684.6071, 164.8845
685.0892, 164.5265
685.5713, 164.2529
686.0534, 163.7171
686.5355, 162.8911
687.0176, 162.3486
687.4998, 162.4333
687.9819, 162.3431
688.4640, 161.8266
688.9461, 161.0716
689.4282, 160.1132
689.9103, 159.0676
690.3925, 158.3164
690.8746, 158.2524
691.3567, 158.5875
691.8388, 158.6782
692.3209, 158.5236
692.8030, 158.1334
693.2852, 157.4137
693.7673, 156.6384
694.2494, 156.0676
694.7315, 155.6975
695.2136, 155.4189
695.6957, 155.3016
696.1779, 155.1849
696.6600, 155.0114
697.1421, 154.8113
697.6242, 154.5842
698.1063, 154.3554
698.5884, 154.2093
699.0706, 154.2133
699.5527, 154.3387
700.0348, 154.5647
700.5169, 154.9445
700.9990, 155.0389
701.4811, 154.5571
701.9633, 154.0552
702.4454, 154.1726
702.9275, 154.6818
703.4096, 154.7996
703.8917, 154.1123
704.3738, 153.4461
704.8560, 153.2540
705.3381, 153.2040
705.8202, 152.8499
706.3023, 152.1935
706.7844, 151.5882
707.2665, 151.2967
707.7487, 151.1530
708.2308, 150.6591
708.7129, 149.6933
709.1950, 148.9678
709.6771, 148.7832
710.1592, 148.5658
710.6414, 147.8078
711.1235, 146.7769
711.6056, 146.0678
712.0877, 145.9107
712.5698, 145.7693
713.0519, 145.3005
713.5341, 144.7618
714.0162, 144.5907
714.4983, 144.6926
714.9804, 144.4800
715.4625, 143.5907
715.9446, 142.3748
716.4268, 141.5466
716.9089, 141.1326
717.3910, 140.9777
717.8731, 141.1117
718.3552, 141.4664
718.8373, 142.2912
719.3195, 143.1914
719.8016, 143.5498
720.2837, 143.2078
720.7658, 142.7556
721.2479, 142.4180
721.7300, 142.1523
722.2122, 142.0387
722.6943, 141.9669
723.1764, 141.5182
723.6585, 140.5036
724.1406, 139.3372
724.6227, 138.6624
725.1049, 138.5207
725.5870, 138.4529
726.0691, 138.5716
726.5512, 138.5794
727.0333, 138.2690
727.5154, 137.8676
727.9976, 137.6669
728.4797, 137.6806
728.9618, 137.4947
729.4439, 136.7116
729.9260, 135.8474
730.4081, 135.4630
730.8903, 135.3605
731.3724, 135.0524
731.8545, 134.3975
732.3366, 133.5511
732.8187, 132.6491
733.3008, 131.7034
733.7830, 130.8627
734.2651, 130.2853
734.7472, 129.4715
735.2293, 128.0974
735.7114, 126.6226
736.1935, 125.2782
736.6757, 124.1036
737.1578, 123.1868
737.6399, 122.7080
738.1220, 122.2950
738.6041, 121.6888
739.0862, 120.9926
739.5684, 120.3394
740.0505, 119.7678
740.5326, 119.3538
741.0147, 119.1857
741.4968, 119.1204
741.9789, 118.6853
742.4611, 117.7531
742.9432, 116.9185
743.4253, 116.2290
743.9074, 115.6628
744.3895, 115.2009
744.8716, 114.8459
745.3538, 114.6304
745.8359, 114.6167
746.3180, 114.5541
746.8001, 114.3728
747.2822, 114.0588
747.7643, 113.5346
748.2465, 112.8615
748.7286, 112.1792
749.2107, 111.5536
749.6928, 111.0477
750.1749, 110.8318
750.6570, 110.9345
751.1392, 110.6717
751.6213, 109.8600
752.1034, 109.1033
752.5855, 108.7292
753.0676, 108.4677
753.5497, 107.8920
754.0319, 106.9802
754.5140, 106.4463
754.9961, 106.9062
755.4782, 107.3255
755.9603, 106.9413
756.4424, 106.1647
756.9246, 105.6500
757.4067, 105.5257
757.8888, 105.4957
758.3709, 105.3035
758.8530, 105.0069
759.3351, 104.8438
759.8173, 104.8519
760.2994, 104.6338
760.7815, 103.9278
761.2636, 103.3047
761.7457, 103.3776
762.2278, 103.9745
762.7100, 104.2354
763.1921, 103.9833
763.6742, 103.6438
764.1563, 103.1665
764.6384, 102.7619
765.1205, 102.6590
765.6027, 102.7774
766.0848, 102.8305
766.5669, 102.6742
767.0490, 102.5854
767.5311, 103.1024
768.0132, 104.0579
768.4954, 104.5025
768.9775, 104.3519
769.4596, 103.8524
769.9417, 102.9107
770.4238, 101.9957
770.9059, 102.0330
771.3881, 103.4183
771.8702, 104.1581
772.3523, 103.8390
772.8344, 103.3941
773.3165, 103.2951
773.7986, 103.1483
774.2808, 102.2657
774.7629, 100.7107
775.2450, 99.53224
775.7271, 99.80730
776.2092, 100.4953
776.6913, 99.86598
777.1735, 98.25742
777.6556, 97.13768
778.1377, 96.85461
778.6198, 96.64712
779.1019, 95.82703
779.5840, 94.56419
780.0662, 93.76624
780.5483, 93.87009
781.0304, 93.60587
781.5125, 92.58386
781.9946, 91.50355
782.4767, 90.63058
782.9589, 89.95681
783.4410, 89.48638
783.9231, 89.27158
784.4052, 88.97886
784.8873, 88.33332
785.3694, 87.54953
785.8516, 86.83141
786.3337, 86.21603
786.8158, 85.80533
787.2979, 85.63610
787.7800, 85.46557
788.2621, 84.92117
788.7443, 84.02617
789.2264, 83.44197
789.7085, 83.25208
790.1906, 83.14739
790.6727, 83.10385
791.1548, 83.04561
791.6370, 82.91342
792.1191, 82.70621
792.6012, 82.40902
793.0833, 81.91240
793.5654, 81.45653
794.0475, 81.13618
794.5297, 80.89884
795.0118, 80.78011
795.4939, 80.69833
795.9760, 80.41022
796.4581, 79.76425
796.9402, 78.96463
797.4224, 78.21725
797.9045, 77.55814
798.3866, 77.35544
798.8687, 77.70456
799.3508, 77.90414
799.8329, 77.55346
800.3151, 76.91042
800.7972, 76.44534
801.2793, 76.19111
801.7614, 75.98460
802.2435, 75.94880
802.7256, 75.80605
803.2078, 75.33468
803.6899, 74.80919
804.1720, 74.57224
804.6541, 74.61015
805.1362, 74.55176
805.6183, 74.15353
806.1005, 73.62630
806.5826, 73.13668
807.0647, 72.69880
807.5468, 72.38050
808.0289, 72.17542
808.5110, 71.92121
808.9932, 71.48444
809.4753, 70.97876
809.9574, 70.75358
810.4395, 70.93114
810.9216, 70.81329
811.4037, 70.19717
811.8859, 69.56480
812.3680, 69.09111
812.8501, 68.77816
813.3322, 68.68641
813.8143, 68.86524
814.2964, 68.92078
814.7786, 68.74969
815.2607, 68.44481
815.7428, 67.86323
816.2249, 67.27554
816.7070, 67.17248
817.1891, 67.55090
817.6713, 67.82603
818.1534, 67.49490
818.6355, 66.87398
819.1176, 66.60520
819.5997, 66.63618
820.0818, 66.55086
820.5640, 66.26987
821.0461, 65.91820
821.5282, 65.56573
822.0103, 65.22622
822.4924, 64.95078
822.9745, 64.79673
823.4567, 64.57352
823.9388, 64.30284
824.4209, 63.93821
824.9030, 63.19450
825.3851, 62.48449
825.8672, 62.50948
826.3494, 63.34112
826.8315, 63.84830
827.3136, 63.26347
827.7957, 62.36903
828.2778, 61.66634
828.7599, 61.18658
829.2421, 61.07561
829.7242, 61.28284
830.2063, 61.36431
830.6884, 60.94450
831.1705, 60.27062
831.6526, 59.97086
832.1348, 60.05761
832.6169, 60.21075
833.0990, 60.49544
833.5811, 60.48006
834.0632, 59.73780
834.5453, 58.65546
835.0275, 58.10045
835.5096, 58.31256
835.9917, 58.35297
836.4738, 58.09606
836.9559, 57.80818
837.4380, 57.52732
837.9202, 57.30322
838.4023, 57.22742
838.8844, 57.28032
839.3665, 57.27393
839.8486, 57.04832
840.3307, 56.79353
840.8129, 56.72108
841.2950, 56.75608
841.7771, 56.77881
842.2592, 56.75752
842.7413, 56.62673
843.2234, 56.33363
843.7056, 55.98750
844.1877, 55.84416
844.6698, 55.93154
845.1519, 55.87209
845.6340, 55.61669
846.1161, 55.32023
846.5983, 55.01161
847.0804, 54.72668
847.5625, 54.51515
848.0446, 54.37772
848.5267, 54.28331
849.0089, 54.32094
849.4910, 54.28491
849.9731, 54.08814
850.4552, 53.81589
850.9373, 53.48820
851.4194, 53.15609
851.9016, 52.95606
852.3837, 52.98906
852.8658, 53.01229
853.3479, 52.71835
853.8300, 52.30227
854.3121, 52.12572
854.7943, 52.17431
855.2764, 52.26093
855.7585, 52.30618
856.2406, 52.27838
856.7227, 52.12031
857.2048, 51.84433
857.6870, 51.58894
858.1691, 51.33775
858.6512, 51.19000
859.1333, 51.23668
859.6154, 51.28790
860.0975, 51.16354
860.5797, 50.89460
861.0618, 50.66354
861.5439, 50.50761
862.0260, 50.32724
862.5081, 50.02422
862.9902, 49.78201
863.4724, 49.73584
863.9545, 49.81503
864.4366, 49.89696
864.9187, 49.95230
865.4008, 50.03251
865.8829, 50.22640
866.3651, 50.41979
866.8472, 50.54142
867.3293, 50.54696
867.8114, 50.26144
868.2935, 49.69070
868.7756, 49.16689
869.2578, 48.95123
869.7399, 48.92970
870.2220, 48.81682
870.7041, 48.60558
871.1862, 48.46955
871.6683, 48.45679
872.1505, 48.38070
872.6326, 48.07590
873.1147, 47.73684
873.5968, 47.74672
874.0789, 48.24055
874.5610, 48.34723
875.0432, 47.70214
875.5253, 47.16893
876.0074, 46.98432
876.4895, 46.95476
876.9716, 46.93511
877.4537, 46.91668
877.9359, 46.96333
878.4180, 47.21601
878.9001, 47.24170
879.3822, 46.43945
879.8643, 45.51235
880.3464, 45.34581
880.8286, 45.75739
881.3107, 46.09649
881.7928, 46.12228
882.2749, 46.01972
882.7570, 46.00768
883.2391, 46.01290
883.7213, 45.69450
884.2034, 45.08788
884.6855, 44.88982
885.1676, 45.32407
885.6497, 45.72899
886.1318, 45.56920
886.6140, 45.00424
887.0961, 44.56144
887.5782, 44.22352
888.0603, 44.06007
888.5424, 44.21808
889.0245, 44.34814
889.5067, 44.26749
889.9888, 44.11106
890.4709, 44.07490
890.9530, 44.16268
891.4351, 44.07614
891.9172, 43.56375
892.3994, 43.10193
892.8815, 42.92808
893.3636, 42.86174
893.8457, 42.71152
894.3278, 42.50346
894.8099, 42.40866
895.2921, 42.52166
895.7742, 42.57627
896.2563, 42.17737
896.7384, 41.62773
897.2205, 41.51117
897.7026, 41.74347
898.1848, 41.92433
898.6669, 41.92413
899.1490, 41.76756
899.6311, 41.42828
900.1132, 41.01796
900.5953, 41.02838
901.0775, 41.51048
901.5596, 41.83695
902.0417, 41.92858
902.5238, 41.81884
903.0059, 41.44775
903.4880, 40.96857
903.9702, 40.70733
904.4523, 40.73989
904.9344, 40.68617
905.4165, 40.40102
905.8986, 40.21733
906.3807, 40.37429
906.8629, 40.52962
907.3450, 40.29667
907.8271, 39.77877
908.3092, 39.47479
908.7913, 39.65292
909.2734, 39.76351
909.7556, 39.42078
910.2377, 39.02656
910.7198, 38.94967
911.2019, 39.10011
911.6840, 39.27625
912.1661, 39.40633
912.6483, 39.46644
913.1304, 39.40565
913.6125, 39.29042
914.0946, 39.24488
914.5767, 39.23652
915.0588, 39.11278
915.5410, 38.87035
916.0231, 38.77218
916.5052, 39.00393
916.9873, 39.36121
917.4694, 39.45336
917.9515, 39.27337
918.4337, 38.95611
918.9158, 38.41979
919.3979, 38.15929
919.8800, 38.46680
920.3621, 38.86641
920.8442, 38.83883
921.3264, 38.42859
921.8085, 38.11129
922.2906, 38.01214
922.7727, 37.79833
923.2548, 37.22877
923.7369, 36.79295
924.2191, 36.84734
924.7012, 37.12474
925.1833, 37.19845
925.6654, 37.01003
926.1475, 36.89133
926.6296, 37.02830
927.1118, 37.15570
927.5939, 37.08300
928.0760, 36.97036
928.5581, 37.04499
929.0402, 37.25201
929.5223, 37.32048
930.0045, 37.10679
930.4866, 36.89824
930.9687, 37.10582
931.4508, 37.39475
931.9329, 37.11123
932.4150, 36.44399
932.8972, 36.07397
933.3793, 36.17293
933.8614, 36.38256
934.3435, 36.39331
934.8256, 36.29687
935.3077, 36.31833
935.7899, 36.45076
936.2720, 36.63066
936.7541, 36.86585
937.2362, 36.91186
937.7183, 36.56726
938.2004, 36.24771
938.6826, 36.69261
939.1647, 37.93713
939.6468, 38.22294
940.1289, 37.00626
940.6110, 36.16843
941.0931, 36.30357
941.5753, 36.58785
942.0574, 36.31510
942.5395, 35.78088
943.0216, 35.85620
943.5037, 36.90213
943.9858, 37.45333
944.4680, 36.91085
944.9501, 36.44420
945.4322, 36.53588
945.9143, 36.88283
946.3964, 37.25335
946.8785, 37.57802
947.3607, 37.72588
947.8428, 37.59314
948.3249, 37.41139
948.8070, 37.22840
949.2891, 37.11899
949.7712, 37.21341
950.2534, 37.41938
950.7355, 37.54713
951.2176, 37.55187
951.6997, 37.53693
952.1818, 37.55387
952.6639, 37.62658
953.1461, 37.83783
953.6282, 38.11712
954.1103, 38.29249
954.5924, 38.35464
955.0745, 38.38363
955.5566, 38.41869
956.0388, 38.47085
956.5209, 38.58836
957.0030, 38.73475
957.4851, 38.71179
957.9672, 38.51995
958.4493, 38.27186
958.9315, 37.98833
959.4136, 37.66246
959.8957, 37.25568
960.3778, 36.86573
960.8599, 36.77264
961.3420, 37.05391
961.8242, 37.23199
962.3063, 37.26286
962.7884, 37.30012
963.2705, 37.42103
963.7526, 37.52903
964.2347, 37.49856
964.7169, 37.35841
965.1990, 37.32138
965.6811, 37.63740
966.1632, 37.66949
966.6453, 37.01240
967.1274, 36.53584
967.6096, 36.73770
968.0917, 37.24615
968.5738, 37.62658
969.0559, 37.84305
969.5380, 37.97245
970.0201, 37.96478
970.5023, 37.96692
970.9844, 37.99963
971.4665, 38.09070
971.9486, 38.26161
972.4307, 38.50935
972.9128, 38.87227
973.3950, 39.35375
973.8771, 39.71731
974.3592, 39.68472
974.8413, 39.61734
975.3234, 39.95362
975.8055, 40.39361
976.2877, 40.39632
976.7698, 40.04164
977.2519, 39.86186
977.7340, 40.10933
978.2161, 40.48259
978.6982, 40.71039
979.1804, 40.81171
979.6625, 40.80111
980.1446, 40.69309
980.6267, 40.50451
981.1088, 40.25387
981.5909, 40.02713
982.0731, 39.87733
982.5552, 39.82157
983.0373, 40.00544
983.5194, 40.34898
984.0015, 40.14505
984.4836, 39.37739
984.9658, 38.93700
985.4479, 39.12849
985.9300, 39.50979
986.4121, 39.70507
986.8942, 39.71827
987.3763, 39.52464
987.8585, 39.07826
988.3406, 38.71331
988.8227, 38.43136
989.3048, 38.28316
989.7869, 38.30444
990.2690, 38.45123
990.7512, 38.71019
991.2333, 39.06109
991.7154, 39.23926
992.1975, 39.17015
992.6796, 39.08222
993.1617, 38.95250
993.6439, 38.85986
994.1260, 38.90499
994.6081, 38.97117
995.0902, 38.87333
995.5723, 38.60515
996.0544, 38.37530
996.5366, 38.18598
997.0187, 38.04239
997.5008, 37.96321
997.9829, 37.91200
998.4650, 37.84362
998.9471, 37.79677
999.4293, 37.84275
999.9114, 37.99304
1000.393, 38.18178
1000.876, 38.50383
1001.358, 38.71609
1001.840, 38.64280
1002.322, 38.47663
1002.804, 38.36547
1003.286, 38.31034
1003.768, 38.25666
1004.250, 38.18608
1004.733, 38.19091
1005.215, 38.37163
1005.697, 38.59159
1006.179, 38.81374
1006.661, 38.97192
1007.143, 38.92147
1007.625, 38.72936
1008.107, 38.62935
1008.589, 38.72143
1009.072, 38.88805
1009.554, 39.09323
1010.036, 39.26635
1010.518, 39.26695
1011.000, 39.19023
1011.482, 39.29617
1011.964, 39.55482
1012.446, 39.58514
1012.929, 39.14842
1013.411, 38.70519
1013.893, 38.91403
1014.375, 39.46118
1014.857, 39.70076
1015.339, 39.70244
1015.821, 39.83055
1016.303, 40.13290
1016.785, 40.26148
1017.268, 39.96058
1017.750, 39.47686
1018.232, 39.11859
1018.714, 38.92472
1019.196, 39.20334
1019.678, 39.87762
1020.160, 40.21410
1020.642, 40.01181
1021.125, 39.56869
1021.607, 39.09661
1022.089, 38.63720
1022.571, 38.29939
1023.053, 38.07396
1023.535, 37.79898
1024.017, 37.46124
1024.499, 37.31699
1024.981, 37.48412
1025.464, 37.57984
1025.946, 37.23615
1026.428, 36.59276
1026.910, 36.07677
1027.392, 35.69574
1027.874, 35.35791
1028.356, 35.04094
1028.838, 34.87886
1029.321, 34.95749
1029.803, 35.09500
1030.285, 35.12377
1030.767, 35.05545
1031.249, 34.94521
1031.731, 34.79815
1032.213, 34.58459
1032.695, 34.29205
1033.177, 33.95226
1033.660, 33.53532
1034.142, 33.13650
1034.624, 32.80436
1035.106, 32.57676
1035.588, 32.75598
1036.070, 33.81393
1036.552, 34.10411
1037.034, 33.07459
1037.516, 32.17747
1037.999, 32.01120
1038.481, 32.16389
1038.963, 32.24635
1039.445, 32.26394
1039.927, 32.25736
1040.409, 32.21893
1040.891, 32.17059
1041.373, 32.14953
1041.855, 32.07163
1042.338, 31.78243
1042.820, 31.51235
1043.302, 31.58310
1043.784, 31.92887
1044.266, 32.03504
1044.748, 31.62164
1045.230, 31.41574
1045.712, 31.57549
1046.195, 31.80340
1046.677, 32.02743
1047.159, 32.22909
1047.641, 32.38240
1048.123, 32.49420
1048.605, 32.62032
1049.087, 32.83559
1049.569, 32.94053
1050.052, 32.83697
1050.534, 32.69895
1051.016, 32.54586
1051.498, 32.44115
1051.980, 32.45384
1052.462, 32.57923
1052.944, 32.76268
1053.426, 33.00632
1053.908, 33.28414
1054.391, 33.60902
1054.873, 33.94355
1055.355, 34.20557
1055.837, 34.51194
1056.319, 35.00761
1056.801, 35.68007
1057.283, 36.40284
1057.765, 37.10763
1058.248, 37.94510
1058.730, 38.85869
1059.212, 40.03613
1059.694, 41.46449
1060.176, 43.29591
1060.658, 45.83415
1061.140, 48.95868
1061.622, 52.05027
1062.104, 54.64736
1062.587, 58.01984
1063.069, 62.58373
1063.551, 68.07130
1064.033, 74.62015
1064.515, 81.80835
1064.997, 89.20332
1065.479, 96.79211
1065.961, 104.8202
1066.443, 113.3668
1066.926, 122.2377
1067.408, 132.1216
1067.890, 141.4148
1068.372, 149.4285
1068.854, 156.1811
1069.336, 161.7896
1069.818, 166.2178
1070.300, 169.4267
1070.782, 171.4775
1071.265, 172.0074
1071.747, 170.9955
1072.229, 168.2676
1072.711, 163.3353
1073.193, 156.9266
1073.675, 149.6821
1074.157, 141.7462
1074.639, 132.9919
1075.122, 123.2442
1075.604, 113.7048
1076.086, 104.8558
1076.568, 96.44217
1077.050, 88.04428
1077.532, 80.21745
1078.014, 73.49390
1078.496, 67.88361
1078.979, 63.36762
1079.461, 59.95724
1079.943, 57.09196
1080.425, 54.51984
1080.907, 52.46291
1081.389, 51.22924
1081.871, 50.42536
1082.353, 49.77391
1082.835, 49.22304
1083.318, 48.70664
1083.800, 48.21508
1084.282, 48.04606
1084.764, 48.50322
1085.246, 49.09140
1085.728, 49.63448
1086.210, 50.13778
1086.692, 50.59087
1087.175, 51.01741
1087.657, 51.43169
1088.139, 51.84409
1088.621, 52.33424
1089.103, 53.02321
1089.585, 53.67023
1090.067, 54.18512
1090.549, 54.60539
1091.031, 54.80945
1091.514, 55.01481
1091.996, 55.60366
1092.478, 56.56947
1092.960, 57.43176
1093.442, 57.95064
1093.924, 58.49102
1094.406, 59.32549
1094.888, 60.08526
1095.370, 60.47969
1095.853, 60.69128
1096.335, 60.97858
1096.817, 61.33357
1097.299, 61.52583
1097.781, 61.32692
1098.263, 61.39793
1098.745, 62.30094
1099.227, 63.11071
1099.709, 63.37632
1100.192, 63.27557
1100.674, 62.75531
1101.156, 62.06523
1101.638, 62.00019
1102.120, 62.95545
1102.602, 63.59179
1103.084, 63.63325
1103.566, 63.23409
1104.049, 62.07758
1104.531, 60.84140
1105.013, 60.04815
1105.495, 59.63343
1105.977, 59.41731
1106.459, 59.43322
1106.941, 59.25301
1107.423, 58.71632
1107.906, 58.09941
1108.388, 57.46642
1108.870, 56.78849
1109.352, 56.07104
1109.834, 55.28728
1110.316, 54.39388
1110.798, 53.38061
1111.280, 52.31355
1111.762, 51.14714
1112.245, 49.99942
1112.727, 48.68768
1113.209, 47.61715
1113.691, 47.15620
1114.173, 46.94181
1114.655, 46.55554
1115.137, 46.00102
1115.619, 45.31638
1116.102, 44.32550
1116.584, 43.52135
1117.066, 43.01977
1117.548, 42.54559
1118.030, 42.04834
1118.512, 41.48610
1118.994, 40.77181
1119.476, 39.96076
1119.958, 39.25770
1120.441, 38.58361
1120.923, 38.30614
1121.405, 38.70031
1121.887, 38.87223
1122.369, 38.47779
1122.851, 38.02434
1123.333, 37.91079
1123.815, 37.97176
1124.297, 37.84042
1124.780, 37.50526
1125.262, 37.13182
1125.744, 36.70579
1126.226, 36.27773
1126.708, 35.80238
1127.190, 35.53038
1127.672, 35.66134
1128.154, 35.90873
1128.636, 35.82200
1129.119, 35.93242
1129.601, 36.02163
1130.083, 35.86848
1130.565, 36.01391
1131.047, 35.82121
1131.529, 35.46535
1132.011, 34.98772
1132.493, 34.58180
1132.976, 34.45052
1133.458, 34.52775
1133.940, 34.66679
1134.422, 34.85401
1134.904, 34.85828
1135.386, 34.68575
1135.868, 34.71507
1136.350, 35.04280
1136.833, 35.30738
1137.315, 35.25230
1137.797, 34.99625
1138.279, 34.61677
1138.761, 34.22754
1139.243, 34.32847
1139.725, 34.79111
1140.207, 35.06429
1140.689, 35.07303
1141.172, 35.01530
1141.654, 34.98617
1142.136, 34.94926
1142.618, 34.86467
1143.100, 34.74935
1143.582, 34.63882
1144.064, 34.51626
1144.546, 34.34459
1145.029, 34.12715
1145.511, 33.83326
1145.993, 33.48549
1146.475, 33.32400
1146.957, 33.59103
1147.439, 33.90274
1147.921, 33.80688
1148.403, 33.60376
1148.885, 33.69106
1149.368, 33.92563
1149.850, 34.01933
1150.332, 33.95539
1150.814, 33.89902
1151.296, 33.92098
1151.778, 33.93785
1152.260, 33.89606
1152.742, 33.83685
1153.224, 33.68610
1153.707, 33.61560
1154.189, 33.95202
1154.671, 34.47466
1155.153, 34.64238
1155.635, 34.34380
1156.117, 34.03519
1156.599, 33.84492
1157.081, 33.68744
1157.563, 33.43757
1158.046, 33.32007
1158.528, 33.63171
1159.010, 34.06019
1159.492, 34.17285
1159.974, 33.98547
1160.456, 33.83796
1160.938, 33.67750
1161.420, 33.71329
1161.903, 34.19416
1162.385, 34.52543
1162.867, 34.44274
1163.349, 34.27335
1163.831, 34.26387
1164.313, 34.35695
1164.795, 34.40903
1165.277, 34.40803
1165.760, 34.48218
1166.242, 34.68649
1166.724, 34.77335
1167.206, 34.65479
1167.688, 34.57558
1168.170, 34.66072
1168.652, 34.85107
1169.134, 35.08324
1169.616, 35.34282
1170.099, 35.55066
1170.581, 35.70618
1171.063, 35.95112
1171.545, 36.29686
1172.027, 36.30183
1172.509, 35.82446
1172.991, 35.50036
1173.473, 35.84076
1173.956, 36.45193
1174.438, 36.68827
1174.920, 36.63074
1175.402, 36.45034
1175.884, 36.21550
1176.366, 36.17359
1176.848, 36.33449
1177.330, 36.55173
1177.813, 36.75932
1178.295, 36.93548
1178.777, 37.05177
1179.259, 37.14408
1179.741, 37.21276
1180.223, 37.31760
1180.705, 37.65332
1181.187, 38.05512
1181.669, 38.10439
1182.151, 37.80252
1182.634, 37.60077
1183.116, 37.71624
1183.598, 37.91306
1184.080, 38.21167
1184.562, 38.36153
1185.044, 38.05381
1185.526, 37.62912
1186.008, 37.32871
1186.490, 37.23709
1186.973, 37.53728
1187.455, 38.28868
1187.937, 38.84693
1188.419, 38.93768
1188.901, 39.04968
1189.383, 39.28264
1189.865, 39.55342
1190.347, 39.88939
1190.830, 40.18646
1191.312, 40.33299
1191.794, 40.34199
1192.276, 40.26452
1192.758, 40.02685
1193.240, 39.96595
1193.722, 40.15141
1194.204, 40.28987
1194.687, 40.26675
1195.169, 40.34953
1195.651, 40.73529
1196.133, 41.24376
1196.615, 41.56531
1197.097, 41.75859
1197.579, 42.28371
1198.061, 43.10796
1198.543, 43.49036
1199.026, 43.39027
1199.508, 43.23507
1199.990, 43.18002
1200.472, 43.33031
1200.954, 43.80285
1201.436, 44.35976
1201.918, 44.67251
1202.400, 44.79403
1202.883, 44.74178
1203.365, 44.61716
1203.847, 44.65878
1204.329, 44.85457
1204.811, 45.00619
1205.293, 45.04570
1205.775, 45.17554
1206.257, 45.71418
1206.740, 46.14181
1207.222, 45.85534
1207.704, 45.50817
1208.186, 45.71952
1208.668, 46.25455
1209.150, 46.78340
1209.632, 47.23837
1210.114, 47.57113
1210.596, 47.72901
1211.078, 47.90019
1211.561, 48.06226
1212.043, 48.32713
1212.525, 48.88498
1213.007, 49.38552
1213.489, 49.55962
1213.971, 49.57450
1214.453, 49.67668
1214.935, 49.86216
1215.417, 50.06121
1215.900, 50.26188
1216.382, 50.52619
1216.864, 50.87115
1217.346, 51.19865
1217.828, 51.46214
1218.310, 51.81658
1218.792, 52.42333
1219.274, 53.03647
1219.757, 53.10539
1220.239, 53.49013
1220.721, 53.73167
1221.203, 53.73893
1221.685, 54.08881
1222.167, 54.09163
1222.649, 54.16671
1223.131, 54.47575
1223.614, 55.03062
1224.096, 55.92681
1224.578, 56.80505
1225.060, 57.21395
1225.542, 57.43254
1226.024, 57.78883
1226.506, 58.18743
1226.988, 58.39594
1227.470, 58.48744
1227.953, 58.81343
1228.435, 59.48541
1228.917, 59.87935
1229.399, 59.39910
1229.881, 59.11433
1230.363, 59.56764
1230.845, 60.09536
1231.327, 60.26546
1231.810, 60.32808
1232.292, 60.57542
1232.774, 60.98513
1233.256, 61.44727
1233.738, 61.92627
1234.220, 62.65223
1234.702, 63.78526
1235.184, 64.61221
1235.667, 64.94440
1236.149, 65.16088
1236.631, 65.42612
1237.113, 65.80620
1237.595, 66.41752
1238.077, 67.14368
1238.559, 67.62397
1239.041, 67.90849
1239.523, 68.23756
1240.005, 68.62470
1240.488, 69.07449
1240.970, 69.57119
1241.452, 70.00797
1241.934, 70.33443
1242.416, 70.71123
1242.898, 71.41096
1243.380, 72.09010
1243.862, 72.24515
1244.344, 72.94535
1244.827, 72.96057
1245.309, 73.85324
1245.791, 74.41406
1246.273, 74.66673
1246.755, 75.21428
1247.237, 76.38989
1247.719, 77.23602
1248.201, 77.14091
1248.684, 77.25119
1249.166, 78.00646
1249.648, 78.94416
1250.130, 79.85603
1250.612, 80.75493
1251.094, 81.71931
1251.576, 82.68682
1252.058, 83.17033
1252.541, 83.05403
1253.023, 83.35654
1253.505, 84.15386
1253.987, 84.73427
1254.469, 84.92548
1254.951, 85.31863
1255.433, 86.26804
1255.915, 87.29975
1256.397, 87.73537
1256.880, 88.84835
1257.362, 89.10181
1257.844, 90.58838
1258.326, 91.50990
1258.808, 92.12160
1259.290, 93.38548
1259.772, 95.22497
1260.254, 96.47749
1260.737, 96.60958
1261.219, 96.61000
1261.701, 96.84266
1262.183, 97.28249
1262.665, 97.82215
1263.147, 98.66838
1263.629, 100.2608
1264.111, 102.0686
1264.594, 103.3727
1265.076, 104.2009
1265.558, 104.8378
1266.040, 105.1481
1266.522, 105.7888
1267.004, 106.8892
1267.486, 107.8687
1267.968, 108.6123
1268.450, 109.1932
1268.932, 109.5956
1269.415, 110.2342
1269.897, 111.6711
1270.379, 113.4914
1270.861, 114.6521
1271.343, 115.3885
1271.825, 116.4247
1272.307, 117.6785
1272.789, 118.7603
1273.271, 119.6696
1273.754, 120.7190
1274.236, 122.0260
1274.718, 123.2805
1275.200, 124.0810
1275.682, 125.0681
1276.164, 126.9504
1276.646, 128.7889
1277.128, 129.8074
1277.611, 130.4819
1278.093, 131.2597
1278.575, 132.2074
1279.057, 133.3991
1279.539, 134.8497
1280.021, 136.4601
1280.503, 138.3213
1280.985, 140.0268
1281.468, 141.6267
1281.950, 142.8023
1282.432, 143.3448
1282.914, 143.9221
1283.396, 145.1104
1283.878, 146.6305
1284.360, 147.9792
1284.842, 149.1813
1285.324, 150.3195
##END=



