##NAMES=Ashcroftine-(Y)
##RRUFFID=R110189
##IDEAL CHEMISTRY=K_5_Na_5_Y_12_Si_28_O_70_(OH)_2_(CO_3_)_8_&#183;8H_2_O
##LOCALITY=Poudrette quarry, Mont Saint-Hilaire, Quebec, Canada
##OWNER=RRUFF
##SOURCE=Donald Doell
##DESCRIPTION=Aggregate of pink fibrous crystals
##STATUS=The identification of this mineral has been confirmed by single-crystal X-ray diffraction.
##URL=rruff.info/R110189
239.9483, 369.1298
240.4305, 368.8377
240.9126, 368.8983
241.3947, 369.2023
241.8768, 370.1807
242.3589, 372.2996
242.8410, 375.0799
243.3232, 376.7748
243.8053, 376.7455
244.2874, 376.4912
244.7695, 376.7731
245.2516, 377.8647
245.7337, 378.8450
246.2159, 379.5721
246.6980, 380.1756
247.1801, 381.1066
247.6622, 382.6200
248.1443, 384.0741
248.6264, 385.1837
249.1086, 385.9956
249.5907, 386.3288
250.0728, 385.9382
250.5549, 385.1398
251.0370, 384.7886
251.5191, 385.0824
252.0013, 385.5251
252.4834, 385.9857
252.9655, 386.6957
253.4476, 386.7864
253.9297, 385.9755
254.4118, 384.6793
254.8940, 383.8236
255.3761, 383.6000
255.8582, 383.4742
256.3403, 383.2645
256.8224, 383.0190
257.3046, 382.4807
257.7867, 381.4855
258.2688, 380.2951
258.7509, 379.5040
259.2330, 379.4381
259.7151, 379.1048
260.1973, 377.9904
260.6794, 375.8355
261.1615, 374.2094
261.6436, 373.4302
262.1257, 372.9277
262.6078, 371.5956
263.0900, 368.9355
263.5721, 366.6976
264.0542, 365.6879
264.5363, 366.1739
265.0184, 366.0391
265.5005, 365.1039
265.9827, 363.7777
266.4648, 362.6118
266.9469, 361.6572
267.4290, 360.7464
267.9111, 359.8425
268.3932, 358.9530
268.8754, 357.9110
269.3575, 356.6046
269.8396, 355.3037
270.3217, 354.3844
270.8038, 353.9074
271.2859, 353.5718
271.7681, 353.4323
272.2502, 353.4625
272.7323, 352.7899
273.2144, 351.1710
273.6965, 349.3606
274.1786, 348.2112
274.6608, 347.8258
275.1429, 347.4927
275.6250, 347.0189
276.1071, 346.4455
276.5892, 346.0639
277.0714, 345.8954
277.5535, 345.8773
278.0356, 346.0648
278.5177, 346.5063
278.9998, 346.5988
279.4819, 346.0886
279.9641, 345.1581
280.4462, 344.6596
280.9283, 344.6616
281.4104, 344.7901
281.8925, 344.7645
282.3746, 344.5854
282.8568, 344.3265
283.3389, 343.9435
283.8210, 343.5456
284.3031, 343.4869
284.7852, 343.8116
285.2673, 344.1779
285.7495, 344.3881
286.2316, 344.4490
286.7137, 344.3098
287.1958, 343.8452
287.6779, 343.3629
288.1600, 343.6046
288.6422, 344.5797
289.1243, 345.6082
289.6064, 346.1778
290.0885, 346.3895
290.5706, 346.8078
291.0527, 347.5547
291.5349, 348.3227
292.0170, 348.5028
292.4991, 348.1439
292.9812, 347.8719
293.4633, 348.0933
293.9454, 348.6732
294.4276, 349.1830
294.9097, 349.5791
295.3918, 349.9790
295.8739, 350.6467
296.3560, 351.4938
296.8381, 352.1271
297.3203, 352.1220
297.8024, 351.8139
298.2845, 351.8901
298.7666, 352.3796
299.2487, 353.1170
299.7308, 354.0580
300.2130, 355.1388
300.6951, 356.1612
301.1772, 357.0828
301.6593, 357.8801
302.1414, 358.4842
302.6235, 358.8924
303.1057, 359.2695
303.5878, 359.5744
304.0699, 359.9579
304.5520, 360.7143
305.0341, 362.1803
305.5162, 363.8344
305.9984, 365.0767
306.4805, 365.9639
306.9626, 366.9632
307.4447, 368.4615
307.9268, 370.2332
308.4089, 371.9979
308.8911, 373.8065
309.3732, 375.4025
309.8553, 376.3567
310.3374, 376.8613
310.8195, 377.5883
311.3016, 378.9772
311.7838, 380.7133
312.2659, 382.5422
312.7480, 384.4070
313.2301, 386.3555
313.7122, 388.4082
314.1943, 390.5862
314.6765, 392.8907
315.1586, 395.5501
315.6407, 398.1717
316.1228, 400.4459
316.6049, 402.1938
317.0870, 404.1566
317.5692, 407.0150
318.0513, 410.1946
318.5334, 412.8741
319.0155, 414.0842
319.4976, 415.3463
319.9797, 417.2563
320.4619, 419.8725
320.9440, 422.9439
321.4261, 426.4863
321.9082, 430.3772
322.3903, 434.4879
322.8724, 439.3770
323.3546, 443.8818
323.8367, 447.2237
324.3188, 449.4772
324.8009, 452.8094
325.2830, 458.5804
325.7651, 464.8828
326.2473, 470.4716
326.7294, 474.7010
327.2115, 478.8482
327.6936, 482.7882
328.1757, 486.6413
328.6578, 491.1531
329.1400, 497.5237
329.6221, 503.5812
330.1042, 508.3915
330.5863, 510.7255
331.0684, 513.9007
331.5505, 518.5546
332.0327, 523.9055
332.5148, 528.1224
332.9969, 530.3395
333.4790, 532.5561
333.9611, 535.5629
334.4432, 539.6721
334.9254, 543.2190
335.4075, 545.8782
335.8896, 548.1793
336.3717, 550.8658
336.8538, 554.0641
337.3359, 557.2748
337.8180, 560.4079
338.3001, 563.4496
338.7823, 566.1620
339.2644, 568.4781
339.7465, 570.5694
340.2286, 572.5273
340.7107, 574.2903
341.1928, 576.3325
341.6750, 578.9304
342.1571, 581.8120
342.6392, 583.6009
343.1213, 584.1545
343.6034, 584.4943
344.0855, 585.5193
344.5677, 587.1773
345.0498, 588.2606
345.5319, 588.4996
346.0140, 588.2977
346.4961, 588.4828
346.9782, 589.0332
347.4604, 589.4065
347.9425, 589.1937
348.4246, 588.5364
348.9067, 587.9290
349.3888, 587.3911
349.8709, 586.9356
350.3531, 586.7465
350.8352, 586.7001
351.3173, 586.3411
351.7994, 585.1258
352.2815, 583.5805
352.7636, 582.7313
353.2458, 582.5714
353.7279, 582.2794
354.2100, 580.8160
354.6921, 578.7888
355.1742, 577.3054
355.6563, 577.1735
356.1385, 577.1943
356.6206, 576.1313
357.1027, 574.1497
357.5848, 572.1192
358.0669, 570.3800
358.5490, 568.9117
359.0312, 567.7150
359.5133, 566.8185
359.9954, 566.1127
360.4775, 565.8731
360.9596, 565.7831
361.4417, 565.1747
361.9239, 563.3494
362.4060, 561.2701
362.8881, 559.4079
363.3702, 557.8084
363.8523, 556.4675
364.3344, 555.5917
364.8166, 554.9030
365.2987, 554.0763
365.7808, 552.8535
366.2629, 551.6930
366.7450, 550.8036
367.2271, 550.1832
367.7093, 549.3529
368.1914, 547.9761
368.6735, 546.5403
369.1556, 545.3557
369.6377, 544.9839
370.1198, 544.1864
370.6020, 542.6583
371.0841, 540.6271
371.5662, 538.9078
372.0483, 537.5151
372.5304, 536.4328
373.0125, 535.8018
373.4947, 536.1229
373.9768, 535.3812
374.4589, 533.0974
374.9410, 530.1254
375.4231, 527.9096
375.9052, 526.7228
376.3874, 525.4993
376.8695, 523.8671
377.3516, 521.8333
377.8337, 520.2054
378.3158, 518.9741
378.7979, 518.1371
379.2801, 517.7126
379.7622, 517.7040
380.2443, 518.0803
380.7264, 518.9141
381.2085, 520.0692
381.6906, 521.4426
382.1728, 523.0432
382.6549, 524.0397
383.1370, 523.2902
383.6191, 521.3230
384.1012, 520.3358
384.5833, 520.6470
385.0655, 521.5640
385.5476, 522.0927
386.0297, 522.4106
386.5118, 523.1563
386.9939, 524.9335
387.4760, 527.2130
387.9582, 529.2795
388.4403, 531.1375
388.9224, 532.8715
389.4045, 534.0892
389.8866, 535.3324
390.3687, 537.4354
390.8509, 541.3829
391.3330, 545.4867
391.8151, 548.6296
392.2972, 550.9446
392.7793, 553.0231
393.2614, 554.5579
393.7436, 556.3343
394.2257, 559.1271
394.7078, 563.6414
395.1899, 567.7060
395.6720, 570.1311
396.1541, 571.6849
396.6363, 573.6055
397.1184, 576.4368
397.6005, 579.4464
398.0826, 582.4063
398.5647, 585.2921
399.0468, 588.2161
399.5290, 591.3339
400.0111, 594.4104
400.4932, 597.2595
400.9753, 599.6729
401.4574, 602.1503
401.9395, 604.7256
402.4217, 607.3944
402.9038, 610.0411
403.3859, 612.4576
403.8680, 615.1644
404.3501, 618.5735
404.8322, 623.0558
405.3144, 626.7654
405.7965, 629.3702
406.2786, 631.5456
406.7607, 634.4358
407.2428, 638.2009
407.7249, 641.8125
408.2071, 644.8651
408.6892, 647.4464
409.1713, 650.0296
409.6534, 652.6335
410.1355, 655.1708
410.6176, 657.4816
411.0998, 659.6257
411.5819, 661.9007
412.0640, 664.3552
412.5461, 666.9818
413.0282, 670.0778
413.5103, 673.5008
413.9925, 676.4928
414.4746, 678.3021
414.9567, 679.5303
415.4388, 681.2221
415.9209, 683.5541
416.4030, 685.6170
416.8852, 686.3420
417.3673, 686.3636
417.8494, 686.7190
418.3315, 688.1902
418.8136, 689.8260
419.2957, 691.1200
419.7779, 692.0802
420.2600, 692.8246
420.7421, 693.5211
421.2242, 693.9594
421.7063, 693.9109
422.1884, 692.9548
422.6706, 692.2589
423.1527, 692.3555
423.6348, 692.8741
424.1169, 693.1133
424.5990, 692.7469
425.0811, 692.2930
425.5633, 691.8040
426.0454, 691.2126
426.5275, 691.0420
427.0096, 692.0552
427.4917, 692.8580
427.9738, 692.1061
428.4560, 688.4472
428.9381, 686.1527
429.4202, 686.4114
429.9023, 688.2213
430.3844, 687.8995
430.8665, 684.7189
431.3487, 681.4749
431.8308, 679.6115
432.3129, 679.1987
432.7950, 678.9813
433.2771, 679.0859
433.7592, 679.0353
434.2414, 677.8884
434.7235, 675.7770
435.2056, 674.2822
435.6877, 674.1745
436.1698, 674.8192
436.6519, 674.8129
437.1341, 674.1953
437.6162, 673.6194
438.0983, 673.6505
438.5804, 674.0295
439.0625, 674.2421
439.5446, 674.1019
440.0268, 674.1398
440.5089, 674.7589
440.9910, 675.9100
441.4731, 677.4757
441.9552, 680.0438
442.4373, 682.5076
442.9195, 683.9541
443.4016, 684.3867
443.8837, 685.0876
444.3658, 686.8282
444.8479, 688.9043
445.3300, 690.7220
445.8122, 691.4235
446.2943, 692.8333
446.7764, 695.6478
447.2585, 699.4035
447.7406, 702.9210
448.2227, 706.2141
448.7049, 709.1689
449.1870, 711.7645
449.6691, 713.9565
450.1512, 715.9667
450.6333, 717.8226
451.1154, 719.4619
451.5976, 720.7264
452.0797, 721.3932
452.5618, 722.4887
453.0439, 724.3920
453.5260, 726.7221
454.0081, 728.3298
454.4903, 729.1340
454.9724, 729.8023
455.4545, 730.6194
455.9366, 731.5905
456.4187, 732.9860
456.9008, 734.9009
457.3830, 736.6603
457.8651, 737.3356
458.3472, 737.1494
458.8293, 736.7540
459.3114, 736.0555
459.7935, 735.5437
460.2757, 736.1260
460.7578, 737.5707
461.2399, 738.7491
461.7220, 738.4370
462.2041, 737.8151
462.6862, 738.2814
463.1684, 740.4188
463.6505, 741.9269
464.1326, 740.7823
464.6147, 738.5706
465.0968, 737.3235
465.5789, 738.8141
466.0611, 740.2194
466.5432, 740.4979
467.0253, 739.7714
467.5074, 739.5502
467.9895, 740.4952
468.4716, 741.6044
468.9538, 742.3896
469.4359, 742.6227
469.9180, 743.0228
470.4001, 743.7410
470.8822, 744.5101
471.3643, 744.8082
471.8465, 744.2693
472.3286, 744.3279
472.8107, 745.5682
473.2928, 747.7111
473.7749, 749.0930
474.2570, 749.5217
474.7392, 750.1386
475.2213, 752.1565
475.7034, 755.2926
476.1855, 757.4706
476.6676, 758.2974
477.1497, 758.7727
477.6319, 760.2976
478.1140, 762.6082
478.5961, 764.8151
479.0782, 766.4033
479.5603, 767.7728
480.0424, 769.2966
480.5246, 770.9902
481.0067, 772.9197
481.4888, 775.8191
481.9709, 778.5829
482.4530, 780.0822
482.9352, 779.5986
483.4173, 779.0845
483.8994, 779.3216
484.3815, 779.9996
484.8636, 780.6453
485.3457, 781.3780
485.8279, 781.8260
486.3100, 781.9063
486.7921, 781.6105
487.2742, 780.9889
487.7563, 780.1075
488.2384, 778.8509
488.7206, 777.1124
489.2027, 774.6845
489.6848, 772.3465
490.1669, 769.9572
490.6490, 767.8408
491.1311, 766.8109
491.6133, 767.1638
492.0954, 766.5350
492.5775, 763.6457
493.0596, 759.3560
493.5417, 756.8508
494.0238, 756.1395
494.5060, 756.2809
494.9881, 757.5567
495.4702, 759.0861
495.9523, 758.1403
496.4344, 753.8018
496.9165, 749.5562
497.3987, 749.8593
497.8808, 752.6534
498.3629, 754.0565
498.8450, 750.8839
499.3271, 747.1349
499.8092, 745.5801
500.2914, 745.8534
500.7735, 745.9536
501.2556, 745.0812
501.7377, 743.8235
502.2198, 742.4180
502.7019, 740.5905
503.1841, 739.4124
503.6662, 739.6334
504.1483, 740.3268
504.6304, 740.3759
505.1125, 739.0511
505.5946, 738.2778
506.0768, 738.4963
506.5589, 739.5035
507.0410, 740.3104
507.5231, 740.8891
508.0052, 741.3206
508.4873, 741.3983
508.9695, 741.1068
509.4516, 742.0201
509.9337, 744.3954
510.4158, 746.9023
510.8979, 747.7496
511.3800, 747.3145
511.8622, 747.2891
512.3443, 748.2506
512.8264, 749.6406
513.3085, 750.7056
513.7906, 751.5624
514.2728, 752.6245
514.7549, 754.9371
515.2370, 757.0386
515.7191, 757.3732
516.2012, 755.7433
516.6833, 754.2408
517.1655, 753.9325
517.6476, 754.1315
518.1297, 754.2502
518.6118, 753.9729
519.0939, 753.8605
519.5760, 754.0414
520.0582, 754.4471
520.5403, 754.9178
521.0224, 755.5831
521.5045, 756.1237
521.9866, 756.4943
522.4688, 756.6891
522.9509, 756.4474
523.4330, 755.6046
523.9151, 754.6815
524.3972, 754.1795
524.8793, 754.1109
525.3615, 753.5595
525.8436, 752.3300
526.3257, 750.8784
526.8078, 749.9080
527.2899, 749.3314
527.7720, 748.7617
528.2542, 747.9486
528.7363, 747.1416
529.2184, 746.9691
529.7005, 747.2439
530.1826, 746.9410
530.6647, 744.8679
531.1469, 742.2961
531.6290, 740.3876
532.1111, 739.4971
532.5932, 738.4034
533.0753, 736.0966
533.5574, 733.5842
534.0396, 731.9491
534.5217, 732.4872
535.0038, 732.6111
535.4859, 732.0397
535.9680, 730.8094
536.4501, 728.8867
536.9323, 725.6171
537.4144, 722.7747
537.8965, 721.0992
538.3786, 720.6159
538.8607, 720.2053
539.3428, 719.9138
539.8250, 719.5336
540.3071, 719.0023
540.7892, 718.2823
541.2713, 716.8028
541.7534, 714.2606
542.2355, 711.5436
542.7177, 709.7947
543.1998, 708.8826
543.6819, 708.4447
544.1640, 709.1086
544.6461, 709.6212
545.1282, 708.4745
545.6104, 705.9318
546.0925, 703.6084
546.5746, 702.8474
547.0567, 702.2495
547.5388, 700.6376
548.0209, 697.2828
548.5031, 694.8824
548.9852, 694.5027
549.4673, 695.0887
549.9494, 695.5740
550.4315, 696.5507
550.9136, 696.3932
551.3958, 694.3758
551.8779, 691.2383
552.3600, 689.2792
552.8421, 688.7345
553.3242, 688.4960
553.8063, 688.2736
554.2885, 688.0097
554.7706, 687.1359
555.2527, 685.6070
555.7348, 683.9688
556.2169, 682.7366
556.6990, 681.7733
557.1812, 680.5964
557.6633, 679.0231
558.1454, 677.6768
558.6275, 677.4990
559.1096, 677.9275
559.5917, 677.9626
560.0739, 676.6080
560.5560, 675.3314
561.0381, 674.9070
561.5202, 675.2021
562.0023, 675.5879
562.4844, 676.3653
562.9666, 676.7939
563.4487, 676.4033
563.9308, 674.9791
564.4129, 673.8144
564.8950, 672.9277
565.3771, 672.2688
565.8593, 671.7531
566.3414, 671.3140
566.8235, 671.3174
567.3056, 671.8842
567.7877, 672.7748
568.2698, 673.8060
568.7520, 674.9432
569.2341, 675.3641
569.7162, 674.3346
570.1983, 672.7031
570.6804, 672.0555
571.1625, 672.2941
571.6447, 672.6585
572.1268, 672.4868
572.6089, 672.3083
573.0910, 672.7750
573.5731, 674.0731
574.0552, 675.1639
574.5374, 675.0231
575.0195, 674.7338
575.5016, 675.3039
575.9837, 678.0181
576.4658, 680.2174
576.9479, 681.4187
577.4301, 682.0000
577.9122, 682.6644
578.3943, 683.2682
578.8764, 684.2277
579.3585, 685.7673
579.8406, 687.7695
580.3228, 689.4828
580.8049, 690.8990
581.2870, 692.0606
581.7691, 692.7360
582.2512, 693.1544
582.7333, 694.4352
583.2155, 696.7493
583.6975, 699.0233
584.1796, 699.8820
584.6617, 700.1553
585.1439, 701.2452
585.6260, 703.7716
586.1081, 706.7947
586.5902, 710.1006
587.0723, 713.4765
587.5544, 716.4440
588.0366, 718.7744
588.5187, 720.8309
589.0008, 722.4465
589.4829, 723.6808
589.9650, 725.6330
590.4471, 728.7083
590.9293, 731.9490
591.4114, 734.9224
591.8935, 737.6374
592.3756, 739.9532
592.8577, 741.7147
593.3398, 743.4972
593.8220, 746.2408
594.3041, 749.7496
594.7862, 752.3584
595.2683, 753.5781
595.7504, 754.3436
596.2325, 755.8878
596.7147, 757.9894
597.1968, 760.0275
597.6789, 761.7834
598.1610, 763.3696
598.6431, 764.7052
599.1252, 765.8889
599.6074, 767.3692
600.0895, 770.3410
600.5716, 772.7817
601.0537, 773.3082
601.5358, 771.1177
602.0179, 770.4918
602.5001, 772.5617
602.9822, 775.1281
603.4643, 776.5086
603.9464, 776.3402
604.4285, 776.4279
604.9106, 776.8442
605.3928, 777.6138
605.8749, 778.7880
606.3570, 780.3690
606.8391, 782.3936
607.3212, 785.2447
607.8033, 788.0576
608.2855, 789.0068
608.7676, 788.6342
609.2497, 788.9907
609.7318, 792.2690
610.2139, 795.9272
610.6960, 797.5146
611.1782, 797.0168
611.6603, 797.4106
612.1424, 800.9283
612.6245, 804.8104
613.1066, 807.2347
613.5887, 807.0863
614.0709, 807.8450
614.5530, 809.8488
615.0351, 812.4922
615.5172, 815.3383
615.9993, 818.6218
616.4814, 821.0461
616.9636, 822.0768
617.4457, 822.6859
617.9278, 824.8221
618.4099, 828.3859
618.8920, 832.3312
619.3741, 836.6967
619.8563, 840.8754
620.3384, 843.3787
620.8205, 844.5922
621.3026, 846.4815
621.7847, 850.3865
622.2668, 855.2618
622.7490, 860.5660
623.2311, 866.3580
623.7132, 871.4775
624.1953, 874.6954
624.6774, 877.7854
625.1595, 882.0118
625.6417, 887.9448
626.1238, 893.9060
626.6059, 899.4371
627.0880, 905.4526
627.5701, 913.4220
628.0522, 923.5761
628.5344, 933.4339
629.0165, 942.2071
629.4986, 950.8116
629.9807, 961.2766
630.4628, 973.3494
630.9449, 985.3557
631.4271, 996.0507
631.9092, 1006.634
632.3913, 1018.506
632.8734, 1031.560
633.3555, 1044.741
633.8376, 1057.505
634.3198, 1070.349
634.8019, 1083.927
635.2840, 1098.665
635.7661, 1112.327
636.2482, 1124.259
636.7303, 1135.548
637.2125, 1147.121
637.6946, 1159.841
638.1767, 1170.572
638.6588, 1179.315
639.1409, 1185.867
639.6230, 1189.767
640.1052, 1191.075
640.5873, 1190.061
641.0694, 1186.726
641.5515, 1181.246
642.0336, 1173.928
642.5157, 1164.766
642.9979, 1153.539
643.4800, 1139.537
643.9621, 1124.027
644.4442, 1107.417
644.9263, 1089.937
645.4084, 1073.077
645.8906, 1057.461
646.3727, 1042.608
646.8548, 1028.210
647.3369, 1014.202
647.8190, 1001.327
648.3011, 989.8315
648.7833, 979.2652
649.2654, 969.4552
649.7475, 960.2764
650.2296, 951.9689
650.7117, 944.5119
651.1938, 937.9232
651.6760, 932.4633
652.1581, 927.9667
652.6402, 924.1155
653.1223, 920.8759
653.6044, 918.1190
654.0865, 915.9435
654.5687, 914.0771
655.0508, 911.9924
655.5329, 908.5430
656.0150, 905.7841
656.4971, 904.9108
656.9792, 905.5349
657.4614, 905.5306
657.9435, 904.0876
658.4256, 903.0267
658.9077, 903.1041
659.3898, 904.2520
659.8719, 904.8195
660.3541, 904.7305
660.8362, 904.4108
661.3183, 903.9995
661.8004, 903.5879
662.2825, 903.6411
662.7646, 904.2182
663.2468, 904.6918
663.7289, 904.3674
664.2110, 903.6693
664.6931, 903.1462
665.1752, 902.9578
665.6573, 902.8743
666.1395, 902.6645
666.6216, 902.5634
667.1037, 902.8563
667.5858, 904.0300
668.0679, 905.0450
668.5500, 905.7606
669.0322, 906.2955
669.5143, 906.9930
669.9964, 907.9965
670.4785, 908.4602
670.9606, 908.0912
671.4427, 907.0183
671.9249, 905.1716
672.4070, 902.7071
672.8891, 900.9923
673.3712, 901.8349
673.8533, 903.2809
674.3354, 902.7686
674.8176, 900.4383
675.2997, 898.4164
675.7818, 898.1570
676.2639, 898.2731
676.7460, 897.9327
677.2281, 896.9662
677.7103, 895.8676
678.1924, 894.3767
678.6745, 893.0502
679.1566, 892.2953
679.6387, 892.1842
680.1208, 892.4206
680.6030, 893.1842
681.0851, 893.7664
681.5672, 893.0442
682.0493, 891.3080
682.5314, 889.7555
683.0135, 888.6357
683.4957, 887.9033
683.9778, 887.8594
684.4599, 888.1351
684.9420, 888.0442
685.4241, 887.4342
685.9063, 886.3055
686.3884, 884.0818
686.8705, 881.2618
687.3526, 879.5493
687.8347, 879.5465
688.3168, 879.9122
688.7990, 880.5764
689.2811, 881.3779
689.7632, 880.9988
690.2453, 879.3093
690.7274, 877.3987
691.2095, 875.4625
691.6917, 873.8336
692.1738, 874.0079
692.6559, 875.8986
693.1380, 877.3458
693.6201, 875.6393
694.1022, 873.3730
694.5844, 873.3886
695.0665, 876.4415
695.5486, 879.0118
696.0307, 879.5771
696.5128, 879.3614
696.9949, 879.3203
697.4771, 879.4991
697.9592, 879.8884
698.4413, 880.7597
698.9234, 881.5098
699.4055, 881.0709
699.8876, 879.4164
700.3698, 879.0123
700.8519, 880.7214
701.3340, 882.6998
701.8161, 881.7331
702.2982, 878.9771
702.7803, 877.3287
703.2625, 878.3515
703.7446, 880.2502
704.2267, 882.3214
704.7088, 884.3516
705.1909, 885.8538
705.6730, 886.4124
706.1552, 886.6799
706.6373, 886.6022
707.1194, 886.3144
707.6015, 886.5699
708.0836, 887.5765
708.5657, 888.4120
709.0479, 888.5614
709.5300, 888.2367
710.0121, 888.3890
710.4942, 888.9998
710.9763, 889.7523
711.4584, 890.8200
711.9406, 891.7042
712.4227, 891.5867
712.9048, 890.4687
713.3869, 889.4747
713.8690, 888.9919
714.3511, 888.9609
714.8333, 889.4338
715.3154, 890.6664
715.7975, 891.6699
716.2796, 892.4808
716.7617, 893.0633
717.2438, 893.3120
717.7260, 893.1833
718.2081, 893.2268
718.6902, 893.4020
719.1723, 894.0862
719.6544, 896.3740
720.1365, 899.4806
720.6187, 901.2295
721.1008, 900.7169
721.5829, 900.0816
722.0650, 901.1013
722.5471, 902.9080
723.0292, 904.3630
723.5114, 904.7831
723.9935, 905.2078
724.4756, 906.0618
724.9577, 906.9031
725.4398, 906.8934
725.9219, 905.6754
726.4041, 904.6396
726.8862, 904.0327
727.3683, 903.8301
727.8504, 904.1184
728.3325, 904.8355
728.8146, 905.5953
729.2968, 906.5990
729.7789, 907.2252
730.2610, 906.5361
730.7431, 904.8302
731.2252, 903.0965
731.7073, 901.3533
732.1895, 900.0679
732.6716, 899.8739
733.1537, 900.6285
733.6358, 900.2426
734.1179, 898.0750
734.6000, 895.8739
735.0822, 894.5300
735.5643, 893.8942
736.0464, 892.3150
736.5285, 889.7503
737.0106, 887.1965
737.4927, 885.5147
737.9749, 884.2632
738.4570, 882.6232
738.9391, 880.5818
739.4212, 878.6496
739.9033, 876.9564
740.3854, 875.6055
740.8676, 874.7969
741.3497, 874.7859
741.8318, 874.3047
742.3139, 872.9946
742.7960, 871.5082
743.2781, 870.1869
743.7603, 868.9861
744.2424, 868.4084
744.7245, 868.6145
745.2066, 868.8544
745.6887, 868.2404
746.1708, 867.0563
746.6530, 865.9625
747.1351, 865.0254
747.6172, 864.4753
748.0993, 865.0651
748.5814, 865.8854
749.0635, 865.8655
749.5457, 863.8099
750.0278, 862.4257
750.5099, 862.1910
750.9920, 862.6859
751.4741, 863.6385
751.9562, 865.2968
752.4384, 866.1797
752.9205, 865.9226
753.4026, 865.1020
753.8847, 864.5907
754.3668, 864.2980
754.8489, 863.8469
755.3311, 862.9515
755.8132, 862.1719
756.2953, 861.7892
756.7774, 861.9143
757.2595, 862.7495
757.7416, 865.6077
758.2238, 867.7419
758.7059, 868.2958
759.1880, 867.8233
759.6701, 867.3448
760.1522, 866.7637
760.6343, 866.5314
761.1165, 866.7719
761.5986, 867.4401
762.0807, 868.5238
762.5628, 869.9725
763.0449, 871.4664
763.5270, 872.8307
764.0092, 874.1884
764.4913, 875.8832
764.9734, 877.6995
765.4555, 879.0037
765.9376, 878.5353
766.4197, 878.5719
766.9019, 880.3129
767.3840, 883.2947
767.8661, 885.4227
768.3482, 886.5458
768.8303, 887.1783
769.3124, 887.1992
769.7946, 886.9777
770.2767, 888.0213
770.7588, 890.2098
771.2409, 892.4258
771.7230, 894.2942
772.2051, 895.6566
772.6873, 896.1797
773.1694, 895.9620
773.6515, 895.7061
774.1336, 895.6311
774.6157, 895.6149
775.0978, 895.7809
775.5800, 896.1063
776.0621, 895.6310
776.5442, 894.1475
777.0263, 892.4512
777.5084, 890.7357
777.9905, 889.1445
778.4727, 888.7130
778.9548, 889.3619
779.4369, 889.7657
779.9190, 888.9557
780.4011, 887.4395
780.8832, 885.3397
781.3654, 882.7148
781.8475, 880.8684
782.3296, 881.5162
782.8117, 881.8474
783.2938, 880.1335
783.7759, 876.0558
784.2581, 873.7781
784.7402, 873.6926
785.2223, 874.2729
785.7044, 874.8672
786.1865, 875.3025
786.6686, 874.5609
787.1508, 872.6412
787.6329, 870.9830
788.1150, 870.7136
788.5971, 871.1719
789.0792, 871.8607
789.5613, 872.7669
790.0435, 873.4474
790.5256, 873.6534
791.0077, 873.7001
791.4898, 873.7335
791.9719, 873.7436
792.4540, 873.6882
792.9362, 873.5505
793.4183, 873.3566
793.9004, 873.2739
794.3825, 873.1350
794.8646, 872.3751
795.3467, 870.9431
795.8289, 869.4720
796.3110, 868.1457
796.7931, 867.1946
797.2752, 867.0387
797.7573, 868.0622
798.2394, 868.3687
798.7216, 867.2234
799.2037, 865.9294
799.6858, 865.3013
800.1679, 865.4200
800.6500, 865.7687
801.1321, 866.4315
801.6143, 866.8573
802.0964, 866.3369
802.5785, 865.2842
803.0606, 864.4269
803.5427, 863.8419
804.0248, 863.5080
804.5070, 863.3428
804.9891, 863.4470
805.4712, 864.0159
805.9533, 865.4213
806.4354, 866.0610
806.9175, 865.5829
807.3997, 864.8257
807.8818, 864.4426
808.3639, 864.4194
808.8460, 864.0370
809.3281, 863.2449
809.8102, 862.4195
810.2924, 861.9758
810.7745, 861.6789
811.2566, 861.0464
811.7387, 859.9388
812.2208, 859.4244
812.7029, 860.9232
813.1851, 862.4465
813.6672, 862.4449
814.1493, 860.3741
814.6314, 859.1490
815.1135, 858.8829
815.5956, 859.2050
816.0778, 860.3167
816.5599, 861.8516
817.0420, 861.7631
817.5241, 859.8996
818.0062, 858.1173
818.4883, 858.1508
818.9705, 858.7664
819.4526, 858.6817
819.9347, 857.6004
820.4168, 856.8427
820.8989, 856.8760
821.3810, 857.1309
821.8632, 857.4541
822.3453, 857.9262
822.8274, 857.6203
823.3095, 856.4573
823.7916, 855.1285
824.2737, 854.1407
824.7559, 853.4236
825.2380, 852.8299
825.7201, 852.3644
826.2022, 852.0868
826.6843, 852.4017
827.1664, 852.6407
827.6486, 852.2308
828.1307, 850.9728
828.6128, 850.1713
829.0949, 849.9938
829.5770, 849.9654
830.0591, 849.8708
830.5413, 849.6977
831.0234, 849.2641
831.5055, 848.5700
831.9876, 848.0686
832.4697, 848.2909
832.9518, 848.7372
833.4340, 848.7369
833.9161, 848.3098
834.3982, 848.2573
834.8803, 850.1730
835.3624, 851.1736
835.8445, 849.5638
836.3267, 845.5244
836.8088, 843.1942
837.2909, 842.8222
837.7730, 843.1263
838.2551, 843.9166
838.7372, 844.7171
839.2194, 843.8523
839.7015, 841.6550
840.1836, 840.0392
840.6657, 840.2425
841.1478, 841.2469
841.6299, 842.9318
842.1121, 845.0828
842.5942, 846.1061
843.0763, 845.4808
843.5584, 844.5336
844.0405, 843.5905
844.5226, 842.6593
845.0048, 841.7236
845.4869, 840.7924
845.9690, 840.0919
846.4511, 839.8196
846.9332, 839.7719
847.4153, 839.8780
847.8975, 840.0478
848.3796, 840.0168
848.8617, 839.5403
849.3438, 839.0416
849.8259, 838.5590
850.3080, 838.1742
850.7902, 838.1146
851.2723, 838.4138
851.7544, 838.9423
852.2365, 839.8666
852.7186, 840.6885
853.2007, 839.8771
853.6829, 838.2096
854.1650, 837.8321
854.6471, 840.6822
855.1292, 843.5776
855.6113, 845.2288
856.0934, 845.8215
856.5756, 845.6677
857.0577, 844.2149
857.5398, 843.2679
858.0219, 843.1361
858.5040, 843.3772
858.9861, 843.0902
859.4683, 842.4645
859.9504, 842.7152
860.4325, 844.4091
860.9146, 846.0826
861.3967, 846.0355
861.8788, 845.3249
862.3610, 845.2991
862.8431, 846.9796
863.3252, 848.0741
863.8073, 848.2091
864.2894, 847.9129
864.7715, 847.5996
865.2537, 847.2636
865.7358, 847.3788
866.2179, 848.0830
866.7000, 848.6511
867.1821, 848.0283
867.6642, 846.9549
868.1464, 846.5557
868.6285, 847.0870
869.1106, 847.7111
869.5927, 847.8065
870.0748, 848.1517
870.5569, 849.4117
871.0391, 851.8467
871.5212, 853.0969
872.0033, 852.8771
872.4854, 852.4532
872.9675, 852.7800
873.4496, 853.5798
873.9318, 854.2569
874.4139, 854.7783
874.8960, 855.2004
875.3781, 855.5692
875.8602, 855.8336
876.3423, 855.9509
876.8245, 855.9254
877.3066, 855.8889
877.7887, 855.9412
878.2708, 855.8243
878.7529, 855.3004
879.2350, 854.6415
879.7172, 854.8884
880.1993, 855.9183
880.6814, 856.8267
881.1635, 857.0084
881.6456, 857.0006
882.1277, 856.8724
882.6099, 856.8472
883.0920, 857.6006
883.5741, 860.1094
884.0562, 862.1666
884.5383, 863.3823
885.0204, 863.9608
885.5026, 864.1861
885.9847, 864.0803
886.4668, 864.2255
886.9489, 864.7864
887.4310, 865.6360
887.9131, 866.7579
888.3953, 868.0358
888.8774, 869.3184
889.3595, 870.7792
889.8416, 871.9384
890.3237, 872.6948
890.8058, 873.1943
891.2880, 873.6607
891.7701, 874.1376
892.2522, 873.9348
892.7343, 872.9053
893.2164, 871.7626
893.6985, 870.9960
894.1807, 870.6962
894.6628, 871.2570
895.1449, 872.9354
895.6270, 873.9225
896.1091, 872.7742
896.5912, 871.4256
897.0734, 871.0342
897.5555, 871.6794
898.0376, 872.4534
898.5197, 873.3751
899.0018, 874.3588
899.4839, 875.3600
899.9661, 876.3824
900.4482, 877.5491
900.9303, 878.8024
901.4124, 879.6995
901.8945, 879.5938
902.3766, 879.5078
902.8588, 879.9822
903.3409, 880.8943
903.8230, 881.6869
904.3051, 882.2693
904.7872, 883.1072
905.2693, 884.5914
905.7515, 886.1159
906.2336, 886.0672
906.7157, 885.0068
907.1978, 884.5942
907.6799, 886.1053
908.1620, 887.6589
908.6442, 888.2773
909.1263, 889.4246
909.6084, 890.3183
910.0905, 890.6467
910.5726, 891.5327
911.0547, 891.4974
911.5369, 891.1522
912.0190, 891.2180
912.5011, 891.6379
912.9832, 892.3148
913.4653, 893.2864
913.9474, 894.1478
914.4296, 894.1511
914.9117, 894.2533
915.3938, 895.5182
915.8759, 898.5479
916.3580, 900.0834
916.8401, 899.5492
917.3223, 898.9051
917.8044, 899.8721
918.2865, 901.8295
918.7686, 902.1479
919.2507, 901.0201
919.7328, 900.3687
920.2150, 902.0888
920.6971, 904.0573
921.1792, 904.8813
921.6613, 904.6765
922.1434, 904.7162
922.6255, 904.9440
923.1077, 905.6971
923.5898, 907.2776
924.0719, 909.2238
924.5540, 910.4730
925.0361, 911.1446
925.5182, 911.7051
926.0004, 912.2093
926.4825, 912.8185
926.9646, 913.7197
927.4467, 914.7460
927.9288, 915.6472
928.4109, 916.4444
928.8931, 917.0533
929.3752, 917.5104
929.8573, 917.6844
930.3394, 916.9677
930.8215, 915.8265
931.3036, 916.2416
931.7858, 918.5711
932.2679, 920.6433
932.7500, 920.9159
933.2321, 920.3959
933.7142, 919.6310
934.1964, 918.5821
934.6785, 918.5117
935.1606, 919.7786
935.6427, 921.1791
936.1248, 922.0244
936.6069, 922.5375
937.0891, 923.3325
937.5712, 924.4207
938.0533, 925.8356
938.5354, 927.8607
939.0175, 929.9288
939.4996, 931.7816
939.9818, 933.3876
940.4639, 934.7064
940.9460, 935.7845
941.4281, 936.2891
941.9102, 935.9186
942.3923, 935.3712
942.8745, 935.5563
943.3566, 936.5042
943.8387, 938.5118
944.3208, 941.9853
944.8029, 945.2073
945.2850, 947.3059
945.7672, 948.6650
946.2493, 949.4545
946.7314, 949.2909
947.2135, 950.6106
947.6956, 953.9670
948.1777, 956.9500
948.6599, 956.8297
949.1420, 955.1178
949.6241, 955.7691
950.1062, 958.5815
950.5883, 961.1259
951.0704, 961.4014
951.5526, 961.7518
952.0347, 963.6946
952.5168, 966.7285
952.9989, 968.9484
953.4810, 970.2644
953.9631, 971.1414
954.4453, 971.6152
954.9274, 971.8942
955.4095, 972.2344
955.8916, 972.6617
956.3737, 973.2315
956.8558, 973.9551
957.3380, 974.8600
957.8201, 976.5765
958.3022, 978.0734
958.7843, 978.1308
959.2664, 976.2489
959.7485, 975.9838
960.2307, 977.5987
960.7128, 979.6381
961.1949, 980.9843
961.6770, 981.8633
962.1591, 982.2953
962.6412, 982.3586
963.1234, 983.1002
963.6055, 985.7400
964.0876, 988.1534
964.5697, 989.4708
965.0518, 989.9652
965.5339, 990.9420
966.0161, 992.3959
966.4982, 993.8725
966.9803, 995.0907
967.4624, 996.4095
967.9445, 998.5697
968.4266, 1001.009
968.9088, 1002.758
969.3909, 1003.162
969.8730, 1003.372
970.3551, 1003.112
970.8372, 1003.176
971.3193, 1004.602
971.8015, 1007.239
972.2836, 1009.745
972.7657, 1012.020
973.2478, 1014.060
973.7299, 1016.319
974.2120, 1018.031
974.6942, 1017.904
975.1763, 1015.880
975.6584, 1016.191
976.1405, 1020.410
976.6226, 1023.819
977.1047, 1024.241
977.5869, 1023.040
978.0690, 1024.120
978.5511, 1026.913
979.0332, 1029.313
979.5153, 1030.119
979.9974, 1030.858
980.4796, 1032.485
980.9617, 1034.469
981.4438, 1036.110
981.9259, 1037.516
982.4080, 1038.232
982.8901, 1038.180
983.3723, 1037.729
983.8544, 1036.845
984.3365, 1035.983
984.8186, 1035.988
985.3007, 1036.939
985.7828, 1038.488
986.2650, 1041.664
986.7471, 1044.140
987.2292, 1044.544
987.7113, 1043.399
988.1934, 1043.592
988.6755, 1045.168
989.1577, 1046.755
989.6398, 1047.722
990.1219, 1048.574
990.6040, 1049.951
991.0861, 1051.615
991.5682, 1053.183
992.0504, 1054.960
992.5325, 1055.852
993.0146, 1055.012
993.4967, 1054.323
993.9788, 1056.136
994.4609, 1060.016
994.9431, 1061.835
995.4252, 1061.399
995.9073, 1060.839
996.3894, 1061.761
996.8715, 1063.141
997.3536, 1064.249
997.8358, 1065.071
998.3179, 1066.080
998.8000, 1067.354
999.2821, 1068.661
999.7642, 1069.964
1000.246, 1071.251
1000.728, 1072.432
1001.211, 1073.554
1001.693, 1074.679
1002.175, 1075.815
1002.657, 1077.024
1003.139, 1078.254
1003.621, 1079.632
1004.103, 1081.302
1004.585, 1083.365
1005.068, 1085.089
1005.550, 1086.456
1006.032, 1087.687
1006.514, 1088.700
1006.996, 1089.825
1007.478, 1091.723
1007.960, 1094.212
1008.442, 1096.246
1008.924, 1096.683
1009.407, 1097.840
1009.889, 1100.669
1010.371, 1104.025
1010.853, 1105.268
1011.335, 1104.752
1011.817, 1104.643
1012.299, 1105.470
1012.781, 1106.766
1013.263, 1108.583
1013.746, 1110.504
1014.228, 1112.225
1014.710, 1113.854
1015.192, 1114.493
1015.674, 1113.683
1016.156, 1113.453
1016.638, 1115.621
1017.120, 1118.936
1017.603, 1120.473
1018.085, 1120.705
1018.567, 1121.279
1019.049, 1123.258
1019.531, 1125.220
1020.013, 1126.471
1020.495, 1127.591
1020.977, 1129.756
1021.459, 1133.003
1021.942, 1134.707
1022.424, 1134.381
1022.906, 1133.696
1023.388, 1134.564
1023.870, 1135.639
1024.352, 1135.432
1024.834, 1133.703
1025.316, 1132.323
1025.799, 1131.550
1026.281, 1130.930
1026.763, 1130.185
1027.245, 1129.593
1027.727, 1130.232
1028.209, 1131.656
1028.691, 1132.293
1029.173, 1130.836
1029.656, 1129.574
1030.138, 1129.919
1030.620, 1130.752
1031.102, 1130.738
1031.584, 1129.522
1032.066, 1129.558
1032.548, 1131.007
1033.030, 1132.493
1033.512, 1132.505
1033.995, 1132.137
1034.477, 1132.821
1034.959, 1134.418
1035.441, 1135.713
1035.923, 1136.353
1036.405, 1136.763
1036.887, 1136.963
1037.369, 1137.065
1037.851, 1137.466
1038.334, 1137.991
1038.816, 1137.810
1039.298, 1136.522
1039.780, 1135.561
1040.262, 1135.687
1040.744, 1136.635
1041.226, 1138.476
1041.708, 1141.322
1042.191, 1142.885
1042.673, 1143.070
1043.155, 1143.016
1043.637, 1143.276
1044.119, 1143.715
1044.601, 1143.875
1045.083, 1144.090
1045.565, 1145.107
1046.047, 1148.357
1046.530, 1150.614
1047.012, 1151.245
1047.494, 1151.329
1047.976, 1151.748
1048.458, 1152.625
1048.940, 1155.069
1049.422, 1159.088
1049.904, 1162.096
1050.386, 1161.051
1050.869, 1159.838
1051.351, 1161.048
1051.833, 1164.140
1052.315, 1167.016
1052.797, 1169.711
1053.279, 1171.741
1053.761, 1172.700
1054.243, 1173.772
1054.726, 1176.458
1055.208, 1180.218
1055.690, 1184.374
1056.172, 1188.969
1056.654, 1193.369
1057.136, 1197.246
1057.618, 1201.463
1058.100, 1206.547
1058.583, 1212.387
1059.065, 1218.343
1059.547, 1224.580
1060.029, 1231.906
1060.511, 1240.019
1060.993, 1249.907
1061.475, 1262.598
1061.957, 1277.051
1062.439, 1291.501
1062.922, 1305.603
1063.404, 1323.168
1063.886, 1344.589
1064.368, 1367.849
1064.850, 1391.561
1065.332, 1416.161
1065.814, 1442.258
1066.296, 1469.634
1066.778, 1498.054
1067.261, 1528.727
1067.743, 1557.734
1068.225, 1583.890
1068.707, 1608.137
1069.189, 1633.157
1069.671, 1657.031
1070.153, 1674.910
1070.635, 1684.941
1071.118, 1690.875
1071.600, 1694.146
1072.082, 1693.304
1072.564, 1687.521
1073.046, 1676.922
1073.528, 1661.393
1074.010, 1641.254
1074.492, 1618.865
1074.974, 1595.320
1075.457, 1570.467
1075.939, 1543.931
1076.421, 1516.193
1076.903, 1487.277
1077.385, 1455.900
1077.867, 1427.954
1078.349, 1403.875
1078.831, 1383.025
1079.313, 1365.460
1079.796, 1350.373
1080.278, 1336.419
1080.760, 1323.589
1081.242, 1313.199
1081.724, 1306.113
1082.206, 1301.232
1082.688, 1299.049
1083.170, 1298.294
1083.652, 1296.596
1084.135, 1294.319
1084.617, 1292.698
1085.099, 1291.881
1085.581, 1292.457
1086.063, 1297.126
1086.545, 1301.078
1087.027, 1300.459
1087.509, 1296.015
1087.992, 1295.827
1088.474, 1299.943
1088.956, 1304.527
1089.438, 1308.309
1089.920, 1311.432
1090.402, 1313.433
1090.884, 1315.179
1091.366, 1318.006
1091.849, 1323.002
1092.331, 1326.361
1092.813, 1327.556
1093.295, 1328.899
1093.777, 1332.324
1094.259, 1336.919
1094.741, 1341.527
1095.223, 1345.894
1095.705, 1349.260
1096.188, 1349.838
1096.670, 1351.421
1097.152, 1355.091
1097.634, 1359.304
1098.116, 1361.954
1098.598, 1363.405
1099.080, 1365.493
1099.562, 1368.381
1100.044, 1370.815
1100.527, 1371.952
1101.009, 1372.505
1101.491, 1372.647
1101.973, 1372.609
1102.455, 1373.230
1102.937, 1374.545
1103.419, 1375.006
1103.901, 1374.069
1104.384, 1372.907
1104.866, 1372.389
1105.348, 1372.410
1105.830, 1373.262
1106.312, 1375.224
1106.794, 1374.894
1107.276, 1371.531
1107.758, 1368.856
1108.240, 1369.176
1108.723, 1370.346
1109.205, 1368.381
1109.687, 1364.797
1110.169, 1362.547
1110.651, 1363.322
1111.133, 1363.929
1111.615, 1364.512
1112.097, 1364.184
1112.579, 1361.769
1113.062, 1357.926
1113.544, 1354.910
1114.026, 1352.624
1114.508, 1350.619
1114.990, 1348.512
1115.472, 1346.892
1115.954, 1346.347
1116.436, 1346.089
1116.919, 1344.796
1117.401, 1342.634
1117.883, 1342.351
1118.365, 1344.203
1118.847, 1345.405
1119.329, 1343.043
1119.811, 1340.241
1120.293, 1339.043
1120.776, 1339.135
1121.258, 1339.338
1121.740, 1339.648
1122.222, 1339.932
1122.704, 1340.103
1123.186, 1340.400
1123.668, 1341.672
1124.150, 1342.789
1124.632, 1342.080
1125.115, 1339.082
1125.597, 1338.153
1126.079, 1339.769
1126.561, 1342.182
1127.043, 1345.414
1127.525, 1348.050
1128.007, 1346.549
1128.489, 1343.219
1128.971, 1342.268
1129.454, 1346.276
1129.936, 1348.395
1130.418, 1347.156
1130.900, 1345.669
1131.382, 1345.697
1131.864, 1346.967
1132.346, 1349.084
1132.828, 1351.735
1133.311, 1353.894
1133.793, 1354.742
1134.275, 1355.470
1134.757, 1356.224
1135.239, 1357.063
1135.721, 1358.057
1136.203, 1359.160
1136.685, 1360.206
1137.167, 1361.197
1137.650, 1362.360
1138.132, 1364.222
1138.614, 1365.847
1139.096, 1366.466
1139.578, 1366.722
1140.060, 1367.690
1140.542, 1369.414
1141.024, 1370.996
1141.506, 1372.371
1141.989, 1373.484
1142.471, 1374.141
1142.953, 1374.699
1143.435, 1375.461
1143.917, 1376.400
1144.399, 1377.191
1144.881, 1377.726
1145.363, 1378.955
1145.846, 1381.219
1146.328, 1383.475
1146.810, 1384.494
1147.292, 1384.875
1147.774, 1385.000
1148.256, 1384.863
1148.738, 1385.908
1149.220, 1388.583
1149.703, 1390.805
1150.185, 1391.756
1150.667, 1392.066
1151.149, 1392.281
1151.631, 1392.662
1152.113, 1393.867
1152.595, 1396.717
1153.077, 1397.618
1153.559, 1395.312
1154.042, 1393.663
1154.524, 1395.016
1155.006, 1398.129
1155.488, 1400.780
1155.970, 1402.895
1156.452, 1404.153
1156.934, 1403.934
1157.416, 1403.802
1157.898, 1403.644
1158.381, 1404.137
1158.863, 1406.575
1159.345, 1410.067
1159.827, 1410.363
1160.309, 1408.253
1160.791, 1406.929
1161.273, 1407.966
1161.755, 1409.891
1162.238, 1412.959
1162.720, 1415.971
1163.202, 1417.200
1163.684, 1417.075
1164.166, 1419.055
1164.648, 1422.970
1165.130, 1425.779
1165.612, 1424.550
1166.094, 1423.210
1166.577, 1423.566
1167.059, 1424.740
1167.541, 1425.153
1168.023, 1424.971
1168.505, 1426.400
1168.987, 1429.696
1169.469, 1432.661
1169.951, 1433.436
1170.433, 1433.750
1170.916, 1434.650
1171.398, 1435.897
1171.880, 1436.776
1172.362, 1437.295
1172.844, 1438.146
1173.326, 1439.429
1173.808, 1441.125
1174.290, 1444.100
1174.773, 1446.696
1175.255, 1446.853
1175.737, 1445.274
1176.219, 1445.916
1176.701, 1448.906
1177.183, 1451.570
1177.665, 1453.205
1178.147, 1454.348
1178.630, 1455.423
1179.112, 1456.346
1179.594, 1456.838
1180.076, 1456.912
1180.558, 1457.996
1181.040, 1460.212
1181.522, 1462.467
1182.004, 1464.528
1182.486, 1466.070
1182.969, 1465.799
1183.451, 1465.312
1183.933, 1466.840
1184.415, 1470.998
1184.897, 1474.264
1185.379, 1476.639
1185.861, 1478.109
1186.343, 1478.242
1186.825, 1478.008
1187.308, 1478.392
1187.790, 1479.250
1188.272, 1480.466
1188.754, 1482.481
1189.236, 1483.193
1189.718, 1482.271
1190.200, 1481.775
1190.682, 1483.371
1191.165, 1485.890
1191.647, 1488.313
1192.129, 1490.410
1192.611, 1491.653
1193.093, 1491.226
1193.575, 1491.754
1194.057, 1493.547
1194.539, 1495.210
1195.021, 1494.869
1195.504, 1494.289
1195.986, 1496.413
1196.468, 1500.320
1196.950, 1503.172
1197.432, 1503.927
1197.914, 1504.888
1198.396, 1506.228
1198.878, 1507.600
1199.360, 1508.760
1199.843, 1509.689
1200.325, 1510.123
1200.807, 1510.265
1201.289, 1510.929
1201.771, 1512.467
1202.253, 1514.104
1202.735, 1515.786
1203.217, 1517.564
1203.700, 1519.309
1204.182, 1521.271
1204.664, 1524.200
1205.146, 1527.849
1205.628, 1530.496
1206.110, 1531.594
1206.592, 1532.223
1207.074, 1532.375
1207.557, 1532.504
1208.039, 1532.663
1208.521, 1533.420
1209.003, 1536.129
1209.485, 1540.710
1209.967, 1544.195
1210.449, 1545.985
1210.931, 1547.335
1211.413, 1548.473
1211.896, 1549.447
1212.378, 1550.309
1212.860, 1551.112
1213.342, 1551.894
1213.824, 1552.687
1214.306, 1553.623
1214.788, 1554.934
1215.270, 1555.797
1215.752, 1555.819
1216.235, 1555.801
1216.717, 1557.255
1217.199, 1559.258
1217.681, 1560.324
1218.163, 1560.180
1218.645, 1560.660
1219.127, 1562.175
1219.609, 1563.434
1220.092, 1563.892
1220.574, 1564.234
1221.056, 1565.391
1221.538, 1567.124
1222.020, 1569.305
1222.502, 1572.013
1222.984, 1573.518
1223.466, 1573.039
1223.948, 1573.835
1224.431, 1577.680
1224.913, 1582.118
1225.395, 1583.367
1225.877, 1583.012
1226.359, 1583.358
1226.841, 1585.071
1227.323, 1585.626
1227.805, 1584.552
1228.287, 1584.269
1228.770, 1586.146
1229.252, 1588.652
1229.734, 1589.568
1230.216, 1589.836
1230.698, 1590.779
1231.180, 1592.785
1231.662, 1594.552
1232.144, 1596.130
1232.627, 1597.270
1233.109, 1597.714
1233.591, 1597.959
1234.073, 1598.829
1234.555, 1599.791
1235.037, 1600.037
1235.519, 1599.372
1236.001, 1598.717
1236.484, 1597.913
1236.966, 1598.893
1237.448, 1603.817
1237.930, 1609.105
1238.412, 1611.068
1238.894, 1611.222
1239.376, 1611.213
1239.858, 1610.803
1240.340, 1613.265
1240.823, 1618.702
1241.305, 1622.987
1241.787, 1622.540
1242.269, 1621.895
1242.751, 1625.875
1243.233, 1631.269
1243.715, 1633.957
1244.197, 1633.602
1244.679, 1632.973
1245.162, 1632.097
1245.644, 1632.276
1246.126, 1635.046
1246.608, 1638.053
1247.090, 1640.250
1247.572, 1641.509
1248.054, 1641.567
1248.536, 1640.380
1249.019, 1640.265
1249.501, 1641.233
1249.983, 1643.209
1250.465, 1647.353
1250.947, 1650.988
1251.429, 1652.293
1251.911, 1652.723
1252.393, 1653.267
1252.875, 1653.955
1253.358, 1656.725
1253.840, 1661.115
1254.322, 1664.324
1254.804, 1663.815
1255.286, 1663.162
1255.768, 1663.075
1256.250, 1663.851
1256.732, 1666.354
1257.214, 1670.112
1257.697, 1671.827
1258.179, 1671.979
1258.661, 1672.699
1259.143, 1675.728
1259.625, 1678.424
1260.107, 1680.324
1260.589, 1681.810
1261.071, 1682.872
1261.554, 1683.844
1262.036, 1686.057
1262.518, 1689.126
1263.000, 1691.794
1263.482, 1693.380
1263.964, 1694.740
1264.446, 1695.906
1264.928, 1696.909
1265.411, 1697.613
1265.893, 1698.236
1266.375, 1699.309
1266.857, 1700.679
1267.339, 1701.892
1267.821, 1701.652
1268.303, 1704.130
1268.785, 1710.423
1269.267, 1715.814
1269.750, 1715.325
1270.232, 1712.726
1270.714, 1712.434
1271.196, 1713.983
1271.678, 1716.334
1272.160, 1719.812
1272.642, 1722.347
1273.124, 1723.770
1273.606, 1724.944
1274.089, 1726.316
1274.571, 1727.825
1275.053, 1729.379
1275.535, 1731.026
1276.017, 1732.926
1276.499, 1735.130
1276.981, 1737.155
1277.463, 1738.993
1277.946, 1740.665
1278.428, 1742.735
1278.910, 1744.059
1279.392, 1742.863
1279.874, 1741.274
1280.356, 1742.014
1280.838, 1745.017
1281.320, 1746.988
1281.802, 1747.977
1282.285, 1748.872
1282.767, 1749.644
1283.249, 1751.109
1283.731, 1754.191
1284.213, 1757.354
1284.695, 1759.121
1285.177, 1759.773
1285.659, 1760.456
1286.141, 1761.272
1286.624, 1762.590
1287.106, 1765.602
1287.588, 1767.372
1288.070, 1766.783
1288.552, 1766.496
1289.034, 1769.505
1289.516, 1774.037
1289.998, 1775.608
1290.481, 1775.385
1290.963, 1776.427
1291.445, 1781.213
1291.927, 1784.295
1292.409, 1785.327
1292.891, 1785.946
1293.373, 1787.199
1293.855, 1788.822
1294.338, 1790.903
1294.820, 1792.969
1295.302, 1793.860
1295.784, 1792.809
1296.266, 1793.691
1296.748, 1796.581
1297.230, 1800.003
1297.712, 1803.613
1298.194, 1806.728
1298.677, 1808.666
1299.159, 1809.728
1299.641, 1810.169
1300.123, 1809.944
1300.605, 1809.724
1301.087, 1809.550
1301.569, 1809.957
1302.051, 1812.045
1302.533, 1812.982
1303.016, 1811.710
##END=



