##NAMES=Asisite
##RRUFFID=R070635
##IDEAL CHEMISTRY=Pb^2+^_7_SiO_8_Cl_2_
##LOCALITY=Kombat mine, Kombat, Grootfontein District, Otjozondjupa Region, Namibia
##OWNER=RRUFF
##SOURCE=Ausrox/Rob Sielicki
##DESCRIPTION=Reddish-orange crystals with pronounced cleavage
##STATUS=The identification of this mineral is confirmed by single-crystal X-ray diffraction and chemical analysis.
##URL=rruff.info/R070635
##MEASURED CHEMISTRY=Pb_7.00_(Si_0.55_V^5+^_0.26_As^5+^_0.10_[box]_0.09_)_Î£=1_O_8_Cl_2.00_
121.5737, 12682.49
122.0558, 13042.00
122.5379, 13415.54
123.0200, 13787.34
123.5021, 14128.95
123.9842, 14396.50
124.4664, 14638.21
124.9485, 14913.64
125.4306, 15236.74
125.9127, 15573.53
126.3948, 15886.47
126.8769, 16182.04
127.3591, 16492.79
127.8412, 16840.33
128.3233, 17217.41
128.8054, 17606.81
129.2875, 18016.94
129.7696, 18406.64
130.2518, 18663.86
130.7339, 18799.62
131.2160, 18973.15
131.6981, 19354.71
132.1802, 19907.79
132.6623, 20365.55
133.1445, 20591.77
133.6266, 20625.04
134.1087, 20715.77
134.5908, 20877.66
135.0729, 21061.43
135.5550, 21194.50
136.0372, 21274.76
136.5193, 21313.88
137.0014, 21317.89
137.4835, 21287.15
137.9656, 21220.01
138.4477, 21119.21
138.9299, 20982.02
139.4120, 20788.74
139.8941, 20526.73
140.3762, 20235.89
140.8583, 19941.22
141.3404, 19652.26
141.8226, 19340.35
142.3047, 18992.45
142.7868, 18610.50
143.2689, 18241.53
143.7510, 17886.03
144.2331, 17546.10
144.7152, 17224.44
145.1974, 16911.31
145.6795, 16626.41
146.1616, 16376.55
146.6437, 16182.23
147.1258, 15975.64
147.6079, 15752.52
148.0901, 15515.97
148.5722, 15284.34
149.0543, 15039.02
149.5364, 14811.87
150.0185, 14618.53
150.5006, 14482.87
150.9828, 14352.05
151.4649, 14226.75
151.9470, 14106.36
152.4291, 13985.56
152.9112, 13852.84
153.3933, 13725.75
153.8755, 13615.16
154.3576, 13545.00
154.8397, 13469.73
155.3218, 13377.14
155.8039, 13262.58
156.2860, 13151.87
156.7682, 13050.35
157.2503, 12955.85
157.7324, 12864.96
158.2145, 12725.85
158.6966, 12699.90
159.1787, 12655.04
159.6609, 12592.25
160.1430, 12457.96
160.6251, 12416.03
161.1072, 12337.09
161.5893, 12256.63
162.0714, 12227.69
162.5536, 12103.79
163.0357, 12074.04
163.5178, 12006.71
163.9999, 11956.58
164.4820, 11869.21
164.9641, 11812.92
165.4463, 11759.94
165.9284, 11698.16
166.4105, 11631.76
166.8926, 11565.25
167.3747, 11502.97
167.8568, 11438.85
168.3390, 11362.66
168.8211, 11273.97
169.3032, 11195.53
169.7853, 11149.53
170.2674, 11123.60
170.7495, 11096.30
171.2317, 11048.34
171.7138, 10998.38
172.1959, 10970.32
172.6780, 10973.83
173.1601, 10975.34
173.6422, 10946.15
174.1244, 10891.04
174.6065, 10826.07
175.0886, 10742.99
175.5707, 10659.79
176.0528, 10607.31
176.5349, 10608.70
177.0171, 10619.20
177.4992, 10580.89
177.9813, 10498.63
178.4634, 10412.06
178.9455, 10351.98
179.4276, 10310.44
179.9098, 10268.12
180.3919, 10218.53
180.8740, 10164.82
181.3561, 10105.56
181.8382, 10040.45
182.3203, 9983.933
182.8025, 9965.774
183.2846, 9974.477
183.7667, 9962.138
184.2488, 9890.243
184.7309, 9781.437
185.2130, 9707.534
185.6951, 9674.878
186.1773, 9653.836
186.6594, 9599.878
187.1415, 9516.500
187.6236, 9438.109
188.1057, 9385.103
188.5878, 9353.402
189.0700, 9321.617
189.5521, 9288.941
190.0342, 9254.183
190.5163, 9213.587
190.9984, 9167.047
191.4805, 9119.386
191.9627, 9074.554
192.4448, 9032.055
192.9269, 8986.481
193.4090, 8930.582
193.8911, 8874.331
194.3732, 8858.703
194.8554, 8891.528
195.3375, 8920.379
195.8196, 8885.009
196.3017, 8783.878
196.7838, 8702.510
197.2659, 8674.192
197.7481, 8687.472
198.2302, 8657.772
198.7123, 8574.465
199.1944, 8479.586
199.6765, 8425.506
200.1586, 8416.197
200.6408, 8413.953
201.1229, 8407.567
201.6050, 8397.050
202.0871, 8384.190
202.5692, 8368.641
203.0513, 8350.930
203.5335, 8331.858
204.0156, 8311.224
204.4977, 8289.115
204.9798, 8264.805
205.4619, 8237.923
205.9440, 8212.788
206.4262, 8191.983
206.9083, 8170.877
207.3904, 8135.136
207.8725, 8078.903
208.3546, 8023.608
208.8367, 7979.550
209.3189, 7945.226
209.8010, 7929.946
210.2831, 7942.209
210.7652, 7973.082
211.2473, 7981.488
211.7294, 7961.152
212.2116, 7931.173
212.6937, 7905.069
213.1758, 7882.714
213.6579, 7865.248
214.1400, 7854.885
214.6221, 7851.029
215.1043, 7842.376
215.5864, 7827.858
216.0685, 7810.578
216.5506, 7791.237
217.0327, 7763.492
217.5148, 7750.555
217.9970, 7764.730
218.4791, 7808.863
218.9612, 7825.570
219.4433, 7802.009
219.9254, 7763.404
220.4075, 7743.626
220.8897, 7751.843
221.3718, 7759.424
221.8539, 7756.242
222.3360, 7738.361
222.8181, 7728.211
223.3002, 7730.026
223.7824, 7736.812
224.2645, 7735.482
224.7466, 7721.615
225.2287, 7707.358
225.7108, 7696.344
226.1929, 7686.636
226.6750, 7686.868
227.1572, 7702.597
227.6393, 7726.795
228.1214, 7740.527
228.6035, 7737.000
229.0856, 7733.087
229.5677, 7740.466
230.0499, 7776.393
230.5320, 7781.455
231.0141, 7734.998
231.4962, 7654.887
231.9783, 7617.569
232.4604, 7650.409
232.9426, 7691.030
233.4247, 7698.907
233.9068, 7646.236
234.3889, 7618.956
234.8710, 7635.552
235.3531, 7689.629
235.8353, 7720.130
236.3174, 7715.630
236.7995, 7700.792
237.2816, 7694.744
237.7637, 7705.739
238.2458, 7709.531
238.7280, 7699.523
239.2101, 7676.065
239.6922, 7661.600
240.1743, 7660.271
240.6564, 7663.753
241.1385, 7664.887
241.6207, 7664.689
242.1028, 7659.616
242.5849, 7644.748
243.0670, 7617.908
243.5491, 7609.872
244.0313, 7632.508
244.5134, 7664.021
244.9955, 7677.723
245.4776, 7660.348
245.9597, 7648.332
246.4418, 7652.029
246.9240, 7674.810
247.4061, 7695.345
247.8882, 7719.116
248.3703, 7736.664
248.8524, 7729.679
249.3345, 7674.334
249.8167, 7635.958
250.2988, 7640.053
250.7809, 7703.366
251.2630, 7740.835
251.7451, 7738.362
252.2272, 7717.915
252.7094, 7721.111
253.1915, 7764.487
253.6736, 7803.046
254.1557, 7817.174
254.6378, 7793.741
255.1199, 7788.952
255.6021, 7813.395
256.0842, 7851.398
256.5663, 7867.667
257.0484, 7853.668
257.5305, 7832.812
258.0126, 7812.502
258.4948, 7786.605
258.9769, 7780.177
259.4590, 7802.610
259.9411, 7841.511
260.4232, 7862.952
260.9053, 7861.517
261.3875, 7852.798
261.8696, 7842.928
262.3517, 7829.666
262.8338, 7823.129
263.3159, 7824.548
263.7980, 7832.850
264.2802, 7843.885
264.7623, 7856.220
265.2444, 7874.041
265.7265, 7904.003
266.2086, 7952.868
266.6907, 7985.977
267.1729, 7997.325
267.6550, 7990.809
268.1371, 7977.234
268.6192, 7948.566
269.1013, 7930.680
269.5834, 7949.086
270.0656, 8015.559
270.5477, 8062.000
271.0298, 8077.743
271.5119, 8067.568
271.9940, 8046.124
272.4761, 8005.716
272.9583, 7974.438
273.4404, 7979.396
273.9225, 8029.206
274.4046, 8068.519
274.8867, 8088.888
275.3688, 8092.886
275.8510, 8089.816
276.3331, 8077.597
276.8152, 8064.849
277.2973, 8056.561
277.7794, 8052.043
278.2615, 8059.531
278.7437, 8084.934
279.2258, 8123.015
279.7079, 8150.544
280.1900, 8166.963
280.6721, 8175.263
281.1542, 8175.204
281.6364, 8166.344
282.1185, 8160.606
282.6006, 8159.991
283.0827, 8164.623
283.5648, 8175.381
284.0469, 8192.677
284.5291, 8214.265
285.0112, 8239.146
285.4933, 8267.203
285.9754, 8294.887
286.4575, 8319.143
286.9396, 8342.475
287.4217, 8377.958
287.9038, 8427.797
288.3860, 8472.472
288.8681, 8487.062
289.3502, 8474.768
289.8323, 8466.866
290.3144, 8471.671
290.7965, 8487.124
291.2787, 8510.336
291.7608, 8542.027
292.2429, 8574.214
292.7250, 8605.789
293.2071, 8634.079
293.6892, 8643.967
294.1714, 8617.596
294.6535, 8575.581
295.1356, 8565.371
295.6177, 8588.189
296.0998, 8620.755
296.5819, 8639.623
297.0641, 8650.226
297.5462, 8670.340
298.0283, 8713.245
298.5104, 8765.349
298.9925, 8806.087
299.4746, 8835.555
299.9568, 8855.227
300.4389, 8861.184
300.9210, 8858.164
301.4031, 8857.394
301.8852, 8861.887
302.3673, 8870.942
302.8495, 8880.244
303.3316, 8889.819
303.8137, 8911.679
304.2958, 8966.711
304.7779, 9039.749
305.2600, 9102.865
305.7422, 9145.498
306.2243, 9173.651
306.7064, 9185.877
307.1885, 9183.356
307.6706, 9187.516
308.1527, 9227.529
308.6349, 9280.753
309.1170, 9315.049
309.5991, 9301.813
310.0812, 9278.275
310.5633, 9267.801
311.0454, 9270.428
311.5276, 9286.114
312.0097, 9329.645
312.4918, 9381.133
312.9739, 9418.881
313.4560, 9421.424
313.9381, 9419.321
314.4203, 9426.116
314.9024, 9441.996
315.3845, 9467.373
315.8666, 9509.822
316.3487, 9558.632
316.8308, 9603.664
317.3130, 9644.186
317.7951, 9678.242
318.2772, 9693.949
318.7593, 9694.627
319.2414, 9716.621
319.7235, 9801.377
320.2057, 9897.309
320.6878, 9963.571
321.1699, 9979.175
321.6520, 9976.304
322.1341, 9942.772
322.6162, 9885.047
323.0984, 9867.530
323.5805, 9931.836
324.0626, 10023.46
324.5447, 10105.65
325.0268, 10176.69
325.5089, 10235.04
325.9911, 10272.49
326.4732, 10291.50
326.9553, 10321.88
327.4374, 10372.83
327.9195, 10430.17
328.4016, 10486.12
328.8838, 10540.78
329.3659, 10593.07
329.8480, 10640.41
330.3301, 10683.88
330.8122, 10732.29
331.2943, 10786.91
331.7765, 10845.24
332.2586, 10907.98
332.7407, 10990.93
333.2228, 11048.63
333.7049, 11067.21
334.1870, 11058.47
334.6692, 11073.10
335.1513, 11124.89
335.6334, 11178.68
336.1155, 11214.75
336.5976, 11229.46
337.0797, 11238.38
337.5619, 11239.08
338.0440, 11235.88
338.5261, 11241.53
339.0082, 11257.34
339.4903, 11277.35
339.9724, 11305.89
340.4546, 11347.88
340.9367, 11354.78
341.4188, 11319.25
341.9009, 11253.37
342.3830, 11176.82
342.8651, 11088.65
343.3473, 11003.39
343.8294, 10932.59
344.3115, 10874.57
344.7936, 10812.71
345.2757, 10745.34
345.7578, 10675.61
346.2400, 10607.10
346.7221, 10540.51
347.2042, 10472.12
347.6863, 10399.74
348.1684, 10323.57
348.6505, 10243.37
349.1327, 10157.72
349.6148, 10069.25
350.0969, 9974.686
350.5790, 9877.429
351.0611, 9791.535
351.5432, 9734.604
352.0254, 9689.534
352.5075, 9628.622
352.9896, 9550.350
353.4717, 9462.821
353.9538, 9367.150
354.4359, 9268.207
354.9181, 9178.355
355.4002, 9104.335
355.8823, 9041.107
356.3644, 8988.380
356.8465, 8946.315
357.3286, 8901.434
357.8108, 8840.544
358.2929, 8772.819
358.7750, 8708.946
359.2571, 8652.080
359.7392, 8600.935
360.2213, 8556.389
360.7035, 8518.029
361.1856, 8480.684
361.6677, 8436.083
362.1498, 8394.262
362.6319, 8363.365
363.1140, 8359.510
363.5962, 8352.517
364.0783, 8332.111
364.5604, 8299.826
365.0425, 8267.135
365.5246, 8235.813
366.0067, 8205.354
366.4889, 8175.509
366.9710, 8147.816
367.4531, 8118.727
367.9352, 8077.737
368.4173, 8031.904
368.8994, 8013.009
369.3815, 8055.652
369.8636, 8095.667
370.3458, 8104.356
370.8279, 8059.050
371.3100, 8020.792
371.7921, 7987.007
372.2742, 7960.507
372.7563, 7950.340
373.2385, 7967.497
373.7206, 7982.892
374.2027, 7985.684
374.6848, 7975.322
375.1669, 7951.947
375.6490, 7906.579
376.1312, 7857.518
376.6133, 7839.231
377.0954, 7860.653
377.5775, 7876.523
378.0596, 7864.058
378.5417, 7824.874
379.0239, 7810.252
379.5060, 7827.190
379.9881, 7848.325
380.4702, 7830.769
380.9523, 7776.257
381.4344, 7739.201
381.9166, 7746.650
382.3987, 7782.912
382.8808, 7801.925
383.3629, 7803.024
383.8450, 7793.256
384.3271, 7774.841
384.8093, 7750.064
385.2914, 7726.392
385.7735, 7705.068
386.2556, 7686.938
386.7377, 7675.632
387.2198, 7670.353
387.7020, 7664.671
388.1841, 7647.743
388.6662, 7629.837
389.1483, 7580.841
389.6304, 7618.794
390.1125, 7637.828
390.5947, 7638.959
391.0768, 7568.571
391.5589, 7590.536
392.0410, 7575.491
392.5231, 7558.927
393.0052, 7593.891
393.4874, 7533.904
393.9695, 7568.050
394.4516, 7564.621
394.9337, 7578.390
395.4158, 7554.918
395.8979, 7542.949
396.3801, 7567.722
396.8622, 7576.468
397.3443, 7576.180
397.8264, 7572.790
398.3085, 7567.741
398.7906, 7559.582
399.2728, 7546.523
399.7549, 7524.636
400.2370, 7502.150
400.7191, 7477.731
401.2012, 7450.479
401.6833, 7437.125
402.1655, 7446.702
402.6476, 7461.683
403.1297, 7466.289
403.6118, 7454.802
404.0939, 7447.797
404.5760, 7451.385
405.0582, 7462.213
405.5403, 7459.777
406.0224, 7439.650
406.5045, 7419.096
406.9866, 7413.137
407.4688, 7422.996
407.9509, 7422.888
408.4330, 7408.222
408.9151, 7384.705
409.3972, 7361.113
409.8793, 7337.522
410.3615, 7320.676
410.8436, 7314.211
411.3257, 7317.463
411.8078, 7331.197
412.2899, 7357.888
412.7720, 7384.428
413.2542, 7402.967
413.7363, 7409.905
414.2184, 7394.265
414.7005, 7322.953
415.1826, 7240.613
415.6647, 7203.706
416.1469, 7214.518
416.6290, 7236.083
417.1111, 7247.449
417.5932, 7252.017
418.0753, 7253.961
418.5574, 7250.991
419.0396, 7248.976
419.5217, 7252.748
420.0038, 7261.069
420.4859, 7266.226
420.9680, 7270.731
421.4501, 7267.692
421.9323, 7251.626
422.4144, 7204.371
422.8965, 7167.925
423.3786, 7151.766
423.8607, 7152.105
424.3428, 7157.311
424.8250, 7172.899
425.3071, 7188.055
425.7892, 7198.500
426.2713, 7201.466
426.7534, 7208.355
427.2355, 7223.420
427.7177, 7239.682
428.1998, 7246.786
428.6819, 7243.177
429.1640, 7232.270
429.6461, 7207.846
430.1282, 7170.833
430.6104, 7166.600
431.0925, 7204.562
431.5746, 7250.240
432.0567, 7265.225
432.5388, 7248.360
433.0209, 7239.371
433.5031, 7249.410
433.9852, 7270.197
434.4673, 7280.107
434.9494, 7279.499
435.4315, 7280.453
435.9136, 7295.673
436.3958, 7319.303
436.8779, 7337.339
437.3600, 7348.995
437.8421, 7351.401
438.3242, 7330.052
438.8063, 7295.066
439.2885, 7274.683
439.7706, 7291.180
440.2527, 7324.330
440.7348, 7360.180
441.2169, 7398.823
441.6990, 7427.792
442.1812, 7429.213
442.6633, 7420.726
443.1454, 7423.392
443.6275, 7460.870
444.1096, 7493.746
444.5917, 7500.443
445.0739, 7483.547
445.5560, 7482.450
446.0381, 7526.305
446.5202, 7573.796
447.0023, 7600.497
447.4844, 7573.691
447.9666, 7566.883
448.4487, 7595.157
448.9308, 7642.877
449.4129, 7664.966
449.8950, 7640.588
450.3771, 7624.515
450.8593, 7643.015
451.3413, 7705.031
451.8235, 7746.058
452.3056, 7757.810
452.7877, 7761.895
453.2698, 7792.643
453.7519, 7853.155
454.2340, 7902.181
454.7162, 7922.976
455.1983, 7924.172
455.6804, 7939.518
456.1625, 7969.945
456.6446, 7998.590
457.1267, 8008.521
457.6089, 8005.314
458.0910, 8003.959
458.5731, 8005.291
459.0552, 8013.813
459.5373, 8037.774
460.0194, 8074.041
460.5016, 8112.833
460.9837, 8151.636
461.4658, 8188.380
461.9479, 8222.276
462.4300, 8253.939
462.9121, 8278.552
463.3943, 8287.250
463.8764, 8289.081
464.3585, 8295.588
464.8406, 8306.657
465.3227, 8326.381
465.8048, 8364.963
466.2870, 8422.117
466.7691, 8457.895
467.2512, 8447.120
467.7333, 8428.136
468.2154, 8422.052
468.6975, 8406.423
469.1797, 8381.262
469.6618, 8447.007
470.1439, 8479.646
470.6260, 8480.955
471.1081, 8357.105
471.5902, 8394.873
472.0724, 8367.870
472.5545, 8338.213
473.0366, 8398.728
473.5187, 8293.081
474.0008, 8352.167
474.4829, 8345.494
474.9651, 8368.915
475.4472, 8327.169
475.9293, 8305.552
476.4114, 8349.124
476.8935, 8356.601
477.3756, 8307.352
477.8578, 8332.687
478.3399, 8224.763
478.8220, 8233.777
479.3041, 8293.243
479.7862, 8247.271
480.2683, 8273.799
480.7505, 8272.713
481.2326, 8146.145
481.7147, 8237.807
482.1968, 8235.090
482.6789, 8135.470
483.1610, 8219.653
483.6432, 8090.790
484.1253, 8034.291
484.6074, 7995.717
485.0895, 7960.648
485.5716, 7916.251
486.0537, 7843.345
486.5359, 7782.627
487.0180, 7743.358
487.5001, 7719.887
487.9822, 7685.688
488.4643, 7637.205
488.9464, 7584.554
489.4286, 7532.027
489.9107, 7480.620
490.3928, 7425.765
490.8749, 7364.109
491.3570, 7305.245
491.8391, 7266.236
492.3213, 7247.408
492.8034, 7224.127
493.2855, 7183.360
493.7676, 7134.455
494.2497, 7104.439
494.7318, 7093.176
495.2140, 7078.565
495.6961, 7036.767
496.1782, 6980.572
496.6603, 6934.676
497.1424, 6907.477
497.6245, 6882.385
498.1067, 6837.956
498.5888, 6784.870
499.0709, 6747.742
499.5530, 6755.202
500.0351, 6766.307
500.5172, 6755.169
500.9994, 6715.777
501.4815, 6684.476
501.9636, 6680.943
502.4457, 6682.948
502.9278, 6670.389
503.4099, 6616.974
503.8921, 6579.451
504.3742, 6443.809
504.8563, 6494.832
505.3384, 6512.745
505.8205, 6499.332
506.3026, 6360.756
506.7848, 6383.796
507.2669, 6342.070
507.7490, 6297.689
508.2311, 6343.479
508.7132, 6348.447
509.1953, 6347.658
509.6775, 6353.553
510.1596, 6338.482
510.6417, 6281.469
511.1238, 6205.619
511.6059, 6152.543
512.0880, 6121.495
512.5701, 6107.509
513.0522, 6121.845
513.5344, 6144.749
514.0165, 6150.185
514.4986, 6129.792
514.9807, 6102.473
515.4628, 6075.108
515.9449, 6049.431
516.4271, 6028.753
516.9092, 6018.096
517.3913, 6008.935
517.8734, 5996.955
518.3555, 5981.850
518.8376, 5972.241
519.3198, 5979.604
519.8019, 5985.479
520.2840, 5977.213
520.7661, 5940.359
521.2482, 5919.521
521.7303, 5925.707
522.2125, 5943.716
522.6946, 5934.988
523.1767, 5891.054
523.6588, 5855.917
524.1409, 5852.088
524.6230, 5874.530
525.1052, 5885.147
525.5873, 5883.238
526.0694, 5875.109
526.5515, 5861.744
527.0336, 5846.737
527.5157, 5841.818
527.9979, 5854.001
528.4800, 5870.007
528.9621, 5877.637
529.4442, 5877.721
529.9263, 5872.917
530.4084, 5857.114
530.8906, 5842.199
531.3727, 5839.490
531.8548, 5851.950
532.3369, 5857.834
532.8190, 5838.551
533.3011, 5814.794
533.7833, 5805.687
534.2654, 5828.633
534.7475, 5848.305
535.2296, 5864.262
535.7117, 5874.746
536.1938, 5872.609
536.6760, 5851.220
537.1581, 5829.713
537.6402, 5814.656
538.1223, 5806.040
538.6044, 5809.451
539.0865, 5829.809
539.5687, 5848.142
540.0508, 5835.749
540.5329, 5797.579
541.0150, 5770.719
541.4971, 5766.146
541.9792, 5775.617
542.4614, 5795.295
542.9435, 5821.077
543.4256, 5833.675
543.9077, 5807.587
544.3898, 5770.771
544.8719, 5750.525
545.3541, 5751.071
545.8362, 5757.215
546.3183, 5762.692
546.8004, 5769.465
547.2825, 5779.716
547.7646, 5808.783
548.2468, 5824.535
548.7289, 5812.523
549.2110, 5779.975
549.6931, 5757.232
550.1752, 5741.178
550.6573, 5739.298
551.1395, 5759.698
551.6216, 5809.117
552.1037, 5839.181
552.5858, 5845.933
553.0679, 5842.635
553.5500, 5844.151
554.0322, 5850.246
554.5143, 5854.599
554.9964, 5856.263
555.4785, 5854.829
555.9606, 5846.750
556.4427, 5833.596
556.9249, 5823.966
557.4070, 5825.934
557.8891, 5832.727
558.3712, 5834.158
558.8533, 5827.896
559.3354, 5830.210
559.8176, 5865.670
560.2997, 5907.388
560.7818, 5927.837
561.2639, 5890.761
561.7460, 5864.159
562.2281, 5868.096
562.7103, 5894.461
563.1924, 5912.080
563.6745, 5918.197
564.1566, 5918.528
564.6387, 5911.985
565.1208, 5896.495
565.6030, 5895.903
566.0851, 5913.577
566.5672, 5938.618
567.0493, 5966.149
567.5314, 5995.019
568.0135, 6004.919
568.4957, 5987.556
568.9778, 5957.550
569.4599, 5932.877
569.9420, 5914.721
570.4241, 5909.053
570.9063, 5930.085
571.3884, 5958.244
571.8705, 5973.983
572.3526, 5976.294
572.8347, 5975.549
573.3168, 5974.037
573.7990, 5973.419
574.2811, 5975.066
574.7632, 5978.837
575.2453, 5985.470
575.7274, 5996.422
576.2095, 6010.165
576.6917, 6024.210
577.1738, 6043.900
577.6559, 6054.583
578.1380, 6048.131
578.6201, 6026.228
579.1022, 6017.550
579.5844, 6023.833
580.0665, 6036.724
580.5486, 6052.384
581.0307, 6070.088
581.5128, 6083.183
581.9949, 6090.077
582.4771, 6095.267
582.9592, 6106.535
583.4413, 6120.585
583.9234, 6129.249
584.4055, 6121.400
584.8876, 6113.046
585.3698, 6115.482
585.8519, 6127.921
586.3340, 6145.961
586.8161, 6172.676
587.2982, 6200.610
587.7803, 6226.238
588.2625, 6250.666
588.7446, 6268.644
589.2267, 6275.888
589.7088, 6279.487
590.1909, 6288.098
590.6730, 6306.184
591.1552, 6315.736
591.6373, 6309.594
592.1194, 6295.471
592.6015, 6297.628
593.0836, 6316.887
593.5657, 6338.785
594.0479, 6353.364
594.5300, 6364.930
595.0121, 6389.015
595.4942, 6426.511
595.9763, 6457.912
596.4584, 6460.004
596.9406, 6448.497
597.4227, 6444.622
597.9048, 6459.106
598.3869, 6472.521
598.8690, 6470.218
599.3511, 6461.180
599.8333, 6462.843
600.3154, 6497.745
600.7975, 6524.090
601.2796, 6527.024
601.7617, 6507.422
602.2438, 6497.813
602.7260, 6502.187
603.2081, 6510.062
603.6902, 6512.327
604.1723, 6507.560
604.6544, 6519.934
605.1365, 6554.616
605.6187, 6594.224
606.1008, 6616.975
606.5829, 6624.654
607.0650, 6623.412
607.5471, 6607.697
608.0292, 6592.514
608.5114, 6598.365
608.9935, 6620.436
609.4756, 6642.143
609.9577, 6652.741
610.4398, 6661.311
610.9219, 6673.871
611.4041, 6691.914
611.8862, 6706.872
612.3683, 6711.240
612.8504, 6715.709
613.3325, 6728.846
613.8146, 6758.186
614.2968, 6780.975
614.7789, 6792.926
615.2610, 6800.649
615.7431, 6820.325
616.2252, 6854.126
616.7073, 6877.046
617.1895, 6875.938
617.6716, 6859.142
618.1537, 6847.872
618.6358, 6841.876
619.1179, 6839.937
619.6000, 6838.375
620.0822, 6841.717
620.5643, 6857.024
621.0464, 6886.880
621.5285, 6919.612
622.0106, 6960.475
622.4927, 6995.792
622.9749, 7010.672
623.4570, 6974.500
623.9391, 6950.508
624.4212, 6950.966
624.9033, 6969.078
625.3854, 6989.111
625.8676, 7012.744
626.3497, 7033.860
626.8318, 7048.373
627.3139, 7057.546
627.7960, 7075.819
628.2781, 7104.242
628.7603, 7132.601
629.2424, 7154.988
629.7245, 7170.655
630.2066, 7174.748
630.6887, 7163.402
631.1708, 7156.084
631.6530, 7176.935
632.1351, 7211.510
632.6172, 7238.052
633.0993, 7232.396
633.5814, 7234.185
634.0635, 7266.724
634.5457, 7320.331
635.0278, 7357.738
635.5099, 7367.669
635.9920, 7368.749
636.4741, 7363.083
636.9562, 7349.684
637.4384, 7348.133
637.9205, 7360.402
638.4026, 7378.730
638.8847, 7397.314
639.3668, 7416.280
639.8489, 7438.024
640.3311, 7464.184
640.8132, 7487.040
641.2953, 7494.720
641.7774, 7492.351
642.2595, 7491.167
642.7416, 7488.521
643.2238, 7495.381
643.7059, 7524.014
644.1880, 7568.872
644.6701, 7612.248
645.1522, 7650.731
645.6343, 7683.936
646.1165, 7709.119
646.5986, 7725.448
647.0807, 7747.551
647.5628, 7783.228
648.0449, 7813.809
648.5270, 7817.295
649.0092, 7789.315
649.4913, 7797.328
649.9734, 7854.133
650.4555, 7924.692
650.9376, 7960.140
651.4197, 7968.786
651.9019, 7978.776
652.3840, 8001.719
652.8661, 8027.441
653.3482, 8042.180
653.8303, 8050.900
654.3124, 8068.833
654.7946, 8109.947
655.2767, 8155.167
655.7588, 8198.684
656.2409, 8240.756
656.7230, 8268.388
657.2051, 8270.861
657.6872, 8270.178
658.1693, 8278.147
658.6514, 8294.706
659.1335, 8322.016
659.6157, 8363.053
660.0978, 8409.520
660.5799, 8450.908
661.0620, 8488.157
661.5441, 8524.861
662.0262, 8563.132
662.5084, 8599.866
662.9905, 8629.143
663.4726, 8653.620
663.9547, 8680.514
664.4368, 8721.451
664.9189, 8757.877
665.4011, 8769.073
665.8832, 8756.356
666.3653, 8771.730
666.8474, 8853.054
667.3295, 8937.833
667.8116, 8998.476
668.2938, 9028.938
668.7759, 9058.357
669.2580, 9086.564
669.7401, 9114.466
670.2222, 9140.044
670.7043, 9164.607
671.1865, 9202.641
671.6686, 9261.081
672.1507, 9323.164
672.6328, 9369.854
673.1149, 9404.601
673.5970, 9434.538
674.0792, 9456.999
674.5613, 9481.633
675.0434, 9512.375
675.5255, 9549.570
676.0076, 9594.659
676.4897, 9656.602
676.9719, 9718.065
677.4540, 9770.425
677.9361, 9811.360
678.4182, 9865.522
678.9003, 9935.530
679.3824, 10013.39
679.8646, 10093.95
680.3467, 10176.62
680.8288, 10261.35
681.3109, 10349.10
681.7930, 10435.14
682.2751, 10514.95
682.7573, 10589.79
683.2394, 10664.96
683.7215, 10746.95
684.2036, 10821.03
684.6857, 10866.81
685.1678, 10899.06
685.6500, 10952.95
686.1321, 11055.81
686.6142, 11161.14
687.0963, 11253.88
687.5784, 11335.28
688.0605, 11431.07
688.5427, 11545.66
689.0248, 11661.50
689.5069, 11769.67
689.9890, 11870.46
690.4711, 11967.70
690.9532, 12059.79
691.4354, 12166.40
691.9175, 12315.66
692.3996, 12488.50
692.8817, 12657.17
693.3638, 12822.69
693.8459, 12968.47
694.3281, 13055.31
694.8102, 13127.57
695.2923, 13242.74
695.7744, 13449.00
696.2565, 13655.68
696.7386, 13849.42
697.2208, 14035.53
697.7029, 14225.07
698.1850, 14414.58
698.6671, 14621.50
699.1492, 14854.15
699.6313, 15106.53
700.1135, 15348.85
700.5956, 15582.61
701.0777, 15835.38
701.5598, 16137.38
702.0419, 16462.86
702.5240, 16782.47
703.0062, 17090.59
703.4883, 17398.32
703.9704, 17697.92
704.4525, 18006.62
704.9346, 18339.85
705.4167, 18710.68
705.8989, 19079.98
706.3810, 19434.03
706.8631, 19798.08
707.3452, 20213.97
707.8273, 20691.56
708.3094, 21167.83
708.7916, 21636.58
709.2737, 22097.46
709.7558, 22537.95
710.2379, 22962.16
710.7200, 23418.23
711.2021, 23939.44
711.6843, 24493.61
712.1664, 25059.62
712.6485, 25634.09
713.1306, 26196.15
713.6127, 26700.05
714.0948, 27217.77
714.5770, 27784.18
715.0591, 28400.27
715.5412, 29010.07
716.0233, 29608.38
716.5054, 30197.68
716.9875, 30785.31
717.4697, 31366.26
717.9518, 31911.76
718.4339, 32405.88
718.9160, 32898.39
719.3981, 33452.08
719.8802, 34034.53
720.3624, 34572.36
720.8445, 35057.09
721.3266, 35492.50
721.8087, 35854.52
722.2908, 36175.73
722.7729, 36493.27
723.2551, 36869.59
723.7372, 37178.45
724.2193, 37390.43
724.7014, 37527.49
725.1835, 37652.74
725.6656, 37780.14
726.1478, 37831.11
726.6299, 37756.32
727.1120, 37592.52
727.5941, 37467.87
728.0762, 37371.50
728.5583, 37213.11
729.0405, 36903.32
729.5226, 36524.02
730.0047, 36154.82
730.4868, 35803.32
730.9689, 35403.76
731.4510, 34914.57
731.9332, 34383.52
732.4153, 33840.34
732.8974, 33281.75
733.3795, 32713.19
733.8616, 32136.26
734.3438, 31557.52
734.8259, 30989.19
735.3080, 30430.77
735.7901, 29856.31
736.2722, 29258.07
736.7543, 28653.13
737.2365, 28074.40
737.7186, 27508.59
738.2007, 26932.16
738.6828, 26308.27
739.1649, 25707.55
739.6470, 25181.12
740.1292, 24703.46
740.6113, 24214.91
741.0934, 23703.39
741.5755, 23185.38
742.0576, 22656.77
742.5397, 22126.86
743.0219, 21650.15
743.5040, 21232.10
743.9861, 20834.26
744.4682, 20438.80
744.9503, 20048.78
745.4324, 19671.05
745.9146, 19303.44
746.3967, 18938.40
746.8788, 18572.13
747.3609, 18209.80
747.8430, 17849.28
748.3251, 17483.14
748.8073, 17160.12
749.2894, 16922.11
749.7715, 16700.33
750.2536, 16455.83
750.7357, 16180.21
751.2178, 15897.86
751.7000, 15600.07
752.1821, 15311.21
752.6642, 15067.57
753.1463, 14861.94
753.6284, 14657.20
754.1105, 14442.28
754.5927, 14234.57
755.0748, 14050.89
755.5569, 13884.09
756.0390, 13718.38
756.5211, 13549.53
757.0032, 13384.44
757.4854, 13222.71
757.9675, 13067.40
758.4496, 12931.77
758.9317, 12830.72
759.4138, 12711.71
759.8959, 12550.91
760.3781, 12370.64
760.8602, 12246.39
761.3423, 12175.44
761.8244, 12107.54
762.3065, 12018.50
762.7886, 11917.31
763.2708, 11803.96
763.7529, 11682.89
764.2350, 11582.63
764.7171, 11519.25
765.1992, 11476.13
765.6813, 11460.89
766.1635, 11481.62
766.6456, 11436.96
767.1277, 11295.56
767.6098, 11139.01
768.0919, 11016.27
768.5740, 10926.50
769.0562, 10854.37
769.5383, 10800.81
770.0204, 10754.47
770.5025, 10709.18
770.9846, 10662.53
771.4667, 10607.35
771.9489, 10536.66
772.4310, 10481.05
772.9131, 10473.72
773.3952, 10480.18
773.8773, 10465.32
774.3594, 10409.74
774.8416, 10357.42
775.3237, 10310.96
775.8058, 10266.19
776.2879, 10210.74
776.7700, 10144.53
777.2521, 10099.28
777.7343, 10086.18
778.2164, 10086.94
778.6985, 10080.11
779.1806, 10067.27
779.6627, 10051.65
780.1448, 10025.18
780.6270, 10006.25
781.1091, 10012.14
781.5912, 10032.37
782.0733, 10034.63
782.5554, 9999.748
783.0375, 9974.167
783.5197, 9968.729
784.0018, 9979.902
784.4839, 10000.55
784.9660, 10031.16
785.4481, 10051.29
785.9302, 10046.87
786.4124, 10027.46
786.8945, 9999.547
787.3766, 9967.545
787.8587, 9955.448
788.3408, 9992.451
788.8229, 10039.34
789.3051, 10077.86
789.7872, 10106.97
790.2693, 10121.08
790.7514, 10105.66
791.2335, 10098.58
791.7156, 10122.24
792.1978, 10176.34
792.6799, 10223.51
793.1620, 10261.98
793.6441, 10315.92
794.1262, 10431.25
794.6083, 10563.79
795.0905, 10644.64
795.5726, 10663.24
796.0547, 10665.26
796.5368, 10652.96
797.0189, 10646.02
797.5010, 10663.09
797.9832, 10720.18
798.4653, 10759.87
798.9474, 10772.05
799.4295, 10782.47
799.9116, 10816.83
800.3937, 10874.28
800.8759, 10945.50
801.3580, 11031.79
801.8401, 11120.62
802.3222, 11198.52
802.8043, 11270.52
803.2864, 11345.09
803.7686, 11432.07
804.2507, 11508.08
804.7328, 11549.12
805.2149, 11582.26
805.6970, 11647.54
806.1791, 11762.68
806.6613, 11862.96
807.1434, 11936.40
807.6255, 11998.13
808.1076, 12075.71
808.5897, 12166.10
809.0718, 12252.26
809.5540, 12325.52
810.0361, 12395.73
810.5182, 12471.46
811.0003, 12550.83
811.4824, 12630.38
811.9645, 12708.94
812.4467, 12787.66
812.9288, 12863.43
813.4109, 12940.88
813.8930, 13031.46
814.3751, 13139.24
814.8572, 13248.89
815.3394, 13361.05
815.8215, 13468.88
816.3036, 13548.92
816.7857, 13608.51
817.2678, 13676.97
817.7499, 13768.65
818.2321, 13876.67
818.7142, 14000.20
819.1963, 14137.54
819.6784, 14278.24
820.1605, 14450.86
820.6426, 14590.38
821.1248, 14660.22
821.6068, 14678.85
822.0889, 14758.69
822.5710, 14903.25
823.0532, 15057.11
823.5353, 15189.66
824.0174, 15311.27
824.4995, 15445.96
824.9816, 15589.47
825.4637, 15731.19
825.9459, 15844.75
826.4280, 15970.63
826.9101, 16136.61
827.3922, 16344.61
827.8743, 16550.12
828.3564, 16753.59
828.8386, 16951.10
829.3207, 17146.29
829.8028, 17336.40
830.2849, 17511.43
830.7670, 17670.16
831.2491, 17823.43
831.7313, 17972.30
832.2134, 18121.96
832.6955, 18287.39
833.1776, 18468.73
833.6597, 18621.54
834.1418, 18712.61
834.6240, 18788.63
835.1061, 18880.13
835.5882, 18993.59
836.0703, 19064.91
836.5524, 19091.73
837.0345, 19084.80
837.5167, 19045.22
837.9988, 18978.54
838.4809, 18904.99
838.9630, 18825.34
839.4451, 18717.18
839.9272, 18560.72
840.4094, 18372.19
840.8915, 18161.97
841.3736, 17928.95
841.8557, 17683.01
842.3378, 17426.47
842.8199, 17155.82
843.3021, 16865.76
843.7842, 16554.24
844.2663, 16243.14
844.7484, 15931.42
845.2305, 15617.16
845.7126, 15293.59
846.1948, 14968.77
846.6769, 14654.04
847.1590, 14350.22
847.6411, 14053.79
848.1232, 13755.05
848.6053, 13467.19
849.0875, 13199.96
849.5696, 12958.25
850.0517, 12717.98
850.5338, 12477.15
851.0159, 12243.37
851.4980, 12033.36
851.9802, 11838.92
852.4623, 11618.31
852.9444, 11364.41
853.4265, 11133.73
853.9086, 10988.20
854.3907, 10876.11
854.8729, 10754.04
855.3550, 10616.76
855.8371, 10464.19
856.3192, 10279.91
856.8013, 10099.53
857.2834, 9953.865
857.7656, 9842.731
858.2477, 9735.931
858.7298, 9632.885
859.2119, 9532.743
859.6940, 9436.713
860.1761, 9342.506
860.6583, 9245.862
861.1404, 9145.594
861.6225, 9051.338
862.1046, 8979.413
862.5867, 8905.948
863.0688, 8810.177
863.5510, 8673.141
864.0331, 8589.198
864.5152, 8571.447
864.9973, 8560.527
865.4794, 8494.444
865.9615, 8391.415
866.4437, 8297.391
866.9258, 8216.750
867.4079, 8152.057
867.8900, 8113.949
868.3721, 8085.971
868.8542, 8055.176
869.3364, 8020.150
869.8185, 7980.383
870.3006, 7936.104
870.7827, 7888.134
871.2648, 7835.055
871.7469, 7778.269
872.2291, 7731.744
872.7112, 7697.134
873.1933, 7661.858
873.6754, 7605.627
874.1575, 7548.567
874.6396, 7513.310
875.1218, 7507.333
875.6039, 7499.591
876.0860, 7483.554
876.5681, 7462.573
877.0502, 7437.195
877.5323, 7406.569
878.0145, 7378.270
878.4966, 7352.399
878.9787, 7327.316
879.4608, 7301.215
879.9429, 7275.078
880.4250, 7253.371
880.9072, 7236.713
881.3893, 7211.139
881.8714, 7152.900
882.3535, 7097.830
882.8356, 7074.044
883.3177, 7087.542
883.7999, 7077.804
884.2820, 7038.829
884.7641, 6994.853
885.2462, 6961.771
885.7283, 6936.797
886.2104, 6907.642
886.6926, 6874.778
887.1747, 6851.865
887.6568, 6859.315
888.1389, 6870.848
888.6210, 6869.010
889.1031, 6851.468
889.5853, 6827.592
890.0674, 6794.058
890.5495, 6761.907
891.0316, 6736.634
891.5137, 6717.508
891.9958, 6702.347
892.4780, 6690.645
892.9601, 6675.397
893.4422, 6644.657
893.9243, 6613.889
894.4064, 6603.251
894.8885, 6610.110
895.3707, 6599.109
895.8528, 6533.161
896.3349, 6485.405
896.8170, 6489.064
897.2991, 6530.917
897.7813, 6531.342
898.2634, 6490.208
898.7455, 6449.966
899.2276, 6440.033
899.7097, 6439.966
900.1918, 6424.181
900.6740, 6396.494
901.1561, 6371.072
901.6382, 6347.254
902.1203, 6334.156
902.6024, 6341.557
903.0845, 6360.745
903.5667, 6356.939
904.0488, 6327.249
904.5309, 6301.360
905.0130, 6293.123
905.4951, 6290.404
905.9772, 6271.712
906.4594, 6242.613
906.9415, 6217.764
907.4236, 6208.229
907.9057, 6197.846
908.3878, 6171.727
908.8699, 6143.134
909.3521, 6143.786
909.8342, 6186.247
910.3163, 6206.295
910.7984, 6187.477
911.2805, 6146.543
911.7626, 6097.912
912.2448, 6050.539
912.7269, 6026.880
913.2090, 6044.136
913.6911, 6071.225
914.1732, 6112.469
914.6553, 6146.712
915.1375, 6140.860
915.6196, 6070.175
916.1017, 6028.742
916.5838, 6030.830
917.0659, 6047.547
917.5480, 6042.561
918.0302, 6020.926
918.5123, 5993.998
918.9944, 5959.892
919.4765, 5939.551
919.9586, 5959.319
920.4407, 5991.855
920.9229, 6010.231
921.4050, 6005.884
921.8871, 6006.224
922.3692, 6016.014
922.8513, 6020.399
923.3334, 5999.622
923.8156, 5961.559
924.2977, 5936.208
924.7798, 5926.075
925.2619, 5919.484
925.7440, 5904.248
926.2261, 5892.048
926.7083, 5894.772
927.1904, 5917.237
927.6725, 5931.582
928.1546, 5938.878
928.6367, 5935.687
929.1188, 5913.633
929.6010, 5878.608
930.0831, 5864.897
930.5652, 5870.750
931.0473, 5874.482
931.5294, 5856.317
932.0115, 5835.868
932.4937, 5829.584
932.9758, 5836.202
933.4579, 5835.838
933.9400, 5820.665
934.4221, 5810.113
934.9042, 5809.027
935.3864, 5817.172
935.8685, 5844.498
936.3506, 5884.919
936.8327, 5903.185
937.3148, 5857.839
937.7969, 5808.196
938.2791, 5799.991
938.7612, 5819.427
939.2433, 5834.440
939.7254, 5841.386
940.2075, 5842.722
940.6896, 5838.545
941.1718, 5829.391
941.6539, 5812.837
942.1360, 5791.118
942.6181, 5775.300
943.1002, 5767.263
943.5823, 5768.750
944.0645, 5795.943
944.5466, 5826.981
945.0287, 5834.389
945.5108, 5792.521
945.9929, 5761.221
946.4750, 5739.847
946.9572, 5729.449
947.4393, 5736.594
947.9214, 5757.021
948.4035, 5768.023
948.8856, 5767.112
949.3677, 5761.106
949.8499, 5749.909
950.3320, 5739.585
950.8141, 5736.558
951.2962, 5743.835
951.7783, 5745.057
952.2604, 5735.306
952.7426, 5729.043
953.2247, 5737.366
953.7068, 5756.394
954.1889, 5768.610
954.6710, 5774.358
955.1531, 5776.834
955.6353, 5783.396
956.1174, 5782.521
956.5995, 5757.198
957.0816, 5713.558
957.5637, 5694.771
958.0458, 5713.023
958.5280, 5730.187
959.0101, 5735.768
959.4922, 5733.003
959.9743, 5727.577
960.4564, 5720.325
960.9385, 5714.184
961.4207, 5713.029
961.9028, 5709.830
962.3849, 5691.771
962.8670, 5671.942
963.3491, 5675.062
963.8312, 5715.462
964.3134, 5742.073
964.7955, 5748.056
965.2776, 5743.606
965.7597, 5740.321
966.2418, 5737.342
966.7239, 5730.284
967.2061, 5715.978
967.6882, 5710.179
968.1703, 5738.064
968.6524, 5765.662
969.1345, 5761.354
969.6166, 5714.980
970.0988, 5692.382
970.5809, 5697.347
971.0630, 5709.266
971.5451, 5717.951
972.0272, 5720.773
972.5093, 5703.884
972.9915, 5671.041
973.4736, 5657.338
973.9557, 5710.699
974.4378, 5754.347
974.9199, 5746.778
975.4020, 5700.295
975.8842, 5670.145
976.3663, 5657.307
976.8484, 5652.840
977.3305, 5654.172
977.8126, 5661.304
978.2947, 5682.202
978.7769, 5708.324
979.2590, 5719.947
979.7411, 5700.582
980.2232, 5677.909
980.7053, 5651.995
981.1874, 5628.992
981.6696, 5618.950
982.1517, 5622.102
982.6338, 5623.412
983.1159, 5620.333
983.5980, 5617.210
984.0801, 5617.144
984.5623, 5620.060
985.0444, 5628.669
985.5265, 5648.728
986.0085, 5650.920
986.4907, 5617.150
986.9728, 5587.458
987.4549, 5591.762
987.9370, 5625.415
988.4191, 5636.950
988.9012, 5627.539
989.3834, 5616.806
989.8655, 5620.770
990.3476, 5625.827
990.8297, 5618.353
991.3118, 5601.354
991.7939, 5596.097
992.2761, 5610.170
992.7582, 5621.467
993.2403, 5623.408
993.7224, 5620.296
994.2045, 5623.384
994.6866, 5629.570
995.1688, 5627.449
995.6509, 5604.660
996.1330, 5588.170
996.6151, 5600.299
997.0972, 5622.662
997.5793, 5631.198
998.0615, 5620.665
998.5436, 5612.709
999.0257, 5607.885
999.5078, 5606.397
999.9899, 5612.120
1000.472, 5619.819
1000.954, 5617.731
1001.436, 5604.274
1001.918, 5596.749
1002.401, 5603.852
1002.883, 5617.666
1003.365, 5640.354
1003.847, 5668.586
1004.329, 5662.613
1004.811, 5621.587
1005.293, 5584.258
1005.775, 5571.236
1006.257, 5570.176
1006.740, 5569.067
1007.222, 5569.263
1007.704, 5573.836
1008.186, 5589.462
1008.668, 5602.114
1009.150, 5611.233
1009.632, 5615.616
1010.114, 5611.319
1010.596, 5599.881
1011.079, 5588.622
1011.561, 5577.551
1012.043, 5573.452
1012.525, 5588.853
1013.007, 5608.756
1013.489, 5618.100
1013.971, 5612.484
1014.453, 5615.240
1014.936, 5629.476
1015.418, 5641.998
1015.900, 5642.977
1016.382, 5636.355
1016.864, 5630.847
1017.346, 5626.136
1017.828, 5619.988
1018.310, 5610.049
1018.792, 5599.813
1019.275, 5585.949
1019.757, 5574.157
1020.239, 5583.906
1020.721, 5616.874
1021.203, 5634.074
1021.685, 5621.297
1022.167, 5603.503
1022.649, 5611.434
1023.132, 5631.416
1023.614, 5644.593
1024.096, 5645.157
1024.578, 5642.118
1025.060, 5632.398
1025.542, 5625.477
1026.024, 5633.182
1026.506, 5651.564
1026.989, 5650.450
1027.471, 5630.935
1027.953, 5617.982
1028.435, 5638.560
1028.917, 5660.823
1029.399, 5661.085
1029.881, 5643.438
1030.363, 5633.845
1030.845, 5631.146
1031.328, 5643.333
1031.810, 5679.417
1032.292, 5718.841
1032.774, 5727.734
1033.256, 5715.193
1033.738, 5698.573
1034.220, 5675.746
1034.702, 5663.747
1035.184, 5673.963
1035.667, 5689.251
1036.149, 5696.468
1036.631, 5695.618
1037.113, 5691.266
1037.595, 5683.385
1038.077, 5678.341
1038.559, 5684.872
1039.041, 5693.333
1039.524, 5692.464
1040.006, 5683.340
1040.488, 5687.382
1040.970, 5711.911
1041.452, 5733.445
1041.934, 5743.974
1042.416, 5748.211
1042.898, 5756.777
1043.380, 5767.230
1043.863, 5772.976
1044.345, 5770.668
1044.827, 5765.552
1045.309, 5755.342
1045.791, 5746.378
1046.273, 5746.195
1046.755, 5756.369
1047.237, 5756.531
1047.719, 5744.984
1048.202, 5737.723
1048.684, 5749.054
1049.166, 5770.688
1049.648, 5796.160
1050.130, 5824.654
1050.612, 5851.650
1051.094, 5881.079
1051.576, 5900.038
1052.059, 5901.056
1052.541, 5893.921
1053.023, 5905.008
1053.505, 5927.767
1053.987, 5941.136
1054.469, 5935.465
1054.951, 5924.815
1055.433, 5906.983
1055.916, 5893.396
1056.398, 5894.496
1056.880, 5911.430
1057.362, 5938.789
1057.844, 5977.448
1058.326, 6016.440
1058.808, 6058.716
1059.290, 6088.415
1059.772, 6075.137
1060.255, 6024.754
1060.737, 6001.882
1061.219, 6035.673
1061.701, 6060.081
1062.183, 6054.604
1062.665, 6036.382
1063.147, 6044.028
1063.629, 6070.200
1064.111, 6091.465
1064.594, 6102.223
1065.076, 6104.755
1065.558, 6089.195
1066.040, 6074.037
1066.522, 6076.371
1067.004, 6099.508
1067.486, 6117.728
1067.968, 6131.265
1068.450, 6139.480
1068.933, 6141.590
1069.415, 6138.626
1069.897, 6128.135
1070.379, 6112.742
1070.861, 6104.137
1071.343, 6108.043
1071.825, 6110.808
1072.307, 6108.080
1072.790, 6106.356
1073.272, 6119.266
1073.754, 6142.019
1074.236, 6163.329
1074.718, 6183.369
1075.200, 6190.653
1075.682, 6163.363
1076.164, 6135.847
1076.646, 6134.072
1077.129, 6157.759
1077.611, 6157.203
1078.093, 6132.272
1078.575, 6110.650
1079.057, 6114.635
1079.539, 6124.736
1080.021, 6125.631
1080.503, 6119.332
1080.985, 6111.063
1081.468, 6100.637
1081.950, 6091.694
1082.432, 6086.359
1082.914, 6078.521
1083.396, 6052.830
1083.878, 6021.404
1084.360, 6011.587
1084.842, 6028.791
1085.325, 6041.534
1085.807, 6038.852
1086.289, 6027.027
1086.771, 6005.226
1087.253, 5976.921
1087.735, 5961.888
1088.217, 5958.417
1088.699, 5952.810
1089.182, 5935.995
1089.664, 5919.436
1090.146, 5914.687
1090.628, 5913.311
1091.110, 5902.104
1091.592, 5875.322
1092.074, 5858.798
1092.556, 5853.736
1093.038, 5857.367
1093.521, 5877.657
1094.003, 5898.847
1094.485, 5897.366
1094.967, 5874.135
1095.449, 5852.552
1095.931, 5838.686
1096.413, 5825.306
1096.895, 5809.064
1097.377, 5794.221
1097.860, 5794.387
1098.342, 5803.978
1098.824, 5804.282
1099.306, 5786.951
1099.788, 5770.564
1100.270, 5764.345
1100.752, 5762.134
1101.234, 5760.066
1101.717, 5758.174
1102.199, 5751.843
1102.681, 5741.149
1103.163, 5732.327
1103.645, 5730.614
1104.127, 5731.423
1104.609, 5732.230
1105.091, 5732.654
1105.573, 5732.913
1106.056, 5737.642
1106.538, 5726.261
1107.020, 5680.549
1107.502, 5694.845
1107.984, 5701.783
1108.466, 5701.759
1108.948, 5673.922
1109.430, 5682.000
1109.912, 5675.685
1110.395, 5668.774
1110.877, 5681.908
1111.359, 5658.116
1111.841, 5670.931
1112.323, 5669.133
1112.805, 5674.023
1113.287, 5664.433
1113.769, 5659.313
1114.252, 5668.677
1114.734, 5670.023
1115.216, 5658.765
1115.698, 5664.081
1116.180, 5639.783
1116.662, 5641.472
1117.144, 5654.372
1117.626, 5643.842
1118.109, 5649.417
1118.591, 5648.862
1119.073, 5631.973
1119.555, 5621.284
1120.037, 5612.003
1120.519, 5605.254
1121.001, 5596.056
1121.483, 5581.919
1121.965, 5570.693
1122.448, 5573.960
1122.930, 5585.856
1123.412, 5601.999
1123.894, 5624.440
1124.376, 5625.788
1124.858, 5592.094
1125.340, 5558.368
1125.822, 5535.980
1126.304, 5526.585
1126.787, 5546.920
1127.269, 5584.759
1127.751, 5602.439
1128.233, 5562.359
1128.715, 5536.564
1129.197, 5560.117
1129.679, 5594.212
1130.161, 5605.110
1130.644, 5594.131
1131.126, 5589.571
1131.608, 5591.633
1132.090, 5587.777
1132.572, 5551.616
1133.054, 5524.688
1133.536, 5545.708
1134.018, 5594.013
1134.500, 5613.782
1134.983, 5602.676
1135.465, 5581.947
1135.947, 5552.234
1136.429, 5528.813
1136.911, 5528.588
1137.393, 5542.580
1137.875, 5569.213
1138.357, 5611.898
1138.839, 5615.591
1139.322, 5567.794
1139.804, 5523.869
1140.286, 5507.107
1140.768, 5507.967
1141.250, 5521.386
1141.732, 5537.479
1142.214, 5536.266
1142.696, 5491.280
1143.179, 5467.381
1143.661, 5476.909
1144.143, 5493.247
1144.625, 5491.120
1145.107, 5478.917
1145.589, 5488.898
1146.071, 5517.089
1146.553, 5537.061
1147.036, 5524.131
1147.518, 5517.222
1148.000, 5533.311
1148.482, 5555.877
1148.964, 5553.573
1149.446, 5531.006
1149.928, 5516.643
1150.410, 5514.711
1150.892, 5520.521
1151.375, 5539.655
1151.857, 5557.541
1152.339, 5563.404
1152.821, 5559.820
1153.303, 5563.725
1153.785, 5574.931
1154.267, 5567.442
1154.749, 5521.332
1155.231, 5479.897
1155.714, 5490.590
1156.196, 5522.428
1156.678, 5538.899
1157.160, 5535.318
1157.642, 5532.512
1158.124, 5529.825
1158.606, 5532.137
1159.088, 5552.649
1159.571, 5571.713
1160.053, 5557.090
1160.535, 5524.334
1161.017, 5513.640
1161.499, 5549.050
1161.981, 5562.437
1162.463, 5544.393
1162.945, 5519.363
1163.427, 5508.971
1163.910, 5511.168
1164.392, 5529.747
1164.874, 5562.234
1165.356, 5581.501
1165.838, 5570.082
1166.320, 5563.623
1166.802, 5572.137
1167.284, 5585.446
1167.766, 5581.924
1168.249, 5570.134
1168.731, 5572.363
1169.213, 5596.558
1169.695, 5612.407
1170.177, 5591.347
1170.659, 5583.985
1171.141, 5622.488
1171.623, 5686.431
1172.106, 5701.713
1172.588, 5676.532
1173.070, 5641.022
1173.552, 5591.636
1174.034, 5560.971
1174.516, 5574.225
1174.998, 5602.438
1175.480, 5627.712
1175.963, 5649.668
1176.445, 5661.125
1176.927, 5663.088
1177.409, 5667.574
1177.891, 5697.447
1178.373, 5714.303
1178.855, 5680.647
1179.337, 5630.680
1179.819, 5612.442
1180.302, 5561.107
1180.784, 5639.419
1181.266, 5684.514
1181.748, 5698.173
1182.230, 5586.562
1182.712, 5636.461
1183.194, 5621.482
1183.676, 5603.740
1184.158, 5676.060
1184.641, 5582.114
1185.123, 5652.788
1185.605, 5657.594
1186.087, 5692.388
1186.569, 5661.903
1187.051, 5651.439
1187.533, 5706.057
1188.015, 5724.469
1188.498, 5686.050
1188.980, 5722.105
1189.462, 5624.792
1189.944, 5644.307
1190.426, 5714.167
1190.908, 5678.479
1191.390, 5715.182
1191.872, 5724.165
1192.354, 5607.555
1192.837, 5709.066
1193.319, 5716.091
1193.801, 5626.103
1194.283, 5719.810
1194.765, 5642.963
1195.247, 5626.847
1195.729, 5656.407
1196.211, 5638.128
1196.693, 5694.992
1197.176, 5679.251
1197.658, 5656.927
1198.140, 5670.094
1198.622, 5688.757
1199.104, 5701.462
1199.586, 5684.595
1200.068, 5643.610
1200.550, 5627.789
1201.033, 5666.236
1201.515, 5684.225
1201.997, 5663.188
1202.479, 5629.951
1202.961, 5617.599
1203.443, 5621.735
1203.925, 5642.174
1204.407, 5680.486
1204.890, 5695.204
1205.372, 5667.065
1205.854, 5641.381
1206.336, 5631.749
1206.818, 5634.452
1207.300, 5650.004
1207.782, 5670.205
1208.264, 5677.138
1208.746, 5662.234
1209.229, 5649.099
1209.711, 5638.405
1210.193, 5635.246
1210.675, 5648.338
1211.157, 5666.616
1211.639, 5661.840
1212.121, 5639.304
1212.603, 5612.449
1213.085, 5572.010
1213.568, 5552.550
1214.050, 5564.258
1214.532, 5583.875
1215.014, 5597.458
1215.496, 5603.581
1215.978, 5590.497
1216.460, 5564.195
1216.942, 5548.693
1217.425, 5558.667
1217.907, 5575.523
1218.389, 5599.757
1218.871, 5622.305
1219.353, 5634.504
1219.835, 5635.944
1220.317, 5620.277
1220.799, 5589.527
1221.281, 5565.325
1221.764, 5562.014
1222.246, 5559.661
1222.728, 5553.854
1223.210, 5546.640
1223.692, 5539.427
1224.174, 5533.804
1224.656, 5535.100
1225.138, 5544.288
1225.620, 5553.343
1226.103, 5562.373
1226.585, 5566.675
1227.067, 5565.749
1227.549, 5558.006
1228.031, 5533.378
1228.513, 5499.630
1228.995, 5479.181
1229.477, 5479.387
1229.960, 5480.761
1230.442, 5477.511
1230.924, 5474.596
1231.406, 5475.178
1231.888, 5477.097
1232.370, 5475.688
1232.852, 5470.343
1233.334, 5457.905
1233.816, 5429.960
1234.299, 5413.466
1234.781, 5420.677
1235.263, 5428.452
1235.745, 5414.512
1236.227, 5392.067
1236.709, 5412.091
1237.191, 5461.007
1237.673, 5495.256
1238.156, 5489.640
1238.638, 5478.468
1239.120, 5462.490
1239.602, 5449.410
1240.084, 5452.039
1240.566, 5461.598
1241.048, 5449.559
1241.530, 5421.003
1242.012, 5400.122
1242.495, 5403.843
1242.977, 5406.069
1243.459, 5403.748
1243.941, 5397.908
1244.423, 5387.498
1244.905, 5375.268
1245.387, 5364.433
1245.869, 5356.603
1246.351, 5361.336
1246.834, 5405.341
1247.316, 5423.533
1247.798, 5397.291
1248.280, 5358.579
1248.762, 5346.419
1249.244, 5355.124
1249.726, 5381.027
1250.208, 5423.089
1250.691, 5448.331
1251.173, 5447.239
1251.655, 5436.826
1252.137, 5417.983
1252.619, 5398.284
1253.101, 5387.192
1253.583, 5384.263
1254.065, 5394.986
1254.547, 5423.489
1255.030, 5420.355
1255.512, 5364.515
1255.994, 5330.547
1256.476, 5352.791
1256.958, 5394.369
1257.440, 5405.912
1257.922, 5395.812
1258.404, 5372.078
1258.886, 5328.541
1259.369, 5311.335
1259.851, 5326.635
1260.333, 5344.803
1260.815, 5352.713
1261.297, 5355.876
1261.779, 5363.469
1262.261, 5370.553
1262.743, 5368.275
1263.226, 5351.727
1263.708, 5341.848
1264.190, 5338.652
1264.672, 5342.883
1265.154, 5363.736
1265.636, 5382.476
1266.118, 5372.342
1266.600, 5349.768
1267.083, 5343.181
1267.565, 5360.027
1268.047, 5363.846
1268.529, 5353.250
1269.011, 5349.798
1269.493, 5384.620
1269.975, 5415.712
1270.457, 5399.178
1270.939, 5360.437
1271.422, 5348.290
1271.904, 5367.479
1272.386, 5369.081
1272.868, 5351.305
1273.350, 5335.313
1273.832, 5336.964
1274.314, 5344.146
1274.796, 5354.778
1275.278, 5363.327
1275.761, 5358.339
1276.243, 5340.611
1276.725, 5333.862
1277.207, 5339.490
1277.689, 5342.419
1278.171, 5327.042
1278.653, 5313.600
1279.135, 5309.138
1279.618, 5313.804
1280.100, 5333.967
1280.582, 5365.022
1281.064, 5379.676
1281.546, 5375.292
1282.028, 5370.364
1282.510, 5379.153
1282.992, 5382.162
1283.474, 5369.317
1283.957, 5352.646
1284.439, 5357.605
1284.921, 5375.776
1285.403, 5382.740
1285.885, 5374.738
1286.367, 5368.433
1286.849, 5368.507
1287.331, 5372.513
##END=



