##NAMES=Asisite
##RRUFFID=R070635
##IDEAL CHEMISTRY=Pb^2+^_7_SiO_8_Cl_2_
##LOCALITY=Kombat mine, Kombat, Grootfontein District, Otjozondjupa Region, Namibia
##OWNER=RRUFF
##SOURCE=Ausrox/Rob Sielicki
##DESCRIPTION=Reddish-orange crystals with pronounced cleavage
##STATUS=The identification of this mineral is confirmed by single-crystal X-ray diffraction and chemical analysis.
##URL=rruff.info/R070635
##MEASURED CHEMISTRY=Pb_7.00_(Si_0.55_V^5+^_0.26_As^5+^_0.10_[box]_0.09_)_Î£=1_O_8_Cl_2.00_
114.4885, 14041.83
114.9706, 14203.98
115.4527, 14355.76
115.9348, 14479.19
116.4169, 14603.02
116.8990, 14744.60
117.3812, 14905.51
117.8633, 15091.78
118.3454, 15313.91
118.8275, 15568.00
119.3096, 15852.02
119.7918, 16168.37
120.2739, 16513.88
120.7560, 16875.13
121.2381, 17229.16
121.7202, 17631.62
122.2023, 18124.97
122.6845, 18710.71
123.1666, 19350.99
123.6487, 20020.49
124.1308, 20720.58
124.6129, 21446.36
125.0950, 22202.77
125.5772, 22989.66
126.0593, 23822.33
126.5414, 24709.34
127.0235, 25624.27
127.5056, 26528.11
127.9877, 27419.94
128.4698, 28301.18
128.9520, 29172.34
129.4341, 30037.68
129.9162, 30900.98
130.3983, 31759.18
130.8804, 32622.00
131.3625, 33509.89
131.8447, 34426.50
132.3268, 35368.32
132.8089, 36332.87
133.2910, 37324.61
133.7731, 38340.12
134.2552, 39374.48
134.7374, 40421.50
135.2195, 41552.43
135.7016, 42785.33
136.1837, 44062.85
136.6658, 45378.04
137.1479, 46721.63
137.6301, 48039.38
138.1122, 49299.03
138.5943, 50527.45
139.0764, 51513.18
139.5585, 52309.98
140.0406, 52829.30
140.5228, 52947.68
141.0049, 52620.76
141.4870, 51918.98
141.9691, 50883.21
142.4512, 49518.91
142.9333, 48017.14
143.4155, 46387.39
143.8976, 44663.66
144.3797, 42968.34
144.8618, 41311.82
145.3439, 39731.31
145.8260, 38244.09
146.3082, 36850.96
146.7903, 35550.73
147.2724, 34341.21
147.7545, 33215.71
148.2366, 32194.03
148.7188, 31334.07
149.2009, 30566.56
149.6830, 29841.43
150.1651, 29137.69
150.6472, 28470.21
151.1293, 27858.65
151.6115, 27313.64
152.0936, 26817.94
152.5757, 26373.15
153.0578, 25960.73
153.5399, 25557.46
154.0220, 25146.46
154.5042, 24732.06
154.9863, 24360.76
155.4684, 24058.56
155.9505, 23777.84
156.4326, 23511.67
156.9147, 23257.57
157.3969, 23012.38
157.8790, 22773.73
158.3611, 22540.13
158.8432, 22318.63
159.3253, 22103.21
159.8074, 21902.22
160.2896, 21726.28
160.7717, 21572.37
161.2538, 21425.69
161.7359, 21268.57
162.2180, 21090.47
162.7001, 20938.99
163.1823, 20823.35
163.6644, 20725.47
164.1465, 20635.07
164.6286, 20549.44
165.1107, 20464.91
165.5928, 20377.29
166.0750, 20288.15
166.5571, 20190.43
167.0392, 20068.56
167.5213, 19941.75
168.0034, 19839.76
168.4855, 19777.03
168.9677, 19732.43
169.4498, 19661.36
169.9319, 19557.59
170.4140, 19454.04
170.8961, 19362.79
171.3783, 19281.76
171.8604, 19204.24
172.3425, 19126.64
172.8246, 19052.31
173.3067, 18987.04
173.7888, 18938.06
174.2710, 18885.11
174.7531, 18811.33
175.2352, 18716.76
175.7173, 18618.30
176.1994, 18517.67
176.6815, 18420.01
177.1637, 18332.96
177.6458, 18264.04
178.1279, 18197.32
178.6100, 18112.35
179.0921, 18007.13
179.5742, 17890.29
180.0564, 17766.60
180.5385, 17634.03
181.0206, 17488.02
181.5027, 17322.11
181.9848, 17145.18
182.4669, 16984.33
182.9491, 16854.46
183.4312, 16715.82
183.9133, 16551.14
184.3954, 16371.86
184.8775, 16193.51
185.3596, 16026.16
185.8418, 15868.40
186.3239, 15706.46
186.8060, 15550.26
187.2881, 15379.29
187.7702, 15178.45
188.2523, 14959.10
188.7345, 14741.49
189.2166, 14542.52
189.6987, 14363.18
190.1808, 14180.23
190.6629, 13991.37
191.1450, 13800.58
191.6272, 13604.96
192.1093, 13406.82
192.5914, 13209.62
193.0735, 13016.00
193.5556, 12825.38
194.0377, 12644.76
194.5199, 12476.02
195.0020, 12314.03
195.4841, 12162.04
195.9662, 12017.10
196.4483, 11867.36
196.9304, 11695.71
197.4126, 11486.28
197.8947, 11302.03
198.3768, 11148.10
198.8589, 11012.72
199.3410, 10892.59
199.8231, 10786.23
200.3053, 10681.55
200.7874, 10560.74
201.2695, 10412.28
201.7516, 10276.03
202.2337, 10154.00
202.7158, 10044.13
203.1980, 9946.648
203.6801, 9862.077
204.1622, 9785.212
204.6443, 9709.131
205.1264, 9632.847
205.6085, 9558.936
206.0907, 9488.573
206.5728, 9420.628
207.0549, 9352.554
207.5370, 9282.345
208.0191, 9215.213
208.5012, 9163.642
208.9834, 9130.524
209.4655, 9095.887
209.9476, 9053.522
210.4297, 9004.477
210.9118, 8948.889
211.3939, 8881.977
211.8761, 8815.650
212.3582, 8769.067
212.8403, 8746.044
213.3224, 8725.513
213.8045, 8696.592
214.2866, 8660.505
214.7688, 8620.846
215.2509, 8570.156
215.7330, 8525.710
216.2151, 8510.897
216.6972, 8533.372
217.1793, 8561.609
217.6615, 8573.261
218.1436, 8568.766
218.6257, 8558.903
219.1078, 8547.989
219.5899, 8532.169
220.0720, 8505.157
220.5542, 8462.940
221.0363, 8421.317
221.5184, 8395.148
222.0005, 8384.995
222.4826, 8384.007
222.9647, 8406.861
223.4469, 8429.113
223.9290, 8425.867
224.4111, 8387.712
224.8932, 8340.351
225.3753, 8316.187
225.8574, 8318.625
226.3396, 8329.433
226.8217, 8353.319
227.3038, 8378.036
227.7859, 8391.547
228.2680, 8388.536
228.7501, 8380.924
229.2323, 8387.676
229.7144, 8412.564
230.1965, 8441.642
230.6786, 8482.077
231.1607, 8519.451
231.6428, 8538.297
232.1250, 8531.372
232.6071, 8512.593
233.0892, 8506.854
233.5713, 8513.453
234.0534, 8536.816
234.5355, 8596.348
235.0177, 8661.759
235.4998, 8702.901
235.9819, 8705.998
236.4640, 8687.355
236.9461, 8686.442
237.4282, 8722.664
237.9104, 8741.523
238.3925, 8717.785
238.8746, 8681.607
239.3567, 8665.729
239.8388, 8685.530
240.3209, 8724.816
240.8031, 8738.328
241.2852, 8696.453
241.7673, 8674.298
242.2494, 8696.618
242.7315, 8736.536
243.2136, 8765.192
243.6958, 8768.843
244.1779, 8757.300
244.6600, 8760.359
245.1421, 8799.427
245.6242, 8823.249
246.1063, 8814.483
246.5885, 8792.751
247.0706, 8779.037
247.5527, 8783.223
248.0348, 8801.146
248.5169, 8820.079
248.9990, 8848.621
249.4812, 8866.615
249.9633, 8862.026
250.4454, 8849.658
250.9275, 8846.600
251.4096, 8860.925
251.8917, 8887.643
252.3739, 8911.060
252.8560, 8933.331
253.3381, 8948.505
253.8202, 8947.355
254.3023, 8941.926
254.7844, 8946.792
255.2666, 8968.741
255.7487, 9002.893
256.2308, 9034.032
256.7129, 9064.705
257.1950, 9088.523
257.6772, 9096.955
258.1593, 9100.901
258.6414, 9114.758
259.1235, 9145.048
259.6056, 9184.735
260.0877, 9213.982
260.5699, 9223.181
261.0520, 9231.823
261.5341, 9241.066
262.0162, 9250.210
262.4983, 9255.334
262.9804, 9254.665
263.4626, 9255.077
263.9447, 9274.724
264.4268, 9340.277
264.9089, 9394.593
265.3910, 9436.493
265.8731, 9465.798
266.3553, 9477.082
266.8374, 9467.973
267.3195, 9451.791
267.8016, 9459.227
268.2837, 9518.559
268.7658, 9569.012
269.2480, 9602.084
269.7301, 9628.606
270.2122, 9662.376
270.6943, 9708.171
271.1764, 9757.291
271.6585, 9791.230
272.1407, 9789.218
272.6228, 9800.106
273.1049, 9837.477
273.5870, 9882.400
274.0691, 9913.791
274.5512, 9925.239
275.0334, 9926.709
275.5155, 9935.462
275.9976, 9952.371
276.4797, 9977.172
276.9618, 10013.22
277.4439, 10055.46
277.9261, 10103.40
278.4082, 10155.86
278.8903, 10203.33
279.3724, 10228.11
279.8545, 10202.70
280.3366, 10209.16
280.8188, 10283.11
281.3009, 10367.98
281.7830, 10404.39
282.2651, 10382.48
282.7472, 10350.30
283.2293, 10375.21
283.7115, 10494.36
284.1936, 10580.90
284.6757, 10614.56
285.1578, 10629.71
285.6399, 10648.56
286.1220, 10676.12
286.6042, 10709.40
287.0863, 10744.88
287.5684, 10780.33
288.0505, 10827.70
288.5326, 10906.30
289.0147, 10981.37
289.4969, 11018.44
289.9790, 11020.27
290.4611, 11028.33
290.9432, 11089.56
291.4253, 11221.80
291.9074, 11309.17
292.3896, 11311.07
292.8717, 11308.96
293.3538, 11360.44
293.8359, 11458.13
294.3180, 11547.26
294.8001, 11575.36
295.2823, 11532.79
295.7644, 11534.09
296.2465, 11601.83
296.7286, 11682.88
297.2107, 11762.64
297.6928, 11836.15
298.1750, 11895.76
298.6571, 11934.63
299.1392, 11953.04
299.6213, 11967.61
300.1034, 11947.00
300.5855, 11954.91
301.0677, 12034.67
301.5498, 12160.45
302.0319, 12276.63
302.5140, 12346.52
302.9961, 12375.77
303.4782, 12411.84
303.9604, 12471.63
304.4425, 12518.88
304.9246, 12532.27
305.4067, 12529.61
305.8888, 12542.16
306.3709, 12587.75
306.8531, 12655.27
307.3352, 12700.87
307.8173, 12710.12
308.2994, 12712.35
308.7815, 12700.69
309.2636, 12686.50
309.7458, 12685.04
310.2279, 12702.73
310.7100, 12731.73
311.1921, 12752.76
311.6742, 12761.37
312.1563, 12767.29
312.6385, 12764.31
313.1206, 12762.28
313.6027, 12770.37
314.0848, 12791.37
314.5669, 12821.65
315.0490, 12857.65
315.5312, 12920.04
316.0133, 12948.82
316.4954, 12920.29
316.9775, 12879.08
317.4596, 12856.78
317.9417, 12859.08
318.4239, 12871.28
318.9060, 12871.97
319.3881, 12847.67
319.8702, 12853.84
320.3523, 12927.96
320.8344, 12996.86
321.3166, 13016.51
321.7987, 12989.57
322.2808, 12948.00
322.7629, 12921.44
323.2450, 12910.32
323.7271, 12910.56
324.2093, 12939.96
324.6914, 12963.95
325.1735, 12966.76
325.6556, 12953.52
326.1377, 12939.11
326.6198, 12934.53
327.1020, 12939.23
327.5841, 12944.50
328.0662, 12959.18
328.5483, 12963.63
329.0304, 12946.86
329.5125, 12917.75
329.9947, 12889.85
330.4768, 12871.09
330.9589, 12859.19
331.4410, 12846.75
331.9231, 12837.32
332.4052, 12820.75
332.8874, 12795.36
333.3695, 12762.46
333.8516, 12720.80
334.3337, 12668.54
334.8158, 12614.73
335.2979, 12580.85
335.7801, 12579.17
336.2622, 12563.14
336.7443, 12507.26
337.2264, 12443.01
337.7085, 12395.52
338.1906, 12370.93
338.6728, 12353.27
339.1549, 12327.74
339.6370, 12295.71
340.1191, 12243.85
340.6012, 12141.48
341.0833, 12040.45
341.5655, 11979.07
342.0476, 11957.47
342.5297, 11939.91
343.0118, 11897.20
343.4939, 11831.57
343.9760, 11763.82
344.4582, 11689.45
344.9403, 11622.46
345.4224, 11572.36
345.9045, 11536.42
346.3866, 11504.22
346.8687, 11477.64
347.3509, 11450.34
347.8330, 11403.41
348.3151, 11330.85
348.7972, 11251.91
349.2793, 11178.28
349.7614, 11107.28
350.2436, 11033.33
350.7257, 10938.24
351.2078, 10849.78
351.6899, 10813.86
352.1720, 10834.79
352.6541, 10853.94
353.1363, 10842.33
353.6184, 10806.39
354.1005, 10760.40
354.5826, 10698.91
355.0647, 10636.71
355.5468, 10586.50
356.0290, 10545.90
356.5111, 10501.69
356.9932, 10446.94
357.4753, 10387.63
357.9574, 10335.17
358.4395, 10290.77
358.9217, 10247.97
359.4038, 10199.75
359.8859, 10152.07
360.3680, 10117.99
360.8501, 10103.26
361.3322, 10093.83
361.8144, 10069.55
362.2965, 10027.55
362.7786, 9986.947
363.2607, 9947.827
363.7428, 9912.604
364.2249, 9884.685
364.7071, 9864.227
365.1892, 9847.465
365.6713, 9832.368
366.1534, 9819.574
366.6355, 9798.408
367.1176, 9756.024
367.5998, 9717.836
368.0819, 9702.454
368.5640, 9704.180
369.0461, 9702.149
369.5282, 9681.094
370.0103, 9645.139
370.4925, 9627.476
370.9746, 9656.755
371.4567, 9670.110
371.9388, 9648.805
372.4209, 9605.707
372.9030, 9554.852
373.3852, 9502.099
373.8673, 9453.290
374.3494, 9423.926
374.8315, 9443.273
375.3136, 9434.907
375.7957, 9379.772
376.2779, 9309.279
376.7600, 9241.482
377.2421, 9183.075
377.7242, 9139.458
378.2063, 9123.209
378.6884, 9147.361
379.1706, 9148.011
379.6527, 9110.309
380.1348, 9062.457
380.6169, 9009.758
381.0990, 8956.206
381.5811, 8908.797
382.0633, 8875.764
382.5454, 8854.583
383.0275, 8820.565
383.5096, 8757.028
383.9917, 8706.307
384.4738, 8694.433
384.9560, 8700.840
385.4381, 8694.092
385.9202, 8656.654
386.4023, 8606.813
386.8844, 8580.038
387.3665, 8583.026
387.8487, 8579.857
388.3308, 8550.326
388.8129, 8512.727
389.2950, 8482.199
389.7771, 8461.310
390.2592, 8446.404
390.7414, 8435.247
391.2235, 8427.742
391.7056, 8423.793
392.1877, 8425.962
392.6698, 8427.938
393.1519, 8420.426
393.6341, 8404.239
394.1162, 8394.044
394.5983, 8402.597
395.0804, 8417.927
395.5625, 8418.539
396.0446, 8400.828
396.5268, 8384.939
397.0089, 8390.021
397.4910, 8413.352
397.9731, 8426.954
398.4552, 8426.575
398.9373, 8418.816
399.4195, 8398.740
399.9016, 8372.616
400.3837, 8364.557
400.8658, 8391.364
401.3479, 8440.278
401.8300, 8466.121
402.3122, 8455.205
402.7943, 8443.271
403.2764, 8435.123
403.7585, 8429.795
404.2406, 8426.146
404.7227, 8423.822
405.2049, 8423.295
405.6870, 8425.649
406.1691, 8433.205
406.6512, 8437.424
407.1333, 8437.348
407.6154, 8435.213
408.0976, 8430.879
408.5797, 8425.392
409.0618, 8421.812
409.5439, 8423.899
410.0260, 8431.175
410.5081, 8429.162
410.9903, 8410.018
411.4724, 8389.926
411.9545, 8372.667
412.4366, 8356.833
412.9187, 8339.286
413.4008, 8318.199
413.8830, 8297.174
414.3651, 8285.272
414.8472, 8287.306
415.3293, 8283.393
415.8114, 8262.356
416.2935, 8238.032
416.7757, 8217.377
417.2578, 8201.754
417.7399, 8194.971
418.2220, 8207.132
418.7041, 8234.381
419.1862, 8247.369
419.6684, 8237.703
420.1505, 8221.605
420.6326, 8210.544
421.1147, 8203.223
421.5968, 8195.801
422.0789, 8186.629
422.5611, 8176.742
423.0432, 8165.550
423.5253, 8153.082
424.0074, 8146.104
424.4895, 8148.692
424.9716, 8160.059
425.4538, 8176.568
425.9359, 8208.908
426.4180, 8230.590
426.9001, 8227.448
427.3822, 8206.130
427.8643, 8173.556
428.3465, 8130.223
428.8286, 8092.287
429.3107, 8086.324
429.7928, 8132.519
430.2749, 8162.698
430.7570, 8163.057
431.2392, 8157.692
431.7213, 8167.670
432.2034, 8190.805
432.6855, 8206.330
433.1676, 8194.287
433.6497, 8156.114
434.1319, 8143.202
434.6140, 8194.271
435.0961, 8228.166
435.5782, 8210.964
436.0603, 8172.970
436.5424, 8155.628
437.0246, 8176.663
437.5067, 8219.842
437.9888, 8257.996
438.4709, 8295.922
438.9530, 8314.302
439.4352, 8298.457
439.9173, 8271.564
440.3994, 8237.216
440.8815, 8200.336
441.3636, 8179.760
441.8457, 8204.720
442.3279, 8262.729
442.8100, 8288.051
443.2921, 8265.407
443.7742, 8237.803
444.2563, 8229.875
444.7384, 8235.589
445.2206, 8246.057
445.7027, 8263.125
446.1848, 8279.279
446.6669, 8289.988
447.1490, 8294.537
447.6311, 8284.203
448.1133, 8246.432
448.5954, 8203.295
449.0775, 8202.800
449.5596, 8258.113
450.0417, 8299.711
450.5238, 8301.088
451.0060, 8283.969
451.4881, 8270.448
451.9702, 8264.885
452.4523, 8266.113
452.9344, 8274.058
453.4165, 8289.442
453.8987, 8302.524
454.3808, 8317.207
454.8629, 8326.099
455.3450, 8318.059
455.8271, 8303.766
456.3092, 8302.343
456.7914, 8323.434
457.2735, 8359.462
457.7556, 8393.148
458.2377, 8430.131
458.7198, 8452.759
459.2020, 8446.733
459.6841, 8437.318
460.1662, 8438.645
460.6483, 8453.387
461.1304, 8479.710
461.6125, 8525.499
462.0947, 8587.109
462.5768, 8621.079
463.0589, 8613.357
463.5410, 8602.049
464.0231, 8603.189
464.5052, 8614.887
464.9874, 8635.480
465.4695, 8667.644
465.9516, 8703.963
466.4337, 8737.560
466.9158, 8768.426
467.3979, 8796.495
467.8801, 8820.603
468.3622, 8843.189
468.8443, 8866.766
469.3264, 8889.965
469.8085, 8919.990
470.2906, 8970.471
470.7728, 9021.746
471.2549, 9050.970
471.7370, 9057.034
472.2191, 9054.850
472.7012, 9053.361
473.1833, 9053.245
473.6655, 9075.336
474.1476, 9148.346
474.6297, 9207.438
475.1118, 9233.652
475.5939, 9237.276
476.0760, 9228.028
476.5582, 9210.307
477.0403, 9193.984
477.5224, 9197.950
478.0045, 9231.735
478.4866, 9257.124
478.9688, 9274.809
479.4509, 9282.035
479.9330, 9273.426
480.4151, 9252.229
480.8972, 9228.242
481.3793, 9208.206
481.8615, 9189.654
482.3436, 9164.640
482.8257, 9130.971
483.3078, 9099.742
483.7899, 9083.752
484.2720, 9068.777
484.7542, 9034.771
485.2363, 8974.339
485.7184, 8913.459
486.2005, 8870.412
486.6826, 8838.059
487.1647, 8799.428
487.6469, 8750.835
488.1290, 8698.921
488.6111, 8648.858
489.0932, 8600.603
489.5753, 8561.877
490.0574, 8547.052
490.5396, 8527.955
491.0217, 8488.007
491.5038, 8432.105
491.9859, 8369.064
492.4680, 8301.521
492.9501, 8238.165
493.4323, 8201.655
493.9144, 8215.513
494.3965, 8215.456
494.8786, 8193.978
495.3607, 8164.465
495.8428, 8131.083
496.3250, 8097.121
496.8071, 8069.497
497.2892, 8055.648
497.7713, 8053.221
498.2534, 8047.370
498.7355, 8034.193
499.2177, 8025.729
499.6998, 8033.183
500.1819, 8045.638
500.6640, 8050.907
501.1461, 8046.671
501.6282, 8034.140
502.1104, 8009.995
502.5925, 7977.781
503.0746, 7949.919
503.5567, 7929.884
504.0388, 7911.517
504.5209, 7885.120
505.0031, 7850.432
505.4852, 7831.720
505.9673, 7844.515
506.4494, 7861.180
506.9315, 7866.861
507.4136, 7862.740
507.8958, 7853.765
508.3779, 7842.167
508.8600, 7828.346
509.3421, 7813.618
509.8242, 7803.465
510.3063, 7782.566
510.7885, 7731.839
511.2706, 7686.353
511.7527, 7677.693
512.2348, 7699.573
512.7169, 7715.773
513.1990, 7692.488
513.6812, 7640.825
514.1633, 7618.528
514.6454, 7637.805
515.1275, 7657.492
515.6096, 7662.881
516.0917, 7659.354
516.5739, 7651.097
517.0560, 7638.479
517.5381, 7622.976
518.0202, 7602.959
518.5023, 7581.004
518.9844, 7562.116
519.4666, 7546.662
519.9487, 7538.100
520.4308, 7541.667
520.9129, 7557.494
521.3950, 7568.545
521.8771, 7571.637
522.3593, 7573.340
522.8414, 7578.469
523.3235, 7583.876
523.8056, 7582.542
524.2877, 7571.735
524.7698, 7557.459
525.2520, 7550.452
525.7341, 7555.288
526.2162, 7555.325
526.6983, 7546.290
527.1804, 7536.798
527.6625, 7529.813
528.1447, 7525.631
528.6268, 7524.499
529.1089, 7528.094
529.5910, 7532.615
530.0731, 7528.937
530.5552, 7515.665
531.0374, 7503.392
531.5195, 7491.023
532.0016, 7485.214
532.4837, 7495.708
532.9658, 7523.800
533.4479, 7547.330
533.9301, 7556.006
534.4122, 7556.194
534.8943, 7554.895
535.3764, 7552.847
535.8585, 7549.987
536.3406, 7546.220
536.8228, 7541.660
537.3049, 7537.034
537.7870, 7521.060
538.2691, 7519.687
538.7512, 7559.420
539.2333, 7600.961
539.7155, 7600.372
540.1976, 7555.061
540.6797, 7501.812
541.1618, 7477.046
541.6439, 7479.727
542.1260, 7481.020
542.6082, 7479.768
543.0903, 7479.007
543.5724, 7480.481
544.0545, 7482.750
544.5366, 7482.003
545.0187, 7475.394
545.5009, 7475.636
545.9830, 7503.576
546.4651, 7548.515
546.9472, 7570.173
547.4293, 7558.504
547.9114, 7537.425
548.3936, 7525.798
548.8757, 7524.119
549.3578, 7527.220
549.8399, 7534.506
550.3220, 7547.161
550.8041, 7578.628
551.2863, 7612.554
551.7684, 7614.101
552.2505, 7572.567
552.7326, 7522.417
553.2147, 7519.924
553.6968, 7584.410
554.1790, 7621.041
554.6611, 7603.494
555.1432, 7583.253
555.6253, 7582.147
556.1074, 7590.358
556.5895, 7584.988
557.0717, 7550.784
557.5538, 7513.976
558.0359, 7516.055
558.5180, 7555.492
559.0001, 7588.192
559.4822, 7606.375
559.9644, 7610.531
560.4465, 7590.576
560.9286, 7549.877
561.4107, 7528.195
561.8928, 7551.045
562.3749, 7579.205
562.8571, 7584.842
563.3392, 7572.527
563.8213, 7557.449
564.3034, 7546.272
564.7855, 7537.465
565.2676, 7526.846
565.7498, 7506.618
566.2319, 7502.661
566.7140, 7526.841
567.1961, 7554.036
567.6782, 7576.861
568.1603, 7592.045
568.6425, 7593.593
569.1246, 7573.855
569.6067, 7546.628
570.0888, 7542.412
570.5709, 7563.942
571.0530, 7572.955
571.5352, 7547.409
572.0173, 7518.846
572.4994, 7527.064
572.9815, 7570.496
573.4636, 7606.761
573.9457, 7623.230
574.4279, 7628.872
574.9100, 7627.204
575.3921, 7620.922
575.8742, 7618.450
576.3563, 7624.740
576.8384, 7633.711
577.3206, 7631.163
577.8027, 7609.400
578.2848, 7590.378
578.7669, 7572.509
579.2490, 7558.618
579.7311, 7549.703
580.2133, 7546.164
580.6954, 7549.547
581.1775, 7563.504
581.6596, 7580.380
582.1417, 7580.800
582.6238, 7562.460
583.1060, 7555.254
583.5881, 7575.257
584.0702, 7600.807
584.5523, 7605.839
585.0344, 7591.151
585.5165, 7579.100
585.9987, 7570.145
586.4808, 7570.179
586.9629, 7593.992
587.4450, 7632.423
587.9271, 7654.642
588.4092, 7645.417
588.8914, 7618.563
589.3735, 7602.645
589.8556, 7600.912
590.3377, 7603.647
590.8198, 7616.305
591.3019, 7627.853
591.7841, 7634.020
592.2662, 7634.606
592.7483, 7629.078
593.2304, 7614.391
593.7125, 7599.653
594.1946, 7605.240
594.6768, 7630.895
595.1589, 7639.170
595.6410, 7612.055
596.1231, 7578.405
596.6052, 7575.639
597.0873, 7600.671
597.5695, 7612.465
598.0516, 7596.021
598.5337, 7573.199
599.0158, 7551.719
599.4979, 7534.793
599.9800, 7527.326
600.4622, 7531.252
600.9443, 7545.451
601.4264, 7570.513
601.9085, 7612.522
602.3906, 7642.958
602.8727, 7664.734
603.3549, 7670.765
603.8370, 7642.839
604.3191, 7600.986
604.8012, 7581.743
605.2833, 7604.001
605.7654, 7633.544
606.2476, 7630.871
606.7297, 7603.490
607.2118, 7586.947
607.6939, 7589.954
608.1760, 7595.196
608.6581, 7584.510
609.1403, 7559.020
609.6224, 7550.197
610.1045, 7569.949
610.5866, 7591.515
611.0687, 7612.978
611.5508, 7628.283
612.0330, 7625.953
612.5151, 7605.313
612.9972, 7581.956
613.4793, 7573.688
613.9614, 7579.886
614.4435, 7582.212
614.9257, 7577.377
615.4078, 7574.750
615.8899, 7582.677
616.3720, 7592.525
616.8541, 7592.940
617.3362, 7580.556
617.8184, 7569.977
618.3005, 7573.180
618.7826, 7581.803
619.2647, 7582.124
619.7468, 7573.523
620.2289, 7565.068
620.7111, 7563.281
621.1932, 7565.772
621.6753, 7563.124
622.1574, 7550.954
622.6395, 7539.734
623.1216, 7527.549
623.6038, 7518.220
624.0859, 7514.387
624.5680, 7515.888
625.0501, 7521.355
625.5322, 7531.045
626.0143, 7542.716
626.4965, 7549.799
626.9786, 7551.591
627.4607, 7563.099
627.9428, 7598.669
628.4249, 7632.342
628.9070, 7620.096
629.3892, 7562.884
629.8713, 7532.738
630.3534, 7567.925
630.8355, 7606.693
631.3176, 7609.132
631.7997, 7586.957
632.2819, 7564.794
632.7640, 7552.257
633.2461, 7547.714
633.7282, 7550.566
634.2103, 7563.031
634.6924, 7569.900
635.1746, 7573.279
635.6567, 7567.881
636.1388, 7541.609
636.6209, 7509.372
637.1030, 7494.267
637.5851, 7503.217
638.0673, 7523.910
638.5494, 7559.330
639.0315, 7597.261
639.5136, 7609.257
639.9957, 7592.273
640.4778, 7570.807
640.9600, 7562.396
641.4421, 7565.145
641.9242, 7568.110
642.4063, 7572.882
642.8884, 7575.548
643.3705, 7568.850
643.8527, 7565.229
644.3348, 7580.729
644.8169, 7610.552
645.2990, 7631.180
645.7811, 7625.018
646.2632, 7601.548
646.7454, 7573.385
647.2275, 7540.153
647.7096, 7528.809
648.1917, 7555.586
648.6738, 7594.623
649.1559, 7613.465
649.6381, 7610.673
650.1202, 7609.617
650.6023, 7614.856
651.0844, 7619.173
651.5665, 7618.458
652.0486, 7614.383
652.5308, 7608.616
653.0129, 7602.072
653.4950, 7598.086
653.9771, 7602.012
654.4592, 7614.150
654.9413, 7626.784
655.4235, 7647.729
655.9056, 7654.402
656.3877, 7608.769
656.8698, 7553.016
657.3519, 7550.019
657.8340, 7621.245
658.3162, 7684.990
658.7983, 7700.282
659.2804, 7690.715
659.7625, 7677.555
660.2446, 7665.313
660.7267, 7661.609
661.2089, 7672.616
661.6910, 7689.587
662.1731, 7685.413
662.6552, 7643.603
663.1373, 7619.675
663.6194, 7627.858
664.1016, 7645.020
664.5837, 7667.834
665.0658, 7690.644
665.5479, 7700.681
666.0300, 7688.269
666.5121, 7670.352
666.9943, 7660.179
667.4764, 7657.493
667.9585, 7664.464
668.4406, 7681.992
668.9227, 7697.556
669.4048, 7698.271
669.8870, 7685.439
670.3691, 7682.138
670.8512, 7696.204
671.3333, 7710.239
671.8154, 7724.874
672.2975, 7736.926
672.7797, 7739.945
673.2618, 7736.032
673.7439, 7738.560
674.2260, 7761.689
674.7081, 7793.879
675.1902, 7813.698
675.6724, 7821.434
676.1545, 7821.583
676.6366, 7812.181
677.1187, 7803.885
677.6008, 7811.720
678.0829, 7839.250
678.5651, 7862.244
679.0472, 7886.502
679.5293, 7899.634
680.0114, 7885.479
680.4935, 7862.229
680.9756, 7856.548
681.4578, 7874.564
681.9399, 7895.457
682.4220, 7895.542
682.9041, 7879.220
683.3862, 7868.110
683.8683, 7861.831
684.3505, 7864.407
684.8326, 7880.850
685.3147, 7904.816
685.7968, 7924.953
686.2789, 7940.652
686.7610, 7955.884
687.2432, 7972.973
687.7253, 7988.228
688.2074, 7993.672
688.6895, 7996.337
689.1716, 8013.436
689.6537, 8052.274
690.1359, 8096.333
690.6180, 8118.145
691.1001, 8117.656
691.5822, 8130.512
692.0643, 8162.685
692.5464, 8198.201
693.0286, 8230.160
693.5107, 8258.885
693.9928, 8283.944
694.4749, 8301.242
694.9570, 8325.581
695.4391, 8369.357
695.9213, 8416.106
696.4034, 8443.263
696.8855, 8458.247
697.3676, 8491.171
697.8497, 8560.119
698.3318, 8644.718
698.8140, 8700.394
699.2961, 8720.494
699.7782, 8761.697
700.2603, 8834.140
700.7424, 8919.997
701.2245, 9020.997
701.7067, 9126.003
702.1888, 9207.035
702.6709, 9239.883
703.1530, 9289.254
703.6351, 9388.821
704.1172, 9514.912
704.5994, 9644.848
705.0815, 9775.158
705.5636, 9910.395
706.0457, 10054.65
706.5278, 10203.89
707.0099, 10341.38
707.4921, 10458.34
707.9742, 10604.46
708.4563, 10789.97
708.9384, 11001.40
709.4205, 11235.59
709.9026, 11486.56
710.3848, 11737.89
710.8669, 11973.06
711.3490, 12228.57
711.8311, 12528.97
712.3132, 12854.86
712.7953, 13183.02
713.2775, 13511.99
713.7596, 13851.21
714.2417, 14211.00
714.7238, 14588.44
715.2059, 14985.21
715.6880, 15406.83
716.1702, 15820.02
716.6523, 16214.21
717.1344, 16610.23
717.6165, 17018.54
718.0986, 17441.22
718.5807, 17887.36
719.0629, 18404.64
719.5450, 18890.64
720.0271, 19273.70
720.5092, 19607.31
720.9913, 19971.10
721.4734, 20367.85
721.9556, 20738.48
722.4377, 21039.89
722.9198, 21278.73
723.4019, 21479.59
723.8840, 21653.55
724.3661, 21746.37
724.8483, 21737.49
725.3304, 21656.00
725.8125, 21514.35
726.2946, 21319.69
726.7767, 21097.02
727.2589, 20856.15
727.7410, 20580.85
728.2231, 20267.14
728.7052, 19914.16
729.1873, 19510.66
729.6694, 19064.89
730.1516, 18610.80
730.6337, 18176.19
731.1158, 17751.77
731.5979, 17309.91
732.0800, 16848.42
732.5621, 16379.90
733.0443, 15885.84
733.5264, 15416.62
734.0085, 15028.71
734.4906, 14703.94
734.9727, 14364.22
735.4548, 13983.54
735.9370, 13613.07
736.4191, 13265.84
736.9012, 12938.99
737.3833, 12637.94
737.8654, 12356.50
738.3475, 12074.04
738.8297, 11772.08
739.3118, 11472.84
739.7939, 11238.18
740.2760, 11070.23
740.7581, 10903.46
741.2402, 10723.93
741.7224, 10551.42
742.2045, 10407.86
742.6866, 10287.24
743.1687, 10152.16
743.6508, 9977.329
744.1329, 9822.718
744.6151, 9707.516
745.0972, 9610.865
745.5793, 9520.204
746.0614, 9432.321
746.5435, 9341.781
747.0256, 9243.866
747.5078, 9151.067
747.9899, 9090.704
748.4720, 9057.103
748.9541, 9006.006
749.4362, 8927.421
749.9183, 8850.059
750.4005, 8794.351
750.8826, 8756.558
751.3647, 8721.290
751.8468, 8697.146
752.3289, 8662.639
752.8110, 8598.860
753.2932, 8541.605
753.7753, 8526.601
754.2574, 8533.955
754.7395, 8513.030
755.2216, 8437.067
755.7037, 8356.962
756.1859, 8333.923
756.6680, 8345.095
757.1501, 8327.747
757.6322, 8276.153
758.1143, 8227.969
758.5964, 8206.484
759.0786, 8200.406
759.5607, 8180.050
760.0428, 8132.017
760.5249, 8100.608
761.0070, 8100.961
761.4891, 8102.146
761.9713, 8097.368
762.4534, 8084.121
762.9355, 8055.630
763.4176, 8007.348
763.8997, 7965.075
764.3818, 7948.631
764.8640, 7944.778
765.3461, 7939.288
765.8282, 7930.728
766.3103, 7919.109
766.7924, 7904.314
767.2745, 7886.695
767.7567, 7862.911
768.2388, 7830.104
768.7209, 7824.615
769.2030, 7867.322
769.6851, 7897.280
770.1672, 7882.456
770.6494, 7845.428
771.1315, 7809.147
771.6136, 7773.178
772.0957, 7751.180
772.5778, 7753.020
773.0599, 7763.670
773.5421, 7781.546
774.0242, 7798.552
774.5063, 7798.957
774.9884, 7780.032
775.4705, 7758.419
775.9526, 7749.830
776.4348, 7752.557
776.9169, 7762.459
777.3990, 7780.560
777.8811, 7793.538
778.3632, 7794.890
778.8453, 7794.621
779.3275, 7806.742
779.8096, 7832.479
780.2917, 7842.462
780.7738, 7821.053
781.2559, 7805.012
781.7380, 7802.882
782.2202, 7809.705
782.7023, 7821.264
783.1844, 7837.047
783.6665, 7858.845
784.1486, 7891.679
784.6307, 7925.241
785.1129, 7941.919
785.5950, 7948.590
786.0771, 7968.670
786.5592, 8006.347
787.0413, 8046.817
787.5234, 8077.116
788.0056, 8102.228
788.4877, 8145.760
788.9698, 8222.988
789.4519, 8282.506
789.9340, 8298.703
790.4161, 8318.143
790.8983, 8374.651
791.3804, 8450.133
791.8625, 8502.396
792.3446, 8508.292
792.8267, 8529.721
793.3088, 8614.350
793.7910, 8715.363
794.2731, 8782.233
794.7552, 8820.508
795.2373, 8860.429
795.7194, 8916.017
796.2015, 8982.242
796.6837, 9055.693
797.1658, 9135.646
797.6479, 9200.791
798.1300, 9243.858
798.6121, 9303.867
799.0942, 9406.901
799.5764, 9527.497
800.0585, 9625.960
800.5406, 9698.517
801.0227, 9762.400
801.5048, 9798.621
801.9869, 9849.232
802.4691, 9943.198
802.9512, 10052.18
803.4333, 10146.73
803.9154, 10220.76
804.3975, 10277.15
804.8796, 10311.14
805.3618, 10333.42
805.8439, 10360.27
806.3260, 10387.55
806.8081, 10400.58
807.2902, 10395.87
807.7723, 10385.12
808.2545, 10381.11
808.7366, 10378.68
809.2187, 10346.64
809.7008, 10273.81
810.1829, 10202.35
810.6650, 10142.12
811.1472, 10079.94
811.6293, 10007.38
812.1114, 9925.572
812.5935, 9837.807
813.0756, 9742.643
813.5577, 9644.394
814.0399, 9526.997
814.5220, 9420.800
815.0041, 9364.648
815.4862, 9341.406
815.9683, 9302.027
816.4504, 9224.224
816.9326, 9133.328
817.4147, 9053.047
817.8968, 8985.337
818.3789, 8940.850
818.8610, 8920.197
819.3431, 8906.005
819.8253, 8892.075
820.3074, 8876.110
820.7895, 8851.937
821.2716, 8814.792
821.7537, 8800.573
822.2358, 8817.798
822.7180, 8847.434
823.2001, 8894.348
823.6822, 8944.400
824.1643, 8982.396
824.6464, 9008.728
825.1285, 9039.936
825.6107, 9079.134
826.0928, 9128.018
826.5749, 9184.741
827.0570, 9253.503
827.5391, 9345.270
828.0212, 9457.786
828.5034, 9571.231
828.9855, 9668.901
829.4677, 9767.368
829.9498, 9901.811
830.4319, 10071.36
830.9140, 10251.68
831.3961, 10441.18
831.8782, 10634.17
832.3604, 10823.79
832.8425, 11014.77
833.3246, 11217.15
833.8067, 11429.66
834.2888, 11657.96
834.7709, 11916.06
835.2531, 12173.42
835.7352, 12421.09
836.2173, 12659.35
836.6994, 12886.26
837.1815, 13100.88
837.6636, 13318.04
838.1458, 13567.75
838.6279, 13803.87
839.1100, 13986.72
839.5921, 14121.21
840.0742, 14218.41
840.5563, 14282.15
841.0385, 14312.61
841.5206, 14310.80
842.0027, 14274.96
842.4848, 14202.19
842.9669, 14092.57
843.4490, 13928.30
843.9312, 13692.33
844.4133, 13440.81
844.8954, 13221.61
845.3775, 13021.70
845.8596, 12778.58
846.3417, 12461.59
846.8239, 12144.28
847.3060, 11810.39
847.7881, 11494.06
848.2702, 11222.31
848.7523, 10976.49
849.2344, 10722.86
849.7166, 10450.63
850.1987, 10195.05
850.6808, 9979.844
851.1629, 9785.519
851.6450, 9595.035
852.1271, 9411.429
852.6093, 9244.471
853.0914, 9096.830
853.5735, 8966.137
854.0556, 8851.928
854.5377, 8749.913
855.0198, 8642.613
855.5020, 8530.107
855.9841, 8418.591
856.4662, 8306.448
856.9483, 8204.942
857.4304, 8127.965
857.9125, 8069.268
858.3947, 7991.100
858.8768, 7872.382
859.3589, 7769.512
859.8410, 7687.848
860.3231, 7619.320
860.8052, 7569.501
861.2874, 7527.617
861.7695, 7472.235
862.2516, 7394.251
862.7337, 7327.416
863.2158, 7296.528
863.6979, 7273.196
864.1801, 7234.530
864.6622, 7185.922
865.1443, 7139.753
865.6264, 7099.711
866.1085, 7063.724
866.5906, 7031.505
867.0728, 7000.880
867.5549, 6960.460
868.0370, 6914.014
868.5191, 6894.796
869.0012, 6912.750
869.4833, 6931.287
869.9655, 6919.192
870.4476, 6882.350
870.9297, 6844.822
871.4118, 6801.562
871.8939, 6772.135
872.3760, 6768.929
872.8582, 6765.400
873.3403, 6743.566
873.8224, 6712.538
874.3045, 6687.742
874.7866, 6671.327
875.2687, 6655.634
875.7509, 6639.446
876.2330, 6623.144
876.7151, 6600.189
877.1972, 6580.526
877.6793, 6582.977
878.1614, 6607.397
878.6436, 6626.101
879.1257, 6619.397
879.6078, 6598.606
880.0899, 6571.489
880.5720, 6542.214
881.0541, 6522.505
881.5363, 6513.459
882.0184, 6505.478
882.5005, 6491.580
882.9826, 6475.651
883.4647, 6467.995
883.9468, 6469.257
884.4290, 6462.900
884.9111, 6446.418
885.3932, 6427.208
885.8753, 6407.172
886.3574, 6388.543
886.8395, 6375.273
887.3217, 6367.722
887.8038, 6363.513
888.2859, 6366.186
888.7680, 6367.525
889.2501, 6372.721
889.7322, 6370.532
890.2144, 6339.635
890.6965, 6287.738
891.1786, 6261.620
891.6607, 6298.072
892.1428, 6331.955
892.6249, 6327.486
893.1071, 6305.350
893.5892, 6282.808
894.0713, 6263.580
894.5534, 6250.232
895.0355, 6244.312
895.5176, 6239.185
895.9998, 6224.756
896.4819, 6206.404
896.9640, 6196.574
897.4461, 6195.387
897.9282, 6201.513
898.4103, 6214.797
898.8925, 6229.610
899.3746, 6242.238
899.8567, 6250.134
900.3388, 6228.832
900.8209, 6166.508
901.3030, 6126.217
901.7852, 6126.595
902.2673, 6138.169
902.7494, 6142.475
903.2315, 6140.139
903.7136, 6133.097
904.1957, 6117.001
904.6779, 6104.333
905.1600, 6094.298
905.6421, 6088.894
906.1242, 6095.864
906.6063, 6104.644
907.0884, 6097.837
907.5706, 6073.431
908.0527, 6056.637
908.5348, 6071.419
909.0169, 6082.871
909.4990, 6058.056
909.9811, 6020.822
910.4633, 6005.755
910.9454, 6013.390
911.4275, 6018.495
911.9096, 6004.737
912.3917, 5987.858
912.8738, 5992.868
913.3560, 6010.689
913.8381, 6014.460
914.3202, 6003.769
914.8023, 5997.530
915.2844, 6004.929
915.7665, 6010.797
916.2487, 5989.816
916.7308, 5944.697
917.2129, 5924.161
917.6950, 5932.138
918.1771, 5947.395
918.6592, 5972.231
919.1414, 5985.443
919.6235, 5960.917
920.1056, 5907.829
920.5877, 5881.832
921.0698, 5908.420
921.5519, 5920.023
922.0341, 5909.184
922.5162, 5890.314
922.9983, 5857.005
923.4804, 5825.296
923.9625, 5823.617
924.4446, 5858.548
924.9268, 5886.560
925.4089, 5895.948
925.8910, 5893.710
926.3731, 5876.396
926.8552, 5854.050
927.3373, 5834.395
927.8195, 5820.914
928.3016, 5821.887
928.7837, 5849.959
929.2658, 5873.176
929.7479, 5852.867
930.2300, 5810.279
930.7122, 5776.811
931.1943, 5756.021
931.6764, 5746.963
932.1585, 5749.123
932.6406, 5758.687
933.1227, 5776.609
933.6049, 5797.263
934.0870, 5794.019
934.5691, 5767.748
935.0512, 5739.155
935.5333, 5712.332
936.0154, 5693.800
936.4976, 5689.655
936.9797, 5697.155
937.4618, 5707.905
937.9439, 5726.203
938.4260, 5730.641
938.9081, 5713.439
939.3903, 5694.769
939.8724, 5677.656
940.3545, 5669.479
940.8366, 5688.328
941.3187, 5743.206
941.8008, 5768.812
942.2830, 5742.342
942.7651, 5717.305
943.2472, 5712.441
943.7293, 5707.722
944.2114, 5680.964
944.6935, 5640.005
945.1757, 5614.441
945.6578, 5618.975
946.1399, 5620.807
946.6220, 5594.940
947.1041, 5571.994
947.5862, 5580.746
948.0684, 5608.649
948.5505, 5636.561
949.0326, 5657.841
949.5147, 5662.654
949.9968, 5630.520
950.4789, 5591.496
950.9611, 5579.764
951.4432, 5586.865
951.9253, 5603.765
952.4074, 5624.085
952.8895, 5628.351
953.3716, 5604.435
953.8538, 5568.713
954.3359, 5538.918
954.8180, 5517.955
955.3001, 5524.915
955.7822, 5558.138
956.2643, 5581.695
956.7465, 5583.089
957.2286, 5575.562
957.7107, 5573.797
958.1928, 5574.710
958.6749, 5558.197
959.1570, 5518.791
959.6392, 5495.120
960.1213, 5497.596
960.6034, 5500.297
961.0855, 5486.134
961.5676, 5464.221
962.0497, 5453.242
962.5319, 5454.429
963.0140, 5461.168
963.4961, 5484.440
963.9782, 5496.770
964.4603, 5478.797
964.9424, 5456.842
965.4246, 5454.769
965.9067, 5468.308
966.3888, 5475.379
966.8709, 5467.844
967.3530, 5463.853
967.8351, 5478.396
968.3173, 5484.980
968.7994, 5457.561
969.2815, 5416.745
969.7636, 5394.468
970.2457, 5396.293
970.7278, 5405.409
971.2100, 5427.598
971.6921, 5440.152
972.1742, 5413.943
972.6563, 5380.331
973.1384, 5382.701
973.6205, 5413.848
974.1027, 5435.128
974.5848, 5429.062
975.0669, 5412.500
975.5490, 5393.274
976.0311, 5377.575
976.5132, 5378.240
976.9954, 5389.350
977.4775, 5393.427
977.9596, 5386.996
978.4417, 5382.440
978.9238, 5390.681
979.4059, 5404.573
979.8881, 5410.615
980.3702, 5410.692
980.8523, 5412.721
981.3344, 5417.138
981.8165, 5419.662
982.2986, 5418.439
982.7808, 5411.148
983.2629, 5389.884
983.7450, 5359.311
984.2271, 5358.962
984.7092, 5390.861
985.1913, 5420.266
985.6735, 5440.872
986.1556, 5452.060
986.6377, 5453.337
987.1198, 5444.705
987.6019, 5424.122
988.0840, 5386.475
988.5662, 5359.053
989.0483, 5345.597
989.5304, 5332.792
990.0125, 5315.288
990.4946, 5297.464
990.9767, 5285.420
991.4589, 5278.363
991.9410, 5264.899
992.4231, 5242.650
992.9052, 5217.855
993.3873, 5179.109
993.8694, 5151.125
994.3516, 5156.260
994.8337, 5174.572
995.3158, 5171.728
995.7979, 5142.138
996.2800, 5128.878
996.7621, 5164.361
997.2443, 5180.528
997.7264, 5132.868
998.2085, 5080.261
998.6906, 5078.928
999.1727, 5112.508
999.6548, 5126.723
1000.137, 5103.466
1000.619, 5084.681
1001.101, 5092.710
1001.583, 5102.233
1002.065, 5093.376
1002.548, 5078.836
1003.030, 5078.651
1003.512, 5092.036
1003.994, 5098.694
1004.476, 5086.393
1004.958, 5071.240
1005.440, 5062.573
1005.922, 5058.019
1006.404, 5054.902
1006.887, 5053.790
1007.369, 5059.938
1007.851, 5073.274
1008.333, 5077.543
1008.815, 5050.733
1009.297, 5019.369
1009.779, 5018.988
1010.261, 5034.108
1010.744, 5039.516
1011.226, 5031.954
1011.708, 5011.956
1012.190, 4979.451
1012.672, 4951.867
1013.154, 4952.528
1013.636, 4970.270
1014.118, 4985.603
1014.600, 4997.024
1015.083, 4997.462
1015.565, 4987.171
1016.047, 4981.858
1016.529, 4993.494
1017.011, 5008.681
1017.493, 5001.042
1017.975, 4976.462
1018.457, 4963.351
1018.940, 4961.855
1019.422, 4960.094
1019.904, 4954.280
1020.386, 4946.016
1020.868, 4935.938
1021.350, 4926.309
1021.832, 4925.608
1022.314, 4933.586
1022.796, 4939.582
1023.279, 4943.086
1023.761, 4936.005
1024.243, 4911.791
1024.725, 4889.975
1025.207, 4899.624
1025.689, 4935.034
1026.171, 4942.680
1026.653, 4917.350
1027.135, 4898.069
1027.618, 4890.982
1028.100, 4889.666
1028.582, 4892.684
1029.064, 4894.664
1029.546, 4883.621
1030.028, 4857.570
1030.510, 4847.836
1030.992, 4861.465
1031.474, 4870.767
1031.957, 4872.409
1032.439, 4861.757
1032.921, 4828.939
1033.403, 4785.563
1033.885, 4765.623
1034.367, 4776.721
1034.849, 4785.015
1035.331, 4790.787
1035.814, 4793.384
1036.296, 4792.437
1036.778, 4788.567
1037.260, 4782.501
1037.742, 4774.067
1038.224, 4762.098
1038.706, 4741.655
1039.188, 4726.823
1039.671, 4717.748
1040.153, 4713.989
1040.635, 4715.709
1041.117, 4722.380
1041.599, 4740.371
1042.081, 4767.594
1042.563, 4769.959
1043.045, 4712.489
1043.527, 4682.397
1044.010, 4705.759
1044.492, 4735.421
1044.974, 4755.813
1045.456, 4765.400
1045.938, 4760.133
1046.420, 4739.478
1046.902, 4720.911
1047.384, 4704.154
1047.866, 4692.840
1048.349, 4687.558
1048.831, 4687.987
1049.313, 4700.229
1049.795, 4715.645
1050.277, 4718.996
1050.759, 4707.973
1051.241, 4692.934
1051.723, 4663.389
1052.206, 4646.601
1052.688, 4667.204
1053.170, 4689.178
1053.652, 4678.667
1054.134, 4648.595
1054.616, 4634.173
1055.098, 4645.144
1055.580, 4649.151
1056.063, 4624.611
1056.545, 4607.401
1057.027, 4624.942
1057.509, 4647.146
1057.991, 4642.565
1058.473, 4618.032
1058.955, 4600.823
1059.437, 4597.899
1059.919, 4599.177
1060.401, 4607.344
1060.884, 4611.859
1061.366, 4606.116
1061.848, 4594.451
1062.330, 4578.118
1062.812, 4560.253
1063.294, 4550.604
1063.776, 4556.260
1064.258, 4557.679
1064.741, 4543.195
1065.223, 4526.678
1065.705, 4513.530
1066.187, 4505.688
1066.669, 4508.680
1067.151, 4519.514
1067.633, 4522.337
1068.115, 4506.213
1068.598, 4494.379
1069.080, 4502.556
1069.562, 4512.615
1070.044, 4510.219
1070.526, 4502.271
1071.008, 4501.161
1071.490, 4506.580
1071.972, 4505.163
1072.454, 4487.232
1072.937, 4470.378
1073.419, 4466.344
1073.901, 4462.817
1074.383, 4449.073
1074.865, 4430.034
1075.347, 4409.537
1075.829, 4390.694
1076.311, 4388.427
1076.794, 4425.338
1077.276, 4453.659
1077.758, 4440.814
1078.240, 4419.306
1078.722, 4409.841
1079.204, 4412.745
1079.686, 4429.157
1080.168, 4457.252
1080.651, 4479.575
1081.133, 4488.584
1081.615, 4490.703
1082.097, 4486.617
1082.579, 4479.005
1083.061, 4464.259
1083.543, 4450.097
1084.025, 4452.013
1084.507, 4471.575
1084.990, 4486.305
1085.472, 4489.612
1085.954, 4482.559
1086.436, 4458.263
1086.918, 4430.613
1087.400, 4410.936
1087.882, 4396.519
1088.364, 4380.112
1088.846, 4360.499
1089.329, 4345.487
1089.811, 4342.568
1090.293, 4339.106
1090.775, 4326.874
1091.257, 4314.503
1091.739, 4312.947
1092.221, 4315.031
1092.703, 4304.479
1093.186, 4278.684
1093.668, 4260.078
1094.150, 4257.879
1094.632, 4262.410
1095.114, 4277.203
1095.596, 4290.292
1096.078, 4295.769
1096.560, 4291.615
1097.042, 4269.811
1097.525, 4228.950
1098.007, 4204.831
1098.489, 4220.646
1098.971, 4237.930
1099.453, 4243.629
1099.935, 4246.068
1100.417, 4254.604
1100.899, 4263.024
1101.381, 4257.513
1101.864, 4235.656
1102.346, 4218.559
1102.828, 4214.976
1103.310, 4210.754
1103.792, 4205.424
1104.274, 4194.665
1104.756, 4167.941
1105.238, 4137.071
1105.721, 4122.377
1106.203, 4126.327
1106.685, 4135.886
1107.167, 4158.691
1107.649, 4173.386
1108.131, 4169.963
1108.613, 4163.227
1109.095, 4164.170
1109.578, 4166.760
1110.060, 4159.442
1110.542, 4140.813
1111.024, 4125.789
1111.506, 4114.731
1111.988, 4107.975
1112.470, 4108.920
1112.952, 4110.458
1113.434, 4110.826
1113.917, 4108.399
1114.399, 4098.318
1114.881, 4079.700
1115.363, 4071.496
1115.845, 4080.094
1116.327, 4088.031
1116.809, 4099.057
1117.291, 4100.820
1117.773, 4077.804
1118.256, 4050.986
1118.738, 4053.402
1119.220, 4084.123
1119.702, 4097.034
1120.184, 4085.895
1120.666, 4071.351
1121.148, 4050.631
1121.630, 4036.821
1122.113, 4038.240
1122.595, 4046.391
1123.077, 4052.287
1123.559, 4055.175
1124.041, 4044.327
1124.523, 4011.977
1125.005, 4000.466
1125.487, 4020.071
1125.969, 4034.872
1126.452, 4028.313
1126.934, 4015.958
1127.416, 4016.708
1127.898, 4025.810
1128.380, 4017.240
1128.862, 3988.677
1129.344, 3972.858
1129.826, 3972.999
1130.308, 3978.589
1130.791, 3986.720
1131.273, 3992.285
1131.755, 3989.788
1132.237, 3981.829
1132.719, 3975.117
1133.201, 3969.800
1133.683, 3966.574
1134.165, 3965.682
1134.648, 3975.256
1135.130, 3997.670
1135.612, 4007.397
1136.094, 3980.304
1136.576, 3938.661
1137.058, 3927.428
1137.540, 3939.396
1138.022, 3951.959
1138.505, 3962.724
1138.987, 3965.135
1139.469, 3958.093
1139.951, 3945.936
1140.433, 3930.596
1140.915, 3917.319
1141.397, 3915.354
1141.879, 3919.505
1142.361, 3920.416
1142.844, 3918.617
1143.326, 3914.240
1143.808, 3909.132
1144.290, 3913.423
1144.772, 3934.107
1145.254, 3946.955
1145.736, 3916.956
1146.218, 3876.945
1146.700, 3862.208
1147.183, 3865.951
1147.665, 3882.039
1148.147, 3904.005
1148.629, 3917.811
1149.111, 3917.872
1149.593, 3917.688
1150.075, 3935.134
1150.557, 3944.663
1151.040, 3918.668
1151.522, 3882.752
1152.004, 3861.835
1152.486, 3854.914
1152.968, 3856.115
1153.450, 3864.296
1153.932, 3865.194
1154.414, 3835.188
1154.896, 3821.905
1155.379, 3868.431
1155.861, 3913.351
1156.343, 3907.158
1156.825, 3872.092
1157.307, 3843.865
1157.789, 3826.255
1158.271, 3817.451
1158.753, 3826.844
1159.235, 3830.294
1159.718, 3816.327
1160.200, 3806.018
1160.682, 3814.933
1161.164, 3827.591
1161.646, 3825.681
1162.128, 3811.091
1162.610, 3798.572
1163.092, 3782.910
1163.575, 3784.215
1164.057, 3815.098
1164.539, 3834.096
1165.021, 3824.428
1165.503, 3803.798
1165.985, 3785.351
1166.467, 3771.309
1166.949, 3769.530
1167.432, 3781.670
1167.914, 3792.517
1168.396, 3802.511
1168.878, 3806.885
1169.360, 3804.327
1169.842, 3796.584
1170.324, 3784.180
1170.806, 3770.606
1171.288, 3761.774
1171.771, 3757.077
1172.253, 3752.582
1172.735, 3748.800
1173.217, 3751.630
1173.699, 3760.384
1174.181, 3759.824
1174.663, 3742.613
1175.145, 3726.896
1175.627, 3736.634
1176.110, 3756.207
1176.592, 3761.858
1177.074, 3755.419
1177.556, 3732.627
1178.038, 3701.972
1178.520, 3688.692
1179.002, 3699.089
1179.484, 3714.454
1179.967, 3724.415
1180.449, 3731.135
1180.931, 3740.106
1181.413, 3743.377
1181.895, 3726.382
1182.377, 3701.235
1182.859, 3690.043
1183.341, 3692.774
1183.823, 3687.418
1184.306, 3658.070
1184.788, 3642.292
1185.270, 3671.718
1185.752, 3695.851
1186.234, 3679.668
1186.716, 3653.366
1187.198, 3645.846
1187.680, 3654.429
1188.162, 3666.581
1188.645, 3685.365
1189.127, 3693.085
1189.609, 3681.176
1190.091, 3671.800
1190.573, 3669.543
1191.055, 3669.862
1191.537, 3672.235
1192.019, 3672.988
1192.502, 3664.601
1192.984, 3647.620
1193.466, 3640.132
1193.948, 3644.043
1194.430, 3646.866
1194.912, 3647.665
1195.394, 3643.514
1195.876, 3631.837
1196.359, 3625.218
1196.841, 3639.650
1197.323, 3662.446
1197.805, 3653.337
1198.287, 3620.518
1198.769, 3607.746
1199.251, 3614.538
1199.733, 3628.527
1200.215, 3644.020
1200.698, 3644.071
1201.180, 3615.631
1201.662, 3583.048
1202.144, 3574.087
1202.626, 3579.959
1203.108, 3598.119
1203.590, 3616.499
1204.072, 3610.487
1204.554, 3585.368
1205.037, 3567.797
1205.519, 3566.932
1206.001, 3565.192
1206.483, 3545.838
1206.965, 3531.452
1207.447, 3541.930
1207.929, 3555.513
1208.411, 3549.963
1208.894, 3537.094
1209.376, 3540.315
1209.858, 3560.502
1210.340, 3572.880
1210.822, 3568.698
1211.304, 3564.844
1211.786, 3565.181
1212.268, 3562.328
1212.750, 3552.033
1213.233, 3539.724
1213.715, 3527.612
1214.197, 3518.933
1214.679, 3525.486
1215.161, 3550.877
1215.643, 3562.376
1216.125, 3558.643
1216.607, 3547.403
1217.089, 3528.902
1217.572, 3513.500
1218.054, 3507.134
1218.536, 3504.833
1219.018, 3499.092
1219.500, 3492.628
1219.982, 3498.253
1220.464, 3510.250
1220.946, 3501.778
1221.429, 3477.421
1221.911, 3471.519
1222.393, 3491.657
1222.875, 3505.493
1223.357, 3487.329
1223.839, 3463.921
1224.321, 3459.073
1224.803, 3465.517
1225.286, 3486.153
1225.768, 3506.061
1226.250, 3497.868
1226.732, 3468.762
1227.214, 3454.702
1227.696, 3469.375
1228.178, 3475.711
1228.660, 3450.840
1229.142, 3430.207
1229.625, 3428.756
1230.107, 3432.906
1230.589, 3434.332
1231.071, 3434.752
1231.553, 3439.347
1232.035, 3447.462
1232.517, 3443.538
1232.999, 3423.069
1233.481, 3403.089
1233.964, 3382.466
1234.446, 3368.798
1234.928, 3363.630
1235.410, 3372.662
1235.892, 3404.320
1236.374, 3442.185
1236.856, 3449.962
1237.338, 3431.605
1237.821, 3407.159
1238.303, 3379.147
1238.785, 3359.193
1239.267, 3349.503
1239.749, 3353.399
1240.231, 3371.687
1240.713, 3386.458
1241.195, 3379.295
1241.677, 3364.079
1242.160, 3350.236
1242.642, 3341.942
1243.124, 3350.159
1243.606, 3364.833
1244.088, 3365.528
1244.570, 3352.573
1245.052, 3347.244
1245.534, 3361.215
1246.016, 3368.404
1246.499, 3354.025
1246.981, 3341.180
1247.463, 3339.139
1247.945, 3341.532
1248.427, 3345.768
1248.909, 3349.644
1249.391, 3349.225
1249.873, 3344.510
1250.356, 3336.608
1250.838, 3324.262
1251.320, 3315.401
1251.802, 3311.820
1252.284, 3303.459
1252.766, 3285.398
1253.248, 3271.106
1253.730, 3272.955
1254.213, 3285.174
1254.695, 3299.430
1255.177, 3313.571
1255.659, 3321.963
1256.141, 3324.219
1256.623, 3316.753
1257.105, 3302.292
1257.587, 3293.967
1258.069, 3296.979
1258.552, 3298.547
1259.034, 3283.678
1259.516, 3271.641
1259.998, 3282.725
1260.480, 3295.190
1260.962, 3284.402
1261.444, 3266.154
1261.926, 3269.974
1262.408, 3292.893
1262.891, 3297.028
1263.373, 3263.011
1263.855, 3246.013
1264.337, 3256.000
1264.819, 3266.392
1265.301, 3275.453
1265.783, 3273.854
1266.265, 3252.908
1266.748, 3224.278
1267.230, 3205.556
1267.712, 3196.148
1268.194, 3193.302
1268.676, 3196.847
1269.158, 3208.457
1269.640, 3225.979
1270.122, 3233.683
1270.604, 3227.841
1271.087, 3218.228
##END=



