##NAMES=Astrophyllite
##RRUFFID=R060103
##IDEAL CHEMISTRY=K_2_NaFe^2+^_7_Ti^4+^_2_(Si_4_O_12_)_2_O_2_(OH)_4_F
##LOCALITY=Brivik, Norway
##OWNER=RRUFF
##SOURCE=University of Arizona Mineral Museum
##DESCRIPTION=Brown fragment embedded in matrix
##STATUS=The identification of this mineral is confirmed by single-crystal X-ray diffraction and chemical analysis.
##URL=rruff.info/R060103
##MEASURED CHEMISTRY=K_2.00_Na_1.00_(Fe^2+^_0.55_Mn_0.32_Fe^3+^_0.04_Mg_0.04_Ca_0.04_)_7_(Ti_0.66_Zr_0.18_Al_0.16_)_2_Si_8.00_O_26_(OH)_4_F_1.00_
90.26367, 13.26016
90.74579, 13.46247
91.22791, 13.44535
91.71002, 13.22003
92.19214, 12.87583
92.67426, 12.38597
93.15637, 11.81985
93.63850, 11.37529
94.12061, 11.12426
94.60273, 11.03211
95.08485, 11.04255
95.56696, 11.16377
96.04908, 11.33145
96.53120, 11.50982
97.01331, 11.69159
97.49543, 11.79022
97.97755, 11.71089
98.45966, 11.46868
98.94178, 11.35942
99.42390, 11.43388
99.90602, 11.57047
100.3881, 11.50766
100.8703, 11.18558
101.3524, 10.87450
101.8345, 10.73295
102.3166, 10.81881
102.7987, 10.83374
103.2808, 10.76124
103.7630, 10.60314
104.2451, 10.33544
104.7272, 9.793646
105.2093, 9.356517
105.6914, 9.313915
106.1735, 10.05051
106.6557, 10.51632
107.1378, 10.47634
107.6199, 9.909246
108.1020, 9.548406
108.5841, 9.525753
109.0662, 9.638370
109.5484, 9.703890
110.0305, 9.570440
110.5126, 9.541160
110.9947, 9.703812
111.4768, 10.11322
111.9590, 10.46942
112.4411, 10.76186
112.9232, 10.98500
113.4053, 11.12321
113.8874, 11.01227
114.3695, 10.94885
114.8517, 11.05516
115.3338, 11.39228
115.8159, 11.77887
116.2980, 12.17419
116.7801, 12.58589
117.2622, 13.02641
117.7444, 13.38507
118.2265, 13.84597
118.7086, 14.55562
119.1907, 15.71612
119.6728, 16.88268
120.1549, 17.75989
120.6371, 18.41524
121.1192, 19.12554
121.6013, 20.03741
122.0834, 21.08647
122.5655, 22.19238
123.0477, 23.25670
123.5298, 24.43319
124.0119, 25.98178
124.4940, 27.87235
124.9761, 29.68712
125.4582, 30.90897
125.9404, 31.80740
126.4225, 32.90089
126.9046, 34.52353
127.3867, 36.42395
127.8688, 38.22743
128.3509, 39.93245
128.8331, 41.55495
129.3152, 43.04956
129.7973, 44.45500
130.2794, 45.92561
130.7615, 47.62659
131.2436, 49.46624
131.7258, 51.07542
132.2079, 52.40103
132.6900, 53.61144
133.1721, 54.91406
133.6542, 56.30320
134.1364, 57.84961
134.6185, 59.71775
135.1006, 61.89564
135.5827, 63.79924
136.0648, 65.30880
136.5469, 66.62847
137.0291, 68.41538
137.5112, 70.84642
137.9933, 72.95830
138.4754, 73.99956
138.9575, 73.76109
139.4396, 73.71653
139.9218, 74.11594
140.4039, 74.83012
140.8860, 75.13187
141.3681, 74.74353
141.8502, 74.43429
142.3323, 74.84844
142.8145, 76.24052
143.2966, 77.70591
143.7787, 79.06522
144.2608, 80.33591
144.7429, 81.85432
145.2251, 83.77483
145.7072, 85.82347
146.1893, 87.77041
146.6714, 89.71915
147.1535, 91.39519
147.6356, 92.52756
148.1178, 92.91639
148.5999, 94.09270
149.0820, 96.55078
149.5641, 99.58718
150.0462, 102.3528
150.5283, 104.3452
151.0105, 106.5323
151.4926, 108.1569
151.9747, 110.1211
152.4568, 112.1681
152.9389, 114.7318
153.4210, 117.2614
153.9032, 119.0173
154.3853, 119.2474
154.8674, 119.2881
155.3495, 119.5749
155.8316, 120.2942
156.3138, 120.8984
156.7959, 121.0576
157.2780, 121.0600
157.7601, 121.4495
158.2422, 122.5458
158.7243, 123.8990
159.2065, 125.3158
159.6886, 126.8096
160.1707, 128.2814
160.6528, 129.8701
161.1349, 131.4394
161.6170, 132.6244
162.0992, 132.9072
162.5813, 133.0008
163.0634, 133.3833
163.5455, 134.3310
164.0276, 135.3452
164.5097, 136.2132
164.9919, 136.9644
165.4740, 137.7120
165.9561, 138.6690
166.4382, 139.5771
166.9203, 140.2000
167.4025, 140.1885
167.8846, 140.1673
168.3667, 140.7289
168.8488, 141.7518
169.3309, 142.4399
169.8130, 142.1128
170.2952, 141.2308
170.7773, 140.3710
171.2594, 139.8364
171.7415, 139.3072
172.2236, 138.5078
172.7057, 137.4460
173.1879, 136.2449
173.6700, 134.9620
174.1521, 133.6018
174.6342, 132.1709
175.1163, 130.5567
175.5984, 128.9087
176.0806, 127.4803
176.5627, 126.2670
177.0448, 125.0108
177.5269, 123.3927
178.0090, 121.5573
178.4911, 119.8014
178.9733, 118.4227
179.4554, 117.1717
179.9375, 115.4270
180.4196, 113.1215
180.9017, 111.0845
181.3839, 110.5368
181.8660, 111.1014
182.3481, 111.4145
182.8302, 110.6129
183.3123, 109.1421
183.7944, 107.9713
184.2766, 107.1121
184.7587, 106.5686
185.2408, 106.5240
185.7229, 106.8897
186.2050, 107.1183
186.6871, 106.7639
187.1693, 106.0215
187.6514, 105.7029
188.1335, 105.9250
188.6156, 106.2653
189.0977, 105.9318
189.5798, 104.9727
190.0620, 104.3072
190.5441, 104.4836
191.0262, 105.4083
191.5083, 106.5697
191.9904, 108.1104
192.4725, 109.5284
192.9547, 109.6687
193.4368, 108.4847
193.9189, 107.5755
194.4010, 108.0051
194.8831, 109.6811
195.3652, 111.1661
195.8474, 112.3687
196.3295, 113.3411
196.8116, 114.1384
197.2937, 114.7435
197.7758, 115.3162
198.2579, 115.9125
198.7401, 116.5301
199.2222, 117.2478
199.7043, 118.0641
200.1864, 118.9733
200.6685, 120.0327
201.1507, 121.2869
201.6328, 122.4500
202.1149, 123.2850
202.5970, 123.7459
203.0791, 124.3718
203.5612, 125.2664
204.0434, 126.3000
204.5255, 127.0923
205.0076, 127.5948
205.4897, 128.0284
205.9718, 128.5086
206.4539, 129.0321
206.9361, 129.6377
207.4182, 130.3658
207.9003, 131.1615
208.3824, 131.8378
208.8645, 132.3295
209.3466, 132.8793
209.8288, 133.7305
210.3109, 135.0336
210.7930, 135.9216
211.2751, 136.0798
211.7572, 135.8273
212.2393, 136.4657
212.7215, 138.3405
213.2036, 140.3279
213.6857, 141.6227
214.1678, 141.9150
214.6499, 142.5864
215.1321, 143.8363
215.6142, 145.5555
216.0963, 147.2575
216.5784, 148.9395
217.0605, 150.5945
217.5426, 152.2179
218.0248, 153.7893
218.5069, 155.3473
218.9890, 156.9256
219.4711, 158.4942
219.9532, 159.8977
220.4353, 161.0059
220.9175, 162.1845
221.3996, 163.6990
221.8817, 165.6431
222.3638, 167.6699
222.8459, 169.8396
223.3280, 172.0886
223.8102, 173.8647
224.2923, 174.8900
224.7744, 175.9128
225.2565, 177.4536
225.7386, 179.8335
226.2208, 181.9285
226.7029, 183.5479
227.1850, 184.7905
227.6671, 186.0735
228.1492, 187.3557
228.6313, 188.7355
229.1135, 190.2920
229.5956, 192.1660
230.0777, 193.9479
230.5598, 195.7116
231.0419, 197.3827
231.5240, 198.5720
232.0062, 198.9534
232.4883, 199.3021
232.9704, 200.0974
233.4525, 201.5337
233.9346, 203.0092
234.4167, 204.6068
234.8989, 206.2227
235.3810, 207.3150
235.8631, 207.5750
236.3452, 207.7310
236.8273, 208.2311
237.3095, 209.3270
237.7916, 210.2143
238.2737, 210.8532
238.7558, 211.2503
239.2379, 211.4304
239.7200, 211.2666
240.2022, 211.0528
240.6843, 210.9381
241.1664, 210.9350
241.6485, 211.0316
242.1306, 211.4042
242.6127, 211.8787
243.0949, 211.7265
243.5770, 210.5831
244.0591, 209.3252
244.5412, 208.4514
245.0233, 208.2802
245.5054, 207.7648
245.9876, 206.7294
246.4697, 205.3541
246.9518, 204.1798
247.4339, 203.3148
247.9160, 202.4851
248.3981, 201.5594
248.8803, 200.4575
249.3624, 199.4402
249.8445, 198.5672
250.3266, 197.7628
250.8087, 196.8081
251.2909, 195.6336
251.7730, 194.4252
252.2551, 193.2295
252.7372, 191.8785
253.2193, 190.9936
253.7014, 190.8761
254.1836, 191.0977
254.6657, 190.6306
255.1478, 189.1311
255.6299, 187.5444
256.1120, 186.2429
256.5941, 185.3214
257.0763, 184.4431
257.5584, 183.7016
258.0405, 182.9376
258.5226, 181.8040
259.0047, 180.1081
259.4868, 178.4270
259.9690, 177.0616
260.4511, 176.1714
260.9332, 174.8648
261.4153, 173.0563
261.8974, 170.8905
262.3795, 168.6145
262.8617, 166.1648
263.3438, 163.7124
263.8259, 161.3223
264.3080, 159.0443
264.7901, 156.5088
265.2722, 153.5977
265.7544, 150.5698
266.2365, 147.8654
266.7186, 145.5865
267.2007, 143.3434
267.6829, 141.0760
268.1650, 138.7612
268.6471, 136.2569
269.1292, 133.3671
269.6113, 130.5240
270.0934, 128.3519
270.5756, 127.0292
271.0577, 125.5884
271.5398, 123.6138
272.0219, 121.1231
272.5040, 119.5090
272.9861, 119.1041
273.4683, 118.8955
273.9504, 117.7044
274.4325, 115.3374
274.9146, 113.0939
275.3967, 111.3046
275.8788, 109.9029
276.3610, 108.4898
276.8431, 107.0715
277.3252, 105.6660
277.8073, 104.2319
278.2894, 102.7435
278.7715, 101.5443
279.2537, 100.7527
279.7358, 100.2845
280.2179, 99.80406
280.7000, 99.32484
281.1821, 98.76866
281.6642, 98.06407
282.1464, 97.21107
282.6285, 96.23665
283.1106, 95.06730
283.5927, 93.84258
284.0748, 92.97949
284.5569, 92.50282
285.0391, 92.13122
285.5212, 91.67620
286.0033, 91.14319
286.4854, 90.60765
286.9675, 90.07722
287.4496, 89.54847
287.9318, 88.96540
288.4139, 88.32130
288.8960, 87.81285
289.3781, 87.69423
289.8602, 87.85379
290.3424, 87.65564
290.8245, 86.95126
291.3066, 86.12004
291.7887, 85.82499
292.2708, 86.01356
292.7530, 86.20570
293.2351, 86.14390
293.7172, 85.88303
294.1993, 85.55249
294.6814, 85.13332
295.1635, 84.75886
295.6457, 84.67138
296.1278, 84.80288
296.6099, 84.86613
297.0920, 84.68405
297.5741, 84.35226
298.0562, 84.00573
298.5384, 83.63869
299.0205, 83.39137
299.5026, 83.56290
299.9847, 83.98417
300.4668, 84.20643
300.9489, 83.88181
301.4311, 83.34451
301.9132, 83.06290
302.3953, 83.02837
302.8774, 83.07848
303.3595, 83.17805
303.8416, 83.25963
304.3238, 83.19542
304.8059, 82.84901
305.2880, 82.43578
305.7701, 82.19577
306.2522, 82.10219
306.7343, 82.00723
307.2165, 81.73071
307.6986, 81.42130
308.1807, 81.27722
308.6628, 81.41523
309.1449, 81.61438
309.6270, 81.68459
310.1092, 81.66920
310.5913, 81.70688
311.0734, 81.96200
311.5555, 82.25544
312.0376, 82.42888
312.5197, 82.44056
313.0019, 82.36599
313.4840, 82.11105
313.9661, 81.80262
314.4482, 81.69662
314.9304, 82.14690
315.4125, 82.65960
315.8946, 82.91087
316.3767, 82.81960
316.8588, 82.69723
317.3409, 82.71892
317.8231, 82.77413
318.3052, 82.71721
318.7873, 82.30345
319.2694, 81.94401
319.7515, 81.79188
320.2336, 81.85946
320.7158, 82.09517
321.1979, 82.76853
321.6800, 83.47205
322.1621, 83.83476
322.6442, 83.14669
323.1263, 82.76540
323.6085, 83.25141
324.0906, 84.53146
324.5727, 85.40620
325.0548, 85.31676
325.5369, 85.01207
326.0190, 84.94418
326.5012, 85.37186
326.9833, 85.77931
327.4654, 86.19228
327.9475, 86.57360
328.4296, 86.75915
328.9117, 86.21378
329.3939, 85.94702
329.8760, 86.45325
330.3581, 88.65907
330.8402, 89.89860
331.3223, 89.54857
331.8044, 88.40928
332.2866, 88.15346
332.7687, 89.44091
333.2508, 90.64397
333.7329, 91.22596
334.2150, 91.04849
334.6971, 90.87578
335.1793, 90.57788
335.6614, 90.40800
336.1435, 90.76476
336.6256, 91.88921
337.1077, 92.90689
337.5899, 93.51863
338.0720, 93.76624
338.5541, 94.32668
339.0362, 95.29853
339.5183, 96.37965
340.0005, 97.27871
340.4826, 97.97865
340.9647, 98.70773
341.4468, 99.57333
341.9289, 100.4578
342.4110, 100.9275
342.8932, 100.9264
343.3753, 100.8466
343.8574, 100.9257
344.3395, 101.1587
344.8216, 101.4871
345.3037, 101.9142
345.7859, 102.4099
346.2680, 102.9655
346.7501, 103.5763
347.2322, 104.1066
347.7143, 104.4923
348.1964, 104.7438
348.6786, 104.8912
349.1607, 104.9310
349.6428, 104.9034
350.1249, 104.8180
350.6070, 104.6977
351.0891, 104.6096
351.5713, 104.5123
352.0534, 104.4991
352.5355, 104.7816
353.0176, 105.3462
353.4997, 105.9103
353.9818, 106.3269
354.4640, 106.5814
354.9461, 106.6319
355.4282, 106.3336
355.9103, 105.9984
356.3924, 105.8350
356.8745, 105.8503
357.3567, 106.0691
357.8388, 106.8305
358.3209, 107.6213
358.8030, 107.9160
359.2851, 107.3976
359.7672, 106.9867
360.2494, 107.4183
360.7315, 108.2837
361.2136, 108.8223
361.6957, 108.6521
362.1779, 108.1697
362.6600, 107.4436
363.1421, 106.4202
363.6242, 105.6591
364.1063, 105.5046
364.5884, 105.6207
365.0706, 105.6650
365.5527, 105.6057
366.0348, 105.4282
366.5169, 105.1123
366.9990, 104.6615
367.4811, 104.1417
367.9633, 103.5239
368.4454, 102.8596
368.9275, 102.1780
369.4096, 101.3491
369.8917, 100.6915
370.3738, 100.3564
370.8560, 100.1896
371.3381, 99.74332
371.8202, 98.70644
372.3023, 97.80699
372.7844, 97.36971
373.2665, 97.53762
373.7487, 97.59896
374.2308, 97.56966
374.7129, 97.41858
375.1950, 97.03746
375.6771, 96.29020
376.1592, 95.75208
376.6414, 95.61831
377.1235, 95.84787
377.6056, 96.01235
378.0877, 96.09905
378.5698, 96.16954
379.0519, 96.32178
379.5341, 96.55653
380.0162, 96.61773
380.4983, 96.40431
380.9804, 96.06192
381.4625, 95.95606
381.9446, 96.07998
382.4268, 96.20100
382.9089, 96.08009
383.3910, 95.83362
383.8731, 95.91622
384.3553, 96.42666
384.8374, 96.95227
385.3195, 96.92635
385.8016, 96.50502
386.2837, 96.14807
386.7658, 96.12177
387.2480, 96.24398
387.7301, 96.35355
388.2122, 96.44203
388.6943, 96.36360
389.1764, 95.81675
389.6585, 95.10352
390.1407, 94.63291
390.6228, 94.66792
391.1049, 94.75826
391.5870, 94.66940
392.0691, 94.40816
392.5512, 93.99512
393.0334, 93.27956
393.5155, 92.52684
393.9976, 91.85194
394.4797, 91.19884
394.9618, 90.87811
395.4439, 91.41702
395.9261, 92.22593
396.4082, 92.51991
396.8903, 91.34883
397.3724, 90.42720
397.8545, 90.41931
398.3366, 91.38541
398.8188, 91.95745
399.3009, 91.68597
399.7830, 91.22866
400.2651, 91.00736
400.7472, 91.33106
401.2293, 91.20155
401.7115, 91.58615
402.1936, 91.85278
402.6757, 92.00777
403.1578, 91.71685
403.6399, 92.00174
404.1220, 92.05588
404.6042, 92.10056
405.0863, 92.46651
405.5684, 92.17019
406.0505, 91.66389
406.5326, 91.51109
407.0147, 91.77041
407.4969, 91.92249
407.9790, 91.76237
408.4611, 91.40404
408.9432, 91.34518
409.4254, 91.61122
409.9075, 91.92241
410.3896, 92.05137
410.8717, 92.03670
411.3538, 92.08865
411.8359, 92.29729
412.3181, 92.43090
412.8002, 91.95963
413.2823, 91.06418
413.7644, 90.43493
414.2465, 90.66977
414.7286, 91.28013
415.2108, 91.62089
415.6929, 91.65386
416.1750, 91.61504
416.6571, 91.76953
417.1392, 91.93496
417.6213, 91.85835
418.1035, 91.19517
418.5856, 90.54688
419.0677, 90.32837
419.5498, 90.43663
420.0319, 90.49441
420.5140, 90.26807
420.9962, 90.00096
421.4783, 89.86716
421.9604, 89.98813
422.4425, 89.97965
422.9246, 89.80705
423.4067, 89.44588
423.8889, 88.85795
424.3710, 87.78216
424.8531, 86.74732
425.3352, 85.92625
425.8173, 85.32124
426.2994, 84.56223
426.7816, 83.56986
427.2637, 82.50988
427.7458, 81.52959
428.2279, 80.79668
428.7100, 79.63904
429.1921, 77.75337
429.6743, 75.59608
430.1564, 74.45041
430.6385, 74.61532
431.1206, 74.63053
431.6028, 73.75356
432.0849, 72.03196
432.5670, 70.82668
433.0491, 70.21378
433.5312, 69.79333
434.0133, 69.15195
434.4955, 68.31607
434.9776, 67.42152
435.4597, 66.38396
435.9418, 65.45517
436.4239, 65.36269
436.9060, 65.95393
437.3882, 66.24281
437.8703, 65.25737
438.3524, 63.70739
438.8345, 62.65514
439.3166, 62.26988
439.7987, 61.98432
440.2809, 61.26889
440.7630, 60.36936
441.2451, 59.67638
441.7272, 59.43014
442.2093, 59.35012
442.6914, 59.36288
443.1736, 59.44479
443.6557, 59.45686
444.1378, 59.36762
444.6199, 59.17960
445.1020, 58.87543
445.5841, 58.34034
446.0663, 57.91352
446.5484, 57.66854
447.0305, 57.55412
447.5126, 57.48619
447.9947, 57.48466
448.4768, 57.49938
448.9590, 57.47673
449.4411, 57.41192
449.9232, 57.59409
450.4053, 58.16669
450.8874, 58.78058
451.3695, 59.16201
451.8517, 59.25951
452.3338, 59.33226
452.8159, 59.33747
453.2980, 59.40204
453.7801, 59.87225
454.2622, 60.77470
454.7444, 61.62446
455.2265, 62.11649
455.7086, 62.36445
456.1907, 62.87199
456.6729, 63.66482
457.1550, 64.47055
457.6371, 64.97067
458.1192, 65.30207
458.6013, 65.83839
459.0834, 66.75131
459.5656, 67.73976
460.0477, 68.44035
460.5298, 68.94075
461.0119, 69.46355
461.4940, 70.22977
461.9761, 71.00826
462.4583, 71.58719
462.9404, 71.94022
463.4225, 72.31162
463.9046, 72.68572
464.3867, 73.19456
464.8688, 73.95315
465.3510, 75.46659
465.8331, 76.70089
466.3152, 77.36100
466.7973, 77.55737
467.2794, 77.68537
467.7615, 77.59347
468.2437, 77.61530
468.7258, 77.90833
469.2079, 78.56353
469.6900, 79.05650
470.1721, 79.37589
470.6542, 79.53921
471.1364, 79.54928
471.6185, 79.38223
472.1006, 79.14520
472.5827, 78.82458
473.0648, 78.46582
473.5469, 78.23148
474.0291, 78.13377
474.5112, 78.01992
474.9933, 77.77438
475.4754, 77.43369
475.9575, 77.19942
476.4396, 77.10220
476.9218, 76.92855
477.4039, 76.37059
477.8860, 75.56448
478.3681, 74.82030
478.8503, 74.18181
479.3324, 73.71181
479.8145, 73.58086
480.2966, 73.70033
480.7787, 73.75024
481.2608, 73.54447
481.7430, 73.22304
482.2251, 72.81794
482.7072, 72.28410
483.1893, 71.96085
483.6714, 72.21401
484.1535, 72.62639
484.6357, 72.77762
485.1178, 72.44170
485.5999, 72.02734
486.0820, 71.51700
486.5641, 70.96259
487.0462, 70.54951
487.5284, 70.39159
488.0105, 70.22309
488.4926, 69.91111
488.9747, 69.41354
489.4568, 69.09255
489.9389, 69.03616
490.4211, 69.00285
490.9032, 68.74917
491.3853, 68.27238
491.8674, 67.57340
492.3495, 66.55560
492.8316, 65.43569
493.3138, 64.73689
493.7959, 64.42400
494.2780, 64.14396
494.7601, 63.71070
495.2422, 63.16541
495.7243, 62.55811
496.2065, 61.87870
496.6886, 61.26568
497.1707, 60.75627
497.6528, 60.38993
498.1349, 60.24412
498.6170, 60.55028
499.0992, 60.76905
499.5813, 60.54654
500.0634, 60.01072
500.5455, 59.47622
501.0276, 59.06243
501.5097, 58.65774
501.9919, 58.16844
502.4740, 57.55349
502.9561, 57.13570
503.4382, 57.11314
503.9203, 57.16670
504.4025, 57.06883
504.8846, 56.69241
505.3667, 56.43877
505.8488, 56.39155
506.3309, 56.44409
506.8130, 56.39049
507.2952, 56.24646
507.7773, 55.91478
508.2594, 55.20293
508.7415, 54.25409
509.2236, 53.98044
509.7057, 54.43213
510.1879, 54.92218
510.6700, 54.77460
511.1521, 54.20757
511.6342, 53.88416
512.1163, 53.94437
512.5984, 54.13901
513.0806, 54.28148
513.5627, 54.36153
514.0448, 54.35765
514.5269, 54.20050
515.0090, 54.00505
515.4911, 53.83474
515.9733, 53.68927
516.4554, 53.56551
516.9375, 53.48171
517.4196, 53.40247
517.9017, 53.32295
518.3839, 53.29602
518.8660, 53.13417
519.3481, 52.59357
519.8302, 52.01305
520.3123, 51.77465
520.7944, 52.06881
521.2766, 52.36530
521.7587, 52.63820
522.2408, 52.84871
522.7229, 52.78532
523.2050, 52.34784
523.6871, 52.01073
524.1693, 52.09823
524.6514, 52.56609
525.1335, 52.86456
525.6156, 52.98759
526.0977, 52.98574
526.5798, 52.79023
527.0620, 52.50179
527.5441, 52.43858
528.0262, 52.72721
528.5083, 53.15607
528.9904, 53.47416
529.4725, 53.74998
529.9547, 54.15105
530.4368, 54.97724
530.9189, 55.77800
531.4010, 56.22691
531.8831, 56.32185
532.3652, 56.35983
532.8474, 56.26812
533.3295, 56.27082
533.8116, 56.51081
534.2937, 57.05731
534.7758, 57.75785
535.2579, 58.63383
535.7401, 59.64864
536.2222, 60.74800
536.7043, 62.05927
537.1865, 63.19135
537.6686, 64.00533
538.1507, 64.58877
538.6328, 65.24004
539.1149, 65.93292
539.5970, 66.90596
540.0792, 68.43948
540.5613, 70.41367
541.0434, 72.16535
541.5255, 73.65810
542.0076, 75.04726
542.4897, 76.39239
542.9719, 77.76864
543.4540, 79.34150
543.9361, 81.13393
544.4182, 83.13319
544.9003, 85.34774
545.3824, 87.74110
545.8646, 90.23332
546.3467, 92.88848
546.8288, 95.54756
547.3109, 98.08182
547.7930, 100.4619
548.2751, 102.9720
548.7573, 105.7892
549.2394, 108.6414
549.7215, 111.3774
550.2036, 113.9340
550.6857, 116.5004
551.1678, 119.0007
551.6500, 121.6020
552.1321, 124.5920
552.6142, 128.0820
553.0963, 131.3641
553.5784, 134.3521
554.0605, 136.9644
554.5427, 138.7090
555.0248, 139.6455
555.5069, 140.8467
555.9890, 143.2420
556.4711, 146.2193
556.9532, 148.8391
557.4354, 151.0595
557.9175, 152.6630
558.3996, 153.0733
558.8817, 152.9452
559.3638, 153.0366
559.8459, 153.7965
560.3281, 154.2294
560.8102, 153.9104
561.2923, 153.0164
561.7744, 151.8227
562.2565, 150.4065
562.7386, 148.6545
563.2208, 146.4245
563.7029, 143.8041
564.1850, 141.2247
564.6671, 138.6855
565.1492, 136.2412
565.6313, 134.0068
566.1135, 132.0474
566.5956, 129.5904
567.0777, 126.5387
567.5598, 123.3855
568.0419, 120.6230
568.5240, 118.2080
569.0062, 115.7754
569.4883, 113.2530
569.9704, 110.7477
570.4525, 108.4171
570.9346, 106.2228
571.4167, 104.1753
571.8989, 102.2412
572.3810, 100.4359
572.8631, 98.68754
573.3452, 97.03914
573.8273, 95.65922
574.3094, 95.03202
574.7916, 94.37759
575.2737, 93.18389
575.7558, 91.09649
576.2379, 89.48667
576.7200, 88.62977
577.2021, 88.07164
577.6843, 87.39604
578.1664, 86.51421
578.6485, 85.80216
579.1306, 85.32802
579.6127, 84.99910
580.0948, 84.66259
580.5770, 84.32044
581.0591, 83.83603
581.5412, 83.06551
582.0233, 82.17180
582.5054, 81.47877
582.9875, 80.98954
583.4697, 80.66338
583.9518, 80.48661
584.4340, 80.46032
584.9161, 80.61900
585.3982, 80.98205
585.8803, 81.37656
586.3624, 81.77290
586.8445, 82.13144
587.3267, 82.41641
587.8088, 82.66240
588.2909, 82.78156
588.7730, 82.57902
589.2551, 82.29237
589.7372, 82.36216
590.2194, 83.06112
590.7015, 83.56650
591.1836, 83.59776
591.6657, 83.27425
592.1478, 83.24013
592.6299, 83.52879
593.1121, 83.85352
593.5942, 84.04050
594.0763, 84.12190
594.5584, 84.27004
595.0405, 84.49733
595.5226, 84.57105
596.0048, 83.92519
596.4869, 83.11386
596.9690, 83.10723
597.4511, 83.21053
597.9332, 83.19586
598.4153, 83.06961
598.8975, 82.49737
599.3796, 82.50102
599.8617, 82.27389
600.3438, 82.03731
600.8259, 81.55297
601.3080, 81.24710
601.7902, 81.03615
602.2723, 80.88357
602.7544, 80.89494
603.2365, 81.17220
603.7186, 81.70451
604.2007, 82.02422
604.6829, 82.09008
605.1650, 82.11791
605.6471, 82.26700
606.1292, 82.52302
606.6113, 82.86897
607.0934, 83.31621
607.5756, 83.73207
608.0577, 83.88052
608.5398, 83.91897
609.0219, 84.12778
609.5040, 84.79282
609.9861, 85.38142
610.4683, 85.44642
610.9504, 85.23117
611.4325, 85.26096
611.9146, 85.99117
612.3967, 86.65592
612.8788, 86.91473
613.3610, 86.82408
613.8431, 87.14011
614.3252, 88.11875
614.8073, 89.07167
615.2894, 89.64006
615.7715, 89.79680
616.2537, 89.95982
616.7358, 90.09087
617.2179, 90.39639
617.7000, 91.22849
618.1821, 92.42735
618.6642, 93.40517
619.1464, 94.05447
619.6285, 94.54330
620.1106, 94.89585
620.5927, 95.23300
621.0748, 95.76152
621.5569, 96.83741
622.0391, 97.84921
622.5212, 98.42211
623.0033, 98.71197
623.4854, 99.19630
623.9675, 100.1646
624.4496, 101.1282
624.9318, 101.8886
625.4139, 102.4559
625.8960, 103.3290
626.3781, 104.5741
626.8602, 105.9540
627.3423, 107.4256
627.8245, 108.9771
628.3066, 110.0823
628.7887, 110.6629
629.2708, 111.2165
629.7529, 112.2169
630.2350, 113.5820
630.7172, 115.1580
631.1993, 116.9238
631.6815, 118.8506
632.1636, 121.1258
632.6457, 123.4918
633.1278, 125.5780
633.6099, 126.7063
634.0920, 128.1251
634.5742, 130.3483
635.0563, 133.2006
635.5384, 136.0496
636.0205, 138.8227
636.5026, 141.6590
636.9847, 144.5558
637.4669, 147.5227
637.9490, 150.9182
638.4311, 154.8539
638.9132, 158.8492
639.3953, 162.4358
639.8774, 165.8191
640.3596, 169.9257
640.8417, 174.8470
641.3238, 180.0211
641.8059, 184.8006
642.2880, 189.4606
642.7701, 194.2807
643.2523, 199.4258
643.7344, 204.5786
644.2165, 209.5957
644.6986, 214.5841
645.1807, 219.6389
645.6628, 224.4827
646.1450, 229.7871
646.6271, 235.9235
647.1092, 242.5225
647.5913, 248.4379
648.0734, 253.5108
648.5555, 258.4892
649.0377, 263.7027
649.5198, 269.0578
650.0019, 274.0694
650.4840, 278.8018
650.9661, 283.3633
651.4482, 288.2800
651.9304, 292.9695
652.4125, 296.3662
652.8946, 298.4388
653.3767, 299.8984
653.8588, 301.4167
654.3409, 302.4038
654.8231, 302.3759
655.3052, 301.1941
655.7873, 299.1343
656.2694, 296.0838
656.7515, 292.2452
657.2336, 287.8403
657.7158, 282.8457
658.1979, 277.2732
658.6800, 270.9503
659.1621, 264.2322
659.6442, 257.6856
660.1263, 251.3335
660.6085, 245.0702
661.0906, 238.7286
661.5727, 232.7040
662.0548, 227.7439
662.5369, 223.6577
663.0190, 219.7176
663.5012, 214.9360
663.9833, 210.6232
664.4654, 208.1387
664.9475, 207.2998
665.4296, 206.2664
665.9117, 203.6597
666.3939, 201.3905
666.8760, 200.6462
667.3581, 201.7292
667.8402, 202.1683
668.3223, 201.5292
668.8044, 200.9420
669.2866, 201.3380
669.7687, 202.7615
670.2508, 204.0042
670.7329, 204.9668
671.2150, 205.9099
671.6971, 207.0740
672.1793, 208.4661
672.6614, 210.0755
673.1435, 211.9003
673.6256, 213.9705
674.1077, 216.5904
674.5898, 219.4311
675.0720, 221.9487
675.5541, 223.5074
676.0362, 225.2832
676.5183, 227.6871
677.0004, 230.5262
677.4825, 233.3191
677.9647, 236.1214
678.4468, 238.7143
678.9290, 240.9730
679.4111, 242.9743
679.8932, 245.1449
680.3753, 247.4754
680.8574, 250.0254
681.3395, 252.9619
681.8217, 256.1129
682.3038, 259.0091
682.7859, 261.6875
683.2680, 264.3773
683.7501, 267.3337
684.2322, 270.3236
684.7144, 273.2752
685.1965, 276.1801
685.6786, 278.8353
686.1607, 280.9287
686.6428, 282.8926
687.1249, 285.0673
687.6071, 287.5724
688.0892, 289.9918
688.5713, 292.3208
689.0534, 294.5784
689.5355, 296.7527
690.0176, 298.8691
690.4998, 301.0651
690.9819, 303.4144
691.4640, 305.7214
691.9461, 307.6557
692.4282, 309.2996
692.9103, 310.8033
693.3925, 312.0325
693.8746, 313.3587
694.3567, 315.1143
694.8388, 317.1109
695.3209, 318.9094
695.8030, 320.0878
696.2852, 321.4162
696.7673, 323.1217
697.2494, 325.1360
697.7315, 327.1872
698.2136, 329.5281
698.6957, 331.0312
699.1779, 330.8023
699.6600, 329.3528
700.1421, 328.9980
700.6242, 329.6954
701.1063, 330.6749
701.5884, 331.6765
702.0706, 332.5108
702.5527, 332.8771
703.0348, 332.7582
703.5169, 332.5520
703.9990, 332.2010
704.4811, 332.0146
704.9633, 332.3188
705.4454, 333.5604
705.9275, 334.0440
706.4096, 333.2791
706.8917, 332.2997
707.3738, 332.1281
707.8560, 332.9194
708.3381, 333.0891
708.8202, 332.4864
709.3023, 331.3708
709.7844, 329.7417
710.2665, 327.8619
710.7487, 326.4914
711.2308, 326.0154
711.7129, 325.6275
712.1950, 324.6861
712.6771, 323.4143
713.1592, 322.1436
713.6414, 321.1644
714.1235, 319.9871
714.6056, 318.4796
715.0877, 316.7034
715.5698, 314.7872
716.0519, 312.7113
716.5341, 310.5524
717.0162, 308.3438
717.4983, 306.0683
717.9804, 303.7858
718.4625, 301.4669
718.9446, 298.9744
719.4268, 296.0902
719.9089, 293.1021
720.3910, 290.4444
720.8731, 288.0361
721.3552, 285.4191
721.8373, 282.3174
722.3195, 279.0214
722.8016, 275.6460
723.2837, 272.2439
723.7658, 268.8941
724.2479, 265.6411
724.7300, 262.4305
725.2122, 259.2744
725.6943, 256.1741
726.1765, 253.0675
726.6586, 249.9089
727.1407, 246.7932
727.6228, 243.8857
728.1049, 241.0084
728.5870, 237.7724
729.0692, 234.1397
729.5513, 230.4004
730.0334, 226.3842
730.5155, 222.5580
730.9976, 219.5702
731.4797, 217.8777
731.9619, 215.8428
732.4440, 212.7727
732.9261, 209.5516
733.4082, 206.8651
733.8903, 204.9868
734.3724, 202.7042
734.8546, 199.8422
735.3367, 196.9070
735.8188, 194.7599
736.3009, 193.1727
736.7830, 191.0110
737.2651, 187.8914
737.7473, 184.6260
738.2294, 181.7728
738.7115, 179.3974
739.1936, 177.6437
739.6757, 177.4816
740.1578, 176.7568
740.6400, 174.2984
741.1221, 171.0678
741.6042, 168.7366
742.0863, 167.7738
742.5684, 166.6373
743.0505, 164.9718
743.5327, 163.0919
744.0148, 161.7838
744.4969, 161.0085
744.9790, 160.1194
745.4611, 158.8685
745.9432, 157.3957
746.4254, 155.6692
746.9075, 153.8550
747.3896, 152.4026
747.8717, 151.8561
748.3538, 151.3709
748.8359, 150.6091
749.3181, 149.5923
749.8002, 148.4703
750.2823, 146.9770
750.7644, 145.8940
751.2465, 145.6792
751.7286, 146.0467
752.2108, 145.5404
752.6929, 144.1451
753.1750, 142.6542
753.6571, 141.4208
754.1392, 140.4250
754.6213, 139.7216
755.1035, 139.2584
755.5856, 138.7822
756.0677, 138.2606
756.5498, 137.5854
757.0319, 136.5483
757.5140, 135.1331
757.9962, 134.1179
758.4783, 133.8258
758.9604, 133.5284
759.4425, 132.8856
759.9246, 131.9105
760.4067, 130.9282
760.8889, 129.9399
761.3710, 128.9735
761.8531, 128.0520
762.3352, 127.1675
762.8173, 126.3261
763.2994, 125.5294
763.7816, 124.6904
764.2637, 123.7416
764.7458, 122.7492
765.2279, 121.7113
765.7100, 120.5378
766.1921, 119.7714
766.6743, 119.8587
767.1564, 119.8403
767.6385, 119.0124
768.1206, 117.2431
768.6027, 115.8203
769.0848, 114.7516
769.5670, 113.9869
770.0491, 113.6393
770.5312, 113.5091
771.0133, 113.1922
771.4954, 112.6290
771.9775, 112.0020
772.4597, 111.3283
772.9418, 110.7026
773.4240, 110.2060
773.9061, 109.9013
774.3882, 109.6087
774.8703, 109.3876
775.3524, 109.1026
775.8345, 108.5939
776.3167, 107.8326
776.7988, 107.1895
777.2809, 106.6781
777.7630, 106.3623
778.2451, 106.6000
778.7272, 107.0263
779.2094, 106.8300
779.6915, 105.7275
780.1736, 104.5943
780.6557, 103.8167
781.1378, 103.3468
781.6199, 103.1720
782.1021, 103.8208
782.5842, 103.8159
783.0663, 102.7835
783.5484, 101.5104
784.0305, 100.9059
784.5126, 100.9889
784.9948, 101.0395
785.4769, 101.0043
785.9590, 100.7859
786.4411, 100.1865
786.9232, 99.34415
787.4053, 98.48553
787.8875, 97.64090
788.3696, 96.84673
788.8517, 96.08800
789.3338, 95.38974
789.8159, 94.77718
790.2980, 94.37557
790.7802, 93.83195
791.2623, 93.07908
791.7444, 92.26170
792.2265, 91.63596
792.7086, 91.17606
793.1907, 90.53139
793.6729, 89.59069
794.1550, 88.64650
794.6371, 88.17742
795.1192, 87.87454
795.6013, 87.20820
796.0834, 85.85244
796.5656, 84.49060
797.0477, 83.27634
797.5298, 82.22270
798.0119, 81.34820
798.4940, 80.76862
798.9761, 80.08006
799.4583, 79.25284
799.9404, 78.31292
800.4225, 77.16069
800.9046, 75.86667
801.3867, 74.85673
801.8688, 74.26924
802.3510, 73.79261
802.8331, 73.08936
803.3152, 72.32307
803.7973, 71.75584
804.2794, 71.77469
804.7615, 71.45630
805.2437, 70.32291
805.7258, 68.91183
806.2079, 67.74328
806.6900, 66.80946
807.1721, 66.21798
807.6542, 66.09582
808.1364, 66.01811
808.6185, 65.35254
809.1006, 64.26614
809.5827, 63.20506
810.0648, 62.20241
810.5469, 61.47280
811.0291, 61.46188
811.5112, 61.68614
811.9933, 61.57527
812.4754, 60.70782
812.9575, 59.97522
813.4396, 59.47370
813.9218, 59.06755
814.4039, 58.56770
814.8860, 57.94995
815.3681, 57.62477
815.8502, 57.68790
816.3323, 57.81541
816.8145, 57.61559
817.2966, 57.21535
817.7787, 56.84083
818.2608, 56.56063
818.7429, 56.24326
819.2251, 55.77234
819.7072, 55.26435
820.1893, 54.84118
820.6714, 54.58733
821.1536, 54.25640
821.6357, 53.84798
822.1178, 53.36005
822.5999, 52.63228
823.0820, 51.76245
823.5641, 51.47648
824.0463, 51.89883
824.5284, 52.53309
825.0105, 53.23615
825.4926, 53.73387
825.9747, 53.58925
826.4568, 52.44921
826.9390, 51.60956
827.4211, 51.65960
827.9032, 51.87586
828.3853, 51.74949
828.8674, 51.15827
829.3495, 50.85705
829.8317, 50.90600
830.3138, 51.01116
830.7959, 50.85776
831.2780, 50.55981
831.7601, 50.35468
832.2422, 50.27093
832.7244, 50.24487
833.2065, 50.39832
833.6886, 50.48104
834.1707, 50.24317
834.6528, 49.52105
835.1349, 49.07220
835.6171, 48.96238
836.0992, 49.01509
836.5813, 49.17536
837.0634, 49.42859
837.5455, 49.51965
838.0276, 49.44552
838.5098, 49.39199
838.9919, 49.55695
839.4740, 49.78235
839.9561, 49.92463
840.4382, 49.97130
840.9203, 49.88893
841.4025, 49.47131
841.8846, 49.11387
842.3667, 49.01742
842.8488, 49.17548
843.3309, 49.23132
843.8130, 49.16872
844.2952, 49.09709
844.7773, 49.10218
845.2594, 49.13806
845.7415, 49.06374
846.2236, 48.90694
846.7057, 48.81720
847.1879, 49.01720
847.6700, 49.17939
848.1521, 49.05305
848.6342, 48.67954
849.1163, 48.47802
849.5984, 48.54515
850.0806, 48.60463
850.5627, 48.52236
851.0448, 48.39116
851.5269, 48.55213
852.0090, 48.97703
852.4911, 49.44024
852.9733, 49.91547
853.4554, 50.29298
853.9375, 50.42488
854.4196, 50.38346
854.9017, 50.34762
855.3839, 50.25128
855.8660, 50.32362
856.3481, 50.69371
856.8302, 51.21023
857.3123, 51.52557
857.7944, 51.62605
858.2766, 51.73309
858.7587, 51.88546
859.2408, 52.11096
859.7229, 52.54610
860.2050, 53.07036
860.6871, 53.42196
861.1693, 53.40472
861.6514, 53.37683
862.1335, 53.38303
862.6156, 53.49748
863.0977, 53.80116
863.5798, 54.32058
864.0620, 55.00440
864.5441, 55.94115
865.0262, 56.83448
865.5083, 57.28841
865.9904, 57.40522
866.4726, 57.45874
866.9547, 57.45898
867.4368, 57.62243
867.9189, 58.19959
868.4011, 58.95586
868.8832, 59.68755
869.3653, 60.38570
869.8474, 61.01061
870.3295, 61.51183
870.8116, 62.01994
871.2938, 62.58474
871.7759, 63.22363
872.2580, 64.14374
872.7401, 65.36398
873.2222, 66.60515
873.7043, 67.79542
874.1865, 68.80141
874.6686, 69.35293
875.1507, 69.43339
875.6328, 69.79048
876.1149, 70.80042
876.5970, 71.91833
877.0792, 72.98110
877.5613, 73.98585
878.0434, 74.80029
878.5255, 75.40203
879.0076, 76.29768
879.4897, 78.11480
879.9719, 80.16438
880.4540, 81.39168
880.9361, 81.98812
881.4182, 82.61406
881.9003, 83.43929
882.3824, 84.45274
882.8646, 85.75539
883.3467, 87.22633
883.8288, 88.55339
884.3109, 89.69510
884.7930, 90.97282
885.2751, 92.52202
885.7573, 94.15111
886.2394, 95.42651
886.7215, 96.53679
887.2036, 97.95937
887.6857, 100.1722
888.1678, 102.1937
888.6500, 103.5121
889.1321, 104.4181
889.6142, 105.2873
890.0963, 106.0373
890.5784, 106.9726
891.0605, 108.1146
891.5427, 109.4548
892.0248, 111.1258
892.5069, 113.0113
892.9890, 114.7824
893.4711, 116.3787
893.9532, 117.8619
894.4354, 119.0702
894.9175, 120.2990
895.3996, 121.8478
895.8817, 123.8390
896.3638, 125.6507
896.8459, 127.1826
897.3281, 128.7128
897.8102, 130.4183
898.2923, 132.2699
898.7744, 133.9885
899.2565, 135.5923
899.7386, 137.2823
900.2208, 139.4313
900.7029, 141.5222
901.1850, 143.0591
901.6671, 144.1221
902.1492, 145.5319
902.6313, 147.6801
903.1135, 149.5793
903.5956, 150.8959
904.0777, 151.8585
904.5598, 153.1455
905.0419, 154.7224
905.5240, 156.3338
906.0062, 157.8381
906.4883, 159.4222
906.9704, 161.4583
907.4525, 163.6270
907.9346, 165.4377
908.4167, 166.3330
908.8989, 167.4492
909.3810, 168.9245
909.8631, 170.5670
910.3452, 172.1727
910.8273, 173.7381
911.3094, 175.2714
911.7916, 176.7981
912.2737, 178.0791
912.7558, 178.5684
913.2380, 178.8776
913.7201, 179.7776
914.2022, 181.5586
914.6843, 182.9113
915.1664, 183.3741
915.6486, 183.7077
916.1307, 184.2921
916.6128, 185.1151
917.0949, 186.1315
917.5770, 187.3407
918.0591, 188.0375
918.5413, 187.0850
919.0234, 185.9055
919.5055, 186.4212
919.9876, 188.1526
920.4697, 188.9736
920.9518, 187.3793
921.4340, 185.9080
921.9161, 185.1859
922.3982, 184.8932
922.8803, 184.1694
923.3624, 183.0370
923.8445, 182.0941
924.3267, 181.5627
924.8088, 181.1591
925.2909, 180.6351
925.7730, 180.0061
926.2551, 179.2745
926.7372, 178.2927
927.2194, 177.4944
927.7015, 177.1014
928.1836, 176.7060
928.6657, 175.9386
929.1478, 174.8060
929.6299, 173.5497
930.1121, 172.1892
930.5942, 170.7728
931.0763, 169.3826
931.5584, 167.9399
932.0405, 166.2686
932.5226, 164.3855
933.0048, 162.6191
933.4869, 161.2400
933.9690, 159.7549
934.4511, 157.9431
934.9332, 155.8896
935.4153, 154.1655
935.8975, 152.7392
936.3796, 151.2721
936.8617, 149.6152
937.3438, 147.8289
937.8259, 145.9631
938.3080, 144.0085
938.7902, 141.9920
939.2723, 139.6006
939.7544, 137.5728
940.2365, 136.1248
940.7186, 134.9259
941.2007, 133.6377
941.6829, 132.2474
942.1650, 130.5286
942.6471, 128.3946
943.1292, 126.2717
943.6113, 124.4627
944.0934, 122.9149
944.5756, 121.6244
945.0577, 120.6918
945.5398, 119.4235
946.0219, 117.5800
946.5040, 115.7241
946.9861, 114.1496
947.4683, 112.7988
947.9504, 111.4979
948.4325, 110.2304
948.9146, 108.8983
949.3967, 107.4335
949.8788, 105.8927
950.3610, 104.1861
950.8431, 102.4272
951.3252, 101.0023
951.8073, 100.1220
952.2894, 99.20184
952.7715, 98.18191
953.2537, 97.04982
953.7358, 95.77634
954.2179, 94.37172
954.7000, 92.84827
955.1821, 91.19889
955.6642, 89.55490
956.1464, 87.98691
956.6285, 86.48718
957.1106, 85.05479
957.5927, 83.72316
958.0748, 82.28478
958.5569, 80.72922
959.0391, 79.07392
959.5212, 77.25328
960.0033, 75.35125
960.4855, 73.61919
960.9676, 72.04630
961.4497, 70.61775
961.9318, 69.52106
962.4139, 68.33955
962.8961, 66.70048
963.3782, 64.84718
963.8603, 63.46442
964.3424, 62.71133
964.8245, 61.76945
965.3066, 60.39437
965.7888, 58.98187
966.2709, 58.18974
966.7530, 57.74591
967.2351, 57.14056
967.7172, 56.20847
968.1993, 55.26967
968.6815, 54.41252
969.1636, 53.61022
969.6457, 52.81626
970.1278, 52.02319
970.6099, 51.38878
971.0920, 50.92037
971.5742, 50.52607
972.0563, 50.22358
972.5384, 49.91262
973.0205, 49.39617
973.5026, 48.73872
973.9847, 48.20197
974.4669, 48.04761
974.9490, 47.79135
975.4311, 47.26060
975.9132, 46.62421
976.3953, 46.25983
976.8774, 46.14252
977.3596, 45.89612
977.8417, 45.39250
978.3238, 44.95308
978.8059, 44.93637
979.2880, 45.10632
979.7701, 45.24664
980.2523, 45.39492
980.7344, 45.19750
981.2165, 44.45147
981.6986, 43.72464
982.1807, 43.39436
982.6628, 43.36856
983.1450, 43.20579
983.6271, 42.94251
984.1092, 42.80871
984.5913, 43.10840
985.0734, 43.39766
985.5555, 43.40726
986.0377, 43.21738
986.5198, 43.06256
987.0019, 42.93869
987.4840, 42.87017
987.9661, 42.86644
988.4482, 42.90392
988.9304, 42.98344
989.4125, 43.07199
989.8946, 43.07691
990.3767, 42.95641
990.8588, 42.93371
991.3409, 43.13384
991.8231, 43.43682
992.3052, 43.79616
992.7873, 44.20228
993.2694, 44.53194
993.7515, 44.78270
994.2336, 45.02658
994.7158, 45.34834
995.1979, 45.64207
995.6800, 45.75292
996.1621, 45.74529
996.6442, 45.76886
997.1263, 45.84095
997.6085, 45.98515
998.0906, 46.21877
998.5727, 46.50267
999.0548, 46.81824
999.5369, 47.15198
1000.019, 47.38293
1000.501, 47.48977
1000.983, 47.64104
1001.465, 48.00690
1001.948, 48.43192
1002.430, 48.76409
1002.912, 49.00026
1003.394, 49.40940
1003.876, 50.04836
1004.358, 50.69914
1004.840, 51.31368
1005.322, 51.86361
1005.804, 52.25251
1006.287, 52.54269
1006.769, 52.90053
1007.251, 53.44555
1007.733, 53.97030
1008.215, 54.32103
1008.697, 54.69674
1009.179, 55.30812
1009.661, 56.17701
1010.144, 57.01083
1010.626, 57.81114
1011.108, 58.54725
1011.590, 59.17596
1012.072, 59.75410
1012.554, 60.34246
1013.036, 60.93933
1013.518, 61.51729
1014.000, 61.99800
1014.483, 62.58380
1014.965, 63.31751
1015.447, 64.18305
1015.929, 65.32546
1016.411, 66.60325
1016.893, 67.44549
1017.375, 67.61037
1017.857, 67.70116
1018.340, 68.10616
1018.822, 68.58804
1019.304, 68.91428
1019.786, 69.03808
1020.268, 69.35330
1020.750, 69.87184
1021.232, 70.50149
1021.714, 71.18565
1022.196, 71.94656
1022.679, 73.05199
1023.161, 74.26827
1023.643, 74.69277
1024.125, 75.11631
1024.607, 75.42191
1025.089, 75.61586
1025.571, 75.36392
1026.053, 75.68776
1026.536, 75.78119
1027.018, 75.70483
1027.500, 75.90388
1027.982, 76.16135
1028.464, 76.28135
1028.946, 76.37520
1029.428, 76.63750
1029.910, 77.05518
1030.392, 76.88295
1030.875, 75.89552
1031.357, 75.14049
1031.839, 75.04841
1032.321, 75.29285
1032.803, 75.38504
1033.285, 75.35251
1033.767, 75.25878
1034.249, 75.18111
1034.732, 74.92181
1035.214, 74.22426
1035.696, 73.53283
1036.178, 73.25317
1036.660, 73.38036
1037.142, 73.10747
1037.624, 72.44650
1038.106, 71.67195
1038.589, 70.78726
1039.071, 70.02633
1039.553, 69.65575
1040.035, 69.55653
1040.517, 69.32043
1040.999, 68.96264
1041.481, 68.33340
1041.963, 67.32555
1042.445, 66.25142
1042.927, 65.55907
1043.410, 65.07619
1043.892, 64.44185
1044.374, 63.57602
1044.856, 62.78124
1045.338, 62.17872
1045.820, 61.66436
1046.302, 61.24314
1046.784, 60.87241
1047.267, 60.31255
1047.749, 59.57281
1048.231, 58.80105
1048.713, 57.98054
1049.195, 57.30022
1049.677, 57.07247
1050.159, 57.00136
1050.641, 56.67388
1051.124, 56.01056
1051.606, 55.18330
1052.088, 54.09298
1052.570, 53.19900
1053.052, 53.06905
1053.534, 53.26808
1054.016, 52.90026
1054.498, 52.07582
1054.980, 51.40150
1055.463, 51.26894
1055.945, 51.12059
1056.427, 50.82866
1056.909, 50.45130
1057.391, 50.03664
1057.873, 49.60487
1058.355, 49.35676
1058.837, 49.33888
1059.319, 49.32066
1059.802, 49.11782
1060.284, 48.85288
1060.766, 48.61354
1061.248, 48.40229
1061.730, 48.14607
1062.212, 47.80230
1062.694, 47.66125
1063.176, 47.92672
1063.659, 48.28141
1064.141, 48.26190
1064.623, 48.00843
1065.105, 47.74993
1065.587, 47.52272
1066.069, 47.34772
1066.551, 47.20301
1067.033, 47.13699
1067.516, 47.29010
1067.998, 47.56554
1068.480, 47.32066
1068.962, 46.65889
1069.444, 46.16488
1069.926, 46.37577
1070.408, 46.59378
1070.890, 46.37505
1071.372, 46.01569
1071.854, 46.01236
1072.337, 46.42191
1072.819, 46.63106
1073.301, 46.57306
1073.783, 46.37244
1074.265, 45.94904
1074.747, 45.58342
1075.229, 45.66785
1075.711, 46.17694
1076.194, 46.39145
1076.676, 46.17773
1077.158, 45.87934
1077.640, 45.53529
1078.122, 45.24768
1078.604, 45.30575
1079.086, 45.53076
1079.568, 45.51947
1080.051, 45.11724
1080.533, 44.75838
1081.015, 44.60834
1081.497, 44.52932
1081.979, 44.49809
1082.461, 44.48758
1082.943, 44.28281
1083.425, 43.90790
1083.907, 43.54684
1084.390, 43.19563
1084.872, 43.01062
1085.354, 43.38380
1085.836, 43.82432
1086.318, 43.64928
1086.800, 42.61290
1087.282, 41.99830
1087.764, 41.86786
1088.247, 41.81749
1088.729, 41.49287
1089.211, 41.09870
1089.693, 40.89728
1090.175, 40.83897
1090.657, 40.70846
1091.139, 40.50496
1091.621, 40.11826
1092.104, 39.42557
1092.586, 38.77374
1093.068, 38.82051
1093.550, 39.22338
1094.032, 39.09355
1094.514, 38.32616
1094.996, 37.71165
1095.478, 37.80403
1095.960, 37.88043
1096.443, 37.61735
1096.925, 37.17001
1097.407, 37.03088
1097.889, 37.15178
1098.371, 37.16763
1098.853, 36.94201
1099.335, 36.73269
1099.817, 36.84255
1100.299, 36.95872
1100.782, 36.76730
1101.264, 36.25601
1101.746, 35.90037
1102.228, 35.72035
1102.710, 35.39439
1103.192, 34.60863
1103.674, 33.80455
1104.156, 33.52610
1104.639, 33.57395
1105.121, 33.63117
1105.603, 33.74208
1106.085, 33.64347
1106.567, 33.30629
1107.049, 32.84086
1107.531, 32.17310
1108.013, 31.50906
1108.495, 31.34082
1108.978, 31.55249
1109.460, 31.65317
1109.942, 31.32560
1110.424, 31.06368
1110.906, 31.00707
1111.388, 30.97638
1111.870, 30.68868
1112.352, 30.21559
1112.834, 29.83824
1113.317, 29.58102
1113.799, 29.47118
1114.281, 29.70056
1114.763, 29.89152
1115.245, 29.84165
1115.727, 29.62806
1116.209, 29.40107
1116.691, 29.16306
1117.174, 29.08002
1117.656, 29.22673
1118.138, 29.31187
1118.620, 28.93778
1119.102, 28.50501
1119.584, 28.44584
1120.066, 28.75340
1120.548, 28.68970
1121.031, 28.18093
1121.513, 27.83052
1121.995, 27.92796
1122.477, 28.14613
1122.959, 28.07880
1123.441, 27.87435
1123.923, 27.74917
1124.405, 27.79759
1124.887, 27.74938
1125.370, 27.55932
1125.852, 27.39072
1126.334, 27.37292
1126.816, 27.41712
1127.298, 27.25186
1127.780, 27.00338
1128.262, 26.97621
1128.744, 27.63646
1129.227, 27.97337
1129.709, 27.75203
1130.191, 27.42231
1130.673, 27.47276
1131.155, 27.73842
1131.637, 27.41221
1132.119, 26.61265
1132.601, 26.10657
1133.083, 26.58210
1133.566, 27.05177
1134.048, 27.18257
1134.530, 27.13624
1135.012, 27.07588
1135.494, 27.01296
1135.976, 27.11465
1136.458, 27.39397
1136.940, 27.60129
1137.422, 27.50273
1137.905, 27.34254
1138.387, 27.29440
1138.869, 27.28940
1139.351, 27.11132
1139.833, 26.74673
1140.315, 26.51857
1140.797, 26.49621
1141.279, 26.53152
1141.762, 26.54612
1142.244, 26.51698
1142.726, 26.37342
1143.208, 26.13500
1143.690, 26.09312
1144.172, 26.29385
1144.654, 26.41675
1145.136, 26.35210
1145.619, 26.20864
1146.101, 26.02356
1146.583, 25.88993
1147.065, 25.94937
1147.547, 26.27689
1148.029, 26.53497
1148.511, 26.75613
1148.993, 26.75934
1149.475, 26.34270
1149.958, 25.83935
1150.440, 25.81687
1150.922, 26.10375
1151.404, 26.40662
1151.886, 26.73364
1152.368, 26.83744
1152.850, 26.60334
1153.332, 26.38596
1153.814, 26.48140
1154.297, 26.71145
1154.779, 26.57361
1155.261, 26.18656
1155.743, 25.88754
1156.225, 25.81059
1156.707, 25.83284
1157.189, 26.00602
1157.671, 26.15230
1158.154, 26.07416
1158.636, 25.84186
1159.118, 25.72515
1159.600, 25.72373
1160.082, 25.80943
1160.564, 26.21845
1161.046, 26.37202
1161.528, 25.95735
1162.010, 25.39442
1162.493, 25.21014
1162.975, 25.33069
1163.457, 25.19799
1163.939, 24.80863
1164.421, 24.51263
1164.903, 24.50402
1165.385, 24.65735
1165.867, 25.07254
1166.349, 25.51069
1166.832, 25.50722
1167.314, 25.10424
1167.796, 24.87049
1168.278, 24.86889
1168.760, 24.91546
1169.242, 24.86237
1169.724, 24.83722
1170.206, 24.97154
1170.689, 25.18017
1171.171, 25.23310
1171.653, 25.13353
1172.135, 25.11160
1172.617, 25.23021
1173.099, 25.26061
1173.581, 24.89663
1174.063, 24.47024
1174.546, 24.18693
1175.028, 24.06000
1175.510, 24.23699
1175.992, 24.73865
1176.474, 25.07013
1176.956, 25.08521
1177.438, 24.98966
1177.920, 24.93988
1178.402, 24.89783
1178.885, 24.80047
1179.367, 24.65336
1179.849, 24.65751
1180.331, 24.83109
1180.813, 24.96196
1181.295, 24.97418
1181.777, 24.92479
1182.259, 24.77589
1182.742, 24.65819
1183.224, 24.76871
1183.706, 25.15347
1184.188, 25.35428
1184.670, 25.36285
1185.152, 25.23471
1185.634, 24.88733
1186.116, 24.60534
1186.599, 24.90491
1187.081, 25.38334
1187.563, 25.43425
1188.045, 24.82443
1188.527, 24.56032
1189.009, 24.69523
1189.491, 24.86773
1189.973, 24.86915
1190.455, 24.81984
1190.938, 24.93674
1191.420, 25.08164
1191.902, 24.99427
1192.384, 24.44531
1192.866, 24.29287
1193.348, 24.63562
1193.830, 24.89598
1194.312, 24.50728
1194.794, 23.98128
1195.277, 24.00452
1195.759, 24.38944
1196.241, 24.75983
1196.723, 25.07639
1197.205, 25.34903
1197.687, 25.60046
1198.169, 25.70733
1198.651, 25.51203
1199.134, 25.15930
1199.616, 24.73019
1200.098, 24.31359
1200.580, 24.14623
1201.062, 24.36711
1201.544, 24.59702
1202.026, 24.83786
1202.508, 25.00872
1202.990, 25.00506
1203.473, 24.91204
1203.955, 24.79220
1204.437, 24.67876
1204.919, 24.68098
1205.401, 24.93188
1205.883, 24.96856
1206.365, 24.69718
1206.847, 24.45015
1207.329, 24.66133
1207.812, 25.00367
1208.294, 24.99418
1208.776, 24.72352
1209.258, 24.67601
1209.740, 25.09401
1210.222, 25.18377
1210.704, 24.77843
1211.186, 24.35935
1211.669, 24.41867
1212.151, 24.74407
1212.633, 25.22682
1213.115, 25.77192
1213.597, 25.86966
1214.079, 25.27882
1214.561, 24.90919
1215.043, 24.90917
1215.526, 25.05906
1216.008, 25.24877
1216.490, 25.36915
1216.972, 25.21538
1217.454, 24.83191
1217.936, 24.61961
1218.418, 24.64460
1218.900, 24.69089
1219.382, 24.73428
1219.865, 24.74026
1220.347, 24.64210
1220.829, 24.50581
1221.311, 24.34135
1221.793, 24.18996
1222.275, 24.33369
1222.757, 24.90289
1223.239, 25.21651
1223.722, 25.09428
1224.204, 24.92200
1224.686, 25.18547
1225.168, 25.57137
1225.650, 25.78226
1226.132, 25.78953
1226.614, 25.66398
1227.096, 25.35147
1227.578, 25.25630
1228.061, 25.52535
1228.543, 25.73375
1229.025, 25.22626
1229.507, 24.59517
1229.989, 24.48824
1230.471, 24.87109
1230.953, 24.98657
1231.435, 24.80128
1231.917, 24.62961
1232.400, 24.52658
1232.882, 24.53892
1233.364, 24.86218
1233.846, 25.19967
1234.328, 25.26224
1234.810, 25.08203
1235.292, 24.89199
1235.774, 24.69054
1236.257, 24.55643
1236.739, 24.51568
1237.221, 24.51570
1237.703, 24.55808
1238.185, 24.58258
1238.667, 24.46875
1239.149, 24.28874
1239.631, 24.51698
1240.114, 25.11956
1240.596, 25.12123
1241.078, 24.14547
1241.560, 23.34023
1242.042, 23.84730
1242.524, 24.56205
1243.006, 24.69905
1243.488, 24.42867
1243.970, 24.49972
1244.453, 24.84088
1244.935, 24.81130
1245.417, 24.18601
1245.899, 23.61138
1246.381, 23.45010
1246.863, 23.50620
1247.345, 23.72104
1247.827, 24.00857
1248.309, 24.03637
1248.792, 23.86922
1249.274, 23.80951
1249.756, 23.95487
1250.238, 24.03738
1250.720, 23.81833
1251.202, 23.63822
1251.684, 23.64948
1252.166, 23.78409
1252.649, 23.88081
1253.131, 23.95260
1253.613, 24.04233
1254.095, 24.16343
1254.577, 24.27655
1255.059, 24.49682
1255.541, 24.48537
1256.023, 23.99317
1256.505, 23.37051
1256.988, 23.39518
1257.470, 23.83377
1257.952, 24.26058
1258.434, 24.63392
1258.916, 24.64136
1259.398, 24.03795
1259.880, 23.57172
1260.362, 23.51397
1260.844, 23.67406
1261.327, 23.81073
1261.809, 23.91969
1262.291, 24.00494
1262.773, 24.06838
1263.255, 24.04450
1263.737, 23.91415
1264.219, 23.73918
1264.701, 23.48858
1265.184, 23.34290
1265.666, 23.68785
1266.148, 24.16758
1266.630, 24.32322
1267.112, 24.10024
1267.594, 24.06354
1268.076, 24.24582
1268.558, 24.34543
1269.041, 24.25270
1269.523, 24.13823
1270.005, 24.22146
1270.487, 24.31980
1270.969, 24.22627
1271.451, 23.98135
1271.933, 23.77699
1272.415, 23.61754
1272.897, 23.77130
1273.380, 24.38824
1273.862, 24.81697
1274.344, 24.32348
1274.826, 23.73364
1275.308, 23.60144
1275.790, 23.77925
1276.272, 23.77892
1276.754, 23.63146
1277.237, 23.47585
1277.719, 23.32879
1278.201, 23.30360
1278.683, 23.63984
1279.165, 23.88730
1279.647, 23.82507
1280.129, 23.61773
1280.611, 23.61860
1281.094, 23.76418
1281.576, 23.92153
1282.058, 24.07648
1282.540, 24.05222
1283.022, 23.60700
1283.504, 23.29879
1283.986, 23.28376
1284.468, 23.43911
1284.950, 23.69396
1285.432, 23.93021
1285.915, 23.90389
1286.397, 23.59823
1286.879, 23.38460
1287.361, 23.28463
1287.843, 23.34333
1288.325, 23.62146
1288.807, 23.85962
1289.289, 23.64642
1289.772, 23.31882
1290.254, 23.26497
1290.736, 23.46107
1291.218, 23.53480
1291.700, 23.47884
1292.182, 23.33265
1292.664, 23.08539
1293.146, 22.92853
1293.629, 23.11273
1294.111, 23.35943
1294.593, 23.50178
1295.075, 23.55082
1295.557, 23.48806
1296.039, 23.33082
1296.521, 23.28562
1297.003, 23.37720
1297.485, 23.46902
1297.968, 23.52918
1298.450, 23.48754
1298.932, 23.26172
1299.414, 23.01565
1299.896, 23.05493
1300.378, 23.27243
1300.860, 23.35154
1301.342, 23.27175
1301.824, 23.11499
1302.307, 22.87161
##END=



