##NAMES=Astrophyllite
##RRUFFID=R060103
##IDEAL CHEMISTRY=K_2_NaFe^2+^_7_Ti^4+^_2_(Si_4_O_12_)_2_O_2_(OH)_4_F
##LOCALITY=Brivik, Norway
##OWNER=RRUFF
##SOURCE=University of Arizona Mineral Museum
##DESCRIPTION=Brown fragment embedded in matrix
##STATUS=The identification of this mineral is confirmed by single-crystal X-ray diffraction and chemical analysis.
##URL=rruff.info/R060103
##MEASURED CHEMISTRY=K_2.00_Na_1.00_(Fe^2+^_0.55_Mn_0.32_Fe^3+^_0.04_Mg_0.04_Ca_0.04_)_7_(Ti_0.66_Zr_0.18_Al_0.16_)_2_Si_8.00_O_26_(OH)_4_F_1.00_
92.02539, 204.1997
92.50751, 208.0395
92.98962, 211.3348
93.47174, 210.4786
93.95386, 207.8932
94.43597, 204.1776
94.91809, 199.7959
95.40021, 195.0306
95.88232, 189.9880
96.36444, 184.4655
96.84656, 178.9785
97.32867, 173.3787
97.81078, 168.0263
98.29290, 163.5586
98.77502, 160.5447
99.25713, 159.0271
99.73925, 156.3027
100.2214, 151.9578
100.7035, 147.1811
101.1856, 142.1239
101.6677, 136.9579
102.1498, 132.1369
102.6320, 128.1868
103.1141, 125.1688
103.5962, 123.1341
104.0783, 122.4350
104.5604, 122.5226
105.0425, 123.0214
105.5247, 123.9506
106.0068, 124.7551
106.4889, 124.5573
106.9710, 123.5813
107.4531, 121.4789
107.9352, 117.6004
108.4173, 112.2280
108.8995, 106.8537
109.3816, 101.7715
109.8637, 97.10906
110.3458, 92.95676
110.8279, 89.32311
111.3100, 86.12413
111.7922, 83.19804
112.2743, 80.45696
112.7564, 78.35680
113.2385, 77.40568
113.7206, 76.90646
114.2027, 76.27682
114.6849, 75.24929
115.1670, 73.95274
115.6491, 72.85821
116.1312, 72.04910
116.6133, 71.36632
117.0954, 70.79171
117.5776, 70.31583
118.0597, 69.93793
118.5418, 69.66328
119.0239, 69.49285
119.5060, 69.29248
119.9881, 68.93613
120.4703, 68.66751
120.9524, 68.55590
121.4345, 68.61464
121.9166, 68.88062
122.3987, 69.47747
122.8808, 70.47842
123.3630, 70.96684
123.8451, 70.65644
124.3272, 69.98096
124.8093, 69.33752
125.2914, 68.78784
125.7735, 68.25320
126.2557, 67.51722
126.7378, 66.63992
127.2199, 66.06857
127.7020, 66.21578
128.1841, 66.84383
128.6662, 67.17330
129.1483, 66.93082
129.6305, 66.52976
130.1126, 66.35044
130.5947, 66.36714
131.0768, 66.31329
131.5589, 65.94894
132.0410, 65.24668
132.5232, 64.45893
133.0053, 63.48626
133.4874, 62.51851
133.9695, 61.58610
134.4516, 60.71806
134.9337, 60.02799
135.4159, 59.74361
135.8980, 60.25274
136.3801, 60.42922
136.8622, 60.05442
137.3443, 59.46855
137.8264, 58.96575
138.3086, 58.65726
138.7907, 58.43735
139.2728, 58.02199
139.7549, 57.22770
140.2370, 56.43444
140.7191, 55.53602
141.2013, 54.67379
141.6834, 54.11921
142.1655, 54.07158
142.6476, 54.35163
143.1297, 54.15708
143.6118, 53.15867
144.0939, 52.14333
144.5761, 51.36624
145.0582, 50.82067
145.5403, 50.48377
146.0224, 50.42402
146.5045, 50.55520
146.9866, 50.58633
147.4688, 50.48192
147.9509, 50.29449
148.4330, 50.05127
148.9151, 49.74142
149.3972, 49.44105
149.8793, 49.12690
150.3615, 48.86102
150.8436, 48.76348
151.3257, 49.00777
151.8078, 49.38320
152.2899, 49.33176
152.7720, 48.47602
153.2542, 47.86939
153.7363, 48.10017
154.2184, 48.78870
154.7005, 49.36202
155.1826, 49.44450
155.6647, 49.08478
156.1469, 48.77710
156.6290, 48.48235
157.1111, 48.29455
157.5932, 48.30759
158.0753, 48.45259
158.5574, 48.58961
159.0396, 48.59463
159.5217, 48.44718
160.0038, 48.35504
160.4859, 48.22702
160.9680, 48.22239
161.4501, 48.49080
161.9323, 48.98378
162.4144, 49.50944
162.8965, 49.88704
163.3786, 50.11855
163.8607, 50.09309
164.3428, 49.52293
164.8250, 48.91623
165.3071, 48.65704
165.7892, 48.79998
166.2713, 49.12642
166.7534, 49.41849
167.2355, 49.68243
167.7177, 49.83730
168.1998, 49.80078
168.6819, 49.67636
169.1640, 49.60139
169.6461, 49.61239
170.1282, 49.64196
170.6104, 49.63253
171.0925, 49.59015
171.5746, 49.45918
172.0567, 49.14400
172.5388, 48.71504
173.0209, 48.38066
173.5031, 48.19700
173.9852, 48.10059
174.4673, 48.09115
174.9494, 48.14972
175.4315, 48.08289
175.9136, 47.65129
176.3958, 46.87165
176.8779, 46.27785
177.3600, 46.06527
177.8421, 45.97198
178.3242, 45.89422
178.8063, 45.81033
179.2885, 45.68571
179.7706, 45.48047
180.2527, 45.18362
180.7348, 44.84840
181.2169, 44.38999
181.6990, 43.95938
182.1812, 43.63598
182.6633, 43.43230
183.1454, 43.31743
183.6275, 43.26961
184.1096, 43.38389
184.5917, 43.35350
185.0738, 43.03119
185.5560, 42.68774
186.0381, 42.52264
186.5202, 42.58202
187.0023, 42.76469
187.4844, 42.90855
187.9665, 43.10265
188.4487, 43.08526
188.9308, 42.64287
189.4129, 42.10402
189.8950, 41.78708
190.3771, 41.79688
190.8592, 41.98730
191.3414, 42.07623
191.8235, 41.96095
192.3056, 41.93917
192.7877, 42.15851
193.2698, 42.45646
193.7519, 42.59554
194.2341, 42.47508
194.7162, 42.22720
195.1983, 42.11367
195.6804, 42.12869
196.1625, 42.22043
196.6446, 42.48146
197.1268, 42.80939
197.6089, 42.93955
198.0910, 42.71009
198.5731, 42.36004
199.0552, 42.27073
199.5373, 42.46331
200.0195, 42.72544
200.5016, 42.97255
200.9837, 43.20338
201.4658, 43.40490
201.9479, 43.55573
202.4300, 43.69335
202.9122, 43.87006
203.3943, 44.09383
203.8764, 44.29432
204.3585, 44.35553
204.8406, 44.27916
205.3227, 44.36608
205.8048, 44.85930
206.2870, 45.41923
206.7691, 45.80564
207.2512, 45.99107
207.7333, 46.08928
208.2154, 46.18496
208.6975, 46.26227
209.1797, 46.43262
209.6618, 46.76617
210.1439, 47.16724
210.6260, 47.63531
211.1081, 48.15397
211.5902, 48.62781
212.0724, 48.84618
212.5545, 48.58058
213.0366, 48.77079
213.5187, 49.99577
214.0008, 51.28967
214.4829, 52.03156
214.9651, 52.11525
215.4472, 51.90840
215.9293, 51.94505
216.4114, 52.37889
216.8935, 52.74926
217.3756, 53.03154
217.8578, 53.27799
218.3399, 53.50724
218.8220, 53.73049
219.3041, 53.97393
219.7862, 54.27661
220.2683, 54.66326
220.7505, 55.06993
221.2326, 55.49218
221.7147, 55.93587
222.1968, 56.43119
222.6789, 56.97673
223.1610, 57.50964
223.6432, 57.93124
224.1253, 58.15279
224.6074, 58.44078
225.0895, 58.87957
225.5716, 59.33780
226.0537, 59.70145
226.5358, 59.94414
227.0180, 60.09777
227.5001, 60.19102
227.9822, 60.18834
228.4643, 60.24052
228.9464, 60.36192
229.4285, 60.53994
229.9107, 60.76202
230.3928, 61.02498
230.8749, 61.32983
231.3570, 61.67810
231.8391, 62.06757
232.3212, 62.50853
232.8034, 63.11409
233.2855, 63.72885
233.7676, 64.15914
234.2497, 64.36631
234.7318, 64.41246
235.2139, 64.20544
235.6961, 63.78912
236.1782, 63.69946
236.6603, 64.36774
237.1424, 65.35487
237.6245, 65.98409
238.1066, 66.12948
238.5888, 66.06739
239.0709, 65.94128
239.5530, 65.78875
240.0351, 65.76581
240.5172, 66.03032
240.9993, 66.43798
241.4815, 66.73807
241.9636, 66.93803
242.4457, 66.96514
242.9278, 66.56523
243.4099, 65.95152
243.8920, 65.59295
244.3742, 65.89409
244.8563, 66.55334
245.3384, 66.83784
245.8205, 66.57952
246.3026, 66.32063
246.7847, 66.50901
247.2668, 66.88358
247.7490, 67.00117
248.2311, 66.54494
248.7132, 65.76101
249.1953, 65.24052
249.6774, 65.04510
250.1595, 65.01323
250.6417, 65.20483
251.1238, 65.46252
251.6059, 65.56550
252.0880, 65.37462
252.5701, 65.01759
253.0522, 64.82606
253.5344, 64.90427
254.0165, 64.94816
254.4986, 64.89417
254.9807, 64.75388
255.4628, 64.51398
255.9449, 64.15449
256.4271, 63.74784
256.9092, 63.48353
257.3913, 63.50348
257.8734, 63.39220
258.3555, 62.92896
258.8376, 62.38628
259.3198, 62.05379
259.8019, 62.04848
260.2840, 62.18467
260.7661, 62.06983
261.2482, 61.58750
261.7303, 61.05570
262.2125, 60.52955
262.6946, 59.96822
263.1767, 59.31867
263.6588, 58.56619
264.1409, 57.77860
264.6230, 57.09272
265.1052, 56.66924
265.5873, 56.01628
266.0694, 55.03797
266.5515, 53.91709
267.0336, 52.66630
267.5157, 51.34415
267.9979, 50.17574
268.4800, 49.57097
268.9621, 50.03128
269.4442, 49.95476
269.9263, 49.05280
270.4084, 47.94002
270.8906, 46.96494
271.3727, 46.19881
271.8548, 45.54753
272.3369, 44.89923
272.8190, 44.24852
273.3011, 43.63692
273.7833, 42.98423
274.2654, 42.42674
274.7475, 42.10799
275.2296, 41.98948
275.7117, 41.88663
276.1938, 41.61501
276.6760, 41.14631
277.1581, 40.67102
277.6402, 40.07410
278.1223, 39.57372
278.6044, 39.32795
279.0865, 39.28310
279.5686, 39.24727
280.0508, 39.05766
280.5329, 38.70917
281.0150, 38.46944
281.4971, 38.40405
281.9792, 38.35552
282.4613, 38.27808
282.9435, 38.17106
283.4256, 38.04476
283.9077, 37.90546
284.3898, 37.75232
284.8719, 37.58616
285.3540, 37.30924
285.8362, 37.12737
286.3183, 37.22579
286.8004, 37.44425
287.2825, 37.46786
287.7646, 37.11477
288.2467, 36.51598
288.7289, 36.12842
289.2110, 36.18143
289.6931, 36.14674
290.1752, 35.84143
290.6573, 35.42865
291.1394, 35.14440
291.6216, 35.08206
292.1037, 35.15919
292.5858, 35.21112
293.0679, 35.21145
293.5500, 35.23784
294.0321, 35.35282
294.5143, 35.47408
294.9964, 35.50822
295.4785, 35.43024
295.9606, 35.27726
296.4427, 35.08546
296.9248, 34.81363
297.4070, 34.64203
297.8891, 34.66665
298.3712, 34.74041
298.8533, 34.70591
299.3354, 34.54813
299.8175, 34.40851
300.2997, 34.44415
300.7818, 34.69364
301.2639, 34.86696
301.7460, 35.05893
302.2281, 35.10357
302.7102, 34.74821
303.1924, 34.05671
303.6745, 33.47120
304.1566, 33.34264
304.6387, 33.66201
305.1208, 33.94370
305.6029, 34.24039
306.0851, 34.45623
306.5672, 34.50063
307.0493, 34.41489
307.5314, 34.35276
308.0135, 34.43388
308.4956, 34.57639
308.9778, 34.41294
309.4599, 33.59234
309.9420, 32.95405
310.4241, 32.89259
310.9062, 33.19030
311.3883, 33.41682
311.8705, 33.38144
312.3526, 33.23134
312.8347, 33.33657
313.3168, 33.91285
313.7989, 34.20675
314.2810, 33.75851
314.7632, 33.05268
315.2453, 32.78376
315.7274, 33.15504
316.2095, 33.75865
316.6916, 34.04870
317.1737, 33.95324
317.6559, 33.84721
318.1380, 33.72567
318.6201, 33.62579
319.1022, 33.59552
319.5843, 33.63729
320.0664, 33.69928
320.5485, 33.75090
321.0306, 33.78946
321.5128, 33.71867
321.9949, 33.36988
322.4770, 33.05587
322.9591, 33.03936
323.4412, 33.26953
323.9233, 33.45021
324.4055, 33.35863
324.8876, 33.05200
325.3697, 32.95042
325.8518, 33.22078
326.3339, 33.48022
326.8160, 33.56291
327.2982, 33.52995
327.7803, 33.51335
328.2624, 33.57082
328.7445, 33.68994
329.2266, 33.85738
329.7087, 34.21281
330.1909, 34.36720
330.6730, 34.05805
331.1551, 33.57378
331.6372, 33.32198
332.1193, 33.42396
332.6014, 33.64088
333.0836, 33.60674
333.5657, 33.15860
334.0478, 32.96152
334.5299, 33.20243
335.0120, 33.59378
335.4941, 33.97304
335.9763, 34.29117
336.4584, 34.45469
336.9405, 34.33266
337.4226, 33.88637
337.9047, 33.67445
338.3868, 33.81743
338.8690, 34.04872
339.3511, 34.29810
339.8332, 34.52959
340.3153, 34.66233
340.7974, 34.63282
341.2795, 34.47208
341.7617, 34.37848
342.2438, 34.37836
342.7259, 34.40301
343.2080, 34.46534
343.6901, 34.53654
344.1722, 34.55061
344.6544, 34.47723
345.1365, 34.39622
345.6186, 34.48206
346.1007, 35.04146
346.5828, 35.28649
347.0649, 34.92009
347.5471, 34.40675
348.0292, 34.20749
348.5113, 34.38465
348.9934, 34.59779
349.4755, 34.39840
349.9576, 33.58042
350.4398, 33.23030
350.9219, 33.76706
351.4040, 34.31485
351.8861, 34.40026
352.3682, 34.07921
352.8503, 33.63143
353.3325, 33.23656
353.8146, 32.90957
354.2967, 32.90432
354.7788, 33.58294
355.2609, 34.16710
355.7430, 34.53906
356.2252, 34.70567
356.7073, 34.62935
357.1894, 34.28611
357.6715, 33.83873
358.1536, 33.70147
358.6357, 34.11079
359.1179, 34.49326
359.5999, 34.94632
360.0821, 35.29416
360.5642, 35.34024
361.0463, 35.07389
361.5284, 34.69450
362.0105, 34.43913
362.4926, 34.32042
362.9748, 34.28440
363.4569, 34.48663
363.9390, 34.62215
364.4211, 34.47586
364.9032, 34.13781
365.3853, 33.87144
365.8675, 33.89175
366.3496, 34.16217
366.8317, 34.33753
367.3138, 34.44575
367.7959, 34.40348
368.2780, 34.10047
368.7602, 33.67817
369.2423, 33.28619
369.7244, 32.98747
370.2065, 32.79002
370.6886, 32.71555
371.1707, 32.78360
371.6529, 32.93377
372.1350, 33.36307
372.6171, 33.72070
373.0992, 33.72948
373.5813, 33.37384
374.0634, 32.89985
374.5456, 32.51966
375.0277, 32.23252
375.5098, 32.06739
375.9919, 32.09699
376.4740, 32.17940
376.9561, 32.26002
377.4383, 32.33938
377.9204, 32.42625
378.4025, 32.53361
378.8846, 32.64794
379.3667, 32.72026
379.8488, 32.71886
380.3310, 32.75862
380.8131, 32.99507
381.2952, 33.24771
381.7773, 33.30412
382.2594, 33.08390
382.7415, 32.78444
383.2237, 32.59122
383.7058, 32.50352
384.1879, 32.53725
384.6700, 32.83083
385.1521, 33.10616
385.6342, 33.11079
386.1164, 32.85674
386.5985, 32.53951
387.0806, 32.16602
387.5627, 31.81820
388.0448, 31.73100
388.5269, 31.98467
389.0091, 32.29381
389.4912, 32.49885
389.9733, 32.60212
390.4554, 32.58028
390.9375, 32.30424
391.4196, 32.01530
391.9018, 31.96646
392.3839, 32.13194
392.8660, 32.28477
393.3481, 32.34842
393.8302, 32.31741
394.3123, 32.18078
394.7945, 31.91173
395.2766, 31.63789
395.7587, 31.33714
396.2408, 31.08197
396.7229, 31.05208
397.2050, 31.30799
397.6872, 31.59076
398.1693, 31.58306
398.6514, 31.24980
399.1335, 31.06644
399.6156, 31.19050
400.0977, 31.35846
400.5798, 31.35880
401.0620, 31.22069
401.5441, 31.11466
402.0262, 31.14558
402.5083, 31.29264
402.9904, 31.45515
403.4725, 31.75184
403.9547, 31.91700
404.4368, 31.80207
404.9189, 31.56542
405.4010, 31.39551
405.8831, 31.35275
406.3652, 31.39640
406.8474, 31.47847
407.3295, 31.64117
407.8116, 31.71112
408.2937, 31.56873
408.7758, 31.44990
409.2579, 31.53478
409.7401, 31.77241
410.2222, 31.97866
410.7043, 32.02113
411.1864, 31.91077
411.6685, 31.74595
412.1506, 31.41226
412.6328, 31.16825
413.1149, 31.11053
413.5970, 31.13378
414.0791, 31.11069
414.5612, 31.00013
415.0433, 30.87778
415.5255, 30.86419
416.0076, 30.98383
416.4897, 31.12890
416.9718, 31.44332
417.4539, 31.65101
417.9360, 31.54233
418.4182, 31.18757
418.9003, 30.84030
419.3824, 30.65085
419.8645, 30.61791
420.3466, 30.77213
420.8287, 31.24586
421.3109, 31.62673
421.7930, 31.78867
422.2751, 31.75916
422.7572, 31.49487
423.2393, 30.93456
423.7214, 30.37585
424.2036, 30.22552
424.6857, 30.46213
425.1678, 30.48548
425.6499, 30.00468
426.1320, 29.47248
426.6141, 29.41372
427.0963, 29.75245
427.5784, 29.87477
428.0605, 29.29009
428.5426, 28.42703
429.0247, 28.06661
429.5068, 28.28707
429.9890, 27.64517
430.4711, 28.28082
430.9532, 28.53206
431.4353, 28.41954
431.9174, 26.85383
432.3995, 27.16462
432.8817, 26.72334
433.3638, 26.25128
433.8459, 26.82619
434.3280, 25.47183
434.8101, 26.03013
435.2922, 25.82493
435.7744, 26.10254
436.2565, 26.30105
436.7386, 25.97310
437.2207, 25.52994
437.7028, 25.27873
438.1849, 25.19009
438.6671, 25.02890
439.1492, 24.61509
439.6313, 24.02080
440.1134, 23.68186
440.5955, 23.97213
441.0776, 24.05658
441.5598, 23.65568
442.0418, 23.10273
442.5240, 22.74188
443.0061, 22.66174
443.4882, 22.71344
443.9703, 22.69518
444.4524, 22.56041
444.9345, 22.57622
445.4167, 23.01464
445.8988, 23.33529
446.3809, 23.23276
446.8630, 22.87832
447.3451, 22.63263
447.8272, 22.72628
448.3094, 22.99213
448.7915, 22.97784
449.2736, 22.55607
449.7557, 22.21795
450.2378, 22.09048
450.7199, 22.08511
451.2021, 22.17953
451.6842, 22.36106
452.1663, 22.55039
452.6484, 22.72079
453.1305, 22.85489
453.6126, 22.83354
454.0948, 22.56626
454.5769, 22.34467
455.0590, 22.49737
455.5411, 22.73298
456.0232, 22.93494
456.5053, 23.06701
456.9875, 23.13294
457.4696, 22.93465
457.9517, 23.07755
458.4338, 23.08371
458.9159, 23.08427
459.3980, 23.27518
459.8802, 23.48661
460.3623, 23.39869
460.8444, 23.29044
461.3265, 23.22573
461.8086, 23.17363
462.2907, 23.08429
462.7729, 22.96913
463.2550, 22.91056
463.7371, 22.97344
464.2192, 23.13403
464.7013, 23.25766
465.1834, 23.28544
465.6656, 23.35371
466.1477, 23.52123
466.6298, 23.71988
467.1119, 23.87912
467.5940, 23.98199
468.0761, 24.05028
468.5583, 24.11002
469.0404, 24.16406
469.5225, 24.19374
470.0046, 24.14882
470.4867, 24.13189
470.9688, 24.18830
471.4510, 24.29101
471.9331, 24.40153
472.4152, 24.50480
472.8973, 24.58656
473.3794, 24.58207
473.8615, 24.43242
474.3437, 24.45088
474.8258, 24.94390
475.3079, 25.41929
475.7900, 25.54298
476.2721, 25.34451
476.7542, 25.09203
477.2364, 24.96271
477.7185, 24.89140
478.2006, 24.69844
478.6827, 24.35471
479.1648, 24.06931
479.6469, 23.99109
480.1291, 24.02265
480.6112, 23.97006
481.0933, 23.77366
481.5754, 23.63883
482.0575, 23.72648
482.5396, 23.93344
483.0217, 24.05957
483.5038, 24.06263
483.9860, 24.05235
484.4681, 24.17158
484.9502, 24.42283
485.4323, 24.27136
485.9144, 24.41681
486.3965, 24.49237
486.8787, 24.50179
487.3608, 24.24699
487.8429, 24.33338
488.3250, 24.28304
488.8071, 24.22709
489.2892, 24.36150
489.7714, 23.93623
490.2535, 23.71216
490.7356, 23.73740
491.2177, 23.76671
491.6998, 23.68787
492.1819, 23.50877
492.6641, 23.26661
493.1462, 22.96890
493.6283, 22.66043
494.1104, 22.48478
494.5925, 22.49182
495.0746, 22.49744
495.5568, 22.42728
496.0389, 22.36336
496.5210, 22.38251
497.0031, 22.48210
497.4852, 22.56853
497.9673, 22.55167
498.4495, 22.47305
498.9316, 22.49002
499.4137, 22.65566
499.8958, 22.37710
500.3779, 22.47399
500.8600, 22.50098
501.3422, 22.46183
501.8243, 22.15847
502.3064, 22.19630
502.7885, 22.09740
503.2706, 21.98747
503.7527, 21.88283
504.2349, 22.09538
504.7170, 22.32266
505.1991, 22.23945
505.6812, 21.82032
506.1633, 21.61849
506.6454, 21.84460
507.1276, 22.02889
507.6097, 21.96607
508.0918, 21.75930
508.5739, 21.54378
509.0560, 21.37566
509.5381, 21.30130
510.0203, 21.44826
510.5024, 21.98871
510.9845, 22.15887
511.4666, 21.48153
511.9487, 20.90609
512.4308, 20.85850
512.9130, 21.18092
513.3951, 21.53861
513.8772, 21.78184
514.3593, 21.91992
514.8414, 21.95751
515.3235, 21.88592
515.8057, 21.77728
516.2878, 21.61601
516.7699, 21.45277
517.2520, 21.32938
517.7341, 21.24300
518.2162, 21.17027
518.6984, 21.12194
519.1805, 21.06971
519.6626, 20.95300
520.1447, 20.77923
520.6268, 20.65789
521.1089, 20.65170
521.5911, 20.71680
522.0732, 20.77212
522.5553, 20.86531
523.0374, 20.82507
523.5195, 20.42874
524.0016, 20.02262
524.4838, 19.96507
524.9659, 20.22682
525.4480, 20.52510
525.9301, 20.67209
526.4122, 20.49488
526.8943, 20.60737
527.3765, 20.64995
527.8586, 20.62642
528.3407, 20.33866
528.8228, 20.39208
529.3049, 20.30878
529.7870, 20.21987
530.2692, 20.32130
530.7513, 20.07198
531.2334, 20.11695
531.7155, 19.98578
532.1976, 19.84205
532.6797, 19.70747
533.1619, 19.56605
533.6440, 19.45158
534.1261, 19.39905
534.6082, 19.41450
535.0903, 19.48766
535.5724, 19.63941
536.0546, 19.83850
536.5367, 20.03060
537.0188, 20.21144
537.5009, 20.35420
537.9830, 20.43871
538.4651, 20.46590
538.9473, 20.45291
539.4294, 20.29120
539.9115, 20.22845
540.3936, 20.35097
540.8757, 20.60177
541.3578, 20.97868
541.8400, 21.44872
542.3221, 21.83325
542.8042, 21.91844
543.2863, 21.69656
543.7684, 21.65624
544.2505, 21.95123
544.7326, 22.25285
545.2147, 22.50527
545.6968, 22.73003
546.1790, 22.96528
546.6611, 23.21734
547.1432, 23.43328
547.6253, 23.50120
548.1074, 23.44530
548.5895, 23.55472
549.0717, 23.89021
549.5538, 24.28347
550.0359, 24.71498
550.5180, 25.11904
551.0001, 25.35444
551.4822, 25.28880
551.9644, 25.31923
552.4465, 25.83218
552.9286, 26.59249
553.4107, 27.15506
553.8928, 27.43534
554.3749, 27.42353
554.8571, 27.00019
555.3392, 26.19039
555.8213, 25.94618
556.3034, 26.70613
556.7855, 27.40693
557.2676, 27.77269
557.7498, 27.93523
558.2319, 28.02558
558.7140, 28.09032
559.1961, 28.15259
559.6782, 28.25550
560.1603, 28.40068
560.6425, 28.41150
561.1246, 28.17673
561.6067, 27.96826
562.0888, 27.93944
562.5709, 27.94501
563.0530, 27.79325
563.5352, 27.43377
564.0173, 27.06243
564.4994, 26.88195
564.9815, 26.82549
565.4636, 26.67105
565.9457, 26.38864
566.4279, 26.04386
566.9100, 25.61901
567.3921, 25.17807
567.8742, 24.93695
568.3563, 25.08892
568.8384, 25.11813
569.3206, 24.74435
569.8027, 24.20579
570.2848, 23.78885
570.7669, 23.53544
571.2490, 23.31158
571.7311, 22.99641
572.2133, 22.60633
572.6954, 22.33732
573.1775, 22.29089
573.6596, 22.23001
574.1417, 22.13539
574.6238, 22.00703
575.1060, 21.80478
575.5881, 21.54785
576.0702, 21.35979
576.5523, 21.38553
577.0344, 21.55857
577.5165, 21.62593
577.9987, 21.56765
578.4808, 21.49114
578.9629, 21.44110
579.4450, 21.39683
579.9271, 21.32330
580.4092, 21.21302
580.8914, 21.12335
581.3735, 21.10465
581.8556, 21.09953
582.3377, 21.05034
582.8198, 20.95334
583.3019, 20.78684
583.7841, 20.50689
584.2662, 20.12240
584.7483, 20.31242
585.2304, 20.41641
585.7125, 20.43896
586.1946, 20.13624
586.6768, 20.25355
587.1589, 20.20253
587.6410, 20.14461
588.1231, 20.32104
588.6052, 20.06562
589.0873, 20.23834
589.5695, 20.24015
590.0516, 20.36282
590.5337, 20.48314
591.0158, 20.52203
591.4979, 20.23564
591.9800, 20.36929
592.4622, 20.33460
592.9443, 20.29301
593.4264, 20.48578
593.9085, 20.24670
594.3906, 20.43575
594.8727, 20.45390
595.3549, 20.55026
595.8370, 20.47725
596.3191, 20.45656
596.8012, 20.60530
597.2833, 20.66022
597.7654, 20.56771
598.2476, 20.66905
598.7297, 20.42405
599.2118, 20.48297
599.6939, 20.67301
600.1760, 20.58902
600.6581, 20.62607
601.1403, 20.79688
601.6224, 20.93614
602.1045, 21.04431
602.5866, 21.12544
603.0687, 21.19308
603.5508, 21.20231
604.0330, 21.06806
604.5151, 20.88801
604.9972, 20.78679
605.4793, 20.78560
605.9614, 20.82110
606.4435, 20.87172
606.9257, 20.93517
607.4078, 21.01669
607.8899, 21.11254
608.3720, 21.19382
608.8541, 21.23980
609.3362, 21.26153
609.8184, 21.29411
610.3005, 21.33547
610.7826, 21.39242
611.2647, 21.56669
611.7468, 21.66786
612.2289, 21.45866
612.7111, 21.06965
613.1932, 20.87487
613.6753, 21.12082
614.1574, 21.56406
614.6395, 21.75159
615.1216, 21.66872
615.6038, 21.50800
616.0859, 21.18174
616.5680, 20.96375
617.0501, 21.18792
617.5322, 21.72351
618.0143, 22.13227
618.4965, 22.28506
618.9786, 22.33452
619.4607, 22.29835
619.9428, 22.23993
620.4249, 22.30350
620.9070, 22.51688
621.3892, 22.73849
621.8713, 22.81588
622.3534, 22.75231
622.8355, 22.77093
623.3176, 23.07024
623.7997, 23.19023
624.2819, 22.76900
624.7640, 22.33548
625.2461, 22.47068
625.7282, 23.17532
626.2103, 23.86294
626.6924, 24.01307
627.1745, 23.85036
627.6566, 23.98456
628.1387, 24.44777
628.6208, 24.73345
629.1030, 24.54193
629.5851, 24.21387
630.0672, 24.31336
630.5493, 24.86097
631.0314, 25.28096
631.5135, 25.43547
631.9957, 25.49067
632.4778, 25.43758
632.9599, 25.38559
633.4420, 25.56736
633.9241, 26.06333
634.4063, 26.68606
634.8884, 27.16951
635.3705, 27.49561
635.8526, 27.84282
636.3347, 28.15785
636.8168, 28.57197
637.2990, 29.21501
637.7811, 29.92937
638.2632, 30.52920
638.7453, 30.97243
639.2274, 31.34576
639.7095, 31.58633
640.1917, 31.83749
640.6738, 32.42456
641.1559, 33.35069
641.6380, 34.27105
642.1201, 35.00325
642.6022, 35.60878
643.0844, 36.22766
643.5665, 36.84830
644.0486, 37.50739
644.5307, 38.24544
645.0128, 38.98100
645.4949, 39.64811
645.9771, 40.28465
646.4592, 40.95091
646.9413, 41.66742
647.4234, 42.48979
647.9055, 43.58636
648.3876, 44.94684
648.8698, 46.01690
649.3519, 46.62212
649.8340, 47.22810
650.3161, 48.20523
650.7982, 49.35494
651.2803, 50.25477
651.7625, 50.80422
652.2446, 51.28903
652.7267, 51.81742
653.2088, 52.33617
653.6909, 52.86999
654.1730, 53.35721
654.6552, 53.55503
655.1373, 53.29995
655.6194, 52.73552
656.1015, 52.26299
656.5836, 52.07422
657.0657, 51.48306
657.5479, 50.07130
658.0300, 48.60611
658.5121, 47.42284
658.9942, 46.42039
659.4763, 45.37365
659.9584, 44.19363
660.4406, 42.98662
660.9227, 41.83504
661.4048, 40.73338
661.8869, 39.65466
662.3690, 38.59764
662.8511, 37.54111
663.3333, 36.41515
663.8154, 35.30372
664.2975, 34.57021
664.7796, 34.66500
665.2617, 34.50625
665.7438, 33.90544
666.2260, 33.18673
666.7081, 32.45354
667.1902, 31.79517
667.6723, 31.38745
668.1544, 31.35399
668.6365, 31.45179
669.1187, 31.22149
669.6008, 30.68829
670.0829, 30.48879
670.5650, 30.84380
671.0471, 31.18295
671.5292, 30.96503
672.0114, 30.40189
672.4935, 30.27379
672.9756, 30.88978
673.4577, 31.41880
673.9398, 31.54831
674.4219, 31.52439
674.9041, 31.59369
675.3862, 31.74929
675.8683, 31.83727
676.3504, 31.75863
676.8325, 31.57481
677.3146, 31.39574
677.7968, 31.18083
678.2789, 31.17921
678.7610, 31.54564
679.2431, 31.96910
679.7252, 32.29873
680.2073, 32.54290
680.6895, 32.68628
681.1716, 32.63522
681.6537, 32.70688
682.1358, 33.23256
682.6179, 33.92043
683.1000, 34.35743
683.5822, 34.50993
684.0643, 34.53747
684.5464, 34.52633
685.0285, 34.51185
685.5106, 34.61123
685.9927, 34.92831
686.4749, 35.11465
686.9570, 34.98649
687.4391, 34.89547
687.9212, 35.01762
688.4033, 35.28078
688.8854, 35.54559
689.3676, 35.76823
689.8497, 35.98322
690.3318, 36.27740
690.8139, 36.56995
691.2960, 36.60575
691.7781, 36.37499
692.2603, 36.29076
692.7424, 36.63975
693.2245, 37.23761
693.7066, 37.60112
694.1887, 37.60066
694.6708, 37.61840
695.1530, 37.55324
695.6351, 37.60704
696.1172, 38.09806
696.5993, 38.71309
697.0814, 38.83012
697.5635, 38.20766
698.0457, 37.54021
698.5278, 37.55912
699.0099, 38.09581
699.4920, 38.69273
699.9741, 39.33041
700.4562, 39.69971
700.9384, 39.52008
701.4205, 39.12615
701.9026, 39.28419
702.3847, 40.42229
702.8668, 40.93829
703.3489, 40.33993
703.8311, 39.60662
704.3132, 39.14075
704.7953, 38.89275
705.2774, 38.72760
705.7595, 38.60240
706.2416, 38.54996
706.7238, 38.65581
707.2059, 38.87180
707.6880, 38.97599
708.1701, 38.95242
708.6522, 38.90386
709.1343, 38.84032
709.6164, 38.81232
710.0985, 38.92000
710.5806, 39.18618
711.0627, 39.41008
711.5449, 39.55001
712.0270, 39.67693
712.5091, 39.90143
712.9912, 40.09961
713.4733, 40.08070
713.9554, 39.81155
714.4376, 39.43092
714.9197, 39.00681
715.4018, 38.59655
715.8839, 38.47528
716.3660, 38.69598
716.8481, 38.81279
717.3303, 38.64843
717.8124, 38.38359
718.2945, 38.26066
718.7766, 38.26109
719.2587, 38.07272
719.7408, 37.42699
720.2230, 36.87479
720.7051, 36.77222
721.1872, 36.80119
721.6693, 36.56964
722.1514, 36.04505
722.6335, 35.45301
723.1157, 34.94836
723.5978, 34.52338
724.0799, 34.17839
724.5620, 33.92050
725.0441, 33.65013
725.5262, 33.35668
726.0084, 33.03352
726.4905, 32.65665
726.9726, 32.24289
727.4547, 31.87028
727.9368, 31.53864
728.4189, 31.25217
728.9011, 31.05158
729.3832, 30.86760
729.8653, 30.55254
730.3474, 30.18692
730.8295, 30.12420
731.3116, 30.60180
731.7938, 31.12161
732.2759, 30.60426
732.7580, 29.02661
733.2401, 28.13403
733.7222, 28.19164
734.2043, 28.63534
734.6865, 29.51920
735.1686, 30.41067
735.6507, 30.30603
736.1328, 28.83428
736.6149, 27.66399
737.0970, 27.34033
737.5792, 27.22869
738.0613, 26.88394
738.5434, 26.41389
739.0255, 26.11040
739.5076, 26.06638
739.9897, 26.10081
740.4719, 25.99390
740.9540, 25.76967
741.4361, 25.58620
741.9182, 25.43531
742.4003, 25.38410
742.8824, 25.53005
743.3646, 25.70486
743.8467, 25.65095
744.3288, 25.36598
744.8109, 25.16306
745.2930, 25.20595
745.7751, 25.17362
746.2573, 24.84128
746.7394, 24.41619
747.2215, 24.12925
747.7036, 24.02067
748.1857, 24.02016
748.6678, 24.09646
749.1500, 24.21456
749.6321, 24.33081
750.1142, 24.44508
750.5963, 24.36902
751.0784, 23.98739
751.5605, 23.64532
752.0427, 23.68237
752.5248, 24.00276
753.0069, 24.06855
753.4890, 23.74154
753.9711, 23.39951
754.4532, 22.91360
754.9354, 22.58160
755.4175, 22.77611
755.8996, 23.27631
756.3817, 23.55901
756.8638, 23.39677
757.3459, 23.07397
757.8281, 22.84520
758.3102, 22.73381
758.7923, 22.93720
759.2744, 23.49170
759.7565, 23.80972
760.2386, 23.55328
760.7208, 23.00209
761.2029, 22.62289
761.6850, 22.44052
762.1671, 22.33533
762.6492, 22.31840
763.1313, 22.35944
763.6135, 22.45102
764.0956, 22.59435
764.5777, 22.90423
765.0598, 23.32836
765.5419, 23.47114
766.0240, 22.83807
766.5062, 21.99172
766.9883, 21.76967
767.4704, 22.04703
767.9525, 22.35392
768.4346, 22.58350
768.9167, 22.67691
769.3989, 22.55820
769.8810, 22.26884
770.3631, 22.06072
770.8452, 21.88511
771.3273, 21.88285
771.8094, 22.30575
772.2916, 22.65972
772.7737, 22.57303
773.2558, 22.23976
773.7379, 22.10745
774.2200, 22.35537
774.7021, 22.57414
775.1843, 22.49991
775.6664, 22.23467
776.1485, 21.78112
776.6306, 21.24389
777.1127, 21.03283
777.5948, 21.33763
778.0770, 21.81367
778.5591, 21.93519
779.0412, 21.68392
779.5233, 21.46690
780.0054, 21.25002
780.4875, 21.14170
780.9697, 21.26251
781.4518, 21.44468
781.9339, 21.49923
782.4160, 21.44107
782.8981, 21.46826
783.3802, 21.80393
783.8624, 22.03470
784.3445, 21.88888
784.8266, 21.54981
785.3087, 21.18718
785.7908, 20.86806
786.2729, 20.68478
786.7551, 20.70733
787.2372, 20.86554
787.7193, 21.06517
788.2014, 21.30340
788.6835, 21.37566
789.1656, 21.22167
789.6478, 21.02858
790.1299, 20.87335
790.6120, 20.77850
791.0941, 20.83994
791.5762, 21.20503
792.0583, 21.27830
792.5404, 20.73598
793.0225, 20.21459
793.5046, 19.99375
793.9868, 19.98135
794.4689, 20.09043
794.9510, 20.27253
795.4331, 20.37128
795.9152, 20.20091
796.3973, 19.92257
796.8795, 19.81126
797.3616, 19.83715
797.8437, 19.86217
798.3258, 19.85273
798.8079, 19.82398
799.2900, 19.78187
799.7722, 19.73633
800.2543, 19.74731
800.7364, 19.85126
801.2185, 19.93695
801.7006, 20.11718
802.1827, 20.15251
802.6649, 19.77982
803.1470, 19.22302
803.6291, 18.91788
804.1112, 18.99849
804.5933, 19.07297
805.0754, 18.88855
805.5576, 18.65215
806.0397, 18.57357
806.5218, 18.61640
807.0039, 18.67889
807.4860, 18.72082
807.9681, 18.71750
808.4503, 18.62671
808.9324, 18.47079
809.4145, 18.36847
809.8966, 18.32148
810.3787, 18.32734
810.8608, 18.43155
811.3430, 18.50152
811.8251, 18.36926
812.3072, 18.08082
812.7893, 17.95844
813.2714, 18.19360
813.7535, 18.30698
814.2357, 18.05054
814.7178, 17.81768
815.1999, 17.94754
815.6820, 18.29807
816.1641, 18.55721
816.6462, 18.61667
817.1284, 18.56228
817.6105, 18.47242
818.0926, 18.32079
818.5747, 17.94400
819.0568, 17.41242
819.5389, 17.20675
820.0211, 17.50901
820.5032, 17.98095
820.9853, 18.26083
821.4674, 18.34975
821.9495, 18.22616
822.4316, 17.65195
822.9138, 17.38832
823.3959, 17.84756
823.8780, 18.37736
824.3601, 18.51939
824.8422, 18.40002
825.3243, 18.37449
825.8065, 18.58052
826.2886, 18.68913
826.7707, 18.47326
827.2528, 18.19220
827.7349, 18.07448
828.2170, 18.08072
828.6992, 18.10785
829.1813, 18.11179
829.6634, 18.03730
830.1455, 17.75306
830.6276, 17.35804
831.1097, 17.20680
831.5919, 17.29629
832.0740, 17.42809
832.5561, 17.55482
833.0382, 17.67761
833.5203, 17.80835
834.0024, 17.93679
834.4846, 17.98269
834.9667, 17.77703
835.4488, 17.76951
835.9309, 18.25088
836.4130, 18.64476
836.8951, 18.54233
837.3773, 18.18159
837.8594, 18.03147
838.3415, 18.22374
838.8236, 18.36172
839.3057, 18.09049
839.7878, 17.79839
840.2700, 17.93602
840.7521, 18.33356
841.2342, 18.62613
841.7163, 18.70428
842.1984, 18.60970
842.6805, 18.35013
843.1627, 17.98728
843.6448, 17.67778
844.1269, 17.42023
844.6090, 17.33698
845.0911, 17.49572
845.5732, 17.66562
846.0554, 17.66656
846.5375, 17.57551
847.0196, 17.61757
847.5017, 17.86850
847.9838, 18.08099
848.4659, 18.31089
848.9481, 18.43999
849.4302, 18.35006
849.9123, 18.17705
850.3944, 18.04988
850.8765, 17.99825
851.3586, 18.06207
851.8408, 18.41282
852.3229, 18.73744
852.8050, 18.72812
853.2871, 18.52783
853.7692, 18.32058
854.2513, 18.16953
854.7335, 18.19802
855.2156, 18.50661
855.6977, 18.87731
856.1798, 18.82898
856.6619, 18.38197
857.1440, 18.20528
857.6262, 18.37766
858.1083, 18.57316
858.5904, 18.64552
859.0725, 18.68266
859.5546, 18.82834
860.0367, 19.10390
860.5189, 19.23206
861.0010, 19.11811
861.4831, 18.99148
861.9652, 18.82245
862.4473, 18.70931
862.9294, 18.76808
863.4116, 18.94205
863.8937, 19.06362
864.3758, 19.07055
864.8579, 19.05906
865.3400, 19.03949
865.8221, 19.06959
866.3043, 19.27655
866.7864, 19.58448
867.2685, 19.72512
867.7506, 19.63321
868.2327, 19.65664
868.7148, 20.28768
869.1970, 21.23141
869.6791, 21.39564
870.1612, 20.77893
870.6433, 20.30219
871.1254, 20.15386
871.6075, 20.18790
872.0897, 20.33386
872.5718, 20.54537
873.0539, 20.65843
873.5360, 20.53444
874.0181, 20.63017
874.5002, 21.25527
874.9823, 21.74143
875.4644, 21.74562
875.9465, 21.57428
876.4286, 21.57209
876.9108, 21.76598
877.3929, 21.99680
877.8750, 22.24232
878.3571, 22.47360
878.8392, 22.59999
879.3214, 22.75112
879.8035, 23.18011
880.2856, 23.79247
880.7677, 24.18059
881.2498, 24.12097
881.7319, 23.99863
882.2141, 24.37712
882.6962, 25.06659
883.1783, 25.50788
883.6604, 25.68750
884.1425, 25.66714
884.6246, 25.44301
885.1068, 25.28509
885.5889, 25.52090
886.0710, 26.08495
886.5531, 26.44644
887.0352, 26.51998
887.5173, 26.64251
887.9995, 26.89128
888.4816, 27.14728
888.9637, 27.28567
889.4458, 27.39891
889.9279, 27.69187
890.4100, 28.22186
890.8922, 28.70867
891.3743, 29.06112
891.8564, 29.42484
892.3385, 29.93169
892.8206, 30.44220
893.3027, 30.78478
893.7849, 30.96142
894.2670, 31.09110
894.7491, 31.23273
895.2312, 31.35002
895.7133, 31.30549
896.1954, 31.26615
896.6776, 31.59607
897.1597, 32.21627
897.6418, 32.70737
898.1239, 32.88794
898.6060, 32.91833
899.0881, 32.94592
899.5703, 33.00151
900.0524, 33.31810
900.5345, 33.91773
901.0166, 34.28456
901.4987, 34.22504
901.9808, 34.20753
902.4630, 34.62650
902.9451, 35.36633
903.4272, 36.03283
903.9093, 36.68368
904.3914, 37.12909
904.8735, 37.15755
905.3557, 37.24451
905.8378, 37.62799
906.3199, 38.10305
906.8020, 38.41625
907.2841, 38.56881
907.7662, 38.82012
908.2484, 39.37374
908.7305, 39.85427
909.2126, 40.02012
909.6947, 40.11497
910.1768, 40.32646
910.6589, 40.67159
911.1411, 41.19927
911.6232, 41.93606
912.1053, 42.49120
912.5874, 42.29363
913.0695, 41.85398
913.5516, 42.07576
914.0338, 42.73629
914.5159, 43.05706
914.9980, 42.88210
915.4801, 42.67876
915.9622, 42.81352
916.4443, 43.16347
916.9265, 43.43897
917.4086, 43.64089
917.8907, 43.92757
918.3728, 44.35413
918.8549, 44.61218
919.3370, 44.53740
919.8192, 44.27952
920.3013, 44.00767
920.7834, 43.71487
921.2655, 43.65741
921.7476, 44.21604
922.2297, 44.35054
922.7119, 43.45582
923.1940, 42.55675
923.6761, 42.26281
924.1582, 42.37911
924.6403, 42.52389
925.1224, 42.68881
925.6046, 42.74014
926.0867, 42.61203
926.5688, 42.39843
927.0509, 42.08650
927.5330, 41.75714
928.0151, 41.55471
928.4973, 41.43946
928.9794, 41.16169
929.4615, 40.52413
929.9436, 39.90598
930.4257, 39.68451
930.9078, 39.65697
931.3900, 39.56531
931.8721, 39.38555
932.3542, 39.10639
932.8363, 38.73573
933.3184, 38.38476
933.8005, 38.17724
934.2827, 38.05892
934.7648, 37.93318
935.2469, 37.78347
935.7290, 37.40351
936.2111, 36.75323
936.6932, 36.05518
937.1754, 35.40328
937.6575, 34.91264
938.1396, 34.87892
938.6217, 35.38100
939.1038, 35.28484
939.5859, 34.32153
940.0681, 33.47701
940.5502, 33.01055
941.0323, 32.71175
941.5144, 32.42278
941.9965, 32.15355
942.4786, 31.95711
942.9608, 31.96084
943.4429, 31.77061
943.9250, 31.21850
944.4071, 30.64927
944.8892, 30.09287
945.3713, 29.66274
945.8535, 29.60013
946.3356, 29.84307
946.8177, 29.85132
947.2998, 29.28933
947.7819, 28.70618
948.2640, 28.38928
948.7462, 28.15390
949.2283, 27.81092
949.7104, 27.41545
950.1925, 27.15404
950.6746, 27.06535
951.1567, 26.89388
951.6389, 26.31025
952.1210, 25.65007
952.6031, 25.40602
953.0852, 25.39697
953.5673, 25.20089
954.0494, 24.79512
954.5316, 24.46764
955.0137, 24.37822
955.4958, 24.29827
955.9779, 23.77651
956.4600, 22.96173
956.9421, 22.71173
957.4242, 22.99759
957.9063, 22.95826
958.3884, 22.34433
958.8705, 21.69907
959.3527, 21.48972
959.8348, 21.51851
960.3169, 21.16825
960.7990, 20.31858
961.2811, 19.73690
961.7632, 19.48251
962.2454, 19.38914
962.7275, 19.53197
963.2096, 19.61863
963.6917, 19.27535
964.1738, 18.55148
964.6559, 17.98587
965.1381, 17.55145
965.6202, 17.32631
966.1023, 17.54748
966.5844, 17.70469
967.0665, 17.55455
967.5486, 17.22435
968.0308, 16.84849
968.5129, 16.44026
968.9950, 16.11721
969.4771, 15.94762
969.9592, 15.80810
970.4413, 15.62397
970.9235, 15.30152
971.4056, 15.40292
971.8877, 15.41826
972.3698, 15.35218
972.8519, 14.96081
973.3340, 14.98950
973.8162, 14.84981
974.2983, 14.70326
974.7804, 14.79105
975.2625, 14.44699
975.7446, 14.53106
976.2267, 14.44425
976.7089, 14.43561
977.1910, 14.25764
977.6731, 14.13197
978.1552, 14.17572
978.6373, 14.12567
979.1194, 13.92820
979.6016, 13.92453
980.0837, 13.57456
980.5658, 13.75252
981.0479, 13.79498
981.5300, 13.55638
982.0121, 13.21921
982.4943, 13.10467
982.9764, 13.18368
983.4585, 13.29629
983.9406, 13.43707
984.4227, 13.68222
984.9048, 14.07402
985.3870, 14.30769
985.8691, 14.05453
986.3512, 13.52260
986.8333, 13.46516
987.3154, 13.98145
987.7975, 14.09853
988.2797, 13.64630
988.7618, 13.28219
989.2439, 13.27889
989.7260, 13.44820
990.2081, 13.60231
990.6902, 13.73377
991.1724, 13.77154
991.6545, 13.67695
992.1366, 13.57463
992.6187, 13.43178
993.1008, 13.34441
993.5829, 13.40707
994.0651, 13.51437
994.5472, 13.48597
995.0293, 13.31720
995.5114, 13.30253
995.9935, 13.59323
996.4756, 13.82312
996.9578, 13.90132
997.4399, 13.95299
997.9220, 14.06324
998.4041, 14.18574
998.8862, 14.22576
999.3683, 14.17095
999.8505, 14.16744
1000.333, 14.44058
1000.815, 14.52191
1001.297, 13.99167
1001.779, 13.42159
1002.261, 13.31580
1002.743, 13.53248
1003.225, 13.74022
1003.707, 13.85846
1004.190, 13.90212
1004.672, 13.84318
1005.154, 13.75249
1005.636, 13.53627
1006.118, 13.41310
1006.600, 13.77989
1007.082, 14.46029
1007.564, 14.90475
1008.046, 14.91263
1008.529, 14.77670
1009.011, 14.69681
1009.493, 14.61695
1009.975, 14.41716
1010.457, 14.19857
1010.939, 14.19768
1011.421, 14.37630
1011.903, 14.42634
1012.385, 14.19189
1012.868, 13.97379
1013.350, 14.13710
1013.832, 14.52108
1014.314, 14.94697
1014.796, 15.32028
1015.278, 15.24848
1015.760, 14.75833
1016.242, 14.50140
1016.725, 14.87649
1017.207, 15.46288
1017.689, 15.64010
1018.171, 15.52283
1018.653, 15.52680
1019.135, 15.63122
1019.617, 15.59985
1020.099, 15.23686
1020.581, 15.39610
1021.064, 15.46921
1021.546, 15.46098
1022.028, 15.12746
1022.510, 15.21398
1022.992, 15.13217
1023.474, 15.04345
1023.956, 15.18910
1024.438, 14.90288
1024.921, 14.88810
1025.403, 15.04907
1025.885, 15.38587
1026.367, 15.52936
1026.849, 15.46717
1027.331, 15.41072
1027.813, 15.37342
1028.295, 15.22770
1028.777, 14.87121
1029.260, 14.65246
1029.742, 14.91324
1030.224, 15.44059
1030.706, 15.60078
1031.188, 15.29110
1031.670, 15.19586
1032.152, 15.43883
1032.634, 15.52364
1033.116, 15.25077
1033.599, 14.89341
1034.081, 14.66720
1034.563, 14.53757
1035.045, 14.38798
1035.527, 14.17784
1036.009, 14.09198
1036.491, 14.17150
1036.973, 14.30327
1037.456, 14.53018
1037.938, 14.70275
1038.420, 14.64685
1038.902, 14.44594
1039.384, 14.39186
1039.866, 14.56914
1040.348, 14.65682
1040.830, 14.62883
1041.313, 14.54843
1041.795, 14.44380
1042.277, 14.28107
1042.759, 13.93324
1043.241, 13.50890
1043.723, 13.37472
1044.205, 13.66921
1044.687, 13.87686
1045.169, 13.98072
1045.651, 13.99010
1046.134, 13.81865
1046.616, 13.63054
1047.098, 13.57968
1047.580, 13.61943
1048.062, 13.58486
1048.544, 13.40213
1049.026, 13.35509
1049.508, 13.60085
1049.991, 13.83226
1050.473, 14.02722
1050.955, 14.09748
1051.437, 13.88623
1051.919, 13.50664
1052.401, 13.25899
1052.883, 13.20705
1053.365, 13.19162
1053.848, 13.28207
1054.330, 13.27225
1054.812, 12.92507
1055.294, 12.58269
1055.776, 12.58910
1056.258, 12.83024
1056.740, 12.98811
1057.222, 12.99810
1057.704, 12.98114
1058.187, 13.02082
1058.669, 12.97690
1059.151, 12.67990
1059.633, 12.36998
1060.115, 12.26809
1060.597, 12.31814
1061.079, 12.36819
1061.561, 12.38905
1062.043, 12.39451
1062.526, 12.36399
1063.008, 12.35170
1063.490, 12.37572
1063.972, 12.43413
1064.454, 12.55435
1064.936, 12.69769
1065.418, 12.79013
1065.900, 12.81654
1066.383, 12.81614
1066.865, 12.83488
1067.347, 12.79073
1067.829, 12.51695
1068.311, 12.28080
1068.793, 12.42647
1069.275, 12.74238
1069.757, 12.75136
1070.240, 12.38072
1070.722, 12.16245
1071.204, 12.55595
1071.686, 12.83724
1072.168, 12.54449
1072.650, 12.11895
1073.132, 11.85561
1073.614, 11.75494
1074.096, 11.77854
1074.578, 11.90903
1075.061, 12.08578
1075.543, 12.37677
1076.025, 12.56251
1076.507, 12.44705
1076.989, 12.27448
1077.471, 12.21598
1077.953, 12.24216
1078.435, 12.32731
1078.918, 12.43915
1079.400, 12.44266
1079.882, 12.23767
1080.364, 12.02133
1080.846, 11.92792
1081.328, 11.81478
1081.810, 11.46140
1082.292, 11.09379
1082.774, 11.04251
1083.257, 11.29679
1083.739, 11.61069
1084.221, 11.97039
1084.703, 12.17259
1085.185, 11.96602
1085.667, 11.74562
1086.149, 11.77525
1086.631, 11.93436
1087.114, 12.08699
1087.596, 12.22110
1088.078, 12.37929
1088.560, 12.58910
1089.042, 12.74774
1089.524, 12.81463
1090.006, 12.81793
1090.488, 12.75389
1090.970, 12.64996
1091.453, 12.54723
1091.935, 12.42469
1092.417, 12.17255
1092.899, 11.73169
1093.381, 11.52671
1093.863, 12.02111
1094.345, 12.39147
1094.827, 12.07682
1095.309, 11.64264
1095.792, 11.60066
1096.274, 11.80047
1096.756, 11.87020
1097.238, 11.74642
1097.720, 11.68994
1098.202, 11.92210
1098.684, 12.03906
1099.166, 11.75027
1099.649, 11.45934
1100.131, 11.53426
1100.613, 11.74254
1101.095, 11.65763
1101.577, 11.27603
1102.059, 11.09080
1102.541, 11.33554
1103.023, 11.59641
1103.505, 11.89285
1103.988, 12.04858
1104.470, 11.84356
1104.952, 11.53341
1105.434, 11.45013
1105.916, 11.55034
1106.398, 11.50141
1106.880, 11.15821
1107.362, 10.89386
1107.844, 10.71449
1108.327, 10.68808
1108.809, 11.00660
1109.291, 11.34635
1109.773, 11.38488
1110.255, 11.21255
1110.737, 11.12659
1111.219, 11.18144
1111.701, 11.18673
1112.184, 11.11714
1112.666, 11.01382
1113.148, 10.85738
1113.630, 10.69822
1114.112, 10.50078
1114.594, 10.35118
1115.076, 10.48008
1115.558, 10.94838
1116.041, 11.07388
1116.523, 10.55078
1117.005, 10.24080
1117.487, 10.45365
1117.969, 10.58044
1118.451, 10.62582
1118.933, 10.34590
1119.415, 10.48603
1119.897, 10.45782
1120.380, 10.42275
1120.862, 10.62200
1121.344, 10.38939
1121.826, 10.58493
1122.308, 10.60955
1122.790, 10.71240
1123.272, 10.69638
1123.754, 10.65311
1124.236, 10.36773
1124.719, 10.15392
1125.201, 10.00921
1125.683, 9.959520
1126.165, 10.03889
1126.647, 10.07873
1127.129, 10.02718
1127.611, 9.961644
1128.093, 9.919995
1128.576, 9.936155
1129.058, 10.10756
1129.540, 10.41743
1130.022, 10.47882
1130.504, 10.26633
1130.986, 10.08519
1131.468, 9.975570
1131.950, 9.967753
1132.432, 10.09055
1132.915, 10.22396
1133.397, 10.21067
1133.879, 10.10611
1134.361, 10.13657
1134.843, 10.28216
1135.325, 10.27444
1135.807, 10.10563
1136.289, 10.02054
1136.771, 10.09540
1137.254, 10.12452
1137.736, 9.920793
1138.218, 9.671212
1138.700, 9.737368
1139.182, 10.03651
1139.664, 10.35917
1140.146, 10.65999
1140.628, 10.75736
1141.111, 10.64163
1141.593, 10.48908
1142.075, 10.39187
1142.557, 10.28321
1143.039, 10.04577
1143.521, 9.780994
1144.003, 9.634793
1144.485, 9.603076
1144.968, 9.743368
1145.450, 9.984818
1145.932, 10.10915
1146.414, 10.05565
1146.896, 9.955108
1147.378, 9.858361
1147.860, 9.837335
1148.342, 10.07543
1148.824, 10.33193
1149.307, 10.23983
1149.789, 9.993207
1150.271, 10.04075
1150.753, 10.34627
1151.235, 10.40053
1151.717, 9.939021
1152.199, 9.481906
1152.681, 9.226619
1153.163, 9.189330
1153.646, 9.615775
1154.128, 10.07450
1154.610, 10.07112
1155.092, 9.743373
1155.574, 9.471385
1156.056, 9.326517
1156.538, 9.256140
1157.020, 9.232555
1157.503, 9.299106
1157.985, 9.571945
1158.467, 9.824334
1158.949, 9.891366
1159.431, 9.879096
1159.913, 9.967327
1160.395, 10.13237
1160.877, 10.11563
1161.359, 9.750744
1161.842, 9.508246
1162.324, 9.366288
1162.806, 9.394335
1163.288, 9.760774
1163.770, 10.10795
1164.252, 10.15367
1164.734, 10.00462
1165.216, 9.887424
1165.698, 9.803479
1166.181, 9.704752
1166.663, 9.494683
1167.145, 9.710893
1167.627, 10.62451
1168.109, 11.21202
1168.591, 10.91649
1169.073, 10.32382
1169.555, 10.08759
1170.037, 10.14464
1170.520, 10.32980
1171.002, 10.63354
1171.484, 10.64720
1171.966, 10.36061
1172.448, 10.05620
1172.930, 9.812665
1173.412, 9.789540
1173.894, 10.11785
1174.377, 10.49461
1174.859, 10.42808
1175.341, 10.07401
1175.823, 9.796325
1176.305, 9.613355
1176.787, 9.644963
1177.269, 9.837882
1177.751, 9.925069
1178.234, 9.816882
1178.716, 9.650537
1179.198, 9.510040
1179.680, 9.406816
1180.162, 9.346548
1180.644, 9.336545
1181.126, 9.404960
1181.608, 9.520784
1182.090, 9.649771
1182.573, 9.770501
1183.055, 9.816785
1183.537, 9.736590
1184.019, 9.779528
1184.501, 10.31553
1184.983, 10.70895
1185.465, 10.52256
1185.947, 10.11957
1186.429, 9.684238
1186.912, 9.325696
1187.394, 9.218556
1187.876, 9.367501
1188.358, 9.496869
1188.840, 9.563506
1189.322, 9.607695
1189.804, 9.667045
1190.286, 9.656167
1190.769, 9.410609
1191.251, 9.237714
1191.733, 9.532062
1192.215, 10.02554
1192.697, 9.958166
1193.179, 9.215215
1193.661, 8.940448
1194.143, 9.300941
1194.625, 9.488394
1195.108, 9.337729
1195.590, 9.210465
1196.072, 9.295007
1196.554, 9.400920
1197.036, 9.284448
1197.518, 9.064548
1198.000, 9.129863
1198.482, 9.451230
1198.964, 9.855388
1199.447, 10.28879
1199.929, 10.34704
1200.411, 9.974691
1200.893, 9.565413
1201.375, 9.342496
1201.857, 9.290030
1202.339, 9.515422
1202.821, 9.783491
1203.304, 9.648098
1203.786, 9.313324
1204.268, 9.080713
1204.750, 8.990482
1205.232, 9.101740
1205.714, 9.377287
1206.196, 9.531820
1206.678, 9.373223
1207.161, 9.214316
1207.643, 9.225422
1208.125, 9.331286
1208.607, 9.584642
1209.089, 9.818126
1209.571, 9.811938
1210.053, 9.658988
1210.535, 9.598479
1211.017, 9.667074
1211.500, 9.773455
1211.982, 9.977164
1212.464, 10.10513
1212.946, 10.02750
1213.428, 10.02104
1213.910, 10.35519
1214.392, 10.59035
1214.874, 10.18929
1215.356, 9.435623
1215.839, 9.235004
1216.321, 9.670390
1216.803, 9.834194
1217.285, 9.671069
1217.767, 9.614125
1218.249, 9.745190
1218.731, 9.903354
1219.213, 10.01781
1219.696, 10.06765
1220.178, 10.02328
1220.660, 9.913665
1221.142, 9.756684
1221.624, 9.601442
1222.106, 9.681887
1222.588, 9.912306
1223.070, 9.920436
1223.552, 9.695421
1224.035, 9.578037
1224.517, 9.727798
1224.999, 9.943464
1225.481, 10.19518
1225.963, 10.27717
1226.445, 9.764030
1226.927, 9.193902
1227.409, 9.200047
1227.891, 9.534860
1228.374, 9.739561
1228.856, 9.774698
1229.338, 9.875859
1229.820, 10.18609
1230.302, 10.28174
1230.784, 9.889882
1231.266, 9.512661
1231.748, 9.247070
1232.231, 9.114231
1232.713, 9.242219
1233.195, 9.401645
1233.677, 9.201214
1234.159, 8.712374
1234.641, 8.611583
1235.123, 9.024013
1235.605, 9.203335
1236.088, 9.073901
1236.570, 9.033190
1237.052, 9.182809
1237.534, 9.478175
1238.016, 9.916648
1238.498, 10.28534
1238.980, 10.24212
1239.462, 9.946935
1239.944, 9.820155
1240.427, 9.807689
1240.909, 9.714656
1241.391, 9.584096
1241.873, 9.663015
1242.355, 9.954082
1242.837, 10.12456
1243.319, 9.989252
1243.801, 9.773025
1244.283, 9.603374
1244.766, 9.467363
1245.248, 9.281668
1245.730, 9.191239
1246.212, 9.454832
1246.694, 9.860412
1247.176, 10.02921
1247.658, 9.937208
1248.140, 9.830781
1248.622, 9.719660
1249.105, 9.650800
1249.587, 9.645265
1250.069, 9.653152
1250.551, 9.679057
1251.033, 9.688852
1251.515, 9.663940
1251.997, 9.599292
1252.479, 9.457932
1252.962, 9.286607
1253.444, 9.409047
1253.926, 9.816240
1254.408, 9.988085
1254.890, 9.910452
1255.372, 9.791072
1255.854, 9.696798
1256.336, 9.751826
1256.818, 10.03134
1257.301, 10.34357
1257.783, 10.51638
1258.265, 10.55588
1258.747, 10.41462
1259.229, 10.18471
1259.711, 9.984012
1260.193, 9.799680
1260.675, 9.551768
1261.157, 9.264790
1261.640, 9.090045
1262.122, 9.088395
1262.604, 9.125686
1263.086, 9.138789
1263.568, 9.214007
1264.050, 9.459257
1264.532, 9.682834
1265.014, 9.788809
1265.497, 9.795633
1265.979, 9.679002
1266.461, 9.493402
1266.943, 9.490667
1267.425, 9.712979
1267.907, 9.782740
1268.389, 9.681359
1268.871, 9.641983
1269.354, 9.707089
1269.836, 9.742143
1270.318, 9.685077
1270.800, 9.637969
1271.282, 9.708470
1271.764, 9.821514
1272.246, 9.865695
1272.728, 9.862241
1273.210, 9.800052
1273.693, 9.744642
1274.175, 9.872367
1274.657, 10.11137
1275.139, 10.18129
1275.621, 10.01362
1276.103, 9.867741
1276.585, 9.872053
1277.067, 9.881265
1277.549, 9.850833
1278.032, 9.810008
1278.514, 9.771102
1278.996, 9.727774
1279.478, 9.630640
1279.960, 9.557384
1280.442, 9.694942
1280.924, 10.03071
1281.406, 10.11959
1281.889, 9.907744
1282.371, 9.906390
1282.853, 10.16813
1283.335, 10.28485
1283.817, 10.14293
1284.299, 9.945094
1284.781, 9.820376
1285.263, 9.715690
1285.745, 9.576304
1286.228, 9.401749
##END=



