##NAMES=Astrophyllite
##RRUFFID=R060202
##IDEAL CHEMISTRY=K_2_NaFe^2+^_7_Ti^4+^_2_(Si_4_O_12_)_2_O_2_(OH)_4_F
##LOCALITY=Demix Quarry, Mont Saint-Hilaire, Rouville County, Quebec, Canada
##OWNER=RRUFF
##SOURCE=Royal Ontario Museum
##DESCRIPTION=Aggregate of brown splintered wafers
##STATUS=The identification of this mineral has been confirmed by X-ray diffraction and chemical analysis
##URL=rruff.info/R060202
##MEASURED CHEMISTRY=(K_0.56_Na_0.38_Ca_0.06_)_3_(Fe^2+^_0.52_Mn_0.44_Mg_0.04_)_7_(Ti_0.75_Zr_0.15_Al_0.15_)_2_Si_8_O_24_(O_0.27_OH_0.73_)_7_
156.9866, 5875.160
157.4687, 5921.949
157.9508, 5985.236
158.4329, 6075.888
158.9151, 6169.755
159.3972, 6226.074
159.8793, 6233.099
160.3614, 6244.093
160.8435, 6293.860
161.3256, 6378.398
161.8078, 6473.505
162.2899, 6583.527
162.7720, 6688.451
163.2541, 6766.121
163.7362, 6813.880
164.2183, 6844.877
164.7004, 6856.500
165.1826, 6851.379
165.6647, 6870.952
166.1468, 6948.012
166.6289, 7039.206
167.1110, 7102.488
167.5931, 7133.726
168.0753, 7151.616
168.5574, 7167.839
169.0395, 7182.455
169.5216, 7202.274
170.0037, 7235.725
170.4858, 7269.835
170.9680, 7296.247
171.4501, 7314.229
171.9322, 7322.834
172.4143, 7317.646
172.8964, 7297.829
173.3785, 7281.116
173.8607, 7278.504
174.3428, 7274.316
174.8249, 7253.945
175.3070, 7216.770
175.7891, 7181.440
176.2712, 7170.537
176.7534, 7187.058
177.2355, 7195.461
177.7176, 7183.222
178.1997, 7166.089
178.6818, 7152.992
179.1639, 7144.524
179.6461, 7135.013
180.1282, 7116.861
180.6103, 7088.256
181.0924, 7065.121
181.5745, 7048.823
182.0566, 7039.250
182.5388, 7038.488
183.0209, 7045.831
183.5030, 7056.815
183.9851, 7071.117
184.4672, 7091.638
184.9493, 7095.822
185.4315, 7049.702
185.9136, 7012.651
186.3957, 7017.675
186.8778, 7060.793
187.3599, 7111.011
187.8420, 7136.617
188.3242, 7133.277
188.8063, 7135.807
189.2884, 7147.958
189.7705, 7163.331
190.2526, 7184.402
190.7347, 7208.052
191.2169, 7225.124
191.6990, 7222.810
192.1811, 7197.431
192.6632, 7190.094
193.1453, 7221.829
193.6274, 7254.248
194.1096, 7271.499
194.5917, 7277.266
195.0738, 7285.611
195.5559, 7310.005
196.0380, 7351.722
196.5201, 7385.131
197.0022, 7414.971
197.4844, 7430.952
197.9665, 7419.247
198.4486, 7390.040
198.9307, 7364.086
199.4128, 7355.796
199.8949, 7365.167
200.3771, 7391.387
200.8592, 7454.303
201.3413, 7516.108
201.8234, 7576.136
202.3055, 7627.633
202.7876, 7658.894
203.2698, 7658.688
203.7519, 7631.352
204.2340, 7618.902
204.7161, 7637.391
205.1982, 7655.035
205.6803, 7668.603
206.1625, 7676.720
206.6446, 7676.298
207.1267, 7664.079
207.6088, 7644.323
208.0909, 7639.722
208.5730, 7666.089
209.0552, 7689.803
209.5373, 7706.139
210.0194, 7716.853
210.5015, 7723.745
210.9836, 7727.546
211.4657, 7729.718
211.9479, 7735.222
212.4300, 7747.843
212.9121, 7758.914
213.3942, 7761.661
213.8763, 7764.848
214.3584, 7779.346
214.8406, 7809.593
215.3227, 7848.745
215.8048, 7879.652
216.2869, 7890.965
216.7690, 7912.367
217.2511, 7947.745
217.7333, 7991.797
218.2154, 8043.070
218.6975, 8100.200
219.1796, 8156.931
219.6617, 8201.846
220.1438, 8228.890
220.6260, 8254.691
221.1081, 8274.760
221.5902, 8296.999
222.0723, 8331.503
222.5544, 8378.274
223.0365, 8423.706
223.5187, 8446.376
224.0008, 8427.798
224.4829, 8435.031
224.9650, 8485.161
225.4471, 8542.979
225.9292, 8589.291
226.4113, 8622.677
226.8935, 8653.264
227.3756, 8693.208
227.8577, 8746.698
228.3398, 8788.985
228.8219, 8805.583
229.3040, 8824.689
229.7862, 8860.836
230.2683, 8910.951
230.7504, 8961.794
231.2325, 9001.085
231.7146, 9027.823
232.1967, 9065.542
232.6789, 9127.494
233.1610, 9187.829
233.6431, 9237.744
234.1252, 9280.642
234.6073, 9324.422
235.0894, 9373.919
235.5716, 9429.064
236.0537, 9491.359
236.5358, 9571.893
237.0179, 9647.048
237.5000, 9716.587
237.9821, 9776.786
238.4643, 9819.137
238.9464, 9837.462
239.4285, 9842.059
239.9106, 9867.683
240.3927, 9931.353
240.8748, 9990.750
241.3570, 10043.18
241.8391, 10087.19
242.3212, 10119.00
242.8033, 10137.24
243.2854, 10148.82
243.7675, 10167.77
244.2497, 10199.25
244.7318, 10226.84
245.2139, 10256.47
245.6960, 10277.39
246.1781, 10277.92
246.6602, 10256.82
247.1424, 10227.54
247.6245, 10207.32
248.1066, 10198.92
248.5887, 10190.18
249.0708, 10187.03
249.5529, 10178.17
250.0351, 10152.28
250.5172, 10112.03
250.9993, 10073.60
251.4814, 10057.01
251.9635, 10065.00
252.4456, 10056.61
252.9278, 10009.56
253.4099, 9967.297
253.8920, 9950.470
254.3741, 9952.794
254.8562, 9956.191
255.3383, 9947.733
255.8205, 9929.491
256.3026, 9915.597
256.7847, 9910.911
257.2668, 9903.289
257.7489, 9891.268
258.2310, 9873.368
258.7132, 9846.057
259.1953, 9804.533
259.6774, 9756.753
260.1595, 9722.849
260.6416, 9710.647
261.1237, 9692.850
261.6059, 9661.306
262.0880, 9619.654
262.5701, 9568.651
263.0522, 9507.186
263.5343, 9443.493
264.0164, 9391.677
264.4986, 9355.081
264.9807, 9308.213
265.4628, 9238.479
265.9449, 9159.174
266.4270, 9077.400
266.9091, 8994.174
267.3913, 8914.421
267.8734, 8844.692
268.3555, 8784.053
268.8376, 8721.009
269.3197, 8649.479
269.8018, 8580.975
270.2840, 8530.383
270.7661, 8494.133
271.2482, 8446.493
271.7303, 8357.397
272.2124, 8246.643
272.6945, 8174.169
273.1766, 8157.360
273.6588, 8147.061
274.1409, 8098.135
274.6230, 8027.603
275.1051, 7973.939
275.5872, 7966.121
276.0693, 7973.239
276.5515, 7952.787
277.0336, 7902.308
277.5157, 7849.756
277.9978, 7809.181
278.4799, 7778.035
278.9620, 7750.203
279.4442, 7725.049
279.9263, 7703.139
280.4084, 7688.665
280.8905, 7679.438
281.3726, 7661.776
281.8547, 7625.648
282.3369, 7583.613
282.8190, 7561.053
283.3011, 7563.517
283.7832, 7563.558
284.2653, 7545.340
284.7474, 7518.422
285.2296, 7502.454
285.7117, 7504.051
286.1938, 7509.137
286.6759, 7497.000
287.1580, 7464.680
287.6401, 7442.252
288.1223, 7439.998
288.6044, 7445.527
289.0865, 7449.016
289.5686, 7449.027
290.0507, 7445.927
290.5328, 7440.470
291.0150, 7432.321
291.4971, 7417.183
291.9792, 7382.079
292.4613, 7352.984
292.9434, 7352.707
293.4255, 7370.110
293.9077, 7371.581
294.3898, 7334.716
294.8719, 7272.193
295.3540, 7239.221
295.8361, 7259.005
296.3182, 7277.630
296.8004, 7285.773
297.2825, 7289.006
297.7646, 7297.824
298.2467, 7315.376
298.7288, 7330.179
299.2109, 7320.351
299.6931, 7263.188
300.1752, 7225.185
300.6573, 7203.932
301.1394, 7201.135
301.6215, 7230.000
302.1036, 7284.296
302.5858, 7335.223
303.0679, 7352.092
303.5500, 7330.240
304.0321, 7315.713
304.5142, 7321.183
304.9963, 7321.278
305.4785, 7303.825
305.9606, 7275.180
306.4427, 7246.532
306.9248, 7222.725
307.4069, 7207.136
307.8890, 7216.047
308.3712, 7270.375
308.8533, 7315.070
309.3354, 7337.324
309.8175, 7346.769
310.2996, 7351.866
310.7817, 7355.313
311.2639, 7357.406
311.7460, 7358.141
312.2281, 7357.075
312.7102, 7357.007
313.1923, 7364.901
313.6744, 7368.554
314.1566, 7356.263
314.6387, 7329.879
315.1208, 7306.545
315.6029, 7301.972
316.0850, 7312.713
316.5671, 7318.410
317.0493, 7314.125
317.5314, 7312.143
318.0135, 7327.500
318.4956, 7350.405
318.9777, 7358.881
319.4598, 7333.621
319.9420, 7298.783
320.4241, 7290.275
320.9062, 7309.698
321.3883, 7330.959
321.8704, 7344.812
322.3525, 7351.274
322.8347, 7350.463
323.3168, 7339.103
323.7989, 7328.332
324.2810, 7323.638
324.7631, 7324.569
325.2452, 7331.152
325.7274, 7344.879
326.2095, 7360.183
326.6916, 7368.222
327.1737, 7368.222
327.6558, 7371.417
328.1379, 7386.126
328.6201, 7401.125
329.1022, 7401.593
329.5843, 7387.649
330.0664, 7376.822
330.5485, 7385.849
331.0306, 7413.701
331.5128, 7422.874
331.9949, 7392.956
332.4770, 7368.756
332.9591, 7372.012
333.4412, 7392.771
333.9233, 7411.137
334.4054, 7417.763
334.8875, 7416.877
335.3697, 7418.904
335.8518, 7417.946
336.3339, 7357.169
336.8160, 7456.007
337.2981, 7514.627
337.7802, 7535.192
338.2624, 7403.721
338.7445, 7468.573
339.2266, 7454.748
339.7087, 7437.696
340.1908, 7530.179
340.6729, 7420.821
341.1551, 7511.569
341.6372, 7522.438
342.1193, 7569.864
342.6014, 7538.127
343.0835, 7530.842
343.5656, 7602.746
344.0478, 7630.802
344.5299, 7589.953
345.0120, 7554.954
345.4941, 7543.566
345.9762, 7525.978
346.4583, 7512.002
346.9405, 7503.962
347.4226, 7499.023
347.9047, 7494.429
348.3868, 7490.253
348.8689, 7487.181
349.3510, 7480.906
349.8332, 7482.352
350.3153, 7505.905
350.7974, 7545.867
351.2795, 7577.173
351.7616, 7584.966
352.2437, 7579.637
352.7259, 7573.482
353.2080, 7566.375
353.6901, 7567.465
354.1722, 7589.410
354.6543, 7621.637
355.1364, 7631.438
355.6186, 7596.512
356.1007, 7571.774
356.5828, 7601.876
357.0649, 7660.201
357.5470, 7682.727
358.0291, 7644.593
358.5113, 7587.993
358.9934, 7576.535
359.4755, 7628.904
359.9576, 7671.866
360.4397, 7713.517
360.9218, 7737.085
361.4040, 7715.597
361.8861, 7658.902
362.3682, 7610.957
362.8503, 7607.566
363.3324, 7644.806
363.8145, 7670.557
364.2967, 7683.608
364.7788, 7686.077
365.2609, 7669.833
365.7430, 7646.319
366.2251, 7628.438
366.7072, 7620.871
367.1894, 7620.514
367.6715, 7622.976
368.1536, 7629.248
368.6357, 7608.894
369.1178, 7627.663
369.5999, 7636.378
370.0821, 7635.579
370.5642, 7596.771
371.0463, 7607.043
371.5284, 7597.647
372.0105, 7587.444
372.4926, 7604.625
372.9748, 7571.345
373.4569, 7603.335
373.9390, 7585.029
374.4211, 7557.956
374.9032, 7538.035
375.3853, 7528.227
375.8675, 7527.794
376.3496, 7540.441
376.8317, 7563.486
377.3138, 7583.945
377.7959, 7600.765
378.2780, 7609.967
378.7602, 7600.105
379.2423, 7572.537
379.7244, 7555.230
380.2065, 7562.946
380.6886, 7577.856
381.1707, 7582.530
381.6529, 7576.891
382.1350, 7570.273
382.6171, 7568.461
383.0992, 7570.667
383.5813, 7572.551
384.0634, 7568.591
384.5456, 7571.122
385.0277, 7594.352
385.5098, 7620.321
385.9919, 7623.447
386.4740, 7598.067
386.9561, 7564.259
387.4383, 7548.975
387.9204, 7555.956
388.4025, 7566.829
388.8846, 7590.679
389.3667, 7609.233
389.8488, 7614.574
390.3310, 7608.892
390.8131, 7598.082
391.2952, 7585.776
391.7773, 7570.378
392.2594, 7543.656
392.7415, 7494.245
393.2237, 7464.011
393.7058, 7480.773
394.1879, 7509.993
394.6700, 7526.845
395.1521, 7527.773
395.6342, 7523.701
396.1163, 7523.330
396.5984, 7524.873
397.0806, 7519.605
397.5627, 7503.126
398.0448, 7490.146
398.5269, 7493.873
399.0090, 7509.943
399.4911, 7527.316
399.9733, 7557.450
400.4554, 7575.791
400.9375, 7553.859
401.4196, 7504.602
401.9017, 7467.739
402.3839, 7459.427
402.8660, 7468.654
403.3481, 7478.362
403.8302, 7493.996
404.3123, 7494.879
404.7944, 7459.519
405.2766, 7424.579
405.7587, 7425.799
406.2408, 7456.609
406.7229, 7477.627
407.2050, 7456.386
407.6871, 7401.284
408.1693, 7377.690
408.6514, 7417.057
409.1335, 7447.664
409.6156, 7454.834
410.0977, 7451.806
410.5798, 7447.417
411.0620, 7445.333
411.5441, 7453.040
412.0262, 7491.452
412.5083, 7563.383
412.9904, 7591.026
413.4725, 7541.616
413.9547, 7486.279
414.4368, 7465.355
414.9189, 7467.328
415.4010, 7465.517
415.8831, 7440.681
416.3652, 7419.315
416.8474, 7444.794
417.3295, 7512.260
417.8116, 7555.933
418.2937, 7546.631
418.7758, 7511.095
419.2579, 7488.769
419.7401, 7479.837
420.2222, 7475.811
420.7043, 7483.402
421.1864, 7489.378
421.6685, 7477.913
422.1506, 7450.132
422.6328, 7420.131
423.1149, 7397.232
423.5970, 7381.299
424.0791, 7371.043
424.5612, 7366.584
425.0433, 7367.742
425.5255, 7383.141
426.0076, 7399.548
426.4897, 7403.480
426.9718, 7392.105
427.4539, 7372.635
427.9360, 7353.696
428.4182, 7336.177
428.9003, 7308.084
429.3824, 7253.708
429.8645, 7208.725
430.3466, 7196.374
430.8287, 7199.356
431.3109, 7187.866
431.7930, 7146.958
432.2751, 7098.086
432.7572, 7065.573
433.2393, 7049.041
433.7214, 7045.939
434.2036, 7064.323
434.6857, 7083.159
435.1678, 7073.678
435.6499, 7038.781
436.1320, 7013.501
436.6141, 7015.393
437.0963, 7024.389
437.5784, 7026.686
438.0605, 7020.526
438.5426, 6999.059
439.0247, 6954.220
439.5068, 6900.011
439.9890, 6876.816
440.4711, 6928.884
440.9532, 6948.705
441.4353, 6903.634
441.9174, 6846.205
442.3995, 6815.913
442.8817, 6816.308
443.3638, 6831.619
443.8459, 6851.554
444.3280, 6874.425
444.8101, 6885.179
445.2922, 6880.938
445.7744, 6868.537
446.2565, 6837.322
446.7386, 6806.444
447.2207, 6799.899
447.7028, 6823.236
448.1849, 6848.045
448.6671, 6841.701
449.1492, 6813.532
449.6313, 6808.216
450.1134, 6836.609
450.5955, 6869.500
451.0776, 6885.414
451.5598, 6888.053
452.0419, 6890.407
452.5240, 6894.496
453.0061, 6897.680
453.4882, 6896.305
453.9703, 6893.338
454.4525, 6893.788
454.9346, 6899.143
455.4167, 6911.000
455.8988, 6932.435
456.3809, 6967.000
456.8630, 6997.043
457.3452, 7031.335
457.8272, 7053.093
458.3094, 7042.384
458.7915, 7016.480
459.2736, 7008.112
459.7557, 7033.903
460.2378, 7074.558
460.7199, 7091.518
461.2021, 7078.497
461.6842, 7071.090
462.1663, 7071.640
462.6484, 7082.050
463.1305, 7106.375
463.6126, 7141.884
464.0948, 7178.811
464.5769, 7217.734
465.0590, 7252.333
465.5411, 7270.581
466.0232, 7273.775
466.5053, 7280.807
466.9875, 7302.697
467.4696, 7327.771
467.9517, 7330.734
468.4338, 7302.254
468.9159, 7291.009
469.3980, 7315.488
469.8802, 7350.897
470.3623, 7387.348
470.8444, 7417.872
471.3265, 7425.645
471.8086, 7397.500
472.2907, 7344.608
472.7729, 7309.708
473.2550, 7298.785
473.7371, 7296.334
474.2192, 7312.619
474.7013, 7326.637
475.1834, 7317.127
475.6656, 7287.542
476.1477, 7264.286
476.6298, 7271.960
477.1119, 7299.257
477.5940, 7309.172
478.0761, 7296.115
478.5583, 7295.136
479.0404, 7339.180
479.5225, 7392.560
480.0046, 7392.939
480.4867, 7323.025
480.9688, 7272.031
481.4510, 7294.604
481.9331, 7344.551
482.4152, 7366.717
482.8973, 7356.273
483.3794, 7332.778
483.8615, 7308.356
484.3437, 7283.979
484.8258, 7265.443
485.3079, 7244.822
485.7900, 7241.276
486.2721, 7279.232
486.7542, 7319.579
487.2364, 7324.530
487.7185, 7293.106
488.2006, 7255.696
488.6827, 7238.023
489.1648, 7237.333
489.6469, 7239.347
490.1291, 7247.625
490.6112, 7249.547
491.0933, 7227.397
491.5754, 7202.617
492.0575, 7200.026
492.5396, 7224.713
493.0218, 7253.593
493.5039, 7287.330
493.9860, 7312.003
494.4681, 7293.998
494.9502, 7232.123
495.4323, 7176.372
495.9145, 7163.773
496.3966, 7185.099
496.8787, 7191.684
497.3608, 7175.970
497.8429, 7156.552
498.3250, 7122.091
498.8072, 7093.527
499.2893, 7099.590
499.7714, 7136.260
500.2535, 7166.245
500.7356, 7154.484
501.2177, 7108.443
501.6999, 7075.684
502.1820, 7057.788
502.6641, 7050.042
503.1462, 7066.042
503.6283, 7082.748
504.1104, 7072.893
504.5926, 7032.606
505.0747, 7001.666
505.5568, 7012.499
506.0389, 7043.705
506.5210, 7060.533
507.0031, 7060.729
507.4853, 7053.631
507.9674, 7042.390
508.4495, 7029.836
508.9316, 7025.963
509.4137, 7037.711
509.8958, 7046.690
510.3780, 7050.541
510.8601, 7051.656
511.3422, 7051.168
511.8243, 7049.661
512.3064, 7048.878
512.7885, 7051.450
513.2706, 7053.819
513.7527, 7039.217
514.2349, 6996.702
514.7170, 6968.359
515.1991, 6977.147
515.6812, 6994.914
516.1633, 7002.279
516.6454, 6998.581
517.1276, 6992.049
517.6097, 6986.380
518.0918, 6980.189
518.5739, 6972.968
519.0560, 6964.193
519.5381, 6948.189
520.0203, 6919.241
520.5024, 6889.303
520.9845, 6883.036
521.4666, 6920.636
521.9487, 6936.575
522.4308, 6913.804
522.9130, 6885.158
523.3951, 6862.385
523.8772, 6849.815
524.3593, 6855.675
524.8414, 6886.129
525.3235, 6923.862
525.8057, 6930.878
526.2878, 6900.509
526.7699, 6883.737
527.2520, 6896.291
527.7341, 6913.755
528.2162, 6919.380
528.6984, 6915.913
529.1805, 6911.734
529.6626, 6906.458
530.1447, 6904.463
530.6268, 6911.728
531.1089, 6924.906
531.5911, 6935.644
532.0732, 6941.496
532.5553, 6944.377
533.0374, 6946.130
533.5195, 6946.496
534.0016, 6948.040
534.4838, 6952.120
534.9659, 6955.701
535.4480, 6956.788
535.9301, 6957.415
536.4122, 6959.589
536.8943, 6964.006
537.3765, 6971.170
537.8586, 6983.717
538.3407, 7000.491
538.8228, 7010.314
539.3049, 7009.349
539.7870, 7012.312
540.2692, 7030.289
540.7513, 7056.542
541.2334, 7076.766
541.7155, 7085.756
542.1976, 7101.258
542.6797, 7142.853
543.1619, 7186.939
543.6440, 7197.447
544.1261, 7178.174
544.6082, 7170.536
545.0903, 7205.861
545.5724, 7270.451
546.0546, 7308.839
546.5367, 7301.135
547.0188, 7304.768
547.5009, 7328.188
547.9830, 7360.849
548.4651, 7397.875
548.9473, 7438.441
549.4294, 7483.087
549.9115, 7537.697
550.3936, 7590.613
550.8757, 7621.810
551.3578, 7633.363
551.8400, 7645.959
552.3221, 7665.109
552.8042, 7689.472
553.2863, 7720.114
553.7684, 7758.972
554.2505, 7786.044
554.7327, 7790.799
555.2148, 7794.885
555.6969, 7807.858
556.1790, 7826.161
556.6611, 7846.001
557.1432, 7865.355
557.6254, 7879.990
558.1075, 7887.066
558.5896, 7886.645
559.0717, 7863.771
559.5538, 7801.189
560.0359, 7748.890
560.5181, 7743.246
561.0002, 7755.498
561.4823, 7749.524
561.9644, 7717.229
562.4465, 7685.986
562.9286, 7678.250
563.4108, 7674.472
563.8929, 7642.901
564.3750, 7586.342
564.8571, 7537.823
565.3392, 7519.259
565.8214, 7519.378
566.3035, 7505.772
566.7856, 7475.558
567.2677, 7436.305
567.7498, 7371.992
568.2319, 7314.845
568.7141, 7289.102
569.1962, 7284.719
569.6783, 7275.042
570.1604, 7246.930
570.6425, 7209.757
571.1246, 7167.337
571.6068, 7123.347
572.0889, 7109.128
572.5710, 7139.839
573.0531, 7166.202
573.5352, 7135.772
574.0173, 7053.344
574.4995, 7007.156
574.9816, 7029.196
575.4637, 7045.524
575.9458, 7021.445
576.4279, 6990.199
576.9100, 6998.755
577.3922, 7046.190
577.8743, 7081.231
578.3564, 7053.336
578.8385, 6980.583
579.3206, 6941.856
579.8027, 6945.853
580.2849, 6949.713
580.7670, 6935.524
581.2491, 6920.671
581.7312, 6932.385
582.2133, 6969.090
582.6954, 6978.128
583.1776, 6912.644
583.6597, 6843.009
584.1418, 6826.635
584.6239, 6848.172
585.1060, 6869.367
585.5881, 6876.783
586.0703, 6881.214
586.5524, 6900.498
587.0345, 6938.811
587.5166, 6948.580
587.9987, 6900.268
588.4808, 6863.570
588.9630, 6870.271
589.4451, 6893.051
589.9272, 6897.877
590.4093, 6877.854
590.8914, 6864.117
591.3735, 6888.084
591.8557, 6925.669
592.3378, 6935.211
592.8199, 6917.520
593.3020, 6899.987
593.7841, 6896.236
594.2662, 6900.800
594.7484, 6902.635
595.2305, 6899.595
595.7126, 6899.181
596.1947, 6894.403
596.6768, 6899.156
597.1589, 6931.463
597.6411, 6974.244
598.1232, 6998.996
598.6053, 6995.050
599.0874, 6976.422
599.5695, 6947.440
600.0516, 6915.172
600.5338, 6913.271
601.0159, 6949.044
601.4980, 6983.768
601.9801, 6994.113
602.4622, 6985.774
602.9443, 6976.486
603.4265, 6987.550
603.9086, 7007.797
604.3907, 7017.991
604.8728, 7018.670
605.3549, 6981.340
605.8370, 6993.091
606.3192, 6985.172
606.8013, 6976.447
607.2834, 6995.106
607.7655, 6963.305
608.2476, 6949.051
608.7297, 6960.361
609.2119, 6983.410
609.6940, 7001.773
610.1761, 6997.741
610.6582, 6980.218
611.1403, 6979.868
611.6224, 7008.270
612.1045, 7035.579
612.5866, 7053.382
613.0687, 7065.974
613.5508, 7077.913
614.0330, 7088.799
614.5151, 7092.339
614.9972, 7082.373
615.4793, 7070.896
615.9614, 7092.875
616.4435, 7157.541
616.9257, 7196.904
617.4078, 7187.900
617.8899, 7171.292
618.3720, 7182.782
618.8541, 7209.518
619.3362, 7215.028
619.8184, 7170.443
620.3005, 7141.204
620.7826, 7169.273
621.2647, 7223.410
621.7468, 7267.654
622.2289, 7296.547
622.7111, 7318.071
623.1932, 7337.744
623.6753, 7354.684
624.1574, 7363.729
624.6395, 7359.645
625.1216, 7365.901
625.6038, 7391.835
626.0859, 7422.749
626.5680, 7450.772
627.0501, 7475.994
627.5322, 7498.748
628.0143, 7520.833
628.4965, 7538.121
628.9786, 7542.169
629.4607, 7542.494
629.9428, 7553.236
630.4249, 7576.307
630.9070, 7607.131
631.3892, 7642.754
631.8713, 7682.132
632.3534, 7719.997
632.8355, 7753.246
633.3176, 7793.486
633.7997, 7855.225
634.2819, 7911.396
634.7640, 7936.109
635.2461, 7942.288
635.7282, 7968.302
636.2103, 8034.548
636.6924, 8106.712
637.1746, 8161.432
637.6567, 8206.921
638.1388, 8256.407
638.6209, 8312.191
639.1030, 8369.188
639.5851, 8422.924
640.0673, 8477.449
640.5494, 8550.660
641.0315, 8657.000
641.5136, 8747.138
641.9957, 8792.256
642.4778, 8842.929
642.9600, 8931.534
643.4421, 9047.062
643.9242, 9159.699
644.4063, 9262.782
644.8884, 9357.717
645.3705, 9438.724
645.8527, 9515.016
646.3348, 9597.964
646.8169, 9690.432
647.2990, 9797.761
647.7811, 9926.475
648.2632, 10065.85
648.7454, 10182.99
649.2275, 10268.81
649.7096, 10355.83
650.1917, 10452.51
650.6738, 10543.65
651.1559, 10621.35
651.6381, 10687.98
652.1202, 10748.36
652.6023, 10803.70
653.0844, 10852.72
653.5665, 10905.50
654.0486, 10946.39
654.5308, 10951.39
655.0129, 10921.14
655.4950, 10869.28
655.9771, 10801.83
656.4592, 10729.70
656.9413, 10684.92
657.4235, 10684.00
657.9056, 10646.80
658.3877, 10556.52
658.8698, 10446.58
659.3519, 10327.22
659.8340, 10202.95
660.3162, 10079.76
660.7983, 9958.136
661.2804, 9839.238
661.7625, 9725.676
662.2446, 9614.134
662.7267, 9489.742
663.2089, 9362.681
663.6910, 9276.170
664.1731, 9251.983
664.6552, 9253.389
665.1373, 9214.106
665.6194, 9126.616
666.1016, 9063.488
666.5837, 9036.432
667.0658, 9013.657
667.5479, 8982.449
668.0300, 8946.495
668.5121, 8908.434
668.9943, 8866.993
669.4764, 8833.454
669.9585, 8808.931
670.4406, 8795.976
670.9227, 8801.257
671.4048, 8818.819
671.8870, 8811.832
672.3691, 8846.562
672.8512, 8871.237
673.3333, 8886.399
673.8154, 8863.553
674.2975, 8889.785
674.7797, 8896.353
675.2618, 8902.109
675.7439, 8935.251
676.2260, 8917.932
676.7081, 9008.653
677.1902, 9069.811
677.6724, 9112.023
678.1545, 9113.378
678.6366, 9118.324
679.1187, 9148.717
679.6008, 9194.469
680.0829, 9247.467
680.5651, 9302.517
681.0472, 9347.245
681.5293, 9369.635
682.0114, 9375.961
682.4935, 9377.869
682.9756, 9375.019
683.4578, 9388.985
683.9399, 9429.583
684.4220, 9478.172
684.9041, 9521.628
685.3862, 9559.121
685.8683, 9575.346
686.3505, 9537.343
686.8326, 9524.581
687.3147, 9573.191
687.7968, 9634.101
688.2789, 9665.405
688.7610, 9671.708
689.2432, 9683.852
689.7253, 9721.276
690.2074, 9761.026
690.6895, 9769.685
691.1716, 9756.224
691.6537, 9751.796
692.1359, 9760.964
692.6180, 9776.752
693.1001, 9794.855
693.5822, 9815.895
694.0643, 9843.045
694.5464, 9889.563
695.0286, 9915.372
695.5107, 9910.199
695.9928, 9896.043
696.4749, 9877.858
696.9570, 9858.252
697.4391, 9840.286
697.9213, 9824.771
698.4034, 9810.594
698.8855, 9788.126
699.3676, 9772.171
699.8497, 9793.575
700.3318, 9841.783
700.8140, 9871.288
701.2961, 9863.180
701.7782, 9837.623
702.2603, 9823.712
702.7424, 9822.218
703.2245, 9809.980
703.7067, 9781.607
704.1888, 9753.308
704.6709, 9719.567
705.1530, 9696.687
705.6351, 9714.563
706.1172, 9770.458
706.5994, 9792.120
707.0815, 9744.627
707.5636, 9677.868
708.0457, 9603.054
708.5278, 9532.938
709.0099, 9486.776
709.4921, 9465.664
709.9742, 9455.411
710.4563, 9446.776
710.9384, 9438.864
711.4205, 9432.610
711.9026, 9428.058
712.3848, 9407.351
712.8669, 9362.952
713.3490, 9315.905
713.8311, 9283.605
714.3132, 9261.504
714.7953, 9228.002
715.2775, 9174.988
715.7596, 9123.602
716.2417, 9068.549
716.7238, 9020.959
717.2059, 8986.457
717.6880, 8964.624
718.1702, 8961.220
718.6523, 8981.457
719.1344, 8985.147
719.6165, 8919.488
720.0986, 8820.730
720.5807, 8757.818
721.0629, 8730.093
721.5450, 8705.617
722.0271, 8671.327
722.5092, 8629.076
722.9913, 8579.716
723.4734, 8521.846
723.9556, 8475.454
724.4377, 8447.379
724.9198, 8418.909
725.4019, 8389.637
725.8840, 8354.110
726.3661, 8303.585
726.8483, 8239.521
727.3304, 8180.505
727.8125, 8138.439
728.2946, 8095.094
728.7767, 8036.180
729.2589, 7972.803
729.7410, 7920.596
730.2231, 7880.252
730.7052, 7840.158
731.1873, 7790.950
731.6694, 7742.700
732.1516, 7721.502
732.6337, 7725.347
733.1158, 7713.658
733.5979, 7680.485
734.0800, 7632.263
734.5621, 7564.015
735.0442, 7490.742
735.5263, 7455.896
736.0084, 7493.903
736.4905, 7496.915
736.9727, 7425.808
737.4548, 7363.358
737.9369, 7360.279
738.4190, 7381.087
738.9011, 7372.114
739.3832, 7322.402
739.8654, 7272.569
740.3475, 7255.240
740.8296, 7246.020
741.3117, 7212.398
741.7938, 7162.599
742.2759, 7122.160
742.7581, 7098.005
743.2402, 7079.262
743.7223, 7054.670
744.2044, 7026.552
744.6865, 7007.537
745.1686, 6999.510
745.6508, 6993.259
746.1329, 6989.917
746.6150, 6983.622
747.0971, 6964.365
747.5792, 6938.176
748.0613, 6927.912
748.5435, 6952.665
749.0256, 6960.273
749.5077, 6923.202
749.9898, 6881.432
750.4719, 6866.614
750.9540, 6868.009
751.4362, 6856.841
751.9183, 6822.731
752.4004, 6793.733
752.8825, 6810.649
753.3646, 6845.290
753.8467, 6830.527
754.3289, 6773.251
754.8110, 6736.271
755.2931, 6742.405
755.7752, 6767.614
756.2573, 6787.912
756.7394, 6802.132
757.2216, 6780.412
757.7037, 6696.726
758.1858, 6636.674
758.6679, 6630.303
759.1500, 6641.034
759.6321, 6646.384
760.1143, 6645.645
760.5964, 6636.182
761.0785, 6612.477
761.5606, 6588.640
762.0427, 6564.050
762.5248, 6545.722
763.0070, 6547.537
763.4891, 6559.820
763.9712, 6556.751
764.4533, 6527.426
764.9354, 6494.009
765.4175, 6483.033
765.8997, 6486.390
766.3818, 6482.951
766.8639, 6472.116
767.3460, 6455.559
767.8281, 6433.241
768.3102, 6410.280
768.7924, 6392.567
769.2745, 6380.087
769.7566, 6378.343
770.2387, 6406.771
770.7208, 6406.786
771.2029, 6329.909
771.6851, 6255.046
772.1672, 6247.442
772.6493, 6288.411
773.1314, 6312.845
773.6135, 6301.232
774.0956, 6287.372
774.5778, 6294.966
775.0599, 6295.819
775.5420, 6247.419
776.0241, 6174.473
776.5062, 6140.112
776.9883, 6168.492
777.4705, 6213.704
777.9526, 6236.726
778.4347, 6238.324
778.9168, 6207.366
779.3989, 6149.563
779.8810, 6124.031
780.3632, 6153.476
780.8453, 6186.939
781.3274, 6164.835
781.8095, 6094.153
782.2916, 6048.562
782.7737, 6033.630
783.2559, 6031.508
783.7380, 6052.395
784.2201, 6071.048
784.7022, 6071.003
785.1843, 6055.763
785.6664, 6032.193
786.1486, 5994.226
786.6307, 5963.887
787.1128, 5948.000
787.5949, 5940.727
788.0770, 5942.837
788.5591, 5949.039
789.0413, 5952.367
789.5234, 5950.519
790.0055, 5942.713
790.4876, 5916.777
790.9697, 5891.161
791.4518, 5908.595
791.9340, 5954.331
792.4161, 5972.724
792.8982, 5950.675
793.3803, 5912.506
793.8624, 5877.537
794.3445, 5844.953
794.8267, 5810.630
795.3088, 5772.570
795.7909, 5744.482
796.2730, 5732.797
796.7551, 5720.605
797.2372, 5691.852
797.7194, 5659.021
798.2015, 5654.570
798.6836, 5691.338
799.1657, 5704.376
799.6478, 5662.586
800.1299, 5627.685
800.6121, 5634.895
801.0942, 5655.475
801.5763, 5657.502
802.0584, 5637.727
802.5405, 5609.990
803.0226, 5577.186
803.5048, 5544.888
803.9869, 5512.926
804.4690, 5487.077
804.9511, 5483.130
805.4332, 5497.165
805.9153, 5501.131
806.3975, 5478.399
806.8796, 5450.679
807.3617, 5460.521
807.8438, 5502.083
808.3259, 5512.332
808.8080, 5486.106
809.2902, 5461.542
809.7723, 5453.447
810.2544, 5453.088
810.7365, 5450.064
811.2186, 5444.374
811.7007, 5439.071
812.1829, 5441.000
812.6650, 5432.013
813.1471, 5397.510
813.6292, 5362.681
814.1113, 5344.197
814.5934, 5337.659
815.0756, 5331.302
815.5577, 5324.954
816.0398, 5313.729
816.5219, 5288.777
817.0040, 5265.188
817.4861, 5252.983
817.9683, 5250.592
818.4504, 5256.960
818.9325, 5270.332
819.4146, 5280.100
819.8967, 5273.960
820.3788, 5262.851
820.8610, 5264.217
821.3431, 5274.698
821.8252, 5286.539
822.3073, 5297.283
822.7894, 5299.935
823.2715, 5289.375
823.7537, 5268.052
824.2358, 5237.127
824.7179, 5194.826
825.2000, 5172.172
825.6821, 5176.938
826.1642, 5178.083
826.6464, 5157.569
827.1285, 5132.967
827.6106, 5130.429
828.0927, 5152.470
828.5748, 5169.771
829.0569, 5190.041
829.5391, 5194.876
830.0212, 5165.623
830.5033, 5134.102
830.9854, 5121.800
831.4675, 5126.506
831.9496, 5140.239
832.4318, 5168.104
832.9139, 5184.620
833.3960, 5174.127
833.8781, 5151.560
834.3602, 5117.839
834.8423, 5085.299
835.3245, 5081.388
835.8066, 5109.416
836.2887, 5129.818
836.7708, 5098.480
837.2529, 5051.836
837.7350, 5053.679
838.2172, 5089.688
838.6993, 5116.443
839.1814, 5126.122
839.6635, 5126.401
840.1456, 5121.506
840.6277, 5114.133
841.1099, 5109.552
841.5920, 5107.812
842.0741, 5109.197
842.5562, 5115.584
843.0383, 5115.604
843.5204, 5100.539
844.0026, 5085.074
844.4847, 5088.304
844.9668, 5110.283
845.4489, 5128.623
845.9310, 5149.101
846.4131, 5156.667
846.8953, 5135.974
847.3774, 5116.121
847.8595, 5114.496
848.3416, 5126.169
848.8237, 5142.182
849.3058, 5165.153
849.7880, 5176.199
850.2701, 5153.749
850.7522, 5134.584
851.2343, 5145.457
851.7164, 5170.848
852.1985, 5190.093
852.6807, 5199.680
853.1628, 5207.072
853.6449, 5219.187
854.1270, 5226.020
854.6091, 5210.708
855.0912, 5185.865
855.5734, 5170.250
856.0555, 5166.883
856.5376, 5179.894
857.0197, 5211.140
857.5018, 5244.532
857.9839, 5260.966
858.4661, 5261.778
858.9481, 5249.608
859.4302, 5224.792
859.9124, 5198.667
860.3945, 5171.707
860.8766, 5165.286
861.3587, 5201.744
861.8408, 5267.008
862.3229, 5312.038
862.8051, 5337.522
863.2872, 5336.437
863.7693, 5291.082
864.2514, 5253.509
864.7335, 5246.592
865.2156, 5259.879
865.6978, 5281.780
866.1799, 5313.867
866.6620, 5339.567
867.1441, 5354.673
867.6262, 5369.170
868.1083, 5382.957
868.5905, 5398.469
869.0726, 5421.364
869.5547, 5446.676
870.0368, 5459.786
870.5189, 5452.289
871.0010, 5455.955
871.4832, 5499.066
871.9653, 5542.432
872.4474, 5553.883
872.9295, 5549.347
873.4116, 5551.046
873.8937, 5564.135
874.3759, 5586.870
874.8580, 5622.373
875.3401, 5658.449
875.8222, 5681.132
876.3043, 5696.105
876.7864, 5715.209
877.2686, 5737.278
877.7507, 5748.941
878.2328, 5745.187
878.7149, 5747.617
879.1970, 5790.345
879.6791, 5856.337
880.1613, 5884.881
880.6434, 5879.062
881.1255, 5870.337
881.6076, 5864.864
882.0897, 5869.362
882.5718, 5889.609
883.0540, 5920.393
883.5361, 5949.604
884.0182, 5976.751
884.5003, 6005.386
884.9824, 6037.113
885.4645, 6064.696
885.9467, 6081.482
886.4288, 6100.576
886.9109, 6142.580
887.3930, 6203.960
887.8751, 6232.363
888.3572, 6194.729
888.8394, 6180.468
889.3215, 6209.483
889.8036, 6248.091
890.2857, 6287.842
890.7678, 6324.491
891.2499, 6348.542
891.7321, 6357.494
892.2142, 6374.202
892.6963, 6408.071
893.1784, 6443.287
893.6605, 6475.618
894.1426, 6505.499
894.6248, 6531.831
895.1069, 6556.466
895.5890, 6585.462
896.0711, 6622.738
896.5532, 6655.649
897.0353, 6666.126
897.5175, 6679.701
897.9996, 6725.752
898.4817, 6787.553
898.9638, 6835.808
899.4459, 6866.204
899.9280, 6894.479
900.4102, 6931.295
900.8923, 6967.946
901.3744, 6995.530
901.8565, 7015.429
902.3386, 7021.488
902.8207, 7021.660
903.3029, 7047.452
903.7850, 7109.934
904.2671, 7183.454
904.7492, 7245.932
905.2313, 7295.955
905.7134, 7324.063
906.1956, 7334.355
906.6777, 7351.446
907.1598, 7379.403
907.6419, 7420.216
908.1240, 7477.034
908.6061, 7534.588
909.0883, 7561.966
909.5704, 7560.119
910.0525, 7573.033
910.5346, 7600.688
911.0167, 7649.236
911.4988, 7729.465
911.9810, 7797.287
912.4631, 7810.209
912.9452, 7786.236
913.4273, 7791.551
913.9094, 7838.832
914.3915, 7872.760
914.8737, 7884.696
915.3558, 7900.194
915.8379, 7933.342
916.3200, 7969.371
916.8021, 7990.800
917.2842, 7998.380
917.7664, 8005.729
918.2485, 8008.131
918.7306, 8017.621
919.2127, 8034.887
919.6948, 8059.087
920.1769, 8101.708
920.6591, 8145.191
921.1412, 8160.408
921.6233, 8143.959
922.1054, 8132.828
922.5875, 8131.481
923.0696, 8138.586
923.5518, 8155.394
924.0339, 8179.007
924.5160, 8219.589
924.9981, 8262.398
925.4802, 8269.849
925.9623, 8226.369
926.4445, 8203.601
926.9266, 8263.247
927.4087, 8317.042
927.8908, 8294.859
928.3729, 8244.588
928.8550, 8226.177
929.3372, 8238.338
929.8193, 8244.259
930.3014, 8226.691
930.7835, 8209.415
931.2656, 8216.449
931.7477, 8226.601
932.2299, 8217.322
932.7120, 8193.773
933.1941, 8163.118
933.6762, 8129.974
934.1583, 8107.538
934.6404, 8108.026
935.1226, 8110.781
935.6047, 8089.013
936.0868, 8054.462
936.5689, 8033.101
937.0510, 8018.735
937.5331, 7981.819
938.0153, 7915.202
938.4974, 7848.368
938.9795, 7811.001
939.4616, 7782.369
939.9437, 7713.095
940.4258, 7620.134
940.9080, 7563.331
941.3901, 7544.730
941.8722, 7533.436
942.3543, 7515.927
942.8364, 7487.703
943.3185, 7441.299
943.8007, 7381.092
944.2828, 7325.179
944.7649, 7272.206
945.2470, 7205.360
945.7291, 7121.860
946.2112, 7048.862
946.6934, 7002.667
947.1755, 6969.684
947.6576, 6926.251
948.1397, 6874.996
948.6218, 6854.726
949.1039, 6870.009
949.5861, 6850.814
950.0682, 6776.450
950.5503, 6702.861
951.0324, 6668.693
951.5145, 6658.316
951.9966, 6639.317
952.4788, 6611.717
952.9609, 6575.387
953.4430, 6531.659
953.9251, 6469.780
954.4072, 6378.588
954.8893, 6290.325
955.3715, 6230.712
955.8536, 6194.810
956.3357, 6170.123
956.8178, 6160.884
957.2999, 6148.131
957.7820, 6138.276
958.2642, 6108.290
958.7463, 6037.204
959.2284, 5964.251
959.7105, 5930.959
960.1926, 5926.919
960.6747, 5900.571
961.1569, 5834.899
961.6390, 5785.122
962.1211, 5763.096
962.6032, 5738.305
963.0853, 5693.729
963.5674, 5647.279
964.0496, 5618.568
964.5317, 5605.966
965.0138, 5593.568
965.4959, 5587.542
965.9780, 5571.891
966.4601, 5533.010
966.9423, 5500.694
967.4244, 5495.329
967.9065, 5496.387
968.3886, 5480.081
968.8707, 5446.717
969.3528, 5409.252
969.8350, 5358.918
970.3171, 5318.626
970.7992, 5285.819
971.2813, 5269.007
971.7634, 5290.263
972.2455, 5319.799
972.7277, 5312.943
973.2098, 5268.468
973.6919, 5237.728
974.1740, 5236.203
974.6561, 5237.299
975.1382, 5241.950
975.6204, 5241.235
976.1025, 5224.189
976.5846, 5201.197
977.0667, 5188.383
977.5488, 5187.374
978.0309, 5186.755
978.5131, 5193.292
978.9952, 5186.938
979.4773, 5147.936
979.9594, 5108.014
980.4415, 5089.529
980.9236, 5085.343
981.4058, 5081.589
981.8878, 5076.162
982.3699, 5074.300
982.8521, 5087.772
983.3342, 5091.413
983.8163, 5065.921
984.2984, 5036.556
984.7805, 5020.658
985.2626, 5016.695
985.7448, 5023.794
986.2269, 5041.848
986.7090, 5045.611
987.1911, 5014.883
987.6732, 4982.522
988.1553, 4952.927
988.6375, 4936.358
989.1196, 4952.252
989.6017, 4983.996
990.0838, 4996.510
990.5659, 4982.076
991.0480, 4971.330
991.5302, 4983.215
992.0123, 4992.931
992.4944, 4989.983
992.9765, 4977.983
993.4586, 4947.875
993.9407, 4915.123
994.4229, 4915.408
994.9050, 4957.443
995.3871, 4992.083
995.8692, 4995.117
996.3513, 4989.686
996.8334, 4976.994
997.3156, 4970.642
997.7977, 4993.468
998.2798, 5029.916
998.7619, 5044.904
999.2440, 5029.885
999.7261, 5007.454
1000.208, 4977.157
1000.690, 4955.109
1001.172, 4955.883
1001.655, 4964.302
1002.137, 4963.702
1002.619, 4959.731
1003.101, 4971.232
1003.583, 5002.920
1004.065, 5022.600
1004.547, 5007.550
1005.029, 4987.203
1005.512, 4971.923
1005.994, 4962.921
1006.476, 4964.654
1006.958, 4972.133
1007.440, 4972.193
1007.922, 4961.943
1008.404, 4964.879
1008.886, 5007.165
1009.368, 5045.044
1009.851, 5051.090
1010.333, 5047.515
1010.815, 5055.941
1011.297, 5069.982
1011.779, 5072.622
1012.261, 5060.383
1012.743, 5047.168
1013.225, 5032.667
1013.708, 5026.123
1014.190, 5036.892
1014.672, 5052.752
1015.154, 5069.033
1015.636, 5080.575
1016.118, 5074.050
1016.600, 5048.255
1017.082, 5039.010
1017.564, 5091.119
1018.047, 5119.246
1018.529, 5059.432
1019.011, 4991.928
1019.493, 4976.149
1019.975, 4997.157
1020.457, 5032.303
1020.939, 5075.744
1021.421, 5097.716
1021.904, 5069.720
1022.386, 5045.973
1022.868, 5044.645
1023.350, 5052.877
1023.832, 5069.783
1024.314, 5086.314
1024.796, 5090.173
1025.278, 5080.385
1025.760, 5065.803
1026.243, 5045.029
1026.725, 5024.974
1027.207, 5010.865
1027.689, 4993.723
1028.171, 4952.404
1028.653, 4914.773
1029.135, 4929.755
1029.617, 4992.143
1030.099, 5020.860
1030.582, 4971.208
1031.064, 4939.505
1031.546, 4959.673
1032.028, 4978.190
1032.510, 4966.384
1032.992, 4942.356
1033.474, 4927.419
1033.956, 4920.590
1034.439, 4909.047
1034.921, 4887.012
1035.403, 4869.095
1035.885, 4856.577
1036.367, 4847.872
1036.849, 4843.356
1037.331, 4841.661
1037.813, 4844.346
1038.296, 4849.146
1038.778, 4845.857
1039.260, 4831.188
1039.742, 4816.042
1040.224, 4799.079
1040.706, 4783.595
1041.188, 4768.974
1041.670, 4757.714
1042.152, 4750.155
1042.635, 4748.121
1043.117, 4758.939
1043.599, 4789.583
1044.081, 4804.316
1044.563, 4797.815
1045.045, 4786.988
1045.527, 4777.573
1046.009, 4759.357
1046.491, 4714.551
1046.974, 4667.660
1047.456, 4678.092
1047.938, 4755.076
1048.420, 4774.104
1048.902, 4711.708
1049.384, 4676.040
1049.866, 4695.010
1050.348, 4715.598
1050.830, 4710.279
1051.313, 4681.001
1051.795, 4620.815
1052.277, 4536.234
1052.759, 4536.055
1053.241, 4634.513
1053.723, 4693.090
1054.205, 4691.906
1054.687, 4662.155
1055.170, 4613.825
1055.652, 4568.839
1056.134, 4557.102
1056.616, 4568.841
1057.098, 4560.509
1057.580, 4533.800
1058.062, 4528.357
1058.544, 4546.939
1059.026, 4552.138
1059.509, 4529.968
1059.991, 4509.997
1060.473, 4520.333
1060.955, 4548.668
1061.437, 4573.749
1061.919, 4592.709
1062.401, 4593.764
1062.883, 4576.759
1063.365, 4535.373
1063.848, 4472.553
1064.330, 4433.347
1064.812, 4451.735
1065.294, 4489.736
1065.776, 4493.956
1066.258, 4478.042
1066.740, 4467.352
1067.222, 4461.645
1067.705, 4458.996
1068.187, 4457.933
1068.669, 4453.378
1069.151, 4442.458
1069.633, 4434.910
1070.115, 4445.762
1070.597, 4459.909
1071.079, 4454.095
1071.562, 4442.160
1072.044, 4449.029
1072.526, 4470.346
1073.008, 4487.000
1073.490, 4492.579
1073.972, 4490.677
1074.454, 4475.035
1074.936, 4462.920
1075.418, 4474.199
1075.901, 4487.896
1076.383, 4486.861
1076.865, 4471.191
1077.347, 4438.246
1077.829, 4391.112
1078.311, 4356.198
1078.793, 4340.978
1079.275, 4342.706
1079.757, 4380.655
1080.240, 4412.446
1080.722, 4401.622
1081.204, 4378.006
1081.686, 4383.729
1082.168, 4412.596
1082.650, 4418.196
1083.132, 4377.140
1083.614, 4355.717
1084.097, 4377.307
1084.579, 4398.182
1085.061, 4410.937
1085.543, 4412.401
1086.025, 4395.557
1086.507, 4367.381
1086.989, 4342.396
1087.471, 4317.904
1087.953, 4314.852
1088.436, 4343.031
1088.918, 4370.856
1089.400, 4399.503
1089.882, 4413.294
1090.364, 4403.219
1090.846, 4373.194
1091.328, 4322.502
1091.810, 4257.250
1092.292, 4238.667
1092.775, 4272.893
1093.257, 4293.521
1093.739, 4294.343
1094.221, 4282.285
1094.703, 4258.530
1095.185, 4236.608
1095.667, 4229.891
1096.149, 4233.258
1096.632, 4238.489
1097.114, 4243.188
1097.596, 4227.879
1098.078, 4197.005
1098.560, 4186.113
1099.042, 4200.680
1099.524, 4211.274
1100.006, 4200.070
1100.489, 4179.703
1100.971, 4161.528
1101.453, 4147.879
1101.935, 4143.933
1102.417, 4146.923
1102.899, 4157.508
1103.381, 4169.052
1103.863, 4156.914
1104.345, 4114.759
1104.828, 4085.198
1105.310, 4107.683
1105.792, 4140.149
1106.274, 4159.760
1106.756, 4163.382
1107.238, 4133.902
1107.720, 4092.999
1108.202, 4079.443
1108.684, 4094.025
1109.167, 4101.355
1109.649, 4083.657
1110.131, 4073.386
1110.613, 4089.170
1111.095, 4104.812
1111.577, 4113.109
1112.059, 4111.161
1112.541, 4085.738
1113.024, 4049.621
1113.506, 4045.307
1113.988, 4091.342
1114.470, 4094.966
1114.952, 4019.036
1115.434, 3968.008
1115.916, 3963.497
1116.398, 3976.393
1116.880, 3998.732
1117.363, 4019.910
1117.845, 4024.783
1118.327, 4015.124
1118.809, 4004.040
1119.291, 3991.487
1119.773, 3975.386
1120.255, 3953.936
1120.737, 3948.462
1121.219, 3966.927
1121.702, 3992.575
1122.184, 4013.432
1122.666, 4025.191
1123.148, 4013.928
1123.630, 3986.971
1124.112, 3970.986
1124.594, 3966.265
1125.076, 3978.748
1125.559, 4003.989
1126.041, 4014.288
1126.523, 3997.376
1127.005, 3976.916
1127.487, 3977.098
1127.969, 3982.292
1128.451, 3968.586
1128.933, 3952.346
1129.416, 3960.853
1129.898, 3983.036
1130.380, 3993.970
1130.862, 3989.186
1131.344, 3977.771
1131.826, 3960.718
1132.308, 3945.076
1132.790, 3932.555
1133.272, 3924.286
1133.755, 3919.240
1134.237, 3920.236
1134.719, 3935.478
1135.201, 3957.993
1135.683, 3971.751
1136.165, 3977.695
1136.647, 3960.692
1137.129, 3891.781
1137.611, 3851.900
1138.094, 3862.611
1138.576, 3883.195
1139.058, 3899.955
1139.540, 3907.869
1140.022, 3896.037
1140.504, 3873.137
1140.986, 3884.468
1141.468, 3933.742
1141.951, 3959.251
1142.433, 3957.865
1142.915, 3960.181
1143.397, 3974.235
1143.879, 3970.807
1144.361, 3929.363
1144.843, 3877.174
1145.325, 3852.615
1145.807, 3847.599
1146.290, 3843.571
1146.772, 3842.873
1147.254, 3860.117
1147.736, 3886.044
1148.218, 3880.030
1148.700, 3835.407
1149.182, 3806.901
1149.664, 3835.100
1150.146, 3875.584
1150.629, 3906.845
1151.111, 3923.440
1151.593, 3907.227
1152.075, 3882.734
1152.557, 3888.755
1153.039, 3914.271
1153.521, 3909.376
1154.003, 3855.340
1154.486, 3826.837
1154.968, 3861.184
1155.450, 3887.283
1155.932, 3884.765
1156.414, 3877.630
1156.896, 3876.782
1157.378, 3877.436
1157.860, 3871.471
1158.343, 3862.113
1158.825, 3872.115
1159.307, 3908.814
1159.789, 3913.245
1160.271, 3878.942
1160.753, 3860.298
1161.235, 3871.952
1161.717, 3887.330
1162.199, 3890.102
1162.682, 3881.959
1163.164, 3856.841
1163.646, 3829.425
1164.128, 3847.191
1164.610, 3889.658
1165.092, 3906.533
1165.574, 3896.526
1166.056, 3867.690
1166.538, 3827.914
1167.021, 3807.694
1167.503, 3830.721
1167.985, 3858.420
1168.467, 3861.363
1168.949, 3860.101
1169.431, 3871.318
1169.913, 3886.021
1170.395, 3899.617
1170.877, 3906.192
1171.360, 3888.813
1171.842, 3841.647
1172.324, 3816.700
1172.806, 3844.908
1173.288, 3854.682
1173.770, 3823.545
1174.252, 3801.793
1174.734, 3808.550
1175.217, 3834.424
1175.699, 3877.804
1176.181, 3924.253
1176.663, 3929.034
1177.145, 3892.040
1177.627, 3872.600
1178.109, 3870.050
1178.591, 3863.729
1179.073, 3851.238
1179.556, 3852.406
1180.038, 3875.529
1180.520, 3892.968
1181.002, 3873.620
1181.484, 3846.171
1181.966, 3852.985
1182.448, 3875.638
1182.930, 3896.597
1183.412, 3907.888
1183.895, 3887.636
1184.377, 3846.451
1184.859, 3832.787
1185.341, 3866.094
1185.823, 3888.655
1186.305, 3863.750
1186.787, 3844.864
1187.269, 3856.001
1187.752, 3872.938
1188.234, 3882.297
1188.716, 3887.771
1189.198, 3895.646
1189.680, 3903.895
1190.162, 3902.577
1190.644, 3890.573
1191.126, 3870.258
1191.609, 3836.629
1192.091, 3831.681
1192.573, 3866.999
1193.055, 3897.328
1193.537, 3898.071
1194.019, 3887.323
1194.501, 3886.076
1194.983, 3888.365
1195.465, 3877.779
1195.948, 3862.982
1196.430, 3865.222
1196.912, 3879.278
1197.394, 3890.924
1197.876, 3897.058
1198.358, 3899.505
1198.840, 3898.831
1199.322, 3896.107
1199.804, 3894.807
1200.287, 3887.720
1200.769, 3859.502
1201.251, 3836.761
1201.733, 3844.500
1202.215, 3865.953
1202.697, 3877.784
1203.179, 3880.585
1203.661, 3879.471
1204.144, 3872.076
1204.626, 3869.896
1205.108, 3874.075
1205.590, 3879.259
1206.072, 3884.979
1206.554, 3887.517
1207.036, 3884.888
1207.518, 3877.385
1208.000, 3861.901
1208.483, 3848.663
1208.965, 3868.589
1209.447, 3904.032
1209.929, 3912.158
1210.411, 3899.888
1210.893, 3882.738
1211.375, 3870.124
1211.857, 3887.815
1212.339, 3948.159
1212.822, 3982.375
1213.304, 3922.811
1213.786, 3871.344
1214.268, 3883.856
1214.750, 3908.859
1215.232, 3917.887
1215.714, 3916.643
1216.196, 3913.294
1216.679, 3907.176
1217.161, 3893.787
1217.643, 3870.577
1218.125, 3858.980
1218.607, 3860.831
1219.089, 3863.610
1219.571, 3865.321
1220.053, 3870.917
1220.536, 3882.762
1221.018, 3891.354
1221.500, 3886.770
1221.982, 3877.461
1222.464, 3876.922
1222.946, 3881.195
1223.428, 3884.004
1223.910, 3885.935
1224.392, 3886.547
1224.875, 3888.191
1225.357, 3899.908
1225.839, 3923.098
1226.321, 3935.202
1226.803, 3916.701
1227.285, 3903.807
1227.767, 3921.132
1228.249, 3925.015
1228.731, 3876.448
1229.214, 3834.833
1229.696, 3853.836
1230.178, 3898.638
1230.660, 3898.724
1231.142, 3860.270
1231.624, 3861.055
1232.106, 3899.587
1232.588, 3899.287
1233.071, 3858.512
1233.553, 3826.806
1234.035, 3817.747
1234.517, 3820.200
1234.999, 3828.337
1235.481, 3835.296
1235.963, 3829.597
1236.445, 3824.785
1236.927, 3838.573
1237.410, 3855.969
1237.892, 3860.999
1238.374, 3858.438
1238.856, 3857.287
1239.338, 3858.261
1239.820, 3858.508
1240.302, 3857.756
1240.784, 3856.929
1241.266, 3863.975
1241.749, 3848.132
1242.231, 3792.817
1242.713, 3753.405
1243.195, 3755.364
1243.677, 3787.305
1244.159, 3845.227
1244.641, 3901.152
1245.123, 3903.636
##END=



