##NAMES=Atacamite
##RRUFFID=R050098
##IDEAL CHEMISTRY=Cu^2+^_2_Cl(OH)_3_
##LOCALITY=La Farola mine, Tierra Amarilla, Atacama, Chile
##OWNER=RRUFF
##SOURCE=Rock Currier
##DESCRIPTION=Green prismatic single crystals
##STATUS=The identification of this mineral has been confirmed by X-ray diffraction and chemical analysis
##URL=rruff.info/R050098
##MEASURED CHEMISTRY=Cu_2.00_Cl_1.00_(OH)_3_
124.9582, 1111.373
125.4403, 1149.106
125.9224, 1173.850
126.4045, 1187.441
126.8866, 1207.349
127.3687, 1251.559
127.8509, 1314.286
128.3330, 1374.251
128.8151, 1424.944
129.2972, 1470.274
129.7793, 1522.611
130.2614, 1582.956
130.7436, 1641.312
131.2257, 1684.375
131.7078, 1712.572
132.1899, 1744.317
132.6720, 1786.063
133.1541, 1837.473
133.6362, 1893.028
134.1184, 1951.415
134.6005, 2015.470
135.0826, 2095.330
135.5647, 2196.816
136.0468, 2285.252
136.5289, 2345.168
137.0111, 2375.050
137.4932, 2380.887
137.9753, 2358.662
138.4574, 2313.647
138.9395, 2259.409
139.4216, 2186.382
139.9038, 2121.983
140.3859, 2083.744
140.8680, 2073.938
141.3501, 2086.559
141.8322, 2125.609
142.3143, 2191.245
142.7965, 2254.774
143.2786, 2305.272
143.7607, 2362.549
144.2428, 2438.896
144.7249, 2563.745
145.2070, 2678.818
145.6892, 2772.101
146.1713, 2843.955
146.6534, 2896.117
147.1355, 2937.915
147.6176, 2958.427
148.0997, 2939.600
148.5819, 2872.805
149.0640, 2776.495
149.5461, 2654.030
150.0282, 2489.537
150.5103, 2326.696
150.9924, 2157.538
151.4746, 1991.079
151.9567, 1854.991
152.4388, 1764.624
152.9209, 1693.856
153.4030, 1629.432
153.8851, 1563.843
154.3672, 1510.046
154.8494, 1472.661
155.3315, 1450.683
155.8136, 1434.382
156.2957, 1427.222
156.7778, 1421.927
157.2599, 1412.674
157.7421, 1393.708
158.2242, 1374.461
158.7063, 1356.374
159.1884, 1339.365
159.6705, 1328.799
160.1526, 1333.758
160.6348, 1344.495
161.1169, 1348.831
161.5990, 1337.981
162.0811, 1322.654
162.5632, 1307.760
163.0453, 1292.993
163.5275, 1281.852
164.0096, 1278.862
164.4917, 1280.751
164.9738, 1280.912
165.4559, 1276.696
165.9380, 1269.183
166.4202, 1257.989
166.9023, 1239.215
167.3844, 1224.012
167.8665, 1223.960
168.3486, 1235.465
168.8307, 1245.057
169.3129, 1243.473
169.7950, 1235.668
170.2771, 1227.543
170.7592, 1219.180
171.2413, 1212.606
171.7234, 1209.138
172.2056, 1208.769
172.6877, 1211.857
173.1698, 1224.926
173.6519, 1241.284
174.1340, 1248.514
174.6161, 1237.796
175.0983, 1217.213
175.5804, 1194.417
176.0625, 1168.719
176.5446, 1149.264
177.0267, 1150.205
177.5088, 1165.517
177.9910, 1177.039
178.4731, 1171.069
178.9552, 1156.460
179.4373, 1152.264
179.9194, 1161.075
180.4015, 1173.480
180.8837, 1178.171
181.3658, 1175.963
181.8479, 1172.124
182.3300, 1169.803
182.8121, 1168.185
183.2942, 1163.410
183.7764, 1152.591
184.2585, 1142.856
184.7406, 1149.697
185.2227, 1172.540
185.7048, 1193.557
186.1869, 1198.457
186.6691, 1189.749
187.1512, 1182.388
187.6333, 1179.175
188.1154, 1178.772
188.5975, 1178.661
189.0796, 1179.021
189.5618, 1178.236
190.0439, 1173.535
190.5260, 1165.306
191.0081, 1159.834
191.4902, 1159.045
191.9723, 1162.129
192.4545, 1166.432
192.9366, 1172.362
193.4187, 1177.771
193.9008, 1179.251
194.3829, 1176.479
194.8650, 1176.112
195.3472, 1182.042
195.8293, 1193.259
196.3114, 1197.709
196.7935, 1193.644
197.2756, 1186.842
197.7577, 1185.942
198.2398, 1191.930
198.7220, 1196.749
199.2041, 1196.830
199.6862, 1191.900
200.1683, 1186.993
200.6504, 1181.529
201.1325, 1176.924
201.6147, 1176.391
202.0968, 1180.807
202.5789, 1185.942
203.0610, 1189.671
203.5431, 1191.655
204.0252, 1194.993
204.5074, 1200.717
204.9895, 1207.137
205.4716, 1208.984
205.9537, 1204.178
206.4358, 1200.554
206.9179, 1203.042
207.4001, 1212.993
207.8822, 1223.511
208.3643, 1235.278
208.8464, 1246.820
209.3285, 1251.544
209.8106, 1246.162
210.2928, 1240.626
210.7749, 1243.405
211.2570, 1258.674
211.7391, 1267.774
212.2212, 1265.620
212.7033, 1254.317
213.1855, 1251.031
213.6676, 1258.534
214.1497, 1269.597
214.6318, 1279.272
215.1139, 1289.430
215.5960, 1292.718
216.0782, 1285.053
216.5603, 1266.979
217.0424, 1255.543
217.5245, 1251.734
218.0066, 1253.388
218.4887, 1259.864
218.9709, 1275.901
219.4530, 1285.819
219.9351, 1284.089
220.4172, 1269.490
220.8993, 1258.912
221.3814, 1254.417
221.8635, 1252.092
222.3457, 1246.386
222.8278, 1233.808
223.3099, 1224.425
223.7920, 1221.789
224.2741, 1227.721
224.7562, 1231.052
225.2384, 1229.460
225.7205, 1226.924
226.2026, 1230.708
226.6847, 1246.342
227.1668, 1258.717
227.6489, 1261.518
228.1311, 1249.874
228.6132, 1245.194
229.0953, 1251.584
229.5774, 1263.003
230.0595, 1266.965
230.5416, 1258.869
231.0238, 1250.599
231.5059, 1247.383
231.9880, 1253.178
232.4701, 1254.199
232.9522, 1247.442
233.4343, 1236.789
233.9165, 1232.871
234.3986, 1241.776
234.8807, 1248.838
235.3628, 1246.358
235.8449, 1226.852
236.3270, 1213.822
236.8092, 1208.155
237.2913, 1209.237
237.7734, 1215.877
238.2555, 1232.603
238.7376, 1248.761
239.2197, 1258.966
239.7019, 1262.508
240.1840, 1260.895
240.6661, 1250.902
241.1482, 1235.357
241.6303, 1228.438
242.1124, 1236.994
242.5946, 1245.274
243.0767, 1242.774
243.5588, 1222.135
244.0409, 1205.786
244.5230, 1194.794
245.0051, 1189.473
245.4872, 1192.235
245.9694, 1207.849
246.4515, 1225.653
246.9336, 1239.157
247.4157, 1250.238
247.8978, 1252.242
248.3799, 1239.885
248.8621, 1215.564
249.3442, 1203.051
249.8263, 1209.395
250.3084, 1218.865
250.7905, 1217.797
251.2726, 1197.518
251.7548, 1186.072
252.2369, 1190.662
252.7190, 1210.192
253.2011, 1223.311
253.6832, 1227.646
254.1653, 1228.706
254.6475, 1231.460
255.1296, 1237.336
255.6117, 1241.593
256.0938, 1243.425
256.5759, 1242.819
257.0580, 1240.197
257.5402, 1233.501
258.0223, 1227.433
258.5044, 1227.378
258.9865, 1236.875
259.4686, 1243.235
259.9507, 1242.678
260.4329, 1235.274
260.9150, 1231.471
261.3971, 1232.277
261.8792, 1235.336
262.3613, 1238.537
262.8434, 1242.285
263.3256, 1245.312
263.8077, 1248.503
264.2898, 1251.877
264.7719, 1247.562
265.2540, 1232.527
265.7361, 1214.817
266.2183, 1203.837
266.7004, 1201.870
267.1825, 1198.876
267.6646, 1191.612
268.1467, 1180.166
268.6288, 1172.097
269.1110, 1169.464
269.5931, 1166.512
270.0752, 1154.425
270.5573, 1129.888
271.0394, 1110.768
271.5215, 1104.874
272.0037, 1111.534
272.4858, 1107.141
272.9679, 1086.814
273.4500, 1065.048
273.9321, 1062.116
274.4142, 1081.301
274.8964, 1096.750
275.3785, 1099.907
275.8606, 1091.323
276.3427, 1079.798
276.8248, 1064.125
277.3069, 1048.435
277.7890, 1038.256
278.2711, 1034.034
278.7533, 1029.840
279.2354, 1022.964
279.7175, 1014.005
280.1996, 1009.218
280.6817, 1009.578
281.1638, 1011.144
281.6460, 1008.822
282.1281, 1002.607
282.6102, 996.0310
283.0923, 989.5384
283.5744, 983.5298
284.0565, 981.2512
284.5387, 983.5046
285.0208, 986.2224
285.5029, 982.7714
285.9850, 973.7858
286.4671, 968.2134
286.9492, 971.6774
287.4314, 981.4298
287.9135, 986.3173
288.3956, 985.7948
288.8777, 983.2229
289.3598, 983.5172
289.8419, 985.8203
290.3241, 984.4992
290.8062, 973.4756
291.2883, 957.6600
291.7704, 951.5415
292.2525, 955.9412
292.7346, 963.2342
293.2168, 965.4681
293.6989, 963.6818
294.1810, 962.0806
294.6631, 962.2245
295.1452, 963.6378
295.6273, 966.1955
296.1095, 970.0729
296.5916, 972.5901
297.0737, 970.2675
297.5558, 964.3926
298.0379, 958.3500
298.5201, 952.9465
299.0022, 948.3508
299.4843, 944.3251
299.9664, 940.8383
300.4485, 939.1835
300.9306, 941.0089
301.4128, 945.4028
301.8949, 950.6672
302.3770, 958.5791
302.8591, 965.5895
303.3412, 966.2374
303.8233, 960.6688
304.3055, 956.3950
304.7876, 961.4080
305.2697, 970.9250
305.7518, 977.7986
306.2339, 979.0185
306.7160, 976.8085
307.1982, 972.2597
307.6803, 965.4972
308.1624, 957.7587
308.6445, 949.2551
309.1266, 940.4890
309.6087, 932.0494
310.0909, 919.6702
310.5730, 911.3918
311.0551, 915.0959
311.5372, 929.4723
312.0193, 941.1879
312.5014, 940.2000
312.9836, 934.8292
313.4657, 932.9626
313.9478, 941.9648
314.4299, 950.1357
314.9120, 951.2687
315.3941, 946.3876
315.8763, 943.2585
316.3584, 948.0046
316.8405, 953.8325
317.3226, 955.5610
317.8047, 948.4238
318.2868, 940.8176
318.7690, 931.1796
319.2511, 921.1852
319.7332, 920.5876
320.2153, 942.4986
320.6974, 967.6180
321.1795, 984.4501
321.6616, 985.7027
322.1437, 984.5409
322.6259, 981.8350
323.1080, 977.7722
323.5901, 973.1986
324.0722, 967.1415
324.5543, 961.3441
325.0364, 956.6189
325.5186, 952.2476
326.0007, 949.9399
326.4828, 949.4401
326.9649, 950.9678
327.4470, 955.4910
327.9291, 967.3986
328.4113, 977.9611
328.8934, 983.1221
329.3755, 977.6012
329.8576, 976.4235
330.3397, 982.7056
330.8218, 992.6902
331.3040, 995.8584
331.7861, 986.5316
332.2682, 979.4467
332.7503, 982.2291
333.2324, 1000.516
333.7145, 1010.190
334.1967, 1007.529
334.6788, 999.1656
335.1609, 998.2943
335.6430, 1007.364
336.1251, 1016.871
336.6072, 1022.650
337.0894, 1024.033
337.5715, 1027.415
338.0536, 1033.004
338.5357, 1040.132
339.0178, 1047.869
339.4999, 1056.353
339.9821, 1064.909
340.4642, 1073.691
340.9463, 1082.514
341.4284, 1090.670
341.9105, 1098.401
342.3926, 1104.089
342.8748, 1103.410
343.3569, 1096.956
343.8390, 1093.804
344.3211, 1096.362
344.8032, 1104.701
345.2853, 1122.216
345.7675, 1149.494
346.2496, 1175.293
346.7317, 1186.144
347.2138, 1185.478
347.6959, 1185.064
348.1780, 1190.017
348.6602, 1196.507
349.1423, 1197.166
349.6244, 1192.300
350.1065, 1188.253
350.5886, 1190.565
351.0707, 1197.065
351.5529, 1204.434
352.0350, 1214.937
352.5171, 1222.200
352.9992, 1215.910
353.4813, 1198.968
353.9634, 1185.326
354.4456, 1186.919
354.9277, 1195.076
355.4098, 1200.154
355.8919, 1196.750
356.3740, 1195.123
356.8561, 1206.096
357.3383, 1224.852
357.8204, 1236.458
358.3025, 1232.572
358.7846, 1220.564
359.2667, 1203.665
359.7488, 1177.755
360.2310, 1157.600
360.7131, 1151.206
361.1952, 1153.884
361.6773, 1156.372
362.1594, 1157.800
362.6415, 1157.252
363.1237, 1154.653
363.6058, 1150.608
364.0879, 1142.573
364.5700, 1125.208
365.0521, 1104.771
365.5342, 1090.339
366.0164, 1085.820
366.4984, 1083.913
366.9806, 1083.875
367.4627, 1086.561
367.9448, 1086.702
368.4269, 1083.992
368.9090, 1078.954
369.3911, 1071.453
369.8733, 1057.854
370.3554, 1048.661
370.8375, 1047.414
371.3196, 1053.757
371.8017, 1055.814
372.2838, 1050.361
372.7660, 1045.618
373.2481, 1051.003
373.7302, 1071.275
374.2123, 1080.917
374.6944, 1072.527
375.1765, 1051.620
375.6587, 1041.443
376.1408, 1043.647
376.6229, 1048.833
377.1050, 1050.405
377.5871, 1048.486
378.0692, 1047.683
378.5514, 1048.288
379.0335, 1050.641
379.5156, 1056.520
379.9977, 1065.783
380.4798, 1074.062
380.9619, 1078.593
381.4441, 1080.145
381.9262, 1080.502
382.4083, 1079.309
382.8904, 1078.944
383.3725, 1083.672
383.8546, 1091.894
384.3368, 1098.427
384.8189, 1096.460
385.3010, 1093.339
385.7831, 1100.941
386.2652, 1120.628
386.7473, 1138.220
387.2295, 1142.220
387.7116, 1137.313
388.1937, 1130.438
388.6758, 1120.819
389.1579, 1112.921
389.6400, 1110.143
390.1222, 1112.262
390.6043, 1115.564
391.0864, 1120.044
391.5685, 1124.093
392.0506, 1126.394
392.5327, 1126.195
393.0149, 1124.578
393.4970, 1119.747
393.9791, 1113.011
394.4612, 1110.312
394.9433, 1118.465
395.4254, 1126.753
395.9076, 1129.603
396.3897, 1120.738
396.8718, 1115.259
397.3539, 1116.994
397.8360, 1122.037
398.3181, 1121.634
398.8003, 1108.826
399.2824, 1099.392
399.7645, 1100.085
400.2466, 1115.122
400.7287, 1122.468
401.2108, 1117.492
401.6930, 1109.229
402.1751, 1110.656
402.6572, 1124.812
403.1393, 1138.863
403.6214, 1149.422
404.1035, 1156.619
404.5857, 1163.595
405.0678, 1170.923
405.5499, 1176.166
406.0320, 1176.367
406.5141, 1171.701
406.9962, 1165.336
407.4784, 1156.689
407.9605, 1147.859
408.4426, 1143.823
408.9247, 1144.491
409.4068, 1148.227
409.8889, 1158.230
410.3711, 1170.179
410.8532, 1173.198
411.3353, 1163.903
411.8174, 1149.501
412.2995, 1136.466
412.7816, 1124.713
413.2637, 1113.574
413.7458, 1103.858
414.2280, 1094.081
414.7101, 1081.751
415.1922, 1066.124
415.6743, 1052.384
416.1564, 1047.469
416.6385, 1045.595
417.1207, 1038.838
417.6028, 1019.789
418.0849, 999.4103
418.5670, 979.7639
419.0491, 961.2452
419.5313, 950.3350
420.0134, 958.5893
420.4955, 969.7650
420.9776, 971.7192
421.4597, 950.7004
421.9418, 934.3076
422.4240, 924.6188
422.9061, 921.6135
423.3882, 926.5215
423.8703, 951.1269
424.3524, 970.9778
424.8345, 974.1746
425.3167, 950.3380
425.7988, 934.2226
426.2809, 927.3088
426.7630, 926.7203
427.2451, 928.0482
427.7272, 932.4142
428.2094, 934.8333
428.6915, 932.2042
429.1736, 924.7661
429.6557, 922.2788
430.1378, 925.7540
430.6199, 930.3989
431.1021, 929.2988
431.5842, 923.2078
432.0663, 921.9868
432.5484, 930.8779
433.0305, 944.3655
433.5126, 949.6555
433.9948, 947.2107
434.4769, 944.9139
434.9590, 947.8181
435.4411, 955.0114
435.9232, 966.4911
436.4053, 985.3783
436.8875, 1000.903
437.3696, 997.7023
437.8517, 982.8596
438.3338, 973.7142
438.8159, 987.5034
439.2980, 1004.180
439.7802, 1006.504
440.2623, 989.9436
440.7444, 979.3435
441.2265, 990.5618
441.7086, 1011.543
442.1907, 1028.350
442.6729, 1033.633
443.1550, 1038.720
443.6371, 1047.421
444.1192, 1059.683
444.6013, 1068.887
445.0834, 1070.764
445.5656, 1072.416
446.0477, 1078.190
446.5298, 1093.584
447.0119, 1103.335
447.4940, 1106.373
447.9761, 1103.553
448.4583, 1095.954
448.9404, 1080.472
449.4225, 1067.501
449.9046, 1063.060
450.3867, 1067.973
450.8688, 1067.709
451.3510, 1061.561
451.8331, 1052.012
452.3152, 1042.057
452.7973, 1031.578
453.2794, 1019.957
453.7615, 1006.552
454.2437, 992.0518
454.7258, 977.3635
455.2079, 962.4714
455.6900, 950.5319
456.1721, 944.1922
456.6542, 942.3535
457.1363, 943.2739
457.6184, 947.2961
458.1006, 952.4179
458.5827, 959.4246
459.0648, 966.4153
459.5469, 968.7780
460.0290, 958.8569
460.5111, 947.4186
460.9933, 941.8013
461.4754, 943.7217
461.9575, 946.0532
462.4396, 946.0434
462.9217, 945.3615
463.4038, 945.8137
463.8860, 954.6265
464.3681, 957.2318
464.8502, 945.1528
465.3323, 920.2967
465.8144, 907.3799
466.2965, 913.0474
466.7787, 924.0884
467.2608, 934.3240
467.7429, 946.1725
468.2250, 950.3911
468.7071, 943.3600
469.1892, 931.0475
469.6714, 924.9059
470.1535, 925.4468
470.6356, 929.7982
471.1177, 939.2792
471.5998, 952.6948
472.0819, 958.0630
472.5641, 954.3165
473.0462, 949.1604
473.5283, 951.0972
474.0104, 958.5411
474.4925, 965.2779
474.9746, 969.0314
475.4568, 972.0012
475.9389, 977.7009
476.4210, 985.5540
476.9031, 992.5112
477.3852, 994.7844
477.8673, 996.3030
478.3495, 1001.732
478.8316, 1013.212
479.3137, 1023.176
479.7958, 1024.318
480.2779, 1022.129
480.7600, 1024.801
481.2422, 1037.961
481.7243, 1053.229
482.2064, 1069.044
482.6885, 1085.459
483.1706, 1098.995
483.6527, 1104.711
484.1349, 1110.869
484.6170, 1122.942
485.0991, 1145.725
485.5812, 1165.022
486.0633, 1179.150
486.5454, 1189.796
487.0276, 1201.015
487.5097, 1212.274
487.9918, 1225.958
488.4739, 1244.237
488.9560, 1266.915
489.4381, 1286.628
489.9203, 1302.413
490.4024, 1319.721
490.8845, 1346.026
491.3666, 1379.925
491.8487, 1412.736
492.3308, 1442.674
492.8130, 1469.877
493.2951, 1494.617
493.7772, 1517.120
494.2593, 1540.101
494.7414, 1560.976
495.2235, 1585.094
495.7057, 1619.868
496.1878, 1670.238
496.6699, 1718.456
497.1520, 1758.735
497.6341, 1790.624
498.1162, 1812.778
498.5984, 1807.295
499.0805, 1809.418
499.5626, 1836.611
500.0447, 1889.378
500.5268, 1929.783
501.0089, 1943.976
501.4910, 1953.234
501.9731, 1969.456
502.4553, 1996.978
502.9374, 2022.980
503.4195, 2048.509
503.9016, 2071.412
504.3837, 2084.100
504.8658, 2082.748
505.3480, 2086.655
505.8301, 2105.837
506.3122, 2137.911
506.7943, 2162.174
507.2764, 2177.989
507.7585, 2190.305
508.2407, 2206.710
508.7228, 2224.044
509.2049, 2230.313
509.6870, 2218.947
510.1691, 2202.663
510.6512, 2198.084
511.1334, 2201.481
511.6155, 2200.123
512.0976, 2187.084
512.5797, 2166.538
513.0618, 2141.229
513.5439, 2111.365
514.0261, 2077.192
514.5082, 2038.435
514.9903, 1995.837
515.4724, 1950.272
515.9545, 1899.064
516.4366, 1847.926
516.9188, 1796.202
517.4009, 1744.558
517.8830, 1696.512
518.3651, 1652.432
518.8472, 1611.361
519.3293, 1572.389
519.8115, 1535.167
520.2936, 1502.467
520.7757, 1476.337
521.2578, 1451.668
521.7399, 1421.369
522.2220, 1385.432
522.7042, 1347.727
523.1863, 1305.803
523.6684, 1265.918
524.1505, 1247.741
524.6326, 1249.644
525.1147, 1249.388
525.5969, 1227.845
526.0790, 1195.929
526.5611, 1168.565
527.0432, 1147.812
527.5253, 1131.365
528.0074, 1119.656
528.4896, 1110.585
528.9717, 1100.527
529.4538, 1088.721
529.9359, 1075.346
530.4180, 1059.415
530.9001, 1041.351
531.3823, 1024.755
531.8644, 1006.249
532.3465, 992.7679
532.8286, 988.9210
533.3107, 1004.330
533.7928, 1008.144
534.2750, 994.9333
534.7571, 974.5989
535.2392, 963.9533
535.7213, 965.5236
536.2034, 965.0164
536.6855, 957.2072
537.1677, 944.1564
537.6498, 934.4061
538.1319, 927.9821
538.6140, 924.1104
539.0961, 924.1864
539.5782, 926.2117
540.0604, 924.4056
540.5425, 916.7185
541.0246, 909.4462
541.5067, 911.0363
541.9888, 917.1650
542.4709, 919.5562
542.9531, 910.8831
543.4352, 900.7854
543.9173, 894.6503
544.3994, 892.3322
544.8815, 890.3534
545.3636, 887.6743
545.8458, 885.1172
546.3279, 883.3200
546.8100, 884.0380
547.2921, 882.4474
547.7742, 876.4982
548.2563, 869.4269
548.7385, 866.7729
549.2206, 870.6628
549.7027, 872.8108
550.1848, 870.8152
550.6669, 865.2371
551.1490, 858.1779
551.6312, 849.1684
552.1133, 842.4245
552.5954, 843.4194
553.0775, 849.4084
553.5596, 850.5971
554.0417, 844.6050
554.5239, 838.2074
555.0060, 838.5967
555.4881, 843.7886
555.9702, 849.6515
556.4523, 855.2081
556.9344, 860.3117
557.4166, 866.1846
557.8987, 872.2278
558.3808, 873.9940
558.8629, 865.3189
559.3450, 855.2996
559.8271, 849.0839
560.3093, 847.2739
560.7914, 849.1500
561.2735, 858.4319
561.7556, 869.0397
562.2377, 872.6135
562.7198, 867.0705
563.2020, 859.6132
563.6841, 849.5290
564.1662, 839.3035
564.6483, 841.0748
565.1304, 855.9968
565.6125, 871.0127
566.0947, 876.9694
566.5768, 876.2389
567.0589, 876.1503
567.5410, 877.3500
568.0231, 878.5383
568.5052, 878.0479
568.9873, 876.7684
569.4694, 876.2094
569.9515, 878.2124
570.4337, 879.7471
570.9158, 875.8198
571.3979, 869.2748
571.8800, 870.2927
572.3621, 891.8262
572.8442, 913.0338
573.3264, 924.9384
573.8085, 925.1926
574.2906, 922.6767
574.7727, 915.3182
575.2548, 907.1291
575.7369, 901.1427
576.2191, 896.5135
576.7012, 898.4462
577.1833, 910.6795
577.6654, 926.8423
578.1475, 928.8074
578.6296, 916.8698
579.1118, 907.4935
579.5939, 913.3549
580.0760, 926.7144
580.5581, 929.8994
581.0402, 922.7153
581.5223, 916.0515
582.0045, 919.8146
582.4866, 928.0665
582.9687, 933.5423
583.4508, 931.9681
583.9329, 932.0447
584.4150, 941.3250
584.8972, 954.1274
585.3793, 959.9766
585.8614, 948.6727
586.3435, 938.9404
586.8256, 935.9474
587.3077, 939.4268
587.7899, 941.1636
588.2720, 940.0464
588.7541, 939.1835
589.2362, 941.3973
589.7183, 947.1552
590.2004, 949.1946
590.6826, 946.2941
591.1647, 942.1352
591.6468, 942.0997
592.1289, 945.2722
592.6110, 947.5860
593.0931, 947.2637
593.5753, 945.7359
594.0574, 945.5023
594.5395, 945.8080
595.0216, 943.5256
595.5037, 932.9901
595.9858, 922.2188
596.4680, 917.5209
596.9501, 921.0573
597.4322, 922.4077
597.9143, 916.8320
598.3964, 909.3857
598.8785, 904.8155
599.3607, 905.7769
599.8428, 904.9429
600.3249, 901.1119
600.8070, 895.5403
601.2891, 891.4330
601.7712, 889.2749
602.2534, 886.0718
602.7355, 879.7969
603.2176, 871.5955
603.6997, 866.1008
604.1818, 863.3616
604.6639, 860.0633
605.1461, 852.9949
605.6282, 843.8015
606.1103, 834.4243
606.5924, 824.1778
607.0745, 817.3126
607.5566, 820.0767
608.0388, 826.9156
608.5209, 829.8863
609.0030, 823.9676
609.4851, 816.7324
609.9672, 809.5543
610.4493, 802.6630
610.9315, 796.6574
611.4136, 792.5491
611.8957, 787.9087
612.3778, 780.5545
612.8599, 769.7410
613.3420, 765.9246
613.8242, 770.7723
614.3063, 777.2513
614.7884, 777.4126
615.2705, 772.4352
615.7526, 768.4802
616.2347, 766.6687
616.7169, 766.4824
617.1990, 769.1123
617.6811, 773.0015
618.1632, 774.0895
618.6453, 766.9689
619.1274, 759.4725
619.6096, 756.9752
620.0917, 759.2079
620.5738, 760.6016
621.0559, 758.7525
621.5380, 756.3871
622.0201, 754.8961
622.5023, 754.3084
622.9844, 754.8100
623.4665, 757.2801
623.9486, 759.8664
624.4307, 760.4619
624.9128, 759.0090
625.3950, 755.8369
625.8771, 750.0821
626.3592, 743.8715
626.8413, 741.1821
627.3234, 741.8006
627.8055, 744.4390
628.2877, 750.4682
628.7698, 756.9407
629.2519, 760.9904
629.7340, 762.5038
630.2161, 761.4564
630.6982, 755.4836
631.1804, 748.4442
631.6625, 743.0613
632.1446, 739.6700
632.6267, 738.3115
633.1088, 740.9686
633.5909, 744.6699
634.0731, 745.1507
634.5552, 739.7325
635.0373, 738.5819
635.5194, 745.7832
636.0015, 757.2479
636.4836, 759.2695
636.9658, 751.5399
637.4479, 744.0096
637.9300, 742.6528
638.4121, 745.1877
638.8942, 747.3641
639.3763, 749.0938
639.8585, 749.8895
640.3406, 748.8771
640.8227, 747.0139
641.3048, 745.2466
641.7869, 743.7092
642.2690, 742.4030
642.7512, 741.8074
643.2333, 741.2903
643.7154, 739.8187
644.1975, 735.5813
644.6796, 733.1800
645.1617, 733.9234
645.6439, 736.9015
646.1260, 739.3915
646.6081, 741.6961
647.0902, 741.8607
647.5723, 736.2601
648.0544, 727.3896
648.5366, 726.7823
649.0187, 734.6423
649.5008, 743.8295
649.9829, 750.2632
650.4650, 753.9370
650.9471, 754.7289
651.4293, 752.2647
651.9114, 747.9921
652.3935, 739.9044
652.8756, 731.3425
653.3577, 726.7334
653.8398, 729.5490
654.3220, 733.5115
654.8041, 739.7770
655.2862, 746.4856
655.7683, 746.1469
656.2504, 735.5887
656.7325, 726.8505
657.2147, 726.0449
657.6968, 731.7142
658.1788, 733.2993
658.6609, 730.5959
659.1431, 728.4100
659.6252, 732.0897
660.1073, 738.5175
660.5894, 742.3193
661.0715, 742.2601
661.5536, 741.0370
662.0358, 740.3259
662.5179, 739.4737
663.0000, 737.6762
663.4821, 733.8880
663.9642, 730.0929
664.4464, 727.0896
664.9285, 724.3119
665.4106, 719.9538
665.8927, 712.2237
666.3748, 706.8043
666.8569, 705.4070
667.3391, 707.8913
667.8212, 714.6778
668.3033, 726.1901
668.7854, 736.0002
669.2675, 738.9338
669.7496, 736.8821
670.2318, 732.5886
670.7139, 725.9681
671.1960, 720.7382
671.6781, 720.6982
672.1602, 723.0794
672.6423, 724.8137
673.1245, 725.5756
673.6066, 724.9965
674.0887, 720.8572
674.5708, 715.7728
675.0529, 714.8181
675.5350, 720.5244
676.0172, 725.5032
676.4993, 728.5083
676.9814, 729.4087
677.4635, 726.1453
677.9456, 718.2914
678.4277, 713.0402
678.9099, 717.4249
679.3920, 726.7319
679.8741, 729.8962
680.3562, 726.6915
680.8383, 722.3868
681.3204, 719.7648
681.8026, 718.3837
682.2847, 717.9859
682.7668, 718.8877
683.2489, 719.8254
683.7310, 720.3994
684.2131, 720.8847
684.6953, 721.5390
685.1774, 721.9401
685.6595, 723.5197
686.1416, 727.0339
686.6237, 731.3725
687.1058, 733.3045
687.5880, 732.7584
688.0701, 733.2922
688.5522, 739.3425
689.0343, 745.8616
689.5164, 740.3144
689.9985, 724.6284
690.4807, 711.8267
690.9628, 711.5587
691.4449, 716.4313
691.9270, 721.2671
692.4091, 725.6801
692.8912, 729.3588
693.3734, 734.2078
693.8555, 736.8415
694.3376, 734.1727
694.8197, 721.1874
695.3018, 715.6743
695.7839, 721.1002
696.2661, 729.7565
696.7482, 728.5059
697.2303, 718.0780
697.7124, 714.4353
698.1945, 724.7322
698.6766, 739.1409
699.1588, 743.6873
699.6409, 740.3641
700.1230, 735.4011
700.6051, 728.8018
701.0872, 724.0555
701.5693, 724.7004
702.0515, 730.1895
702.5336, 733.3219
703.0157, 728.6288
703.4978, 725.2219
703.9799, 728.1634
704.4620, 739.1621
704.9442, 741.9623
705.4263, 734.0667
705.9084, 724.8036
706.3905, 724.2583
706.8726, 730.4913
707.3547, 731.8716
707.8369, 726.2396
708.3190, 718.7684
708.8011, 712.7722
709.2832, 709.0735
709.7653, 709.2034
710.2474, 717.7414
710.7296, 725.1801
711.2117, 727.3151
711.6938, 725.6862
712.1759, 723.8111
712.6580, 719.6463
713.1401, 718.8276
713.6223, 724.5098
714.1044, 734.6234
714.5865, 737.2558
715.0686, 731.1448
715.5507, 725.9821
716.0328, 729.1772
716.5150, 737.0686
716.9971, 739.3889
717.4792, 736.0950
717.9613, 732.6885
718.4434, 734.6182
718.9255, 737.5314
719.4077, 736.8370
719.8898, 730.2903
720.3719, 725.5225
720.8540, 726.3474
721.3361, 728.7493
721.8182, 728.6958
722.3004, 723.7244
722.7825, 723.0135
723.2646, 729.4484
723.7467, 737.2939
724.2288, 734.6435
724.7109, 722.6118
725.1931, 715.8497
725.6752, 721.3730
726.1573, 731.2478
726.6394, 736.1646
727.1215, 736.8174
727.6036, 735.2526
728.0858, 730.2998
728.5679, 725.3323
729.0500, 721.4888
729.5321, 718.8895
730.0142, 718.4471
730.4963, 722.4407
730.9785, 725.4948
731.4606, 724.9408
731.9427, 720.6021
732.4248, 717.1967
732.9069, 714.7521
733.3890, 713.1299
733.8712, 711.9302
734.3533, 711.5265
734.8354, 713.0611
735.3175, 716.8518
735.7996, 721.5042
736.2817, 727.6041
736.7639, 733.2275
737.2460, 736.1501
737.7281, 734.8798
738.2102, 732.2897
738.6923, 726.2701
739.1744, 720.3009
739.6566, 720.1536
740.1387, 729.0378
740.6208, 733.5984
741.1029, 729.8939
741.5850, 721.7256
742.0671, 717.4298
742.5493, 716.7547
743.0314, 717.6005
743.5135, 718.7211
743.9956, 720.9788
744.4777, 726.2164
744.9598, 733.7894
745.4420, 740.4354
745.9241, 745.5437
746.4062, 748.7065
746.8883, 749.5828
747.3704, 748.1736
747.8525, 744.6467
748.3346, 737.7419
748.8167, 730.9830
749.2988, 726.7711
749.7809, 725.0987
750.2631, 722.4553
750.7452, 718.4054
751.2273, 716.4521
751.7094, 721.5953
752.1915, 730.7252
752.6736, 738.8993
753.1558, 745.5423
753.6379, 750.1310
754.1200, 752.7785
754.6021, 753.1869
755.0842, 750.9410
755.5663, 739.1693
756.0485, 735.2153
756.5306, 745.2939
757.0127, 759.6556
757.4948, 758.9288
757.9769, 741.9011
758.4590, 728.1243
758.9412, 722.2897
759.4233, 723.6752
759.9054, 736.4646
760.3875, 756.5620
760.8696, 769.9064
761.3517, 763.7849
761.8339, 753.6292
762.3160, 747.1093
762.7981, 744.3984
763.2802, 744.9673
763.7623, 754.6360
764.2444, 760.9448
764.7266, 758.1630
765.2087, 746.7328
765.6908, 741.6046
766.1729, 743.7233
766.6550, 746.7268
767.1371, 744.5845
767.6193, 740.0470
768.1014, 741.7987
768.5835, 750.4130
769.0656, 757.6522
769.5477, 755.1808
770.0298, 750.2174
770.5120, 749.6151
770.9941, 756.6503
771.4762, 761.9724
771.9583, 765.1120
772.4404, 765.4097
772.9225, 760.6244
773.4047, 748.0653
773.8868, 744.2043
774.3689, 752.2888
774.8510, 764.3563
775.3331, 770.2750
775.8152, 771.0016
776.2974, 769.3140
776.7795, 764.3678
777.2616, 760.4125
777.7437, 762.6405
778.2258, 767.8123
778.7079, 770.1291
779.1901, 762.1739
779.6722, 758.5332
780.1543, 765.0800
780.6364, 776.8029
781.1185, 780.1121
781.6006, 772.7859
782.0828, 767.6593
782.5649, 770.5457
783.0470, 777.4396
783.5291, 776.4973
784.0112, 769.6532
784.4933, 767.4069
784.9755, 783.4376
785.4576, 800.2807
785.9397, 801.9465
786.4218, 789.6514
786.9039, 782.5413
787.3860, 789.7697
787.8682, 798.7194
788.3503, 804.8547
788.8324, 808.1127
789.3145, 810.9996
789.7966, 813.2538
790.2787, 816.2684
790.7609, 821.9662
791.2430, 829.1832
791.7251, 834.8691
792.2072, 838.8475
792.6893, 841.4436
793.1714, 840.6492
793.6536, 839.9250
794.1357, 842.3537
794.6178, 848.9736
795.0999, 857.2342
795.5820, 867.6232
796.0641, 878.7083
796.5463, 889.3826
797.0284, 899.5916
797.5105, 911.0615
797.9926, 924.8324
798.4747, 936.4202
798.9568, 934.9226
799.4390, 927.1127
799.9211, 930.1105
800.4032, 951.2150
800.8853, 975.8514
801.3674, 998.4093
801.8495, 1017.444
802.3317, 1031.010
802.8138, 1031.499
803.2959, 1036.064
803.7780, 1046.266
804.2601, 1060.771
804.7422, 1079.332
805.2244, 1102.380
805.7065, 1119.408
806.1886, 1124.311
806.6707, 1127.203
807.1528, 1146.088
807.6349, 1175.690
808.1171, 1202.344
808.5992, 1217.804
809.0813, 1231.130
809.5634, 1246.454
810.0455, 1262.961
810.5276, 1277.583
811.0098, 1286.323
811.4919, 1300.313
811.9740, 1324.872
812.4561, 1356.174
812.9382, 1380.235
813.4203, 1397.184
813.9025, 1408.592
814.3846, 1411.355
814.8667, 1411.706
815.3488, 1420.230
815.8309, 1434.737
816.3130, 1442.288
816.7952, 1431.627
817.2773, 1418.230
817.7594, 1410.848
818.2415, 1409.088
818.7236, 1398.898
819.2057, 1376.520
819.6879, 1356.226
820.1700, 1349.445
820.6521, 1352.065
821.1342, 1342.326
821.6163, 1320.501
822.0984, 1297.256
822.5806, 1278.935
823.0627, 1263.847
823.5448, 1251.420
824.0269, 1242.088
824.5090, 1230.285
824.9911, 1212.787
825.4733, 1194.236
825.9554, 1177.592
826.4375, 1163.605
826.9196, 1144.044
827.4017, 1116.976
827.8839, 1092.666
828.3660, 1083.241
828.8481, 1082.561
829.3302, 1075.923
829.8123, 1061.161
830.2944, 1046.672
830.7766, 1040.310
831.2587, 1034.771
831.7408, 1022.706
832.2229, 994.6792
832.7050, 980.4609
833.1871, 987.5776
833.6693, 998.5433
834.1514, 994.6252
834.6335, 976.5734
835.1156, 968.3952
835.5977, 973.6190
836.0798, 981.1021
836.5620, 978.2537
837.0441, 970.5081
837.5262, 966.1803
838.0082, 969.1719
838.4904, 970.4990
838.9725, 964.8622
839.4546, 957.5580
839.9367, 954.3481
840.4188, 957.1479
840.9009, 958.3796
841.3831, 957.4724
841.8652, 954.9918
842.3473, 951.5478
842.8294, 947.1364
843.3115, 941.6191
843.7936, 934.6807
844.2758, 927.3790
844.7579, 920.9004
845.2400, 914.3962
845.7221, 906.6590
846.2042, 897.8669
846.6863, 886.5324
847.1685, 869.1194
847.6506, 852.3714
848.1327, 849.5125
848.6148, 861.1570
849.0969, 862.4781
849.5790, 845.4923
850.0612, 824.9280
850.5433, 819.9075
851.0254, 824.5143
851.5075, 827.8586
851.9896, 826.0723
852.4717, 822.6978
852.9539, 816.1423
853.4360, 809.7288
853.9181, 810.0423
854.4002, 822.2097
854.8823, 824.6749
855.3644, 810.4794
855.8466, 791.2689
856.3287, 790.3256
856.8108, 802.8433
857.2929, 810.2659
857.7750, 802.4575
858.2571, 793.7902
858.7393, 795.9898
859.2214, 804.2201
859.7035, 809.9542
860.1856, 809.8237
860.6677, 809.0748
861.1498, 808.8503
861.6320, 807.7798
862.1141, 800.6126
862.5962, 787.4366
863.0783, 782.7951
863.5604, 794.5389
864.0425, 809.7375
864.5247, 811.0621
865.0068, 803.9290
865.4889, 799.2902
865.9710, 806.9366
866.4531, 810.9579
866.9352, 803.2809
867.4174, 789.9886
867.8995, 782.5839
868.3816, 782.8705
868.8637, 781.0762
869.3458, 773.3828
869.8279, 765.3354
870.3101, 768.9776
870.7922, 780.7184
871.2743, 790.1774
871.7564, 792.9545
872.2385, 792.3369
872.7206, 788.8155
873.2028, 783.3243
873.6849, 777.4045
874.1670, 768.1146
874.6491, 764.5028
875.1312, 769.6123
875.6133, 779.3624
876.0955, 785.5270
876.5776, 788.6291
877.0597, 792.7499
877.5418, 801.4249
878.0239, 808.0166
878.5060, 801.5771
878.9882, 789.3589
879.4703, 785.0146
879.9524, 801.6938
880.4345, 814.2285
880.9166, 816.3996
881.3987, 814.2075
881.8809, 820.2426
882.3630, 835.1509
882.8451, 845.7412
883.3272, 847.0305
883.8093, 845.9638
884.2914, 852.2663
884.7736, 863.1325
885.2557, 873.0812
885.7378, 879.7684
886.2199, 885.6256
886.7020, 890.8517
887.1841, 895.7745
887.6663, 901.1130
888.1484, 907.3275
888.6305, 911.2084
889.1126, 910.2018
889.5947, 911.1426
890.0768, 927.8845
890.5590, 955.1675
891.0411, 979.5770
891.5232, 994.2773
892.0053, 1009.495
892.4874, 1031.932
892.9695, 1057.642
893.4517, 1081.237
893.9338, 1102.491
894.4159, 1119.995
894.8980, 1130.083
895.3801, 1142.101
895.8622, 1176.668
896.3444, 1226.815
896.8265, 1260.974
897.3086, 1266.021
897.7907, 1270.442
898.2728, 1299.177
898.7549, 1339.360
899.2371, 1376.025
899.7192, 1404.737
900.2013, 1430.467
900.6834, 1450.035
901.1655, 1470.281
901.6476, 1503.282
902.1298, 1546.860
902.6119, 1579.582
903.0940, 1597.136
903.5761, 1609.435
904.0582, 1622.889
904.5403, 1638.148
905.0225, 1656.611
905.5046, 1682.567
905.9867, 1702.232
906.4688, 1713.314
906.9509, 1718.710
907.4330, 1720.686
907.9152, 1719.268
908.3973, 1715.010
908.8794, 1708.612
909.3615, 1693.951
909.8436, 1656.764
910.3257, 1611.277
910.8079, 1578.767
911.2900, 1565.928
911.7721, 1546.990
912.2542, 1511.072
912.7363, 1468.455
913.2184, 1425.020
913.7006, 1381.274
914.1827, 1334.497
914.6648, 1283.865
915.1469, 1235.688
915.6290, 1194.650
916.1111, 1159.776
916.5933, 1131.654
917.0754, 1110.505
917.5575, 1086.524
918.0396, 1044.883
918.5217, 1008.917
919.0038, 995.6554
919.4860, 1006.376
919.9681, 998.4982
920.4502, 968.2919
920.9323, 937.6029
921.4144, 921.0245
921.8965, 913.1022
922.3787, 902.9821
922.8608, 890.9074
923.3429, 880.0889
923.8250, 873.7209
924.3071, 867.6170
924.7892, 858.4620
925.2714, 846.9769
925.7535, 840.0068
926.2356, 838.5066
926.7177, 837.7761
927.1998, 836.4757
927.6819, 834.1392
928.1640, 829.1380
928.6461, 822.0414
929.1282, 814.9593
929.6104, 806.5903
930.0925, 800.9553
930.5746, 801.7884
931.0567, 807.1779
931.5388, 810.5116
932.0209, 812.3634
932.5031, 809.8911
932.9852, 800.2906
933.4673, 788.9872
933.9494, 787.3464
934.4315, 792.9884
934.9136, 798.5829
935.3958, 801.5318
935.8779, 803.2965
936.3600, 805.8653
936.8421, 807.2994
937.3242, 803.5905
937.8063, 790.3084
938.2885, 784.1022
938.7706, 788.6716
939.2527, 797.0920
939.7348, 798.8879
940.2169, 796.1317
940.6990, 794.7441
941.1812, 796.4991
941.6633, 798.7086
942.1454, 800.5009
942.6275, 801.5839
943.1096, 801.2133
943.5917, 796.4593
944.0739, 798.6808
944.5560, 810.7236
945.0381, 822.4423
945.5202, 820.5674
946.0023, 810.4780
946.4844, 808.3399
946.9666, 816.5386
947.4487, 823.3039
947.9308, 815.9884
948.4129, 808.4433
948.8950, 813.4279
949.3771, 834.2972
949.8593, 844.4207
950.3414, 840.1607
950.8235, 835.8488
951.3056, 843.7648
951.7877, 858.4124
952.2698, 863.7581
952.7520, 860.3967
953.2341, 855.9582
953.7162, 852.6299
954.1983, 851.3980
954.6804, 853.7997
955.1625, 859.2972
955.6447, 863.9188
956.1268, 867.6926
956.6089, 870.2106
957.0910, 869.6631
957.5731, 869.2316
958.0552, 877.4230
958.5374, 891.9224
959.0195, 905.5527
959.5016, 911.5502
959.9837, 919.7183
960.4658, 937.0173
960.9479, 958.8129
961.4301, 974.4915
961.9122, 982.6605
962.3943, 990.1946
962.8764, 997.4796
963.3585, 1006.638
963.8406, 1021.323
964.3228, 1040.137
964.8049, 1061.451
965.2870, 1088.830
965.7691, 1109.628
966.2512, 1111.738
966.7333, 1109.709
967.2155, 1116.589
967.6976, 1132.496
968.1797, 1160.110
968.6618, 1202.559
969.1439, 1243.007
969.6260, 1265.537
970.1082, 1274.681
970.5903, 1276.073
971.0724, 1270.080
971.5545, 1261.033
972.0366, 1248.339
972.5187, 1234.859
973.0009, 1222.633
973.4830, 1211.616
973.9651, 1197.162
974.4472, 1179.256
974.9293, 1158.097
975.4114, 1132.505
975.8936, 1104.303
976.3757, 1074.929
976.8578, 1044.682
977.3399, 1014.783
977.8220, 977.2209
978.3041, 951.0707
978.7863, 945.0595
979.2684, 951.8771
979.7505, 949.6065
980.2326, 938.5409
980.7147, 924.4600
981.1968, 906.8571
981.6790, 891.5608
982.1611, 885.7856
982.6432, 885.9874
983.1253, 886.1791
983.6074, 886.8045
984.0895, 884.6792
984.5717, 879.6236
985.0538, 871.8046
985.5359, 858.6951
986.0180, 842.0833
986.5001, 833.7621
986.9822, 836.6843
987.4644, 839.4011
987.9465, 829.5564
988.4286, 817.4247
988.9107, 814.0037
989.3928, 824.5407
989.8749, 824.6924
990.3571, 809.9927
990.8392, 795.7592
991.3213, 794.9206
991.8034, 802.6124
992.2855, 801.1767
992.7676, 791.7899
993.2498, 786.1058
993.7319, 798.3593
994.2140, 808.9962
994.6961, 805.5450
995.1782, 790.6750
995.6603, 777.4429
996.1425, 764.6962
996.6246, 760.2587
997.1067, 771.0914
997.5888, 785.6432
998.0709, 781.4714
998.5530, 765.8970
999.0352, 755.3896
999.5173, 759.2737
999.9994, 765.6207
1000.482, 776.0114
1000.964, 784.5004
1001.446, 781.4425
1001.928, 765.7288
1002.410, 757.8641
1002.892, 761.1595
1003.374, 766.4648
1003.856, 765.2989
1004.338, 760.6238
1004.821, 755.1073
1005.303, 748.4230
1005.785, 745.0480
1006.267, 746.2751
1006.749, 749.4540
1007.231, 754.3578
1007.713, 760.2629
1008.195, 762.1423
1008.677, 760.0224
1009.160, 754.0294
1009.642, 737.7297
1010.124, 723.5219
1010.606, 722.2729
1011.088, 731.4174
1011.570, 735.3531
1012.052, 731.3326
1012.534, 728.3428
1013.017, 729.0742
1013.499, 731.0698
1013.981, 728.6237
1014.463, 723.7589
1014.945, 721.7955
1015.427, 725.6801
1015.909, 730.3258
1016.391, 736.6819
1016.873, 740.8635
1017.356, 738.3301
1017.838, 727.5455
1018.320, 718.6375
1018.802, 712.0191
1019.284, 707.0574
1019.766, 700.9609
1020.248, 697.3745
1020.730, 704.6175
1021.212, 723.8348
1021.695, 732.8994
1022.177, 714.9038
1022.659, 700.5582
1023.141, 702.8340
1023.623, 717.5351
1024.105, 725.8621
1024.587, 728.1672
1025.069, 727.4058
1025.552, 723.0971
1026.034, 718.2634
1026.516, 715.4257
1026.998, 713.4731
1027.480, 709.2017
1027.962, 698.7258
1028.444, 696.6796
1028.926, 707.4748
1029.408, 721.0898
1029.891, 721.5538
1030.373, 714.3856
1030.855, 712.3233
1031.337, 719.3273
1031.819, 723.2245
1032.301, 714.0012
1032.783, 703.8927
1033.265, 701.5795
1033.748, 707.3471
1034.230, 709.5670
1034.712, 708.0753
1035.194, 706.0627
1035.676, 705.3475
1036.158, 705.4292
1036.640, 707.0283
1037.122, 709.2574
1037.604, 708.0872
1038.087, 697.7855
1038.569, 692.2420
1039.051, 695.3789
1039.533, 703.3228
1040.015, 710.4860
1040.497, 715.9771
1040.979, 716.1968
1041.461, 708.2388
1041.943, 699.8946
1042.426, 695.2192
1042.908, 692.6819
1043.390, 690.7964
1043.872, 689.7809
1044.354, 687.5693
1044.836, 683.6338
1045.318, 681.4268
1045.800, 685.6779
1046.283, 692.3654
1046.765, 696.1107
1047.247, 696.7387
1047.729, 695.4539
1048.211, 688.1702
1048.693, 684.9858
1049.175, 691.1157
1049.657, 701.6359
1050.140, 700.4812
1050.622, 689.5654
1051.104, 681.6733
1051.586, 682.7597
1052.068, 685.2411
1052.550, 684.3547
1053.032, 681.5183
1053.514, 678.5380
1053.996, 675.5786
1054.479, 671.9512
1054.961, 667.1075
1055.443, 663.6398
1055.925, 665.0242
1056.407, 669.0342
1056.889, 672.1520
1057.371, 674.1168
1057.853, 675.6940
1058.335, 676.6973
1058.818, 678.0128
1059.300, 680.8237
1059.782, 683.9167
1060.264, 681.1277
1060.746, 673.3140
1061.228, 668.8250
1061.710, 673.3483
1062.192, 678.6764
1062.674, 679.3922
1063.157, 676.5764
1063.639, 671.0140
1064.121, 659.2953
1064.603, 655.1505
1065.085, 660.3636
1065.567, 669.1230
1066.049, 678.8619
1066.531, 686.7893
1067.014, 686.2872
1067.496, 676.8779
1067.978, 668.8659
1068.460, 665.5130
1068.942, 665.0947
1069.424, 668.2811
1069.906, 673.5813
1070.388, 673.6232
1070.870, 669.0397
1071.353, 665.3002
1071.835, 664.5020
1072.317, 665.5266
1072.799, 670.9163
1073.281, 676.3427
1073.763, 674.1133
1074.245, 659.3284
1074.727, 651.1566
1075.209, 650.7742
1075.692, 655.4766
1076.174, 668.0760
1076.656, 681.4651
1077.138, 680.8467
1077.620, 665.2767
1078.102, 654.7795
1078.584, 661.3954
1079.066, 667.9429
1079.549, 669.1745
1080.031, 666.2584
1080.513, 662.5820
1080.995, 658.4049
1081.477, 655.3417
1081.959, 653.0565
1082.441, 653.5038
1082.923, 662.2321
1083.406, 672.2817
1083.888, 673.5261
1084.370, 662.3740
1084.852, 656.5488
1085.334, 657.1608
1085.816, 660.5455
1086.298, 666.6205
1086.780, 671.5621
1087.262, 667.7091
1087.745, 655.3294
1088.227, 649.9821
1088.709, 660.0466
1089.191, 669.1353
1089.673, 673.2773
1090.155, 672.6838
1090.637, 664.3293
1091.119, 651.2100
1091.601, 644.9512
1092.084, 653.9247
1092.566, 661.4216
1093.048, 657.6217
1093.530, 650.2645
1094.012, 646.0267
1094.494, 644.7604
1094.976, 649.5065
1095.458, 660.7481
1095.941, 670.8134
1096.423, 673.1272
1096.905, 672.1129
1097.387, 672.1650
1097.869, 672.9052
1098.351, 669.8646
1098.833, 660.9731
1099.315, 653.3076
1099.797, 648.4335
1100.280, 645.8918
1100.762, 645.6287
1101.244, 646.8171
1101.726, 647.5624
1102.208, 646.6974
1102.690, 647.3721
1103.172, 652.1429
1103.654, 656.8350
1104.136, 658.5850
1104.619, 657.6489
1105.101, 656.2778
1105.583, 654.6670
1106.065, 655.2025
1106.547, 663.5197
1107.029, 670.1789
1107.511, 669.0703
1107.993, 662.1277
1108.476, 653.8749
1108.958, 643.2968
1109.440, 637.8278
1109.922, 639.2000
1110.404, 644.0093
1110.886, 650.8702
1111.368, 657.5284
1111.850, 661.1071
1112.333, 660.7853
1112.815, 658.5865
1113.297, 652.6813
1113.779, 649.6374
1114.261, 654.1745
1114.743, 663.1756
1115.225, 669.9260
1115.707, 674.4297
1116.189, 676.6854
1116.672, 675.7130
1117.154, 673.6425
1117.636, 670.4529
1118.118, 666.9087
1118.600, 664.1108
1119.082, 661.9072
1119.564, 658.9651
1120.046, 655.1252
1120.528, 651.0432
1121.011, 644.4244
1121.493, 640.0766
1121.975, 643.2660
1122.457, 652.4700
1122.939, 659.0855
1123.421, 663.2407
1123.903, 662.9532
1124.385, 655.2238
1124.868, 646.9800
1125.350, 647.5567
1125.832, 652.5741
1126.314, 655.4719
1126.796, 653.5715
1127.278, 652.3806
1127.760, 652.0826
1128.242, 652.0389
1128.724, 651.7755
1129.207, 651.3759
1129.689, 650.7576
1130.171, 650.0571
1130.653, 650.0796
1131.135, 653.9494
1131.617, 654.4340
1132.099, 647.6816
1132.581, 639.0449
1133.063, 640.0948
1133.546, 648.6273
1134.028, 655.2632
1134.510, 658.2829
1134.992, 658.6116
1135.474, 655.2777
1135.956, 650.6113
1136.438, 645.6878
1136.920, 640.6733
1137.403, 639.3263
1137.885, 641.5836
1138.367, 643.2070
1138.849, 638.6822
1139.331, 636.1721
1139.813, 647.7094
1140.295, 664.2811
1140.777, 667.7033
1141.260, 650.4313
1141.742, 645.0981
1142.224, 655.7752
1142.706, 667.9598
1143.188, 665.1490
1143.670, 656.6892
1144.152, 655.7975
1144.634, 662.6943
1145.116, 664.7918
1145.599, 658.1679
1146.081, 651.4993
1146.563, 646.7258
1147.045, 643.6791
1147.527, 642.1548
1148.009, 642.0651
1148.491, 643.2864
1148.973, 645.8778
1149.455, 649.6541
1149.938, 656.9696
1150.420, 662.4264
1150.902, 661.2664
1151.384, 655.0814
1151.866, 654.5288
1152.348, 658.6900
1152.830, 661.9455
1153.312, 661.6013
1153.794, 659.3712
1154.277, 655.1867
1154.759, 649.9354
1155.241, 643.4913
1155.723, 635.8768
1156.205, 635.2212
1156.687, 643.0282
1157.169, 649.7364
1157.651, 645.4238
1158.134, 638.7502
1158.616, 636.5012
1159.098, 638.3417
1159.580, 640.6454
1160.062, 643.7748
1160.544, 643.7298
1161.026, 637.6821
1161.508, 631.0482
1161.990, 628.7258
1162.473, 630.3478
1162.955, 636.1614
1163.437, 649.4868
1163.919, 656.5950
1164.401, 656.4861
1164.883, 653.7084
1165.365, 648.4296
1165.847, 644.2811
1166.329, 650.3372
1166.812, 662.7718
1167.294, 669.1581
1167.776, 662.2697
1168.258, 653.9219
1168.740, 643.6304
1169.222, 635.2998
1169.704, 634.9544
1170.186, 640.2316
1170.669, 647.0848
1171.151, 655.1025
1171.633, 660.0568
1172.115, 658.8287
1172.597, 655.5303
1173.079, 650.3416
1173.561, 644.7850
1174.043, 643.4387
1174.526, 645.4229
1175.008, 648.1797
1175.490, 652.8190
1175.972, 653.1942
1176.454, 640.5327
1176.936, 628.0355
1177.418, 625.1486
1177.900, 631.2124
1178.382, 637.9648
1178.865, 645.0960
1179.347, 650.1308
1179.829, 650.8560
1180.311, 649.8667
1180.793, 646.9159
1181.275, 643.8854
1181.757, 644.5519
1182.239, 649.2296
1182.721, 649.1019
1183.204, 643.1674
1183.686, 635.4495
1184.168, 625.4444
1184.650, 618.3042
1185.132, 620.1411
1185.614, 628.9856
1186.096, 633.9542
1186.578, 634.7495
1187.061, 633.8184
1187.543, 630.4664
1188.025, 629.6829
1188.507, 641.6881
1188.989, 656.1822
1189.471, 660.1814
1189.953, 650.3502
1190.435, 645.1794
1190.917, 645.5668
1191.400, 645.4854
1191.882, 640.3745
1192.364, 634.2921
1192.846, 632.3181
1193.328, 633.1993
1193.810, 634.5413
1194.292, 637.1415
1194.774, 637.1636
1195.256, 633.8220
1195.739, 630.3954
1196.221, 629.3505
1196.703, 630.3665
1197.185, 633.7566
1197.667, 639.0584
1198.149, 643.6122
1198.631, 646.7059
1199.113, 649.7706
1199.596, 653.6319
1200.078, 656.3123
1200.560, 652.4182
1201.042, 646.3409
1201.524, 647.6254
1202.006, 659.1162
1202.488, 663.9163
1202.970, 656.1104
1203.453, 647.5355
1203.935, 643.1906
1204.417, 640.5266
1204.899, 631.6284
1205.381, 620.0986
1205.863, 614.6502
1206.345, 621.9609
1206.827, 626.9894
1207.309, 625.6915
1207.792, 624.4818
1208.274, 630.4747
1208.756, 639.9515
1209.238, 635.5576
1209.720, 621.3300
1210.202, 614.3676
1210.684, 630.2607
1211.166, 643.3105
1211.648, 649.1976
1212.131, 649.4609
1212.613, 642.6172
1213.095, 631.7213
1213.577, 629.8450
1214.059, 637.3903
1214.541, 642.4386
1215.023, 636.7762
1215.505, 630.3332
1215.988, 625.2545
1216.470, 622.6325
1216.952, 627.4727
1217.434, 637.0298
1217.916, 640.6052
1218.398, 634.8263
1218.880, 629.0663
1219.362, 625.5463
1219.844, 626.0189
1220.327, 633.2313
1220.809, 644.4518
1221.291, 647.3203
1221.773, 643.5966
1222.255, 641.9005
1222.737, 648.3321
1223.219, 652.0215
1223.701, 644.1550
1224.183, 635.3940
1224.666, 634.7539
1225.148, 641.2461
1225.630, 642.0736
1226.112, 638.0229
1226.594, 634.9058
1227.076, 637.7277
1227.558, 639.9247
1228.040, 637.4760
1228.523, 634.2369
1229.005, 635.7598
1229.487, 641.2758
1229.969, 644.0676
1230.451, 643.6109
1230.933, 642.1030
1231.415, 638.8271
1231.897, 637.2067
1232.380, 639.5698
1232.862, 643.9968
1233.344, 646.9944
1233.826, 648.4229
1234.308, 646.1734
1234.790, 638.9203
1235.272, 634.4844
1235.754, 640.6717
1236.236, 647.9279
1236.719, 650.8657
1237.201, 650.4339
1237.683, 652.0775
1238.165, 654.8749
1238.647, 652.5385
1239.129, 638.7842
1239.611, 629.2823
1240.093, 638.2099
1240.575, 648.8373
1241.058, 647.6501
1241.540, 636.1422
1242.022, 632.3980
1242.504, 635.4376
1242.986, 638.1932
1243.468, 635.2919
1243.950, 633.6047
1244.432, 639.4618
1244.914, 644.8964
1245.397, 639.7449
1245.879, 625.6390
1246.361, 620.1823
1246.843, 623.4153
1247.325, 628.0079
1247.807, 629.8095
1248.289, 632.1400
1248.771, 637.0325
1249.254, 642.5563
1249.736, 645.4524
1250.218, 646.1097
1250.700, 646.8077
1251.182, 647.8575
1251.664, 647.8405
1252.146, 643.7340
1252.628, 641.1441
1253.110, 642.8990
1253.593, 647.0888
1254.075, 650.8040
1254.557, 652.9790
1255.039, 647.7257
1255.521, 631.0684
1256.003, 619.9560
1256.485, 627.1063
1256.967, 636.3914
1257.449, 641.0558
1257.932, 641.7348
1258.414, 638.3236
1258.896, 632.6063
1259.378, 630.9858
1259.860, 638.7315
1260.342, 643.9899
1260.824, 641.6498
1261.306, 638.7073
1261.789, 640.8896
1262.271, 645.9720
1262.753, 643.7452
1263.235, 636.6990
1263.717, 633.7104
1264.199, 644.2144
1264.681, 650.7747
1265.163, 650.4970
1265.646, 646.9358
1266.128, 640.7307
1266.610, 634.7357
1267.092, 639.5418
1267.574, 652.8889
1268.056, 659.8339
1268.538, 649.1013
1269.020, 639.9368
1269.502, 634.6478
1269.984, 632.4251
1270.467, 633.7167
1270.949, 636.7977
1271.431, 638.6212
1271.913, 638.9360
1272.395, 638.6353
1272.877, 637.3866
1273.359, 636.8136
1273.841, 637.5630
1274.324, 638.5420
1274.806, 638.1005
1275.288, 636.8488
1275.770, 635.3087
1276.252, 633.4167
##END=



