##NAMES=Atencioite
##RRUFFID=R060893
##IDEAL CHEMISTRY=Ca_2_Fe^2+^_3_Mg_2_Be_4_(PO_4_)_6_(OH)_4_&#183;6H_2_O
##LOCALITY=Linópolis, Minas Gerais, Brazil
##OWNER=RRUFF
##SOURCE=Michael Scott
##DESCRIPTION=Elongated, spherically radiating gray to pale yellow-green crystals, associated with prismatic orange ushkovite and dark green rockbridgeite.
##STATUS=The identification of this mineral is confirmed by single-crystal X-ray diffraction and chemical analysis.
##URL=rruff.info/R060893
##MEASURED CHEMISTRY=Ca_1.94_(Fe^2+^_2.35_Mg_0.40_Mn_0.20_Al_0.04_)_2.99_Mg_2_Be_4_(PO_4_)_6_(OH)_4_·6H_2_O ; Light phase. The dark phase is Ca_1.95_(Fe^2+^_1.69_Mg_0.97_Mn_0.12_Al_0.09_)_2.87_Mg_2_Be_4_(PO_4_)_6_(OH)_4_·6H_2_O.   The Be content is assumed.
111.9606, 63.58867
112.4427, 64.33855
112.9248, 65.07817
113.4069, 65.93616
113.8890, 66.75313
114.3712, 67.41063
114.8533, 67.90113
115.3354, 68.21426
115.8175, 68.34317
116.2996, 68.28971
116.7817, 68.08218
117.2639, 67.68571
117.7460, 67.15495
118.2281, 66.55869
118.7102, 65.89033
119.1923, 65.18413
119.6744, 64.44813
120.1566, 63.66677
120.6387, 62.91864
121.1208, 62.20793
121.6029, 61.56488
122.0850, 61.06090
122.5671, 60.81282
123.0493, 60.68284
123.5314, 60.53316
124.0135, 60.33575
124.4956, 60.12329
124.9777, 59.86637
125.4598, 59.59748
125.9420, 59.45040
126.4241, 59.61358
126.9062, 59.94508
127.3883, 60.17103
127.8704, 60.18124
128.3525, 60.13097
128.8347, 60.29156
129.3168, 60.65194
129.7989, 60.99842
130.2810, 61.09766
130.7631, 61.01951
131.2452, 61.06480
131.7274, 61.36117
132.2095, 61.80593
132.6916, 62.12397
133.1737, 62.30866
133.6558, 62.42811
134.1379, 62.51410
134.6201, 62.56882
135.1022, 62.71036
135.5843, 62.98858
136.0664, 63.38926
136.5485, 63.77544
137.0306, 64.11787
137.5128, 64.52265
137.9949, 65.14617
138.4770, 66.02024
138.9591, 66.97498
139.4412, 68.01196
139.9233, 69.13912
140.4055, 70.09013
140.8876, 70.81450
141.3697, 71.41438
141.8518, 72.08637
142.3339, 72.91112
142.8160, 73.61774
143.2982, 74.08373
143.7803, 74.21709
144.2624, 74.41690
144.7445, 74.85017
145.2266, 75.29414
145.7087, 75.20206
146.1909, 74.25395
146.6730, 73.17950
147.1551, 72.24551
147.6372, 71.48833
148.1193, 70.82976
148.6014, 70.30898
149.0836, 69.89351
149.5657, 69.44518
150.0478, 68.79178
150.5299, 68.25357
151.0120, 67.96893
151.4941, 68.18120
151.9763, 68.36030
152.4584, 68.51917
152.9405, 68.64477
153.4226, 68.67992
153.9047, 68.45458
154.3868, 68.24425
154.8690, 68.19883
155.3511, 68.58150
155.8332, 68.86692
156.3153, 68.90942
156.7974, 68.74232
157.2795, 68.64024
157.7617, 68.70749
158.2438, 68.83813
158.7259, 68.95580
159.2080, 69.04501
159.6901, 69.11924
160.1722, 69.18916
160.6544, 69.25401
161.1365, 69.28915
161.6186, 69.23571
162.1007, 69.16915
162.5828, 69.15779
163.0649, 69.26241
163.5471, 69.39393
164.0292, 69.46526
164.5113, 69.47314
164.9934, 69.61573
165.4755, 70.11293
165.9576, 70.77147
166.4398, 71.34547
166.9219, 71.64049
167.4040, 71.89690
167.8861, 72.25481
168.3682, 72.72310
168.8503, 73.27743
169.3325, 73.98422
169.8146, 74.76140
170.2967, 75.46568
170.7788, 76.03007
171.2609, 76.50729
171.7430, 76.93623
172.2252, 77.32286
172.7073, 77.65941
173.1894, 77.87920
173.6715, 78.04219
174.1536, 78.27341
174.6357, 78.68494
175.1179, 79.18040
175.6000, 79.61502
176.0821, 79.94975
176.5642, 80.35359
177.0463, 81.03167
177.5284, 81.92693
178.0106, 82.85127
178.4927, 83.73962
178.9748, 84.58874
179.4569, 85.35734
179.9390, 86.03452
180.4211, 86.68923
180.9033, 87.38062
181.3854, 88.12085
181.8675, 88.94273
182.3496, 90.06998
182.8317, 91.28502
183.3138, 92.12287
183.7960, 92.51028
184.2781, 92.55698
184.7602, 92.33414
185.2423, 91.85815
185.7244, 91.28945
186.2065, 90.72066
186.6887, 90.13420
187.1708, 89.44334
187.6529, 88.61913
188.1350, 87.73012
188.6171, 86.89085
189.0992, 86.09425
189.5814, 85.35645
190.0635, 84.63615
190.5456, 83.95134
191.0277, 83.52622
191.5098, 83.45324
191.9919, 83.53903
192.4741, 83.33935
192.9562, 82.83964
193.4383, 82.39043
193.9204, 82.28883
194.4025, 82.51134
194.8846, 82.62171
195.3668, 82.49953
195.8489, 82.31511
196.3310, 82.56323
196.8131, 83.30381
197.2952, 84.01743
197.7773, 84.27865
198.2595, 84.06882
198.7416, 84.04892
199.2237, 84.34401
199.7058, 84.83764
200.1879, 85.17493
200.6700, 85.31429
201.1522, 85.50279
201.6343, 85.98471
202.1164, 86.80868
202.5985, 87.42596
203.0806, 87.73723
203.5627, 87.81295
204.0449, 87.83467
204.5270, 87.77029
205.0091, 87.75548
205.4912, 87.90282
205.9733, 88.23986
206.4554, 88.57006
206.9376, 88.86639
207.4197, 89.14026
207.9018, 89.43236
208.3839, 89.72350
208.8660, 90.08510
209.3481, 90.57986
209.8303, 91.24114
210.3124, 91.89634
210.7945, 92.51153
211.2766, 93.10871
211.7587, 93.81165
212.2408, 94.65965
212.7230, 95.53636
213.2051, 96.40473
213.6872, 97.31290
214.1693, 98.03220
214.6514, 98.47514
215.1335, 98.70712
215.6157, 99.06340
216.0978, 99.69905
216.5799, 100.1723
217.0620, 100.1728
217.5441, 99.57156
218.0262, 98.85166
218.5084, 98.01608
218.9905, 97.08414
219.4726, 96.19113
219.9547, 95.30032
220.4368, 94.48811
220.9189, 93.82043
221.4011, 93.32995
221.8832, 92.88492
222.3653, 92.45159
222.8474, 92.05606
223.3295, 91.82056
223.8116, 91.85835
224.2938, 91.88718
224.7759, 91.69154
225.2580, 91.06477
225.7401, 90.73769
226.2222, 90.89527
226.7043, 91.39058
227.1865, 91.60851
227.6686, 91.45324
228.1507, 91.15591
228.6328, 90.83649
229.1149, 90.48181
229.5970, 90.13965
230.0792, 89.82968
230.5613, 89.53521
231.0434, 89.18979
231.5255, 88.74512
232.0076, 88.32982
232.4897, 88.06046
232.9719, 88.14807
233.4540, 87.89660
233.9361, 87.14918
234.4182, 86.05198
234.9003, 85.08257
235.3824, 84.18602
235.8646, 83.49528
236.3467, 83.11479
236.8288, 83.24868
237.3109, 83.24329
237.7930, 83.09986
238.2751, 82.80112
238.7573, 82.27053
239.2394, 81.32243
239.7215, 80.40543
240.2036, 79.71688
240.6857, 79.33556
241.1678, 79.01507
241.6500, 78.82437
242.1321, 78.67543
242.6142, 78.30833
243.0963, 77.52914
243.5784, 76.82122
244.0605, 76.42216
244.5427, 76.50150
245.0248, 76.44688
245.5069, 76.22149
245.9890, 75.87692
246.4711, 75.50432
246.9532, 74.99236
247.4354, 74.63414
247.9175, 74.59435
248.3996, 75.03643
248.8817, 75.25536
249.3638, 75.14336
249.8459, 74.87144
250.3281, 74.75814
250.8102, 74.87287
251.2923, 75.02785
251.7744, 75.15703
252.2565, 75.24010
252.7386, 75.38814
253.2208, 75.64699
253.7029, 75.93705
254.1850, 76.12984
254.6671, 76.17493
255.1492, 76.21893
255.6313, 76.30270
256.1135, 76.42776
256.5956, 76.58003
257.0777, 76.79369
257.5598, 76.99683
258.0419, 77.07980
258.5240, 76.98667
259.0062, 76.89636
259.4883, 76.86894
259.9704, 76.91280
260.4525, 76.89359
260.9346, 76.80329
261.4167, 76.66100
261.8989, 76.47141
262.3810, 76.19801
262.8631, 75.98470
263.3452, 75.88471
263.8273, 75.89733
264.3094, 75.87551
264.7916, 75.80633
265.2737, 75.72664
265.7558, 75.68266
266.2379, 75.70252
266.7200, 75.65260
267.2021, 75.42464
267.6843, 75.06908
268.1664, 75.13750
268.6485, 75.79916
269.1306, 76.53030
269.6127, 76.83315
270.0948, 76.58610
270.5770, 76.45814
271.0591, 76.60325
271.5412, 76.94637
272.0233, 77.13396
272.5054, 77.13952
272.9875, 77.04848
273.4697, 76.86049
273.9518, 76.52755
274.4339, 76.44384
274.9160, 76.77640
275.3981, 77.31664
275.8802, 77.38588
276.3624, 76.89187
276.8445, 76.28554
277.3266, 75.84634
277.8087, 75.58672
278.2908, 75.31039
278.7729, 74.98830
279.2551, 74.65799
279.7372, 74.45241
280.2193, 74.40157
280.7014, 74.27480
281.1835, 73.85191
281.6656, 73.14090
282.1478, 72.72639
282.6299, 72.69857
283.1120, 72.83984
283.5941, 72.77645
284.0762, 72.49780
284.5583, 72.21657
285.0405, 72.01950
285.5226, 71.90217
286.0047, 71.82891
286.4868, 71.80345
286.9689, 71.80862
287.4510, 71.83558
287.9332, 71.88218
288.4153, 71.90757
288.8974, 71.87465
289.3795, 71.80592
289.8616, 71.78755
290.3438, 71.82138
290.8259, 71.89162
291.3080, 71.97619
291.7901, 72.07864
292.2722, 72.23302
292.7543, 72.49781
293.2365, 72.79836
293.7186, 72.89858
294.2007, 72.79353
294.6828, 72.73654
295.1649, 73.03857
295.6470, 73.58775
296.1292, 74.01215
296.6113, 74.14918
297.0934, 74.18150
297.5755, 74.39262
298.0576, 74.77571
298.5397, 75.23780
299.0219, 75.81137
299.5040, 76.41349
299.9861, 76.82063
300.4682, 76.90566
300.9503, 76.95753
301.4324, 77.33607
301.9146, 77.99155
302.3967, 78.73055
302.8788, 79.58013
303.3609, 80.39080
303.8430, 80.83346
304.3251, 80.74769
304.8073, 80.73388
305.2894, 81.53594
305.7715, 82.85943
306.2536, 84.01020
306.7357, 84.47222
307.2178, 84.65455
307.7000, 84.92359
308.1821, 85.30262
308.6642, 85.80840
309.1463, 86.57096
309.6284, 87.44555
310.1105, 88.21828
310.5927, 88.76151
311.0748, 89.18481
311.5569, 89.55913
312.0390, 89.88636
312.5211, 90.16512
313.0032, 90.30638
313.4854, 90.43684
313.9675, 90.68947
314.4496, 91.25432
314.9317, 91.82082
315.4138, 92.27676
315.8959, 92.62082
316.3781, 92.85826
316.8602, 93.04635
317.3423, 93.09646
317.8244, 92.93202
318.3065, 92.41908
318.7886, 91.85910
319.2708, 91.27009
319.7529, 90.69975
320.2350, 90.28126
320.7171, 90.36314
321.1992, 90.37756
321.6813, 89.98912
322.1635, 88.89742
322.6456, 87.99032
323.1277, 87.49702
323.6098, 87.28224
324.0919, 87.11944
324.5740, 87.23653
325.0562, 87.16120
325.5383, 86.66769
326.0204, 85.59839
326.5025, 84.72160
326.9846, 84.22319
327.4667, 83.88790
327.9489, 83.47935
328.4310, 82.77058
328.9131, 82.24223
329.3952, 82.01934
329.8773, 82.11092
330.3594, 82.15490
330.8416, 82.13505
331.3237, 82.08192
331.8058, 81.99802
332.2879, 81.72602
332.7700, 81.70998
333.2521, 82.14405
333.7343, 82.88630
334.2164, 83.21465
334.6985, 82.89112
335.1806, 82.51769
335.6627, 82.43153
336.1448, 82.75325
336.6270, 82.97864
337.1091, 83.03211
337.5912, 83.02789
338.0733, 83.25030
338.5554, 83.79861
339.0375, 84.24281
339.5197, 84.32339
340.0018, 84.00379
340.4839, 84.03554
340.9660, 84.50095
341.4481, 85.13602
341.9302, 85.57884
342.4124, 85.81544
342.8945, 86.11141
343.3766, 86.63565
343.8587, 87.27995
344.3408, 87.49660
344.8229, 87.23210
345.3051, 86.89333
345.7872, 86.87781
346.2693, 87.13671
346.7514, 87.35720
347.2335, 87.49253
347.7156, 87.53349
348.1978, 87.40144
348.6799, 87.11243
349.1620, 86.85992
349.6441, 86.80775
350.1262, 86.88728
350.6083, 86.95276
351.0905, 87.00098
351.5726, 86.98360
352.0547, 86.76186
352.5368, 86.41148
353.0189, 86.16204
353.5010, 86.18593
353.9832, 86.34689
354.4653, 86.53535
354.9474, 86.75308
355.4295, 86.84441
355.9116, 86.57369
356.3937, 86.11979
356.8759, 85.75489
357.3580, 85.58269
357.8401, 85.52451
358.3222, 85.53964
358.8043, 85.62663
359.2864, 85.77630
359.7686, 86.02274
360.2507, 86.31050
360.7328, 86.58777
361.2149, 86.82910
361.6970, 87.08495
362.1791, 87.36453
362.6613, 87.67185
363.1434, 88.01698
363.6255, 88.35902
364.1076, 88.77309
364.5897, 89.31228
365.0718, 90.00349
365.5540, 90.70718
366.0361, 91.40011
366.5182, 92.09155
367.0003, 92.79290
367.4824, 93.58421
367.9645, 94.30624
368.4467, 94.84277
368.9288, 95.16806
369.4109, 95.76275
369.8930, 96.74039
370.3751, 97.90291
370.8572, 99.13335
371.3394, 100.4735
371.8215, 101.7910
372.3036, 103.0714
372.7857, 104.3228
373.2678, 105.5490
373.7499, 106.6026
374.2321, 107.9109
374.7142, 109.7670
375.1963, 112.4101
375.6784, 114.5577
376.1605, 115.9684
376.6426, 117.1743
377.1248, 119.0019
377.6069, 121.5733
378.0890, 124.1319
378.5711, 126.3848
379.0532, 128.4000
379.5353, 130.5389
380.0175, 132.8476
380.4996, 135.1508
380.9817, 137.2766
381.4638, 139.2344
381.9459, 141.2396
382.4280, 143.4332
382.9102, 145.5346
383.3923, 146.8676
383.8744, 147.4936
384.3565, 147.9331
384.8386, 148.7493
385.3207, 149.5822
385.8029, 149.6074
386.2850, 148.6797
386.7671, 147.2882
387.2492, 145.8736
387.7313, 144.3721
388.2134, 142.6634
388.6956, 140.6370
389.1777, 138.4444
389.6598, 136.1812
390.1419, 133.8612
390.6240, 131.5110
391.1061, 129.0703
391.5883, 126.6190
392.0704, 124.2123
392.5525, 121.7023
393.0346, 119.4735
393.5167, 117.8289
393.9988, 116.5945
394.4810, 115.2590
394.9631, 113.3004
395.4452, 111.4636
395.9273, 110.1695
396.4094, 109.6272
396.8915, 109.1109
397.3737, 108.4718
397.8558, 107.7916
398.3379, 107.1713
398.8200, 106.4120
399.3021, 105.9347
399.7842, 105.8894
400.2664, 106.2730
400.7485, 106.6547
401.2306, 107.0708
401.7127, 107.4422
402.1948, 107.6929
402.6769, 107.6768
403.1591, 107.8619
403.6412, 108.3307
404.1233, 108.9893
404.6054, 109.5971
405.0875, 110.0846
405.5696, 110.7130
406.0518, 111.6699
406.5339, 112.9723
407.0160, 114.0452
407.4981, 114.8900
407.9802, 115.4805
408.4623, 115.6833
408.9445, 115.5082
409.4266, 115.4080
409.9087, 115.5645
410.3908, 115.8209
410.8729, 115.7813
411.3550, 115.4524
411.8372, 115.0466
412.3193, 114.6998
412.8014, 114.3872
413.2835, 114.0366
413.7656, 113.6235
414.2477, 113.2193
414.7299, 112.8931
415.2120, 112.6347
415.6941, 112.4298
416.1762, 112.3260
416.6583, 112.2301
417.1404, 112.1175
417.6226, 111.9757
418.1047, 111.6343
418.5868, 110.6884
419.0689, 109.6356
419.5510, 108.9635
420.0331, 109.1956
420.5153, 109.3040
420.9974, 108.7917
421.4795, 107.8553
421.9616, 107.0105
422.4437, 106.5439
422.9258, 106.0575
423.4080, 105.3416
423.8901, 104.2624
424.3722, 103.3759
424.8543, 102.7859
425.3364, 102.3826
425.8185, 102.0635
426.3007, 101.8193
426.7828, 101.6651
427.2649, 101.5586
427.7470, 101.5280
428.2291, 101.7828
428.7112, 102.4017
429.1934, 103.1653
429.6755, 103.9562
430.1576, 104.7423
430.6397, 105.6685
431.1218, 106.6854
431.6039, 107.9206
432.0861, 109.7556
432.5682, 112.2437
433.0503, 114.4865
433.5324, 115.9929
434.0145, 117.0670
434.4966, 118.8606
434.9788, 121.3937
435.4609, 124.0548
435.9430, 126.2915
436.4251, 128.2777
436.9072, 130.5424
437.3893, 133.3196
437.8715, 136.0893
438.3536, 138.2325
438.8357, 139.8806
439.3178, 141.3999
439.7999, 143.1873
440.2820, 144.8026
440.7642, 145.7982
441.2463, 146.1561
441.7284, 146.1932
442.2105, 146.1895
442.6926, 145.9032
443.1747, 145.0999
443.6569, 143.6165
444.1390, 141.7173
444.6211, 139.3410
445.1032, 136.5892
445.5853, 133.8324
446.0674, 131.0502
446.5496, 128.3331
447.0317, 125.7336
447.5138, 123.2865
447.9959, 120.8208
448.4780, 118.2452
448.9601, 115.7051
449.4423, 113.2690
449.9244, 110.8195
450.4065, 108.7878
450.8886, 107.3270
451.3707, 106.3339
451.8528, 105.3310
452.3350, 104.3085
452.8171, 103.2839
453.2992, 102.2490
453.7813, 101.1978
454.2634, 100.0976
454.7455, 98.89741
455.2277, 97.77215
455.7098, 96.98327
456.1919, 96.49228
456.6740, 95.97340
457.1561, 95.23689
457.6382, 94.49620
458.1204, 94.25249
458.6025, 94.43613
459.0846, 94.55593
459.5667, 94.18335
460.0488, 93.58891
460.5309, 93.10271
461.0131, 92.76822
461.4952, 92.56940
461.9773, 92.53871
462.4594, 92.63077
462.9415, 92.77962
463.4236, 93.14005
463.9058, 93.38277
464.3879, 93.25294
464.8700, 92.80334
465.3521, 92.52928
465.8342, 92.66792
466.3163, 92.92725
466.7985, 93.15031
467.2806, 93.31053
467.7627, 93.45961
468.2448, 93.65623
468.7269, 93.81574
469.2090, 93.80786
469.6912, 93.52445
470.1733, 93.26976
470.6554, 93.12086
471.1375, 93.06528
471.6196, 92.98209
472.1017, 92.86294
472.5839, 92.73837
473.0660, 92.65263
473.5481, 92.60732
474.0302, 92.43166
474.5123, 92.07931
474.9944, 91.68714
475.4766, 91.49587
475.9587, 91.47063
476.4408, 91.37489
476.9229, 91.00147
477.4050, 90.57232
477.8871, 90.52846
478.3693, 90.82999
478.8514, 91.10815
479.3335, 91.07604
479.8156, 90.88560
480.2977, 90.69117
480.7798, 90.48967
481.2620, 90.39062
481.7441, 90.52409
482.2262, 90.78462
482.7083, 91.01698
483.1904, 91.16330
483.6725, 91.27696
484.1547, 91.42642
484.6368, 91.59497
485.1189, 91.57368
485.6010, 90.97252
486.0831, 90.45723
486.5652, 90.37438
487.0474, 90.93401
487.5295, 91.48730
488.0116, 92.08807
488.4937, 92.63621
488.9758, 93.00606
489.4579, 93.20335
489.9401, 93.17931
490.4222, 92.81031
490.9043, 92.22567
491.3864, 92.04567
491.8685, 92.30911
492.3506, 92.71379
492.8328, 93.09338
493.3149, 93.44655
493.7970, 93.79754
494.2791, 94.16586
494.7612, 94.44689
495.2433, 94.34490
495.7255, 94.05725
496.2076, 94.10432
496.6897, 94.99002
497.1718, 95.98495
497.6539, 96.34452
498.1360, 96.19062
498.6182, 95.99790
499.1003, 95.88129
499.5824, 95.90620
500.0645, 96.17936
500.5466, 96.79348
501.0287, 97.28681
501.5109, 97.40955
501.9930, 97.39878
502.4751, 97.48935
502.9572, 97.84480
503.4393, 98.14079
503.9214, 98.32372
504.4036, 98.41843
504.8857, 98.52757
505.3678, 98.71554
505.8499, 98.80696
506.3320, 98.70711
506.8141, 98.40113
507.2963, 98.15199
507.7784, 97.99285
508.2605, 97.79420
508.7426, 97.35528
509.2247, 96.69910
509.7068, 96.19679
510.1890, 95.96177
510.6711, 95.82636
511.1532, 95.45689
511.6353, 94.91414
512.1174, 94.50065
512.5995, 94.45892
513.0817, 94.58103
513.5638, 94.63226
514.0459, 94.60803
514.5280, 94.56055
515.0101, 94.38203
515.4922, 94.26926
515.9744, 94.44395
516.4565, 95.15607
516.9386, 95.75488
517.4207, 95.97768
517.9028, 95.96397
518.3849, 95.94178
518.8671, 95.85870
519.3492, 95.86678
519.8313, 95.98515
520.3134, 96.21348
520.7955, 96.59577
521.2776, 97.26894
521.7598, 97.89359
522.2419, 98.24425
522.7240, 98.25628
523.2061, 98.33657
523.6882, 98.48457
524.1703, 98.71519
524.6525, 99.07189
525.1346, 99.54927
525.6167, 100.0495
526.0988, 100.5790
526.5809, 101.0727
527.0630, 101.4298
527.5452, 101.6471
528.0273, 101.7161
528.5094, 101.5600
528.9915, 101.2926
529.4736, 101.0461
529.9557, 100.8306
530.4379, 100.5711
530.9200, 100.2686
531.4021, 99.87254
531.8842, 99.31922
532.3663, 98.40622
532.8484, 97.60273
533.3306, 97.09505
533.8127, 96.77145
534.2948, 96.41199
534.7769, 96.00151
535.2590, 95.54214
535.7411, 95.00258
536.2233, 94.39062
536.7054, 93.87128
537.1875, 93.43598
537.6696, 93.12228
538.1517, 93.03138
538.6339, 93.20012
539.1160, 93.06174
539.5981, 92.50132
540.0802, 91.87463
540.5623, 91.64343
541.0444, 91.76345
541.5266, 91.99424
542.0087, 92.35664
542.4908, 92.67928
542.9729, 92.57969
543.4550, 92.17739
543.9371, 91.94844
544.4193, 92.40024
544.9014, 92.97853
545.3835, 93.18430
545.8656, 92.95702
546.3477, 92.73888
546.8298, 92.73479
547.3120, 92.80109
547.7941, 92.81619
548.2762, 92.59812
548.7583, 92.55203
549.2404, 92.81677
549.7225, 93.23677
550.2047, 93.54984
550.6868, 93.71099
551.1689, 93.84772
551.6510, 93.96680
552.1331, 94.08331
552.6152, 94.32223
553.0974, 94.71456
553.5795, 95.08138
554.0616, 95.29514
554.5437, 95.37835
555.0258, 95.42779
555.5079, 95.43739
555.9901, 95.50417
556.4722, 95.80695
556.9543, 96.23611
557.4364, 96.54424
557.9185, 96.56216
558.4006, 96.59713
558.8828, 96.90970
559.3649, 97.42480
559.8470, 97.97610
560.3291, 98.59686
560.8112, 99.14317
561.2933, 99.54358
561.7755, 99.79270
562.2576, 99.98946
562.7397, 100.1427
563.2218, 100.2429
563.7039, 100.2687
564.1860, 100.1438
564.6682, 100.1593
565.1503, 100.3820
565.6324, 100.6650
566.1145, 100.8178
566.5966, 100.8336
567.0787, 100.7963
567.5609, 100.6848
568.0430, 100.5843
568.5251, 100.7246
569.0072, 101.0789
569.4893, 101.4161
569.9714, 101.6097
570.4536, 101.7143
570.9357, 101.7614
571.4178, 101.7614
571.8999, 101.8531
572.3820, 102.2364
572.8641, 102.6869
573.3463, 103.0125
573.8284, 103.1877
574.3105, 103.2182
574.7926, 102.8424
575.2747, 102.4166
575.7568, 102.3986
576.2390, 103.3216
576.7211, 103.9869
577.2032, 104.1971
577.6853, 104.0602
578.1674, 103.8749
578.6495, 103.5287
579.1317, 103.4787
579.6138, 104.0670
580.0959, 105.1788
580.5780, 105.8238
581.0601, 105.9819
581.5422, 105.9603
582.0244, 105.9068
582.5065, 105.8823
582.9886, 106.0923
583.4707, 106.6150
583.9528, 107.1058
584.4349, 107.3340
584.9171, 107.3122
585.3992, 107.0556
585.8813, 106.3271
586.3634, 105.6244
586.8455, 105.2346
587.3276, 105.0336
587.8098, 104.6993
588.2919, 103.9666
588.7740, 103.2984
589.2561, 102.8523
589.7382, 102.6323
590.2203, 102.3330
590.7025, 101.8159
591.1846, 101.4718
591.6667, 101.6700
592.1488, 102.4710
592.6309, 102.8949
593.1130, 102.8363
593.5952, 102.6816
594.0773, 102.9342
594.5594, 103.5021
595.0415, 104.0242
595.5236, 104.4164
596.0057, 104.7245
596.4879, 104.8936
596.9700, 105.0134
597.4521, 105.2933
597.9342, 105.8938
598.4163, 106.6275
598.8984, 107.5099
599.3806, 108.4990
599.8627, 109.2288
600.3448, 109.2863
600.8269, 109.3454
601.3090, 109.7574
601.7911, 110.6555
602.2733, 111.3833
602.7554, 111.8732
603.2375, 112.2864
603.7196, 112.8061
604.2017, 113.4678
604.6838, 113.8764
605.1660, 113.9208
605.6481, 113.8553
606.1302, 114.1630
606.6123, 114.7503
607.0944, 115.1797
607.5765, 115.2662
608.0587, 115.1410
608.5408, 114.9489
609.0229, 114.6760
609.5050, 114.2661
609.9871, 113.6701
610.4692, 112.9455
610.9514, 112.1198
611.4335, 111.1867
611.9156, 110.1743
612.3977, 108.9312
612.8798, 107.7293
613.3619, 106.7537
613.8441, 106.1159
614.3262, 105.3788
614.8083, 104.4077
615.2904, 103.5135
615.7725, 103.1866
616.2546, 103.4668
616.7368, 103.6391
617.2189, 103.5594
617.7010, 103.3213
618.1831, 102.9416
618.6652, 102.5084
619.1473, 102.3834
619.6295, 102.9224
620.1116, 103.7358
620.5937, 104.4893
621.0758, 105.1810
621.5579, 105.8303
622.0400, 106.3875
622.5222, 106.9349
623.0043, 107.5121
623.4864, 108.1212
623.9685, 108.7641
624.4506, 109.2529
624.9327, 109.9309
625.4149, 111.0642
625.8970, 112.8014
626.3791, 114.4844
626.8612, 116.0120
627.3433, 117.6144
627.8254, 119.7494
628.3076, 122.3822
628.7897, 124.7238
629.2718, 126.4513
629.7539, 128.0090
630.2360, 130.0263
630.7181, 132.4442
631.2003, 135.0543
631.6824, 137.9765
632.1645, 140.8849
632.6466, 143.4840
633.1287, 145.8214
633.6108, 148.0778
634.0930, 150.5965
634.5751, 152.8491
635.0572, 154.5644
635.5393, 155.7368
636.0214, 156.4070
636.5035, 156.5302
636.9857, 156.2016
637.4678, 155.5165
637.9499, 154.5074
638.4320, 152.9015
638.9141, 150.6393
639.3962, 147.9457
639.8784, 144.9121
640.3605, 141.6729
640.8426, 138.7018
641.3247, 136.2322
641.8068, 133.9565
642.2889, 131.5155
642.7711, 129.0036
643.2532, 126.5698
643.7353, 124.2388
644.2174, 122.0798
644.6995, 120.1276
645.1816, 118.3857
645.6638, 116.8118
646.1459, 115.5871
646.6280, 114.3364
647.1101, 112.8420
647.5922, 111.0794
648.0743, 109.7529
648.5565, 108.9689
649.0386, 108.3683
649.5207, 107.7124
650.0028, 107.0105
650.4849, 106.3431
650.9670, 105.7205
651.4492, 105.1346
651.9313, 104.5187
652.4134, 103.9503
652.8955, 103.6060
653.3776, 103.6017
653.8597, 103.6499
654.3419, 103.6043
654.8240, 103.4862
655.3061, 103.3283
655.7882, 103.1990
656.2703, 102.9651
656.7524, 102.5530
657.2346, 102.0179
657.7167, 101.4775
658.1988, 100.8099
658.6809, 100.4361
659.1630, 100.6244
659.6451, 101.2351
660.1273, 101.3946
660.6094, 101.0817
661.0915, 100.7350
661.5736, 100.6157
662.0557, 100.6738
662.5378, 100.8963
663.0200, 101.2781
663.5021, 101.5181
663.9842, 101.2069
664.4663, 100.7633
664.9484, 100.5863
665.4305, 100.7991
665.9127, 101.1138
666.3948, 101.7148
666.8769, 102.2481
667.3590, 102.3444
667.8411, 101.7341
668.3232, 101.2424
668.8054, 100.9306
669.2875, 100.7691
669.7696, 100.7259
670.2517, 100.8018
670.7338, 100.9526
671.2159, 101.2095
671.6981, 101.4717
672.1802, 101.5060
672.6623, 101.3779
673.1444, 101.3245
673.6265, 101.5920
674.1086, 101.8811
674.5908, 101.9629
675.0729, 101.8571
675.5550, 101.7306
676.0371, 101.6297
676.5192, 101.5252
677.0013, 101.3773
677.4835, 101.1706
677.9656, 101.0976
678.4477, 101.1969
678.9298, 101.3593
679.4119, 101.5172
679.8940, 101.6721
680.3762, 101.8454
680.8583, 102.0533
681.3404, 102.1887
681.8225, 102.0283
682.3046, 101.7324
682.7867, 101.6641
683.2689, 101.9590
683.7510, 102.2811
684.2331, 102.2813
684.7152, 102.1993
685.1973, 102.3403
685.6794, 103.1331
686.1616, 103.7428
686.6437, 103.9767
687.1258, 103.9497
687.6079, 103.8009
688.0900, 103.3971
688.5721, 103.2262
689.0543, 103.4297
689.5364, 103.9268
690.0185, 104.6273
690.5006, 105.5106
690.9827, 106.1102
691.4648, 105.9772
691.9470, 105.5269
692.4291, 105.3997
692.9112, 105.5513
693.3933, 105.7359
693.8754, 105.8690
694.3575, 105.9517
694.8397, 105.9606
695.3218, 105.8870
695.8039, 105.8670
696.2860, 105.8277
696.7681, 105.9385
697.2502, 106.3436
697.7324, 107.1474
698.2145, 107.7145
698.6966, 108.0111
699.1787, 108.1681
699.6608, 108.1731
700.1429, 108.1116
700.6251, 108.5334
701.1072, 109.6081
701.5893, 110.5969
702.0714, 110.5774
702.5535, 110.0564
703.0356, 109.7768
703.5178, 110.0305
703.9999, 110.4154
704.4820, 110.8275
704.9641, 111.2618
705.4462, 111.7231
705.9283, 112.3055
706.4105, 112.7564
706.8926, 112.9849
707.3747, 113.1006
707.8568, 113.3456
708.3389, 113.7210
708.8210, 114.2503
709.3032, 115.0585
709.7853, 115.9168
710.2674, 116.2652
710.7495, 116.2142
711.2316, 116.2139
711.7137, 116.5941
712.1959, 117.0467
712.6780, 117.2576
713.1601, 117.2852
713.6422, 117.5745
714.1243, 118.6833
714.6064, 119.6595
715.0886, 120.0693
715.5707, 119.8966
716.0528, 119.8528
716.5349, 119.9671
717.0170, 120.1364
717.4991, 120.3147
717.9813, 120.4966
718.4634, 120.6408
718.9455, 120.7437
719.4276, 120.8567
719.9097, 121.0652
720.3918, 121.2929
720.8740, 121.4322
721.3561, 121.4618
721.8382, 121.4430
722.3203, 121.3302
722.8024, 121.2243
723.2845, 121.2216
723.7667, 121.4904
724.2488, 121.5651
724.7309, 121.3489
725.2130, 121.0405
725.6951, 120.8829
726.1772, 120.8894
726.6594, 120.8347
727.1415, 120.6556
727.6236, 120.4952
728.1057, 120.7065
728.5878, 121.0958
729.0699, 121.1285
729.5521, 120.3797
730.0342, 119.6269
730.5163, 119.3737
730.9984, 119.4833
731.4805, 119.7114
731.9626, 120.1939
732.4448, 120.5570
732.9269, 120.7522
733.4090, 120.7861
733.8911, 120.6353
734.3732, 120.2469
734.8553, 119.8970
735.3375, 119.6691
735.8196, 119.5392
736.3017, 119.4528
736.7838, 119.4099
737.2659, 119.4097
737.7480, 119.4241
738.2302, 119.5018
738.7123, 119.7616
739.1944, 120.1513
739.6765, 120.4188
740.1586, 120.5095
740.6407, 120.4202
741.1229, 120.0107
741.6050, 119.3088
742.0871, 119.0327
742.5692, 119.3444
743.0513, 119.6975
743.5334, 119.7985
744.0156, 119.6802
744.4977, 119.6202
744.9798, 119.6185
745.4619, 119.5999
745.9440, 119.4301
746.4261, 119.2494
746.9083, 119.2751
747.3904, 119.5292
747.8725, 119.7352
748.3546, 119.6377
748.8367, 119.5358
749.3188, 119.6561
749.8010, 120.0941
750.2831, 120.4419
750.7652, 120.7096
751.2473, 120.8686
751.7294, 120.8369
752.2115, 120.6192
752.6937, 120.5894
753.1758, 120.7899
753.6579, 121.0445
754.1400, 121.1641
754.6221, 121.2195
755.1042, 121.3494
755.5864, 121.6154
756.0685, 121.8137
756.5506, 121.7083
757.0327, 121.5467
757.5148, 121.5783
757.9969, 121.8947
758.4791, 122.3353
758.9612, 122.9890
759.4433, 123.6675
759.9254, 124.0809
760.4075, 124.2141
760.8896, 124.5368
761.3718, 125.1891
761.8539, 125.8248
762.3360, 125.8417
762.8181, 125.5174
763.3002, 125.4399
763.7823, 125.8597
764.2645, 126.4261
764.7466, 127.0768
765.2287, 127.7106
765.7108, 128.1934
766.1929, 128.5239
766.6750, 128.6416
767.1572, 128.3879
767.6393, 128.0351
768.1214, 128.1772
768.6035, 128.8612
769.0856, 129.3416
769.5677, 129.3769
770.0499, 129.2260
770.5320, 129.2829
771.0141, 129.4776
771.4962, 129.6296
771.9783, 129.4534
772.4604, 129.4342
772.9426, 129.9994
773.4247, 130.8963
773.9068, 131.5317
774.3889, 131.7255
774.8710, 131.7946
775.3531, 131.7029
775.8353, 131.5616
776.3174, 131.7672
776.7995, 132.3415
777.2816, 132.7543
777.7637, 132.6715
778.2458, 132.4729
778.7280, 132.9051
779.2101, 133.7867
779.6922, 134.5255
780.1743, 134.7473
780.6564, 134.8481
781.1385, 134.9372
781.6207, 135.0582
782.1028, 135.3876
782.5849, 136.0726
783.0670, 136.7394
783.5491, 137.3037
784.0313, 137.7715
784.5134, 138.1659
784.9955, 138.4880
785.4776, 138.7782
785.9597, 139.0059
786.4418, 139.2520
786.9240, 139.6474
787.4061, 140.1723
787.8882, 140.7550
788.3703, 141.4869
788.8524, 142.1330
789.3345, 142.4402
789.8167, 142.4898
790.2988, 142.9048
790.7809, 143.9193
791.2630, 144.8979
791.7451, 145.6523
792.2272, 146.1991
792.7094, 146.5957
793.1915, 146.8491
793.6736, 147.2093
794.1557, 147.8985
794.6378, 148.7220
795.1199, 149.4523
795.6021, 150.0875
796.0842, 150.6760
796.5663, 151.0680
797.0484, 151.5722
797.5305, 152.3788
798.0126, 153.4469
798.4948, 154.4748
798.9769, 155.4785
799.4590, 156.3987
799.9411, 157.2505
800.4232, 157.9881
800.9053, 158.2221
801.3875, 158.0185
801.8696, 158.0272
802.3517, 158.8111
802.8338, 159.8790
803.3159, 160.8227
803.7980, 161.6300
804.2802, 162.2974
804.7623, 162.7074
805.2444, 163.0927
805.7265, 163.5510
806.2086, 164.0636
806.6907, 164.4459
807.1729, 164.6497
807.6550, 164.9322
808.1371, 165.5181
808.6192, 166.2300
809.1013, 166.5741
809.5834, 166.5939
810.0656, 166.5363
810.5477, 166.4105
811.0298, 166.3784
811.5119, 166.6384
811.9940, 167.1430
812.4761, 167.4964
812.9583, 167.6354
813.4404, 167.6189
813.9225, 167.4050
814.4046, 167.0449
814.8867, 166.8913
815.3688, 166.9634
815.8510, 166.8843
816.3331, 166.2598
816.8152, 165.4749
817.2973, 165.2966
817.7794, 165.5665
818.2615, 165.6614
818.7437, 164.9915
819.2258, 164.3420
819.7079, 164.2079
820.1900, 164.4828
820.6721, 164.3163
821.1542, 163.4490
821.6364, 162.7293
822.1185, 162.5704
822.6006, 162.6970
823.0827, 161.9957
823.5648, 160.5909
824.0469, 159.4412
824.5291, 159.3357
825.0112, 159.4947
825.4933, 159.1764
825.9754, 158.4975
826.4575, 157.8283
826.9396, 157.3630
827.4218, 156.8361
827.9039, 156.1922
828.3860, 155.4377
828.8681, 154.5337
829.3502, 153.3919
829.8323, 152.6198
830.3145, 152.6182
830.7966, 152.8616
831.2787, 152.1931
831.7608, 150.8901
832.2429, 149.8354
832.7250, 149.7165
833.2072, 149.6586
833.6893, 149.0802
834.1714, 148.2106
834.6535, 147.6946
835.1356, 147.9191
835.6177, 147.8441
836.0999, 147.1799
836.5820, 146.2134
837.0641, 145.6035
837.5462, 145.3197
838.0283, 145.0070
838.5104, 144.5264
838.9926, 144.0164
839.4747, 143.6858
839.9568, 143.4238
840.4389, 143.0316
840.9210, 142.3085
841.4031, 141.6089
841.8853, 140.9803
842.3674, 140.4345
842.8495, 140.0261
843.3316, 139.7971
843.8137, 139.4772
844.2958, 139.0013
844.7780, 138.4761
845.2601, 138.1785
845.7422, 137.9479
846.2243, 137.3242
846.7064, 135.9713
847.1885, 134.7491
847.6707, 134.2561
848.1528, 134.1181
848.6349, 133.9074
849.1170, 133.6463
849.5991, 133.1841
850.0812, 132.4579
850.5634, 131.6295
851.0455, 130.8245
851.5276, 130.0570
852.0097, 129.4555
852.4918, 129.0531
852.9739, 128.6841
853.4561, 128.2139
853.9382, 127.6820
854.4203, 127.1124
854.9024, 126.4636
855.3845, 125.9295
855.8666, 125.5780
856.3488, 125.3138
856.8309, 125.1249
857.3130, 125.0451
857.7951, 124.6915
858.2772, 124.0211
858.7593, 123.3755
859.2415, 123.1045
859.7236, 123.0414
860.2057, 122.9076
860.6878, 122.6796
861.1699, 122.4440
861.6520, 122.3032
862.1342, 122.1167
862.6163, 121.7488
863.0984, 121.1936
863.5805, 120.7655
864.0626, 120.4543
864.5447, 120.3232
865.0269, 120.5929
865.5090, 121.0525
865.9911, 120.8686
866.4732, 120.1200
866.9553, 119.3294
867.4374, 118.5427
867.9196, 118.0710
868.4017, 118.3340
868.8838, 119.2136
869.3659, 119.8268
869.8480, 119.9989
870.3301, 120.0708
870.8123, 120.1657
871.2944, 120.2159
871.7765, 119.8423
872.2586, 119.1087
872.7407, 118.6987
873.2228, 119.1770
873.7050, 119.8206
874.1871, 119.9204
874.6692, 119.6140
875.1513, 119.1999
875.6334, 118.4848
876.1155, 118.0497
876.5977, 118.0924
877.0798, 118.3907
877.5619, 118.5526
878.0440, 118.5706
878.5261, 118.5650
879.0082, 118.5492
879.4904, 118.5514
879.9725, 118.5703
880.4546, 118.6421
880.9367, 118.8754
881.4188, 119.5069
881.9009, 119.8403
882.3831, 119.3301
882.8652, 118.5824
883.3473, 118.2131
883.8294, 118.2935
884.3115, 118.5112
884.7936, 118.9209
885.2758, 119.2313
885.7579, 118.9731
886.2400, 118.4254
886.7221, 118.2428
887.2042, 118.5187
887.6863, 118.8969
888.1685, 119.3498
888.6506, 119.6986
889.1327, 119.7738
889.6148, 119.5301
890.0969, 119.3066
890.5790, 119.0316
891.0612, 118.9539
891.5433, 119.3616
892.0254, 120.0754
892.5075, 120.4067
892.9896, 120.3882
893.4717, 120.2902
893.9539, 120.0878
894.4360, 120.0316
894.9181, 120.5201
895.4002, 121.4035
895.8823, 121.6437
896.3644, 120.7426
896.8466, 120.0761
897.3287, 120.0642
897.8108, 120.4829
898.2929, 120.7622
898.7750, 120.9251
899.2571, 121.1237
899.7393, 121.4724
900.2214, 121.7939
900.7035, 121.9633
901.1856, 121.9941
901.6677, 121.9061
902.1498, 121.4538
902.6320, 121.2385
903.1141, 121.3616
903.5962, 121.6489
904.0783, 121.8777
904.5604, 122.0535
905.0425, 122.2555
905.5247, 122.5112
906.0068, 122.6922
906.4889, 122.6245
906.9710, 122.4439
907.4531, 122.2810
907.9352, 122.1296
908.4174, 122.1195
908.8995, 122.4363
909.3816, 122.6964
909.8637, 122.5902
910.3458, 122.1186
910.8279, 122.0335
911.3101, 122.3417
911.7922, 122.6657
912.2743, 122.5835
912.7564, 122.4701
913.2385, 122.8756
913.7206, 123.7167
914.2028, 124.2750
914.6849, 124.0409
915.1670, 123.8257
915.6491, 123.8674
916.1312, 124.1115
916.6133, 124.4007
917.0955, 124.7399
917.5776, 124.9017
918.0597, 124.6903
918.5418, 124.4376
919.0239, 124.5935
919.5060, 125.0077
919.9882, 125.3852
920.4703, 125.5519
920.9524, 125.7858
921.4345, 126.2537
921.9166, 126.7063
922.3987, 126.7652
922.8809, 126.3927
923.3630, 126.1930
923.8451, 126.2266
924.3272, 126.4675
924.8093, 127.1320
925.2914, 127.8702
925.7736, 128.0966
926.2557, 127.6028
926.7378, 127.4315
927.2199, 128.3367
927.7020, 129.2091
928.1841, 129.3676
928.6663, 128.8149
929.1484, 129.1050
929.6305, 130.2899
930.1126, 131.2281
930.5947, 130.8091
931.0768, 129.9857
931.5590, 130.0352
932.0411, 130.7900
932.5232, 131.4701
933.0053, 131.5223
933.4874, 131.8543
933.9695, 132.8977
934.4517, 134.2640
934.9338, 134.9381
935.4159, 134.8993
935.8980, 134.9923
936.3801, 135.4411
936.8622, 136.1064
937.3444, 136.9311
937.8265, 137.8177
938.3086, 138.6238
938.7907, 139.2181
939.2728, 139.9004
939.7549, 140.7088
940.2371, 141.6187
940.7192, 142.6048
941.2013, 143.6582
941.6834, 145.0855
942.1655, 146.9189
942.6476, 148.5589
943.1298, 149.1843
943.6119, 149.5308
944.0940, 150.3628
944.5761, 151.7342
945.0582, 153.3388
945.5403, 155.4254
946.0225, 157.3185
946.5046, 158.6121
946.9867, 159.5885
947.4688, 161.6236
947.9509, 164.6253
948.4330, 167.5425
948.9152, 169.9712
949.3973, 172.0681
949.8794, 173.6315
950.3615, 175.0504
950.8436, 177.0234
951.3257, 180.3359
951.8079, 183.3179
952.2900, 185.8445
952.7721, 188.0615
953.2542, 190.1426
953.7363, 192.0766
954.2184, 193.7554
954.7006, 195.1646
955.1827, 196.4220
955.6648, 197.7327
956.1469, 198.8856
956.6290, 199.6567
957.1111, 199.9931
957.5933, 200.2430
958.0754, 200.5193
958.5575, 200.5102
959.0396, 199.9202
959.5217, 198.9864
960.0038, 198.6536
960.4860, 198.7879
960.9681, 198.6909
961.4502, 197.6918
961.9323, 196.6568
962.4144, 196.1465
962.8965, 195.9619
963.3787, 195.6250
963.8608, 194.8653
964.3429, 194.6263
964.8250, 195.1202
965.3071, 195.9157
965.7892, 196.2407
966.2714, 196.4183
966.7535, 197.3266
967.2356, 199.1704
967.7177, 201.2690
968.1998, 203.2975
968.6819, 205.3912
969.1641, 207.5566
969.6462, 209.7894
970.1283, 212.4393
970.6104, 215.5092
971.0925, 219.1492
971.5746, 223.5867
972.0568, 228.6211
972.5389, 233.8884
973.0210, 239.4762
973.5031, 245.5204
973.9852, 251.9961
974.4673, 259.0582
974.9495, 266.6901
975.4316, 274.9619
975.9137, 283.8643
976.3958, 293.3483
976.8779, 303.6988
977.3600, 314.9668
977.8422, 327.0127
978.3243, 339.8813
978.8064, 353.5356
979.2885, 367.8262
979.7706, 382.8239
980.2527, 398.0740
980.7349, 414.1273
981.2170, 429.6804
981.6991, 444.1713
982.1812, 457.4511
982.6633, 468.0205
983.1454, 475.8668
983.6276, 480.9120
984.1097, 483.4556
984.5918, 482.8404
985.0739, 478.0727
985.5560, 469.7741
986.0381, 459.3791
986.5203, 446.6241
987.0024, 432.8677
987.4845, 417.9100
987.9666, 402.7418
988.4487, 388.7352
988.9308, 375.7586
989.4130, 362.9652
989.8951, 350.1600
990.3772, 338.0563
990.8593, 327.3323
991.3414, 317.2736
991.8235, 307.3045
992.3057, 297.2931
992.7878, 288.1457
993.2699, 279.8278
993.7520, 272.0311
994.2341, 264.6841
994.7162, 257.6537
995.1984, 250.6584
995.6805, 243.8251
996.1626, 237.7063
996.6447, 232.7385
997.1268, 228.1518
997.6089, 223.7388
998.0911, 219.5477
998.5732, 215.7645
999.0553, 212.3696
999.5374, 208.8479
1000.020, 205.1430
1000.502, 201.7857
1000.984, 199.7168
1001.466, 198.0071
1001.948, 195.5456
1002.430, 192.1105
1002.912, 189.7195
1003.394, 189.0938
1003.876, 188.3255
1004.359, 186.4771
1004.841, 184.0109
1005.323, 182.3562
1005.805, 181.3857
1006.287, 180.6539
1006.769, 180.1620
1007.251, 179.5824
1007.733, 178.3169
1008.216, 177.0858
1008.698, 176.9638
1009.180, 178.3839
1009.662, 179.2443
1010.144, 179.3736
1010.626, 179.2535
1011.108, 179.2807
1011.590, 179.3985
1012.072, 179.4504
1012.555, 179.4465
1013.037, 179.7343
1013.519, 180.5621
1014.001, 181.5788
1014.483, 182.7744
1014.965, 184.0405
1015.447, 184.9460
1015.929, 185.5310
1016.411, 186.1538
1016.894, 186.8600
1017.376, 187.8066
1017.858, 189.5013
1018.340, 191.3389
1018.822, 192.5252
1019.304, 192.7706
1019.786, 192.8205
1020.268, 192.5613
1020.751, 192.4142
1021.233, 192.9231
1021.715, 193.7463
1022.197, 193.9352
1022.679, 193.5476
1023.161, 193.0206
1023.643, 192.7110
1024.125, 192.1410
1024.607, 191.0287
1025.090, 189.5606
1025.572, 188.0439
1026.054, 186.4530
1026.536, 185.0563
1027.018, 183.9328
1027.500, 182.7882
1027.982, 181.3242
1028.464, 179.6535
1028.947, 177.8308
1029.429, 175.7949
1029.911, 174.0927
1030.393, 172.8236
1030.875, 171.7320
1031.357, 170.7475
1031.839, 169.8343
1032.321, 168.8280
1032.803, 167.7821
1033.286, 166.8761
1033.768, 166.2618
1034.250, 165.7521
1034.732, 165.3674
1035.214, 164.9817
1035.696, 164.4175
1036.178, 163.6361
1036.660, 162.7901
1037.143, 161.8380
1037.625, 161.0854
1038.107, 161.0179
1038.589, 161.1634
1039.071, 160.8067
1039.553, 159.9484
1040.035, 159.5270
1040.517, 160.1780
1041.000, 160.5954
1041.482, 160.3439
1041.964, 159.7140
1042.446, 159.3575
1042.928, 159.2350
1043.410, 159.1943
1043.892, 159.1884
1044.374, 159.2689
1044.856, 159.4463
1045.339, 159.7458
1045.821, 160.2551
1046.303, 161.0501
1046.785, 161.3634
1047.267, 161.1312
1047.749, 160.9769
1048.231, 161.4932
1048.713, 162.1952
1049.195, 162.3247
1049.677, 162.1125
1050.160, 162.2284
1050.642, 163.0912
1051.124, 164.0322
1051.606, 165.1414
1052.088, 166.0595
1052.570, 166.1822
1053.052, 165.6842
1053.534, 165.2473
1054.017, 164.9564
1054.499, 164.5513
1054.981, 163.6159
1055.463, 162.7476
1055.945, 162.4544
1056.427, 162.5974
1056.909, 162.3413
1057.391, 161.6495
1057.874, 161.0138
1058.356, 160.6516
1058.838, 160.3171
1059.320, 159.6721
1059.802, 158.8800
1060.284, 158.1618
1060.766, 157.6348
1061.248, 157.0077
1061.730, 156.2157
1062.213, 155.4333
1062.695, 154.8315
1063.177, 154.3347
1063.659, 153.5468
1064.141, 152.5632
1064.623, 151.8604
1065.105, 151.9652
1065.587, 152.0668
1066.070, 151.8938
1066.552, 151.4971
1067.034, 150.8710
1067.516, 150.0047
1067.998, 149.2901
1068.480, 148.7743
1068.962, 148.4530
1069.444, 148.5686
1069.927, 148.7019
1070.409, 148.3949
1070.891, 147.6236
1071.373, 147.0597
1071.855, 146.8111
1072.337, 146.5150
1072.819, 146.0217
1073.301, 145.4754
1073.783, 145.2005
1074.266, 145.0504
1074.748, 144.6689
1075.230, 143.7854
1075.712, 143.1677
1076.194, 143.1441
1076.676, 143.2960
1077.158, 143.4206
1077.640, 143.5121
1078.122, 143.5447
1078.604, 143.5094
1079.087, 143.3314
1079.569, 142.8827
1080.051, 142.3692
1080.533, 141.8952
1081.015, 141.4478
1081.497, 140.9482
1081.979, 140.3177
1082.461, 140.1018
1082.944, 140.3963
1083.426, 140.7289
1083.908, 140.6345
1084.390, 140.3300
1084.872, 139.9977
1085.354, 139.6714
1085.836, 139.5418
1086.318, 139.6564
1086.801, 139.9286
1087.283, 140.4051
1087.765, 140.9256
1088.247, 141.2354
1088.729, 141.3460
1089.211, 141.2144
1089.693, 140.7487
1090.175, 140.4844
1090.657, 140.8668
1091.140, 141.2988
1091.622, 141.4148
1092.104, 141.2780
1092.586, 141.4655
1093.068, 141.9456
1093.550, 142.3171
1094.032, 142.2778
1094.514, 142.2584
1094.997, 142.6255
1095.479, 143.1764
1095.961, 143.6632
1096.443, 144.1386
1096.925, 144.3204
1097.407, 144.1874
1097.889, 143.9035
1098.371, 143.4713
1098.854, 143.0503
1099.336, 142.8598
1099.818, 142.8644
1100.300, 142.9147
1100.782, 143.0102
1101.264, 143.1046
1101.746, 143.2267
1102.228, 143.2765
1102.710, 143.0083
1103.193, 142.5853
1103.675, 142.4420
1104.157, 142.6308
1104.639, 142.7978
1105.121, 142.8146
1105.603, 142.7411
1106.085, 142.5638
1106.567, 142.3384
1107.049, 142.2115
1107.531, 142.1873
1108.014, 142.3138
1108.496, 142.6190
1108.978, 143.0223
1109.460, 143.5055
1109.942, 144.0327
1110.424, 144.6104
1110.906, 145.2519
1111.388, 145.5719
1111.871, 145.5427
1112.353, 145.5877
1112.835, 145.9522
1113.317, 146.4523
1113.799, 146.9295
1114.281, 147.3862
1114.763, 147.8341
1115.245, 148.2834
1115.728, 148.6463
1116.210, 148.8297
1116.692, 149.2385
1117.174, 150.5049
1117.656, 152.0769
1118.138, 152.8501
1118.620, 152.9830
1119.102, 153.2296
1119.584, 154.1095
1120.067, 154.7537
1120.549, 155.0407
1121.031, 155.0282
1121.513, 154.6585
1121.995, 154.0547
1122.477, 153.6584
1122.959, 153.5042
1123.441, 153.4104
1123.924, 153.5777
1124.406, 153.4252
1124.888, 152.5567
1125.370, 151.2954
1125.852, 150.6344
1126.334, 150.4982
1126.816, 150.0070
1127.298, 148.9125
1127.781, 147.6826
1128.263, 146.5830
1128.745, 145.5622
1129.227, 144.5813
1129.709, 143.6333
1130.191, 142.7341
1130.673, 141.8740
1131.155, 141.1067
1131.637, 140.4576
1132.120, 139.8869
1132.602, 139.3891
1133.084, 138.9211
1133.566, 138.4192
1134.048, 137.8004
1134.530, 137.3756
1135.012, 137.1530
1135.494, 137.0865
1135.976, 137.3218
1136.458, 137.5754
1136.941, 137.2650
1137.423, 136.6119
1137.905, 136.1561
1138.387, 136.3593
1138.869, 136.2611
1139.351, 135.7168
1139.833, 135.0822
1140.315, 134.6592
1140.798, 134.4314
1141.280, 134.4666
1141.762, 134.7027
1142.244, 134.7689
1142.726, 134.3304
1143.208, 133.9509
1143.690, 133.8120
1144.172, 133.7228
1144.655, 133.2732
1145.137, 132.6098
1145.619, 132.4074
1146.101, 132.7578
1146.583, 132.9018
1147.065, 131.9746
1147.547, 131.2535
1148.029, 131.4805
1148.511, 132.2525
1148.994, 132.4318
1149.476, 132.0616
1149.958, 131.4454
1150.440, 130.5586
1150.922, 129.8971
1151.404, 129.9202
1151.886, 130.2282
1152.368, 130.6265
1152.851, 131.0618
1153.333, 131.0125
1153.815, 130.4736
1154.297, 130.0605
1154.779, 129.9847
1155.261, 130.1519
1155.743, 130.8893
1156.225, 131.5862
1156.708, 131.3479
1157.190, 129.9577
1157.672, 129.2975
1158.154, 129.4403
1158.636, 129.6938
1159.118, 129.7272
1159.600, 129.6180
1160.082, 129.3204
1160.564, 128.9828
1161.047, 128.8771
1161.529, 129.1445
1162.011, 129.4562
1162.493, 129.8983
1162.975, 130.0308
1163.457, 129.1097
1163.939, 127.9518
1164.421, 127.8614
1164.903, 128.5159
1165.385, 128.8969
1165.868, 128.6001
1166.350, 128.3490
1166.832, 128.2167
1167.314, 128.0787
1167.796, 127.6751
1168.278, 127.2402
1168.760, 127.2751
1169.242, 127.7287
1169.725, 128.0994
1170.207, 128.2086
1170.689, 128.2749
1171.171, 128.3564
1171.653, 128.3611
1172.135, 128.0253
1172.617, 127.5488
1173.099, 127.4398
1173.582, 127.7462
1174.064, 127.9529
1174.546, 127.8239
1175.028, 127.6057
1175.510, 127.2904
1175.992, 127.0062
1176.474, 127.1726
1176.956, 127.5746
1177.438, 127.4835
1177.921, 126.6822
1178.403, 126.1375
1178.885, 126.5405
1179.367, 126.9372
1179.849, 126.8625
1180.331, 126.5704
1180.813, 127.0216
1181.295, 127.9660
1181.778, 128.4205
1182.260, 128.0000
1182.742, 127.4930
1183.224, 127.1884
1183.706, 126.9640
1184.188, 126.7308
1184.670, 126.5176
1185.152, 126.5577
1185.635, 126.7954
1186.117, 126.9422
1186.599, 126.8332
1187.081, 126.7274
1187.563, 126.7712
1188.045, 126.8517
1188.527, 126.8911
1189.009, 126.8905
1189.491, 126.8096
1189.974, 126.6773
1190.456, 126.7082
1190.938, 127.1817
1191.420, 127.6094
1191.902, 127.7430
1192.384, 127.7159
1192.866, 127.6288
1193.348, 127.4777
1193.830, 127.5012
1194.313, 127.6817
1194.795, 127.8033
1195.277, 127.7600
1195.759, 127.5961
1196.241, 127.1241
1196.723, 126.6760
1197.205, 126.7803
1197.687, 127.4632
1198.169, 127.6208
1198.652, 127.2222
1199.134, 126.7777
1199.616, 126.5407
1200.098, 126.4641
1200.580, 126.6412
1201.062, 126.9116
1201.544, 126.9751
1202.026, 126.8210
1202.509, 126.9273
1202.991, 127.3372
1203.473, 127.7301
1203.955, 127.9231
1204.437, 127.9734
1204.919, 127.8748
1205.401, 127.6682
1205.883, 127.4028
1206.365, 127.0718
1206.848, 126.8862
1207.330, 126.8808
1207.812, 126.8790
1208.294, 126.5700
1208.776, 126.3782
1209.258, 126.7949
1209.740, 127.5400
1210.222, 127.8087
1210.705, 127.5994
1211.187, 127.3648
1211.669, 127.1743
1212.151, 127.0828
1212.633, 127.2342
1213.115, 127.4171
1213.597, 127.4656
1214.079, 127.4149
1214.562, 127.3779
1215.044, 127.3554
1215.526, 127.3960
1216.008, 127.5362
1216.490, 127.5994
1216.972, 127.3548
1217.454, 127.0558
1217.936, 126.8944
1218.418, 126.8491
1218.901, 126.6732
1219.383, 126.3977
1219.865, 126.9401
1220.347, 128.8575
1220.829, 130.4382
1221.311, 130.1967
1221.793, 129.2664
1222.275, 128.3854
1222.757, 127.6055
1223.240, 127.1981
1223.722, 127.1436
1224.204, 127.1841
1224.686, 127.2577
1225.168, 127.3412
1225.650, 127.5552
1226.132, 127.6426
1226.614, 127.3373
1227.096, 126.7174
1227.579, 126.4905
1228.061, 126.6262
1228.543, 126.8928
1229.025, 127.3357
1229.507, 127.5650
1229.989, 127.0305
1230.471, 126.4744
1230.953, 126.5280
1231.436, 127.1012
1231.918, 127.3327
1232.400, 127.2709
1232.882, 127.2561
1233.364, 127.5158
1233.846, 127.6877
1234.328, 127.4726
1234.810, 127.2151
1235.292, 127.1667
1235.775, 127.3047
1236.257, 127.5225
1236.739, 127.7719
1237.221, 127.7799
1237.703, 127.0598
1238.185, 126.6791
1238.667, 127.5018
1239.149, 128.3526
1239.632, 128.2677
1240.114, 127.4610
1240.596, 127.3100
1241.078, 127.6406
1241.560, 127.7066
1242.042, 126.7487
1242.524, 126.1156
1243.006, 126.2498
1243.489, 126.6376
1243.971, 126.9214
1244.453, 127.1267
1244.935, 127.4304
1245.417, 127.7572
1245.899, 127.8163
1246.381, 127.0594
1246.863, 126.6727
1247.345, 126.9046
1247.828, 127.3535
1248.310, 127.7749
1248.792, 128.1191
1249.274, 128.2159
1249.756, 128.1154
1250.238, 127.9958
1250.720, 127.8991
1251.202, 127.8206
1251.684, 127.7586
1252.167, 127.7153
1252.649, 127.6842
1253.131, 127.6752
1253.613, 127.7841
1254.095, 127.9331
1254.577, 127.8705
1255.059, 127.3271
1255.541, 126.9587
1256.023, 126.8244
1256.506, 126.7806
1256.988, 126.6992
1257.470, 126.6345
1257.952, 126.6138
1258.434, 126.6775
1258.916, 126.9852
1259.398, 127.7578
1259.880, 128.1271
1260.363, 127.9961
1260.845, 127.7582
1261.327, 127.7635
1261.809, 127.8148
1262.291, 127.7232
1262.773, 127.5059
1263.255, 127.1922
1263.737, 126.6959
1264.219, 126.5830
1264.702, 126.9129
1265.184, 127.2910
1265.666, 127.5054
1266.148, 127.5578
1266.630, 127.2732
1267.112, 126.8904
1267.594, 126.9340
1268.076, 127.4458
1268.559, 127.7641
1269.041, 127.8448
1269.523, 127.7205
1270.005, 127.1719
1270.487, 126.6852
1270.969, 126.5828
1271.451, 126.6990
1271.933, 126.8273
1272.416, 126.9745
1272.898, 127.3072
1273.380, 127.8072
1273.862, 128.1556
1274.344, 127.9712
1274.826, 127.8577
1275.308, 128.1396
1275.790, 128.4628
1276.272, 128.3311
1276.755, 127.8625
1277.237, 127.4142
1277.719, 127.0412
1278.201, 126.9102
1278.683, 127.3647
1279.165, 127.6988
1279.647, 127.7872
1280.129, 127.7188
1280.611, 127.4823
1281.094, 127.2108
1281.576, 127.2169
1282.058, 127.4663
1282.540, 127.7209
1283.022, 128.0019
1283.504, 128.1137
1283.986, 128.0182
1284.468, 127.8115
1284.950, 127.4975
1285.433, 127.1943
1285.915, 127.0345
1286.397, 127.0287
1286.879, 127.2213
1287.361, 127.7019
1287.843, 128.0135
1288.325, 128.1207
1288.807, 128.0110
1289.290, 127.3467
1289.772, 126.7629
1290.254, 127.0062
1290.736, 127.7101
1291.218, 127.9484
1291.700, 127.6806
1292.182, 127.4666
1292.664, 127.3432
1293.146, 127.2711
1293.629, 127.1958
1294.111, 127.1931
1294.593, 127.3690
1295.075, 127.6009
1295.557, 127.7172
1296.039, 127.7432
1296.521, 127.9387
1297.003, 128.2838
1297.486, 128.5102
1297.968, 128.4091
1298.450, 128.2798
1298.932, 128.2451
1299.414, 128.1644
1299.896, 127.7259
1300.378, 127.1617
1300.860, 127.2807
1301.343, 127.9292
1301.825, 128.2987
##END=



