##NAMES=Atencioite
##RRUFFID=R060893
##IDEAL CHEMISTRY=Ca_2_Fe^2+^_3_Mg_2_Be_4_(PO_4_)_6_(OH)_4_&#183;6H_2_O
##LOCALITY=Linópolis, Minas Gerais, Brazil
##OWNER=RRUFF
##SOURCE=Michael Scott
##DESCRIPTION=Elongated, spherically radiating gray to pale yellow-green crystals, associated with prismatic orange ushkovite and dark green rockbridgeite.
##STATUS=The identification of this mineral is confirmed by single-crystal X-ray diffraction and chemical analysis.
##URL=rruff.info/R060893
##MEASURED CHEMISTRY=Ca_1.94_(Fe^2+^_2.35_Mg_0.40_Mn_0.20_Al_0.04_)_2.99_Mg_2_Be_4_(PO_4_)_6_(OH)_4_·6H_2_O ; Light phase. The dark phase is Ca_1.95_(Fe^2+^_1.69_Mg_0.97_Mn_0.12_Al_0.09_)_2.87_Mg_2_Be_4_(PO_4_)_6_(OH)_4_·6H_2_O.   The Be content is assumed.
95.41687, 395.2935
95.89898, 392.2394
96.38110, 389.2780
96.86321, 387.1590
97.34533, 385.9431
97.82745, 384.4341
98.30956, 382.2006
98.79168, 379.2121
99.27380, 376.0019
99.75591, 372.2844
100.2380, 368.2707
100.7201, 364.6705
101.2023, 361.8449
101.6844, 359.8000
102.1665, 358.1287
102.6486, 356.9889
103.1307, 356.0433
103.6128, 355.0039
104.0950, 353.8389
104.5771, 352.6191
105.0592, 351.0511
105.5413, 349.3773
106.0234, 348.0469
106.5055, 347.4229
106.9877, 347.3004
107.4698, 346.8406
107.9519, 345.6998
108.4340, 344.5842
108.9161, 343.6526
109.3982, 342.9455
109.8804, 342.5432
110.3625, 342.5840
110.8446, 343.1735
111.3267, 343.6265
111.8088, 344.1082
112.2909, 344.3418
112.7731, 344.0782
113.2552, 343.3390
113.7373, 342.4021
114.2194, 341.6732
114.7015, 341.3001
115.1836, 340.8755
115.6658, 340.6954
116.1479, 340.3401
116.6300, 339.3383
117.1121, 337.5027
117.5942, 335.1159
118.0763, 332.7695
118.5584, 330.2948
119.0406, 328.1413
119.5227, 326.4973
120.0048, 325.2852
120.4869, 324.3268
120.9690, 323.6900
121.4511, 323.1530
121.9333, 322.3090
122.4154, 321.1201
122.8975, 319.6871
123.3796, 318.0196
123.8617, 316.0768
124.3438, 314.1966
124.8260, 312.2486
125.3081, 310.5619
125.7902, 309.6007
126.2723, 309.7492
126.7544, 310.4497
127.2365, 310.4211
127.7187, 309.2569
128.2008, 307.9853
128.6829, 306.7255
129.1650, 305.6023
129.6471, 304.8242
130.1292, 304.5835
130.6114, 304.8258
131.0935, 304.7321
131.5756, 303.9562
132.0577, 303.1584
132.5398, 302.3901
133.0219, 301.7207
133.5041, 301.2463
133.9862, 301.0476
134.4683, 301.1459
134.9504, 301.4701
135.4325, 302.1889
135.9146, 302.9523
136.3968, 303.5092
136.8789, 303.8550
137.3610, 304.2116
137.8431, 304.8207
138.3252, 305.7300
138.8073, 306.7509
139.2895, 307.7241
139.7716, 308.8632
140.2537, 310.6266
140.7358, 313.2685
141.2179, 315.9007
141.7000, 317.2260
142.1821, 317.3843
142.6643, 317.3419
143.1464, 317.6095
143.6285, 318.0196
144.1106, 317.9783
144.5927, 317.3551
145.0748, 316.1621
145.5570, 314.3794
146.0391, 312.0204
146.5212, 309.5789
147.0033, 307.4616
147.4854, 305.6888
147.9675, 304.0132
148.4497, 302.4402
148.9318, 300.9078
149.4139, 299.3480
149.8960, 297.7608
150.3781, 296.2362
150.8602, 294.8980
151.3424, 293.6701
151.8245, 292.8207
152.3066, 292.6792
152.7887, 292.6717
153.2708, 292.2835
153.7529, 291.3350
154.2351, 290.0980
154.7172, 289.2626
155.1993, 289.5545
155.6814, 289.3851
156.1635, 288.2207
156.6456, 286.6934
157.1278, 285.6098
157.6099, 285.3907
158.0920, 285.8008
158.5741, 285.8444
159.0562, 285.5283
159.5383, 284.9092
160.0205, 283.6083
160.5026, 281.9751
160.9847, 280.8717
161.4668, 280.9276
161.9489, 281.8319
162.4310, 282.1146
162.9131, 281.3683
163.3953, 280.4524
163.8774, 279.7479
164.3595, 279.2570
164.8416, 279.0301
165.3237, 279.1751
165.8058, 279.6169
166.2880, 280.1540
166.7701, 280.9303
167.2522, 281.6679
167.7343, 281.9825
168.2164, 281.7864
168.6985, 281.5815
169.1807, 281.6986
169.6628, 281.9726
170.1449, 282.2297
170.6270, 282.4613
171.1091, 282.6023
171.5912, 282.4457
172.0734, 281.7537
172.5555, 281.2056
173.0376, 281.0785
173.5197, 281.2295
174.0018, 281.4626
174.4839, 281.6656
174.9661, 281.8568
175.4482, 282.1571
175.9303, 282.8422
176.4124, 283.3159
176.8945, 283.1701
177.3766, 282.7172
177.8588, 282.4950
178.3409, 282.9059
178.8230, 283.9562
179.3051, 285.1020
179.7872, 286.5836
180.2693, 287.9264
180.7515, 288.9619
181.2336, 289.7279
181.7157, 290.3195
182.1978, 290.7860
182.6799, 291.0864
183.1620, 291.6880
183.6441, 293.1752
184.1263, 294.3860
184.6084, 294.7403
185.0905, 294.2448
185.5726, 293.2030
186.0547, 291.7908
186.5368, 289.9269
187.0190, 288.5501
187.5011, 288.1889
187.9832, 287.9341
188.4653, 287.0762
188.9474, 285.5545
189.4296, 283.8173
189.9117, 282.1758
190.3938, 280.6586
190.8759, 279.5423
191.3580, 279.0794
191.8401, 278.9388
192.3223, 278.7397
192.8044, 278.4185
193.2865, 278.1495
193.7686, 278.0480
194.2507, 278.1094
194.7328, 278.4508
195.2150, 279.2663
195.6971, 280.3614
196.1792, 281.3407
196.6613, 282.1133
197.1434, 282.9014
197.6255, 283.8076
198.1077, 284.8432
198.5898, 286.0556
199.0719, 287.6046
199.5540, 289.3909
200.0361, 290.9225
200.5182, 291.8853
201.0004, 293.0417
201.4825, 295.0341
201.9646, 297.5430
202.4467, 299.7568
202.9288, 301.0424
203.4109, 301.4544
203.8930, 301.8422
204.3752, 302.0701
204.8573, 302.4284
205.3394, 303.2545
205.8215, 304.3246
206.3036, 305.1131
206.7857, 305.0946
207.2679, 304.2129
207.7500, 303.6292
208.2321, 303.6839
208.7142, 303.7423
209.1963, 303.4638
209.6784, 302.9897
210.1606, 302.7196
210.6427, 303.0249
211.1248, 303.9573
211.6069, 304.9949
212.0890, 306.4746
212.5711, 307.7388
213.0533, 308.4776
213.5354, 308.7439
214.0175, 308.8227
214.4996, 309.0069
214.9817, 309.3940
215.4638, 309.1108
215.9460, 307.7451
216.4281, 306.2390
216.9102, 305.1445
217.3923, 304.4010
217.8744, 303.5154
218.3565, 302.0255
218.8387, 299.8441
219.3208, 297.6923
219.8029, 295.4611
220.2850, 293.3310
220.7671, 291.3326
221.2492, 289.4991
221.7314, 288.0029
222.2135, 287.1270
222.6956, 286.9051
223.1777, 286.0612
223.6598, 283.8683
224.1419, 281.5896
224.6240, 280.2899
225.1062, 279.9883
225.5883, 279.8065
226.0704, 278.9050
226.5525, 277.4463
227.0346, 276.6476
227.5167, 277.2707
227.9989, 278.1586
228.4810, 278.2019
228.9631, 277.3324
229.4452, 276.2347
229.9273, 275.1932
230.4094, 274.3174
230.8916, 273.9030
231.3737, 274.5276
231.8558, 275.3480
232.3379, 275.2939
232.8200, 274.2442
233.3021, 273.1661
233.7843, 272.5782
234.2664, 272.3814
234.7485, 272.5194
235.2306, 273.2589
235.7127, 274.0907
236.1948, 274.2660
236.6770, 273.6543
237.1591, 272.9258
237.6412, 272.4070
238.1233, 271.9682
238.6054, 271.4458
239.0875, 270.7331
239.5697, 269.9973
240.0518, 269.5909
240.5339, 269.6826
241.0160, 269.5500
241.4981, 268.6853
241.9802, 267.5654
242.4624, 266.6058
242.9445, 265.9402
243.4266, 265.5205
243.9087, 265.3427
244.3908, 265.5711
244.8729, 265.5808
245.3550, 264.9925
245.8372, 264.2357
246.3193, 263.6635
246.8014, 263.3954
247.2835, 263.3256
247.7656, 263.3327
248.2477, 263.5830
248.7299, 263.4841
249.2120, 262.5202
249.6941, 261.4544
250.1762, 260.9310
250.6583, 261.1358
251.1404, 261.6842
251.6226, 261.9413
252.1047, 261.7950
252.5868, 261.5945
253.0689, 261.2170
253.5510, 260.9062
254.0331, 260.9032
254.5153, 261.2430
254.9974, 261.6881
255.4795, 261.8714
255.9616, 261.6718
256.4437, 261.4565
256.9258, 261.1535
257.4080, 260.8979
257.8901, 260.8660
258.3722, 261.0457
258.8543, 261.1955
259.3364, 260.9970
259.8185, 260.4004
260.3007, 259.5318
260.7828, 257.9954
261.2649, 256.5365
261.7470, 255.7464
262.2291, 255.6042
262.7112, 255.5625
263.1934, 254.9436
263.6755, 253.4482
264.1576, 252.4820
264.6397, 252.3661
265.1218, 252.4001
265.6039, 252.2525
266.0861, 251.8870
266.5682, 251.3523
267.0503, 250.5867
267.5324, 249.3826
268.0145, 249.4697
268.4966, 252.3009
268.9788, 254.8377
269.4609, 255.4194
269.9430, 254.2678
270.4251, 252.6054
270.9072, 251.3593
271.3893, 250.5428
271.8715, 250.0769
272.3536, 250.2147
272.8357, 250.3742
273.3178, 250.3370
273.7999, 250.1196
274.2820, 249.8332
274.7642, 249.5690
275.2463, 249.3042
275.7284, 248.7395
276.2105, 247.6322
276.6926, 246.5616
277.1747, 245.6847
277.6568, 244.9860
278.1389, 244.4187
278.6211, 243.9595
279.1032, 243.6079
279.5853, 243.3765
280.0674, 243.5061
280.5495, 243.4532
281.0316, 243.0082
281.5138, 242.2993
281.9959, 241.5493
282.4780, 240.8552
282.9601, 240.1720
283.4422, 239.3816
283.9243, 238.3718
284.4065, 237.4757
284.8886, 236.7516
285.3707, 236.1846
285.8528, 235.7690
286.3349, 235.5089
286.8170, 235.3638
287.2992, 235.3076
287.7813, 235.4262
288.2634, 235.3440
288.7455, 234.8246
289.2276, 234.1435
289.7097, 233.6220
290.1919, 233.3323
290.6740, 233.2019
291.1561, 233.2095
291.6382, 233.3980
292.1203, 233.3524
292.6024, 232.7319
293.0846, 232.0276
293.5667, 231.8210
294.0488, 232.1750
294.5309, 232.5315
295.0130, 232.3397
295.4951, 231.5826
295.9773, 230.9677
296.4594, 230.5474
296.9415, 230.2556
297.4236, 229.9996
297.9057, 229.7917
298.3878, 229.8064
298.8700, 230.2631
299.3521, 231.0648
299.8342, 231.5605
300.3163, 231.5180
300.7984, 231.3841
301.2805, 231.3616
301.7627, 231.4539
302.2448, 231.6685
302.7269, 232.0336
303.2090, 232.5141
303.6911, 233.0285
304.1732, 233.8341
304.6554, 234.2841
305.1375, 233.7824
305.6196, 232.6852
306.1017, 231.9130
306.5838, 231.8266
307.0659, 232.2029
307.5481, 232.6608
308.0302, 233.2142
308.5123, 233.7720
308.9944, 234.3424
309.4765, 234.8904
309.9586, 235.2883
310.4408, 235.4571
310.9229, 235.6661
311.4050, 236.3518
311.8871, 237.5262
312.3692, 238.6061
312.8513, 239.7167
313.3335, 240.5606
313.8156, 240.6068
314.2977, 239.7483
314.7798, 238.8050
315.2619, 238.5933
315.7440, 239.0617
316.2262, 239.2852
316.7083, 239.0264
317.1904, 238.6105
317.6725, 238.2649
318.1546, 238.0013
318.6367, 237.8251
319.1188, 237.8046
319.6010, 237.8650
320.0831, 237.6857
320.5652, 237.1316
321.0473, 236.4819
321.5294, 235.8449
322.0115, 235.2302
322.4937, 234.6759
322.9758, 234.2348
323.4579, 233.8288
323.9400, 233.2469
324.4221, 232.3599
324.9042, 231.5997
325.3864, 231.2256
325.8685, 231.0668
326.3506, 230.8083
326.8327, 230.3549
327.3148, 229.7589
327.7969, 229.0151
328.2791, 228.0434
328.7612, 227.3740
329.2433, 227.2461
329.7254, 227.4096
330.2075, 227.6084
330.6896, 227.7986
331.1718, 227.9986
331.6539, 228.2976
332.1360, 228.7019
332.6181, 228.7042
333.1002, 227.8232
333.5823, 226.8881
334.0645, 226.5307
334.5466, 226.7344
335.0287, 227.0948
335.5108, 227.3641
335.9929, 227.5483
336.4750, 227.7108
336.9572, 227.7210
337.4393, 227.8456
337.9214, 228.3710
338.4035, 229.1030
338.8856, 229.5469
339.3677, 229.4414
339.8499, 228.9843
340.3320, 228.6983
340.8141, 228.6082
341.2962, 228.6076
341.7783, 228.7412
342.2604, 228.9305
342.7426, 229.1033
343.2247, 229.2390
343.7068, 229.2792
344.1889, 229.1093
344.6710, 228.5758
345.1531, 228.3097
345.6353, 228.5542
346.1174, 228.9044
346.5995, 229.1601
347.0816, 229.2535
347.5637, 229.0228
348.0458, 228.2432
348.5280, 226.8681
349.0101, 225.9985
349.4922, 225.8850
349.9743, 225.9299
350.4564, 225.9241
350.9385, 225.8798
351.4207, 225.8999
351.9028, 226.0645
352.3849, 226.2945
352.8670, 226.2382
353.3491, 225.7683
353.8312, 225.1745
354.3134, 224.2020
354.7955, 223.2374
355.2776, 222.8108
355.7597, 223.0939
356.2418, 223.6951
356.7239, 223.9492
357.2061, 223.6346
357.6882, 223.4005
358.1703, 223.1880
358.6524, 223.0883
359.1345, 223.2771
359.6166, 223.6958
360.0987, 224.0207
360.5808, 223.8909
361.0630, 223.2202
361.5451, 222.9288
362.0272, 223.4241
362.5093, 223.8485
362.9914, 223.9271
363.4735, 223.7228
363.9557, 223.3418
364.4378, 222.8190
364.9199, 222.2589
365.4020, 222.1240
365.8841, 222.8245
366.3662, 223.4097
366.8484, 223.6880
367.3305, 223.8448
367.8126, 224.0208
368.2947, 224.2722
368.7768, 224.6447
369.2589, 225.2510
369.7411, 226.2261
370.2232, 227.0643
370.7053, 227.7525
371.1874, 228.3093
371.6695, 228.7186
372.1516, 228.9961
372.6338, 229.1846
373.1159, 229.2251
373.5980, 229.1343
374.0801, 229.5313
374.5622, 230.6366
375.0443, 232.0130
375.5265, 233.8643
376.0086, 235.7982
376.4907, 237.1247
376.9728, 237.3887
377.4549, 237.1662
377.9370, 237.7732
378.4192, 239.4513
378.9013, 241.2866
379.3834, 243.2494
379.8655, 245.1384
380.3476, 246.7490
380.8297, 248.0444
381.3119, 249.2532
381.7940, 250.6934
382.2761, 252.3571
382.7582, 253.6121
383.2403, 254.0808
383.7224, 254.4660
384.2046, 255.4561
384.6867, 256.8257
385.1688, 257.7763
385.6509, 257.6706
386.1330, 256.8759
386.6151, 256.2610
387.0973, 255.9292
387.5794, 255.4068
388.0615, 254.3301
388.5436, 252.9034
389.0257, 251.3817
389.5078, 249.8087
389.9900, 248.1524
390.4721, 246.2758
390.9542, 244.2226
391.4363, 242.4164
391.9184, 241.0510
392.4005, 239.9316
392.8827, 238.8161
393.3648, 237.7152
393.8469, 236.5316
394.3290, 235.0408
394.8111, 233.5078
395.2932, 232.4210
395.7754, 231.8684
396.2575, 231.4797
396.7396, 230.9520
397.2217, 230.2958
397.7038, 229.6635
398.1859, 228.7602
398.6681, 228.1413
399.1501, 228.2784
399.6323, 229.0362
400.1144, 229.9431
400.5965, 230.7990
401.0786, 231.5928
401.5607, 232.2622
402.0428, 232.6879
402.5250, 233.2152
403.0071, 233.6943
403.4892, 234.4005
403.9713, 235.7305
404.4534, 237.7455
404.9355, 240.1172
405.4177, 242.5605
405.8998, 245.2220
406.3819, 247.0132
406.8640, 247.2285
407.3461, 247.3580
407.8282, 248.1514
408.3104, 249.4751
408.7925, 250.8616
409.2746, 252.0440
409.7567, 253.0361
410.2388, 253.9348
410.7209, 255.1261
411.2031, 255.6667
411.6852, 254.9139
412.1673, 253.7998
412.6494, 253.2805
413.1315, 253.5699
413.6136, 254.0908
414.0958, 253.9793
414.5779, 252.9246
415.0600, 252.4913
415.5421, 253.3389
416.0242, 254.2130
416.5063, 254.6688
416.9885, 254.7586
417.4706, 254.7116
417.9527, 254.6852
418.4348, 254.6226
418.9169, 254.3469
419.3990, 253.9133
419.8812, 253.1304
420.3633, 251.7622
420.8454, 250.1429
421.3275, 248.6741
421.8096, 247.4687
422.2917, 245.9982
422.7739, 243.5445
423.2560, 240.1648
423.7381, 236.9353
424.2202, 233.7893
424.7023, 231.1773
425.1844, 229.5599
425.6666, 228.7281
426.1487, 227.9255
426.6308, 226.7879
427.1129, 225.5175
427.5950, 224.2761
428.0771, 223.0293
428.5593, 222.3497
429.0414, 222.8389
429.5235, 223.9704
430.0056, 224.4856
430.4877, 224.0761
430.9698, 223.7493
431.4520, 224.0261
431.9341, 224.7330
432.4162, 225.5354
432.8983, 226.3475
433.3804, 227.2532
433.8625, 228.4063
434.3447, 229.8584
434.8268, 231.0804
435.3089, 231.6350
435.7910, 232.3111
436.2731, 233.7065
436.7552, 235.6962
437.2374, 237.8201
437.7195, 239.8457
438.2016, 241.7324
438.6837, 243.2862
439.1658, 244.1686
439.6479, 245.1506
440.1301, 246.5334
440.6122, 247.8934
441.0943, 248.9174
441.5764, 249.4951
442.0585, 249.5567
442.5406, 248.9754
443.0227, 247.6776
443.5049, 246.2722
443.9870, 244.7245
444.4691, 243.1082
444.9512, 241.4607
445.4333, 239.7664
445.9154, 237.9704
446.3976, 236.0542
446.8797, 234.0446
447.3618, 231.9325
447.8439, 229.5589
448.3260, 227.5638
448.8081, 226.3230
449.2903, 225.3014
449.7724, 224.2444
450.2545, 223.1047
450.7366, 221.8567
451.2187, 220.3118
451.7008, 218.6078
452.1830, 217.4471
452.6651, 217.0392
453.1472, 216.6926
453.6293, 215.8847
454.1114, 214.9083
454.5935, 214.2137
455.0757, 214.0219
455.5578, 213.8869
456.0399, 213.4177
456.5220, 212.6816
457.0041, 211.9213
457.4862, 211.1347
457.9684, 210.4997
458.4505, 210.4594
458.9326, 211.0285
459.4147, 211.0730
459.8968, 209.7324
460.3789, 208.2624
460.8611, 207.8841
461.3432, 208.4934
461.8253, 209.1471
462.3074, 209.2763
462.7895, 209.0030
463.2716, 208.8309
463.7538, 208.9243
464.2359, 208.8989
464.7180, 208.5407
465.2001, 208.1343
465.6822, 208.0000
466.1643, 208.1825
466.6465, 208.4686
467.1286, 208.6221
467.6107, 208.6222
468.0928, 208.6905
468.5749, 208.9042
469.0570, 209.1017
469.5392, 209.2852
470.0213, 209.4111
470.5034, 209.3900
470.9855, 209.1763
471.4676, 208.9010
471.9497, 208.8766
472.4319, 209.2477
472.9140, 209.2322
473.3961, 208.3389
473.8782, 207.3439
474.3603, 206.7307
474.8424, 206.4333
475.3246, 206.0504
475.8067, 205.0782
476.2888, 203.9595
476.7709, 203.8344
477.2530, 204.8877
477.7351, 205.7719
478.2173, 205.7621
478.6994, 205.2510
479.1815, 204.8336
479.6636, 204.4968
480.1457, 204.3865
480.6278, 204.7959
481.1100, 205.4260
481.5920, 205.6728
482.0742, 205.4162
482.5563, 205.1129
483.0384, 205.2491
483.5205, 205.7971
484.0026, 205.8044
484.4847, 204.5265
484.9669, 203.5459
485.4490, 203.8040
485.9311, 204.7321
486.4132, 205.2845
486.8953, 205.0740
487.3774, 204.5357
487.8596, 204.3903
488.3417, 204.8104
488.8238, 205.1589
489.3059, 205.5239
489.7880, 205.7485
490.2701, 205.6180
490.7523, 205.2892
491.2344, 205.1161
491.7165, 205.3299
492.1986, 205.7894
492.6807, 206.1311
493.1628, 206.3781
493.6450, 206.4424
494.1271, 206.0461
494.6092, 205.6473
495.0913, 205.6333
495.5734, 205.9821
496.0555, 206.2642
496.5377, 206.0288
497.0198, 205.5127
497.5019, 205.4219
497.9840, 205.8567
498.4661, 206.2992
498.9482, 206.3828
499.4304, 206.3311
499.9125, 206.5882
500.3946, 207.2968
500.8767, 208.0199
501.3588, 208.5039
501.8409, 208.8698
502.3231, 209.4098
502.8052, 210.1863
503.2873, 210.8444
503.7694, 211.0057
504.2515, 210.6484
504.7336, 210.4575
505.2158, 210.5849
505.6979, 210.6891
506.1800, 210.7529
506.6621, 210.6839
507.1442, 210.2720
507.6263, 209.4590
508.1085, 208.5409
508.5906, 207.9820
509.0727, 207.8687
509.5548, 207.7986
510.0369, 208.1138
510.5190, 208.1264
511.0012, 207.3579
511.4833, 206.1188
511.9654, 205.0004
512.4475, 204.2969
512.9296, 203.8482
513.4117, 203.4032
513.8939, 202.9707
514.3760, 202.4572
514.8581, 201.7802
515.3402, 201.0736
515.8223, 200.3382
516.3044, 199.6239
516.7866, 199.2386
517.2687, 199.6154
517.7508, 200.2160
518.2329, 200.2879
518.7150, 199.8613
519.1971, 199.4829
519.6793, 199.4048
520.1614, 199.5350
520.6435, 199.6970
521.1256, 199.9337
521.6077, 200.0761
522.0898, 199.8834
522.5720, 199.7313
523.0541, 200.0370
523.5362, 200.7484
524.0183, 201.4636
524.5004, 201.8887
524.9825, 202.0790
525.4647, 202.3378
525.9468, 202.8692
526.4289, 203.1623
526.9110, 202.8769
527.3931, 202.5555
527.8752, 202.7847
528.3574, 203.5320
528.8395, 204.1548
529.3216, 204.0143
529.8037, 203.2473
530.2858, 202.6993
530.7679, 202.4714
531.2501, 202.2322
531.7322, 201.9544
532.2143, 201.5362
532.6964, 200.7573
533.1785, 199.5176
533.6606, 198.3987
534.1428, 197.8701
534.6249, 197.7127
535.1070, 197.4707
535.5891, 197.0860
536.0712, 196.6111
536.5533, 196.0307
537.0355, 195.3911
537.5176, 194.9704
537.9997, 194.9665
538.4818, 194.9167
538.9639, 194.5514
539.4460, 194.1316
539.9282, 194.0520
540.4103, 194.3595
540.8924, 194.7058
541.3745, 194.7216
541.8566, 194.3977
542.3387, 194.0640
542.8209, 193.4250
543.3029, 193.1515
543.7850, 193.8772
544.2672, 194.7961
544.7493, 194.8254
545.2314, 193.7243
545.7135, 192.5306
546.1956, 192.5258
546.6777, 193.5903
547.1599, 194.2834
547.6420, 194.4184
548.1241, 194.4167
548.6062, 194.5284
549.0883, 194.6779
549.5704, 194.7404
550.0526, 194.6885
550.5347, 194.5630
551.0168, 194.2415
551.4989, 193.8908
551.9810, 193.9003
552.4631, 194.3566
552.9453, 194.9746
553.4274, 195.5043
553.9095, 195.9463
554.3916, 196.3872
554.8737, 196.7185
555.3558, 197.1754
555.8380, 198.0556
556.3201, 198.9944
556.8022, 199.4362
557.2843, 199.2907
557.7664, 199.0527
558.2485, 199.2726
558.7307, 199.9561
559.2128, 200.9010
559.6949, 202.4872
560.1770, 203.7650
560.6591, 204.2543
561.1412, 204.3737
561.6234, 204.6685
562.1055, 205.2966
562.5876, 205.8565
563.0697, 205.9329
563.5518, 205.6550
564.0339, 205.5292
564.5161, 205.6874
564.9982, 205.5884
565.4803, 204.6432
565.9624, 203.1169
566.4445, 202.2083
566.9266, 202.3661
567.4088, 202.4963
567.8909, 202.1442
568.3730, 201.5979
568.8551, 201.2503
569.3372, 201.1516
569.8193, 201.0247
570.3015, 200.5829
570.7836, 199.8543
571.2657, 199.4317
571.7478, 199.7293
572.2299, 199.7733
572.7120, 199.2311
573.1942, 198.4938
573.6763, 197.8737
574.1584, 197.4405
574.6405, 197.1656
575.1226, 196.9756
575.6047, 196.9158
576.0869, 197.3281
576.5690, 198.4166
577.0511, 199.0878
577.5332, 198.4541
578.0153, 197.3008
578.4974, 196.9285
578.9796, 197.5101
579.4617, 198.1835
579.9438, 198.7975
580.4259, 199.2317
580.9080, 199.2719
581.3901, 198.9571
581.8723, 198.5777
582.3544, 198.3002
582.8365, 198.1274
583.3186, 198.0701
583.8007, 198.2587
584.2828, 198.3681
584.7650, 198.5053
585.2471, 198.4758
585.7292, 198.1022
586.2113, 197.4406
586.6934, 196.6728
587.1755, 195.8848
587.6577, 195.1151
588.1398, 194.4440
588.6219, 193.8627
589.1040, 193.4510
589.5861, 193.3543
590.0682, 193.2935
590.5504, 192.9704
591.0325, 192.4304
591.5146, 191.9741
591.9967, 191.6927
592.4788, 191.5315
592.9609, 191.4926
593.4431, 191.5413
593.9252, 191.5675
594.4073, 191.5272
594.8894, 191.4972
595.3715, 191.5894
595.8536, 191.8308
596.3358, 192.0784
596.8179, 192.4416
597.3000, 192.6902
597.7821, 192.5749
598.2642, 192.3562
598.7463, 192.4064
599.2285, 192.8509
599.7106, 193.5074
600.1927, 194.2097
600.6748, 194.9554
601.1569, 195.6159
601.6390, 196.1809
602.1212, 196.6652
602.6033, 197.1259
603.0854, 197.4909
603.5675, 197.5816
604.0496, 197.2612
604.5317, 197.0148
605.0139, 196.9885
605.4960, 197.2298
605.9781, 198.0435
606.4602, 199.3599
606.9423, 200.3370
607.4244, 200.3175
607.9066, 199.5241
608.3887, 198.9583
608.8708, 198.8326
609.3529, 198.6453
609.8350, 198.4701
610.3171, 198.1571
610.7993, 197.6521
611.2814, 196.9177
611.7635, 195.8458
612.2456, 194.2569
612.7277, 192.4706
613.2098, 191.0654
613.6920, 190.0221
614.1741, 189.5813
614.6562, 190.1464
615.1383, 190.8772
615.6204, 190.9268
616.1025, 190.3885
616.5847, 189.7389
617.0668, 188.8289
617.5489, 188.0785
618.0310, 187.7283
618.5131, 187.7397
618.9952, 188.1228
619.4774, 188.8628
619.9595, 189.6391
620.4416, 190.0576
620.9237, 190.0902
621.4058, 190.2188
621.8879, 190.4935
622.3701, 190.8114
622.8522, 191.1376
623.3343, 191.5035
623.8164, 191.8595
624.2985, 192.2251
624.7806, 192.8725
625.2628, 194.1699
625.7448, 195.8942
626.2269, 197.4254
626.7090, 198.7349
627.1912, 200.0658
627.6733, 201.4934
628.1554, 203.0477
628.6375, 204.8394
629.1196, 206.8931
629.6017, 208.9719
630.0839, 210.8492
630.5660, 212.9171
631.0481, 215.6087
631.5302, 218.7101
632.0123, 221.7063
632.4944, 224.3477
632.9766, 226.8306
633.4587, 229.5600
633.9408, 232.7028
634.4229, 235.2921
634.9050, 237.2303
635.3871, 238.6699
635.8693, 239.7099
636.3514, 240.3416
636.8335, 240.6122
637.3156, 240.6021
637.7977, 239.9067
638.2798, 237.9739
638.7620, 235.2479
639.2441, 232.5731
639.7262, 230.0442
640.2083, 227.1108
640.6904, 223.2709
641.1725, 218.9310
641.6547, 215.4209
642.1368, 213.3046
642.6189, 211.2560
643.1010, 209.4812
643.5831, 207.5955
644.0652, 205.1484
644.5474, 202.3851
645.0295, 199.9283
645.5116, 198.1321
645.9937, 196.7126
646.4758, 195.2581
646.9579, 193.7691
647.4401, 192.2581
647.9222, 190.6407
648.4043, 189.2009
648.8864, 188.3049
649.3685, 187.7679
649.8506, 187.0178
650.3328, 185.7065
650.8149, 184.6536
651.2970, 184.5005
651.7791, 184.6084
652.2612, 184.1632
652.7433, 183.1267
653.2255, 181.9868
653.7076, 181.0761
654.1897, 180.4043
654.6718, 180.0479
655.1539, 180.1922
655.6360, 180.2016
656.1182, 179.8401
656.6003, 179.4460
657.0824, 179.1394
657.5645, 178.9487
658.0466, 178.9549
658.5287, 179.3565
659.0109, 179.6929
659.4930, 179.4346
659.9751, 178.7651
660.4572, 178.1540
660.9393, 177.6998
661.4214, 177.4393
661.9036, 177.4646
662.3857, 177.7263
662.8678, 177.6865
663.3499, 176.8139
663.8320, 176.3501
664.3141, 176.8387
664.7963, 177.4410
665.2784, 177.4726
665.7605, 176.9695
666.2426, 176.3581
666.7247, 175.8182
667.2068, 175.4575
667.6890, 175.6275
668.1711, 176.3038
668.6532, 176.5833
669.1353, 176.1748
669.6174, 175.5329
670.0995, 174.9748
670.5817, 174.5302
671.0638, 174.3952
671.5459, 174.9487
672.0280, 175.3474
672.5101, 175.2023
672.9922, 174.8381
673.4744, 174.5613
673.9565, 174.4360
674.4386, 174.4410
674.9207, 174.5926
675.4028, 174.8073
675.8849, 174.7752
676.3671, 174.4162
676.8492, 174.1662
677.3313, 174.1407
677.8134, 174.2163
678.2955, 174.3342
678.7776, 174.4725
679.2598, 174.5464
679.7419, 174.4741
680.2240, 174.4139
680.7061, 174.5543
681.1882, 174.7314
681.6703, 174.6227
682.1525, 174.2099
682.6346, 173.8110
683.1167, 173.6849
683.5988, 173.7923
684.0809, 173.9448
684.5630, 174.1640
685.0452, 174.3808
685.5273, 174.5933
686.0094, 174.7923
686.4915, 175.0092
686.9736, 175.2085
687.4557, 175.2866
687.9379, 175.1633
688.4200, 174.9768
688.9021, 174.7908
689.3842, 174.6432
689.8663, 174.7042
690.3484, 174.9937
690.8306, 175.1431
691.3127, 174.8283
691.7948, 174.1608
692.2769, 173.6993
692.7590, 173.6066
693.2411, 173.4670
693.7233, 173.0330
694.2054, 172.7597
694.6875, 173.1369
695.1696, 173.8941
695.6517, 174.3084
696.1339, 174.0016
696.6160, 173.4454
697.0981, 173.0556
697.5802, 172.8472
698.0623, 172.9144
698.5444, 173.2856
699.0266, 173.7382
699.5087, 174.1620
699.9908, 174.5177
700.4729, 174.6469
700.9550, 174.3067
701.4371, 174.1053
701.9193, 174.2411
702.4014, 174.3388
702.8835, 174.1241
703.3656, 173.6969
703.8477, 173.2293
704.3298, 172.7670
704.8120, 172.5688
705.2941, 173.1702
705.7762, 174.3676
706.2583, 175.1631
706.7404, 175.4422
707.2225, 175.4460
707.7046, 175.2208
708.1867, 174.8823
708.6688, 174.7069
709.1509, 174.6409
709.6331, 174.8599
710.1152, 175.8469
710.5973, 176.6628
711.0794, 176.5965
711.5615, 176.0010
712.0436, 175.4861
712.5258, 175.2790
713.0079, 175.3691
713.4900, 175.9267
713.9721, 176.8157
714.4542, 177.1955
714.9363, 176.9382
715.4185, 176.8687
715.9006, 177.5727
716.3827, 178.4527
716.8648, 178.3714
717.3469, 177.1289
717.8290, 176.2505
718.3112, 175.9314
718.7933, 175.9323
719.2754, 176.4857
719.7575, 177.1369
720.2396, 177.1357
720.7217, 176.3601
721.2039, 175.5425
721.6860, 175.4587
722.1681, 175.8987
722.6502, 175.9826
723.1323, 175.6482
723.6144, 175.5264
724.0966, 176.0049
724.5787, 176.4940
725.0608, 176.2102
725.5429, 175.1698
726.0250, 174.3300
726.5071, 173.6722
726.9893, 173.3031
727.4714, 173.4846
727.9535, 173.8427
728.4356, 173.9595
728.9177, 173.7948
729.3998, 173.5690
729.8820, 173.4510
730.3641, 173.3621
730.8462, 173.0714
731.3283, 172.5670
731.8104, 172.2077
732.2925, 172.0819
732.7747, 172.0666
733.2568, 172.0756
733.7389, 172.1129
734.2210, 172.1999
734.7031, 172.4807
735.1852, 172.5853
735.6674, 172.2100
736.1495, 171.8119
736.6316, 171.7496
737.1137, 172.0021
737.5958, 172.4609
738.0779, 173.1045
738.5601, 173.6496
739.0422, 173.6106
739.5243, 173.0474
740.0064, 172.5146
740.4885, 172.0549
740.9706, 171.6435
741.4528, 171.2940
741.9349, 170.9686
742.4170, 170.5354
742.8991, 169.8598
743.3812, 169.5418
743.8633, 170.0023
744.3455, 170.4460
744.8276, 170.4397
745.3097, 170.1465
745.7918, 169.8294
746.2739, 169.5723
746.7560, 169.3345
747.2382, 168.9437
747.7203, 168.5654
748.2024, 168.8745
748.6845, 169.8951
749.1666, 170.6252
749.6487, 170.7116
750.1309, 170.4221
750.6130, 169.9839
751.0951, 169.3789
751.5772, 169.0276
752.0593, 169.1800
752.5414, 169.2362
753.0236, 168.9318
753.5057, 168.5678
753.9878, 168.4778
754.4699, 168.6116
754.9520, 168.6055
755.4341, 168.1564
755.9163, 167.6740
756.3984, 167.7769
756.8805, 168.3562
757.3626, 169.0544
757.8447, 169.8458
758.3268, 170.2310
758.8090, 169.7376
759.2911, 168.6891
759.7732, 168.1751
760.2553, 168.5721
760.7374, 168.8321
761.2195, 168.9457
761.7017, 168.9483
762.1838, 168.7807
762.6659, 168.5433
763.1480, 168.3260
763.6301, 168.1447
764.1122, 168.2261
764.5944, 169.0780
765.0765, 170.1213
765.5586, 170.2827
766.0407, 169.6985
766.5228, 169.3468
767.0049, 169.6144
767.4871, 170.0994
767.9692, 170.2922
768.4513, 170.1852
768.9334, 169.9216
769.4155, 169.2544
769.8976, 168.8308
770.3798, 168.8599
770.8619, 169.1167
771.3440, 169.6152
771.8261, 170.2350
772.3082, 170.4745
772.7903, 170.0056
773.2725, 169.3135
773.7546, 168.4379
774.2367, 167.6890
774.7188, 167.7181
775.2009, 168.4783
775.6830, 169.2120
776.1652, 169.4181
776.6473, 169.3011
777.1294, 169.3839
777.6115, 169.7414
778.0936, 169.7672
778.5757, 169.2155
779.0579, 168.7148
779.5400, 168.6960
780.0221, 168.9040
780.5042, 168.8876
780.9863, 168.5667
781.4684, 168.3589
781.9506, 168.5578
782.4327, 168.7070
782.9148, 168.4802
783.3969, 168.0111
783.8790, 167.4462
784.3611, 166.8747
784.8433, 166.5379
785.3254, 166.7110
785.8075, 167.2551
786.2896, 167.8469
786.7717, 168.4890
787.2538, 168.7844
787.7360, 168.5389
788.2181, 168.2133
788.7002, 168.2559
789.1823, 168.6087
789.6644, 168.7758
790.1465, 168.5423
790.6286, 168.4425
791.1107, 168.7073
791.5928, 168.9404
792.0750, 168.7377
792.5571, 168.3314
793.0392, 168.2953
793.5213, 168.8795
794.0034, 169.4671
794.4855, 169.5249
794.9677, 169.2147
795.4498, 168.6706
795.9319, 167.9849
796.4140, 167.7009
796.8961, 168.0644
797.3782, 168.6843
797.8604, 169.0460
798.3425, 169.1457
798.8246, 169.0460
799.3067, 168.4745
799.7888, 168.1931
800.2709, 168.7104
800.7531, 169.3334
801.2352, 169.5231
801.7173, 169.3447
802.1994, 169.2017
802.6815, 169.2732
803.1636, 169.2941
803.6458, 168.8761
804.1279, 168.4915
804.6100, 168.9118
805.0921, 169.9448
805.5742, 170.6634
806.0563, 170.5470
806.5385, 170.0957
807.0206, 170.1366
807.5027, 170.6251
807.9848, 170.9516
808.4669, 171.1001
808.9490, 171.0128
809.4312, 170.5254
809.9133, 169.9802
810.3954, 169.9534
810.8775, 170.5735
811.3596, 170.8614
811.8417, 170.5544
812.3239, 170.2555
812.8060, 170.1786
813.2881, 170.1466
813.7702, 169.9480
814.2523, 169.6171
814.7344, 169.3796
815.2166, 169.3575
815.6987, 169.4504
816.1808, 169.5958
816.6629, 169.7669
817.1450, 169.9875
817.6271, 170.2185
818.1093, 170.0724
818.5914, 169.2682
819.0735, 168.3154
819.5556, 168.2780
820.0377, 169.3447
820.5198, 170.1480
821.0020, 170.7061
821.4841, 170.9703
821.9662, 170.8033
822.4483, 170.4077
822.9304, 169.9624
823.4125, 169.4747
823.8947, 169.0555
824.3768, 168.7541
824.8589, 168.4979
825.3410, 168.1796
825.8231, 167.9405
826.3052, 168.0384
826.7874, 168.3899
827.2695, 168.6239
827.7516, 168.5284
828.2337, 168.2514
828.7158, 167.9646
829.1979, 167.6736
829.6801, 167.3675
830.1622, 167.0458
830.6443, 166.8784
831.1264, 166.9768
831.6085, 167.1966
832.0906, 167.3027
832.5728, 167.2776
833.0549, 167.2555
833.5370, 167.2380
834.0191, 167.2191
834.5012, 167.2177
834.9833, 167.1976
835.4655, 167.0628
835.9476, 166.8653
836.4297, 166.8659
836.9118, 167.4038
837.3939, 167.7419
837.8760, 167.2285
838.3582, 166.4676
838.8403, 166.1848
839.3224, 166.3306
839.8045, 166.4814
840.2866, 166.4385
840.7687, 166.3075
841.2509, 166.3049
841.7330, 166.3613
842.2151, 166.0236
842.6972, 165.2669
843.1793, 164.3670
843.6614, 163.2898
844.1436, 162.5141
844.6257, 162.7257
845.1078, 163.8901
845.5899, 164.5271
846.0720, 164.3062
846.5541, 164.0205
847.0363, 163.5404
847.5184, 163.2034
848.0005, 163.4316
848.4826, 163.9260
848.9647, 163.9505
849.4468, 163.1946
849.9290, 162.5239
850.4111, 162.5385
850.8932, 162.7591
851.3753, 162.7635
851.8574, 162.5564
852.3395, 162.1480
852.8217, 161.5827
853.3038, 161.1366
853.7859, 161.1288
854.2680, 161.4147
854.7501, 161.5950
855.2322, 161.6708
855.7144, 161.4392
856.1965, 160.7698
856.6786, 160.2020
857.1607, 160.2061
857.6428, 160.5695
858.1249, 160.5972
858.6071, 160.0579
859.0892, 159.6811
859.5713, 159.4887
860.0534, 159.4259
860.5355, 159.5732
861.0176, 159.7821
861.4998, 159.8509
861.9819, 159.7670
862.4640, 159.7479
862.9461, 159.9289
863.4282, 160.1518
863.9103, 160.4359
864.3925, 160.6271
864.8746, 160.3626
865.3567, 159.7437
865.8388, 159.3879
866.3209, 159.6879
866.8030, 160.1530
867.2852, 159.9405
867.7673, 159.2015
868.2494, 158.7136
868.7315, 158.5239
869.2136, 158.5922
869.6957, 158.9690
870.1779, 159.3629
870.6600, 159.3652
871.1421, 158.9720
871.6242, 158.6569
872.1063, 158.4470
872.5884, 158.2663
873.0705, 157.9905
873.5526, 157.8484
874.0347, 158.1358
874.5168, 158.6444
874.9990, 158.8431
875.4811, 158.5340
875.9632, 158.2578
876.4453, 158.3203
876.9274, 158.3702
877.4095, 158.0319
877.8917, 157.5404
878.3738, 157.3611
878.8559, 157.5646
879.3380, 157.7561
879.8201, 157.5755
880.3022, 157.2700
880.7844, 157.2714
881.2665, 157.5013
881.7486, 157.6972
882.2307, 157.8122
882.7128, 157.8320
883.1949, 157.7462
883.6771, 157.5621
884.1592, 157.2441
884.6413, 156.7314
885.1234, 156.5716
885.6055, 156.9434
886.0876, 157.2159
886.5698, 157.0759
887.0519, 156.8394
887.5340, 156.8786
888.0161, 157.1733
888.4982, 157.4072
888.9803, 157.6271
889.4625, 157.7069
889.9446, 157.6170
890.4267, 157.3889
890.9088, 156.8774
891.3909, 156.2922
891.8730, 156.0178
892.3552, 156.1613
892.8373, 156.5232
893.3194, 157.2735
893.8015, 157.9317
894.2836, 157.8493
894.7657, 157.3123
895.2479, 156.8819
895.7300, 156.7019
896.2121, 156.7304
896.6942, 156.9736
897.1763, 157.2769
897.6584, 157.2807
898.1406, 157.0226
898.6227, 156.9187
899.1048, 157.0236
899.5869, 156.9987
900.0690, 156.5823
900.5511, 156.2736
901.0333, 156.9799
901.5154, 158.7997
901.9975, 159.3281
902.4796, 157.6230
902.9617, 156.3793
903.4438, 156.3494
903.9260, 156.6876
904.4081, 156.8882
904.8902, 157.0025
905.3723, 157.1734
905.8544, 157.4367
906.3365, 157.6965
906.8187, 158.0956
907.3008, 158.3078
907.7829, 157.9121
908.2650, 157.3223
908.7471, 157.1455
909.2292, 157.4348
909.7114, 157.7447
910.1935, 157.8344
910.6756, 157.7988
911.1577, 157.5250
911.6398, 157.2818
912.1219, 157.8280
912.6041, 158.9834
913.0862, 159.6233
913.5683, 159.2149
914.0504, 158.3120
914.5325, 157.4952
915.0146, 156.8314
915.4968, 156.7979
915.9789, 157.4233
916.4610, 157.8951
916.9431, 158.0189
917.4252, 157.8801
917.9073, 157.4312
918.3895, 156.8774
918.8716, 157.0446
919.3537, 158.5235
919.8358, 159.2008
920.3179, 158.6449
920.8000, 157.8926
921.2822, 157.0033
921.7643, 156.3433
922.2464, 156.4751
922.7285, 157.3605
923.2106, 158.0272
923.6927, 158.2821
924.1749, 158.3818
924.6570, 158.3027
925.1391, 158.1777
925.6212, 158.0493
926.1033, 157.9741
926.5854, 158.0850
927.0676, 158.4283
927.5497, 158.7085
928.0318, 158.6544
928.5139, 158.5127
928.9960, 158.5161
929.4781, 158.6273
929.9603, 158.7380
930.4424, 158.8498
930.9245, 159.0845
931.4066, 159.5302
931.8887, 160.0756
932.3708, 160.6245
932.8530, 161.1227
933.3351, 161.2813
933.8172, 161.1055
934.2993, 160.9090
934.7814, 160.7872
935.2635, 160.9206
935.7457, 161.5887
936.2278, 162.6335
936.7099, 163.0597
937.1920, 162.6762
937.6741, 162.5166
938.1563, 162.7742
938.6384, 163.0879
939.1205, 163.2130
939.6026, 163.3145
940.0847, 163.7187
940.5668, 164.4980
941.0490, 165.1485
941.5311, 165.7318
942.0132, 166.1127
942.4953, 165.8748
942.9774, 165.7801
943.4595, 166.5228
943.9417, 167.8414
944.4238, 169.0041
944.9059, 169.8377
945.3880, 170.6452
945.8701, 171.3179
946.3522, 172.2344
946.8344, 174.1591
947.3165, 176.1873
947.7986, 176.7820
948.2807, 176.0685
948.7628, 175.8081
949.2449, 177.0380
949.7271, 178.7920
950.2092, 180.3831
950.6913, 181.7709
951.1734, 182.7387
951.6555, 183.4553
952.1376, 184.5426
952.6198, 186.1746
953.1019, 187.7664
953.5840, 188.6979
954.0661, 189.2775
954.5482, 190.4446
955.0303, 192.0278
955.5124, 192.7103
955.9945, 192.3142
956.4766, 192.1355
956.9587, 192.9102
957.4409, 194.0616
957.9230, 194.6847
958.4051, 194.7890
958.8872, 194.7304
959.3693, 194.5126
959.8514, 194.0784
960.3336, 193.3059
960.8157, 192.5775
961.2978, 192.2545
961.7799, 192.1481
962.2620, 191.7056
962.7441, 190.7566
963.2263, 189.9948
963.7084, 189.1967
964.1905, 188.9029
964.6726, 189.5714
965.1547, 190.5296
965.6368, 191.1912
966.1190, 191.6305
966.6011, 192.2507
967.0832, 193.1407
967.5653, 194.1365
968.0474, 195.3082
968.5295, 196.4647
969.0117, 197.1689
969.4938, 197.9743
969.9759, 199.7723
970.4580, 202.5324
970.9401, 205.1461
971.4222, 206.9118
971.9044, 208.7474
972.3865, 211.0747
972.8686, 213.8876
973.3507, 217.3354
973.8328, 221.2136
974.3149, 224.9428
974.7971, 228.4174
975.2792, 232.4984
975.7613, 237.9188
976.2434, 244.2294
976.7255, 250.8064
977.2076, 257.8141
977.6898, 265.6508
978.1719, 274.3837
978.6540, 283.8506
979.1361, 294.0263
979.6182, 304.6976
980.1003, 315.7934
980.5825, 327.1512
981.0646, 338.0763
981.5467, 348.5080
982.0288, 358.5409
982.5109, 368.1460
982.9930, 375.3969
983.4752, 378.9991
983.9573, 379.5023
984.4394, 377.8272
984.9215, 373.9792
985.4036, 368.1432
985.8857, 360.0804
986.3679, 351.3002
986.8500, 341.9448
987.3321, 332.6584
987.8142, 323.9357
988.2963, 315.7059
988.7784, 307.7390
989.2606, 300.0591
989.7427, 292.6609
990.2248, 285.5255
990.7069, 278.6999
991.1890, 272.2090
991.6711, 265.9685
992.1533, 259.7414
992.6354, 253.6431
993.1175, 248.4536
993.5996, 244.9314
994.0817, 240.9746
994.5638, 235.9631
995.0460, 231.1896
995.5281, 227.1621
996.0102, 223.6294
996.4923, 220.4456
996.9744, 217.5329
997.4565, 214.5577
997.9387, 211.2809
998.4208, 208.2498
998.9029, 205.5629
999.3850, 203.2175
999.8671, 201.5555
1000.349, 200.0799
1000.831, 197.8572
1001.313, 194.9296
1001.796, 192.8069
1002.278, 192.8214
1002.760, 192.7110
1003.242, 190.8681
1003.724, 188.6725
1004.206, 187.4972
1004.688, 186.9478
1005.170, 185.9512
1005.653, 184.2959
1006.135, 182.7669
1006.617, 181.7326
1007.099, 181.1894
1007.581, 181.5837
1008.063, 182.1867
1008.545, 181.8134
1009.027, 180.6970
1009.509, 179.7695
1009.992, 179.3700
1010.474, 179.2709
1010.956, 179.4007
1011.438, 179.5779
1011.920, 179.5614
1012.402, 179.3683
1012.884, 178.8072
1013.366, 178.0551
1013.849, 177.9800
1014.331, 178.9505
1014.813, 180.3145
1015.295, 181.4890
1015.777, 182.3996
1016.259, 182.8346
1016.741, 182.8325
1017.223, 182.3507
1017.705, 181.4746
1018.188, 181.1571
1018.670, 181.9102
1019.152, 183.0592
1019.634, 183.6937
1020.116, 183.9138
1020.598, 184.2785
1021.080, 184.7693
1021.562, 184.9044
1022.044, 184.5910
1022.527, 184.0264
1023.009, 183.2674
1023.491, 182.6124
1023.973, 182.6716
1024.455, 183.3585
1024.937, 183.1209
1025.419, 181.8396
1025.901, 180.6387
1026.384, 179.7069
1026.866, 178.9417
1027.348, 178.2931
1027.830, 177.7445
1028.312, 177.2987
1028.794, 176.9651
1029.276, 176.3798
1029.758, 175.3863
1030.240, 174.7143
1030.723, 174.6135
1031.205, 174.6033
1031.687, 174.4457
1032.169, 174.0802
1032.651, 173.2816
1033.133, 171.9057
1033.615, 171.3522
1034.097, 172.0555
1034.579, 172.6314
1035.062, 172.7814
1035.544, 172.8090
1036.026, 172.9574
1036.508, 173.0874
1036.990, 172.8473
1037.472, 172.1035
1037.954, 171.7341
1038.436, 171.8700
1038.919, 172.1855
1039.401, 173.0995
1039.883, 173.6597
1040.365, 173.0488
1040.847, 171.7169
1041.329, 170.5163
1041.811, 169.3553
1042.293, 168.7926
1042.776, 169.1613
1043.258, 169.6732
1043.740, 170.5315
1044.222, 171.1460
1044.704, 170.9834
1045.186, 170.3583
1045.668, 169.8252
1046.150, 169.3905
1046.632, 169.2691
1047.115, 169.8063
1047.597, 170.2125
1048.079, 170.0297
1048.561, 169.9116
1049.043, 170.5674
1049.525, 171.5158
1050.007, 171.7564
1050.489, 171.1035
1050.971, 170.6497
1051.454, 170.7182
1051.936, 170.8587
1052.418, 170.8497
1052.900, 170.9521
1053.382, 171.5047
1053.864, 172.2482
1054.346, 172.7345
1054.828, 172.9016
1055.311, 172.8291
1055.793, 172.4173
1056.275, 171.9340
1056.757, 171.3099
1057.239, 170.8040
1057.721, 170.7923
1058.203, 170.9619
1058.685, 170.7150
1059.167, 169.9699
1059.650, 169.2998
1060.132, 168.8885
1060.614, 168.5873
1061.096, 168.4235
1061.578, 168.2638
1062.060, 168.0271
1062.542, 167.7120
1063.024, 167.2878
1063.506, 166.7675
1063.989, 166.3506
1064.471, 166.1552
1064.953, 166.0061
1065.435, 165.9670
1065.917, 165.8114
1066.399, 165.2181
1066.881, 164.4651
1067.363, 164.0753
1067.846, 164.0604
1068.328, 163.7941
1068.810, 162.7325
1069.292, 161.9261
1069.774, 162.1920
1070.256, 162.5382
1070.738, 162.2518
1071.220, 161.5492
1071.703, 160.6927
1072.185, 159.7872
1072.667, 159.0392
1073.149, 158.5263
1073.631, 158.1772
1074.113, 158.0329
1074.595, 157.9632
1075.077, 157.9046
1075.559, 157.8425
1076.042, 157.7554
1076.524, 157.6522
1077.006, 157.6113
1077.488, 157.7603
1077.970, 157.6486
1078.452, 156.8088
1078.934, 155.9200
1079.416, 155.2788
1079.898, 154.9610
1080.380, 155.2085
1080.863, 155.8292
1081.345, 156.2031
1081.827, 156.1219
1082.309, 155.8739
1082.791, 155.3124
1083.273, 154.9418
1083.755, 155.4086
1084.237, 155.9648
1084.720, 155.5985
1085.202, 154.6438
1085.684, 154.2309
1086.166, 154.7116
1086.648, 155.1460
1087.130, 155.0032
1087.612, 154.8796
1088.094, 155.1814
1088.577, 155.5621
1089.059, 155.6984
1089.541, 155.6479
1090.023, 155.6002
1090.505, 155.5953
1090.987, 155.5047
1091.469, 155.0437
1091.951, 154.8050
1092.433, 155.4291
1092.916, 156.0016
1093.398, 155.5983
1093.880, 154.7253
1094.362, 154.2524
1094.844, 154.3042
1095.326, 154.5636
1095.808, 155.0880
1096.290, 155.5745
1096.772, 156.1734
1097.255, 156.4353
1097.737, 155.6536
1098.219, 154.6204
1098.701, 154.5501
1099.183, 155.3655
1099.665, 155.7527
1100.147, 155.1514
1100.629, 154.6455
1101.112, 154.4471
1101.594, 154.4852
1102.076, 155.0875
1102.558, 155.6310
1103.040, 155.3404
1103.522, 154.4013
1104.004, 153.6392
1104.486, 153.1566
1104.969, 152.9007
1105.451, 152.7932
1105.933, 153.0050
1106.415, 153.9255
1106.897, 154.8855
1107.379, 155.2504
1107.861, 155.2601
1108.343, 155.6425
1108.825, 156.6274
1109.307, 156.9591
1109.790, 155.6591
1110.272, 154.9361
1110.754, 155.8511
1111.236, 156.8095
1111.718, 156.7174
1112.200, 156.1192
1112.682, 155.8784
1113.164, 156.0144
1113.647, 156.3349
1114.129, 156.9656
1114.611, 157.5710
1115.093, 158.0649
1115.575, 158.6190
1116.057, 159.3497
1116.539, 160.1395
1117.021, 160.8931
1117.504, 161.5925
1117.986, 162.1042
1118.468, 162.4021
1118.950, 162.5383
1119.432, 162.2705
1119.914, 162.3448
1120.396, 163.1393
1120.878, 164.1240
1121.360, 164.8929
1121.843, 165.4814
1122.325, 166.0628
1122.807, 166.7931
1123.289, 166.4742
1123.771, 164.7699
1124.253, 163.1076
1124.735, 161.6802
1125.217, 160.7227
1125.699, 160.5068
1126.182, 160.5916
1126.664, 160.2312
1127.146, 159.4438
1127.628, 158.4381
1128.110, 157.1176
1128.592, 156.6344
1129.074, 157.2833
1129.556, 157.6621
1130.039, 157.1130
1130.521, 156.1579
1131.003, 155.3526
1131.485, 154.6787
1131.967, 154.1524
1132.449, 153.7501
1132.931, 152.8734
1133.413, 151.5144
1133.896, 150.9366
1134.378, 151.5235
1134.860, 152.1792
1135.342, 152.0613
1135.824, 151.4677
1136.306, 150.7563
1136.788, 150.0525
1137.270, 149.9880
1137.752, 150.4082
1138.234, 150.4585
1138.717, 150.0550
1139.199, 149.9042
1139.681, 150.3698
1140.163, 150.8323
1140.645, 150.4557
1141.127, 149.7502
1141.609, 149.7126
1142.091, 150.0515
1142.574, 150.1541
1143.056, 150.0043
1143.538, 149.7982
1144.020, 149.6088
1144.502, 149.4438
1144.984, 149.2905
1145.466, 149.2048
1145.948, 149.2987
1146.431, 149.4502
1146.913, 149.5451
1147.395, 149.5613
1147.877, 149.4715
1148.359, 149.2822
1148.841, 149.0144
1149.323, 148.6503
1149.805, 148.3712
1150.287, 148.2411
1150.770, 148.2938
1151.252, 148.7860
1151.734, 149.2847
1152.216, 149.2326
1152.698, 148.8243
1153.180, 148.6354
1153.662, 148.7848
1154.144, 148.7566
1154.626, 148.0198
1155.109, 147.5889
1155.591, 148.1364
1156.073, 148.7199
1156.555, 148.7701
1157.037, 148.5003
1157.519, 148.1475
1158.001, 147.7566
1158.483, 147.4735
1158.966, 147.3470
1159.448, 147.2473
1159.930, 147.0925
1160.412, 147.0690
1160.894, 147.4319
1161.376, 147.7020
1161.858, 147.3558
1162.340, 146.7686
1162.822, 146.8548
1163.305, 147.7419
1163.787, 147.8477
1164.269, 146.6868
1164.751, 146.2324
1165.233, 147.0091
1165.715, 147.7256
1166.197, 147.7605
1166.679, 147.4913
1167.161, 147.3180
1167.644, 147.2624
1168.126, 147.5108
1168.608, 148.0875
1169.090, 148.0886
1169.572, 147.4531
1170.054, 147.1690
1170.536, 147.5141
1171.018, 147.8555
1171.500, 147.7582
1171.983, 147.4074
1172.465, 147.0015
1172.947, 146.6229
1173.429, 146.5899
1173.911, 146.8272
1174.393, 147.0245
1174.875, 147.1787
1175.357, 147.5889
1175.840, 148.3324
1176.322, 148.8714
1176.804, 148.6947
1177.286, 148.2574
1177.768, 148.1133
1178.250, 148.0770
1178.732, 147.8229
1179.214, 147.4855
1179.697, 147.3759
1180.179, 147.5021
1180.661, 147.6938
1181.143, 147.9135
1181.625, 147.9169
1182.107, 147.2648
1182.589, 146.6964
1183.071, 146.7106
1183.553, 147.0265
1184.036, 147.6690
1184.518, 148.2692
1185.000, 148.0150
1185.482, 146.8710
1185.964, 146.2973
1186.446, 147.3455
1186.928, 147.8160
1187.410, 146.7337
1187.892, 145.7670
1188.375, 145.7712
1188.857, 146.0700
1189.339, 146.0040
1189.821, 145.7379
1190.303, 145.7394
1190.785, 146.0274
1191.267, 146.5225
1191.749, 147.4710
1192.232, 147.8687
1192.714, 147.3438
1193.196, 146.9072
1193.678, 147.1379
1194.160, 147.4595
1194.642, 147.1154
1195.124, 146.3369
1195.606, 146.0419
1196.089, 146.2154
1196.571, 146.5317
1197.053, 146.9676
1197.535, 147.5054
1198.017, 148.1149
1198.499, 148.3538
1198.981, 147.9286
1199.463, 147.2724
1199.945, 146.9363
1200.427, 146.7949
1200.910, 146.5388
1201.392, 146.3006
1201.874, 146.4996
1202.356, 146.9774
1202.838, 147.0274
1203.320, 146.5724
1203.802, 146.5925
1204.284, 147.9376
1204.767, 149.0665
1205.249, 148.5485
1205.731, 147.6120
1206.213, 147.0592
1206.695, 146.8496
1207.177, 146.9498
1207.659, 147.2689
1208.141, 147.7644
1208.624, 148.4737
1209.106, 148.5125
1209.588, 146.8520
1210.070, 145.7283
1210.552, 145.9560
1211.034, 146.4019
1211.516, 146.5327
1211.998, 146.5850
1212.480, 146.8166
1212.963, 147.1684
1213.445, 147.4415
1213.927, 147.6931
1214.409, 147.5139
1214.891, 146.7437
1215.373, 146.1559
1215.855, 145.8753
1216.337, 145.9376
1216.819, 146.4257
1217.302, 146.9202
1217.784, 146.8631
1218.266, 146.4813
1218.748, 146.5314
1219.230, 146.8989
1219.712, 146.9745
1220.194, 146.7847
1220.676, 146.6568
1221.159, 146.6519
1221.641, 146.5954
1222.123, 146.3895
1222.605, 146.1876
1223.087, 146.1371
1223.569, 146.1766
1224.051, 146.2081
1224.533, 146.3056
1225.016, 146.6363
1225.498, 147.0784
1225.980, 147.4075
1226.462, 147.5795
1226.944, 147.6521
1227.426, 147.6294
1227.908, 147.5436
1228.390, 147.3403
1228.872, 147.1600
1229.354, 147.1102
1229.837, 147.0588
1230.319, 146.8985
1230.801, 146.6673
1231.283, 146.4290
1231.765, 146.1851
1232.247, 145.9210
1232.729, 145.3765
1233.211, 145.7641
1233.694, 147.5972
1234.176, 148.6355
1234.658, 148.0465
1235.140, 147.2451
1235.622, 147.2682
1236.104, 147.6219
1236.586, 147.4684
1237.068, 146.9151
1237.551, 146.2368
1238.033, 145.5651
1238.515, 145.7063
1238.997, 146.4890
1239.479, 146.6182
1239.961, 145.8360
1240.443, 145.2956
1240.925, 145.7804
1241.407, 146.4649
1241.890, 146.5651
1242.372, 146.4719
1242.854, 146.5325
1243.336, 146.6611
1243.818, 146.8514
1244.300, 146.9678
1244.782, 146.6294
1245.264, 145.8409
1245.746, 145.4685
1246.229, 146.0325
1246.711, 146.4794
1247.193, 146.5894
1247.675, 146.6108
1248.157, 146.5360
1248.639, 146.5133
1249.121, 146.6736
1249.603, 146.9311
1250.085, 147.1691
1250.568, 147.3708
1251.050, 147.1941
1251.532, 146.5757
1252.014, 146.2766
1252.496, 146.3610
1252.978, 146.6044
1253.460, 146.9373
1253.942, 147.0274
1254.425, 146.6199
1254.907, 146.1397
1255.389, 146.1871
1255.871, 146.5649
1256.353, 147.0436
1256.835, 147.4986
1257.317, 147.7041
1257.799, 147.6677
1258.281, 147.2928
1258.764, 146.7102
1259.246, 146.6789
1259.728, 147.7150
1260.210, 148.5896
1260.692, 148.7316
1261.174, 148.5789
1261.656, 148.1668
1262.138, 147.7143
1262.620, 147.2317
1263.103, 146.9030
1263.585, 147.1150
1264.067, 147.7740
1264.549, 148.0958
1265.031, 147.9938
1265.513, 147.8163
1265.995, 147.5135
1266.477, 147.3650
1266.960, 147.4377
1267.442, 147.6601
1267.924, 148.0083
1268.406, 148.3560
1268.888, 148.5736
1269.370, 148.6492
1269.852, 148.4669
1270.334, 148.1613
1270.817, 148.0550
1271.299, 148.1315
1271.781, 148.3750
1272.263, 148.6936
1272.745, 148.7745
1273.227, 148.4975
1273.709, 148.2696
1274.191, 148.4540
1274.673, 148.5819
1275.156, 148.2984
1275.638, 148.0154
1276.120, 148.1241
1276.602, 148.2883
1277.084, 147.9780
1277.566, 147.4096
1278.048, 147.3588
1278.530, 147.9030
1279.012, 148.2359
1279.495, 148.2065
1279.977, 148.5757
1280.459, 149.5818
1280.941, 150.1186
1281.423, 149.7407
1281.905, 149.1734
1282.387, 148.9696
1282.869, 149.0296
1283.352, 149.3393
1283.834, 149.6857
1284.316, 149.6006
1284.798, 149.0908
##END=



