##NAMES=Aubertite
##RRUFFID=R060751
##IDEAL CHEMISTRY=Cu^2+^Al(S^6+^O_4_)_2_Cl&#183;14H_2_O
##LOCALITY=Quetena mine, Chuquicamata, Chile
##OWNER=RRUFF
##SOURCE=Bob Jenkins
##DESCRIPTION=Light green massive
##STATUS=The identification of this mineral has been made only by X-ray diffraction.
##URL=rruff.info/R060751
120.7725, 154.9875
121.2546, 171.1915
121.7368, 188.2747
122.2189, 203.1286
122.7010, 217.5749
123.1831, 234.4391
123.6652, 256.8120
124.1473, 280.6597
124.6295, 301.1395
125.1116, 318.2146
125.5937, 334.8444
126.0758, 354.1877
126.5579, 375.4223
127.0400, 395.7613
127.5222, 414.3180
128.0043, 431.2557
128.4864, 446.3584
128.9685, 459.1769
129.4506, 471.8939
129.9327, 486.3086
130.4149, 502.5977
130.8970, 522.3112
131.3791, 548.9030
131.8612, 580.8580
132.3433, 607.6177
132.8254, 626.1368
133.3076, 640.7980
133.7897, 661.5048
134.2718, 688.9540
134.7539, 718.6368
135.2360, 747.7449
135.7181, 776.4572
136.2003, 804.0441
136.6824, 830.2587
137.1645, 855.1301
137.6466, 878.3787
138.1287, 900.1224
138.6108, 919.5615
139.0930, 935.8652
139.5751, 949.2991
140.0572, 958.5567
140.5393, 962.9085
141.0214, 962.1689
141.5035, 958.4979
141.9857, 950.3641
142.4678, 940.5113
142.9499, 933.2927
143.4320, 929.6190
143.9141, 927.1166
144.3962, 925.8912
144.8784, 929.1772
145.3605, 925.2881
145.8426, 909.7195
146.3247, 887.2538
146.8068, 871.5162
147.2889, 868.4649
147.7711, 866.4448
148.2532, 860.3539
148.7353, 842.6750
149.2174, 830.3699
149.6995, 825.8032
150.1816, 827.9772
150.6638, 829.7323
151.1459, 830.9554
151.6280, 831.7787
152.1101, 832.2792
152.5922, 833.2624
153.0743, 833.0888
153.5565, 829.8093
154.0386, 823.3021
154.5207, 821.1100
155.0028, 828.1601
155.4849, 838.3397
155.9670, 846.1274
156.4492, 848.6196
156.9313, 850.2620
157.4134, 852.3556
157.8955, 855.0763
158.3776, 857.6777
158.8597, 857.4460
159.3419, 857.4759
159.8240, 862.0459
160.3061, 876.5530
160.7882, 892.8836
161.2703, 907.0049
161.7524, 917.9624
162.2346, 928.4746
162.7167, 939.7395
163.1988, 951.4651
163.6809, 962.8177
164.1630, 975.6978
164.6451, 986.9137
165.1273, 993.7221
165.6094, 993.6718
166.0915, 992.4581
166.5736, 992.6172
167.0557, 994.1810
167.5379, 997.2682
168.0200, 1001.546
168.5021, 1007.502
168.9842, 1015.644
169.4663, 1026.267
169.9484, 1038.966
170.4306, 1055.170
170.9127, 1074.178
171.3948, 1091.439
171.8769, 1104.055
172.3590, 1112.692
172.8411, 1118.175
173.3233, 1116.617
173.8054, 1114.349
174.2875, 1118.556
174.7696, 1129.335
175.2517, 1142.736
175.7338, 1156.419
176.2160, 1170.237
176.6981, 1183.798
177.1802, 1199.115
177.6623, 1213.297
178.1444, 1220.508
178.6265, 1219.793
179.1087, 1217.450
179.5908, 1222.451
180.0729, 1232.262
180.5550, 1237.783
181.0371, 1227.277
181.5192, 1209.540
182.0014, 1206.952
182.4835, 1223.901
182.9656, 1246.593
183.4477, 1257.937
183.9298, 1258.597
184.4119, 1254.628
184.8941, 1247.363
185.3762, 1237.904
185.8583, 1230.981
186.3404, 1228.085
186.8225, 1226.027
187.3046, 1220.022
187.7868, 1210.117
188.2689, 1195.619
188.7510, 1172.790
189.2331, 1143.551
189.7152, 1120.428
190.1973, 1107.547
190.6795, 1100.223
191.1616, 1086.823
191.6437, 1066.922
192.1258, 1045.570
192.6079, 1023.296
193.0900, 1000.597
193.5722, 990.6273
194.0543, 1002.573
194.5364, 1027.165
195.0185, 1027.331
195.5006, 999.5845
195.9827, 963.4628
196.4649, 936.5170
196.9470, 918.6116
197.4291, 904.5305
197.9112, 894.0733
198.3933, 886.5929
198.8754, 877.5948
199.3576, 866.8789
199.8397, 855.2969
200.3218, 842.8026
200.8039, 828.8693
201.2860, 818.8453
201.7681, 816.0530
202.2503, 820.1422
202.7324, 818.8394
203.2145, 810.1552
203.6966, 799.7393
204.1787, 795.3080
204.6608, 797.7856
205.1430, 802.3666
205.6251, 808.4107
206.1072, 816.2568
206.5893, 820.8125
207.0714, 821.2716
207.5535, 819.4390
208.0357, 817.6006
208.5178, 815.0048
208.9999, 814.8253
209.4820, 819.2922
209.9641, 829.7990
210.4462, 836.9800
210.9284, 839.8882
211.4105, 840.2494
211.8926, 841.1920
212.3747, 842.4081
212.8568, 844.9668
213.3389, 849.7187
213.8211, 857.3957
214.3032, 864.5784
214.7853, 871.7628
215.2674, 878.1981
215.7495, 881.3820
216.2316, 879.6095
216.7138, 878.0215
217.1959, 878.8356
217.6780, 881.9474
218.1601, 888.2322
218.6422, 899.6717
219.1243, 913.7972
219.6065, 922.3535
220.0886, 923.1435
220.5707, 921.8943
221.0528, 921.6484
221.5349, 922.8396
222.0170, 923.9217
222.4992, 924.9755
222.9813, 925.8553
223.4634, 925.8284
223.9455, 924.0969
224.4276, 922.5957
224.9097, 922.6422
225.3919, 925.0597
225.8740, 926.9611
226.3561, 927.3027
226.8382, 926.7504
227.3203, 929.1216
227.8024, 934.4469
228.2846, 942.6208
228.7667, 954.6802
229.2488, 974.4366
229.7309, 989.1061
230.2130, 995.0991
230.6951, 993.8457
231.1773, 997.2521
231.6594, 1007.539
232.1415, 1019.854
232.6236, 1030.599
233.1057, 1038.297
233.5878, 1047.375
234.0700, 1058.249
234.5521, 1070.858
235.0342, 1085.651
235.5163, 1104.469
235.9984, 1123.321
236.4805, 1138.458
236.9627, 1145.617
237.4448, 1157.598
237.9269, 1180.040
238.4090, 1212.162
238.8911, 1229.466
239.3732, 1221.132
239.8554, 1209.418
240.3375, 1214.252
240.8196, 1245.814
241.3017, 1274.428
241.7838, 1294.309
242.2659, 1305.422
242.7481, 1322.709
243.2302, 1350.917
243.7123, 1380.488
244.1944, 1402.451
244.6765, 1413.078
245.1586, 1422.903
245.6408, 1431.880
246.1229, 1439.974
246.6050, 1457.004
247.0871, 1489.304
247.5692, 1523.952
248.0513, 1548.956
248.5335, 1562.195
249.0156, 1569.705
249.4977, 1570.953
249.9798, 1565.780
250.4619, 1562.800
250.9440, 1562.158
251.4262, 1563.505
251.9083, 1566.906
252.3904, 1573.981
252.8725, 1579.902
253.3546, 1584.018
253.8367, 1586.372
254.3189, 1585.871
254.8010, 1581.501
255.2831, 1575.453
255.7652, 1570.189
256.2473, 1567.155
256.7295, 1561.633
257.2116, 1551.781
257.6937, 1537.581
258.1758, 1525.151
258.6579, 1513.328
259.1400, 1504.703
259.6222, 1503.298
260.1043, 1513.745
260.5864, 1519.542
261.0685, 1515.442
261.5506, 1501.589
262.0327, 1491.780
262.5149, 1486.683
262.9970, 1484.828
263.4791, 1485.977
263.9612, 1492.685
264.4433, 1494.767
264.9254, 1487.969
265.4076, 1472.767
265.8897, 1463.918
266.3718, 1463.184
266.8539, 1465.765
267.3360, 1466.837
267.8181, 1465.886
268.3003, 1465.377
268.7824, 1466.751
269.2645, 1469.642
269.7466, 1467.585
270.2287, 1458.916
270.7108, 1448.634
271.1930, 1442.714
271.6751, 1443.045
272.1572, 1438.622
272.6393, 1424.212
273.1214, 1401.571
273.6035, 1392.347
274.0857, 1401.630
274.5678, 1411.049
275.0499, 1400.188
275.5320, 1365.663
276.0141, 1334.182
276.4962, 1312.044
276.9784, 1297.774
277.4605, 1283.190
277.9426, 1268.177
278.4247, 1253.136
278.9068, 1239.449
279.3889, 1227.387
279.8711, 1212.356
280.3532, 1192.553
280.8353, 1169.166
281.3174, 1146.516
281.7995, 1124.555
282.2816, 1104.626
282.7638, 1089.274
283.2459, 1078.402
283.7280, 1065.781
284.2101, 1049.990
284.6922, 1031.618
285.1743, 1010.744
285.6565, 986.9614
286.1386, 966.1520
286.6207, 955.1974
287.1028, 953.0640
287.5849, 949.4858
288.0670, 942.1975
288.5492, 932.5578
289.0313, 923.3188
289.5134, 914.5508
289.9955, 906.5767
290.4776, 900.1420
290.9597, 894.9396
291.4419, 889.1289
291.9240, 882.0557
292.4061, 874.6418
292.8882, 868.4403
293.3703, 863.4702
293.8524, 859.4814
294.3346, 854.5062
294.8167, 850.1936
295.2988, 852.0983
295.7809, 863.1227
296.2630, 877.1964
296.7451, 886.0713
297.2273, 890.0843
297.7094, 891.9552
298.1915, 894.2000
298.6736, 895.4984
299.1557, 893.0487
299.6378, 886.1245
300.1200, 876.0859
300.6021, 863.0205
301.0842, 847.6531
301.5663, 832.7146
302.0484, 820.0864
302.5305, 808.7548
303.0127, 797.8027
303.4948, 787.2662
303.9769, 776.1708
304.4590, 762.2803
304.9411, 746.7909
305.4232, 732.8111
305.9054, 722.5689
306.3875, 714.3708
306.8696, 706.2595
307.3517, 697.7014
307.8338, 690.9698
308.3159, 689.8906
308.7981, 691.9037
309.2802, 692.0665
309.7623, 684.7704
310.2444, 676.8779
310.7265, 673.5527
311.2086, 675.5249
311.6908, 680.0988
312.1729, 688.4891
312.6550, 697.9667
313.1371, 704.5002
313.6192, 701.7715
314.1013, 699.3029
314.5835, 703.4086
315.0656, 714.8824
315.5477, 725.3072
316.0298, 728.0034
316.5119, 728.7485
316.9940, 733.9139
317.4762, 751.1855
317.9583, 767.9291
318.4404, 779.2446
318.9225, 785.0062
319.4046, 788.8673
319.8867, 788.8806
320.3689, 788.9371
320.8510, 792.2675
321.3331, 806.5419
321.8152, 816.9323
322.2973, 819.5059
322.7794, 814.6537
323.2616, 807.4164
323.7437, 795.8005
324.2258, 783.7810
324.7079, 773.8308
325.1900, 768.8627
325.6721, 762.9265
326.1543, 754.1934
326.6364, 743.5079
327.1185, 735.3245
327.6006, 732.9389
328.0827, 730.4604
328.5648, 725.0942
329.0470, 711.5388
329.5291, 702.7882
330.0112, 702.3635
330.4933, 706.6396
330.9754, 705.1389
331.4576, 694.8924
331.9397, 682.5238
332.4218, 669.6318
332.9039, 653.1531
333.3860, 644.4404
333.8681, 646.8424
334.3503, 655.1979
334.8324, 660.2308
335.3145, 662.0810
335.7966, 660.1949
336.2787, 653.9018
336.7608, 642.8299
337.2430, 629.9438
337.7251, 614.5201
338.2072, 598.7473
338.6893, 585.3942
339.1714, 574.4658
339.6535, 566.6373
340.1357, 563.4536
340.6178, 564.3658
341.0999, 561.9750
341.5820, 555.6240
342.0641, 547.9265
342.5462, 541.0175
343.0284, 534.9547
343.5105, 530.2976
343.9926, 528.3308
344.4747, 527.4901
344.9568, 521.8168
345.4389, 510.9559
345.9211, 499.9658
346.4032, 492.8590
346.8853, 489.2412
347.3674, 488.1400
347.8495, 490.8283
348.3316, 493.9801
348.8138, 490.2446
349.2959, 480.3346
349.7780, 471.4937
350.2601, 468.7091
350.7422, 470.3443
351.2243, 473.8553
351.7065, 480.0132
352.1886, 484.9596
352.6707, 483.4303
353.1528, 476.8571
353.6349, 469.9960
354.1170, 462.7694
354.5992, 457.7721
355.0813, 459.5308
355.5634, 469.8855
356.0455, 479.0439
356.5276, 478.3251
357.0097, 471.6583
357.4919, 465.9202
357.9740, 464.2367
358.4561, 464.1555
358.9382, 464.6652
359.4203, 465.7497
359.9024, 465.8427
360.3846, 461.7674
360.8667, 457.2430
361.3488, 456.1823
361.8309, 463.3103
362.3130, 470.6935
362.7951, 475.5702
363.2773, 478.0700
363.7594, 480.3327
364.2415, 484.6615
364.7236, 487.8351
365.2057, 487.7422
365.6878, 478.4684
366.1700, 472.3491
366.6521, 471.3378
367.1342, 474.6940
367.6163, 479.4261
368.0984, 488.5072
368.5805, 496.2536
369.0627, 500.0672
369.5448, 496.4602
370.0269, 495.6912
370.5090, 498.8080
370.9911, 504.4036
371.4732, 510.0931
371.9554, 517.0089
372.4375, 522.0034
372.9196, 523.5488
373.4017, 520.9352
373.8838, 519.5626
374.3659, 519.9143
374.8481, 520.8176
375.3302, 520.2887
375.8123, 517.4419
376.2944, 516.9352
376.7765, 520.1789
377.2586, 526.8913
377.7408, 535.2899
378.2229, 546.2430
378.7050, 555.7346
379.1871, 559.5057
379.6692, 557.7905
380.1513, 556.0135
380.6335, 554.7744
381.1156, 554.5385
381.5977, 556.4520
382.0798, 560.4833
382.5619, 565.8163
383.0440, 572.8370
383.5262, 580.7917
384.0083, 587.8871
384.4904, 594.1566
384.9725, 598.9477
385.4546, 600.6909
385.9367, 600.1621
386.4189, 599.7806
386.9010, 600.7916
387.3831, 602.6046
387.8652, 604.4472
388.3473, 606.2393
388.8294, 608.5989
389.3116, 611.5292
389.7937, 615.3600
390.2758, 620.5928
390.7579, 629.4058
391.2400, 637.9686
391.7221, 644.2271
392.2043, 648.2394
392.6864, 650.9077
393.1685, 650.5477
393.6506, 650.1163
394.1327, 651.9814
394.6148, 659.2358
395.0970, 665.3852
395.5791, 667.9382
396.0612, 668.1137
396.5433, 669.3840
397.0254, 671.3525
397.5075, 675.3592
397.9897, 682.4023
398.4718, 694.7139
398.9539, 705.0587
399.4360, 710.8760
399.9181, 715.6578
400.4002, 724.7928
400.8824, 743.6958
401.3645, 758.8470
401.8466, 765.3787
402.3287, 762.8275
402.8108, 764.4714
403.2929, 769.9115
403.7751, 780.0860
404.2572, 797.8517
404.7393, 826.1382
405.2214, 848.3381
405.7035, 858.8665
406.1856, 862.8267
406.6678, 878.1083
407.1499, 906.2253
407.6320, 935.6104
408.1141, 956.6014
408.5962, 970.7487
409.0783, 992.9756
409.5605, 1025.599
410.0426, 1062.914
410.5247, 1097.234
411.0068, 1128.719
411.4889, 1160.039
411.9710, 1190.593
412.4532, 1222.187
412.9353, 1259.323
413.4174, 1302.039
413.8995, 1347.199
414.3816, 1391.386
414.8637, 1436.558
415.3459, 1487.034
415.8280, 1549.179
416.3101, 1611.961
416.7922, 1668.588
417.2743, 1718.691
417.7564, 1765.666
418.2386, 1809.119
418.7207, 1850.781
419.2028, 1890.721
419.6849, 1927.430
420.1670, 1966.741
420.6491, 2018.633
421.1313, 2073.787
421.6134, 2115.673
422.0955, 2131.636
422.5776, 2142.021
423.0597, 2154.761
423.5418, 2172.437
424.0240, 2180.193
424.5061, 2175.267
424.9882, 2161.423
425.4703, 2141.138
425.9524, 2108.684
426.4345, 2079.330
426.9167, 2057.211
427.3988, 2040.169
427.8809, 2015.839
428.3630, 1980.651
428.8451, 1945.202
429.3272, 1916.023
429.8094, 1893.370
430.2915, 1874.345
430.7736, 1859.144
431.2557, 1847.021
431.7378, 1838.475
432.2199, 1833.715
432.7021, 1826.615
433.1842, 1813.783
433.6663, 1796.602
434.1484, 1777.511
434.6305, 1756.113
435.1126, 1739.630
435.5948, 1737.137
436.0769, 1745.351
436.5590, 1756.639
437.0411, 1772.795
437.5232, 1785.693
438.0053, 1780.828
438.4875, 1762.719
438.9696, 1749.565
439.4517, 1755.914
439.9338, 1770.230
440.4159, 1783.140
440.8980, 1794.126
441.3802, 1799.842
441.8623, 1791.930
442.3444, 1779.322
442.8265, 1774.758
443.3086, 1792.568
443.7907, 1809.313
444.2729, 1814.772
444.7550, 1808.449
445.2371, 1805.288
445.7192, 1807.949
446.2013, 1814.147
446.6834, 1822.704
447.1656, 1840.158
447.6477, 1850.090
448.1298, 1847.286
448.6119, 1837.214
449.0940, 1835.580
449.5761, 1847.378
450.0583, 1858.010
450.5404, 1861.369
451.0225, 1856.772
451.5046, 1851.911
451.9867, 1846.388
452.4688, 1841.549
452.9510, 1840.497
453.4331, 1843.418
453.9152, 1841.844
454.3973, 1831.154
454.8794, 1816.367
455.3615, 1812.597
455.8437, 1819.414
456.3258, 1825.159
456.8079, 1819.067
457.2900, 1806.304
457.7721, 1798.253
458.2542, 1797.604
458.7364, 1797.333
459.2185, 1789.369
459.7006, 1776.648
460.1827, 1765.531
460.6648, 1761.058
461.1469, 1757.470
461.6291, 1750.410
462.1112, 1739.838
462.5933, 1728.906
463.0754, 1717.613
463.5575, 1707.300
464.0396, 1699.219
464.5218, 1695.505
465.0039, 1691.516
465.4860, 1678.316
465.9681, 1663.829
466.4502, 1668.941
466.9323, 1730.526
467.4145, 1775.620
467.8966, 1777.915
468.3787, 1727.185
468.8608, 1688.944
469.3429, 1666.549
469.8250, 1652.871
470.3072, 1640.578
470.7893, 1628.536
471.2714, 1623.107
471.7535, 1628.103
472.2356, 1639.111
472.7177, 1640.435
473.1999, 1631.314
473.6820, 1620.099
474.1641, 1613.448
474.6462, 1609.430
475.1284, 1597.904
475.6105, 1577.136
476.0926, 1554.652
476.5747, 1540.130
477.0568, 1530.990
477.5389, 1520.789
478.0211, 1506.314
478.5032, 1490.192
478.9853, 1476.660
479.4674, 1464.697
479.9495, 1448.254
480.4316, 1416.089
480.9138, 1382.659
481.3959, 1361.659
481.8780, 1363.006
482.3601, 1358.303
482.8422, 1333.453
483.3243, 1297.568
483.8065, 1264.564
484.2886, 1239.756
484.7707, 1215.279
485.2528, 1187.278
485.7349, 1155.869
486.2170, 1130.775
486.6992, 1115.444
487.1813, 1102.769
487.6634, 1088.209
488.1455, 1071.363
488.6276, 1053.304
489.1097, 1033.351
489.5919, 1012.951
490.0740, 994.7625
490.5561, 978.4451
491.0382, 966.5645
491.5203, 963.1969
492.0024, 965.4352
492.4846, 959.8174
492.9667, 946.1377
493.4488, 929.2114
493.9309, 910.4774
494.4130, 891.9592
494.8951, 879.9139
495.3773, 878.1881
495.8594, 877.7685
496.3415, 866.4548
496.8236, 848.9411
497.3057, 837.1805
497.7878, 844.1932
498.2700, 853.3286
498.7521, 852.7980
499.2342, 841.2561
499.7163, 829.6826
500.1984, 820.7015
500.6805, 814.2844
501.1627, 810.3720
501.6448, 812.5266
502.1269, 813.0067
502.6090, 811.4030
503.0911, 807.6314
503.5732, 801.1452
504.0554, 790.0835
504.5375, 779.0145
505.0196, 768.1970
505.5017, 757.0135
505.9838, 755.3201
506.4659, 766.2758
506.9481, 779.4224
507.4302, 783.2390
507.9123, 777.6845
508.3944, 773.5627
508.8765, 773.4700
509.3586, 774.7712
509.8408, 770.9934
510.3229, 763.1630
510.8050, 758.4623
511.2871, 762.8006
511.7692, 772.0715
512.2513, 781.1701
512.7335, 789.9274
513.2156, 796.3552
513.6977, 797.7510
514.1798, 796.5185
514.6619, 795.4609
515.1440, 796.1992
515.6262, 796.1790
516.1083, 792.2573
516.5904, 786.6817
517.0725, 785.2767
517.5546, 793.0438
518.0367, 801.7933
518.5189, 809.5535
519.0010, 817.0552
519.4831, 819.0042
519.9652, 812.2595
520.4473, 803.1121
520.9294, 796.2517
521.4116, 791.1762
521.8937, 790.7143
522.3758, 796.5153
522.8579, 805.9265
523.3400, 812.0017
523.8221, 814.3956
524.3043, 818.4977
524.7864, 829.5978
525.2685, 844.3958
525.7506, 851.4139
526.2327, 850.4724
526.7148, 847.8928
527.1970, 848.2852
527.6791, 850.9754
528.1612, 855.3251
528.6433, 862.7902
529.1254, 868.5966
529.6075, 868.2811
530.0897, 863.7179
530.5718, 858.8135
531.0539, 854.3309
531.5360, 850.4625
532.0181, 847.4209
532.5002, 845.2464
532.9824, 843.1965
533.4645, 844.9504
533.9466, 844.0383
534.4287, 836.0558
534.9108, 813.5203
535.3929, 797.8571
535.8751, 791.5647
536.3572, 790.7232
536.8393, 789.5101
537.3214, 788.8611
537.8035, 783.2137
538.2856, 768.4640
538.7678, 747.4710
539.2499, 733.9133
539.7320, 728.0790
540.2141, 722.8617
540.6962, 711.8466
541.1783, 697.5165
541.6605, 685.8753
542.1426, 678.3812
542.6247, 670.9813
543.1068, 657.8430
543.5889, 642.5154
544.0710, 631.0477
544.5532, 628.5267
545.0353, 627.9822
545.5174, 627.5728
545.9995, 626.7057
546.4816, 622.5000
546.9637, 609.8510
547.4459, 597.1411
547.9280, 588.6766
548.4101, 586.4430
548.8922, 583.1174
549.3743, 577.7115
549.8564, 572.0406
550.3386, 568.0331
550.8207, 566.0123
551.3028, 564.7836
551.7849, 564.7506
552.2670, 564.9540
552.7491, 561.6291
553.2313, 554.5659
553.7134, 549.7006
554.1955, 552.7335
554.6776, 560.2168
555.1597, 562.0431
555.6418, 557.9489
556.1240, 552.2991
556.6061, 548.7557
557.0882, 545.9462
557.5703, 541.3962
558.0524, 532.2753
558.5345, 525.7571
559.0167, 528.9054
559.4988, 537.3022
559.9809, 542.6199
560.4630, 538.1936
560.9451, 534.5628
561.4272, 536.2922
561.9094, 543.6136
562.3915, 547.4977
562.8736, 544.5020
563.3557, 541.7629
563.8378, 543.8138
564.3199, 553.0165
564.8021, 558.6940
565.2842, 560.3828
565.7663, 559.0842
566.2484, 554.2949
566.7305, 546.1030
567.2126, 542.6630
567.6948, 548.0706
568.1769, 557.4465
568.6590, 561.6808
569.1411, 561.3967
569.6232, 559.9346
570.1053, 558.4844
570.5875, 557.3835
571.0696, 556.6145
571.5517, 556.1191
572.0338, 557.4115
572.5159, 563.3356
572.9980, 570.3932
573.4802, 575.2693
573.9623, 573.5494
574.4444, 574.5014
574.9265, 582.4128
575.4086, 593.4825
575.8907, 599.8109
576.3729, 597.5555
576.8550, 597.1115
577.3371, 602.3563
577.8192, 612.3434
578.3013, 616.2244
578.7834, 611.9485
579.2656, 609.5765
579.7477, 618.5880
580.2298, 636.7937
580.7119, 649.0883
581.1940, 653.7977
581.6761, 656.0005
582.1583, 660.2293
582.6404, 666.2201
583.1225, 673.4666
583.6046, 682.2627
584.0867, 691.6745
584.5688, 701.5989
585.0510, 711.6556
585.5331, 720.7809
586.0152, 724.1590
586.4973, 730.4495
586.9794, 744.3013
587.4615, 766.8105
587.9437, 789.4751
588.4258, 812.1379
588.9079, 834.5496
589.3900, 855.9622
589.8721, 874.5006
590.3542, 898.6749
590.8364, 930.9716
591.3185, 965.4424
591.8006, 990.5807
592.2827, 1006.723
592.7648, 1025.832
593.2469, 1051.930
593.7291, 1082.874
594.2112, 1112.331
594.6933, 1141.707
595.1754, 1178.096
595.6575, 1235.200
596.1396, 1295.344
596.6218, 1339.597
597.1039, 1365.840
597.5860, 1390.234
598.0681, 1418.341
598.5502, 1448.524
599.0323, 1479.367
599.5145, 1512.117
599.9966, 1543.421
600.4787, 1572.881
600.9608, 1601.210
601.4429, 1629.849
601.9250, 1661.793
602.4072, 1687.864
602.8893, 1706.947
603.3714, 1718.391
603.8535, 1716.520
604.3356, 1700.600
604.8177, 1681.590
605.2999, 1667.788
605.7820, 1656.019
606.2641, 1636.191
606.7462, 1607.233
607.2283, 1580.045
607.7104, 1564.920
608.1926, 1556.258
608.6747, 1547.252
609.1568, 1538.505
609.6389, 1524.722
610.1210, 1497.928
610.6031, 1465.763
611.0853, 1441.334
611.5674, 1436.408
612.0495, 1428.896
612.5316, 1413.141
613.0137, 1390.616
613.4958, 1371.302
613.9780, 1354.441
614.4601, 1343.050
614.9422, 1342.258
615.4243, 1351.607
615.9064, 1347.482
616.3885, 1327.635
616.8707, 1308.347
617.3528, 1308.056
617.8349, 1320.628
618.3170, 1330.851
618.7991, 1335.697
619.2813, 1337.512
619.7634, 1334.248
620.2455, 1330.103
620.7276, 1332.174
621.2097, 1347.118
621.6918, 1364.877
622.1740, 1385.255
622.6561, 1406.472
623.1382, 1419.528
623.6203, 1415.695
624.1024, 1412.445
624.5845, 1416.750
625.0667, 1429.718
625.5488, 1436.193
626.0309, 1434.627
626.5130, 1430.747
626.9951, 1429.896
627.4772, 1431.584
627.9594, 1429.957
628.4415, 1424.041
628.9236, 1416.178
629.4057, 1411.428
629.8878, 1406.891
630.3699, 1395.738
630.8521, 1370.721
631.3342, 1343.988
631.8163, 1325.774
632.2984, 1312.873
632.7805, 1296.925
633.2626, 1272.562
633.7448, 1247.212
634.2269, 1223.320
634.7090, 1200.831
635.1911, 1181.111
635.6732, 1167.503
636.1553, 1151.973
636.6375, 1127.693
637.1196, 1092.393
637.6017, 1068.265
638.0838, 1057.777
638.5659, 1051.619
639.0480, 1040.045
639.5302, 1023.931
640.0123, 1005.506
640.4944, 983.3298
640.9765, 963.3740
641.4586, 955.0176
641.9407, 952.9724
642.4229, 946.0600
642.9050, 925.6430
643.3871, 903.1555
643.8692, 882.1959
644.3513, 863.2454
644.8334, 847.8675
645.3156, 839.0297
645.7977, 831.1432
646.2798, 822.4530
646.7619, 813.0027
647.2440, 802.2147
647.7261, 788.4741
648.2083, 777.5218
648.6904, 777.4463
649.1725, 786.5753
649.6546, 787.7390
650.1367, 778.1084
650.6188, 765.3994
651.1010, 758.7606
651.5831, 755.8190
652.0652, 751.6010
652.5473, 743.7443
653.0294, 735.2092
653.5115, 727.6969
653.9937, 720.8653
654.4758, 714.1287
654.9579, 705.3887
655.4400, 698.7400
655.9221, 697.1246
656.4042, 699.6751
656.8864, 697.7617
657.3685, 688.9368
657.8506, 680.4053
658.3327, 675.9626
658.8148, 675.5643
659.2969, 675.7436
659.7791, 676.7853
660.2612, 676.4289
660.7433, 670.0129
661.2254, 660.8689
661.7075, 657.9802
662.1896, 664.7035
662.6718, 670.4286
663.1539, 661.7308
663.6360, 648.2819
664.1181, 643.5551
664.6002, 667.3977
665.0823, 682.4037
665.5645, 671.4817
666.0466, 645.1530
666.5287, 631.6967
667.0108, 637.1674
667.4929, 645.3862
667.9750, 653.3199
668.4572, 660.5781
668.9393, 664.7485
669.4214, 665.7721
669.9035, 664.2428
670.3856, 658.3057
670.8677, 650.3951
671.3499, 647.5943
671.8320, 650.1094
672.3141, 652.9500
672.7962, 652.1356
673.2783, 649.8032
673.7604, 647.8682
674.2426, 646.3685
674.7247, 646.3396
675.2068, 651.1461
675.6889, 656.1409
676.1710, 655.7697
676.6531, 642.1175
677.1353, 637.6927
677.6174, 648.8453
678.0995, 666.3664
678.5816, 669.8634
679.0637, 658.0222
679.5458, 648.8599
680.0280, 649.6215
680.5101, 655.1083
680.9922, 654.6905
681.4743, 649.3557
681.9564, 643.9143
682.4385, 640.1902
682.9207, 638.2809
683.4028, 639.4008
683.8849, 643.3171
684.3670, 645.7567
684.8491, 643.6266
685.3312, 640.9031
685.8134, 639.7897
686.2955, 640.4648
686.7776, 642.3271
687.2597, 646.1921
687.7418, 649.9677
688.2239, 651.8210
688.7061, 651.7369
689.1882, 650.1602
689.6703, 646.7879
690.1524, 643.1655
690.6345, 640.7095
691.1166, 639.5653
691.5988, 640.2587
692.0809, 644.5573
692.5630, 648.1983
693.0451, 645.9791
693.5272, 641.0847
694.0093, 640.0947
694.4915, 650.0762
694.9736, 658.7006
695.4557, 662.1957
695.9378, 661.4907
696.4199, 660.9299
696.9020, 661.5359
697.3842, 659.8309
697.8663, 653.3379
698.3484, 642.9857
698.8305, 633.5442
699.3126, 624.9246
699.7947, 623.4738
700.2769, 641.8940
700.7590, 667.6726
701.2411, 680.1213
701.7232, 676.8735
702.2053, 669.7981
702.6874, 661.6541
703.1696, 655.5638
703.6517, 654.6665
704.1338, 663.1304
704.6159, 669.7606
705.0980, 674.4218
705.5801, 676.4784
706.0623, 674.5439
706.5444, 667.3293
707.0265, 661.1888
707.5086, 656.4413
707.9907, 653.9708
708.4728, 656.9585
708.9550, 664.2952
709.4371, 669.7574
709.9192, 670.4535
710.4013, 669.0539
710.8834, 667.3928
711.3655, 665.8604
711.8477, 665.5296
712.3298, 670.0895
712.8119, 672.7997
713.2940, 667.9916
713.7761, 656.5462
714.2582, 654.0873
714.7404, 666.4110
715.2225, 678.5282
715.7046, 683.6264
716.1867, 682.0148
716.6688, 683.6607
717.1509, 689.1011
717.6331, 692.7989
718.1152, 688.5507
718.5973, 679.7417
719.0794, 673.5443
719.5615, 670.7031
720.0436, 668.0945
720.5258, 661.3107
721.0079, 654.9196
721.4900, 654.0862
721.9721, 665.9799
722.4542, 670.5742
722.9363, 657.9957
723.4185, 641.6345
723.9006, 635.1727
724.3827, 642.1353
724.8648, 646.9199
725.3469, 646.9532
725.8290, 645.5516
726.3112, 649.3400
726.7933, 657.1247
727.2754, 662.7577
727.7575, 664.4257
728.2396, 662.6231
728.7217, 654.8886
729.2039, 644.1046
729.6860, 637.0752
730.1681, 641.9230
730.6502, 645.4766
731.1323, 640.7686
731.6144, 629.6025
732.0966, 623.6734
732.5787, 625.1692
733.0608, 627.9984
733.5429, 630.2542
734.0250, 632.0215
734.5071, 634.3749
734.9893, 637.4026
735.4714, 638.5936
735.9535, 634.7494
736.4356, 628.5483
736.9177, 624.4860
737.3998, 622.7464
737.8820, 621.5129
738.3641, 620.1138
738.8462, 618.5488
739.3283, 616.7822
739.8104, 614.7282
740.2925, 612.6599
740.7747, 609.3160
741.2568, 607.2683
741.7389, 609.7993
742.2210, 618.5829
742.7031, 619.9669
743.1852, 612.0642
743.6674, 600.8442
744.1495, 591.1281
744.6316, 583.6946
745.1137, 581.0625
745.5958, 585.1090
746.0779, 590.0997
746.5601, 591.9388
747.0422, 591.9489
747.5243, 591.9275
748.0064, 594.7309
748.4885, 594.4780
748.9706, 588.3902
749.4528, 579.6428
749.9349, 573.3704
750.4170, 569.9525
750.8991, 567.7615
751.3812, 566.4119
751.8633, 566.1528
752.3455, 568.8831
752.8276, 573.7208
753.3097, 576.2789
753.7918, 573.0034
754.2739, 567.8074
754.7560, 563.3636
755.2382, 559.8560
755.7203, 558.0430
756.2024, 560.1453
756.6845, 561.9708
757.1666, 561.0812
757.6487, 558.1199
758.1309, 558.7017
758.6130, 564.9368
759.0951, 569.1779
759.5772, 567.0995
760.0593, 559.9422
760.5414, 553.9161
761.0236, 548.9563
761.5057, 545.4231
761.9878, 544.9606
762.4699, 545.2199
762.9520, 542.5801
763.4341, 536.8028
763.9163, 533.8239
764.3984, 538.4770
764.8805, 544.6234
765.3626, 548.6681
765.8447, 550.3669
766.3268, 550.7543
766.8090, 549.4365
767.2911, 547.6129
767.7732, 545.7581
768.2553, 544.0576
768.7374, 544.1526
769.2195, 546.1905
769.7017, 549.6157
770.1838, 556.7527
770.6659, 563.7888
771.1480, 565.1912
771.6301, 558.5955
772.1122, 550.6424
772.5944, 539.8867
773.0765, 531.1588
773.5586, 529.7275
774.0407, 541.6058
774.5228, 547.3964
775.0049, 544.7401
775.4871, 538.5517
775.9692, 533.9496
776.4513, 531.1781
776.9334, 534.1496
777.4155, 545.8002
777.8976, 556.7660
778.3798, 554.5334
778.8619, 544.6876
779.3440, 536.7459
779.8261, 533.5839
780.3082, 533.0068
780.7903, 536.6200
781.2725, 541.8018
781.7546, 543.8008
782.2367, 540.9020
782.7188, 538.8291
783.2009, 539.1630
783.6830, 540.0887
784.1652, 536.1887
784.6473, 528.4343
785.1294, 524.8735
785.6115, 530.3476
786.0936, 538.8103
786.5757, 544.0690
787.0579, 547.0468
787.5400, 550.0079
788.0221, 555.2923
788.5042, 559.1238
788.9863, 559.2805
789.4684, 557.0031
789.9506, 556.3578
790.4327, 558.4533
790.9148, 558.9868
791.3969, 555.7711
791.8790, 550.7083
792.3611, 550.0032
792.8433, 553.0908
793.3254, 555.8355
793.8075, 555.6931
794.2896, 554.4518
794.7717, 552.9224
795.2538, 551.5590
795.7360, 552.2149
796.2181, 558.0152
796.7002, 563.3499
797.1823, 566.6246
797.6644, 567.8692
798.1465, 566.1599
798.6287, 560.1305
799.1108, 556.6744
799.5929, 561.6064
800.0750, 570.8309
800.5571, 570.1266
801.0392, 560.7678
801.5214, 551.8397
802.0035, 546.9659
802.4856, 546.7017
802.9677, 553.6959
803.4498, 567.4041
803.9319, 578.5513
804.4141, 586.6102
804.8962, 590.1265
805.3783, 587.2408
805.8604, 578.1414
806.3425, 571.5292
806.8246, 567.4033
807.3068, 565.4706
807.7889, 566.4861
808.2710, 569.2992
808.7531, 572.5565
809.2352, 575.9348
809.7173, 576.1756
810.1995, 563.0111
810.6816, 552.6973
811.1637, 559.4825
811.6458, 586.8928
812.1279, 603.6951
812.6100, 605.7059
813.0922, 601.1384
813.5743, 591.1948
814.0564, 576.4797
814.5385, 574.0624
815.0206, 584.5251
815.5027, 595.0048
815.9849, 593.4432
816.4670, 586.9202
816.9491, 586.6555
817.4312, 593.3096
817.9133, 596.3904
818.3954, 584.9179
818.8776, 573.4386
819.3597, 572.5127
819.8418, 584.1843
820.3239, 588.6139
820.8060, 582.7580
821.2881, 576.8740
821.7703, 578.4893
822.2524, 586.3008
822.7345, 594.7460
823.2166, 603.6653
823.6987, 609.0523
824.1808, 604.4888
824.6630, 596.9423
825.1451, 592.6506
825.6272, 592.2439
826.1093, 594.6542
826.5914, 603.2927
827.0735, 611.3181
827.5557, 615.0187
828.0378, 613.8438
828.5199, 615.6512
829.0020, 621.3794
829.4841, 624.4099
829.9662, 616.2153
830.4484, 602.4622
830.9305, 594.5550
831.4126, 593.2445
831.8947, 594.3184
832.3768, 594.8760
832.8589, 597.1918
833.3411, 604.3894
833.8232, 618.7668
834.3053, 625.7001
834.7874, 622.1483
835.2695, 616.3832
835.7516, 613.0427
836.2338, 612.0362
836.7159, 612.7764
837.1980, 615.2930
837.6801, 616.7134
838.1622, 611.2690
838.6443, 605.6300
839.1265, 609.1372
839.6086, 622.8990
840.0907, 632.9950
840.5728, 632.0602
841.0549, 628.9131
841.5370, 627.8571
842.0192, 629.0184
842.5013, 630.3508
842.9834, 632.2212
843.4655, 632.5483
843.9476, 627.3536
844.4298, 620.1007
844.9119, 621.2111
845.3940, 630.1381
845.8762, 635.8312
846.3583, 627.0917
846.8404, 616.3586
847.3225, 612.3430
847.8046, 616.3345
848.2867, 618.3086
848.7689, 616.5210
849.2510, 615.2960
849.7331, 616.8585
850.2152, 620.8619
850.6973, 625.0594
851.1794, 629.4542
851.6616, 633.5940
852.1437, 638.6378
852.6258, 642.3243
853.1079, 641.7843
853.5900, 637.3132
854.0721, 632.3430
854.5543, 623.6237
855.0364, 619.4894
855.5185, 624.6564
856.0006, 637.7328
856.4827, 646.1530
856.9648, 649.3672
857.4470, 651.7424
857.9291, 656.4526
858.4112, 661.4514
858.8933, 661.4832
859.3754, 657.6271
859.8575, 654.4597
860.3397, 655.8326
860.8218, 657.1365
861.3039, 655.8874
861.7860, 652.2920
862.2681, 648.4072
862.7502, 642.5242
863.2324, 640.5172
863.7145, 645.9031
864.1966, 655.2661
864.6787, 657.9089
865.1608, 654.8736
865.6429, 652.5708
866.1251, 654.1934
866.6072, 657.7770
867.0893, 664.7742
867.5714, 672.6404
868.0535, 674.5200
868.5356, 660.5653
869.0178, 651.1263
869.4999, 650.9943
869.9820, 656.6697
870.4641, 659.5272
870.9462, 659.6143
871.4283, 659.2903
871.9105, 659.1401
872.3926, 659.1657
872.8747, 660.5072
873.3568, 661.8573
873.8389, 660.6688
874.3210, 650.4023
874.8032, 644.2847
875.2853, 651.5838
875.7674, 662.1219
876.2495, 660.3475
876.7316, 642.9757
877.2137, 629.5084
877.6959, 622.5873
878.1780, 621.5417
878.6601, 629.6005
879.1422, 642.3027
879.6243, 648.9383
880.1064, 643.8417
880.5886, 639.2019
881.0707, 644.7100
881.5528, 652.1887
882.0349, 651.6300
882.5170, 638.2326
882.9991, 627.5610
883.4813, 619.1910
883.9634, 615.2803
884.4455, 622.3721
884.9276, 636.4122
885.4097, 640.7809
885.8918, 632.6707
886.3740, 622.5971
886.8561, 618.4913
887.3382, 616.1080
887.8203, 611.0789
888.3024, 600.7133
888.7845, 595.3932
889.2667, 596.6967
889.7488, 600.9956
890.2309, 607.6918
890.7130, 616.1025
891.1951, 617.2731
891.6772, 611.0858
892.1594, 605.5026
892.6415, 607.2328
893.1236, 612.1968
893.6057, 618.7500
894.0878, 626.5555
894.5699, 627.1843
895.0521, 610.7504
895.5342, 596.3180
896.0163, 592.0875
896.4984, 596.5175
896.9805, 595.4379
897.4626, 588.8149
897.9448, 585.5401
898.4269, 595.0765
898.9090, 607.8956
899.3911, 612.9145
899.8732, 611.2307
900.3553, 607.1742
900.8375, 598.3582
901.3196, 592.1215
901.8017, 591.6678
902.2838, 594.8593
902.7659, 594.6891
903.2480, 590.4827
903.7302, 590.4457
904.2123, 599.5176
904.6944, 609.9459
905.1765, 609.5129
905.6586, 601.9554
906.1407, 595.2219
906.6229, 589.3728
907.1050, 588.3890
907.5871, 597.5792
908.0692, 610.4566
908.5513, 619.7271
909.0334, 626.2099
909.5156, 623.5750
909.9977, 608.8333
910.4798, 592.1064
910.9619, 585.8882
911.4440, 587.1902
911.9261, 590.1743
912.4083, 593.5734
912.8904, 599.0717
913.3725, 610.7490
913.8546, 622.5013
914.3367, 629.2826
914.8188, 630.1369
915.3010, 629.5950
915.7831, 627.3535
916.2652, 624.8766
916.7473, 624.0125
917.2294, 623.6578
917.7115, 619.8499
918.1937, 612.7551
918.6758, 608.8081
919.1579, 615.1964
919.6400, 622.8173
920.1221, 625.9199
920.6042, 624.6660
921.0864, 625.2198
921.5685, 628.1735
922.0506, 631.0425
922.5327, 632.9112
923.0148, 633.7937
923.4969, 631.6417
923.9791, 628.0105
924.4612, 628.9419
924.9433, 642.6321
925.4254, 656.2607
925.9075, 665.7970
926.3896, 670.0529
926.8718, 666.6033
927.3539, 651.4293
927.8360, 639.4177
928.3181, 632.4051
928.8002, 631.1686
929.2823, 641.3359
929.7645, 658.3795
930.2466, 668.6542
930.7287, 665.3401
931.2108, 662.2177
931.6929, 668.0723
932.1750, 677.6276
932.6572, 684.7963
933.1393, 686.3900
933.6214, 694.0228
934.1035, 710.3323
934.5856, 725.7980
935.0677, 729.3300
935.5499, 725.4803
936.0320, 727.1219
936.5141, 735.3051
936.9962, 744.5613
937.4783, 753.6622
937.9604, 761.1085
938.4426, 764.7299
938.9247, 764.4552
939.4068, 767.6998
939.8889, 775.2827
940.3710, 783.8978
940.8531, 791.7644
941.3353, 799.6591
941.8174, 809.8585
942.2995, 821.9367
942.7816, 834.1835
943.2637, 847.0202
943.7458, 858.4756
944.2280, 865.7405
944.7101, 871.0549
945.1922, 880.7253
945.6743, 896.8679
946.1564, 909.0807
946.6385, 914.1700
947.1207, 917.7761
947.6028, 926.9451
948.0849, 941.7524
948.5670, 964.1591
949.0491, 999.5440
949.5313, 1028.726
950.0134, 1041.140
950.4955, 1044.355
950.9776, 1044.287
951.4597, 1037.562
951.9418, 1042.937
952.4240, 1063.020
952.9061, 1083.739
953.3882, 1088.520
953.8703, 1086.965
954.3524, 1098.707
954.8345, 1123.849
955.3167, 1146.905
955.7988, 1159.646
956.2809, 1169.044
956.7630, 1176.656
957.2451, 1183.396
957.7272, 1195.526
958.2094, 1213.679
958.6915, 1232.635
959.1736, 1250.774
959.6557, 1268.258
960.1378, 1285.663
960.6199, 1302.457
961.1021, 1318.194
961.5842, 1329.047
962.0663, 1343.522
962.5484, 1364.607
963.0305, 1389.323
963.5126, 1414.858
963.9948, 1441.746
964.4769, 1461.921
964.9590, 1472.808
965.4411, 1486.219
965.9232, 1515.750
966.4053, 1554.184
966.8875, 1593.733
967.3696, 1633.001
967.8517, 1672.484
968.3338, 1712.072
968.8159, 1751.051
969.2980, 1786.725
969.7802, 1820.368
970.2623, 1864.674
970.7444, 1919.595
971.2265, 1976.218
971.7086, 2025.724
972.1907, 2076.740
972.6729, 2131.450
973.1550, 2193.064
973.6371, 2270.865
974.1192, 2370.010
974.6013, 2478.357
975.0834, 2591.691
975.5656, 2714.957
976.0477, 2853.317
976.5298, 3008.882
977.0119, 3190.054
977.4940, 3395.687
977.9761, 3636.421
978.4583, 3906.576
978.9404, 4222.334
979.4225, 4600.871
979.9046, 5048.450
980.3867, 5534.589
980.8688, 6053.643
981.3510, 6620.281
981.8331, 7247.525
982.3152, 7933.537
982.7973, 8657.771
983.2794, 9424.146
983.7615, 10246.31
984.2437, 11153.17
984.7258, 12096.23
985.2079, 13052.75
985.6900, 14026.47
986.1721, 15036.75
986.6542, 16092.21
987.1364, 17166.22
987.6185, 18290.04
988.1006, 19367.82
988.5827, 20325.85
989.0648, 21120.40
989.5469, 21684.84
990.0291, 22098.92
990.5112, 22081.31
990.9933, 21523.04
991.4754, 20549.97
991.9575, 19186.67
992.4396, 17416.54
992.9218, 15621.35
993.4039, 13800.22
993.8860, 12066.10
994.3681, 10470.05
994.8502, 9030.344
995.3323, 7774.499
995.8145, 6697.955
996.2966, 5793.121
996.7787, 5076.989
997.2608, 4466.474
997.7429, 3951.897
998.2250, 3523.343
998.7072, 3156.812
999.1893, 2851.234
999.6714, 2587.968
1000.154, 2370.361
1000.636, 2181.220
1001.118, 2010.639
1001.600, 1864.035
1002.082, 1744.028
1002.564, 1657.350
1003.046, 1578.250
1003.528, 1507.606
1004.010, 1442.319
1004.493, 1381.476
1004.975, 1323.802
1005.457, 1266.941
1005.939, 1210.694
1006.421, 1164.409
1006.903, 1138.411
1007.385, 1116.863
1007.867, 1092.765
1008.349, 1067.677
1008.832, 1050.118
1009.314, 1040.372
1009.796, 1029.845
1010.278, 1014.737
1010.760, 999.5358
1011.242, 987.3536
1011.724, 978.9984
1012.206, 976.2540
1012.689, 988.2845
1013.171, 989.9752
1013.653, 975.3712
1014.135, 958.8192
1014.617, 954.2470
1015.099, 959.2208
1015.581, 962.3960
1016.063, 963.2115
1016.545, 961.7448
1017.028, 960.2745
1017.510, 954.5059
1017.992, 939.7819
1018.474, 917.5627
1018.956, 896.3378
1019.438, 875.0506
1019.920, 859.7867
1020.402, 854.0798
1020.885, 852.1213
1021.367, 843.3789
1021.849, 832.1291
1022.331, 827.1916
1022.813, 835.7108
1023.295, 840.5454
1023.777, 835.6492
1024.259, 827.4600
1024.741, 820.3034
1025.224, 814.1571
1025.706, 807.9638
1026.188, 801.6605
1026.670, 792.8051
1027.152, 777.0491
1027.634, 760.1832
1028.116, 746.2514
1028.598, 735.3674
1029.080, 726.1730
1029.563, 718.6978
1030.045, 712.8524
1030.527, 710.0236
1031.009, 706.3443
1031.491, 693.4308
1031.973, 674.7054
1032.455, 657.2623
1032.937, 641.3225
1033.420, 631.9836
1033.902, 638.7928
1034.384, 646.7661
1034.866, 643.8320
1035.348, 629.2344
1035.830, 622.8262
1036.312, 624.7347
1036.794, 629.5215
1037.276, 637.7012
1037.759, 643.9035
1038.241, 638.0088
1038.723, 625.1602
1039.205, 621.8062
1039.687, 637.9316
1040.169, 651.2040
1040.651, 658.1955
1041.133, 662.1781
1041.615, 667.0884
1042.098, 672.9915
1042.580, 679.6838
1043.062, 687.0531
1043.544, 696.0309
1044.026, 708.2933
1044.508, 721.2037
1044.990, 733.1220
1045.472, 744.0579
1045.955, 756.6094
1046.437, 770.9135
1046.919, 782.2144
1047.401, 787.1223
1047.883, 788.9492
1048.365, 788.7607
1048.847, 788.9631
1049.329, 794.1972
1049.812, 812.3179
1050.294, 825.9120
1050.776, 834.5680
1051.258, 838.0248
1051.740, 834.3032
1052.222, 825.1216
1052.704, 816.2819
1053.186, 808.2090
1053.668, 801.2234
1054.151, 796.8422
1054.633, 792.2122
1055.115, 787.2623
1055.597, 780.8679
1056.079, 765.9982
1056.561, 741.5668
1057.043, 723.4144
1057.525, 718.2302
1058.007, 716.6332
1058.490, 708.6801
1058.972, 697.2074
1059.454, 685.6857
1059.936, 674.0967
1060.418, 664.5773
1060.900, 657.8477
1061.382, 651.7997
1061.864, 643.6166
1062.347, 635.0249
1062.829, 633.5455
1063.311, 637.6906
1063.793, 639.7155
1064.275, 633.0576
1064.757, 626.3979
1065.239, 622.9625
1065.721, 621.7203
1066.203, 621.5380
1066.686, 622.4830
1067.168, 622.4675
1067.650, 621.0015
1068.132, 619.8924
1068.614, 621.9171
1069.096, 624.3873
1069.578, 623.3621
1070.060, 617.9733
1070.542, 619.6414
1071.025, 632.3251
1071.507, 642.3779
1071.989, 643.7125
1072.471, 639.9974
1072.953, 636.5051
1073.435, 634.3453
1073.917, 636.2679
1074.399, 644.9494
1074.882, 654.9290
1075.364, 665.0070
1075.846, 675.7299
1076.328, 689.5989
1076.810, 706.1996
1077.292, 711.7236
1077.774, 706.4980
1078.256, 704.8153
1078.739, 719.2969
1079.221, 738.1795
1079.703, 753.7938
1080.185, 766.6821
1080.667, 779.9455
1081.149, 792.9875
1081.631, 808.2471
1082.113, 825.7000
1082.595, 846.9423
1083.078, 876.3701
1083.560, 909.1796
1084.042, 938.0370
1084.524, 961.1846
1085.006, 985.3951
1085.488, 1011.772
1085.970, 1039.409
1086.452, 1065.892
1086.934, 1094.589
1087.417, 1138.331
1087.899, 1194.659
1088.381, 1254.552
1088.863, 1314.709
1089.345, 1377.256
1089.827, 1441.966
1090.309, 1510.818
1090.791, 1585.602
1091.274, 1667.230
1091.756, 1747.196
1092.238, 1825.305
1092.720, 1903.236
1093.202, 1975.584
1093.684, 2054.247
1094.166, 2156.313
1094.648, 2273.847
1095.130, 2374.708
1095.613, 2450.055
1096.095, 2534.029
1096.577, 2638.185
1097.059, 2736.530
1097.541, 2782.606
1098.023, 2802.301
1098.505, 2845.593
1098.987, 2925.498
1099.470, 2968.897
1099.952, 2932.804
1100.434, 2894.063
1100.916, 2889.241
1101.398, 2898.968
1101.880, 2858.444
1102.362, 2775.407
1102.844, 2677.501
1103.327, 2565.148
1103.809, 2458.472
1104.291, 2372.796
1104.773, 2291.840
1105.255, 2198.755
1105.737, 2090.299
1106.219, 1998.965
1106.701, 1924.250
1107.183, 1848.293
1107.666, 1750.068
1108.148, 1652.005
1108.630, 1572.483
1109.112, 1508.269
1109.594, 1448.543
1110.076, 1392.394
1110.558, 1338.593
1111.040, 1285.513
1111.522, 1238.391
1112.005, 1205.889
1112.487, 1181.475
1112.969, 1155.155
1113.451, 1126.124
1113.933, 1102.163
1114.415, 1086.381
1114.897, 1073.518
1115.379, 1062.230
1115.862, 1052.817
1116.344, 1048.321
1116.826, 1046.422
1117.308, 1039.389
1117.790, 1022.587
1118.272, 1009.193
1118.754, 1005.154
1119.236, 1006.322
1119.719, 1010.376
1120.201, 1017.324
1120.683, 1030.221
1121.165, 1048.007
1121.647, 1060.446
1122.129, 1053.967
1122.611, 1049.988
1123.093, 1065.296
1123.575, 1089.973
1124.057, 1110.175
1124.540, 1127.150
1125.022, 1127.972
1125.504, 1109.855
1125.986, 1098.656
1126.468, 1128.602
1126.950, 1166.314
1127.432, 1175.524
1127.914, 1160.971
1128.397, 1152.562
1128.879, 1156.091
1129.361, 1156.003
1129.843, 1149.130
1130.325, 1139.128
1130.807, 1130.666
1131.289, 1122.388
1131.771, 1113.671
1132.254, 1104.784
1132.736, 1087.339
1133.218, 1053.745
1133.700, 1021.316
1134.182, 996.8055
1134.664, 976.3940
1135.146, 948.1448
1135.628, 915.6902
1136.110, 891.1816
1136.593, 881.6517
1137.075, 870.3214
1137.557, 850.0814
1138.039, 826.3350
1138.521, 801.2318
1139.003, 775.1880
1139.485, 755.0789
1139.967, 740.2886
1140.449, 727.6721
1140.932, 716.8304
1141.414, 706.0344
1141.896, 696.3741
1142.378, 685.0167
1142.860, 666.1567
1143.342, 638.2321
1143.824, 623.8149
1144.306, 624.2511
1144.789, 627.3223
1145.271, 623.5352
1145.753, 618.7415
1146.235, 620.1188
1146.717, 624.2859
1147.199, 618.0112
1147.681, 597.5629
1148.163, 580.9515
1148.646, 569.1069
1149.128, 569.9487
1149.610, 614.3430
1150.092, 661.5305
1150.574, 655.7504
1151.056, 592.6478
1151.538, 554.2432
1152.020, 552.5583
1152.502, 555.1266
1152.984, 553.2368
1153.467, 548.8989
1153.949, 544.3287
1154.431, 539.8250
1154.913, 535.4312
1155.395, 530.1375
1155.877, 530.1132
1156.359, 540.1547
1156.841, 546.7625
1157.324, 541.5092
1157.806, 529.4971
1158.288, 523.4733
1158.770, 521.8046
1159.252, 520.0816
1159.734, 516.0821
1160.216, 513.0712
1160.698, 512.0387
1161.181, 511.6032
1161.663, 511.5330
1162.145, 511.2646
1162.627, 505.9912
1163.109, 496.9604
1163.591, 491.0955
1164.073, 497.4361
1164.555, 500.7366
1165.037, 493.3392
1165.520, 482.5463
1166.002, 476.9149
1166.484, 475.9993
1166.966, 475.4206
1167.448, 474.8313
1167.930, 473.3176
1168.412, 469.7996
1168.894, 465.6783
1169.376, 459.9625
1169.859, 454.7791
1170.341, 456.5291
1170.823, 465.0353
1171.305, 466.7683
1171.787, 458.5128
1172.269, 452.9115
1172.751, 466.7830
1173.233, 481.6895
1173.716, 479.8963
1174.198, 465.5218
1174.680, 462.8087
1175.162, 472.4702
1175.644, 477.2365
1176.126, 470.9910
1176.608, 462.5855
1177.090, 459.5861
1177.573, 459.2062
1178.055, 458.4076
1178.537, 456.8720
1179.019, 458.7427
1179.501, 464.8691
1179.983, 466.4802
1180.465, 457.2002
1180.947, 445.8567
1181.429, 441.6740
1181.911, 442.0591
1182.394, 443.6395
1182.876, 446.3211
1183.358, 449.0304
1183.840, 452.0422
1184.322, 453.7014
1184.804, 451.7980
1185.286, 448.8846
1185.768, 447.6469
1186.251, 448.0165
1186.733, 450.1305
1187.215, 455.5756
1187.697, 458.9433
1188.179, 459.7391
1188.661, 459.8313
1189.143, 462.1838
1189.625, 463.8937
1190.108, 458.8409
1190.590, 449.3479
1191.072, 444.2491
1191.554, 447.7166
1192.036, 450.3411
1192.518, 451.0547
1193.000, 451.1035
1193.482, 452.2907
1193.964, 453.4925
1194.447, 452.2679
1194.929, 448.9070
1195.411, 447.4335
1195.893, 450.4040
1196.375, 451.7156
1196.857, 450.1188
1197.339, 446.6383
1197.821, 441.4435
1198.303, 435.9686
1198.786, 432.6059
1199.268, 431.6684
1199.750, 432.4649
1200.232, 435.9235
1200.714, 438.9221
1201.196, 440.6109
1201.678, 441.3638
1202.160, 442.2749
1202.643, 442.6027
1203.125, 439.9590
1203.607, 432.8001
1204.089, 430.1663
1204.571, 436.1581
1205.053, 441.4924
1205.535, 442.2733
1206.017, 440.3608
1206.500, 438.1852
1206.982, 436.7993
1207.464, 439.1302
1207.946, 448.3735
1208.428, 453.5725
1208.910, 452.1361
1209.392, 448.9684
1209.874, 446.4460
1210.356, 444.2116
1210.839, 440.8479
1211.321, 437.0247
1211.803, 434.3996
1212.285, 433.3736
1212.767, 434.3391
1213.249, 439.5299
1213.731, 442.2747
1214.213, 434.8492
1214.695, 422.3828
1215.178, 419.2971
1215.660, 423.5888
1216.142, 429.2197
1216.624, 435.6796
1217.106, 440.9746
1217.588, 445.3785
1218.070, 447.8538
1218.552, 446.5461
1219.035, 442.9060
1219.517, 439.5932
1219.999, 437.1889
1220.481, 437.6415
1220.963, 446.8149
1221.445, 451.0919
1221.927, 447.7001
1222.409, 441.1679
1222.891, 434.4900
1223.374, 428.9645
1223.856, 428.5522
1224.338, 432.5991
1224.820, 436.1357
1225.302, 437.1744
1225.784, 437.9098
1226.266, 438.6873
1226.748, 439.1822
1227.230, 439.7978
1227.713, 439.5142
1228.195, 434.3002
1228.677, 424.7111
1229.159, 420.5893
1229.641, 429.2369
1230.123, 435.9017
1230.605, 437.4786
1231.087, 437.0113
1231.570, 438.7923
1232.052, 441.6890
1232.534, 444.3062
1233.016, 446.3808
1233.498, 445.3640
1233.980, 438.3329
1234.462, 433.6767
1234.944, 433.7909
1235.427, 436.6340
1235.909, 441.1101
1236.391, 445.3057
1236.873, 445.4026
1237.355, 440.5628
1237.837, 437.6533
1238.319, 437.8092
1238.801, 438.6268
1239.283, 439.7831
1239.766, 440.3181
1240.248, 436.7761
1240.730, 432.5604
1241.212, 433.6503
1241.694, 442.1855
1242.176, 446.6419
1242.658, 446.2163
1243.140, 442.8160
1243.622, 435.9352
1244.105, 428.8629
1244.587, 425.8696
1245.069, 425.5097
1245.551, 425.9537
1246.033, 427.0652
1246.515, 428.2697
1246.997, 429.4236
1247.479, 431.5186
1247.962, 435.3086
1248.444, 439.5990
1248.926, 445.6696
1249.408, 449.8627
1249.890, 445.5808
1250.372, 430.1054
1250.854, 422.2756
1251.336, 422.6861
1251.818, 425.2367
1252.301, 427.2256
1252.783, 429.6448
1253.265, 433.6827
1253.747, 438.6493
1254.229, 444.8711
1254.711, 453.6919
1255.193, 450.4855
1255.675, 435.0235
1256.157, 422.1104
1256.640, 419.7822
1257.122, 422.7684
1257.604, 431.0743
1258.086, 439.9676
1258.568, 443.3934
1259.050, 440.9188
1259.532, 439.2272
1260.014, 438.3598
1260.497, 439.0276
1260.979, 443.4847
1261.461, 447.3616
1261.943, 447.9284
1262.425, 446.7833
1262.907, 445.0448
1263.389, 442.7560
1263.871, 443.2050
1264.354, 445.9804
1264.836, 447.8060
1265.318, 447.4172
1265.800, 444.9362
1266.282, 436.4930
1266.764, 429.7783
1267.246, 434.0231
1267.728, 446.8077
1268.210, 454.0795
1268.693, 455.7187
1269.175, 453.1504
1269.657, 441.4134
1270.139, 433.4208
1270.621, 431.4477
1271.103, 433.8851
1271.585, 442.1546
1272.067, 452.8966
1272.549, 454.0426
1273.032, 447.6742
1273.514, 443.8562
1273.996, 451.6676
1274.478, 453.3284
1274.960, 444.3262
1275.442, 435.3408
1275.924, 440.1026
1276.406, 450.5175
1276.889, 451.6440
1277.371, 445.1322
1277.853, 439.3556
1278.335, 436.2510
1278.817, 433.0954
1279.299, 429.2028
1279.781, 427.3318
1280.263, 431.7391
1280.745, 438.4491
1281.228, 444.3763
1281.710, 448.5308
1282.192, 448.1607
1282.674, 441.9630
1283.156, 436.4979
1283.638, 432.1934
1284.120, 429.8161
1284.602, 429.7557
1285.084, 432.0293
1285.567, 439.3729
1286.049, 448.3347
1286.531, 450.5982
1287.013, 445.7400
1287.495, 439.6707
1287.977, 432.8623
1288.459, 427.6215
1288.941, 425.8972
1289.424, 425.9339
1289.906, 428.1857
1290.388, 430.6886
1290.870, 429.5882
1291.352, 425.6759
1291.834, 425.4358
1292.316, 429.1985
1292.798, 433.5865
1293.281, 437.8614
1293.763, 441.0111
1294.245, 443.0865
1294.727, 443.6886
1295.209, 441.2611
1295.691, 437.1326
1296.173, 436.0298
1296.655, 437.6767
1297.137, 436.7772
1297.620, 424.1927
1298.102, 420.6569
1298.584, 431.3110
1299.066, 445.7298
1299.548, 453.5210
1300.030, 455.7298
1300.512, 451.5632
1300.994, 442.5721
1301.476, 437.7882
1301.959, 439.6994
1302.441, 440.4427
1302.923, 438.8419
1303.405, 436.8361
1303.887, 436.8247
1304.369, 436.9190
1304.851, 434.7721
1305.333, 431.0955
1305.816, 428.4055
1306.298, 426.5121
##END=



