##NAMES=Augelite
##RRUFFID=R050100
##IDEAL CHEMISTRY=Al_2_PO_4_(OH)_3_
##LOCALITY=Rapid Creek, Yukon Territory, Canada
##OWNER=RRUFF
##SOURCE=Rock Currier
##DESCRIPTION=Pale green thick tabular crystals
##STATUS=The identification of this mineral has been confirmed by X-ray diffraction and chemical analysis
##URL=rruff.info/R050100
##MEASURED CHEMISTRY=Al_2.00_(P_1.00_O_4_)(OH_0.98_F_0.02_)_3_
139.2989, 4188.042
139.7810, 4264.056
140.2631, 4348.256
140.7453, 4429.638
141.2274, 4506.203
141.7095, 4582.391
142.1916, 4655.137
142.6737, 4723.470
143.1558, 4806.481
143.6380, 4902.229
144.1201, 5014.660
144.6022, 5153.833
145.0843, 5343.636
145.5664, 5478.774
146.0485, 5581.175
146.5307, 5630.729
147.0128, 5696.569
147.4949, 5781.715
147.9770, 5882.436
148.4591, 5986.621
148.9412, 6103.192
149.4234, 6216.613
149.9055, 6320.134
150.3876, 6401.335
150.8697, 6488.125
151.3518, 6576.988
151.8339, 6669.809
152.3161, 6778.236
152.7982, 6920.720
153.2803, 7070.570
153.7624, 7209.514
154.2445, 7329.894
154.7266, 7444.785
155.2087, 7555.292
155.6909, 7660.138
156.1730, 7766.103
156.6551, 7877.838
157.1372, 7990.016
157.6193, 8097.916
158.1014, 8197.702
158.5836, 8293.626
159.0657, 8391.677
159.5478, 8498.873
160.0299, 8585.453
160.5120, 8643.945
160.9941, 8674.144
161.4763, 8675.500
161.9584, 8640.208
162.4405, 8580.708
162.9226, 8505.418
163.4047, 8415.540
163.8868, 8311.314
164.3690, 8190.213
164.8511, 8053.664
165.3332, 7907.311
165.8153, 7755.761
166.2974, 7595.745
166.7795, 7423.678
167.2617, 7225.621
167.7438, 7024.854
168.2259, 6833.792
168.7080, 6653.950
169.1901, 6482.684
169.6722, 6317.444
170.1544, 6159.868
170.6365, 6012.762
171.1186, 5878.443
171.6007, 5755.053
172.0828, 5636.920
172.5649, 5523.515
173.0471, 5416.255
173.5292, 5315.789
174.0113, 5222.803
174.4934, 5140.347
174.9755, 5084.136
175.4576, 5036.599
175.9397, 4966.438
176.4219, 4859.966
176.9040, 4752.067
177.3861, 4686.984
177.8682, 4659.818
178.3503, 4638.871
178.8324, 4604.527
179.3146, 4560.457
179.7967, 4513.824
180.2788, 4465.467
180.7609, 4417.338
181.2430, 4371.868
181.7251, 4329.443
182.2073, 4292.318
182.6894, 4266.084
183.1715, 4248.203
183.6536, 4229.153
184.1357, 4205.642
184.6178, 4179.032
185.1000, 4149.355
185.5821, 4115.277
186.0642, 4086.268
186.5463, 4074.870
187.0284, 4079.785
187.5105, 4087.196
187.9927, 4095.456
188.4748, 4102.730
188.9569, 4096.895
189.4390, 4074.518
189.9211, 4048.311
190.4032, 4040.986
190.8854, 4053.061
191.3675, 4059.637
191.8496, 4041.727
192.3317, 4001.740
192.8138, 3976.262
193.2959, 3971.612
193.7781, 3976.717
194.2602, 3963.090
194.7423, 3926.865
195.2244, 3900.640
195.7065, 3916.343
196.1886, 3975.770
196.6708, 4010.527
197.1529, 4006.764
197.6350, 3975.424
198.1171, 3951.525
198.5992, 3935.853
199.0813, 3924.901
199.5634, 3914.304
200.0456, 3902.973
200.5277, 3902.096
201.0098, 3918.170
201.4919, 3947.866
201.9740, 3961.989
202.4561, 3955.354
202.9383, 3944.598
203.4204, 3948.740
203.9025, 3971.277
204.3846, 3992.784
204.8667, 4006.175
205.3488, 4011.384
205.8310, 4025.931
206.3131, 4052.626
206.7952, 4084.433
207.2773, 4112.666
207.7594, 4138.003
208.2415, 4157.521
208.7237, 4166.215
209.2058, 4160.225
209.6879, 4170.188
210.1700, 4199.845
210.6521, 4242.293
211.1342, 4286.904
211.6164, 4337.541
212.0985, 4380.310
212.5806, 4404.467
213.0627, 4398.806
213.5448, 4414.406
214.0269, 4458.982
214.5091, 4522.718
214.9912, 4576.601
215.4733, 4612.912
215.9554, 4652.517
216.4375, 4710.845
216.9196, 4798.473
217.4018, 4868.902
217.8839, 4907.832
218.3660, 4925.933
218.8481, 4978.692
219.3302, 5079.057
219.8123, 5194.102
220.2945, 5298.711
220.7766, 5382.924
221.2587, 5481.112
221.7408, 5601.855
222.2229, 5743.674
222.7050, 5874.327
223.1871, 5998.930
223.6693, 6107.786
224.1514, 6198.448
224.6335, 6286.012
225.1156, 6322.377
225.5977, 6294.962
226.0798, 6203.206
226.5620, 6082.962
227.0441, 5920.089
227.5262, 5744.020
228.0083, 5583.948
228.4904, 5448.525
228.9725, 5314.722
229.4547, 5172.371
229.9368, 5016.430
230.4189, 4892.041
230.9010, 4808.484
231.3831, 4748.330
231.8652, 4687.152
232.3474, 4616.884
232.8295, 4557.589
233.3116, 4515.492
233.7937, 4491.740
234.2758, 4480.580
234.7579, 4490.995
235.2401, 4509.246
235.7222, 4509.616
236.2043, 4478.619
236.6864, 4450.746
237.1685, 4439.189
237.6507, 4451.612
238.1328, 4458.046
238.6149, 4451.908
239.0970, 4442.036
239.5791, 4449.738
240.0612, 4484.733
240.5434, 4523.182
241.0255, 4555.251
241.5076, 4579.671
241.9897, 4600.888
242.4718, 4616.575
242.9539, 4629.559
243.4360, 4648.761
243.9182, 4678.687
244.4003, 4708.577
244.8824, 4731.493
245.3645, 4738.265
245.8466, 4757.863
246.3287, 4791.599
246.8109, 4839.072
247.2930, 4899.920
247.7751, 4978.464
248.2572, 5063.392
248.7393, 5149.936
249.2214, 5242.354
249.7036, 5324.877
250.1857, 5396.500
250.6678, 5456.847
251.1499, 5509.252
251.6320, 5561.366
252.1141, 5595.138
252.5963, 5596.721
253.0784, 5558.900
253.5605, 5505.637
254.0426, 5440.305
254.5247, 5362.492
255.0068, 5259.605
255.4890, 5116.195
255.9711, 4968.600
256.4532, 4842.398
256.9353, 4738.286
257.4174, 4653.997
257.8995, 4592.741
258.3817, 4553.202
258.8638, 4508.243
259.3459, 4452.500
259.8280, 4398.867
260.3101, 4358.617
260.7922, 4335.373
261.2744, 4316.841
261.7565, 4303.470
262.2386, 4294.569
262.7207, 4276.832
263.2028, 4245.481
263.6849, 4212.032
264.1671, 4186.553
264.6492, 4168.751
265.1313, 4160.817
265.6134, 4167.046
266.0955, 4186.671
266.5776, 4195.975
267.0598, 4191.205
267.5419, 4182.209
268.0240, 4180.441
268.5061, 4188.274
268.9882, 4194.758
269.4703, 4197.127
269.9525, 4195.485
270.4346, 4192.196
270.9167, 4186.676
271.3988, 4180.699
271.8809, 4174.729
272.3630, 4167.404
272.8452, 4167.753
273.3273, 4182.742
273.8094, 4211.418
274.2915, 4226.683
274.7736, 4225.655
275.2557, 4217.640
275.7379, 4215.268
276.2200, 4219.696
276.7021, 4220.736
277.1842, 4210.490
277.6663, 4190.658
278.1484, 4191.509
278.6305, 4219.368
279.1126, 4251.383
279.5948, 4252.124
280.0769, 4219.172
280.5590, 4189.747
281.0411, 4179.811
281.5232, 4187.271
282.0053, 4188.932
282.4875, 4183.251
282.9696, 4176.450
283.4517, 4177.979
283.9338, 4187.839
284.4159, 4197.317
284.8980, 4205.342
285.3802, 4210.900
285.8623, 4204.151
286.3444, 4182.397
286.8265, 4158.918
287.3086, 4152.158
287.7907, 4161.082
288.2729, 4172.348
288.7550, 4180.340
289.2371, 4186.026
289.7192, 4191.182
290.2013, 4194.650
290.6834, 4202.839
291.1656, 4229.568
291.6477, 4271.145
292.1298, 4305.534
292.6119, 4316.451
293.0940, 4312.787
293.5761, 4318.230
294.0583, 4333.947
294.5404, 4354.807
295.0225, 4379.674
295.5046, 4406.392
295.9867, 4426.123
296.4688, 4431.696
296.9510, 4428.420
297.4331, 4427.506
297.9152, 4430.078
298.3973, 4428.954
298.8794, 4415.937
299.3615, 4393.381
299.8437, 4367.334
300.3258, 4328.682
300.8079, 4292.946
301.2900, 4286.118
301.7721, 4312.110
302.2542, 4341.893
302.7364, 4346.728
303.2185, 4336.181
303.7006, 4329.900
304.1827, 4342.020
304.6648, 4360.074
305.1469, 4371.845
305.6291, 4376.565
306.1112, 4377.035
306.5933, 4369.077
307.0754, 4358.906
307.5575, 4357.127
308.0396, 4377.075
308.5218, 4401.423
309.0039, 4415.075
309.4860, 4416.495
309.9681, 4419.600
310.4502, 4438.197
310.9323, 4462.468
311.4145, 4478.720
311.8966, 4471.629
312.3787, 4462.933
312.8608, 4462.448
313.3429, 4470.519
313.8250, 4491.108
314.3072, 4544.717
314.7893, 4606.041
315.2714, 4645.829
315.7535, 4633.644
316.2356, 4616.110
316.7177, 4609.364
317.1999, 4614.231
317.6820, 4630.835
318.1641, 4669.594
318.6462, 4715.877
319.1283, 4754.834
319.6104, 4783.113
320.0926, 4803.613
320.5747, 4812.902
321.0568, 4810.251
321.5389, 4815.008
322.0210, 4837.512
322.5031, 4865.742
322.9852, 4889.087
323.4673, 4905.247
323.9495, 4918.112
324.4316, 4926.416
324.9137, 4930.011
325.3958, 4937.433
325.8779, 4958.170
326.3600, 4977.486
326.8422, 4984.318
327.3243, 4958.854
327.8064, 4946.199
328.2885, 4960.997
328.7706, 5001.162
329.2527, 5014.597
329.7349, 4982.204
330.2170, 4940.592
330.6991, 4914.858
331.1812, 4913.431
331.6633, 4912.006
332.1454, 4906.879
332.6276, 4899.162
333.1097, 4897.854
333.5918, 4908.325
334.0739, 4916.963
334.5560, 4912.461
335.0381, 4888.440
335.5203, 4874.300
336.0024, 4879.557
336.4845, 4895.405
336.9666, 4883.815
337.4487, 4835.112
337.9308, 4787.354
338.4130, 4769.112
338.8951, 4783.341
339.3772, 4793.071
339.8593, 4794.486
340.3414, 4789.833
340.8235, 4778.523
341.3057, 4758.090
341.7878, 4752.583
342.2699, 4791.537
342.7520, 4868.628
343.2341, 4909.005
343.7162, 4897.472
344.1984, 4864.503
344.6805, 4865.214
345.1626, 4897.521
345.6447, 4928.546
346.1268, 4935.592
346.6089, 4926.428
347.0911, 4924.414
347.5732, 4932.699
348.0553, 4943.057
348.5374, 4942.751
349.0195, 4934.910
349.5016, 4931.202
349.9838, 4940.037
350.4659, 4956.205
350.9480, 4973.063
351.4301, 4990.835
351.9122, 5006.464
352.3943, 5015.167
352.8765, 5019.745
353.3586, 5026.004
353.8407, 5035.906
354.3228, 5048.952
354.8049, 5062.951
355.2870, 5077.470
355.7692, 5099.309
356.2513, 5138.673
356.7334, 5186.410
357.2155, 5230.493
357.6976, 5261.105
358.1797, 5291.135
358.6619, 5327.329
359.1440, 5369.760
359.6261, 5415.174
360.1082, 5459.467
360.5903, 5507.332
361.0724, 5563.008
361.5546, 5627.899
362.0367, 5700.367
362.5188, 5781.643
363.0009, 5871.246
363.4830, 5964.711
363.9651, 6067.165
364.4473, 6169.392
364.9294, 6266.034
365.4115, 6379.510
365.8936, 6459.368
366.3757, 6499.924
366.8578, 6503.250
367.3399, 6479.660
367.8221, 6420.063
368.3042, 6341.985
368.7863, 6252.374
369.2684, 6147.533
369.7505, 6036.485
370.2326, 5918.403
370.7148, 5795.936
371.1969, 5675.679
371.6790, 5551.883
372.1611, 5442.864
372.6432, 5359.016
373.1253, 5307.334
373.6075, 5253.915
374.0896, 5195.993
374.5717, 5140.034
375.0538, 5098.754
375.5359, 5075.234
376.0180, 5050.456
376.5002, 5012.952
376.9823, 4964.076
377.4644, 4931.320
377.9465, 4917.961
378.4286, 4910.774
378.9107, 4890.253
379.3929, 4857.650
379.8750, 4835.014
380.3571, 4835.654
380.8392, 4850.116
381.3213, 4850.422
381.8034, 4835.960
382.2856, 4819.671
382.7677, 4809.909
383.2498, 4807.486
383.7319, 4816.123
384.2140, 4847.620
384.6961, 4880.206
385.1783, 4880.261
385.6604, 4851.637
386.1425, 4825.391
386.6246, 4826.787
387.1067, 4840.981
387.5888, 4848.431
388.0710, 4840.083
388.5531, 4831.551
389.0352, 4834.065
389.5173, 4845.412
389.9994, 4859.043
390.4815, 4874.002
390.9637, 4888.701
391.4458, 4902.244
391.9279, 4914.775
392.4100, 4925.161
392.8921, 4930.137
393.3742, 4932.826
393.8564, 4938.764
394.3385, 4947.660
394.8206, 4961.340
395.3027, 4983.608
395.7848, 5019.730
396.2669, 5044.187
396.7491, 5029.418
397.2312, 5011.496
397.7133, 5033.164
398.1954, 5139.365
398.6775, 5228.796
399.1596, 5277.886
399.6418, 5285.445
400.1239, 5304.817
400.6060, 5343.974
401.0881, 5386.372
401.5702, 5416.052
402.0523, 5423.969
402.5345, 5445.023
403.0166, 5486.863
403.4987, 5545.110
403.9808, 5603.324
404.4629, 5662.884
404.9450, 5715.221
405.4272, 5754.390
405.9093, 5780.251
406.3914, 5795.872
406.8735, 5799.758
407.3556, 5796.202
407.8377, 5793.910
408.3199, 5792.548
408.8020, 5785.807
409.2841, 5770.177
409.7662, 5746.438
410.2483, 5716.537
410.7304, 5680.485
411.2126, 5640.390
411.6946, 5587.874
412.1768, 5532.399
412.6589, 5497.083
413.1410, 5506.330
413.6231, 5533.409
414.1052, 5550.206
414.5873, 5556.612
415.0695, 5564.092
415.5516, 5584.895
416.0337, 5609.356
416.5158, 5625.979
416.9979, 5624.108
417.4800, 5620.853
417.9622, 5620.173
418.4443, 5623.407
418.9264, 5637.336
419.4085, 5679.410
419.8906, 5722.714
420.3727, 5749.958
420.8549, 5746.979
421.3370, 5746.254
421.8191, 5757.358
422.3012, 5773.845
422.7833, 5780.115
423.2654, 5768.563
423.7476, 5753.574
424.2297, 5738.386
424.7118, 5721.681
425.1939, 5709.649
425.6760, 5703.898
426.1581, 5701.733
426.6403, 5700.680
427.1224, 5702.965
427.6045, 5700.618
428.0866, 5690.234
428.5687, 5672.792
429.0508, 5657.781
429.5330, 5643.325
430.0151, 5637.639
430.4972, 5654.206
430.9793, 5691.888
431.4614, 5717.073
431.9435, 5719.100
432.4257, 5710.127
432.9078, 5717.543
433.3899, 5740.144
433.8720, 5761.090
434.3541, 5763.032
434.8362, 5756.104
435.3184, 5761.906
435.8005, 5784.199
436.2826, 5813.826
436.7647, 5848.980
437.2468, 5885.048
437.7289, 5910.709
438.2111, 5913.733
438.6932, 5909.537
439.1753, 5911.997
439.6574, 5922.268
440.1395, 5926.487
440.6216, 5907.596
441.1038, 5883.092
441.5859, 5871.186
442.0680, 5893.149
442.5501, 5911.195
443.0322, 5914.478
443.5143, 5904.183
443.9965, 5889.134
444.4786, 5859.062
444.9607, 5833.021
445.4428, 5820.831
445.9249, 5831.313
446.4070, 5841.552
446.8892, 5854.487
447.3713, 5866.229
447.8534, 5867.413
448.3355, 5851.222
448.8176, 5837.578
449.2997, 5832.618
449.7819, 5836.607
450.2640, 5849.493
450.7461, 5875.237
451.2282, 5901.629
451.7103, 5913.267
452.1924, 5909.907
452.6746, 5904.103
453.1567, 5896.486
453.6388, 5890.056
454.1209, 5894.333
454.6030, 5909.165
455.0851, 5926.114
455.5673, 5940.356
456.0494, 5951.838
456.5315, 5961.545
457.0136, 5970.639
457.4957, 5974.903
457.9778, 5971.871
458.4599, 5961.018
458.9420, 5940.854
459.4242, 5903.229
459.9063, 5861.160
460.3884, 5823.332
460.8705, 5790.355
461.3526, 5764.311
461.8347, 5758.015
462.3169, 5755.054
462.7990, 5738.360
463.2811, 5684.764
463.7632, 5637.200
464.2453, 5605.729
464.7274, 5589.807
465.2096, 5579.980
465.6917, 5584.963
466.1738, 5587.866
466.6559, 5579.489
467.1380, 5546.550
467.6201, 5528.521
468.1023, 5532.445
468.5844, 5547.040
469.0665, 5547.834
469.5486, 5528.166
470.0307, 5515.884
470.5128, 5526.743
470.9950, 5558.429
471.4771, 5567.244
471.9592, 5550.167
472.4413, 5522.923
472.9234, 5496.902
473.4055, 5473.252
473.8877, 5460.268
474.3698, 5463.802
474.8519, 5474.770
475.3340, 5476.552
475.8161, 5470.948
476.2982, 5469.278
476.7804, 5491.175
477.2625, 5515.942
477.7446, 5515.275
478.2267, 5479.897
478.7088, 5440.502
479.1909, 5410.220
479.6731, 5390.226
480.1552, 5382.421
480.6373, 5397.753
481.1194, 5416.094
481.6015, 5431.538
482.0836, 5443.808
482.5658, 5446.865
483.0479, 5425.057
483.5300, 5402.550
484.0121, 5396.731
484.4942, 5427.543
484.9763, 5447.251
485.4585, 5450.787
485.9406, 5442.602
486.4227, 5433.592
486.9048, 5421.844
487.3869, 5413.744
487.8690, 5413.079
488.3512, 5420.556
488.8333, 5427.049
489.3154, 5433.502
489.7975, 5436.303
490.2796, 5425.871
490.7617, 5403.725
491.2439, 5393.583
491.7260, 5406.356
492.2081, 5431.389
492.6902, 5449.840
493.1723, 5461.649
493.6544, 5469.377
494.1366, 5474.508
494.6187, 5476.626
495.1008, 5473.114
495.5829, 5460.638
496.0650, 5452.706
496.5471, 5462.275
497.0293, 5482.359
497.5114, 5500.823
497.9935, 5511.245
498.4756, 5521.057
498.9577, 5532.389
499.4398, 5545.390
499.9220, 5562.235
500.4041, 5593.180
500.8862, 5621.966
501.3683, 5635.909
501.8504, 5609.142
502.3325, 5607.981
502.8146, 5646.555
503.2968, 5709.393
503.7789, 5757.783
504.2610, 5791.060
504.7431, 5812.387
505.2252, 5817.492
505.7073, 5806.478
506.1895, 5813.515
506.6716, 5842.226
507.1537, 5876.259
507.6358, 5891.430
508.1179, 5892.751
508.6000, 5914.135
509.0822, 5973.755
509.5643, 6046.354
510.0464, 6090.682
510.5285, 6112.094
511.0106, 6137.643
511.4927, 6190.139
511.9749, 6252.038
512.4570, 6303.671
512.9391, 6339.820
513.4212, 6377.438
513.9033, 6427.260
514.3854, 6483.507
514.8676, 6538.007
515.3497, 6586.654
515.8318, 6635.820
516.3139, 6688.796
516.7960, 6744.770
517.2781, 6796.958
517.7603, 6838.108
518.2424, 6882.174
518.7245, 6939.111
519.2066, 7024.829
519.6887, 7080.661
520.1708, 7093.187
520.6530, 7089.127
521.1351, 7115.639
521.6172, 7177.168
522.0993, 7235.934
522.5814, 7281.013
523.0635, 7313.703
523.5457, 7339.181
524.0278, 7357.767
524.5099, 7365.118
524.9920, 7358.278
525.4741, 7337.654
525.9562, 7300.296
526.4384, 7240.257
526.9205, 7179.719
527.4026, 7145.579
527.8847, 7126.366
528.3668, 7096.483
528.8489, 7032.968
529.3311, 6965.633
529.8132, 6911.347
530.2953, 6870.740
530.7774, 6833.218
531.2595, 6798.722
531.7416, 6764.691
532.2238, 6729.731
532.7059, 6698.237
533.1880, 6658.710
533.6701, 6602.512
534.1522, 6540.689
534.6343, 6501.680
535.1165, 6495.819
535.5986, 6486.810
536.0807, 6459.178
536.5628, 6413.959
537.0449, 6381.798
537.5270, 6364.017
538.0092, 6350.673
538.4913, 6332.670
538.9734, 6311.021
539.4555, 6289.160
539.9376, 6266.940
540.4197, 6246.732
540.9019, 6231.778
541.3840, 6221.000
541.8661, 6210.879
542.3482, 6196.458
542.8303, 6184.078
543.3124, 6177.945
543.7946, 6178.358
544.2767, 6185.089
544.7588, 6207.985
545.2409, 6231.518
545.7230, 6242.837
546.2051, 6220.132
546.6873, 6208.749
547.1694, 6217.393
547.6515, 6239.687
548.1336, 6261.722
548.6157, 6287.522
549.0978, 6305.618
549.5800, 6310.566
550.0621, 6302.270
550.5442, 6294.266
551.0263, 6285.783
551.5084, 6280.854
551.9905, 6280.334
552.4727, 6285.541
552.9548, 6309.931
553.4369, 6364.469
553.9190, 6422.559
554.4011, 6438.438
554.8832, 6422.786
555.3654, 6413.612
555.8475, 6440.749
556.3296, 6476.747
556.8117, 6495.595
557.2938, 6495.817
557.7759, 6496.458
558.2581, 6505.762
558.7402, 6519.445
559.2223, 6533.997
559.7044, 6547.871
560.1865, 6563.351
560.6686, 6588.746
561.1508, 6614.922
561.6329, 6620.974
562.1150, 6590.593
562.5971, 6567.602
563.0792, 6567.602
563.5613, 6590.086
564.0435, 6607.523
564.5256, 6620.518
565.0077, 6626.814
565.4898, 6622.487
565.9719, 6608.758
566.4540, 6593.506
566.9362, 6577.071
567.4183, 6561.905
567.9004, 6549.910
568.3824, 6541.870
568.8646, 6540.633
569.3467, 6563.517
569.8288, 6581.990
570.3109, 6565.793
570.7930, 6517.730
571.2751, 6474.690
571.7573, 6460.006
572.2394, 6452.491
572.7215, 6437.753
573.2036, 6405.754
573.6857, 6381.511
574.1678, 6375.513
574.6500, 6375.108
575.1321, 6361.603
575.6142, 6325.284
576.0963, 6296.033
576.5784, 6281.267
577.0605, 6278.951
577.5427, 6280.902
578.0248, 6288.779
578.5069, 6290.796
578.9890, 6274.919
579.4711, 6245.727
579.9532, 6222.804
580.4354, 6208.304
580.9175, 6195.750
581.3996, 6175.541
581.8817, 6152.871
582.3638, 6137.943
582.8459, 6147.311
583.3281, 6151.981
583.8102, 6124.741
584.2923, 6075.816
584.7744, 6040.646
585.2565, 6049.588
585.7386, 6058.875
586.2208, 6046.573
586.7029, 6003.262
587.1850, 5970.268
587.6671, 5954.143
588.1492, 5942.368
588.6313, 5922.287
589.1135, 5889.047
589.5956, 5866.204
590.0777, 5858.198
590.5598, 5860.147
591.0419, 5862.580
591.5240, 5865.403
592.0062, 5868.706
592.4883, 5871.851
592.9704, 5875.654
593.4525, 5881.563
593.9346, 5889.594
594.4167, 5899.743
594.8989, 5920.195
595.3810, 5938.908
595.8631, 5940.542
596.3452, 5911.830
596.8273, 5889.835
597.3094, 5895.171
597.7916, 5914.370
598.2737, 5926.437
598.7558, 5921.697
599.2379, 5916.504
599.7200, 5907.788
600.2021, 5898.569
600.6843, 5918.476
601.1664, 5983.743
601.6485, 6040.567
602.1306, 6051.964
602.6127, 6018.367
603.0948, 5994.958
603.5770, 5981.700
604.0591, 5986.695
604.5412, 6037.261
605.0233, 6115.427
605.5054, 6165.615
605.9875, 6160.479
606.4697, 6140.217
606.9518, 6129.824
607.4339, 6133.548
607.9160, 6162.899
608.3981, 6256.786
608.8802, 6348.321
609.3624, 6398.678
609.8445, 6402.284
610.3266, 6409.354
610.8087, 6421.788
611.2908, 6442.979
611.7729, 6476.854
612.2551, 6531.458
612.7372, 6576.684
613.2193, 6608.317
613.7014, 6634.253
614.1835, 6665.681
614.6656, 6702.755
615.1478, 6747.023
615.6299, 6799.343
616.1120, 6860.013
616.5941, 6935.973
617.0762, 7024.309
617.5583, 7105.632
618.0405, 7151.355
618.5226, 7193.982
619.0047, 7271.174
619.4868, 7390.442
619.9689, 7510.104
620.4510, 7606.021
620.9332, 7697.036
621.4153, 7799.146
621.8974, 7928.475
622.3795, 8051.760
622.8616, 8156.635
623.3438, 8256.807
623.8259, 8384.160
624.3080, 8550.062
624.7901, 8709.663
625.2722, 8842.226
625.7543, 8956.672
626.2365, 9101.503
626.7186, 9276.230
627.2007, 9464.933
627.6828, 9663.238
628.1649, 9865.021
628.6470, 10058.61
629.1292, 10240.42
629.6113, 10416.53
630.0934, 10595.76
630.5755, 10769.46
631.0576, 10929.38
631.5397, 11077.17
632.0219, 11206.50
632.5040, 11310.14
632.9861, 11392.92
633.4682, 11470.07
633.9503, 11566.29
634.4324, 11625.19
634.9146, 11633.97
635.3967, 11592.82
635.8788, 11497.27
636.3609, 11342.67
636.8430, 11155.12
637.3251, 10953.93
637.8073, 10737.18
638.2894, 10488.55
638.7715, 10199.87
639.2536, 9899.168
639.7357, 9598.833
640.2178, 9307.400
640.7000, 9034.655
641.1821, 8782.843
641.6642, 8551.381
642.1463, 8344.174
642.6284, 8157.943
643.1105, 7979.138
643.5927, 7801.580
644.0748, 7637.033
644.5569, 7489.908
645.0390, 7359.375
645.5211, 7245.710
646.0032, 7155.099
646.4854, 7072.010
646.9675, 6986.195
647.4496, 6897.113
647.9317, 6814.964
648.4138, 6739.864
648.8959, 6674.922
649.3781, 6637.532
649.8602, 6614.834
650.3423, 6569.747
650.8244, 6463.913
651.3065, 6365.298
651.7886, 6337.231
652.2708, 6358.732
652.7529, 6371.646
653.2350, 6358.918
653.7171, 6329.901
654.1992, 6278.575
654.6813, 6202.387
655.1635, 6154.778
655.6456, 6151.243
656.1277, 6155.500
656.6098, 6142.350
657.0919, 6107.192
657.5740, 6094.069
658.0562, 6110.688
658.5382, 6129.814
659.0203, 6111.327
659.5024, 6065.313
659.9846, 6029.869
660.4667, 6019.046
660.9488, 6016.464
661.4309, 6008.421
661.9130, 5995.623
662.3951, 5979.800
662.8773, 5952.496
663.3594, 5930.959
663.8415, 5925.276
664.3236, 5935.461
664.8057, 5944.341
665.2878, 5957.838
665.7700, 5961.677
666.2521, 5944.222
666.7342, 5898.059
667.2163, 5876.815
667.6984, 5887.275
668.1805, 5904.183
668.6627, 5897.006
669.1448, 5870.712
669.6269, 5852.414
670.1090, 5848.029
670.5911, 5851.507
671.0732, 5864.363
671.5554, 5879.513
672.0375, 5882.127
672.5196, 5848.756
673.0017, 5817.952
673.4838, 5810.320
673.9659, 5822.472
674.4481, 5831.062
674.9302, 5827.624
675.4123, 5826.032
675.8944, 5831.793
676.3765, 5845.764
676.8586, 5858.113
677.3408, 5869.486
677.8229, 5877.130
678.3050, 5875.980
678.7871, 5867.957
679.2692, 5865.993
679.7513, 5872.982
680.2335, 5879.457
680.7156, 5874.047
681.1977, 5861.163
681.6798, 5848.288
682.1619, 5831.538
682.6440, 5822.780
683.1262, 5833.624
683.6083, 5856.719
684.0904, 5872.730
684.5725, 5873.109
685.0546, 5871.978
685.5367, 5873.926
686.0189, 5878.185
686.5010, 5873.172
686.9831, 5856.727
687.4652, 5838.788
687.9473, 5822.880
688.4294, 5809.957
688.9116, 5807.924
689.3937, 5817.476
689.8758, 5829.905
690.3579, 5841.181
690.8400, 5849.206
691.3221, 5850.186
691.8043, 5839.800
692.2864, 5830.320
692.7685, 5825.559
693.2506, 5825.301
693.7327, 5829.292
694.2148, 5842.890
694.6970, 5853.796
695.1791, 5860.142
695.6612, 5863.035
696.1433, 5865.790
696.6254, 5868.639
697.1075, 5870.490
697.5897, 5872.909
698.0718, 5873.479
698.5539, 5858.262
699.0360, 5828.933
699.5181, 5809.831
700.0002, 5828.510
700.4824, 5860.521
700.9645, 5882.870
701.4466, 5892.785
701.9287, 5892.394
702.4108, 5868.547
702.8929, 5842.678
703.3751, 5833.798
703.8572, 5859.762
704.3393, 5872.652
704.8214, 5865.041
705.3035, 5851.666
705.7856, 5856.616
706.2678, 5881.445
706.7499, 5901.902
707.2320, 5912.293
707.7141, 5915.419
708.1962, 5915.229
708.6783, 5911.749
709.1605, 5904.714
709.6426, 5885.979
710.1247, 5870.180
710.6068, 5872.170
711.0889, 5889.479
711.5710, 5901.535
712.0532, 5898.875
712.5353, 5892.661
713.0174, 5885.105
713.4995, 5873.990
713.9816, 5879.086
714.4637, 5906.098
714.9459, 5936.600
715.4280, 5955.607
715.9101, 5963.627
716.3922, 5968.717
716.8743, 5970.699
717.3564, 5974.010
717.8386, 5987.450
718.3207, 6004.731
718.8028, 6013.970
719.2849, 6004.825
719.7670, 5997.387
720.2491, 6003.838
720.7313, 6018.056
721.2134, 6028.138
721.6955, 6031.964
722.1776, 6032.125
722.6597, 6028.808
723.1418, 6022.167
723.6240, 6011.323
724.1061, 5995.178
724.5882, 5982.039
725.0703, 5976.740
725.5524, 5977.196
726.0345, 5975.030
726.5167, 5971.017
726.9988, 5974.741
727.4809, 6006.871
727.9630, 6041.004
728.4451, 6048.527
728.9272, 6021.153
729.4094, 6003.132
729.8915, 6018.763
730.3736, 6040.938
730.8557, 6049.169
731.3378, 6038.770
731.8199, 6024.001
732.3021, 5998.776
732.7842, 5979.961
733.2663, 5998.439
733.7484, 6050.012
734.2305, 6085.414
734.7126, 6088.854
735.1948, 6080.585
735.6769, 6081.203
736.1590, 6089.214
736.6411, 6101.250
737.1232, 6122.530
737.6053, 6140.688
738.0875, 6149.867
738.5696, 6151.072
739.0517, 6149.446
739.5338, 6139.357
740.0159, 6135.147
740.4980, 6140.688
740.9802, 6155.973
741.4623, 6188.161
741.9444, 6241.392
742.4265, 6275.175
742.9086, 6244.910
743.3907, 6179.441
743.8729, 6140.435
744.3550, 6130.661
744.8371, 6133.111
745.3192, 6145.584
745.8013, 6159.545
746.2834, 6168.353
746.7656, 6172.542
747.2477, 6167.042
747.7298, 6144.808
748.2119, 6117.662
748.6940, 6094.669
749.1761, 6073.827
749.6582, 6067.227
750.1403, 6080.730
750.6224, 6098.727
751.1046, 6093.958
751.5867, 6072.432
752.0688, 6058.744
752.5509, 6065.439
753.0330, 6075.248
753.5151, 6069.947
753.9973, 6056.471
754.4794, 6049.718
754.9615, 6063.332
755.4436, 6075.041
755.9257, 6073.167
756.4078, 6063.217
756.8900, 6070.481
757.3721, 6103.168
757.8542, 6130.706
758.3363, 6139.513
758.8184, 6133.630
759.3005, 6130.533
759.7827, 6129.989
760.2648, 6126.099
760.7469, 6105.677
761.2290, 6084.839
761.7111, 6089.831
762.1932, 6123.151
762.6754, 6138.905
763.1575, 6089.669
763.6396, 6037.862
764.1217, 6028.702
764.6038, 6082.200
765.0859, 6115.222
765.5681, 6122.536
766.0502, 6117.722
766.5323, 6111.146
767.0144, 6103.046
767.4965, 6097.031
767.9786, 6092.986
768.4608, 6093.584
768.9429, 6107.040
769.4250, 6125.880
769.9071, 6138.152
770.3892, 6139.416
770.8713, 6135.344
771.3535, 6122.117
771.8356, 6106.615
772.3177, 6101.236
772.7998, 6113.189
773.2819, 6121.967
773.7640, 6122.726
774.2462, 6120.042
774.7283, 6126.818
775.2104, 6142.609
775.6925, 6155.779
776.1746, 6162.757
776.6567, 6163.214
777.1389, 6151.474
777.6210, 6131.593
778.1031, 6117.960
778.5852, 6119.671
779.0673, 6127.001
779.5494, 6137.286
780.0316, 6150.163
780.5137, 6160.422
780.9958, 6167.345
781.4779, 6172.587
781.9600, 6177.160
782.4421, 6180.868
782.9243, 6177.573
783.4064, 6166.677
783.8885, 6164.360
784.3706, 6194.688
784.8527, 6235.816
785.3348, 6257.773
785.8170, 6257.052
786.2991, 6246.738
786.7812, 6221.969
787.2633, 6197.452
787.7454, 6185.589
788.2275, 6193.226
788.7097, 6195.118
789.1918, 6189.394
789.6739, 6181.161
790.1560, 6172.661
790.6381, 6164.659
791.1202, 6169.034
791.6024, 6189.181
792.0845, 6212.990
792.5666, 6233.741
793.0487, 6247.932
793.5308, 6247.983
794.0129, 6220.124
794.4951, 6199.392
794.9772, 6204.825
795.4593, 6222.838
795.9414, 6233.330
796.4235, 6232.343
796.9056, 6231.085
797.3878, 6229.814
797.8699, 6229.991
798.3520, 6233.781
798.8341, 6241.223
799.3162, 6254.526
799.7983, 6280.419
800.2805, 6303.493
800.7626, 6301.361
801.2447, 6283.296
801.7268, 6271.117
802.2089, 6278.584
802.6910, 6287.228
803.1732, 6293.746
803.6553, 6296.901
804.1374, 6290.986
804.6195, 6272.552
805.1016, 6255.761
805.5837, 6243.456
806.0659, 6237.879
806.5480, 6250.408
807.0301, 6279.021
807.5122, 6305.801
807.9943, 6322.251
808.4764, 6331.293
808.9586, 6333.836
809.4407, 6330.498
809.9228, 6325.759
810.4049, 6310.439
810.8870, 6305.088
811.3691, 6324.161
811.8513, 6367.132
812.3334, 6377.396
812.8155, 6348.073
813.2976, 6316.750
813.7797, 6307.525
814.2618, 6315.363
814.7440, 6332.145
815.2261, 6356.715
815.7082, 6372.501
816.1903, 6358.201
816.6724, 6337.772
817.1545, 6327.307
817.6367, 6327.669
818.1188, 6346.583
818.6009, 6406.856
819.0830, 6458.446
819.5651, 6462.398
820.0472, 6414.262
820.5294, 6388.174
821.0115, 6387.314
821.4936, 6397.690
821.9757, 6409.925
822.4578, 6423.001
822.9399, 6435.153
823.4221, 6445.864
823.9042, 6456.483
824.3863, 6475.887
824.8684, 6490.501
825.3505, 6484.794
825.8326, 6432.987
826.3148, 6418.139
826.7969, 6453.811
827.2790, 6503.390
827.7611, 6526.188
828.2432, 6525.456
828.7253, 6527.075
829.2075, 6534.961
829.6896, 6546.131
830.1717, 6560.786
830.6538, 6575.723
831.1359, 6585.564
831.6180, 6576.379
832.1002, 6583.061
832.5823, 6635.316
833.0644, 6695.421
833.5465, 6718.918
834.0286, 6695.898
834.5107, 6674.950
834.9929, 6659.045
835.4750, 6653.899
835.9571, 6678.829
836.4392, 6722.017
836.9213, 6746.091
837.4034, 6726.031
837.8855, 6710.833
838.3676, 6747.972
838.8497, 6805.785
839.3318, 6834.666
839.8140, 6782.016
840.2961, 6767.151
840.7782, 6817.767
841.2603, 6895.610
841.7424, 6926.535
842.2245, 6911.548
842.7067, 6905.750
843.1888, 6928.244
843.6709, 6957.137
844.1530, 6965.066
844.6351, 6958.737
845.1172, 6951.621
845.5994, 6934.779
846.0815, 6933.871
846.5636, 6973.184
847.0457, 7030.162
847.5278, 7056.722
848.0099, 7041.501
848.4921, 7033.807
848.9742, 7045.919
849.4563, 7069.194
849.9384, 7087.565
850.4205, 7102.115
850.9026, 7118.377
851.3848, 7150.592
851.8669, 7171.674
852.3490, 7151.205
852.8311, 7106.134
853.3132, 7077.914
853.7953, 7088.549
854.2775, 7096.098
854.7596, 7093.320
855.2417, 7084.238
855.7238, 7078.412
856.2059, 7075.978
856.6880, 7077.851
857.1702, 7088.777
857.6523, 7098.892
858.1344, 7092.303
858.6165, 7074.684
859.0986, 7060.102
859.5807, 7056.122
860.0629, 7053.937
860.5450, 7052.722
861.0271, 7050.777
861.5092, 7044.087
861.9913, 7032.205
862.4734, 7015.080
862.9556, 6988.404
863.4377, 6960.826
863.9198, 6952.762
864.4019, 6960.086
864.8840, 6967.316
865.3661, 6968.769
865.8483, 6966.487
866.3304, 6959.546
866.8125, 6949.632
867.2946, 6942.267
867.7767, 6940.708
868.2589, 6937.053
868.7410, 6930.678
869.2231, 6920.632
869.7052, 6900.203
870.1873, 6870.950
870.6694, 6849.264
871.1516, 6845.216
871.6337, 6848.158
872.1158, 6848.022
872.5979, 6846.244
873.0800, 6846.277
873.5621, 6850.365
874.0443, 6855.315
874.5264, 6862.261
875.0085, 6869.021
875.4906, 6869.041
875.9727, 6861.776
876.4548, 6853.301
876.9370, 6844.786
877.4191, 6837.079
877.9012, 6829.076
878.3833, 6822.908
878.8654, 6824.079
879.3475, 6846.182
879.8297, 6863.848
880.3118, 6863.875
880.7939, 6852.889
881.2760, 6846.270
881.7581, 6843.069
882.2402, 6847.641
882.7224, 6863.146
883.2045, 6883.915
883.6866, 6900.181
884.1687, 6911.835
884.6508, 6917.293
885.1329, 6905.281
885.6151, 6900.609
886.0972, 6932.659
886.5793, 6981.225
887.0614, 7003.298
887.5435, 6975.551
888.0256, 6952.876
888.5078, 6941.090
888.9899, 6939.248
889.4720, 6951.250
889.9541, 6974.633
890.4362, 6985.676
890.9183, 6972.159
891.4005, 6955.435
891.8826, 6957.713
892.3647, 6970.548
892.8468, 6980.522
893.3289, 6987.719
893.8110, 6985.594
894.2932, 6965.119
894.7753, 6942.209
895.2574, 6944.331
895.7395, 6972.206
896.2216, 6994.802
896.7037, 7006.809
897.1859, 7009.466
897.6680, 6999.873
898.1501, 6982.875
898.6322, 6966.611
899.1143, 6952.583
899.5964, 6940.690
900.0786, 6933.303
900.5607, 6926.843
901.0428, 6916.843
901.5249, 6901.663
902.0070, 6894.065
902.4891, 6897.650
902.9713, 6900.893
903.4534, 6882.018
903.9355, 6854.535
904.4176, 6846.361
904.8997, 6868.200
905.3818, 6891.449
905.8640, 6907.349
906.3461, 6915.292
906.8282, 6914.916
907.3103, 6903.526
907.7924, 6889.391
908.2745, 6869.365
908.7567, 6855.887
909.2388, 6870.332
909.7209, 6899.949
910.2030, 6909.789
910.6851, 6894.645
911.1672, 6876.781
911.6494, 6864.144
912.1315, 6858.511
912.6136, 6864.677
913.0957, 6888.613
913.5778, 6896.890
914.0599, 6885.695
914.5421, 6868.358
915.0242, 6846.235
915.5063, 6825.554
915.9884, 6841.568
916.4705, 6893.434
916.9526, 6931.118
917.4348, 6907.157
917.9169, 6865.996
918.3990, 6835.673
918.8811, 6819.050
919.3632, 6815.875
919.8453, 6835.340
920.3275, 6849.600
920.8096, 6839.244
921.2917, 6812.833
921.7738, 6816.471
922.2559, 6847.002
922.7380, 6871.211
923.2202, 6858.805
923.7023, 6840.593
924.1844, 6843.560
924.6665, 6864.718
925.1486, 6873.020
925.6307, 6854.287
926.1129, 6841.419
926.5950, 6843.340
927.0771, 6858.004
927.5591, 6887.770
928.0413, 6928.866
928.5234, 6947.927
929.0055, 6903.399
929.4876, 6856.303
929.9697, 6868.854
930.4518, 6917.620
930.9340, 6946.137
931.4161, 6930.237
931.8982, 6909.854
932.3803, 6883.798
932.8624, 6862.098
933.3445, 6869.651
933.8267, 6902.829
934.3088, 6929.282
934.7909, 6940.155
935.2730, 6940.705
935.7551, 6928.916
936.2372, 6912.286
936.7194, 6901.066
937.2015, 6895.256
937.6836, 6900.208
938.1657, 6923.081
938.6478, 6947.826
939.1299, 6953.293
939.6121, 6940.976
940.0942, 6934.207
940.5763, 6937.017
941.0584, 6938.519
941.5405, 6926.315
942.0226, 6908.809
942.5048, 6893.700
942.9869, 6879.740
943.4690, 6878.925
943.9511, 6903.739
944.4332, 6925.256
944.9153, 6914.899
945.3975, 6876.313
945.8796, 6875.031
946.3617, 6912.316
946.8438, 6947.841
947.3259, 6941.721
947.8080, 6924.706
948.2902, 6927.996
948.7723, 6954.388
949.2544, 6965.261
949.7365, 6941.979
950.2186, 6923.957
950.7007, 6927.804
951.1829, 6949.942
951.6650, 6977.668
952.1471, 7009.182
952.6292, 7024.498
953.1113, 6994.459
953.5934, 6958.573
954.0756, 6948.323
954.5577, 6959.032
955.0398, 6972.822
955.5219, 6992.169
956.0040, 7005.312
956.4861, 7007.869
956.9683, 7004.793
957.4504, 7006.205
957.9325, 7011.892
958.4146, 7022.133
958.8967, 7043.262
959.3788, 7056.305
959.8610, 7036.572
960.3431, 7002.892
960.8252, 6982.574
961.3073, 6982.294
961.7894, 6993.092
962.2715, 7020.957
962.7537, 7049.354
963.2358, 7057.021
963.7179, 7047.832
964.2000, 7033.942
964.6821, 7015.503
965.1642, 7006.340
965.6464, 7034.315
966.1285, 7064.265
966.6106, 7060.588
967.0927, 7007.169
967.5748, 6981.532
968.0569, 6991.292
968.5391, 7009.183
969.0212, 7016.844
969.5033, 7017.867
969.9854, 7025.245
970.4675, 7038.473
970.9496, 7050.995
971.4318, 7057.522
971.9139, 7063.754
972.3960, 7074.135
972.8781, 7087.842
973.3602, 7098.739
973.8423, 7107.847
974.3245, 7109.743
974.8066, 7098.169
975.2887, 7083.379
975.7708, 7089.777
976.2529, 7109.939
976.7350, 7122.496
977.2172, 7112.907
977.6993, 7100.353
978.1814, 7086.934
978.6635, 7076.667
979.1456, 7076.894
979.6277, 7089.847
980.1099, 7101.203
980.5920, 7109.771
981.0741, 7113.819
981.5562, 7104.365
982.0383, 7091.316
982.5204, 7091.415
983.0026, 7110.842
983.4847, 7133.264
983.9668, 7164.712
984.4489, 7187.695
984.9310, 7185.457
985.4131, 7154.868
985.8953, 7153.841
986.3774, 7184.331
986.8595, 7207.308
987.3416, 7180.744
987.8237, 7139.376
988.3058, 7119.283
988.7880, 7121.638
989.2701, 7131.954
989.7522, 7158.087
990.2343, 7176.368
990.7164, 7176.058
991.1985, 7164.522
991.6807, 7169.144
992.1628, 7188.048
992.6449, 7205.250
993.1270, 7211.814
993.6091, 7217.275
994.0912, 7228.759
994.5734, 7244.256
995.0555, 7260.146
995.5376, 7276.303
996.0197, 7292.871
996.5018, 7311.691
996.9839, 7327.202
997.4661, 7322.825
997.9482, 7308.729
998.4303, 7321.734
998.9124, 7372.802
999.3945, 7418.854
999.8766, 7429.264
1000.359, 7426.138
1000.841, 7427.156
1001.323, 7434.909
1001.805, 7426.903
1002.287, 7397.131
1002.769, 7380.001
1003.251, 7409.352
1003.734, 7461.577
1004.216, 7500.303
1004.698, 7524.821
1005.180, 7537.536
1005.662, 7521.892
1006.144, 7514.945
1006.626, 7533.901
1007.108, 7568.015
1007.591, 7585.790
1008.073, 7587.071
1008.555, 7586.422
1009.037, 7588.850
1009.519, 7589.269
1010.001, 7579.349
1010.483, 7564.457
1010.965, 7552.018
1011.447, 7533.070
1011.930, 7537.182
1012.412, 7576.276
1012.894, 7620.646
1013.376, 7647.597
1013.858, 7655.897
1014.340, 7632.528
1014.822, 7576.531
1015.304, 7522.149
1015.786, 7484.637
1016.269, 7464.853
1016.751, 7474.151
1017.233, 7512.247
1017.715, 7517.385
1018.197, 7479.878
1018.679, 7443.594
1019.161, 7426.856
1019.643, 7423.682
1020.125, 7425.559
1020.608, 7430.898
1021.090, 7435.076
1021.572, 7432.256
1022.054, 7432.526
1022.536, 7443.743
1023.018, 7456.277
1023.500, 7450.584
1023.982, 7424.487
1024.465, 7430.718
1024.947, 7482.166
1025.429, 7536.349
1025.911, 7546.118
1026.393, 7536.045
1026.875, 7533.353
1027.357, 7544.411
1027.839, 7552.364
1028.322, 7553.947
1028.804, 7555.992
1029.286, 7562.905
1029.768, 7573.696
1030.250, 7585.709
1030.732, 7597.815
1031.214, 7602.013
1031.696, 7580.142
1032.178, 7562.917
1032.661, 7573.659
1033.143, 7601.365
1033.625, 7613.616
1034.107, 7606.981
1034.589, 7599.884
1035.071, 7594.892
1035.553, 7593.781
1036.035, 7601.462
1036.517, 7613.936
1037.000, 7624.455
1037.482, 7630.763
1037.964, 7637.636
1038.446, 7647.157
1038.928, 7656.459
1039.410, 7659.740
1039.892, 7657.841
1040.374, 7685.496
1040.857, 7740.480
1041.339, 7776.421
1041.821, 7734.877
1042.303, 7684.870
1042.785, 7683.248
1043.267, 7721.500
1043.749, 7738.348
1044.231, 7719.509
1044.714, 7713.964
1045.196, 7738.012
1045.678, 7771.840
1046.160, 7773.838
1046.642, 7760.851
1047.124, 7775.036
1047.606, 7849.583
1048.088, 7901.947
1048.570, 7881.673
1049.052, 7846.000
1049.535, 7836.675
1050.017, 7855.430
1050.499, 7870.035
1050.981, 7880.129
1051.463, 7890.499
1051.945, 7908.339
1052.427, 7925.110
1052.909, 7929.731
1053.392, 7924.276
1053.874, 7927.970
1054.356, 7943.434
1054.838, 7965.006
1055.320, 7993.240
1055.802, 8023.417
1056.284, 8045.266
1056.766, 8061.192
1057.249, 8077.734
1057.731, 8099.722
1058.213, 8116.019
1058.695, 8122.862
1059.177, 8121.009
1059.659, 8107.367
1060.141, 8079.595
1060.623, 8071.511
1061.105, 8084.373
1061.588, 8098.238
1062.070, 8102.234
1062.552, 8096.451
1063.034, 8075.448
1063.516, 8042.149
1063.998, 8019.588
1064.480, 8011.332
1064.962, 8011.182
1065.444, 8022.632
1065.927, 8034.304
1066.409, 8020.708
1066.891, 7989.531
1067.373, 7960.280
1067.855, 7936.311
1068.337, 7919.752
1068.819, 7911.325
1069.301, 7910.812
1069.783, 7919.140
1070.266, 7937.118
1070.748, 7955.496
1071.230, 7974.444
1071.712, 7991.384
1072.194, 8009.681
1072.676, 8021.048
1073.158, 8009.018
1073.640, 7980.253
1074.123, 7977.132
1074.605, 8013.628
1075.087, 8046.172
1075.569, 8065.542
1076.051, 8076.462
1076.533, 8081.764
1077.015, 8085.902
1077.497, 8100.627
1077.979, 8135.171
1078.462, 8161.230
1078.944, 8156.819
1079.426, 8151.496
1079.908, 8164.333
1080.390, 8194.987
1080.872, 8224.123
1081.354, 8251.877
1081.836, 8278.641
1082.318, 8307.101
1082.801, 8333.218
1083.283, 8349.987
1083.765, 8361.964
1084.247, 8383.748
1084.729, 8415.197
1085.211, 8460.902
1085.693, 8527.663
1086.175, 8591.424
1086.658, 8607.396
1087.140, 8602.832
1087.622, 8626.293
1088.104, 8695.396
1088.586, 8748.662
1089.068, 8757.579
1089.550, 8768.001
1090.032, 8802.366
1090.515, 8857.969
1090.997, 8924.285
1091.479, 9000.224
1091.961, 9075.803
1092.443, 9143.495
1092.925, 9213.466
1093.407, 9300.122
1093.889, 9389.728
1094.371, 9453.396
1094.854, 9483.774
1095.336, 9541.433
1095.818, 9635.807
1096.300, 9745.630
1096.782, 9859.563
1097.264, 9972.508
1097.746, 10072.65
1098.228, 10157.26
1098.710, 10263.01
1099.193, 10400.46
1099.675, 10536.23
1100.157, 10660.93
1100.639, 10770.56
1101.121, 10849.17
1101.603, 10910.01
1102.085, 10989.52
1102.567, 11129.45
1103.050, 11249.38
1103.532, 11324.50
1104.014, 11376.25
1104.496, 11427.27
1104.978, 11476.64
1105.460, 11487.33
1105.942, 11458.08
1106.424, 11418.70
1106.906, 11401.68
1107.389, 11371.86
1107.871, 11301.69
1108.353, 11194.53
1108.835, 11073.59
1109.317, 10934.57
1109.799, 10800.37
1110.281, 10676.38
1110.763, 10556.73
1111.245, 10434.85
1111.728, 10312.55
1112.210, 10195.82
1112.692, 10090.67
1113.174, 9976.632
1113.656, 9847.683
1114.138, 9721.557
1114.620, 9605.276
1115.102, 9501.677
1115.585, 9425.813
1116.067, 9372.419
1116.549, 9318.515
1117.031, 9246.070
1117.513, 9181.269
1117.995, 9134.642
1118.477, 9095.995
1118.959, 9047.798
1119.442, 8991.560
1119.924, 8948.271
1120.406, 8921.942
1120.888, 8895.711
1121.370, 8850.854
1121.852, 8805.911
1122.334, 8776.433
1122.816, 8761.363
1123.298, 8753.151
1123.781, 8753.280
1124.263, 8747.311
1124.745, 8728.240
1125.227, 8702.384
1125.709, 8667.587
1126.191, 8634.494
1126.673, 8620.574
1127.155, 8649.305
1127.637, 8660.687
1128.120, 8651.683
1128.602, 8632.956
1129.084, 8605.474
1129.566, 8577.842
1130.048, 8571.499
1130.530, 8583.839
1131.012, 8592.985
1131.494, 8605.360
1131.977, 8590.083
1132.459, 8524.696
1132.941, 8444.994
1133.423, 8428.960
1133.905, 8461.495
1134.387, 8475.117
1134.869, 8453.024
1135.351, 8431.992
1135.833, 8440.391
1136.316, 8451.551
1136.798, 8447.292
1137.280, 8428.896
1137.762, 8413.935
1138.244, 8402.321
1138.726, 8383.476
1139.208, 8337.307
1139.690, 8300.573
1140.172, 8314.480
1140.655, 8354.027
1141.137, 8376.913
1141.619, 8374.871
1142.101, 8381.555
1142.583, 8400.963
1143.065, 8412.902
1143.547, 8383.071
1144.029, 8345.594
1144.512, 8351.962
1144.994, 8396.986
1145.476, 8418.926
1145.958, 8394.922
1146.440, 8381.584
1146.922, 8393.277
1147.404, 8416.405
1147.886, 8425.651
1148.369, 8430.270
1148.851, 8451.368
1149.333, 8498.765
1149.815, 8535.643
1150.297, 8550.716
1150.779, 8555.249
1151.261, 8547.471
1151.743, 8535.004
1152.225, 8559.061
1152.708, 8608.649
1153.190, 8638.021
1153.672, 8614.418
1154.154, 8581.994
1154.636, 8545.178
1155.118, 8515.753
1155.600, 8508.759
1156.082, 8523.707
1156.564, 8538.050
1157.047, 8550.766
1157.529, 8558.872
1158.011, 8555.469
1158.493, 8551.444
1158.975, 8557.937
1159.457, 8569.025
1159.939, 8563.804
1160.421, 8539.930
1160.903, 8530.343
1161.386, 8544.898
1161.868, 8561.798
1162.350, 8555.305
1162.832, 8542.298
1163.314, 8541.041
1163.796, 8554.576
1164.278, 8562.902
1164.760, 8564.756
1165.243, 8567.686
1165.725, 8576.205
1166.207, 8586.507
1166.689, 8596.867
1167.171, 8604.377
1167.653, 8603.942
1168.135, 8593.445
1168.617, 8573.782
1169.099, 8540.308
1169.582, 8509.929
1170.064, 8502.104
1170.546, 8505.344
1171.028, 8499.376
1171.510, 8484.143
1171.992, 8463.529
1172.474, 8427.076
1172.956, 8402.381
1173.438, 8396.825
1173.921, 8399.847
1174.403, 8396.289
1174.885, 8388.644
1175.367, 8383.201
1175.849, 8380.913
1176.331, 8381.115
1176.813, 8395.952
1177.295, 8397.536
1177.778, 8367.781
1178.260, 8322.645
1178.742, 8317.670
1179.224, 8342.384
1179.706, 8353.114
1180.188, 8333.354
1180.670, 8302.359
1181.152, 8247.483
1181.635, 8204.621
1182.117, 8207.222
1182.599, 8251.634
1183.081, 8263.271
1183.563, 8245.999
1184.045, 8239.045
1184.527, 8282.960
1185.009, 8323.018
1185.491, 8323.905
1185.974, 8306.944
1186.456, 8305.549
1186.938, 8321.584
1187.420, 8309.871
1187.902, 8265.861
1188.384, 8227.391
1188.866, 8230.147
1189.348, 8242.866
1189.830, 8243.085
1190.313, 8234.300
1190.795, 8233.460
1191.277, 8241.872
1191.759, 8242.153
1192.241, 8228.019
1192.723, 8216.188
1193.205, 8223.655
1193.687, 8240.701
1194.170, 8259.719
1194.652, 8279.926
1195.134, 8297.580
1195.616, 8313.780
1196.098, 8314.087
1196.580, 8284.404
1197.062, 8249.180
1197.544, 8234.315
1198.026, 8233.249
1198.509, 8237.167
1198.991, 8247.635
1199.473, 8254.369
1199.955, 8257.053
1200.437, 8258.837
1200.919, 8259.005
1201.401, 8262.014
1201.883, 8279.443
1202.365, 8304.393
1202.848, 8315.198
1203.330, 8299.793
1203.812, 8295.660
1204.294, 8309.685
1204.776, 8321.286
1205.258, 8299.575
1205.740, 8267.262
1206.222, 8254.912
1206.705, 8263.819
1207.187, 8281.715
1207.669, 8314.926
1208.151, 8334.325
1208.633, 8328.842
1209.115, 8317.445
1209.597, 8334.248
1210.079, 8361.971
1210.562, 8372.789
1211.044, 8360.676
1211.526, 8341.234
1212.008, 8307.979
1212.490, 8288.570
1212.972, 8297.140
1213.454, 8322.359
1213.936, 8347.640
1214.418, 8370.998
1214.901, 8387.867
1215.383, 8396.724
1215.865, 8398.488
1216.347, 8391.460
1216.829, 8382.082
1217.311, 8371.307
1217.793, 8362.818
1218.275, 8372.465
1218.757, 8391.902
1219.240, 8396.065
1219.722, 8334.783
1220.204, 8326.078
1220.686, 8401.503
1221.168, 8487.657
1221.650, 8516.414
1222.132, 8501.059
1222.614, 8455.391
1223.097, 8388.658
1223.579, 8352.673
1224.061, 8392.352
1224.543, 8431.438
1225.025, 8460.100
1225.507, 8476.888
1225.989, 8472.972
1226.471, 8456.993
1226.953, 8445.728
1227.436, 8441.223
1227.918, 8448.066
1228.400, 8485.097
1228.882, 8504.038
1229.364, 8481.536
1229.846, 8444.412
1230.328, 8455.396
1230.810, 8493.923
1231.292, 8511.637
1231.775, 8490.036
1232.257, 8479.671
1232.739, 8494.351
1233.221, 8516.340
1233.703, 8543.407
1234.185, 8567.965
1234.667, 8567.480
1235.149, 8548.049
1235.632, 8523.358
1236.114, 8482.142
1236.596, 8469.942
1237.078, 8503.808
1237.560, 8541.495
1238.042, 8550.215
1238.524, 8539.888
1239.006, 8536.241
1239.489, 8537.623
1239.971, 8538.121
1240.453, 8531.061
1240.935, 8530.681
1241.417, 8542.454
1241.899, 8552.971
1242.381, 8543.701
1242.863, 8524.780
1243.345, 8521.215
1243.828, 8531.041
1244.310, 8533.316
1244.792, 8498.903
1245.274, 8494.534
1245.756, 8541.043
1246.238, 8599.222
1246.720, 8610.324
1247.202, 8594.331
1247.684, 8585.359
1248.167, 8587.393
1248.649, 8592.050
1249.131, 8603.119
1249.613, 8605.071
1250.095, 8591.532
1250.577, 8571.160
1251.059, 8546.878
1251.541, 8529.613
1252.023, 8545.450
1252.506, 8607.738
1252.988, 8640.636
1253.470, 8625.671
1253.952, 8614.727
1254.434, 8633.540
1254.916, 8660.635
1255.398, 8658.182
1255.880, 8638.329
1256.363, 8620.132
1256.845, 8603.300
1257.327, 8605.391
1257.809, 8631.997
1258.291, 8658.724
1258.773, 8676.112
1259.255, 8681.162
1259.737, 8655.167
1260.219, 8616.959
1260.702, 8605.310
1261.184, 8644.920
1261.666, 8668.156
1262.148, 8672.331
1262.630, 8672.686
1263.112, 8677.406
1263.594, 8687.163
1264.076, 8711.875
1264.558, 8741.051
1265.041, 8746.287
1265.523, 8720.767
1266.005, 8690.176
1266.487, 8654.481
1266.969, 8628.816
1267.451, 8627.824
1267.933, 8642.185
1268.415, 8670.389
1268.898, 8706.481
1269.380, 8728.941
1269.862, 8735.488
1270.344, 8741.971
1270.826, 8750.646
1271.308, 8758.411
1271.790, 8758.349
1272.272, 8759.559
1272.755, 8779.635
1273.237, 8807.698
1273.719, 8791.829
1274.201, 8731.237
1274.683, 8695.886
1275.165, 8703.936
1275.647, 8725.898
1276.129, 8752.542
1276.611, 8771.462
1277.094, 8771.030
1277.576, 8755.677
1278.058, 8741.436
1278.540, 8729.247
1279.022, 8729.738
1279.504, 8750.787
1279.986, 8768.556
1280.468, 8767.200
1280.950, 8758.529
1281.433, 8746.262
1281.915, 8733.916
1282.397, 8748.713
1282.879, 8783.644
1283.361, 8806.062
1283.843, 8796.138
1284.325, 8790.191
1284.807, 8809.677
1285.290, 8828.180
1285.772, 8827.707
1286.254, 8813.425
1286.736, 8800.944
1287.218, 8792.664
1287.700, 8796.807
1288.182, 8833.136
1288.664, 8855.450
1289.146, 8854.609
1289.629, 8846.132
1290.111, 8838.529
1290.593, 8834.171
1291.075, 8839.306
1291.557, 8852.659
1292.039, 8870.436
1292.521, 8913.925
##END=



