##NAMES=Augelite
##RRUFFID=R050100
##IDEAL CHEMISTRY=Al_2_PO_4_(OH)_3_
##LOCALITY=Rapid Creek, Yukon Territory, Canada
##OWNER=RRUFF
##SOURCE=Rock Currier
##DESCRIPTION=Pale green thick tabular crystals
##STATUS=The identification of this mineral has been confirmed by X-ray diffraction and chemical analysis
##URL=rruff.info/R050100
##MEASURED CHEMISTRY=Al_2.00_(P_1.00_O_4_)(OH_0.98_F_0.02_)_3_
138.7542, 1365.111
139.2363, 1375.554
139.7184, 1392.450
140.2005, 1409.639
140.6826, 1424.509
141.1647, 1437.998
141.6469, 1452.788
142.1290, 1471.206
142.6111, 1488.327
143.0932, 1503.647
143.5753, 1517.321
144.0574, 1529.567
144.5396, 1540.522
145.0217, 1550.179
145.5038, 1558.811
145.9859, 1564.658
146.4680, 1571.335
146.9502, 1580.504
147.4323, 1591.999
147.9144, 1604.531
148.3965, 1616.613
148.8786, 1628.829
149.3607, 1644.959
149.8429, 1663.484
150.3250, 1686.950
150.8071, 1721.498
151.2892, 1769.721
151.7713, 1815.995
152.2534, 1838.416
152.7356, 1844.265
153.2177, 1858.629
153.6998, 1895.834
154.1819, 1947.220
154.6640, 1992.314
155.1461, 2025.672
155.6283, 2056.442
156.1104, 2088.681
156.5925, 2123.184
157.0746, 2165.704
157.5567, 2229.718
158.0388, 2314.103
158.5210, 2376.768
159.0031, 2391.282
159.4852, 2395.910
159.9673, 2414.813
160.4494, 2450.016
160.9315, 2485.274
161.4137, 2501.553
161.8958, 2494.598
162.3779, 2481.199
162.8600, 2464.124
163.3421, 2441.800
163.8242, 2412.566
164.3064, 2375.844
164.7885, 2332.968
165.2706, 2286.100
165.7527, 2235.292
166.2348, 2179.928
166.7169, 2113.636
167.1991, 2046.038
167.6812, 1988.988
168.1633, 1948.465
168.6454, 1919.083
169.1275, 1876.734
169.6096, 1804.869
170.0918, 1737.204
170.5739, 1676.233
171.0560, 1622.765
171.5381, 1578.559
172.0202, 1545.474
172.5023, 1522.788
172.9845, 1494.244
173.4666, 1452.131
173.9487, 1413.043
174.4308, 1383.872
174.9129, 1363.401
175.3951, 1346.129
175.8772, 1328.260
176.3593, 1309.655
176.8414, 1289.663
177.3235, 1266.071
177.8056, 1242.663
178.2878, 1222.475
178.7699, 1205.702
179.2520, 1189.304
179.7341, 1169.859
180.2162, 1147.401
180.6983, 1127.104
181.1805, 1105.369
181.6626, 1087.814
182.1447, 1084.210
182.6268, 1098.594
183.1089, 1115.588
183.5910, 1117.844
184.0732, 1107.932
184.5553, 1095.539
185.0374, 1080.740
185.5195, 1065.905
186.0016, 1057.750
186.4837, 1061.074
186.9659, 1065.429
187.4480, 1060.232
187.9301, 1046.364
188.4122, 1032.015
188.8943, 1022.252
189.3764, 1016.599
189.8586, 1010.665
190.3407, 1001.821
190.8228, 994.5791
191.3049, 993.1940
191.7870, 997.7171
192.2691, 1002.722
192.7513, 1003.102
193.2334, 998.4399
193.7155, 993.3466
194.1976, 985.9919
194.6797, 980.1662
195.1618, 979.4777
195.6440, 984.4341
196.1261, 990.2104
196.6082, 989.3563
197.0903, 978.1898
197.5724, 971.7523
198.0546, 976.5111
198.5367, 983.8500
199.0188, 988.1321
199.5009, 987.5939
199.9830, 983.9374
200.4651, 979.5690
200.9473, 971.1432
201.4294, 968.7841
201.9115, 979.1557
202.3936, 992.3331
202.8757, 998.7245
203.3578, 994.2631
203.8400, 983.3312
204.3221, 977.5408
204.8042, 980.6717
205.2863, 984.6473
205.7684, 987.9753
206.2505, 991.8615
206.7327, 998.8228
207.2148, 1010.342
207.6969, 1024.138
208.1790, 1030.792
208.6611, 1019.847
209.1432, 1012.841
209.6254, 1013.928
210.1075, 1020.455
210.5896, 1028.434
211.0717, 1035.716
211.5538, 1042.479
212.0359, 1049.981
212.5181, 1058.085
213.0002, 1066.993
213.4823, 1076.050
213.9644, 1085.949
214.4465, 1098.038
214.9286, 1113.333
215.4108, 1131.604
215.8929, 1151.059
216.3750, 1171.958
216.8571, 1193.439
217.3392, 1213.262
217.8214, 1232.943
218.3035, 1257.404
218.7856, 1290.761
219.2677, 1332.567
219.7498, 1373.474
220.2319, 1413.278
220.7141, 1452.415
221.1962, 1487.650
221.6783, 1520.683
222.1604, 1562.073
222.6425, 1623.503
223.1246, 1702.379
223.6068, 1764.314
224.0889, 1810.353
224.5710, 1839.348
225.0531, 1848.970
225.5352, 1839.462
226.0173, 1815.509
226.4995, 1778.680
226.9816, 1728.400
227.4637, 1670.862
227.9458, 1596.934
228.4279, 1521.444
228.9100, 1458.333
229.3922, 1408.368
229.8743, 1363.430
230.3564, 1317.077
230.8385, 1270.974
231.3206, 1231.645
231.8027, 1199.793
232.2849, 1175.188
232.7670, 1160.388
233.2491, 1157.062
233.7312, 1153.805
234.2133, 1140.500
234.6954, 1120.493
235.1776, 1101.408
235.6597, 1084.009
236.1418, 1069.055
236.6239, 1057.680
237.1060, 1049.887
237.5881, 1045.670
238.0703, 1047.466
238.5524, 1052.883
239.0345, 1057.377
239.5166, 1057.669
239.9987, 1056.479
240.4808, 1059.685
240.9630, 1069.342
241.4451, 1078.170
241.9272, 1080.329
242.4093, 1078.312
242.8914, 1076.764
243.3735, 1077.918
243.8557, 1080.806
244.3378, 1082.936
244.8199, 1083.506
245.3020, 1085.133
245.7841, 1085.973
246.2662, 1088.750
246.7484, 1099.646
247.2305, 1125.734
247.7126, 1161.636
248.1947, 1192.415
248.6768, 1216.350
249.1589, 1237.777
249.6411, 1259.547
250.1232, 1280.647
250.6053, 1299.393
251.0874, 1315.435
251.5695, 1328.365
252.0517, 1337.202
252.5338, 1343.605
253.0159, 1342.133
253.4980, 1333.794
253.9801, 1317.080
254.4622, 1287.961
254.9444, 1238.517
255.4265, 1176.125
255.9086, 1126.851
256.3907, 1096.474
256.8728, 1071.246
257.3549, 1044.524
257.8370, 1018.030
258.3192, 994.4602
258.8013, 975.0458
259.2834, 959.7595
259.7655, 948.8133
260.2476, 945.3812
260.7297, 941.3212
261.2119, 932.8224
261.6940, 921.9109
262.1761, 911.5370
262.6582, 903.0316
263.1403, 896.3998
263.6224, 892.5800
264.1046, 895.1735
264.5867, 894.6643
265.0688, 882.6271
265.5509, 866.9802
266.0330, 860.2589
266.5151, 871.8589
266.9973, 894.8147
267.4794, 903.7119
267.9615, 887.4542
268.4436, 874.7843
268.9258, 878.9094
269.4079, 890.2065
269.8900, 895.4053
270.3721, 886.6278
270.8542, 869.0518
271.3363, 858.6593
271.8185, 857.5479
272.3006, 860.9479
272.7827, 872.5947
273.2648, 885.5931
273.7469, 890.1744
274.2290, 880.0469
274.7112, 862.6307
275.1933, 859.3774
275.6754, 881.5741
276.1575, 897.6920
276.6396, 897.7736
277.1217, 889.8743
277.6039, 881.7540
278.0860, 876.4778
278.5681, 873.9074
279.0502, 874.7776
279.5323, 883.7018
280.0144, 886.6562
280.4966, 876.1179
280.9787, 861.4276
281.4608, 851.2413
281.9429, 848.9998
282.4250, 851.7523
282.9071, 854.2752
283.3893, 857.3803
283.8714, 858.2703
284.3535, 854.9673
284.8356, 850.3907
285.3177, 847.0964
285.7998, 845.9238
286.2820, 845.4344
286.7641, 842.5762
287.2462, 835.0158
287.7283, 831.3776
288.2104, 833.1061
288.6925, 838.6722
289.1747, 848.9837
289.6568, 863.9512
290.1389, 878.8322
290.6210, 886.5864
291.1031, 885.0671
291.5852, 883.3544
292.0674, 880.9721
292.5495, 879.8262
293.0316, 880.7069
293.5137, 883.9045
293.9958, 890.0036
294.4779, 902.0934
294.9601, 923.1261
295.4422, 935.6397
295.9243, 931.7015
296.4064, 923.2847
296.8885, 915.2047
297.3706, 908.2448
297.8528, 901.3505
298.3349, 893.2262
298.8170, 883.7065
299.2991, 874.7515
299.7812, 864.0093
300.2633, 856.2462
300.7455, 855.4347
301.2276, 860.3672
301.7097, 865.6525
302.1918, 866.4280
302.6739, 862.6208
303.1560, 859.4551
303.6382, 855.1948
304.1203, 853.7188
304.6024, 859.0159
305.0845, 868.7369
305.5666, 876.4511
306.0487, 876.1147
306.5309, 869.1408
307.0130, 866.9750
307.4951, 873.3842
307.9772, 879.6384
308.4593, 880.8849
308.9414, 879.3691
309.4236, 879.5304
309.9057, 884.5861
310.3878, 892.9572
310.8699, 899.7137
311.3520, 905.4835
311.8341, 908.1227
312.3163, 903.4440
312.7984, 896.2398
313.2805, 893.4591
313.7626, 898.8721
314.2447, 909.3884
314.7268, 919.6497
315.2090, 930.4871
315.6911, 938.6538
316.1732, 939.5773
316.6553, 938.5234
317.1374, 941.2717
317.6195, 950.2903
318.1017, 961.9384
318.5838, 970.4901
319.0659, 974.9270
319.5480, 982.5144
320.0301, 1003.086
320.5122, 1024.070
320.9944, 1032.265
321.4765, 1023.299
321.9586, 1011.697
322.4407, 1012.502
322.9228, 1025.694
323.4049, 1038.450
323.8871, 1049.483
324.3692, 1056.585
324.8513, 1056.787
325.3334, 1049.498
325.8155, 1041.915
326.2976, 1039.063
326.7798, 1040.304
327.2619, 1042.355
327.7440, 1044.953
328.2261, 1047.758
328.7082, 1051.405
329.1903, 1055.720
329.6725, 1057.450
330.1546, 1053.436
330.6367, 1045.790
331.1188, 1039.356
331.6009, 1034.620
332.0830, 1031.527
332.5652, 1032.893
333.0473, 1036.961
333.5294, 1035.469
334.0115, 1021.092
334.4936, 1001.863
334.9757, 988.4542
335.4579, 981.8863
335.9400, 978.3491
336.4221, 975.3835
336.9042, 973.3371
337.3863, 973.4954
337.8684, 981.2910
338.3506, 987.5189
338.8327, 981.2531
339.3148, 963.7546
339.7969, 949.7377
340.2791, 949.9011
340.7612, 959.6119
341.2433, 960.8919
341.7254, 943.8094
342.2075, 929.8244
342.6896, 934.3085
343.1718, 951.0724
343.6539, 961.6368
344.1360, 956.7798
344.6181, 942.5574
345.1002, 934.6553
345.5823, 933.1459
346.0645, 935.5650
346.5466, 946.4009
347.0287, 959.4623
347.5108, 964.1308
347.9929, 956.6599
348.4750, 944.2195
348.9572, 938.1265
349.4393, 940.2815
349.9214, 944.6771
350.4035, 957.2993
350.8856, 968.3478
351.3677, 964.3491
351.8499, 944.9460
352.3320, 927.3105
352.8141, 931.7786
353.2962, 965.5720
353.7783, 988.1155
354.2604, 996.2211
354.7426, 997.5242
355.2247, 992.3305
355.7068, 983.2151
356.1889, 975.7558
356.6710, 973.8526
357.1531, 977.5233
357.6353, 989.1265
358.1174, 1019.486
358.5995, 1045.693
359.0816, 1058.851
359.5637, 1064.076
360.0458, 1069.263
360.5280, 1078.528
361.0101, 1092.163
361.4922, 1111.572
361.9743, 1139.140
362.4564, 1169.703
362.9385, 1202.335
363.4207, 1237.814
363.9028, 1279.785
364.3849, 1328.968
364.8670, 1377.563
365.3491, 1412.176
365.8312, 1429.303
366.3134, 1441.411
366.7955, 1455.535
367.2776, 1460.901
367.7597, 1450.698
368.2418, 1424.304
368.7239, 1385.622
369.2061, 1332.471
369.6882, 1263.041
370.1703, 1208.966
370.6524, 1183.184
371.1345, 1160.649
371.6166, 1129.153
372.0988, 1091.283
372.5809, 1054.997
373.0630, 1025.211
373.5451, 1000.802
374.0272, 977.8646
374.5093, 955.7328
374.9915, 936.7194
375.4736, 922.1475
375.9557, 910.9842
376.4378, 902.2665
376.9199, 895.9448
377.4020, 891.5334
377.8842, 890.0129
378.3663, 891.8090
378.8484, 889.6331
379.3305, 877.9625
379.8126, 862.3085
380.2947, 849.4252
380.7769, 839.3514
381.2590, 833.2313
381.7411, 834.0466
382.2232, 839.8423
382.7053, 843.6721
383.1874, 843.4545
383.6696, 841.4016
384.1517, 840.3651
384.6338, 840.3923
385.1159, 839.7200
385.5980, 837.8339
386.0801, 835.0182
386.5623, 831.0722
387.0444, 825.9681
387.5265, 821.4041
388.0086, 818.6978
388.4907, 818.0483
388.9728, 818.9618
389.4550, 821.7490
389.9371, 825.7726
390.4192, 831.1797
390.9013, 837.6163
391.3834, 844.3284
391.8655, 851.1686
392.3477, 857.6584
392.8298, 861.1979
393.3119, 858.2458
393.7940, 856.9035
394.2761, 858.5978
394.7582, 862.5452
395.2404, 867.9520
395.7225, 874.5301
396.2046, 881.9227
396.6867, 889.2336
397.1688, 893.6031
397.6509, 904.0155
398.1331, 927.0435
398.6152, 950.1319
399.0973, 963.0334
399.5794, 966.7373
400.0615, 971.0546
400.5436, 985.9174
401.0258, 1011.927
401.5079, 1036.282
401.9900, 1057.608
402.4721, 1078.561
402.9542, 1101.180
403.4363, 1123.847
403.9185, 1144.442
404.4006, 1162.456
404.8827, 1176.603
405.3648, 1181.841
405.8469, 1173.334
406.3290, 1168.522
406.8112, 1181.304
407.2933, 1195.841
407.7754, 1196.169
408.2575, 1177.698
408.7396, 1154.274
409.2217, 1139.006
409.7039, 1131.471
410.1860, 1124.741
410.6681, 1118.483
411.1502, 1111.249
411.6324, 1101.617
412.1145, 1089.762
412.5966, 1077.328
413.0787, 1062.586
413.5608, 1048.482
414.0429, 1040.317
414.5251, 1038.807
415.0072, 1040.702
415.4893, 1044.961
415.9714, 1050.924
416.4535, 1054.777
416.9356, 1051.265
417.4178, 1050.246
417.8999, 1059.048
418.3820, 1075.345
418.8641, 1092.788
419.3462, 1109.037
419.8283, 1123.278
420.3105, 1132.997
420.7926, 1136.865
421.2747, 1138.754
421.7568, 1137.313
422.2389, 1134.985
422.7210, 1135.575
423.2032, 1139.355
423.6853, 1141.618
424.1674, 1136.450
424.6495, 1122.110
425.1316, 1107.990
425.6137, 1090.306
426.0959, 1076.428
426.5780, 1073.128
427.0601, 1076.212
427.5422, 1075.171
428.0243, 1061.905
428.5064, 1040.770
428.9886, 1031.118
429.4707, 1039.390
429.9528, 1048.879
430.4349, 1058.394
430.9170, 1065.972
431.3991, 1068.390
431.8813, 1064.685
432.3634, 1060.264
432.8455, 1061.211
433.3276, 1067.615
433.8097, 1078.238
434.2918, 1098.582
434.7740, 1116.745
435.2561, 1122.292
435.7382, 1117.111
436.2203, 1113.098
436.7024, 1117.598
437.1845, 1126.770
437.6667, 1133.814
438.1488, 1138.336
438.6309, 1141.729
439.1130, 1146.331
439.5951, 1150.035
440.0772, 1147.160
440.5594, 1132.714
441.0415, 1117.181
441.5236, 1104.241
442.0057, 1094.596
442.4878, 1091.949
442.9699, 1098.985
443.4521, 1108.205
443.9342, 1105.546
444.4163, 1082.827
444.8984, 1067.817
445.3805, 1065.605
445.8626, 1068.873
446.3448, 1073.613
446.8269, 1078.420
447.3090, 1081.311
447.7911, 1080.262
448.2732, 1075.260
448.7553, 1071.661
449.2375, 1069.049
449.7196, 1068.398
450.2017, 1071.014
450.6838, 1075.404
451.1659, 1079.244
451.6480, 1081.472
452.1302, 1083.824
452.6123, 1090.090
453.0944, 1101.844
453.5765, 1112.200
454.0586, 1122.669
454.5407, 1129.384
455.0229, 1128.211
455.5050, 1119.923
455.9871, 1110.906
456.4692, 1106.592
456.9513, 1105.340
457.4334, 1100.715
457.9156, 1091.107
458.3977, 1082.281
458.8798, 1080.604
459.3619, 1081.893
459.8440, 1077.660
460.3261, 1061.717
460.8083, 1045.934
461.2904, 1041.500
461.7725, 1045.166
462.2546, 1044.895
462.7367, 1036.244
463.2188, 1022.071
463.7010, 1005.998
464.1831, 985.3981
464.6652, 971.1868
465.1473, 970.9248
465.6294, 973.3290
466.1115, 968.6373
466.5937, 956.5325
467.0758, 942.0071
467.5579, 928.4554
468.0400, 916.0920
468.5221, 908.8647
469.0042, 912.0163
469.4864, 914.4596
469.9685, 914.6738
470.4506, 912.8968
470.9327, 909.0397
471.4148, 903.1249
471.8969, 896.7225
472.3791, 892.8437
472.8612, 892.5217
473.3433, 890.0751
473.8254, 882.7745
474.3075, 875.1221
474.7896, 867.6570
475.2718, 861.4695
475.7539, 859.9832
476.2360, 870.0945
476.7181, 884.7792
477.2002, 887.2777
477.6823, 875.7788
478.1645, 862.1008
478.6466, 848.7866
479.1287, 838.6154
479.6108, 836.8020
480.0929, 847.6490
480.5751, 857.9253
481.0572, 861.0449
481.5393, 858.8931
482.0214, 853.9651
482.5035, 846.6184
482.9857, 839.8302
483.4678, 837.6199
483.9499, 841.4978
484.4320, 840.9493
484.9141, 831.2808
485.3962, 821.9575
485.8784, 817.3153
486.3605, 816.9260
486.8426, 819.6447
487.3247, 825.0970
487.8068, 831.8179
488.2889, 835.3887
488.7711, 833.8112
489.2532, 832.6559
489.7353, 832.7810
490.2174, 833.1769
490.6995, 832.9693
491.1816, 832.1695
491.6638, 831.6209
492.1459, 832.3488
492.6280, 834.1005
493.1101, 835.1832
493.5922, 835.6775
494.0743, 835.2927
494.5565, 832.9510
495.0386, 829.8613
495.5207, 827.5768
496.0028, 825.6584
496.4849, 826.0687
496.9670, 831.6427
497.4492, 841.0701
497.9313, 850.3528
498.4134, 859.0801
498.8955, 865.1373
499.3776, 864.0781
499.8597, 853.5239
500.3419, 849.9818
500.8240, 862.5626
501.3061, 875.6069
501.7882, 874.4810
502.2703, 863.8289
502.7524, 860.8514
503.2346, 876.7720
503.7167, 905.3115
504.1988, 922.6418
504.6809, 921.0063
505.1630, 919.6018
505.6451, 917.7693
506.1273, 918.2033
506.6094, 923.5809
507.0915, 933.8772
507.5736, 946.3182
508.0557, 959.0405
508.5378, 971.8912
509.0200, 983.6404
509.5021, 994.2228
509.9842, 1003.746
510.4663, 1007.631
510.9484, 1011.801
511.4305, 1027.030
511.9127, 1061.696
512.3948, 1095.274
512.8769, 1107.761
513.3590, 1105.425
513.8411, 1108.380
514.3232, 1121.574
514.8054, 1142.569
515.2875, 1170.205
515.7696, 1205.917
516.2517, 1238.732
516.7338, 1268.838
517.2159, 1295.718
517.6981, 1316.141
518.1802, 1333.181
518.6623, 1355.316
519.1444, 1387.738
519.6265, 1423.587
520.1086, 1442.505
520.5908, 1428.331
521.0729, 1428.394
521.5550, 1458.553
522.0371, 1491.485
522.5192, 1511.236
523.0013, 1516.640
523.4835, 1513.943
523.9656, 1504.725
524.4477, 1491.438
524.9298, 1484.299
525.4119, 1486.185
525.8940, 1483.981
526.3762, 1471.301
526.8583, 1450.979
527.3404, 1425.443
527.8225, 1391.712
528.3046, 1363.150
528.7867, 1355.199
529.2689, 1354.656
529.7510, 1334.846
530.2331, 1291.109
530.7152, 1246.335
531.1973, 1222.078
531.6794, 1218.751
532.1616, 1208.790
532.6437, 1187.785
533.1258, 1166.375
533.6079, 1149.150
534.0900, 1132.905
534.5721, 1111.614
535.0543, 1083.504
535.5364, 1055.044
536.0185, 1036.460
536.5006, 1030.247
536.9827, 1021.370
537.4648, 1005.930
537.9470, 991.7441
538.4291, 982.8532
538.9112, 977.7042
539.3933, 972.8015
539.8754, 966.9035
540.3575, 960.2931
540.8397, 954.0240
541.3218, 947.8304
541.8039, 937.7244
542.2860, 920.0140
542.7681, 902.1016
543.2502, 896.2967
543.7324, 903.5906
544.2145, 907.7696
544.6966, 906.8436
545.1787, 901.7374
545.6608, 888.6111
546.1429, 871.3050
546.6251, 862.2003
547.1072, 869.2750
547.5893, 885.5021
548.0714, 890.1105
548.5535, 873.7216
549.0356, 862.2479
549.5178, 859.5841
549.9999, 859.5925
550.4820, 857.7415
550.9641, 854.4542
551.4462, 853.7070
551.9283, 860.3786
552.4105, 870.8724
552.8926, 874.6419
553.3747, 870.8206
553.8568, 864.3290
554.3389, 854.4550
554.8210, 844.8009
555.3032, 841.0470
555.7853, 844.5522
556.2674, 848.1293
556.7495, 848.2201
557.2316, 847.2286
557.7137, 848.8732
558.1959, 853.1295
558.6780, 856.0685
559.1601, 854.3125
559.6422, 848.8965
560.1243, 847.0031
560.6064, 853.3860
561.0886, 857.4822
561.5707, 857.1622
562.0528, 854.9124
562.5349, 853.1218
563.0170, 852.0839
563.4991, 850.2524
563.9813, 845.5624
564.4634, 838.5130
564.9455, 833.0407
565.4276, 829.1968
565.9097, 826.8323
566.3918, 828.6051
566.8740, 830.7545
567.3561, 827.4377
567.8382, 815.9142
568.3203, 805.5331
568.8024, 803.0992
569.2845, 804.7108
569.7667, 803.4099
570.2488, 798.1285
570.7309, 792.0189
571.2130, 787.6157
571.6951, 784.8622
572.1772, 782.3679
572.6594, 780.9199
573.1415, 778.7474
573.6236, 774.6971
574.1057, 770.1827
574.5878, 766.7291
575.0699, 764.6558
575.5521, 763.2111
576.0342, 762.4850
576.5163, 762.2844
576.9984, 757.6886
577.4805, 745.4581
577.9626, 735.2712
578.4448, 734.3513
578.9269, 737.5472
579.4090, 737.5388
579.8911, 731.5653
580.3732, 726.9205
580.8553, 731.1440
581.3375, 738.8775
581.8196, 739.0564
582.3017, 729.8639
582.7838, 719.2383
583.2659, 713.7412
583.7480, 713.2177
584.2302, 713.6026
584.7123, 716.2922
585.1944, 718.1021
585.6765, 717.9918
586.1587, 716.9678
586.6408, 716.1575
587.1229, 715.7695
587.6050, 715.1149
588.0872, 713.4713
588.5693, 710.8906
589.0514, 707.5421
589.5335, 702.1959
590.0156, 698.9075
590.4977, 701.2548
590.9799, 706.3517
591.4620, 710.6141
591.9441, 714.1631
592.4262, 715.4430
592.9083, 711.7200
593.3904, 706.0570
593.8726, 702.9966
594.3547, 703.1241
594.8368, 704.6217
595.3189, 706.1801
595.8010, 707.8207
596.2831, 709.7307
596.7653, 711.5804
597.2474, 714.1732
597.7295, 718.1977
598.2116, 722.5858
598.6937, 727.4688
599.1758, 732.2289
599.6580, 734.1436
600.1401, 727.5790
600.6222, 716.3809
601.1043, 717.2708
601.5864, 733.1243
602.0685, 747.2403
602.5507, 751.7200
603.0328, 750.3691
603.5149, 749.5161
603.9970, 748.5608
604.4791, 750.4028
604.9612, 756.9247
605.4434, 766.0182
605.9255, 777.4002
606.4076, 789.8512
606.8897, 798.8728
607.3718, 801.2537
607.8539, 799.1326
608.3361, 799.6735
608.8182, 803.5424
609.3003, 808.8728
609.7824, 814.8107
610.2645, 822.6174
610.7466, 833.8105
611.2288, 847.7768
611.7109, 862.0422
612.1930, 874.7427
612.6751, 887.2413
613.1572, 901.9178
613.6393, 918.5814
614.1215, 935.9279
614.6036, 954.1228
615.0857, 971.3841
615.5678, 984.7033
616.0499, 993.2025
616.5320, 1002.476
617.0142, 1011.815
617.4963, 1022.900
617.9784, 1035.080
618.4605, 1049.973
618.9426, 1071.300
619.4247, 1100.657
619.9069, 1133.799
620.3890, 1163.869
620.8711, 1189.695
621.3532, 1219.010
621.8353, 1249.952
622.3174, 1287.807
622.7996, 1341.931
623.2817, 1403.873
623.7638, 1455.120
624.2459, 1485.033
624.7280, 1515.347
625.2101, 1558.184
625.6923, 1612.771
626.1744, 1680.340
626.6565, 1761.027
627.1386, 1843.542
627.6207, 1918.054
628.1028, 1984.913
628.5850, 2051.171
629.0671, 2110.729
629.5492, 2177.438
630.0313, 2258.449
630.5134, 2343.990
630.9955, 2426.412
631.4777, 2503.667
631.9598, 2574.717
632.4419, 2641.516
632.9240, 2701.100
633.4061, 2745.695
633.8882, 2775.175
634.3704, 2789.627
634.8525, 2788.633
635.3346, 2773.136
635.8167, 2746.153
636.2988, 2713.228
636.7809, 2653.333
637.2631, 2548.131
637.7452, 2428.179
638.2273, 2307.461
638.7094, 2190.591
639.1915, 2081.036
639.6736, 1981.237
640.1558, 1888.426
640.6379, 1797.341
641.1200, 1706.732
641.6021, 1620.552
642.0842, 1539.574
642.5663, 1462.875
643.0485, 1386.659
643.5306, 1313.656
644.0127, 1252.059
644.4948, 1208.287
644.9769, 1170.614
645.4590, 1130.855
645.9412, 1091.407
646.4233, 1058.133
646.9054, 1032.079
647.3875, 1009.673
647.8696, 987.7465
648.3517, 966.3059
648.8339, 946.8447
649.3160, 932.6470
649.7981, 915.9061
650.2802, 890.2864
650.7623, 865.0931
651.2444, 850.5241
651.7266, 846.8358
652.2087, 842.8682
652.6908, 829.0340
653.1729, 810.3347
653.6550, 797.4222
654.1371, 790.1112
654.6193, 780.4304
655.1014, 763.7460
655.5835, 745.6041
656.0656, 736.1808
656.5477, 740.6846
657.0298, 738.7473
657.5120, 723.3500
657.9941, 708.5118
658.4762, 702.4958
658.9583, 701.8843
659.4404, 699.7444
659.9225, 693.2373
660.4047, 685.2726
660.8868, 679.8636
661.3689, 676.8552
661.8510, 673.3527
662.3331, 668.7575
662.8152, 664.7154
663.2974, 662.6194
663.7795, 661.8259
664.2616, 660.3840
664.7437, 657.7877
665.2258, 655.4146
665.7079, 654.2491
666.1901, 653.1581
666.6722, 651.1156
667.1543, 648.0137
667.6364, 643.7944
668.1185, 638.0444
668.6006, 632.1026
669.0828, 631.3677
669.5649, 639.2800
670.0470, 639.3594
670.5291, 621.5410
671.0112, 602.6682
671.4933, 594.9298
671.9755, 596.5697
672.4576, 600.1281
672.9397, 605.3847
673.4218, 609.9613
673.9039, 612.8529
674.3860, 613.7952
674.8682, 610.8088
675.3503, 603.8480
675.8324, 598.6186
676.3145, 601.9308
676.7966, 613.2042
677.2787, 616.6492
677.7609, 607.4609
678.2430, 598.1912
678.7251, 588.8408
679.2072, 582.4564
679.6893, 583.0379
680.1714, 590.3992
680.6536, 597.9137
681.1357, 603.2773
681.6178, 606.1939
682.0999, 605.8419
682.5820, 602.5916
683.0641, 597.5164
683.5463, 590.8007
684.0284, 584.1599
684.5105, 579.8699
684.9926, 577.8961
685.4747, 578.6328
685.9568, 588.4588
686.4390, 593.7057
686.9211, 585.0800
687.4032, 572.3763
687.8853, 568.9771
688.3674, 578.1044
688.8495, 588.2268
689.3317, 590.6917
689.8138, 587.8336
690.2959, 582.9816
690.7780, 576.5866
691.2601, 573.4141
691.7422, 576.7808
692.2244, 582.8846
692.7065, 583.3915
693.1886, 574.9778
693.6707, 568.6514
694.1528, 565.9066
694.6349, 563.5268
695.1171, 558.0920
695.5992, 552.5394
696.0813, 553.1460
696.5634, 562.8244
697.0455, 572.8506
697.5276, 573.4391
698.0098, 566.8943
698.4919, 560.1695
698.9740, 553.8060
699.4561, 549.2236
699.9382, 547.1572
700.4203, 547.5971
700.9025, 550.5765
701.3846, 558.7203
701.8667, 565.1849
702.3488, 570.4642
702.8309, 573.5255
703.3130, 572.5104
703.7952, 568.8749
704.2773, 565.3952
704.7594, 562.9670
705.2415, 562.7551
705.7236, 568.8956
706.2057, 579.3431
706.6879, 582.2175
707.1700, 575.0432
707.6521, 565.5399
708.1342, 557.8777
708.6163, 552.6272
709.0984, 552.5698
709.5806, 564.0332
710.0627, 571.4849
710.5448, 570.7943
711.0269, 568.3575
711.5090, 568.4979
711.9911, 570.9627
712.4733, 573.9818
712.9554, 577.2410
713.4375, 578.7491
713.9196, 573.2051
714.4017, 562.2344
714.8839, 558.5052
715.3660, 565.7299
715.8481, 572.2079
716.3302, 567.5648
716.8123, 554.2245
717.2944, 548.0093
717.7766, 553.8851
718.2587, 559.4687
718.7408, 562.8375
719.2229, 566.0242
719.7050, 572.0787
720.1871, 579.5205
720.6693, 583.4332
721.1514, 580.7083
721.6335, 574.0334
722.1156, 565.3154
722.5977, 555.3915
723.0798, 550.7542
723.5620, 553.2761
724.0441, 557.3672
724.5262, 558.1643
725.0083, 556.4555
725.4904, 558.1866
725.9725, 569.0873
726.4547, 575.4214
726.9368, 571.2823
727.4189, 565.9379
727.9011, 567.2939
728.3832, 573.9296
728.8653, 578.9517
729.3474, 578.4987
729.8295, 575.3116
730.3116, 572.0156
730.7938, 568.9608
731.2759, 568.0886
731.7580, 569.9348
732.2401, 572.3702
732.7222, 573.9230
733.2043, 574.5643
733.6865, 574.0660
734.1686, 567.3515
734.6507, 566.7844
735.1328, 578.9525
735.6149, 592.1971
736.0970, 598.5549
736.5792, 599.0071
737.0613, 598.5165
737.5434, 598.7332
738.0255, 600.1974
738.5076, 604.5653
738.9897, 610.5974
739.4719, 614.8582
739.9540, 616.7440
740.4361, 617.0405
740.9182, 616.3584
741.4003, 614.5422
741.8824, 610.6122
742.3646, 601.2427
742.8467, 595.8235
743.3288, 596.7939
743.8109, 599.8391
744.2930, 604.4590
744.7751, 609.0724
745.2573, 610.1264
745.7394, 605.2469
746.2215, 599.2072
746.7036, 596.7986
747.1857, 595.4760
747.6678, 588.8193
748.1500, 576.9991
748.6321, 568.6077
749.1142, 569.9612
749.5963, 577.3013
750.0784, 579.8386
750.5605, 576.3975
751.0427, 571.3847
751.5248, 562.8407
752.0069, 555.3271
752.4890, 552.2893
752.9711, 551.6633
753.4532, 549.0870
753.9354, 542.5793
754.4175, 537.1339
754.8996, 535.6724
755.3817, 536.3300
755.8638, 538.0786
756.3459, 540.0441
756.8281, 539.8217
757.3102, 536.0048
757.7923, 530.5641
758.2744, 526.5687
758.7565, 523.8387
759.2386, 525.1059
759.7208, 532.9748
760.2029, 539.6132
760.6850, 539.7635
761.1671, 536.2182
761.6492, 534.9925
762.1313, 537.7527
762.6135, 537.6564
763.0956, 528.5459
763.5777, 520.1932
764.0598, 520.5144
764.5419, 526.8424
765.0240, 533.8668
765.5062, 539.3958
765.9883, 542.1061
766.4704, 539.0933
766.9525, 531.5358
767.4346, 525.0625
767.9167, 519.4599
768.3989, 518.3326
768.8810, 524.8856
769.3631, 534.4043
769.8452, 539.5904
770.3273, 540.1247
770.8094, 536.9296
771.2916, 522.5208
771.7737, 513.1434
772.2558, 519.1589
772.7379, 531.0936
773.2200, 537.9517
773.7021, 537.4252
774.1843, 533.2285
774.6664, 525.2499
775.1485, 516.8013
775.6306, 513.2634
776.1127, 514.1366
776.5948, 517.3331
777.0770, 522.3556
777.5591, 527.3591
778.0412, 530.4755
778.5233, 531.6938
779.0054, 529.8307
779.4875, 520.3332
779.9697, 515.6339
780.4518, 522.3722
780.9339, 531.4554
781.4160, 536.6512
781.8981, 537.9313
782.3802, 537.5630
782.8624, 534.9660
783.3445, 532.4131
783.8266, 532.1512
784.3087, 532.5075
784.7908, 530.2686
785.2729, 525.5357
785.7551, 521.7101
786.2372, 521.3594
786.7193, 523.5618
787.2014, 526.9938
787.6835, 532.2288
788.1656, 531.9178
788.6478, 522.1488
789.1299, 512.7981
789.6120, 511.3344
790.0941, 516.0268
790.5762, 519.9026
791.0583, 522.6630
791.5405, 525.1647
792.0226, 527.7130
792.5047, 529.8810
792.9868, 531.7482
793.4689, 532.9390
793.9510, 532.2047
794.4332, 528.8063
794.9153, 526.1136
795.3974, 528.5206
795.8795, 534.0951
796.3616, 538.5782
796.8438, 541.5729
797.3259, 541.4766
797.8080, 537.0196
798.2901, 531.1096
798.7722, 528.8160
799.2543, 530.9109
799.7365, 532.5154
800.2186, 531.1955
800.7007, 532.8441
801.1828, 545.3245
801.6649, 557.7066
802.1470, 555.3053
802.6292, 537.3376
803.1113, 524.9265
803.5934, 531.1378
804.0755, 540.7644
804.5576, 541.7020
805.0397, 538.6222
805.5219, 541.1570
806.0040, 550.6779
806.4861, 559.7299
806.9682, 561.9590
807.4503, 558.6762
807.9324, 552.4135
808.4146, 542.7057
808.8967, 537.6019
809.3788, 539.7674
809.8609, 544.3193
810.3430, 547.8289
810.8251, 550.2383
811.3073, 551.1094
811.7894, 549.6687
812.2715, 547.8654
812.7536, 544.6725
813.2357, 542.2139
813.7178, 541.9418
814.2000, 543.5151
814.6821, 546.6683
815.1642, 552.2013
815.6463, 555.1317
816.1284, 548.4395
816.6105, 537.9228
817.0927, 532.9459
817.5748, 533.5867
818.0569, 535.9587
818.5390, 538.2321
819.0211, 541.5378
819.5032, 548.4932
819.9854, 559.4943
820.4675, 566.4022
820.9496, 567.9160
821.4317, 568.5078
821.9138, 569.9296
822.3959, 571.1374
822.8781, 570.2024
823.3602, 566.9854
823.8423, 565.6764
824.3244, 566.8088
824.8065, 569.8381
825.2886, 577.9829
825.7708, 585.8015
826.2529, 585.8146
826.7350, 578.6841
827.2171, 572.5303
827.6992, 572.5438
828.1813, 575.6784
828.6635, 578.2296
829.1456, 580.4198
829.6277, 583.0582
830.1098, 586.2545
830.5919, 589.1701
831.0740, 590.8660
831.5562, 592.5802
832.0383, 598.5627
832.5204, 610.9528
833.0025, 620.0201
833.4846, 623.5547
833.9667, 626.1671
834.4489, 630.8480
834.9310, 635.8395
835.4131, 638.0724
835.8952, 636.5786
836.3773, 635.9546
836.8594, 636.1685
837.3416, 638.7203
837.8237, 647.1852
838.3058, 657.5414
838.7879, 663.5211
839.2700, 663.7714
839.7521, 661.7968
840.2343, 658.6700
840.7164, 656.4251
841.1985, 660.3254
841.6806, 669.0877
842.1627, 675.4044
842.6448, 677.4166
843.1270, 678.6198
843.6091, 681.7156
844.0912, 686.9706
844.5733, 696.5712
845.0554, 714.2217
845.5375, 726.2044
846.0197, 727.4232
846.5018, 726.9101
846.9839, 730.6503
847.4660, 736.6323
847.9481, 740.6148
848.4302, 741.9049
848.9124, 741.9901
849.3945, 740.0376
849.8766, 738.1930
850.3587, 737.8998
850.8408, 738.8423
851.3229, 740.2907
851.8051, 742.0042
852.2872, 744.1016
852.7693, 747.0536
853.2514, 750.3061
853.7335, 752.1798
854.2156, 753.1718
854.6978, 757.2937
855.1799, 765.8651
855.6620, 771.3959
856.1441, 765.5423
856.6262, 750.2588
857.1083, 738.7572
857.5905, 731.2495
858.0726, 726.8138
858.5547, 726.0493
859.0368, 727.3705
859.5189, 732.8128
860.0010, 739.3331
860.4832, 737.3901
860.9653, 721.3948
861.4474, 707.5752
861.9295, 697.5918
862.4116, 691.8348
862.8937, 696.2242
863.3759, 703.1916
863.8580, 697.7469
864.3401, 675.8469
864.8222, 655.2467
865.3043, 652.1115
865.7864, 656.8109
866.2686, 657.0536
866.7507, 653.3220
867.2328, 647.7072
867.7149, 640.9483
868.1971, 634.6517
868.6792, 630.1565
869.1613, 627.5182
869.6434, 628.3330
870.1255, 633.9011
870.6077, 632.2996
871.0898, 618.3167
871.5719, 604.6148
872.0540, 601.1039
872.5361, 604.7758
873.0182, 604.8868
873.5004, 597.7727
873.9825, 593.6630
874.4646, 594.9408
874.9467, 596.6345
875.4288, 596.6470
875.9109, 595.5706
876.3931, 593.9499
876.8752, 591.8828
877.3573, 591.2772
877.8394, 595.9733
878.3215, 599.7547
878.8036, 595.6766
879.2858, 587.6884
879.7679, 582.2546
880.2500, 580.8517
880.7321, 581.9913
881.2142, 584.6470
881.6964, 588.9429
882.1785, 596.5280
882.6606, 606.5793
883.1427, 612.7684
883.6248, 614.1721
884.1069, 612.5287
884.5891, 608.4360
885.0712, 603.0030
885.5533, 598.2676
886.0354, 593.0945
886.5175, 593.5765
886.9996, 603.4984
887.4818, 612.8617
887.9639, 617.7171
888.4460, 620.1246
888.9281, 621.8204
889.4102, 622.8162
889.8923, 625.2905
890.3745, 633.8472
890.8566, 638.5511
891.3387, 631.0553
891.8208, 621.7046
892.3029, 622.5474
892.7850, 631.1122
893.2672, 634.3404
893.7493, 624.1522
894.2314, 613.9983
894.7135, 619.5721
895.1956, 630.8471
895.6777, 632.0366
896.1599, 623.3747
896.6420, 610.5062
897.1241, 595.9634
897.6062, 583.3033
898.0883, 577.4559
898.5704, 577.7543
899.0526, 581.4976
899.5347, 589.0369
900.0168, 593.2968
900.4989, 591.6467
900.9810, 588.5807
901.4631, 588.9504
901.9453, 591.7324
902.4274, 589.0703
902.9095, 575.9577
903.3916, 567.6400
903.8737, 571.7112
904.3558, 573.6492
904.8380, 560.7586
905.3201, 542.4902
905.8022, 537.3189
906.2843, 550.5509
906.7664, 560.3215
907.2485, 559.9630
907.7307, 556.3362
908.2128, 552.3245
908.6949, 547.8573
909.1770, 541.4892
909.6591, 533.7242
910.1412, 528.4808
910.6234, 528.7042
911.1055, 531.5596
911.5876, 535.6345
912.0697, 539.6351
912.5518, 540.8646
913.0339, 539.3108
913.5161, 536.6990
913.9982, 533.9143
914.4803, 531.3571
914.9624, 529.5271
915.4445, 528.4587
915.9266, 528.8148
916.4088, 530.7078
916.8909, 531.9470
917.3730, 531.6396
917.8551, 530.6837
918.3372, 530.2047
918.8193, 530.1422
919.3015, 528.9713
919.7836, 525.4013
920.2657, 523.7827
920.7478, 526.3947
921.2299, 529.1994
921.7120, 529.4744
922.1942, 527.8722
922.6763, 525.7465
923.1584, 522.4257
923.6405, 520.4204
924.1226, 522.2346
924.6047, 523.0446
925.0869, 518.6479
925.5690, 512.7837
926.0511, 510.6288
926.5332, 512.7451
927.0153, 515.3717
927.4974, 517.3093
927.9796, 518.3146
928.4617, 518.3403
928.9438, 517.2344
929.4259, 513.4333
929.9080, 508.0875
930.3901, 505.9725
930.8723, 509.9791
931.3544, 514.9114
931.8365, 512.9246
932.3186, 507.0033
932.8007, 506.0979
933.2828, 509.8094
933.7650, 511.9591
934.2471, 510.3342
934.7292, 507.5343
935.2113, 506.4900
935.6934, 506.7243
936.1755, 505.0472
936.6577, 500.8239
937.1398, 499.7294
937.6219, 503.8192
938.1040, 507.9605
938.5861, 509.0640
939.0682, 507.4364
939.5504, 503.2391
940.0325, 493.1022
940.5146, 490.4254
940.9967, 503.4356
941.4788, 512.9765
941.9609, 509.0697
942.4431, 501.7389
942.9252, 501.7328
943.4073, 508.7515
943.8894, 513.8310
944.3715, 517.0051
944.8536, 516.0618
945.3358, 503.9447
945.8179, 493.1360
946.3000, 496.6147
946.7821, 508.7200
947.2642, 515.3137
947.7463, 511.7108
948.2285, 506.2668
948.7106, 503.6663
949.1927, 502.0767
949.6748, 499.2259
950.1569, 496.2507
950.6390, 494.8611
951.1212, 495.7005
951.6033, 500.0453
952.0854, 510.5516
952.5675, 521.0909
953.0496, 520.8956
953.5317, 513.4559
954.0139, 508.7105
954.4960, 507.4517
954.9781, 506.4624
955.4602, 504.2234
955.9423, 501.4793
956.4244, 499.1544
956.9066, 497.2696
957.3887, 495.9192
957.8708, 495.0558
958.3529, 495.7314
958.8350, 498.7215
959.3171, 501.0647
959.7993, 500.1085
960.2814, 496.6865
960.7635, 493.5245
961.2456, 489.5739
961.7277, 489.5189
962.2098, 496.2314
962.6920, 501.8408
963.1741, 502.0221
963.6562, 500.0330
964.1383, 499.8960
964.6204, 501.5919
965.1025, 505.8849
965.5847, 518.6315
966.0668, 525.8723
966.5489, 522.9955
967.0310, 515.8695
967.5131, 505.5839
967.9952, 494.8127
968.4774, 489.6205
968.9595, 492.4789
969.4416, 495.8135
969.9237, 498.0542
970.4058, 499.0271
970.8879, 496.1737
971.3701, 493.3541
971.8522, 497.9661
972.3343, 508.9622
972.8164, 514.8364
973.2985, 506.3026
973.7806, 496.5497
974.2628, 497.5715
974.7449, 502.6926
975.2270, 502.5721
975.7091, 498.5666
976.1912, 497.5194
976.6733, 501.9064
977.1555, 507.5524
977.6376, 510.7841
978.1197, 512.3154
978.6018, 514.6718
979.0839, 516.4499
979.5660, 510.9853
980.0482, 498.3007
980.5303, 488.9455
981.0124, 490.2873
981.4945, 497.8788
981.9766, 505.7648
982.4587, 513.1552
982.9409, 512.9458
983.4230, 504.8385
983.9051, 498.3819
984.3872, 497.0505
984.8693, 497.8647
985.3514, 497.6465
985.8336, 496.7701
986.3157, 497.6219
986.7978, 500.6966
987.2799, 502.2189
987.7620, 500.8950
988.2441, 500.8440
988.7263, 505.0960
989.2084, 510.9577
989.6905, 513.3867
990.1726, 511.8245
990.6547, 511.0928
991.1368, 511.3559
991.6190, 512.2446
992.1011, 515.4506
992.5832, 517.2173
993.0653, 511.4255
993.5474, 501.5823
994.0295, 501.5495
994.5117, 517.4529
994.9938, 529.9929
995.4759, 533.4502
995.9580, 539.3659
996.4401, 559.2071
996.9222, 579.1279
997.4044, 580.9522
997.8865, 565.6573
998.3686, 554.7268
998.8507, 555.2962
999.3328, 557.3887
999.8149, 557.9297
1000.297, 559.2595
1000.779, 564.1821
1001.261, 570.7318
1001.743, 574.7184
1002.226, 575.1600
1002.708, 577.1795
1003.190, 584.1059
1003.672, 592.3191
1004.154, 601.2955
1004.636, 609.0517
1005.118, 612.5952
1005.600, 612.7438
1006.082, 612.8529
1006.565, 614.2964
1007.047, 616.0491
1007.529, 619.4429
1008.011, 620.9847
1008.493, 613.4281
1008.975, 601.9929
1009.457, 597.7938
1009.939, 602.2468
1010.422, 608.6514
1010.904, 613.9382
1011.386, 615.3387
1011.868, 605.4515
1012.350, 590.7849
1012.832, 585.6918
1013.314, 588.5323
1013.796, 588.5143
1014.279, 582.0724
1014.761, 575.2170
1015.243, 574.2346
1015.725, 576.2620
1016.207, 575.2849
1016.689, 571.7612
1017.171, 567.5365
1017.653, 562.8696
1018.135, 557.0634
1018.618, 549.6558
1019.100, 543.2870
1019.582, 542.5745
1020.064, 546.2491
1020.546, 546.9014
1021.028, 544.7560
1021.510, 545.6210
1021.992, 550.9522
1022.474, 555.2984
1022.957, 554.5908
1023.439, 551.3691
1023.921, 551.7813
1024.403, 556.0480
1024.885, 555.5148
1025.367, 548.9971
1025.849, 547.3654
1026.331, 555.5192
1026.813, 562.6808
1027.296, 557.4883
1027.778, 544.4601
1028.260, 542.4608
1028.742, 554.7576
1029.224, 561.4966
1029.706, 560.4841
1030.188, 557.7389
1030.670, 555.1278
1031.153, 552.7560
1031.635, 549.7429
1032.117, 546.6707
1032.599, 552.8369
1033.081, 574.7220
1033.563, 587.6110
1034.045, 584.3146
1034.527, 580.3621
1035.010, 584.4943
1035.492, 592.0496
1035.974, 595.6085
1036.456, 594.8204
1036.938, 593.5078
1037.420, 590.7849
1037.902, 589.1184
1038.384, 588.7906
1038.866, 589.7241
1039.349, 592.2291
1039.831, 595.8362
1040.313, 599.6385
1040.795, 603.9515
1041.277, 607.3063
1041.759, 610.7819
1042.241, 611.8804
1042.723, 607.2809
1043.205, 602.6347
1043.688, 603.2069
1044.170, 607.2059
1044.652, 608.6130
1045.134, 605.8053
1045.616, 603.8740
1046.098, 604.4771
1046.580, 604.4533
1047.062, 602.4437
1047.545, 599.5077
1048.027, 594.9687
1048.509, 590.0780
1048.991, 590.7750
1049.473, 601.8442
1049.955, 610.6133
1050.437, 613.5137
1050.919, 615.2718
1051.401, 618.0270
1051.884, 620.9663
1052.366, 622.9254
1052.848, 623.9179
1053.330, 624.9522
1053.812, 625.9796
1054.294, 627.4916
1054.776, 628.8398
1055.258, 631.5316
1055.740, 639.2743
1056.223, 647.5067
1056.705, 648.2751
1057.187, 641.1812
1057.669, 636.9834
1058.151, 644.0574
1058.633, 647.2954
1059.115, 634.8627
1059.597, 623.2233
1060.080, 627.1525
1060.562, 639.6066
1061.044, 647.7773
1061.526, 649.3149
1062.008, 647.6367
1062.490, 644.0232
1062.972, 637.2901
1063.454, 621.8829
1063.937, 607.6580
1064.419, 604.5969
1064.901, 608.7854
1065.383, 611.3240
1065.865, 610.2296
1066.347, 607.3509
1066.829, 601.6965
1067.311, 596.5353
1067.793, 592.5868
1068.276, 590.6869
1068.758, 591.8516
1069.240, 595.6560
1069.722, 601.9383
1070.204, 611.2838
1070.686, 617.1777
1071.168, 615.7805
1071.650, 611.2795
1072.132, 601.5769
1072.615, 593.4329
1073.097, 596.3415
1073.579, 606.8573
1074.061, 612.9175
1074.543, 609.9366
1075.025, 608.5027
1075.507, 614.5214
1075.989, 622.3275
1076.472, 629.8134
1076.954, 636.2228
1077.436, 639.2404
1077.918, 640.5828
1078.400, 646.7731
1078.882, 661.8390
1079.364, 673.1832
1079.846, 670.9687
1080.328, 667.4813
1080.811, 670.3042
1081.293, 676.6116
1081.775, 681.7391
1082.257, 686.5574
1082.739, 696.8802
1083.221, 716.6452
1083.703, 734.6790
1084.185, 747.4719
1084.668, 755.1127
1085.150, 752.2823
1085.632, 747.9126
1086.114, 753.8661
1086.596, 769.0314
1087.078, 782.9054
1087.560, 791.5411
1088.042, 800.3059
1088.525, 809.8412
1089.007, 821.9214
1089.489, 838.9120
1089.971, 858.2524
1090.453, 877.9210
1090.935, 897.0823
1091.417, 914.3373
1091.899, 928.1918
1092.381, 942.6086
1092.864, 956.4745
1093.346, 974.4150
1093.828, 1002.094
1094.310, 1033.628
1094.792, 1059.830
1095.274, 1082.314
1095.756, 1112.993
1096.238, 1159.039
1096.720, 1204.363
1097.203, 1244.618
1097.685, 1281.830
1098.167, 1312.056
1098.649, 1343.084
1099.131, 1385.656
1099.613, 1438.289
1100.095, 1490.254
1100.577, 1542.345
1101.060, 1586.573
1101.542, 1616.610
1102.024, 1643.313
1102.506, 1672.143
1102.988, 1700.499
1103.470, 1728.408
1103.952, 1753.686
1104.434, 1766.314
1104.917, 1759.490
1105.399, 1750.572
1105.881, 1742.175
1106.363, 1732.729
1106.845, 1727.320
1107.327, 1716.246
1107.809, 1687.030
1108.291, 1641.988
1108.773, 1596.559
1109.255, 1552.671
1109.738, 1507.901
1110.220, 1464.678
1110.702, 1417.686
1111.184, 1357.902
1111.666, 1299.189
1112.148, 1258.843
1112.630, 1233.021
1113.112, 1197.861
1113.595, 1142.292
1114.077, 1099.029
1114.559, 1075.348
1115.041, 1053.682
1115.523, 1027.846
1116.005, 1002.824
1116.487, 984.7278
1116.969, 971.2501
1117.452, 952.1535
1117.934, 922.7441
1118.416, 900.6340
1118.898, 890.3596
1119.380, 878.4669
1119.862, 857.9003
1120.344, 839.0854
1120.826, 831.7982
1121.308, 832.9132
1121.791, 832.4565
1122.273, 831.2528
1122.755, 824.6946
1123.237, 811.0137
1123.719, 796.7621
1124.201, 782.4390
1124.683, 771.0631
1125.165, 765.1520
1125.647, 763.7826
1126.130, 765.5214
1126.612, 771.3699
1127.094, 770.6671
1127.576, 761.9338
1128.058, 755.5021
1128.540, 754.3058
1129.022, 753.6707
1129.504, 750.3549
1129.987, 745.2349
1130.469, 739.9630
1130.951, 734.5284
1131.433, 729.1490
1131.915, 723.8769
1132.397, 714.9444
1132.879, 701.3705
1133.361, 689.1584
1133.844, 681.9276
1134.326, 678.9863
1134.808, 681.3552
1135.290, 686.7897
1135.772, 683.4730
1136.254, 672.6679
1136.736, 663.0814
1137.218, 656.0789
1137.700, 647.9368
1138.182, 636.5710
1138.665, 628.2263
1139.147, 633.7676
1139.629, 645.7423
1140.111, 645.1278
1140.593, 636.5634
1141.075, 634.7366
1141.557, 639.4687
1142.039, 639.7540
1142.522, 631.3097
1143.004, 622.5814
1143.486, 620.3193
1143.968, 623.5377
1144.450, 635.5181
1144.932, 649.4903
1145.414, 651.4219
1145.896, 644.8629
1146.379, 642.7623
1146.861, 648.8553
1147.343, 658.0323
1147.825, 669.8611
1148.307, 678.6340
1148.789, 677.9064
1149.271, 673.0501
1149.753, 667.8119
1150.235, 663.8509
1150.718, 664.1792
1151.200, 668.5251
1151.682, 671.1950
1152.164, 668.6894
1152.646, 666.0706
1153.128, 664.5948
1153.610, 665.1829
1154.092, 673.4322
1154.574, 680.9822
1155.057, 672.7175
1155.539, 651.8492
1156.021, 642.2606
1156.503, 655.6654
1156.985, 665.2856
1157.467, 663.0404
1157.949, 658.8249
1158.431, 654.5808
1158.914, 652.0236
1159.396, 653.7219
1159.878, 658.4081
1160.360, 661.0805
1160.842, 660.2477
1161.324, 661.5959
1161.806, 668.4215
1162.288, 671.7097
1162.771, 666.4916
1163.253, 661.6465
1163.735, 663.7439
1164.217, 670.0852
1164.699, 675.6166
1165.181, 680.6948
1165.663, 679.6631
1166.145, 670.8145
1166.627, 662.6411
1167.109, 656.4384
1167.592, 651.6967
1168.074, 648.8010
1168.556, 644.8677
1169.038, 634.6465
1169.520, 620.1840
1170.002, 614.5081
1170.484, 617.2518
1170.966, 617.0194
1171.449, 612.6147
1171.931, 606.8602
1172.413, 600.8864
1172.895, 593.5094
1173.377, 583.0868
1173.859, 571.4700
1174.341, 560.7736
1174.823, 552.4609
1175.306, 553.5873
1175.788, 561.2087
1176.270, 562.2658
1176.752, 554.4327
1177.234, 548.3466
1177.716, 551.6962
1178.198, 555.8409
1178.680, 550.2343
1179.162, 540.9597
1179.645, 535.2957
1180.127, 531.8970
1180.609, 527.2194
1181.091, 521.7786
1181.573, 519.8607
1182.055, 523.6564
1182.537, 527.0462
1183.019, 525.1364
1183.501, 523.4830
1183.984, 527.6024
1184.466, 531.8142
1184.948, 530.3564
1185.430, 524.5948
1185.912, 516.5972
1186.394, 505.9976
1186.876, 504.4994
1187.358, 525.8013
1187.841, 539.6519
1188.323, 535.4370
1188.805, 526.8320
1189.287, 518.2060
1189.769, 511.5824
1190.251, 511.2378
1190.733, 516.2483
1191.215, 514.4179
1191.698, 500.2297
1192.180, 495.2156
1192.662, 504.4545
1193.144, 510.8803
1193.626, 507.9469
1194.108, 502.5428
1194.590, 500.7569
1195.072, 501.0992
1195.554, 498.9649
1196.036, 494.3970
1196.519, 493.4976
1197.001, 496.2341
1197.483, 498.8965
1197.965, 500.7076
1198.447, 504.1330
1198.929, 510.8406
1199.411, 516.5300
1199.893, 514.8961
1200.376, 508.2264
1200.858, 498.9733
1201.340, 489.7364
1201.822, 487.9340
1202.304, 492.7426
1202.786, 499.1694
1203.268, 505.1179
1203.750, 508.2994
1204.233, 506.4513
1204.715, 502.2155
1205.197, 495.3207
1205.679, 489.4919
1206.161, 489.9413
1206.643, 493.4329
1207.125, 494.1132
1207.607, 491.8580
1208.089, 491.2864
1208.572, 494.2905
1209.054, 497.7027
1209.536, 500.7077
1210.018, 503.7842
1210.500, 510.4392
1210.982, 514.2953
1211.464, 505.8231
1211.946, 491.0961
1212.428, 486.8855
1212.911, 495.7126
1213.393, 497.6205
1213.875, 487.6870
1214.357, 483.8087
1214.839, 491.4316
1215.321, 497.2776
1215.803, 494.0775
1216.285, 487.5805
1216.768, 484.7618
1217.250, 485.1827
1217.732, 488.0702
1218.214, 493.1146
1218.696, 492.6844
1219.178, 486.7953
1219.660, 482.1298
1220.142, 480.7471
1220.625, 483.1900
1221.107, 490.7052
1221.589, 497.0958
1222.071, 489.9041
1222.553, 478.2353
1223.035, 478.9020
1223.517, 487.3848
1223.999, 495.8083
1224.481, 501.8268
1224.964, 502.1545
1225.446, 495.6050
1225.928, 490.9753
1226.410, 496.8147
1226.892, 501.8438
1227.374, 497.6690
1227.856, 491.8264
1228.338, 490.7917
1228.821, 492.1375
1229.303, 490.8533
1229.785, 487.0285
1230.267, 486.7066
1230.749, 494.5537
1231.231, 498.5985
1231.713, 497.6381
1232.195, 493.9890
1232.677, 485.2986
1233.160, 479.1231
1233.642, 482.3367
1234.124, 490.8329
1234.606, 495.6887
1235.088, 496.9243
1235.570, 497.9480
1236.052, 498.8576
1236.534, 496.3600
1237.016, 489.9972
1237.499, 482.9261
1237.981, 476.5236
1238.463, 473.2709
1238.945, 476.0076
1239.427, 482.8734
1239.909, 494.3126
1240.391, 505.3308
1240.873, 503.1893
1241.356, 492.5289
1241.838, 485.3723
1242.320, 484.0125
1242.802, 485.8117
1243.284, 490.5031
1243.766, 492.8164
1244.248, 487.3046
1244.730, 481.1520
1245.213, 476.9962
1245.695, 475.8928
1246.177, 480.2860
1246.659, 487.7249
1247.141, 494.0139
1247.623, 498.7725
1248.105, 500.8864
1248.587, 499.1488
1249.069, 496.9071
1249.552, 494.1610
1250.034, 491.0598
1250.516, 486.8461
1250.998, 484.0825
1251.480, 485.2170
1251.962, 489.2213
1252.444, 494.2660
1252.926, 500.1936
1253.408, 502.1383
1253.891, 500.4384
1254.373, 499.3780
1254.855, 499.3671
1255.337, 495.4088
1255.819, 485.3895
1256.301, 479.9591
1256.783, 493.7570
1257.265, 510.3939
1257.748, 506.8850
1258.230, 494.5013
1258.712, 486.1357
1259.194, 481.8143
1259.676, 478.8174
1260.158, 477.2155
1260.640, 480.2788
1261.122, 491.3143
1261.604, 498.8094
1262.087, 494.9091
1262.569, 492.4744
1263.051, 501.7263
1263.533, 508.1792
1264.015, 495.9397
1264.497, 478.6402
1264.979, 479.2752
1265.461, 496.2708
1265.943, 502.3975
1266.426, 495.6447
1266.908, 488.1549
1267.390, 480.2660
1267.872, 475.5900
1268.354, 475.2820
1268.836, 477.8783
1269.318, 482.5856
1269.800, 487.7007
1270.283, 490.2737
1270.765, 491.3729
1271.247, 494.0785
1271.729, 496.9559
1272.211, 495.7876
1272.693, 491.8046
1273.175, 490.3148
1273.657, 492.6178
1274.140, 494.4514
1274.622, 493.7472
1275.104, 491.7121
1275.586, 488.2734
1276.068, 484.4572
1276.550, 479.4499
1277.032, 475.5792
##END=



