##NAMES=Augelite
##RRUFFID=R050060
##IDEAL CHEMISTRY=Al_2_PO_4_(OH)_3_
##LOCALITY=Machacamarca, Potosi Department, Bolivia
##OWNER=RRUFF
##SOURCE=Rock Currier
##DESCRIPTION=Colorless prismatic crystals
##STATUS=The identification of this mineral has been confirmed by X-ray diffraction and chemical analysis
##URL=rruff.info/R050060
##MEASURED CHEMISTRY=Al_2.00_(P_1.00_O_4_)(OH)_3_; OH estimated by difference
141.8225, 3400.420
142.3047, 3402.983
142.7868, 3419.370
143.2689, 3449.744
143.7510, 3496.768
144.2331, 3555.169
144.7152, 3617.212
145.1974, 3677.792
145.6795, 3750.709
146.1616, 3843.629
146.6437, 3968.026
147.1258, 4080.913
147.6079, 4169.502
148.0901, 4247.376
148.5722, 4346.442
149.0543, 4474.034
149.5364, 4616.657
150.0185, 4767.385
150.5006, 4921.688
150.9828, 5089.176
151.4649, 5265.107
151.9470, 5450.673
152.4291, 5660.860
152.9112, 5899.993
153.3933, 6160.385
153.8755, 6439.494
154.3576, 6751.413
154.8397, 7065.352
155.3218, 7368.109
155.8039, 7657.182
156.2860, 7968.560
156.7682, 8317.810
157.2503, 8686.430
157.7324, 9054.620
158.2145, 9425.662
158.6966, 9785.691
159.1787, 10131.10
159.6609, 10466.75
160.1430, 10777.39
160.6251, 11072.83
161.1072, 11339.49
161.5893, 11546.13
162.0714, 11684.24
162.5536, 11755.53
163.0357, 11761.96
163.5178, 11713.66
163.9999, 11590.97
164.4820, 11372.25
164.9641, 11064.70
165.4463, 10715.38
165.9284, 10327.58
166.4105, 9916.803
166.8926, 9499.747
167.3747, 9076.687
167.8568, 8652.883
168.3390, 8222.871
168.8211, 7792.711
169.3032, 7377.413
169.7853, 6988.613
170.2674, 6622.823
170.7495, 6274.097
171.2317, 5927.756
171.7138, 5601.318
172.1959, 5319.515
172.6780, 5092.137
173.1601, 4887.058
173.6422, 4675.409
174.1244, 4462.414
174.6065, 4269.469
175.0886, 4118.223
175.5707, 3990.646
176.0528, 3859.068
176.5349, 3714.676
177.0171, 3571.004
177.4992, 3439.543
177.9813, 3321.279
178.4634, 3215.145
178.9455, 3125.996
179.4276, 3049.236
179.9098, 2972.122
180.3919, 2887.498
180.8740, 2802.265
181.3561, 2723.523
181.8382, 2651.878
182.3203, 2587.781
182.8025, 2534.099
183.2846, 2489.744
183.7667, 2447.938
184.2488, 2403.973
184.7309, 2360.398
185.2130, 2330.849
185.6951, 2318.948
186.1773, 2306.191
186.6594, 2258.399
187.1415, 2179.587
187.6236, 2111.198
188.1057, 2079.624
188.5878, 2078.691
189.0700, 2079.097
189.5521, 2080.358
190.0342, 2078.292
190.5163, 2061.912
190.9984, 2030.825
191.4805, 1999.130
191.9627, 1977.962
192.4448, 1966.443
192.9269, 1953.950
193.4090, 1937.363
193.8911, 1919.368
194.3732, 1908.381
194.8554, 1904.856
195.3375, 1905.269
195.8196, 1906.558
196.3017, 1908.729
196.7838, 1913.347
197.2659, 1922.601
197.7481, 1935.204
198.2302, 1940.258
198.7123, 1935.188
199.1944, 1930.120
199.6765, 1937.615
200.1586, 1958.832
200.6408, 1984.492
201.1229, 2013.645
201.6050, 2046.172
202.0871, 2072.501
202.5692, 2090.230
203.0513, 2105.400
203.5335, 2126.700
204.0156, 2153.515
204.4977, 2188.800
204.9798, 2236.512
205.4619, 2298.222
205.9440, 2356.726
206.4262, 2409.281
206.9083, 2459.832
207.3904, 2518.937
207.8725, 2588.328
208.3546, 2661.266
208.8367, 2732.053
209.3189, 2798.169
209.8010, 2874.879
210.2831, 2965.024
210.7652, 3067.237
211.2473, 3175.675
211.7294, 3290.013
212.2116, 3411.729
212.6937, 3539.464
213.1758, 3672.455
213.6579, 3817.620
214.1400, 3976.604
214.6221, 4150.255
215.1043, 4336.078
215.5864, 4532.337
216.0685, 4746.319
216.5506, 4984.291
217.0327, 5254.641
217.5148, 5533.283
217.9970, 5817.597
218.4791, 6104.824
218.9612, 6408.916
219.4433, 6745.805
219.9254, 7079.460
220.4075, 7361.389
220.8897, 7578.167
221.3718, 7766.042
221.8539, 7934.292
222.3360, 8090.173
222.8181, 8200.245
223.3002, 8259.258
223.7824, 8274.655
224.2645, 8263.859
224.7466, 8248.371
225.2287, 8169.289
225.7108, 8005.438
226.1929, 7755.375
226.6750, 7423.170
227.1572, 6982.876
227.6393, 6471.995
228.1214, 5970.676
228.6035, 5462.820
229.0856, 4994.921
229.5677, 4594.918
230.0499, 4287.070
230.5320, 4001.765
231.0141, 3735.775
231.4962, 3492.448
231.9783, 3281.860
232.4604, 3115.727
232.9426, 2970.031
233.4247, 2826.969
233.9068, 2677.914
234.3889, 2555.177
234.8710, 2469.429
235.3531, 2415.759
235.8353, 2355.428
236.3174, 2280.853
236.7995, 2208.271
237.2816, 2150.610
237.7637, 2115.018
238.2458, 2080.612
238.7280, 2044.171
239.2101, 2005.771
239.6922, 1970.658
240.1743, 1940.247
240.6564, 1911.690
241.1385, 1881.866
241.6207, 1846.394
242.1028, 1816.678
242.5849, 1794.172
243.0670, 1778.804
243.5491, 1772.143
244.0313, 1779.193
244.5134, 1790.762
244.9955, 1795.865
245.4776, 1790.323
245.9597, 1785.539
246.4418, 1784.076
246.9240, 1786.166
247.4061, 1790.799
247.8882, 1800.566
248.3703, 1810.992
248.8524, 1816.110
249.3345, 1817.287
249.8167, 1810.694
250.2988, 1794.161
250.7809, 1765.412
251.2630, 1735.679
251.7451, 1706.349
252.2272, 1675.466
252.7094, 1637.151
253.1915, 1579.420
253.6736, 1534.740
254.1557, 1521.260
254.6378, 1559.438
255.1199, 1562.010
255.6021, 1513.458
256.0842, 1436.868
256.5663, 1383.607
257.0484, 1363.627
257.5305, 1349.481
258.0126, 1328.776
258.4948, 1296.708
258.9769, 1271.014
259.4590, 1251.631
259.9411, 1238.720
260.4232, 1233.571
260.9053, 1240.558
261.3875, 1247.324
261.8696, 1246.932
262.3517, 1236.542
262.8338, 1228.031
263.3159, 1222.143
263.7980, 1218.493
264.2802, 1216.441
264.7623, 1217.093
265.2444, 1217.057
265.7265, 1213.568
266.2086, 1205.043
266.6907, 1199.033
267.1729, 1196.516
267.6550, 1196.911
268.1371, 1198.266
268.6192, 1200.798
269.1013, 1203.718
269.5834, 1207.299
270.0656, 1212.488
270.5477, 1213.245
271.0298, 1206.738
271.5119, 1195.565
271.9940, 1192.375
272.4761, 1200.706
272.9583, 1208.126
273.4404, 1201.393
273.9225, 1175.627
274.4046, 1164.637
274.8867, 1178.913
275.3688, 1210.999
275.8510, 1225.649
276.3331, 1218.650
276.8152, 1206.620
277.2973, 1204.257
277.7794, 1212.872
278.2615, 1218.023
278.7437, 1214.541
279.2258, 1205.792
279.7079, 1209.847
280.1900, 1230.097
280.6721, 1250.080
281.1542, 1253.006
281.6364, 1238.101
282.1185, 1223.894
282.6006, 1212.186
283.0827, 1204.573
283.5648, 1210.698
284.0469, 1232.961
284.5291, 1256.542
285.0112, 1263.582
285.4933, 1254.807
285.9754, 1254.911
286.4575, 1274.636
286.9396, 1306.651
287.4217, 1324.121
287.9038, 1325.609
288.3860, 1322.752
288.8681, 1323.779
289.3502, 1329.081
289.8323, 1343.058
290.3144, 1369.835
290.7965, 1405.021
291.2787, 1435.489
291.7608, 1460.853
292.2429, 1486.894
292.7250, 1520.269
293.2071, 1559.845
293.6892, 1600.096
294.1714, 1638.359
294.6535, 1676.133
295.1356, 1722.309
295.6177, 1777.918
296.0998, 1823.854
296.5819, 1848.584
297.0641, 1850.723
297.5462, 1824.338
298.0283, 1752.358
298.5104, 1659.055
298.9925, 1580.796
299.4746, 1517.314
299.9568, 1466.744
300.4389, 1428.435
300.9210, 1401.359
301.4031, 1382.317
301.8852, 1373.664
302.3673, 1370.664
302.8495, 1368.793
303.3316, 1367.976
303.8137, 1365.005
304.2958, 1350.873
304.7779, 1333.295
305.2600, 1326.363
305.7422, 1340.593
306.2243, 1364.399
306.7064, 1387.744
307.1885, 1410.832
307.6706, 1433.722
308.1527, 1460.901
308.6349, 1487.089
309.1170, 1504.461
309.5991, 1489.033
310.0812, 1479.314
310.5633, 1517.760
311.0454, 1601.022
311.5276, 1666.197
312.0097, 1654.232
312.4918, 1611.115
312.9739, 1588.006
313.4560, 1617.635
313.9381, 1660.193
314.4203, 1697.497
314.9024, 1729.791
315.3845, 1756.104
315.8666, 1765.903
316.3487, 1773.837
316.8308, 1793.738
317.3130, 1839.040
317.7951, 1888.547
318.2772, 1934.182
318.7593, 1976.292
319.2414, 2017.799
319.7235, 2061.614
320.2057, 2104.229
320.6878, 2142.875
321.1699, 2168.010
321.6520, 2198.375
322.1341, 2242.216
322.6162, 2298.058
323.0984, 2348.745
323.5805, 2386.767
324.0626, 2421.126
324.5447, 2457.902
325.0268, 2504.351
325.5089, 2546.213
325.9911, 2583.671
326.4732, 2615.842
326.9553, 2637.637
327.4374, 2632.518
327.9195, 2627.588
328.4016, 2638.788
328.8838, 2697.231
329.3659, 2732.549
329.8480, 2733.050
330.3301, 2703.748
330.8122, 2676.268
331.2943, 2647.719
331.7765, 2623.545
332.2586, 2608.160
332.7407, 2613.027
333.2228, 2605.723
333.7049, 2581.309
334.1870, 2543.223
334.6692, 2505.386
335.1513, 2469.040
335.6334, 2430.525
336.1155, 2388.616
336.5976, 2343.615
337.0797, 2292.105
337.5619, 2229.164
338.0440, 2161.886
338.5261, 2114.651
339.0082, 2092.905
339.4903, 2075.007
339.9724, 2049.521
340.4546, 2015.330
340.9367, 1980.545
341.4188, 1943.689
341.9009, 1908.234
342.3830, 1882.544
342.8651, 1867.625
343.3473, 1854.022
343.8294, 1836.909
344.3115, 1816.495
344.7936, 1796.050
345.2757, 1774.469
345.7578, 1755.643
346.2400, 1747.789
346.7221, 1750.342
347.2042, 1751.741
347.6863, 1742.633
348.1684, 1727.414
348.6505, 1721.815
349.1327, 1727.845
349.6148, 1736.792
350.0969, 1740.088
350.5790, 1737.788
351.0611, 1730.266
351.5432, 1707.001
352.0254, 1682.018
352.5075, 1680.788
352.9896, 1705.997
353.4717, 1736.961
353.9538, 1758.272
354.4359, 1771.457
354.9181, 1778.782
355.4002, 1775.276
355.8823, 1770.109
356.3644, 1771.214
356.8465, 1778.814
357.3286, 1791.077
357.8108, 1805.450
358.2929, 1824.264
358.7750, 1850.773
359.2571, 1894.262
359.7392, 1939.014
360.2213, 1972.948
360.7035, 1997.173
361.1856, 2028.973
361.6677, 2074.719
362.1498, 2131.879
362.6319, 2198.716
363.1140, 2282.563
363.5962, 2368.044
364.0783, 2450.936
364.5604, 2531.561
365.0425, 2612.520
365.5246, 2704.019
366.0067, 2790.090
366.4889, 2860.886
366.9710, 2918.750
367.4531, 2958.180
367.9352, 2988.981
368.4173, 3004.366
368.8994, 2972.965
369.3815, 2861.916
369.8636, 2732.976
370.3458, 2613.467
370.8279, 2508.571
371.3100, 2401.910
371.7921, 2286.703
372.2742, 2170.586
372.7563, 2072.883
373.2385, 2000.990
373.7206, 1936.638
374.2027, 1872.722
374.6848, 1807.426
375.1669, 1750.970
375.6490, 1703.732
376.1312, 1664.947
376.6133, 1633.542
377.0954, 1610.563
377.5775, 1590.430
378.0596, 1569.737
378.5417, 1549.038
379.0239, 1535.756
379.5060, 1530.640
379.9881, 1531.083
380.4702, 1537.213
380.9523, 1548.691
381.4344, 1554.032
381.9166, 1545.165
382.3987, 1528.200
382.8808, 1523.194
383.3629, 1530.853
383.8450, 1539.714
384.3271, 1534.637
384.8093, 1521.156
385.2914, 1516.937
385.7735, 1530.646
386.2556, 1552.805
386.7377, 1571.544
387.2198, 1587.025
387.7020, 1601.177
388.1841, 1613.213
388.6662, 1625.210
389.1483, 1639.410
389.6304, 1653.571
390.1125, 1674.651
390.5947, 1715.377
391.0768, 1769.305
391.5589, 1814.958
392.0410, 1831.508
392.5231, 1841.959
393.0052, 1862.913
393.4874, 1898.429
393.9695, 1941.596
394.4516, 1995.377
394.9337, 2054.655
395.4158, 2110.059
395.8979, 2145.309
396.3801, 2187.732
396.8622, 2249.765
397.3443, 2337.491
397.8264, 2426.590
398.3085, 2505.679
398.7906, 2586.575
399.2728, 2683.345
399.7549, 2808.357
400.2370, 2935.735
400.7191, 3058.922
401.2012, 3176.923
401.6833, 3305.594
402.1655, 3438.715
402.6476, 3587.019
403.1297, 3761.310
403.6118, 3970.485
404.0939, 4185.674
404.5760, 4403.201
405.0582, 4622.664
405.5403, 4840.423
406.0224, 5058.710
406.5045, 5262.838
406.9866, 5445.936
407.4688, 5609.257
407.9509, 5737.087
408.4330, 5826.750
408.9151, 5883.291
409.3972, 5916.511
409.8793, 5926.101
410.3615, 5910.980
410.8436, 5862.063
411.3257, 5786.719
411.8078, 5710.150
412.2899, 5633.371
412.7720, 5556.452
413.2542, 5469.642
413.7363, 5381.813
414.2184, 5317.868
414.7005, 5304.131
415.1826, 5313.801
415.6647, 5315.421
416.1469, 5307.913
416.6290, 5305.136
417.1111, 5325.850
417.5932, 5354.856
418.0753, 5371.699
418.5574, 5365.122
419.0396, 5348.758
419.5217, 5332.456
420.0038, 5314.270
420.4859, 5280.365
420.9680, 5220.693
421.4501, 5146.232
421.9323, 5066.300
422.4144, 4986.416
422.8965, 4894.543
423.3786, 4776.254
423.8607, 4643.025
424.3428, 4526.598
424.8250, 4451.860
425.3071, 4372.813
425.7892, 4271.396
426.2713, 4128.273
426.7534, 4010.966
427.2355, 3929.797
427.7177, 3867.668
428.1998, 3800.985
428.6819, 3725.862
429.1640, 3654.837
429.6461, 3591.749
430.1282, 3537.040
430.6104, 3476.046
431.0925, 3404.842
431.5746, 3337.395
432.0567, 3291.487
432.5388, 3267.703
433.0209, 3242.879
433.5031, 3212.402
433.9852, 3177.769
434.4673, 3140.096
434.9494, 3099.716
435.4315, 3061.561
435.9136, 3028.235
436.3958, 3000.306
436.8779, 2981.505
437.3600, 2976.163
437.8421, 2969.899
438.3242, 2940.924
438.8063, 2897.221
439.2885, 2861.118
439.7706, 2846.970
440.2527, 2843.993
440.7348, 2845.260
441.2169, 2850.996
441.6990, 2852.317
442.1812, 2838.511
442.6633, 2819.348
443.1454, 2806.286
443.6275, 2804.202
444.1096, 2807.458
444.5917, 2815.906
445.0739, 2829.112
445.5560, 2841.716
446.0381, 2854.493
446.5202, 2865.083
447.0023, 2872.043
447.4844, 2870.724
447.9666, 2871.693
448.4487, 2875.831
448.9308, 2882.311
449.4129, 2888.624
449.8950, 2892.832
450.3771, 2899.937
450.8592, 2913.181
451.3413, 2934.285
451.8235, 2950.228
452.3056, 2958.967
452.7877, 2965.854
453.2698, 2977.928
453.7519, 2995.310
454.2340, 3015.820
454.7162, 3038.446
455.1983, 3063.800
455.6804, 3098.152
456.1625, 3142.335
456.6446, 3182.881
457.1267, 3204.672
457.6089, 3213.724
458.0910, 3228.396
458.5731, 3253.889
459.0552, 3283.493
459.5373, 3310.900
460.0194, 3335.819
460.5016, 3357.783
460.9837, 3371.990
461.4658, 3385.504
461.9479, 3404.928
462.4300, 3431.557
462.9121, 3460.572
463.3943, 3497.815
463.8764, 3533.561
464.3585, 3554.633
464.8406, 3550.718
465.3227, 3537.884
465.8048, 3519.589
466.2870, 3496.030
466.7691, 3470.388
467.2512, 3442.127
467.7333, 3412.157
468.2154, 3380.565
468.6975, 3341.425
469.1797, 3311.012
469.6618, 3297.365
470.1439, 3291.228
470.6260, 3267.598
471.1081, 3221.610
471.5902, 3169.660
472.0724, 3115.625
472.5545, 3058.243
473.0366, 3013.762
473.5187, 2985.078
474.0008, 2962.346
474.4829, 2935.650
474.9651, 2904.973
475.4472, 2869.104
475.9293, 2823.209
476.4114, 2775.067
476.8935, 2745.265
477.3756, 2732.384
477.8578, 2714.907
478.3399, 2665.078
478.8220, 2604.285
479.3041, 2565.905
479.7862, 2561.832
480.2683, 2567.229
480.7505, 2569.188
481.2326, 2566.678
481.7147, 2557.655
482.1968, 2535.470
482.6789, 2511.182
483.1610, 2488.984
483.6432, 2468.782
484.1253, 2454.291
484.6074, 2453.988
485.0895, 2456.015
485.5716, 2450.062
486.0537, 2425.329
486.5359, 2404.024
487.0180, 2384.804
487.5001, 2369.644
487.9822, 2370.190
488.4643, 2398.965
488.9464, 2422.938
489.4286, 2421.671
489.9107, 2387.168
490.3928, 2373.444
490.8749, 2388.168
491.3570, 2410.715
491.8391, 2406.080
492.3213, 2374.513
492.8034, 2351.671
493.2855, 2354.287
493.7676, 2372.905
494.2497, 2381.872
494.7318, 2381.447
495.2140, 2385.671
495.6961, 2415.037
496.1782, 2455.067
496.6603, 2477.811
497.1424, 2471.323
497.6245, 2460.923
498.1067, 2462.836
498.5888, 2475.951
499.0709, 2497.496
499.5530, 2532.297
500.0351, 2570.324
500.5172, 2609.077
500.9994, 2648.781
501.4815, 2679.683
501.9636, 2681.112
502.4457, 2682.177
502.9278, 2709.202
503.4099, 2798.417
503.8921, 2870.481
504.3742, 2911.605
504.8563, 2929.902
505.3384, 2958.453
505.8205, 2998.526
506.3026, 3046.703
506.7848, 3101.652
507.2669, 3164.203
507.7490, 3233.417
508.2311, 3311.952
508.7132, 3391.699
509.1953, 3459.042
509.6775, 3515.437
510.1596, 3581.357
510.6417, 3664.049
511.1238, 3759.270
511.6059, 3862.170
512.0880, 3972.367
512.5701, 4080.987
513.0522, 4181.140
513.5344, 4277.277
514.0165, 4376.536
514.4986, 4483.205
514.9807, 4583.673
515.4628, 4655.103
515.9449, 4717.088
516.4271, 4801.709
516.9092, 4940.227
517.3913, 5084.792
517.8734, 5223.459
518.3555, 5356.042
518.8376, 5469.158
519.3198, 5543.815
519.8019, 5611.060
520.2840, 5691.506
520.7661, 5797.505
521.2482, 5891.583
521.7303, 5974.091
522.2125, 6042.917
522.6946, 6090.273
523.1767, 6113.402
523.6588, 6127.830
524.1409, 6139.978
524.6230, 6148.825
525.1052, 6149.859
525.5873, 6143.683
526.0694, 6124.910
526.5515, 6082.605
527.0336, 6023.223
527.5157, 5966.672
527.9979, 5923.972
528.4800, 5877.041
528.9621, 5807.987
529.4442, 5719.605
529.9263, 5617.841
530.4084, 5487.822
530.8906, 5359.200
531.3727, 5260.624
531.8548, 5198.350
532.3369, 5123.192
532.8190, 5004.678
533.3011, 4872.336
533.7833, 4754.908
534.2654, 4676.981
534.7475, 4587.230
535.2296, 4470.581
535.7117, 4337.347
536.1938, 4226.038
536.6760, 4144.648
537.1581, 4066.912
537.6402, 3978.103
538.1223, 3876.564
538.6044, 3792.899
539.0865, 3728.817
539.5687, 3675.217
540.0508, 3629.223
540.5329, 3587.718
541.0150, 3528.977
541.4971, 3438.161
541.9792, 3339.521
542.4614, 3276.614
542.9435, 3243.132
543.4256, 3209.696
543.9077, 3158.594
544.3898, 3099.125
544.8719, 3036.932
545.3541, 2971.008
545.8362, 2915.010
546.3183, 2882.301
546.8004, 2859.671
547.2825, 2832.429
547.7646, 2793.173
548.2468, 2753.827
548.7289, 2714.866
549.2110, 2677.142
549.6931, 2644.527
550.1752, 2619.270
550.6573, 2596.126
551.1395, 2572.300
551.6216, 2546.977
552.1037, 2527.022
552.5858, 2514.010
553.0679, 2502.710
553.5500, 2486.611
554.0322, 2466.069
554.5143, 2446.322
554.9964, 2429.309
555.4785, 2412.855
555.9606, 2392.166
556.4427, 2368.081
556.9249, 2345.576
557.4070, 2328.917
557.8891, 2314.797
558.3712, 2300.950
558.8533, 2287.719
559.3354, 2269.406
559.8176, 2234.489
560.2997, 2196.324
560.7818, 2168.523
561.2639, 2162.777
561.7460, 2158.786
562.2281, 2155.479
562.7103, 2151.260
563.1924, 2140.782
563.6745, 2122.662
564.1566, 2100.109
564.6387, 2073.429
565.1208, 2041.866
565.6030, 2012.250
566.0851, 1984.377
566.5672, 1959.699
567.0493, 1939.270
567.5314, 1923.463
568.0135, 1914.284
568.4957, 1915.438
568.9778, 1917.758
569.4599, 1905.134
569.9420, 1879.946
570.4241, 1852.819
570.9063, 1822.424
571.3884, 1796.953
571.8705, 1787.928
572.3526, 1795.717
572.8347, 1800.410
573.3168, 1791.886
573.7990, 1775.501
574.2811, 1755.504
574.7632, 1726.396
575.2453, 1702.402
575.7274, 1683.239
576.2095, 1670.811
576.6917, 1670.735
577.1738, 1696.042
577.6559, 1711.896
578.1380, 1705.018
578.6201, 1677.357
579.1022, 1660.997
579.5844, 1657.135
580.0665, 1660.073
580.5486, 1670.637
581.0307, 1686.476
581.5128, 1688.274
581.9949, 1671.317
582.4771, 1649.151
582.9592, 1636.317
583.4413, 1631.296
583.9234, 1630.326
584.4055, 1634.142
584.8876, 1639.561
585.3698, 1645.989
585.8519, 1652.658
586.3340, 1655.506
586.8161, 1647.282
587.2982, 1638.895
587.7803, 1637.078
588.2625, 1646.002
588.7446, 1652.287
589.2267, 1651.267
589.7088, 1650.040
590.1909, 1657.343
590.6730, 1677.832
591.1552, 1693.650
591.6373, 1700.628
592.1194, 1701.779
592.6015, 1705.948
593.0836, 1713.308
593.5657, 1720.977
594.0479, 1723.868
594.5300, 1726.242
595.0121, 1743.550
595.4942, 1776.680
595.9763, 1806.364
596.4584, 1809.584
596.9406, 1802.033
597.4227, 1805.341
597.9048, 1832.745
598.3869, 1858.165
598.8690, 1866.087
599.3511, 1864.028
599.8333, 1866.797
600.3154, 1875.510
600.7975, 1891.805
601.2796, 1920.816
601.7617, 1962.060
602.2438, 1989.347
602.7260, 1996.495
603.2081, 2000.538
603.6902, 2011.799
604.1723, 2030.774
604.6544, 2051.796
605.1365, 2074.917
605.6187, 2098.722
606.1008, 2117.850
606.5829, 2134.833
607.0650, 2160.853
607.5471, 2205.249
608.0292, 2254.249
608.5114, 2288.864
608.9935, 2313.171
609.4756, 2342.597
609.9577, 2390.293
610.4398, 2440.919
610.9219, 2482.313
611.4041, 2511.551
611.8862, 2548.301
612.3683, 2608.729
612.8504, 2670.565
613.3325, 2716.024
613.8146, 2732.915
614.2968, 2757.964
614.7789, 2792.689
615.2610, 2836.828
615.7431, 2889.932
616.2252, 2952.066
616.7073, 3020.168
617.1895, 3093.906
617.6716, 3172.259
618.1537, 3247.115
618.6358, 3320.398
619.1179, 3404.856
619.6000, 3516.327
620.0822, 3641.249
620.5643, 3761.479
621.0464, 3874.167
621.5285, 3992.913
622.0106, 4118.262
622.4927, 4255.543
622.9749, 4410.018
623.4570, 4585.751
623.9391, 4775.450
624.4212, 4977.796
624.9033, 5193.268
625.3854, 5424.085
625.8676, 5665.094
626.3497, 5927.303
626.8318, 6212.992
627.3139, 6522.446
627.7960, 6862.064
628.2781, 7233.411
628.7603, 7621.355
629.2424, 8004.787
629.7245, 8394.081
630.2066, 8828.988
630.6887, 9317.969
631.1708, 9835.570
631.6530, 10379.81
632.1351, 10932.99
632.6172, 11470.51
633.0993, 12011.57
633.5814, 12498.74
634.0635, 12939.95
634.5457, 13319.64
635.0278, 13577.71
635.5099, 13709.44
635.9920, 13715.94
636.4741, 13592.48
636.9562, 13334.94
637.4384, 12966.37
637.9205, 12467.16
638.4026, 11899.61
638.8847, 11303.64
639.3668, 10680.90
639.8489, 10065.46
640.3311, 9461.921
640.8132, 8878.391
641.2953, 8305.299
641.7774, 7757.706
642.2595, 7254.413
642.7416, 6822.606
643.2238, 6425.404
643.7059, 6039.225
644.1880, 5671.152
644.6701, 5329.963
645.1522, 5016.459
645.6343, 4740.701
646.1165, 4520.424
646.5986, 4358.423
647.0807, 4193.659
647.5628, 4021.825
648.0449, 3850.962
648.5270, 3680.251
649.0092, 3507.153
649.4913, 3373.348
649.9734, 3288.418
650.4555, 3219.943
650.9376, 3120.816
651.4197, 2999.066
651.9019, 2886.022
652.3840, 2791.875
652.8661, 2711.125
653.3482, 2644.237
653.8303, 2587.257
654.3124, 2528.458
654.7946, 2453.640
655.2767, 2383.067
655.7588, 2328.202
656.2408, 2291.205
656.7230, 2252.581
657.2051, 2206.652
657.6872, 2164.012
658.1693, 2132.543
658.6514, 2116.060
659.1335, 2093.711
659.6157, 2064.055
660.0978, 2030.190
660.5799, 1994.583
661.0620, 1957.899
661.5441, 1924.498
662.0262, 1895.515
662.5084, 1870.410
662.9905, 1851.265
663.4726, 1835.728
663.9547, 1817.317
664.4368, 1788.211
664.9189, 1759.777
665.4011, 1739.023
665.8832, 1725.851
666.3653, 1711.628
666.8474, 1694.244
667.3295, 1675.945
667.8116, 1656.378
668.2938, 1633.341
668.7759, 1620.919
669.2580, 1623.280
669.7401, 1626.883
670.2222, 1616.586
670.7043, 1593.531
671.1865, 1567.457
671.6686, 1538.015
672.1507, 1512.247
672.6328, 1501.029
673.1149, 1500.236
673.5970, 1500.105
674.0792, 1498.348
674.5613, 1494.266
675.0434, 1486.790
675.5255, 1476.377
676.0076, 1465.384
676.4897, 1448.865
676.9719, 1437.182
677.4540, 1435.983
677.9361, 1447.078
678.4182, 1450.080
678.9003, 1442.647
679.3824, 1432.093
679.8646, 1424.897
680.3467, 1420.545
680.8288, 1411.742
681.3109, 1396.808
681.7930, 1381.579
682.2751, 1373.034
682.7573, 1369.016
683.2394, 1364.922
683.7215, 1358.608
684.2036, 1352.892
684.6857, 1348.453
685.1678, 1345.851
685.6500, 1346.242
686.1321, 1353.473
686.6142, 1360.092
687.0963, 1366.019
687.5784, 1370.529
688.0605, 1364.724
688.5427, 1343.696
689.0248, 1325.101
689.5069, 1320.280
689.9890, 1327.877
690.4711, 1333.851
690.9532, 1338.343
691.4354, 1337.703
691.9175, 1322.464
692.3996, 1301.616
692.8817, 1290.492
693.3638, 1294.524
693.8459, 1300.842
694.3281, 1302.666
694.8102, 1302.220
695.2923, 1302.435
695.7744, 1305.773
696.2565, 1307.495
696.7386, 1306.488
697.2208, 1303.651
697.7029, 1300.150
698.1850, 1294.101
698.6671, 1294.805
699.1492, 1310.444
699.6313, 1333.882
700.1135, 1334.793
700.5956, 1314.641
701.0777, 1299.100
701.5598, 1316.145
702.0419, 1342.346
702.5240, 1343.354
703.0062, 1315.024
703.4883, 1296.468
703.9704, 1320.406
704.4525, 1353.197
704.9346, 1368.666
705.4167, 1351.070
705.8989, 1336.359
706.3810, 1322.549
706.8631, 1313.653
707.3452, 1316.890
707.8273, 1334.890
708.3094, 1347.030
708.7916, 1348.198
709.2737, 1344.470
709.7558, 1344.481
710.2379, 1348.678
710.7200, 1358.828
711.2021, 1387.451
711.6843, 1413.379
712.1664, 1411.822
712.6485, 1389.402
713.1306, 1374.365
713.6127, 1384.948
714.0948, 1398.369
714.5770, 1402.755
715.0591, 1396.899
715.5412, 1399.566
716.0233, 1415.763
716.5054, 1431.485
716.9875, 1435.971
717.4697, 1429.284
717.9518, 1427.024
718.4339, 1430.645
718.9160, 1433.838
719.3981, 1426.352
719.8802, 1414.269
720.3624, 1410.889
720.8445, 1424.060
721.3266, 1434.938
721.8087, 1425.347
722.2908, 1407.995
722.7729, 1401.437
723.2551, 1425.421
723.7372, 1440.848
724.2193, 1438.738
724.7014, 1425.237
725.1835, 1416.868
725.6656, 1414.049
726.1478, 1414.482
726.6299, 1417.360
727.1120, 1422.830
727.5941, 1433.753
728.0762, 1449.333
728.5583, 1461.185
729.0405, 1459.216
729.5226, 1453.827
730.0047, 1455.194
730.4868, 1464.051
730.9689, 1475.468
731.4510, 1488.207
731.9332, 1502.472
732.4153, 1519.239
732.8974, 1541.628
733.3795, 1557.043
733.8616, 1561.628
734.3438, 1565.040
734.8259, 1577.344
735.3080, 1598.370
735.7901, 1619.545
736.2722, 1639.192
736.7543, 1660.511
737.2365, 1689.433
737.7186, 1722.587
738.2007, 1752.846
738.6828, 1776.230
739.1649, 1797.969
739.6470, 1824.276
740.1292, 1850.724
740.6113, 1867.228
741.0934, 1870.884
741.5755, 1865.030
742.0576, 1847.942
742.5397, 1821.838
743.0219, 1797.204
743.5040, 1774.878
743.9861, 1748.880
744.4682, 1714.324
744.9503, 1674.208
745.4324, 1636.544
745.9146, 1600.960
746.3967, 1565.068
746.8788, 1522.468
747.3609, 1482.519
747.8430, 1455.172
748.3251, 1443.003
748.8073, 1429.302
749.2894, 1405.668
749.7715, 1382.278
750.2536, 1366.173
750.7357, 1360.579
751.2178, 1352.108
751.7000, 1340.914
752.1821, 1326.395
752.6642, 1303.832
753.1463, 1276.158
753.6284, 1259.772
754.1105, 1260.084
754.5927, 1263.947
755.0748, 1254.111
755.5569, 1240.033
756.0390, 1236.517
756.5211, 1267.462
757.0032, 1288.386
757.4854, 1276.745
757.9675, 1247.756
758.4496, 1237.368
758.9317, 1256.562
759.4138, 1269.863
759.8959, 1267.003
760.3781, 1253.815
760.8602, 1250.147
761.3423, 1255.173
761.8244, 1255.580
762.3065, 1237.876
762.7886, 1215.373
763.2708, 1204.748
763.7529, 1205.002
764.2350, 1208.502
764.7171, 1211.981
765.1992, 1217.373
765.6813, 1227.556
766.1635, 1243.814
766.6456, 1252.668
767.1277, 1252.588
767.6098, 1247.512
768.0919, 1238.814
768.5740, 1226.509
769.0562, 1212.991
769.5383, 1197.531
770.0204, 1187.957
770.5025, 1199.723
770.9846, 1219.570
771.4667, 1223.645
771.9489, 1204.203
772.4310, 1187.639
772.9131, 1190.479
773.3952, 1201.301
773.8773, 1208.592
774.3594, 1207.787
774.8416, 1208.840
775.3237, 1213.778
775.8058, 1218.677
776.2879, 1217.025
776.7700, 1208.779
777.2521, 1203.591
777.7343, 1205.038
778.2164, 1206.928
778.6985, 1196.791
779.1806, 1180.560
779.6627, 1171.484
780.1448, 1181.815
780.6270, 1193.639
781.1091, 1198.967
781.5912, 1199.667
782.0733, 1201.284
782.5554, 1205.780
783.0375, 1208.740
783.5197, 1209.120
784.0018, 1207.189
784.4839, 1201.450
784.9660, 1191.573
785.4481, 1188.712
785.9302, 1205.350
786.4124, 1229.213
786.8945, 1239.386
787.3766, 1237.778
787.8587, 1233.236
788.3408, 1226.933
788.8229, 1222.073
789.3051, 1222.772
789.7872, 1229.930
790.2693, 1227.648
790.7514, 1207.154
791.2335, 1190.937
791.7156, 1194.951
792.1978, 1218.625
792.6799, 1223.728
793.1620, 1208.933
793.6441, 1195.125
794.1262, 1205.563
794.6083, 1225.902
795.0905, 1232.776
795.5726, 1222.018
796.0547, 1214.451
796.5368, 1225.257
797.0189, 1240.148
797.5010, 1247.442
797.9832, 1243.314
798.4653, 1239.253
798.9474, 1234.562
799.4295, 1231.022
799.9116, 1230.693
800.3937, 1233.432
800.8759, 1237.848
801.3580, 1244.594
801.8401, 1249.120
802.3222, 1244.097
802.8043, 1234.492
803.2864, 1227.416
803.7686, 1223.423
804.2507, 1224.745
804.7328, 1239.607
805.2149, 1257.161
805.6970, 1261.735
806.1791, 1246.063
806.6613, 1235.588
807.1434, 1234.581
807.6255, 1237.942
808.1076, 1235.560
808.5897, 1228.854
809.0718, 1226.926
809.5540, 1235.334
810.0361, 1245.027
810.5182, 1247.420
811.0003, 1244.673
811.4824, 1241.014
811.9645, 1230.570
812.4467, 1227.982
812.9288, 1242.660
813.4109, 1266.581
813.8930, 1279.668
814.3751, 1280.144
814.8572, 1277.523
815.3394, 1274.165
815.8215, 1270.016
816.3036, 1264.554
816.7857, 1258.011
817.2678, 1251.711
817.7499, 1241.448
818.2321, 1235.814
818.7142, 1243.754
819.1963, 1262.414
819.6784, 1278.363
820.1605, 1289.599
820.6426, 1297.159
821.1247, 1302.200
821.6068, 1303.826
822.0889, 1292.636
822.5710, 1267.157
823.0532, 1247.019
823.5353, 1245.405
824.0174, 1255.096
824.4995, 1264.255
824.9816, 1272.840
825.4637, 1281.642
825.9459, 1293.817
826.4280, 1303.780
826.9101, 1307.509
827.3922, 1304.507
827.8743, 1302.566
828.3564, 1301.613
828.8386, 1302.003
829.3207, 1304.025
829.8028, 1307.563
830.2849, 1311.664
830.7670, 1316.307
831.2491, 1322.562
831.7313, 1332.879
832.2134, 1344.152
832.6955, 1355.069
833.1776, 1365.364
833.6597, 1367.394
834.1418, 1342.995
834.6240, 1323.954
835.1061, 1329.256
835.5882, 1362.590
836.0703, 1383.183
836.5524, 1389.549
837.0345, 1388.354
837.5167, 1377.420
837.9988, 1363.254
838.4809, 1368.871
838.9630, 1395.149
839.4451, 1420.009
839.9272, 1426.373
840.4094, 1426.348
840.8915, 1429.477
841.3736, 1437.948
841.8557, 1444.245
842.3378, 1444.817
842.8199, 1447.116
843.3021, 1457.839
843.7842, 1477.438
844.2663, 1487.738
844.7484, 1487.589
845.2305, 1488.824
845.7126, 1503.935
846.1948, 1525.979
846.6769, 1546.010
847.1590, 1562.977
847.6411, 1577.449
848.1232, 1591.094
848.6053, 1601.312
849.0875, 1604.848
849.5696, 1597.477
850.0517, 1601.734
850.5338, 1620.707
851.0159, 1642.929
851.4980, 1657.056
851.9802, 1665.718
852.4623, 1678.987
852.9444, 1698.227
853.4265, 1715.675
853.9086, 1723.795
854.3907, 1728.228
854.8729, 1732.601
855.3550, 1734.230
855.8371, 1747.351
856.3192, 1782.865
856.8013, 1817.070
857.2834, 1829.044
857.7656, 1818.366
858.2477, 1813.631
858.7298, 1816.563
859.2119, 1821.525
859.6940, 1824.539
860.1761, 1825.739
860.6583, 1825.080
861.1404, 1822.395
861.6225, 1818.935
862.1046, 1817.355
862.5867, 1813.417
863.0688, 1803.830
863.5510, 1786.361
864.0331, 1770.871
864.5152, 1756.867
864.9973, 1745.984
865.4794, 1740.289
865.9615, 1738.730
866.4437, 1740.191
866.9258, 1745.115
867.4079, 1745.214
867.8900, 1732.849
868.3721, 1714.699
868.8542, 1695.451
869.3364, 1673.260
869.8185, 1657.609
870.3006, 1651.244
870.7827, 1647.332
871.2648, 1639.300
871.7469, 1628.088
872.2291, 1625.445
872.7112, 1632.573
873.1933, 1638.812
873.6754, 1633.178
874.1575, 1622.793
874.6396, 1615.146
875.1218, 1611.904
875.6039, 1608.007
876.0860, 1599.300
876.5681, 1592.268
877.0502, 1591.196
877.5323, 1596.912
878.0145, 1600.686
878.4966, 1602.332
878.9787, 1603.116
879.4608, 1604.233
879.9429, 1605.142
880.4250, 1602.647
880.9072, 1596.276
881.3893, 1597.307
881.8714, 1619.235
882.3535, 1643.823
882.8356, 1657.609
883.3177, 1658.003
883.7999, 1671.565
884.2820, 1704.234
884.7641, 1731.916
885.2462, 1730.973
885.7283, 1712.685
886.2104, 1712.677
886.6926, 1731.115
887.1747, 1752.634
887.6568, 1769.947
888.1389, 1784.573
888.6210, 1796.163
889.1031, 1804.134
889.5853, 1817.688
890.0674, 1836.843
890.5495, 1861.647
891.0316, 1894.192
891.5137, 1932.967
891.9958, 1969.131
892.4780, 2002.706
892.9601, 2028.925
893.4422, 2042.863
893.9243, 2049.527
894.4064, 2050.372
894.8885, 2046.378
895.3707, 2045.940
895.8528, 2059.971
896.3349, 2066.446
896.8170, 2057.822
897.2991, 2035.732
897.7813, 2007.913
898.2634, 1974.565
898.7455, 1937.724
899.2276, 1895.348
899.7097, 1852.547
900.1918, 1814.773
900.6740, 1782.302
901.1561, 1756.070
901.6382, 1745.888
902.1203, 1731.291
902.6024, 1705.186
903.0845, 1670.435
903.5667, 1635.606
904.0488, 1599.578
904.5309, 1574.623
905.0130, 1570.927
905.4951, 1573.445
905.9772, 1555.693
906.4594, 1524.551
906.9415, 1498.083
907.4236, 1486.598
907.9057, 1477.547
908.3878, 1466.746
908.8699, 1455.257
909.3521, 1444.626
909.8342, 1433.634
910.3163, 1428.961
910.7984, 1434.066
911.2805, 1442.073
911.7626, 1444.139
912.2448, 1439.908
912.7269, 1426.967
913.2090, 1394.450
913.6911, 1370.209
914.1732, 1375.326
914.6553, 1393.470
915.1375, 1401.414
915.6196, 1395.146
916.1017, 1388.095
916.5838, 1381.603
917.0659, 1373.799
917.5480, 1358.274
918.0302, 1339.393
918.5123, 1331.779
918.9944, 1341.029
919.4765, 1350.239
919.9586, 1347.551
920.4407, 1340.266
920.9229, 1335.057
921.4050, 1331.463
921.8871, 1333.287
922.3692, 1342.730
922.8513, 1352.916
923.3334, 1359.050
923.8156, 1360.659
924.2977, 1353.665
924.7798, 1337.538
925.2619, 1322.876
925.7440, 1317.500
926.2261, 1316.656
926.7083, 1317.891
927.1904, 1321.723
927.6725, 1321.229
928.1546, 1312.845
928.6367, 1307.271
929.1188, 1314.066
929.6010, 1329.400
930.0831, 1329.873
930.5652, 1317.142
931.0473, 1308.958
931.5294, 1325.630
932.0115, 1343.698
932.4937, 1342.245
932.9758, 1323.241
933.4579, 1315.311
933.9400, 1323.771
934.4221, 1337.394
934.9042, 1358.205
935.3864, 1378.493
935.8685, 1367.532
936.3506, 1330.863
936.8327, 1301.514
937.3148, 1298.843
937.7969, 1306.288
938.2791, 1318.239
938.7612, 1330.825
939.2433, 1334.315
939.7254, 1318.266
940.2075, 1309.714
940.6896, 1314.488
941.1718, 1325.800
941.6539, 1332.170
942.1360, 1334.109
942.6181, 1333.946
943.1002, 1331.557
943.5823, 1329.274
944.0645, 1328.455
944.5466, 1329.007
945.0287, 1330.804
945.5108, 1333.452
945.9929, 1338.294
946.4750, 1346.666
946.9572, 1355.057
947.4393, 1360.292
947.9214, 1362.429
948.4035, 1360.635
948.8856, 1354.467
949.3677, 1349.631
949.8499, 1352.743
950.3320, 1357.430
950.8141, 1357.472
951.2962, 1350.524
951.7783, 1348.504
952.2604, 1352.787
952.7426, 1359.619
953.2247, 1368.331
953.7068, 1377.861
954.1889, 1383.858
954.6710, 1386.179
955.1531, 1383.589
955.6353, 1370.152
956.1174, 1356.068
956.5995, 1346.789
957.0816, 1342.950
957.5637, 1345.928
958.0458, 1360.158
958.5280, 1370.396
959.0101, 1371.099
959.4922, 1366.282
959.9743, 1364.665
960.4564, 1365.867
960.9385, 1368.578
961.4207, 1373.682
961.9028, 1378.293
962.3849, 1381.431
962.8670, 1382.874
963.3491, 1381.761
963.8312, 1375.342
964.3134, 1374.173
964.7955, 1380.592
965.2776, 1389.175
965.7597, 1393.338
966.2418, 1393.863
966.7239, 1392.975
967.2061, 1391.252
967.6882, 1387.029
968.1703, 1375.241
968.6524, 1363.561
969.1345, 1358.294
969.6166, 1360.156
970.0988, 1364.603
970.5809, 1372.036
971.0630, 1380.475
971.5451, 1390.618
972.0272, 1399.955
972.5093, 1404.785
972.9915, 1404.777
973.4736, 1398.901
973.9557, 1375.061
974.4378, 1357.300
974.9199, 1359.762
975.4020, 1377.507
975.8842, 1388.184
976.3663, 1391.343
976.8484, 1391.332
977.3305, 1387.086
977.8126, 1384.155
978.2947, 1394.296
978.7769, 1411.799
979.2590, 1423.588
979.7411, 1422.586
980.2232, 1418.294
980.7053, 1407.953
981.1874, 1398.705
981.6696, 1402.586
982.1517, 1419.977
982.6338, 1432.239
983.1159, 1436.592
983.5980, 1435.941
984.0801, 1429.765
984.5623, 1421.987
985.0444, 1415.432
985.5264, 1407.923
986.0085, 1414.394
986.4907, 1448.822
986.9728, 1478.712
987.4549, 1480.404
987.9370, 1457.425
988.4191, 1446.835
988.9012, 1448.168
989.3834, 1452.186
989.8655, 1452.510
990.3476, 1453.494
990.8297, 1459.482
991.3118, 1469.586
991.7939, 1477.536
992.2761, 1482.938
992.7582, 1486.033
993.2403, 1485.485
993.7224, 1484.373
994.2045, 1491.628
994.6866, 1504.261
995.1688, 1511.005
995.6509, 1497.861
996.1330, 1496.358
996.6151, 1543.149
997.0972, 1600.688
997.5793, 1618.395
998.0615, 1577.268
998.5436, 1563.257
999.0257, 1584.515
999.5078, 1614.005
999.9899, 1624.926
1000.472, 1624.546
1000.954, 1623.499
1001.436, 1622.859
1001.918, 1626.192
1002.401, 1636.175
1002.883, 1649.637
1003.365, 1667.308
1003.847, 1687.915
1004.329, 1695.980
1004.811, 1691.324
1005.293, 1686.750
1005.775, 1689.683
1006.257, 1695.087
1006.740, 1697.600
1007.222, 1698.324
1007.704, 1699.957
1008.186, 1704.108
1008.668, 1708.190
1009.150, 1712.348
1009.632, 1715.808
1010.114, 1715.628
1010.596, 1713.124
1011.079, 1716.069
1011.561, 1726.485
1012.043, 1738.727
1012.525, 1749.155
1013.007, 1758.722
1013.489, 1768.794
1013.971, 1780.617
1014.453, 1786.664
1014.936, 1785.342
1015.418, 1783.364
1015.900, 1786.296
1016.382, 1791.446
1016.864, 1791.004
1017.346, 1786.397
1017.828, 1785.132
1018.310, 1794.885
1018.792, 1804.137
1019.275, 1809.875
1019.757, 1811.705
1020.239, 1808.205
1020.721, 1799.305
1021.203, 1784.883
1021.685, 1761.271
1022.167, 1742.677
1022.649, 1751.516
1023.132, 1773.109
1023.614, 1787.307
1024.096, 1788.459
1024.578, 1784.352
1025.060, 1772.602
1025.542, 1760.915
1026.024, 1755.096
1026.506, 1754.594
1026.989, 1756.529
1027.471, 1760.694
1027.953, 1765.668
1028.435, 1770.497
1028.917, 1775.865
1029.399, 1784.835
1029.881, 1795.320
1030.363, 1795.241
1030.845, 1780.740
1031.328, 1770.012
1031.810, 1768.104
1032.292, 1772.172
1032.774, 1777.279
1033.256, 1784.980
1033.738, 1799.780
1034.220, 1834.064
1034.702, 1854.240
1035.184, 1843.862
1035.667, 1825.121
1036.149, 1813.521
1036.631, 1809.066
1037.113, 1815.987
1037.595, 1834.784
1038.077, 1851.092
1038.559, 1847.292
1039.041, 1841.288
1039.524, 1850.071
1040.006, 1873.155
1040.488, 1890.962
1040.970, 1900.840
1041.452, 1908.916
1041.934, 1916.191
1042.416, 1923.641
1042.898, 1932.532
1043.380, 1943.476
1043.863, 1958.349
1044.345, 1979.687
1044.827, 2001.892
1045.309, 2025.179
1045.791, 2046.664
1046.273, 2062.707
1046.755, 2072.396
1047.237, 2084.119
1047.719, 2097.705
1048.202, 2118.235
1048.684, 2156.457
1049.166, 2199.345
1049.648, 2229.034
1050.130, 2246.487
1050.612, 2277.708
1051.094, 2336.190
1051.576, 2386.702
1052.059, 2418.257
1052.541, 2437.735
1053.023, 2454.849
1053.505, 2473.393
1053.987, 2507.354
1054.469, 2569.135
1054.951, 2631.161
1055.433, 2684.273
1055.916, 2728.620
1056.398, 2766.217
1056.880, 2798.748
1057.362, 2809.400
1057.844, 2795.738
1058.326, 2785.480
1058.808, 2813.612
1059.290, 2848.351
1059.772, 2853.415
1060.255, 2829.732
1060.737, 2803.226
1061.219, 2777.251
1061.701, 2750.911
1062.183, 2726.397
1062.665, 2698.384
1063.147, 2649.173
1063.629, 2586.364
1064.111, 2535.540
1064.594, 2508.248
1065.076, 2481.591
1065.558, 2442.605
1066.040, 2400.798
1066.522, 2362.933
1067.004, 2327.695
1067.486, 2308.609
1067.968, 2306.704
1068.450, 2304.952
1068.933, 2290.469
1069.415, 2270.200
1069.897, 2246.014
1070.379, 2221.396
1070.861, 2212.255
1071.343, 2231.636
1071.825, 2245.923
1072.307, 2248.380
1072.790, 2244.233
1073.272, 2238.260
1073.754, 2233.119
1074.236, 2237.106
1074.718, 2253.748
1075.200, 2272.269
1075.682, 2291.948
1076.164, 2307.529
1076.646, 2312.988
1077.129, 2308.419
1077.611, 2319.904
1078.093, 2347.532
1078.575, 2373.850
1079.057, 2385.868
1079.539, 2393.695
1080.021, 2401.291
1080.503, 2411.611
1080.985, 2433.859
1081.468, 2474.277
1081.950, 2511.572
1082.432, 2542.457
1082.914, 2572.193
1083.396, 2605.972
1083.878, 2643.889
1084.360, 2689.703
1084.842, 2744.942
1085.325, 2789.338
1085.807, 2801.193
1086.289, 2814.598
1086.771, 2841.322
1087.253, 2881.388
1087.735, 2939.077
1088.217, 3012.330
1088.699, 3084.711
1089.182, 3149.142
1089.664, 3210.462
1090.146, 3268.839
1090.628, 3326.813
1091.110, 3386.991
1091.592, 3447.468
1092.074, 3514.842
1092.556, 3587.657
1093.038, 3677.103
1093.521, 3806.264
1094.003, 3949.111
1094.485, 4067.435
1094.967, 4162.314
1095.449, 4268.587
1095.931, 4387.910
1096.413, 4527.754
1096.895, 4693.187
1097.377, 4877.252
1097.860, 5065.310
1098.342, 5258.135
1098.824, 5449.450
1099.306, 5632.275
1099.788, 5834.641
1100.270, 6084.404
1100.752, 6348.279
1101.234, 6600.877
1101.717, 6843.808
1102.199, 7087.228
1102.681, 7332.191
1103.163, 7591.455
1103.645, 7878.661
1104.127, 8175.939
1104.609, 8478.813
1105.091, 8775.351
1105.573, 9039.229
1106.056, 9257.804
1106.538, 9480.676
1107.020, 9719.354
1107.502, 9937.825
1107.984, 10085.52
1108.466, 10184.28
1108.948, 10276.58
1109.430, 10370.57
1109.912, 10393.49
1110.395, 10301.80
1110.877, 10175.74
1111.359, 10044.82
1111.841, 9896.530
1112.323, 9699.323
1112.805, 9458.247
1113.287, 9187.554
1113.769, 8889.062
1114.252, 8573.421
1114.734, 8216.222
1115.216, 7862.108
1115.698, 7554.353
1116.180, 7296.919
1116.662, 7033.097
1117.144, 6762.381
1117.626, 6495.172
1118.109, 6228.185
1118.591, 5977.151
1119.073, 5762.421
1119.555, 5579.215
1120.037, 5395.121
1120.519, 5204.254
1121.001, 5029.837
1121.483, 4875.633
1121.965, 4740.650
1122.448, 4633.345
1122.930, 4542.043
1123.412, 4451.373
1123.894, 4357.797
1124.376, 4270.433
1124.858, 4186.057
1125.340, 4114.815
1125.822, 4063.490
1126.304, 4026.406
1126.787, 3992.932
1127.269, 3960.962
1127.751, 3923.959
1128.233, 3870.564
1128.715, 3826.677
1129.197, 3808.823
1129.679, 3795.684
1130.161, 3767.502
1130.644, 3725.568
1131.126, 3688.486
1131.608, 3657.185
1132.090, 3633.721
1132.572, 3630.357
1133.054, 3624.593
1133.536, 3597.309
1134.018, 3557.466
1134.500, 3530.966
1134.983, 3519.630
1135.465, 3501.906
1135.947, 3472.801
1136.429, 3441.757
1136.911, 3423.123
1137.393, 3405.099
1137.875, 3374.361
1138.357, 3327.619
1138.839, 3283.407
1139.322, 3242.017
1139.804, 3203.956
1140.286, 3168.918
1140.768, 3138.093
1141.250, 3117.120
1141.732, 3100.919
1142.214, 3079.106
1142.696, 3042.611
1143.179, 3012.114
1143.661, 2991.583
1144.143, 2972.884
1144.625, 2944.608
1145.107, 2913.268
1145.589, 2906.311
1146.071, 2918.982
1146.553, 2921.183
1147.036, 2889.792
1147.518, 2856.295
1148.000, 2826.644
1148.482, 2802.861
1148.964, 2790.167
1149.446, 2787.441
1149.928, 2790.587
1150.410, 2799.809
1150.892, 2803.379
1151.375, 2781.765
1151.857, 2763.183
1152.339, 2768.835
1152.821, 2793.532
1153.303, 2811.749
1153.785, 2823.549
1154.267, 2830.559
1154.749, 2830.823
1155.231, 2832.613
1155.714, 2848.216
1156.196, 2866.688
1156.678, 2873.117
1157.160, 2862.981
1157.642, 2868.865
1158.124, 2894.214
1158.606, 2909.408
1159.088, 2885.549
1159.571, 2849.244
1160.053, 2830.954
1160.535, 2824.258
1161.017, 2813.502
1161.499, 2798.082
1161.981, 2775.322
1162.463, 2745.135
1162.945, 2707.120
1163.427, 2656.700
1163.910, 2601.357
1164.392, 2550.875
1164.874, 2506.480
1165.356, 2472.641
1165.838, 2462.203
1166.320, 2442.284
1166.802, 2403.089
1167.284, 2354.847
1167.766, 2313.121
1168.249, 2276.165
1168.731, 2238.246
1169.213, 2196.995
1169.695, 2161.804
1170.177, 2140.505
1170.659, 2119.686
1171.141, 2094.327
1171.623, 2065.305
1172.106, 2036.811
1172.588, 2008.196
1173.070, 1975.184
1173.552, 1929.584
1174.034, 1891.430
1174.516, 1871.557
1174.998, 1860.900
1175.480, 1857.016
1175.963, 1859.080
1176.445, 1844.006
1176.927, 1813.264
1177.409, 1781.673
1177.891, 1751.207
1178.373, 1730.727
1178.855, 1733.911
1179.337, 1745.465
1179.819, 1741.506
1180.302, 1721.621
1180.784, 1706.422
1181.266, 1697.953
1181.748, 1690.724
1182.230, 1679.937
1182.712, 1669.056
1183.194, 1662.342
1183.676, 1657.903
1184.158, 1647.193
1184.641, 1629.456
1185.123, 1614.107
1185.605, 1604.296
1186.087, 1594.158
1186.569, 1573.632
1187.051, 1552.720
1187.533, 1543.335
1188.015, 1546.804
1188.498, 1543.353
1188.980, 1531.391
1189.462, 1525.371
1189.944, 1536.099
1190.426, 1547.980
1190.908, 1540.613
1191.390, 1523.314
1191.872, 1509.832
1192.354, 1503.475
1192.837, 1495.650
1193.319, 1485.098
1193.801, 1479.167
1194.283, 1491.084
1194.765, 1504.729
1195.247, 1494.324
1195.729, 1468.347
1196.211, 1449.543
1196.693, 1444.139
1197.176, 1439.587
1197.658, 1434.862
1198.140, 1431.654
1198.622, 1434.224
1199.104, 1437.896
1199.586, 1434.018
1200.068, 1423.590
1200.550, 1417.827
1201.033, 1423.968
1201.515, 1422.279
1201.997, 1405.851
1202.479, 1388.500
1202.961, 1395.431
1203.443, 1412.710
1203.925, 1415.986
1204.407, 1401.112
1204.890, 1388.511
1205.372, 1379.504
1205.854, 1377.551
1206.336, 1386.490
1206.818, 1399.230
1207.300, 1399.919
1207.782, 1393.948
1208.264, 1392.408
1208.746, 1399.792
1209.229, 1404.750
1209.711, 1405.890
1210.193, 1404.136
1210.675, 1398.304
1211.157, 1391.098
1211.639, 1390.308
1212.121, 1393.602
1212.603, 1394.811
1213.085, 1390.318
1213.568, 1386.366
1214.050, 1385.285
1214.532, 1382.262
1215.014, 1370.615
1215.496, 1354.590
1215.978, 1345.980
1216.460, 1344.683
1216.942, 1349.573
1217.425, 1370.689
1217.907, 1382.290
1218.389, 1376.593
1218.871, 1366.748
1219.353, 1371.283
1219.835, 1383.155
1220.317, 1379.841
1220.799, 1361.814
1221.281, 1347.911
1221.764, 1347.434
1222.246, 1350.842
1222.728, 1357.843
1223.210, 1364.739
1223.692, 1365.462
1224.174, 1361.205
1224.656, 1354.115
1225.138, 1344.401
1225.620, 1336.309
1226.103, 1332.141
1226.585, 1328.868
1227.067, 1324.537
1227.549, 1321.813
1228.031, 1330.111
1228.513, 1344.585
1228.995, 1350.762
1229.477, 1342.987
1229.960, 1339.339
1230.442, 1350.717
1230.924, 1359.480
1231.406, 1356.097
1231.888, 1345.912
1232.370, 1346.662
1232.852, 1353.167
1233.334, 1349.599
1233.816, 1321.094
1234.299, 1306.359
1234.781, 1321.317
1235.263, 1337.756
1235.745, 1334.714
1236.227, 1320.016
1236.709, 1318.674
1237.191, 1327.394
1237.673, 1335.654
1238.156, 1341.254
1238.638, 1342.625
1239.120, 1337.222
1239.602, 1332.213
1240.084, 1337.865
1240.566, 1347.921
1241.048, 1341.691
1241.530, 1322.974
1242.012, 1309.918
1242.495, 1314.496
1242.977, 1318.839
1243.459, 1320.697
1243.941, 1320.987
1244.423, 1320.647
1244.905, 1319.526
1245.387, 1315.318
1245.869, 1309.003
1246.351, 1308.548
1246.834, 1322.814
1247.316, 1333.672
1247.798, 1337.483
1248.280, 1338.405
1248.762, 1343.025
1249.244, 1348.545
1249.726, 1348.805
1250.208, 1343.296
1250.691, 1340.210
1251.173, 1343.642
1251.655, 1343.659
1252.137, 1336.525
1252.619, 1327.555
1253.101, 1324.651
1253.583, 1325.732
1254.065, 1328.024
1254.547, 1331.331
1255.030, 1333.329
1255.512, 1333.012
1255.994, 1334.288
1256.476, 1340.050
1256.958, 1345.167
1257.440, 1339.545
1257.922, 1329.028
1258.404, 1321.921
1258.886, 1320.145
1259.369, 1321.480
1259.851, 1327.020
1260.333, 1330.870
1260.815, 1329.539
1261.297, 1326.320
1261.779, 1323.583
1262.261, 1322.717
1262.743, 1326.875
1263.226, 1339.034
1263.708, 1344.830
1264.190, 1343.796
1264.672, 1339.550
1265.154, 1332.045
1265.636, 1324.870
1266.118, 1320.207
1266.600, 1319.117
1267.083, 1325.013
1267.565, 1342.592
1268.047, 1345.010
1268.529, 1331.275
1269.011, 1316.319
1269.493, 1306.058
1269.975, 1302.784
1270.457, 1315.099
1270.939, 1332.948
1271.422, 1338.413
1271.904, 1329.920
1272.386, 1320.811
1272.868, 1311.581
1273.350, 1306.089
1273.832, 1311.366
1274.314, 1316.772
1274.796, 1313.229
1275.278, 1306.756
1275.761, 1307.209
1276.243, 1314.335
1276.725, 1322.047
1277.207, 1329.866
1277.689, 1336.191
1278.171, 1342.655
1278.653, 1344.170
1279.135, 1336.344
1279.618, 1324.186
1280.100, 1315.700
1280.582, 1310.035
1281.064, 1301.267
1281.546, 1288.829
1282.028, 1283.063
1282.510, 1293.952
1282.992, 1307.245
1283.474, 1319.653
1283.957, 1330.178
1284.439, 1340.266
1284.921, 1346.630
1285.403, 1335.448
1285.885, 1304.236
1286.367, 1282.642
1286.849, 1285.575
1287.331, 1291.657
1287.813, 1295.381
1288.296, 1299.628
1288.778, 1310.647
1289.260, 1325.326
1289.742, 1339.967
1290.224, 1354.513
1290.706, 1357.919
1291.188, 1346.383
1291.670, 1332.586
1292.153, 1318.786
1292.635, 1308.741
1293.117, 1310.621
1293.599, 1318.304
1294.081, 1322.570
1294.563, 1321.187
1295.045, 1328.442
1295.527, 1346.746
##END=



