##NAMES=Augelite
##RRUFFID=R050060
##IDEAL CHEMISTRY=Al_2_PO_4_(OH)_3_
##LOCALITY=Machacamarca, Potosi Department, Bolivia
##OWNER=RRUFF
##SOURCE=Rock Currier
##DESCRIPTION=Colorless prismatic crystals
##STATUS=The identification of this mineral has been confirmed by X-ray diffraction and chemical analysis
##URL=rruff.info/R050060
##MEASURED CHEMISTRY=Al_2.00_(P_1.00_O_4_)(OH)_3_; OH estimated by difference
116.1486, 2153.481
116.6307, 2183.933
117.1129, 2206.608
117.5950, 2211.014
118.0771, 2215.452
118.5592, 2235.853
119.0413, 2273.736
119.5234, 2313.773
120.0056, 2339.446
120.4877, 2355.859
120.9698, 2378.292
121.4519, 2406.458
121.9340, 2443.803
122.4161, 2502.432
122.8982, 2598.166
123.3804, 2692.966
123.8625, 2757.492
124.3446, 2796.484
124.8267, 2833.103
125.3088, 2891.013
125.7909, 2973.154
126.2731, 3035.954
126.7552, 3054.318
127.2373, 3064.511
127.7194, 3082.410
128.2015, 3111.170
128.6837, 3144.350
129.1658, 3171.832
129.6479, 3187.393
130.1300, 3209.820
130.6121, 3245.971
131.0942, 3285.575
131.5764, 3322.521
132.0585, 3353.894
132.5406, 3377.764
133.0227, 3386.511
133.5048, 3365.481
133.9869, 3344.097
134.4691, 3329.625
134.9512, 3316.807
135.4333, 3296.648
135.9154, 3263.124
136.3975, 3216.609
136.8796, 3166.973
137.3618, 3105.822
137.8439, 3049.594
138.3260, 3004.957
138.8081, 2972.207
139.2902, 2950.601
139.7723, 2943.301
140.2545, 2950.119
140.7366, 2948.742
141.2187, 2925.551
141.7008, 2899.214
142.1829, 2891.541
142.6650, 2907.478
143.1472, 2932.689
143.6293, 2949.106
144.1114, 2959.581
144.5935, 2984.677
145.0756, 3038.791
145.5577, 3115.059
146.0399, 3191.112
146.5220, 3261.647
147.0041, 3333.913
147.4862, 3409.225
147.9683, 3488.223
148.4504, 3579.143
148.9326, 3693.208
149.4147, 3833.740
149.8968, 3969.560
150.3789, 4081.706
150.8610, 4196.075
151.3431, 4324.701
151.8252, 4470.625
152.3074, 4633.780
152.7895, 4814.046
153.2716, 5016.448
153.7537, 5228.293
154.2358, 5444.916
154.7179, 5671.022
155.2001, 5911.436
155.6822, 6169.407
156.1643, 6442.187
156.6464, 6721.281
157.1285, 6993.776
157.6106, 7294.560
158.0928, 7639.896
158.5749, 8012.609
159.0570, 8391.970
159.5391, 8765.822
160.0212, 9135.205
160.5033, 9493.212
160.9855, 9850.794
161.4676, 10188.88
161.9497, 10521.39
162.4318, 10833.61
162.9139, 11088.78
163.3960, 11258.33
163.8782, 11334.96
164.3603, 11359.52
164.8424, 11349.83
165.3245, 11282.71
165.8066, 11137.54
166.2887, 10913.69
166.7709, 10635.58
167.2530, 10319.89
167.7351, 9963.906
168.2172, 9573.708
168.6993, 9115.721
169.1814, 8636.455
169.6636, 8191.238
170.1457, 7789.934
170.6278, 7415.204
171.1099, 7050.941
171.5920, 6695.286
172.0741, 6352.249
172.5563, 6017.365
173.0384, 5694.875
173.5205, 5401.662
174.0026, 5143.593
174.4847, 4910.275
174.9668, 4686.543
175.4490, 4472.239
175.9311, 4273.214
176.4132, 4094.721
176.8953, 3935.456
177.3774, 3786.393
177.8595, 3651.872
178.3417, 3522.475
178.8238, 3391.292
179.3059, 3257.674
179.7880, 3128.923
180.2701, 3014.290
180.7522, 2915.169
181.2344, 2822.751
181.7165, 2733.405
182.1986, 2651.432
182.6807, 2581.049
183.1628, 2523.422
183.6449, 2474.600
184.1271, 2428.647
184.6092, 2387.230
185.0913, 2345.667
185.5734, 2305.750
186.0555, 2264.548
186.5376, 2218.352
187.0198, 2165.618
187.5019, 2110.008
187.9840, 2059.614
188.4661, 2009.669
188.9482, 1973.193
189.4303, 1961.874
189.9125, 1960.576
190.3946, 1951.615
190.8767, 1925.581
191.3588, 1886.357
191.8409, 1851.322
192.3230, 1819.951
192.8052, 1793.427
193.2873, 1772.865
193.7694, 1757.479
194.2515, 1746.512
194.7336, 1739.898
195.2157, 1737.103
195.6979, 1732.600
196.1800, 1722.522
196.6621, 1715.003
197.1442, 1715.874
197.6263, 1722.461
198.1084, 1726.394
198.5906, 1721.421
199.0727, 1708.143
199.5548, 1697.728
200.0369, 1684.629
200.5190, 1678.575
201.0011, 1687.569
201.4833, 1710.754
201.9654, 1738.365
202.4475, 1763.938
202.9296, 1787.815
203.4117, 1813.749
203.8938, 1842.180
204.3760, 1872.569
204.8581, 1904.547
205.3402, 1938.266
205.8223, 1972.837
206.3044, 2006.136
206.7865, 2039.563
207.2687, 2078.311
207.7508, 2121.700
208.2329, 2171.533
208.7150, 2231.751
209.1971, 2304.083
209.6792, 2380.611
210.1614, 2454.615
210.6435, 2527.559
211.1256, 2603.517
211.6077, 2675.521
212.0898, 2752.406
212.5719, 2855.862
213.0541, 2994.274
213.5362, 3145.600
214.0183, 3295.940
214.5004, 3445.738
214.9825, 3597.308
215.4646, 3745.444
215.9468, 3894.381
216.4289, 4057.680
216.9110, 4232.389
217.3931, 4430.436
217.8752, 4659.367
218.3573, 4914.434
218.8395, 5180.212
219.3216, 5446.485
219.8037, 5713.413
220.2858, 5991.592
220.7679, 6297.117
221.2500, 6597.396
221.7322, 6884.547
222.2143, 7155.732
222.6964, 7405.695
223.1785, 7632.227
223.6606, 7835.673
224.1427, 8008.987
224.6249, 8154.698
225.1070, 8262.710
225.5891, 8347.168
226.0712, 8395.352
226.5533, 8371.695
227.0354, 8243.498
227.5176, 8008.241
227.9997, 7686.445
228.4818, 7213.175
228.9639, 6705.341
229.4460, 6185.934
229.9281, 5670.862
230.4103, 5180.648
230.8924, 4739.700
231.3745, 4349.388
231.8566, 3998.322
232.3387, 3680.120
232.8208, 3400.478
233.3030, 3170.332
233.7851, 2984.848
234.2672, 2828.666
234.7493, 2686.088
235.2314, 2558.613
235.7135, 2440.858
236.1957, 2330.781
236.6778, 2229.623
237.1599, 2139.479
237.6420, 2060.022
238.1241, 1989.816
238.6062, 1927.768
239.0884, 1874.265
239.5705, 1828.799
240.0526, 1798.580
240.5347, 1769.492
241.0168, 1729.046
241.4989, 1678.203
241.9811, 1631.672
242.4632, 1607.856
242.9453, 1618.653
243.4274, 1615.583
243.9095, 1589.941
244.3916, 1559.171
244.8738, 1531.047
245.3559, 1508.078
245.8380, 1491.946
246.3201, 1485.620
246.8022, 1494.131
247.2843, 1496.495
247.7665, 1486.767
248.2486, 1475.680
248.7307, 1471.226
249.2128, 1474.210
249.6949, 1480.146
250.1770, 1484.698
250.6592, 1488.917
251.1413, 1485.894
251.6234, 1471.746
252.1055, 1453.479
252.5876, 1438.229
253.0697, 1426.300
253.5519, 1409.464
254.0340, 1377.601
254.5161, 1325.149
254.9982, 1279.144
255.4803, 1245.162
255.9624, 1214.001
256.4445, 1177.646
256.9267, 1135.400
257.4088, 1092.797
257.8909, 1054.358
258.3730, 1020.179
258.8551, 996.4216
259.3372, 989.8757
259.8194, 989.4281
260.3015, 987.4022
260.7836, 982.6417
261.2657, 975.8679
261.7478, 967.3291
262.2299, 956.6390
262.7121, 947.1485
263.1942, 940.3942
263.6763, 933.9196
264.1584, 925.2473
264.6405, 914.2569
265.1227, 903.4265
265.6048, 895.2263
266.0869, 889.8796
266.5690, 883.8894
267.0511, 873.5124
267.5332, 864.8761
268.0154, 864.5151
268.4975, 872.5358
268.9796, 882.0029
269.4617, 887.9644
269.9438, 890.0389
270.4259, 889.1130
270.9081, 883.2380
271.3902, 875.7370
271.8723, 868.4272
272.3544, 861.5039
272.8365, 856.3104
273.3186, 854.8857
273.8008, 856.5943
274.2829, 854.6721
274.7650, 843.5890
275.2471, 832.8898
275.7292, 830.4128
276.2113, 835.9081
276.6935, 843.4337
277.1756, 849.7101
277.6577, 854.5911
278.1398, 858.2457
278.6219, 859.8252
279.1040, 860.8851
279.5862, 864.3760
280.0683, 869.5255
280.5504, 868.9778
281.0325, 853.6335
281.5146, 829.9951
281.9967, 823.3044
282.4789, 848.7583
282.9610, 876.8787
283.4431, 889.2696
283.9252, 887.8597
284.4073, 883.1638
284.8894, 879.5146
285.3716, 877.0419
285.8537, 875.3287
286.3358, 870.6544
286.8179, 871.2188
287.3000, 886.4420
287.7821, 912.4106
288.2643, 932.1251
288.7464, 935.3142
289.2285, 929.6851
289.7106, 934.6254
290.1927, 953.0950
290.6748, 975.3568
291.1570, 998.6727
291.6391, 1022.502
292.1212, 1044.095
292.6033, 1060.650
293.0854, 1076.907
293.5675, 1102.226
294.0497, 1137.325
294.5318, 1177.464
295.0139, 1222.638
295.4960, 1271.488
295.9781, 1324.025
296.4602, 1384.198
296.9424, 1439.676
297.4245, 1468.990
297.9066, 1475.960
298.3887, 1458.162
298.8708, 1402.035
299.3529, 1322.958
299.8351, 1245.470
300.3172, 1174.557
300.7993, 1111.101
301.2814, 1057.453
301.7635, 1013.575
302.2456, 974.2390
302.7278, 936.2107
303.2099, 903.1097
303.6920, 882.0325
304.1741, 875.0945
304.6562, 873.3314
305.1383, 865.9894
305.6205, 852.5009
306.1026, 844.4803
306.5847, 849.0111
307.0668, 856.7527
307.5489, 855.2724
308.0310, 843.0728
308.5132, 834.3491
308.9953, 845.3580
309.4774, 876.9507
309.9595, 896.6771
310.4416, 892.9450
310.9237, 884.2454
311.4059, 884.5591
311.8880, 894.4098
312.3701, 907.9680
312.8522, 922.0526
313.3343, 936.2581
313.8164, 947.7603
314.2986, 953.7918
314.7807, 959.6378
315.2628, 968.4669
315.7449, 979.8405
316.2270, 991.1375
316.7091, 999.7093
317.1913, 1007.221
317.6734, 1022.849
318.1555, 1058.447
318.6376, 1088.345
319.1197, 1096.873
319.6018, 1092.201
320.0840, 1093.749
320.5661, 1111.294
321.0482, 1140.609
321.5303, 1167.916
322.0124, 1193.755
322.4945, 1217.389
322.9767, 1236.220
323.4588, 1253.321
323.9409, 1274.381
324.4230, 1301.941
324.9051, 1331.324
325.3872, 1352.900
325.8694, 1358.708
326.3515, 1370.730
326.8336, 1396.368
327.3157, 1426.034
327.7978, 1452.438
328.2799, 1473.186
328.7621, 1485.210
329.2442, 1482.648
329.7263, 1453.895
330.2084, 1440.238
330.6905, 1458.260
331.1726, 1478.833
331.6548, 1479.756
332.1369, 1459.498
332.6190, 1432.191
333.1011, 1412.687
333.5832, 1403.879
334.0653, 1385.999
334.5475, 1348.912
335.0296, 1313.800
335.5117, 1292.869
335.9938, 1283.576
336.4759, 1275.658
336.9580, 1261.520
337.4402, 1241.225
337.9223, 1218.313
338.4044, 1188.188
338.8865, 1160.608
339.3686, 1137.643
339.8507, 1118.933
340.3329, 1104.544
340.8150, 1094.840
341.2971, 1088.027
341.7792, 1075.949
342.2613, 1046.508
342.7434, 1027.446
343.2256, 1029.781
343.7077, 1040.420
344.1898, 1045.274
344.6719, 1038.820
345.1540, 1025.643
345.6361, 1014.783
346.1183, 1007.706
346.6004, 1000.249
347.0825, 992.0329
347.5646, 983.5086
348.0467, 975.1109
348.5288, 966.9136
349.0110, 958.3216
349.4931, 947.4733
349.9752, 932.1926
350.4573, 923.2643
350.9394, 931.3397
351.4215, 937.0662
351.9037, 927.0806
352.3858, 904.7838
352.8679, 885.6685
353.3500, 884.8647
353.8321, 901.7153
354.3142, 914.3008
354.7964, 919.0336
355.2785, 923.5473
355.7606, 930.5746
356.2427, 939.6539
356.7248, 950.4300
357.2069, 965.2768
357.6891, 980.0287
358.1712, 980.2322
358.6533, 957.4030
359.1354, 939.1927
359.6175, 935.0449
360.0996, 941.6879
360.5818, 957.7666
361.0639, 985.0414
361.5460, 1016.132
362.0281, 1041.166
362.5102, 1059.742
362.9923, 1076.204
363.4745, 1083.059
363.9566, 1094.875
364.4387, 1129.958
364.9208, 1193.353
365.4029, 1255.560
365.8850, 1292.791
366.3672, 1308.859
366.8493, 1325.264
367.3314, 1346.590
367.8135, 1369.276
368.2956, 1393.490
368.7777, 1418.792
369.2599, 1432.506
369.7420, 1427.952
370.2241, 1408.847
370.7062, 1378.985
371.1883, 1337.341
371.6704, 1292.906
372.1526, 1252.257
372.6347, 1214.842
373.1168, 1177.754
373.5989, 1137.875
374.0810, 1100.097
374.5631, 1067.170
375.0453, 1039.344
375.5274, 1018.809
376.0095, 1009.317
376.4916, 1007.243
376.9737, 996.6855
377.4558, 967.1430
377.9380, 942.0331
378.4201, 928.4631
378.9022, 925.3281
379.3843, 933.8940
379.8664, 956.1717
380.3485, 982.6030
380.8307, 992.2449
381.3128, 971.9011
381.7949, 959.2261
382.2770, 963.2390
382.7591, 972.2706
383.2412, 972.9822
383.7234, 963.8189
384.2055, 956.1605
384.6876, 964.5955
385.1697, 995.5318
385.6518, 1014.988
386.1339, 1012.367
386.6161, 1010.165
387.0982, 1020.282
387.5803, 1040.652
388.0624, 1062.587
388.5445, 1079.787
389.0266, 1092.891
389.5088, 1108.425
389.9909, 1126.621
390.4730, 1147.338
390.9551, 1169.700
391.4372, 1194.762
391.9193, 1224.855
392.4015, 1261.141
392.8836, 1300.021
393.3657, 1332.457
393.8478, 1350.260
394.3299, 1381.674
394.8120, 1436.076
395.2942, 1500.438
395.7763, 1568.370
396.2584, 1638.297
396.7405, 1708.621
397.2226, 1776.711
397.7047, 1842.237
398.1869, 1913.784
398.6690, 1990.255
399.1511, 2075.938
399.6332, 2170.282
400.1153, 2273.915
400.5974, 2389.387
401.0796, 2522.218
401.5617, 2666.628
402.0438, 2806.315
402.5259, 2935.716
403.0080, 3082.542
403.4901, 3272.303
403.9723, 3487.151
404.4544, 3698.416
404.9365, 3894.145
405.4186, 4097.900
405.9007, 4339.326
406.3828, 4609.794
406.8650, 4863.840
407.3471, 5086.752
407.8292, 5281.701
408.3113, 5456.682
408.7934, 5613.257
409.2755, 5748.053
409.7577, 5869.836
410.2398, 5964.269
410.7219, 6007.320
411.2040, 5994.787
411.6861, 5946.004
412.1682, 5875.513
412.6504, 5780.213
413.1325, 5684.222
413.6146, 5589.344
414.0967, 5492.005
414.5788, 5379.452
415.0609, 5260.953
415.5431, 5165.073
416.0252, 5112.463
416.5073, 5091.040
416.9894, 5042.543
417.4715, 4923.441
417.9536, 4829.172
418.4358, 4783.623
418.9179, 4760.687
419.4000, 4735.589
419.8821, 4699.780
420.3642, 4654.622
420.8463, 4600.540
421.3285, 4533.122
421.8106, 4469.490
422.2927, 4422.196
422.7748, 4367.769
423.2569, 4291.412
423.7390, 4196.442
424.2212, 4097.158
424.7033, 4005.284
425.1854, 3918.884
425.6675, 3820.888
426.1496, 3699.483
426.6317, 3588.000
427.1139, 3497.799
427.5960, 3423.804
428.0781, 3361.274
428.5602, 3311.768
429.0423, 3266.186
429.5244, 3212.784
430.0066, 3151.378
430.4887, 3091.288
430.9708, 3037.040
431.4529, 2983.171
431.9350, 2920.719
432.4171, 2848.583
432.8993, 2786.082
433.3814, 2746.007
433.8635, 2720.870
434.3456, 2700.051
434.8277, 2683.521
435.3098, 2660.631
435.7920, 2618.164
436.2741, 2558.004
436.7562, 2509.489
437.2383, 2478.015
437.7204, 2454.386
438.2025, 2436.202
438.6847, 2421.689
439.1668, 2406.998
439.6489, 2390.616
440.1310, 2371.833
440.6131, 2348.608
441.0952, 2315.833
441.5774, 2285.526
442.0595, 2257.976
442.5416, 2233.144
443.0237, 2211.622
443.5058, 2193.190
443.9879, 2176.372
444.4701, 2158.815
444.9522, 2139.407
445.4343, 2127.757
445.9164, 2132.031
446.3985, 2135.955
446.8806, 2136.570
447.3628, 2132.844
447.8449, 2121.760
448.3270, 2099.317
448.8091, 2074.336
449.2912, 2070.039
449.7733, 2092.771
450.2555, 2118.714
450.7376, 2142.911
451.2197, 2167.249
451.7018, 2193.460
452.1839, 2221.650
452.6660, 2250.718
453.1482, 2278.605
453.6303, 2306.336
454.1124, 2339.049
454.5945, 2379.567
455.0766, 2420.852
455.5587, 2451.835
456.0409, 2477.786
456.5230, 2515.813
457.0051, 2580.404
457.4872, 2650.961
457.9693, 2708.962
458.4514, 2756.328
458.9336, 2801.780
459.4157, 2846.341
459.8978, 2895.514
460.3799, 2967.083
460.8620, 3076.318
461.3441, 3174.857
461.8262, 3248.400
462.3083, 3310.427
462.7905, 3373.753
463.2726, 3441.131
463.7547, 3508.748
464.2368, 3573.194
464.7189, 3634.275
465.2010, 3692.789
465.6832, 3759.140
466.1653, 3811.606
466.6474, 3839.136
467.1295, 3848.586
467.6116, 3851.218
468.0938, 3852.318
468.5759, 3851.145
469.0580, 3848.290
469.5401, 3849.442
470.0222, 3832.445
470.5043, 3781.472
470.9865, 3719.820
471.4686, 3662.187
471.9507, 3609.392
472.4328, 3550.694
472.9149, 3479.270
473.3970, 3395.835
473.8792, 3298.792
474.3613, 3181.349
474.8434, 3070.837
475.3255, 2995.394
475.8076, 2938.330
476.2897, 2862.749
476.7719, 2746.346
477.2540, 2631.840
477.7361, 2552.790
478.2182, 2499.906
478.7003, 2444.576
479.1824, 2376.653
479.6646, 2304.943
480.1467, 2243.808
480.6288, 2195.943
481.1109, 2150.057
481.5930, 2107.086
482.0751, 2065.060
482.5573, 2022.817
483.0394, 1980.032
483.5215, 1936.000
484.0036, 1889.466
484.4857, 1841.777
484.9678, 1801.854
485.4500, 1770.101
485.9321, 1746.650
486.4142, 1736.467
486.8963, 1731.575
487.3784, 1726.109
487.8605, 1718.069
488.3427, 1705.660
488.8248, 1682.420
489.3069, 1647.359
489.7890, 1626.980
490.2711, 1630.989
490.7532, 1639.023
491.2354, 1639.620
491.7175, 1635.196
492.1996, 1631.271
492.6817, 1628.961
493.1638, 1629.095
493.6459, 1633.681
494.1281, 1642.418
494.6102, 1650.517
495.0923, 1655.085
495.5744, 1659.415
496.0565, 1669.953
496.5386, 1687.762
497.0208, 1705.344
497.5029, 1718.755
497.9850, 1732.444
498.4671, 1750.798
498.9492, 1774.109
499.4313, 1800.612
499.9135, 1828.943
500.3956, 1859.012
500.8777, 1891.368
501.3598, 1927.101
501.8419, 1963.643
502.3240, 1999.248
502.8062, 2035.933
503.2883, 2076.299
503.7704, 2120.981
504.2525, 2168.584
504.7346, 2216.627
505.2167, 2263.752
505.6989, 2320.221
506.1810, 2391.117
506.6631, 2466.266
507.1452, 2541.091
507.6273, 2616.109
508.1094, 2693.140
508.5916, 2773.332
509.0737, 2855.392
509.5558, 2934.920
510.0379, 3011.965
510.5200, 3097.262
511.0021, 3195.345
511.4843, 3302.467
511.9664, 3413.646
512.4485, 3528.673
512.9306, 3646.895
513.4127, 3770.959
513.8948, 3895.768
514.3770, 4010.010
514.8591, 4116.802
515.3412, 4237.733
515.8233, 4390.071
516.3054, 4568.463
516.7875, 4734.262
517.2697, 4873.999
517.7518, 5018.459
518.2339, 5182.611
518.7160, 5346.615
519.1981, 5487.779
519.6802, 5603.972
520.1624, 5714.172
520.6445, 5843.184
521.1266, 5991.953
521.6087, 6121.511
522.0908, 6229.511
522.5729, 6319.173
523.0551, 6386.891
523.5372, 6440.704
524.0193, 6493.686
524.5014, 6552.828
524.9835, 6605.630
525.4656, 6642.269
525.9478, 6662.439
526.4299, 6665.086
526.9120, 6649.713
527.3941, 6617.206
527.8762, 6564.104
528.3583, 6489.784
528.8405, 6415.269
529.3226, 6350.884
529.8047, 6279.227
530.2868, 6189.354
530.7689, 6082.397
531.2510, 5961.417
531.7332, 5827.346
532.2153, 5684.203
532.6974, 5542.052
533.1795, 5405.255
533.6616, 5261.199
534.1437, 5096.683
534.6259, 4936.458
535.1080, 4798.208
535.5901, 4679.214
536.0722, 4567.326
536.5543, 4456.834
537.0364, 4345.651
537.5186, 4227.686
538.0007, 4100.425
538.4828, 3974.254
538.9649, 3846.344
539.4470, 3726.499
539.9291, 3630.602
540.4113, 3563.468
540.8934, 3493.960
541.3755, 3401.770
541.8576, 3299.750
542.3397, 3208.499
542.8218, 3130.264
543.3040, 3056.939
543.7861, 2982.979
544.2682, 2908.644
544.7503, 2836.353
545.2324, 2769.178
545.7145, 2699.746
546.1967, 2617.715
546.6788, 2537.881
547.1609, 2478.542
547.6430, 2442.624
548.1251, 2416.240
548.6072, 2386.790
549.0894, 2354.473
549.5715, 2309.681
550.0536, 2238.784
550.5357, 2174.845
551.0178, 2130.812
551.4999, 2099.651
551.9821, 2073.352
552.4642, 2051.732
552.9463, 2026.624
553.4284, 1984.266
553.9105, 1930.722
554.3926, 1893.796
554.8748, 1882.342
555.3569, 1874.225
555.8390, 1848.003
556.3211, 1803.580
556.8032, 1764.438
557.2853, 1729.863
557.7675, 1701.614
558.2496, 1682.249
558.7317, 1669.415
559.2138, 1663.239
559.6959, 1663.256
560.1780, 1658.549
560.6602, 1629.609
561.1423, 1566.746
561.6244, 1518.894
562.1065, 1497.360
562.5886, 1480.876
563.0707, 1468.198
563.5529, 1454.371
564.0350, 1429.849
564.5171, 1387.793
564.9992, 1341.957
565.4813, 1311.977
565.9634, 1296.867
566.4456, 1280.306
566.9277, 1257.392
567.4098, 1234.097
567.8919, 1217.666
568.3740, 1207.341
568.8561, 1196.140
569.3383, 1185.766
569.8204, 1171.640
570.3025, 1146.199
570.7846, 1114.719
571.2667, 1090.376
571.7488, 1078.765
572.2310, 1074.110
572.7131, 1066.329
573.1952, 1053.299
573.6773, 1042.814
574.1594, 1037.823
574.6415, 1032.319
575.1237, 1022.139
575.6058, 1009.611
576.0879, 999.8812
576.5700, 995.7804
577.0521, 994.7252
577.5342, 994.9927
578.0164, 996.6268
578.4985, 989.1691
578.9806, 964.7302
579.4627, 938.7196
579.9448, 928.8061
580.4269, 933.0750
580.9091, 937.1919
581.3912, 938.1040
581.8733, 938.3004
582.3554, 940.0981
582.8375, 942.5698
583.3196, 942.2218
583.8018, 937.4152
584.2839, 932.5848
584.7660, 936.3640
585.2481, 954.2165
585.7302, 964.9863
586.2123, 963.4284
586.6945, 960.5105
587.1766, 958.2512
587.6587, 958.3933
588.1408, 963.7307
588.6229, 976.1187
589.1050, 992.3484
589.5872, 1010.772
590.0693, 1031.079
590.5514, 1041.048
591.0335, 1034.442
591.5156, 1023.719
591.9977, 1021.003
592.4799, 1025.313
592.9620, 1030.484
593.4441, 1036.086
593.9262, 1041.957
594.4083, 1047.928
594.8904, 1054.104
595.3726, 1060.822
595.8547, 1068.172
596.3368, 1075.308
596.8189, 1080.456
597.3010, 1082.361
597.7831, 1088.215
598.2653, 1097.681
598.7474, 1111.830
599.2295, 1136.323
599.7116, 1164.142
600.1937, 1184.436
600.6758, 1192.496
601.1580, 1196.036
601.6401, 1201.008
602.1222, 1207.975
602.6043, 1220.898
603.0864, 1241.872
603.5685, 1263.083
604.0507, 1276.579
604.5328, 1283.636
605.0149, 1297.636
605.4970, 1323.879
605.9791, 1350.782
606.4612, 1369.861
606.9434, 1389.215
607.4255, 1423.920
607.9076, 1474.926
608.3897, 1523.443
608.8718, 1545.666
609.3539, 1542.562
609.8361, 1561.645
610.3182, 1616.581
610.8003, 1671.459
611.2824, 1716.524
611.7645, 1754.472
612.2466, 1785.999
612.7288, 1810.523
613.2109, 1838.190
613.6930, 1879.029
614.1751, 1926.209
614.6572, 1965.701
615.1393, 1996.669
615.6215, 2031.425
616.1036, 2079.271
616.5857, 2135.902
617.0678, 2186.718
617.5499, 2221.433
618.0320, 2264.436
618.5142, 2321.667
618.9963, 2383.819
619.4784, 2439.617
619.9605, 2492.735
620.4426, 2558.292
620.9247, 2647.807
621.4069, 2754.831
621.8890, 2862.391
622.3711, 2969.581
622.8532, 3082.214
623.3353, 3201.217
623.8174, 3327.947
624.2996, 3459.999
624.7817, 3597.941
625.2638, 3757.668
625.7459, 3956.823
626.2280, 4167.671
626.7101, 4359.989
627.1923, 4546.066
627.6744, 4763.458
628.1565, 5025.631
628.6386, 5316.937
629.1207, 5607.429
629.6028, 5889.735
630.0850, 6199.175
630.5671, 6532.980
631.0492, 6898.519
631.5313, 7325.382
632.0134, 7776.717
632.4955, 8194.524
632.9777, 8555.896
633.4598, 8903.205
633.9419, 9294.435
634.4240, 9704.368
634.9061, 10056.89
635.3882, 10344.92
635.8704, 10549.91
636.3525, 10656.97
636.8346, 10668.65
637.3167, 10598.33
637.7988, 10460.63
638.2809, 10235.87
638.7631, 9894.786
639.2452, 9481.783
639.7273, 9019.611
640.2094, 8522.713
640.6915, 8023.735
641.1736, 7546.854
641.6558, 7086.966
642.1379, 6635.712
642.6200, 6186.188
643.1021, 5776.839
643.5842, 5435.010
644.0663, 5124.313
644.5485, 4793.974
645.0306, 4445.870
645.5127, 4150.832
645.9948, 3964.449
646.4769, 3807.012
646.9590, 3618.276
647.4412, 3408.554
647.9233, 3207.560
648.4054, 3027.684
648.8875, 2868.764
649.3696, 2731.824
649.8517, 2621.279
650.3339, 2514.515
650.8160, 2412.851
651.2981, 2314.505
651.7802, 2215.039
652.2623, 2119.168
652.7444, 2034.179
653.2266, 1962.516
653.7087, 1895.187
654.1908, 1822.041
654.6729, 1748.493
655.1550, 1687.907
655.6371, 1641.541
656.1193, 1597.708
656.6014, 1549.219
657.0835, 1496.986
657.5656, 1445.739
658.0477, 1389.513
658.5298, 1342.802
659.0120, 1311.528
659.4941, 1284.712
659.9762, 1253.736
660.4583, 1220.099
660.9404, 1191.553
661.4225, 1173.563
661.9047, 1159.974
662.3868, 1140.503
662.8689, 1115.188
663.3510, 1086.547
663.8331, 1053.110
664.3152, 1021.195
664.7974, 997.1440
665.2795, 980.9232
665.7616, 966.3348
666.2437, 960.3054
666.7258, 947.6822
667.2079, 914.3049
667.6901, 875.4806
668.1722, 851.6206
668.6543, 845.7576
669.1364, 844.8229
669.6185, 838.0634
670.1006, 825.4138
670.5828, 803.7172
671.0649, 766.5968
671.5470, 741.6293
672.0291, 745.5535
672.5112, 760.0107
672.9933, 765.3098
673.4755, 761.1705
673.9576, 751.0290
674.4397, 730.3619
674.9218, 708.7988
675.4039, 692.2404
675.8860, 681.0406
676.3682, 676.4741
676.8503, 678.9583
677.3324, 683.0521
677.8145, 680.1940
678.2966, 669.1464
678.7787, 661.4278
679.2609, 660.8626
679.7430, 657.9979
680.2251, 647.1333
680.7072, 633.0289
681.1893, 621.5098
681.6714, 613.5662
682.1536, 607.7339
682.6357, 605.2640
683.1178, 603.3808
683.5999, 596.4253
684.0820, 585.5074
684.5641, 580.1532
685.0463, 586.5726
685.5284, 597.2104
686.0105, 592.9261
686.4926, 562.2261
686.9747, 543.9621
687.4568, 548.9786
687.9390, 555.6299
688.4211, 552.8494
688.9032, 545.9273
689.3853, 546.3496
689.8674, 559.6259
690.3495, 573.8358
690.8317, 579.6959
691.3138, 578.9486
691.7959, 574.1785
692.2780, 565.9615
692.7601, 557.7872
693.2422, 552.1035
693.7244, 548.4550
694.2065, 545.0391
694.6886, 539.9530
695.1707, 538.3706
695.6528, 544.1078
696.1349, 549.8131
696.6171, 549.8481
697.0992, 546.1320
697.5813, 544.6873
698.0634, 549.1224
698.5455, 554.9159
699.0276, 556.1750
699.5098, 554.3241
699.9919, 554.9865
700.4740, 559.4082
700.9561, 563.9017
701.4382, 565.1276
701.9203, 563.7038
702.4025, 564.5432
702.8846, 568.4660
703.3667, 573.6740
703.8488, 579.7628
704.3309, 587.3068
704.8130, 597.0931
705.2952, 608.8210
705.7773, 622.0198
706.2594, 638.3035
706.7415, 652.7920
707.2236, 657.2709
707.7057, 653.1355
708.1879, 647.0934
708.6700, 639.3698
709.1521, 637.5734
709.6342, 650.8694
710.1163, 678.3675
710.5984, 697.9476
711.0806, 702.8122
711.5627, 709.1797
712.0448, 718.7670
712.5269, 731.2520
713.0090, 749.3207
713.4911, 770.7709
713.9733, 786.5511
714.4554, 787.1410
714.9375, 783.2841
715.4196, 795.5660
715.9017, 821.3790
716.3839, 838.4031
716.8660, 839.3995
717.3481, 837.3812
717.8302, 846.4946
718.3123, 866.6395
718.7944, 877.0491
719.2766, 866.9837
719.7587, 861.9710
720.2408, 873.6656
720.7229, 887.2817
721.2050, 888.9296
721.6871, 878.3803
722.1693, 864.8602
722.6514, 853.7057
723.1335, 843.5516
723.6156, 829.7737
724.0977, 813.7730
724.5798, 807.7073
725.0620, 816.7447
725.5441, 826.5054
726.0262, 821.3210
726.5083, 801.1891
726.9904, 786.7491
727.4725, 780.8405
727.9547, 776.6648
728.4368, 771.3420
728.9189, 768.6309
729.4010, 773.8441
729.8831, 785.7226
730.3652, 796.6400
730.8474, 803.3543
731.3295, 805.1286
731.8116, 796.9128
732.2937, 781.6212
732.7758, 774.5162
733.2579, 779.8707
733.7401, 790.7705
734.2222, 800.3935
734.7043, 808.8873
735.1864, 821.7328
735.6685, 844.5947
736.1506, 864.3519
736.6328, 875.7784
737.1149, 886.3635
737.5970, 902.6937
738.0791, 924.1893
738.5612, 945.4144
739.0433, 965.8108
739.5255, 982.0539
740.0076, 987.5916
740.4897, 985.8134
740.9718, 989.6304
741.4539, 1002.040
741.9360, 1010.078
742.4182, 1001.334
742.9003, 977.7114
743.3824, 956.0359
743.8645, 937.1586
744.3466, 918.8201
744.8287, 905.5257
745.3109, 888.5600
745.7930, 860.5537
746.2751, 823.4661
746.7572, 785.5035
747.2393, 747.3223
747.7214, 712.6876
748.2036, 685.4277
748.6857, 664.0170
749.1678, 646.4425
749.6499, 632.0294
750.1320, 619.8348
750.6141, 609.3347
751.0963, 599.9503
751.5784, 589.2242
752.0605, 576.0428
752.5426, 564.7393
753.0247, 557.6870
753.5068, 550.6317
753.9890, 540.8569
754.4711, 529.0073
754.9532, 516.4457
755.4353, 500.0673
755.9174, 489.1067
756.3995, 492.5963
756.8817, 501.5334
757.3638, 504.6538
757.8459, 501.8489
758.3280, 499.8799
758.8101, 503.1888
759.2922, 508.3347
759.7744, 507.0394
760.2565, 498.3834
760.7386, 492.9004
761.2207, 493.3397
761.7028, 493.5463
762.1849, 489.6164
762.6671, 482.6142
763.1492, 475.2666
763.6313, 466.9553
764.1134, 459.8696
764.5955, 451.5125
765.0776, 447.1520
765.5598, 455.2065
766.0419, 469.9719
766.5240, 477.7631
767.0061, 472.5479
767.4882, 462.6297
767.9703, 458.3104
768.4525, 458.6299
768.9346, 458.1434
769.4167, 456.2625
769.8988, 456.5656
770.3809, 462.3921
770.8630, 469.4383
771.3452, 468.6464
771.8273, 455.3764
772.3094, 447.7784
772.7915, 447.6896
773.2736, 450.9362
773.7557, 459.4503
774.2379, 468.6421
774.7200, 470.9748
775.2021, 465.1505
775.6842, 461.3830
776.1663, 473.4637
776.6484, 489.0714
777.1306, 485.0935
777.6127, 465.0760
778.0948, 447.5731
778.5769, 438.8216
779.0590, 440.7621
779.5411, 458.6954
780.0233, 493.2775
780.5054, 512.1230
780.9875, 507.7885
781.4696, 499.6873
781.9517, 490.1152
782.4338, 480.4171
782.9160, 470.2144
783.3981, 460.2015
783.8802, 455.1988
784.3623, 460.5064
784.8444, 467.4492
785.3265, 469.3270
785.8087, 469.6412
786.2908, 477.5005
786.7729, 492.0164
787.2550, 497.4091
787.7371, 478.4773
788.2192, 447.1371
788.7014, 440.7822
789.1835, 462.5904
789.6656, 477.4405
790.1477, 477.8028
790.6298, 473.6255
791.1119, 471.4596
791.5941, 470.9753
792.0762, 470.4801
792.5583, 469.9764
793.0404, 469.4603
793.5225, 470.2167
794.0046, 469.8306
794.4868, 464.6129
794.9689, 457.1230
795.4510, 452.9593
795.9331, 454.4704
796.4152, 459.8987
796.8973, 470.0441
797.3795, 482.1895
797.8616, 489.6779
798.3437, 492.0589
798.8258, 489.5593
799.3079, 481.2733
799.7900, 472.1009
800.2722, 471.9761
800.7543, 484.5110
801.2364, 488.9962
801.7185, 477.5393
802.2006, 468.7510
802.6827, 470.0164
803.1649, 475.8609
803.6470, 480.9079
804.1291, 484.6046
804.6112, 487.6096
805.0933, 490.5726
805.5754, 492.5524
806.0576, 492.7593
806.5397, 491.4868
807.0218, 488.1260
807.5039, 483.1642
807.9860, 480.5528
808.4681, 484.7991
808.9503, 493.0956
809.4324, 496.1039
809.9145, 493.5192
810.3966, 490.5219
810.8787, 487.2441
811.3608, 486.5733
811.8430, 492.2131
812.3251, 502.9653
812.8072, 510.1460
813.2893, 514.3746
813.7714, 514.3142
814.2535, 501.0153
814.7357, 491.4925
815.2178, 502.5284
815.6999, 525.5210
816.1820, 538.6497
816.6641, 532.2597
817.1462, 523.0317
817.6284, 524.6025
818.1105, 532.0419
818.5926, 537.8460
819.0747, 541.5804
819.5568, 544.8150
820.0389, 548.2573
820.5211, 551.9054
821.0032, 556.8212
821.4853, 563.5131
821.9674, 561.0557
822.4495, 543.2076
822.9316, 532.4028
823.4138, 541.9797
823.8959, 558.5847
824.3780, 563.1426
824.8601, 555.2508
825.3422, 555.4863
825.8243, 574.2966
826.3065, 591.8356
826.7886, 598.4230
827.2707, 601.0919
827.7528, 610.0953
828.2349, 624.2305
828.7170, 630.9810
829.1992, 619.3141
829.6813, 602.5717
830.1633, 597.6013
830.6454, 602.5073
831.1276, 613.2385
831.6097, 628.7880
832.0918, 641.9801
832.5739, 647.2628
833.0560, 648.4583
833.5381, 657.4431
834.0203, 679.2621
834.5024, 690.9181
834.9845, 683.4166
835.4666, 677.6809
835.9487, 685.6343
836.4308, 701.0927
836.9130, 715.9197
837.3951, 729.7030
837.8772, 742.3500
838.3593, 754.4753
838.8414, 764.6633
839.3235, 771.5465
839.8057, 776.1481
840.2878, 777.4534
840.7699, 776.6506
841.2520, 782.4837
841.7341, 806.7614
842.2162, 838.3027
842.6984, 853.5001
843.1805, 856.2958
843.6626, 867.9509
844.1447, 893.6184
844.6268, 920.4780
845.1089, 937.8135
845.5911, 947.3729
846.0732, 957.0171
846.5553, 964.8345
847.0374, 978.1937
847.5195, 1004.327
848.0016, 1028.279
848.4838, 1036.209
848.9659, 1037.397
849.4480, 1050.326
849.9301, 1079.784
850.4122, 1110.992
850.8943, 1143.941
851.3765, 1173.537
851.8586, 1194.440
852.3407, 1210.070
852.8228, 1226.297
853.3049, 1244.677
853.7870, 1261.981
854.2692, 1270.501
854.7513, 1278.394
855.2334, 1306.653
855.7155, 1349.725
856.1976, 1379.055
856.6797, 1386.816
857.1619, 1388.279
857.6440, 1397.870
858.1261, 1412.993
858.6082, 1418.726
859.0903, 1410.493
859.5724, 1407.926
860.0546, 1416.771
860.5367, 1427.282
861.0188, 1436.071
861.5009, 1441.263
861.9830, 1437.446
862.4651, 1420.120
862.9473, 1404.631
863.4294, 1393.007
863.9115, 1384.869
864.3936, 1386.448
864.8757, 1388.838
865.3578, 1376.606
865.8400, 1346.476
866.3221, 1313.641
866.8042, 1286.205
867.2863, 1264.489
867.7684, 1252.161
868.2505, 1245.851
868.7327, 1234.788
869.2148, 1216.578
869.6969, 1198.480
870.1790, 1187.826
870.6611, 1180.320
871.1432, 1158.102
871.6254, 1118.171
872.1075, 1088.531
872.5896, 1076.196
873.0717, 1065.727
873.5538, 1044.786
874.0359, 1019.590
874.5181, 1008.076
875.0002, 1020.451
875.4823, 1023.718
875.9644, 1012.673
876.4465, 998.2636
876.9286, 983.5020
877.4108, 968.6630
877.8929, 952.6245
878.3750, 935.5035
878.8571, 922.7405
879.3392, 918.7440
879.8214, 918.1478
880.3035, 918.4365
880.7856, 918.3904
881.2677, 914.1768
881.7498, 906.7789
882.2319, 904.3168
882.7141, 913.3617
883.1962, 926.9400
883.6783, 931.9325
884.1604, 929.7231
884.6425, 929.5850
885.1246, 932.6550
885.6068, 935.0409
886.0889, 934.2904
886.5710, 932.5625
887.0531, 933.4991
887.5352, 936.6572
888.0173, 945.1302
888.4995, 959.6881
888.9816, 978.4171
889.4637, 1007.440
889.9458, 1035.447
890.4279, 1047.952
890.9100, 1046.591
891.3922, 1053.119
891.8743, 1079.946
892.3564, 1102.951
892.8385, 1110.356
893.3206, 1114.283
893.8027, 1126.823
894.2849, 1145.252
894.7670, 1159.386
895.2491, 1165.077
895.7312, 1165.936
896.2133, 1164.471
896.6954, 1160.466
897.1776, 1154.197
897.6597, 1145.135
898.1418, 1130.811
898.6239, 1110.469
899.1060, 1088.631
899.5881, 1071.025
900.0703, 1055.643
900.5524, 1031.763
901.0345, 998.9739
901.5166, 968.0976
901.9987, 941.8760
902.4808, 916.3727
902.9630, 887.2941
903.4451, 856.8659
903.9272, 834.8396
904.4093, 827.4432
904.8914, 815.2274
905.3735, 792.7958
905.8557, 771.4857
906.3378, 756.3721
906.8199, 745.0400
907.3020, 735.0441
907.7841, 726.4542
908.2662, 715.8193
908.7484, 701.9634
909.2305, 686.2495
909.7126, 665.4417
910.1947, 645.5674
910.6768, 634.2026
911.1589, 631.0309
911.6411, 630.0567
912.1232, 628.6266
912.6053, 626.9957
913.0874, 627.2723
913.5695, 626.6967
914.0516, 619.8642
914.5338, 607.1088
915.0159, 591.0847
915.4980, 572.9559
915.9801, 557.1638
916.4622, 551.2805
916.9443, 553.5968
917.4265, 551.8008
917.9086, 545.5798
918.3907, 543.8051
918.8728, 549.8242
919.3549, 558.1596
919.8370, 563.9802
920.3192, 567.3359
920.8013, 568.4904
921.2834, 567.9705
921.7655, 563.7866
922.2476, 552.1543
922.7297, 541.4839
923.2119, 536.9214
923.6940, 536.2048
924.1761, 536.0609
924.6582, 536.9305
925.1403, 535.9523
925.6224, 530.1431
926.1046, 525.4584
926.5867, 526.7413
927.0688, 528.9769
927.5509, 523.8342
928.0330, 512.9401
928.5151, 509.6915
928.9973, 527.3503
929.4794, 542.3444
929.9615, 533.4404
930.4436, 514.5049
930.9257, 498.9117
931.4078, 490.1279
931.8900, 494.4752
932.3721, 514.5931
932.8542, 534.6603
933.3363, 535.4633
933.8184, 523.0609
934.3005, 510.3860
934.7827, 498.5911
935.2648, 494.8362
935.7469, 501.1000
936.2290, 508.3948
936.7111, 508.4349
937.1932, 503.6033
937.6754, 502.5361
938.1575, 505.7529
938.6396, 508.6740
939.1217, 511.4208
939.6038, 511.7970
940.0859, 507.8422
940.5681, 501.6724
941.0502, 496.6141
941.5323, 491.9013
942.0144, 492.4922
942.4965, 505.7640
942.9786, 513.7615
943.4608, 505.9585
943.9429, 497.1173
944.4250, 502.3398
944.9071, 517.7410
945.3892, 524.6356
945.8713, 516.3904
946.3535, 506.2553
946.8356, 492.9384
947.3177, 483.4435
947.7998, 483.9697
948.2819, 491.1498
948.7640, 500.0105
949.2462, 509.1966
949.7283, 516.4792
950.2104, 520.8085
950.6925, 522.4762
951.1746, 521.2566
951.6567, 517.7692
952.1389, 511.8116
952.6210, 504.3159
953.1031, 498.9384
953.5852, 498.0630
954.0673, 498.7918
954.5494, 495.5678
955.0316, 491.3208
955.5137, 495.1865
955.9958, 506.4283
956.4779, 517.8264
956.9600, 526.7328
957.4421, 530.4739
957.9243, 524.2652
958.4064, 511.5880
958.8885, 510.6132
959.3706, 522.3032
959.8527, 526.7690
960.3348, 519.3098
960.8170, 510.6490
961.2991, 507.1370
961.7812, 508.2092
962.2633, 513.3386
962.7454, 524.5078
963.2275, 530.8175
963.7097, 531.4440
964.1918, 528.5276
964.6739, 519.6637
965.1560, 510.5194
965.6381, 506.7334
966.1202, 508.1511
966.6024, 511.8547
967.0845, 522.4924
967.5666, 528.5535
968.0487, 525.3938
968.5308, 521.0505
969.0129, 521.3741
969.4951, 522.9172
969.9772, 518.0812
970.4593, 504.9457
970.9414, 497.4617
971.4235, 506.0018
971.9056, 514.5435
972.3878, 513.4197
972.8699, 508.8107
973.3520, 505.5528
973.8341, 505.5936
974.3162, 513.1901
974.7983, 533.3862
975.2805, 549.2374
975.7626, 543.0607
976.2447, 529.1045
976.7268, 524.4797
977.2089, 526.1012
977.6910, 522.7747
978.1732, 512.3873
978.6553, 505.4794
979.1374, 512.4465
979.6195, 525.1066
980.1016, 530.9509
980.5837, 531.5140
981.0659, 529.5123
981.5480, 526.1962
982.0301, 526.7952
982.5122, 534.1091
982.9943, 543.8702
983.4764, 550.9383
983.9586, 555.0479
984.4407, 553.3030
984.9228, 545.8068
985.4049, 540.2449
985.8870, 538.6407
986.3691, 538.5273
986.8513, 537.8937
987.3334, 537.2411
987.8155, 537.6700
988.2976, 538.7690
988.7797, 545.3085
989.2618, 561.3973
989.7440, 569.1595
990.2261, 557.6154
990.7082, 540.7832
991.1903, 535.8135
991.6724, 542.4838
992.1545, 551.5212
992.6367, 566.5528
993.1188, 576.3320
993.6009, 576.8123
994.0830, 575.2963
994.5651, 575.4045
995.0472, 576.6499
995.5294, 577.7996
996.0115, 578.3082
996.4936, 581.0685
996.9757, 585.1110
997.4578, 592.8277
997.9399, 609.2688
998.4221, 625.9753
998.9042, 636.2767
999.3863, 640.6136
999.8684, 641.7392
1000.351, 636.6586
1000.833, 636.8447
1001.315, 652.9221
1001.797, 667.1897
1002.279, 664.6746
1002.761, 656.3298
1003.243, 658.1116
1003.725, 671.2535
1004.207, 684.6262
1004.690, 696.3528
1005.172, 702.7646
1005.654, 699.6041
1006.136, 691.7833
1006.618, 681.1714
1007.100, 670.8134
1007.582, 666.5042
1008.064, 669.8817
1008.547, 674.9782
1009.029, 679.9622
1009.511, 682.2224
1009.993, 677.0636
1010.475, 668.2482
1010.957, 660.5374
1011.439, 655.4415
1011.921, 655.3746
1012.403, 661.9970
1012.886, 668.8547
1013.368, 666.7599
1013.850, 661.1759
1014.332, 662.9380
1014.814, 670.0147
1015.296, 674.9545
1015.778, 676.1182
1016.260, 676.5089
1016.742, 678.2557
1017.225, 680.8240
1017.707, 683.6469
1018.189, 686.4716
1018.671, 688.8618
1019.153, 690.5411
1019.635, 688.7940
1020.117, 682.6182
1020.599, 678.5691
1021.082, 685.6038
1021.564, 697.4202
1022.046, 688.7993
1022.528, 661.9136
1023.010, 649.8805
1023.492, 657.4034
1023.974, 667.7487
1024.456, 673.0630
1024.938, 673.4448
1025.421, 667.9837
1025.903, 657.3955
1026.385, 650.3957
1026.867, 647.0837
1027.349, 646.4586
1027.831, 648.3290
1028.313, 653.5496
1028.795, 664.1916
1029.278, 675.6730
1029.760, 676.5046
1030.242, 664.6053
1030.724, 660.0015
1031.206, 664.5852
1031.688, 670.5688
1032.170, 677.6109
1032.652, 681.1887
1033.135, 675.9031
1033.617, 664.6779
1034.099, 658.6863
1034.581, 659.5083
1035.063, 661.0988
1035.545, 663.5823
1036.027, 666.5567
1036.509, 670.0322
1036.991, 673.7843
1037.474, 678.0298
1037.956, 682.5250
1038.438, 684.5793
1038.920, 680.4185
1039.402, 681.3368
1039.884, 693.6017
1040.366, 703.0327
1040.848, 697.1487
1041.330, 689.0150
1041.813, 700.3654
1042.295, 732.8358
1042.777, 749.1272
1043.259, 733.1778
1043.741, 724.7618
1044.223, 734.4704
1044.705, 745.3539
1045.187, 745.2872
1045.670, 741.4281
1046.152, 747.9011
1046.634, 767.4036
1047.116, 780.3619
1047.598, 776.7831
1048.080, 778.0655
1048.562, 796.1929
1049.044, 813.9836
1049.526, 815.1222
1050.009, 807.5549
1050.491, 811.1802
1050.973, 830.9312
1051.455, 848.9652
1051.937, 864.0649
1052.419, 875.0042
1052.901, 874.1335
1053.383, 875.0347
1053.865, 892.3940
1054.348, 921.6037
1054.830, 946.4670
1055.312, 962.8681
1055.794, 978.7429
1056.276, 1002.384
1056.758, 1018.390
1057.240, 1010.620
1057.722, 997.9349
1058.205, 1001.058
1058.687, 1018.397
1059.169, 1035.527
1059.651, 1051.121
1060.133, 1060.698
1060.615, 1060.632
1061.097, 1056.581
1061.579, 1046.836
1062.062, 1038.187
1062.544, 1041.498
1063.026, 1055.064
1063.508, 1062.884
1063.990, 1057.543
1064.472, 1050.263
1064.954, 1042.892
1065.436, 1037.501
1065.918, 1038.218
1066.401, 1040.395
1066.883, 1035.206
1067.365, 1022.958
1067.847, 1016.779
1068.329, 1025.959
1068.811, 1035.127
1069.293, 1034.627
1069.775, 1034.399
1070.257, 1046.013
1070.740, 1061.578
1071.222, 1066.480
1071.704, 1058.917
1072.186, 1051.869
1072.668, 1046.184
1073.150, 1048.074
1073.632, 1066.397
1074.114, 1088.117
1074.597, 1103.095
1075.079, 1112.637
1075.561, 1120.115
1076.043, 1126.385
1076.525, 1133.807
1077.007, 1143.329
1077.489, 1154.326
1077.971, 1166.302
1078.453, 1179.829
1078.936, 1195.730
1079.418, 1213.513
1079.900, 1231.774
1080.382, 1250.204
1080.864, 1271.414
1081.346, 1299.468
1081.828, 1326.905
1082.310, 1350.587
1082.792, 1371.031
1083.275, 1385.686
1083.757, 1398.152
1084.239, 1415.261
1084.721, 1438.657
1085.203, 1465.914
1085.685, 1497.456
1086.167, 1530.838
1086.649, 1567.264
1087.131, 1602.792
1087.614, 1630.863
1088.096, 1655.814
1088.578, 1688.597
1089.060, 1732.392
1089.542, 1777.158
1090.024, 1813.578
1090.506, 1856.702
1090.988, 1921.370
1091.471, 1990.840
1091.953, 2044.857
1092.435, 2091.030
1092.917, 2150.917
1093.399, 2230.971
1093.881, 2309.918
1094.363, 2371.910
1094.845, 2441.010
1095.328, 2533.025
1095.810, 2633.910
1096.292, 2727.147
1096.774, 2818.573
1097.256, 2925.549
1097.738, 3053.824
1098.220, 3182.566
1098.702, 3295.962
1099.184, 3419.182
1099.667, 3566.226
1100.149, 3724.660
1100.631, 3883.438
1101.113, 4043.715
1101.595, 4209.366
1102.077, 4380.726
1102.559, 4561.101
1103.041, 4757.079
1103.523, 4955.719
1104.006, 5157.659
1104.488, 5356.730
1104.970, 5542.695
1105.452, 5722.231
1105.934, 5916.201
1106.416, 6136.241
1106.898, 6326.968
1107.380, 6473.987
1107.863, 6596.905
1108.345, 6693.116
1108.827, 6775.312
1109.309, 6867.292
1109.791, 6948.668
1110.273, 6969.653
1110.755, 6917.420
1111.237, 6848.917
1111.719, 6782.050
1112.202, 6681.419
1112.684, 6529.742
1113.166, 6350.390
1113.648, 6154.118
1114.130, 5942.525
1114.612, 5716.356
1115.094, 5469.963
1115.576, 5236.776
1116.058, 5018.091
1116.541, 4809.308
1117.023, 4615.152
1117.505, 4424.062
1117.987, 4226.980
1118.469, 4028.825
1118.951, 3839.830
1119.433, 3658.950
1119.915, 3493.387
1120.398, 3345.650
1120.880, 3207.017
1121.362, 3076.120
1121.844, 2955.707
1122.326, 2848.035
1122.808, 2752.389
1123.290, 2669.197
1123.772, 2599.394
1124.255, 2526.714
1124.737, 2446.048
1125.219, 2380.295
1125.701, 2336.112
1126.183, 2297.237
1126.665, 2253.627
1127.147, 2212.850
1127.629, 2188.481
1128.111, 2179.106
1128.594, 2155.155
1129.076, 2112.838
1129.558, 2081.554
1130.040, 2066.583
1130.522, 2053.054
1131.004, 2033.046
1131.486, 2014.019
1131.968, 2007.719
1132.450, 2010.197
1132.933, 1998.186
1133.415, 1971.835
1133.897, 1947.505
1134.379, 1926.965
1134.861, 1916.942
1135.343, 1921.096
1135.825, 1926.453
1136.307, 1917.788
1136.790, 1900.878
1137.272, 1892.502
1137.754, 1891.170
1138.236, 1889.528
1138.718, 1886.454
1139.200, 1878.035
1139.682, 1863.193
1140.164, 1848.762
1140.646, 1840.904
1141.129, 1837.110
1141.611, 1833.337
1142.093, 1829.795
1142.575, 1828.203
1143.057, 1827.379
1143.539, 1821.880
1144.021, 1811.071
1144.503, 1801.569
1144.985, 1797.738
1145.468, 1798.328
1145.950, 1799.819
1146.432, 1806.189
1146.914, 1828.421
1147.396, 1858.707
1147.878, 1879.580
1148.360, 1889.178
1148.842, 1897.026
1149.325, 1906.366
1149.807, 1922.386
1150.289, 1949.763
1150.771, 1984.986
1151.253, 2026.813
1151.735, 2073.165
1152.217, 2126.382
1152.699, 2181.577
1153.182, 2221.089
1153.664, 2235.571
1154.146, 2253.988
1154.628, 2290.071
1155.110, 2333.854
1155.592, 2386.616
1156.074, 2438.586
1156.556, 2482.140
1157.038, 2516.481
1157.521, 2539.916
1158.003, 2549.919
1158.485, 2564.759
1158.967, 2599.979
1159.449, 2624.360
1159.931, 2620.264
1160.413, 2611.166
1160.895, 2621.178
1161.377, 2633.778
1161.860, 2614.331
1162.342, 2559.046
1162.824, 2510.017
1163.306, 2470.977
1163.788, 2431.785
1164.270, 2395.799
1164.752, 2351.834
1165.234, 2288.434
1165.717, 2222.290
1166.199, 2178.725
1166.681, 2153.048
1167.163, 2099.366
1167.645, 2008.622
1168.127, 1928.998
1168.609, 1864.768
1169.091, 1808.442
1169.573, 1758.819
1170.056, 1709.288
1170.538, 1652.246
1171.020, 1592.460
1171.502, 1546.220
1171.984, 1512.638
1172.466, 1471.841
1172.948, 1423.935
1173.430, 1385.969
1173.912, 1362.133
1174.395, 1339.370
1174.877, 1308.636
1175.359, 1273.094
1175.841, 1236.814
1176.323, 1199.943
1176.805, 1162.223
1177.287, 1124.230
1177.769, 1086.528
1178.252, 1050.679
1178.734, 1024.357
1179.216, 1011.242
1179.698, 999.3542
1180.180, 974.4048
1180.662, 947.5492
1181.144, 933.6824
1181.626, 924.3691
1182.109, 904.3781
1182.591, 878.8401
1183.073, 865.7897
1183.555, 869.2117
1184.037, 870.0822
1184.519, 857.8691
1185.001, 841.3792
1185.483, 821.8519
1185.965, 803.1047
1186.448, 788.9478
1186.930, 776.9346
1187.412, 762.0106
1187.894, 744.5239
1188.376, 731.9028
1188.858, 731.0268
1189.340, 724.9207
1189.822, 707.5348
1190.304, 689.3613
1190.787, 667.4223
1191.269, 652.8551
1191.751, 662.3275
1192.233, 685.3683
1192.715, 686.4980
1193.197, 658.7039
1193.679, 641.1571
1194.161, 638.1929
1194.644, 631.7710
1195.126, 616.0988
1195.608, 602.7629
1196.090, 599.4249
1196.572, 601.4874
1197.054, 601.2349
1197.536, 599.2442
1198.018, 602.7905
1198.500, 611.1015
1198.983, 603.3450
1199.465, 577.9244
1199.947, 556.4587
1200.429, 547.7339
1200.911, 546.0366
1201.393, 547.1077
1201.875, 548.5347
1202.357, 543.9187
1202.839, 537.2104
1203.322, 539.8177
1203.804, 547.7909
1204.286, 547.7750
1204.768, 537.8072
1205.250, 525.6415
1205.732, 513.9214
1206.214, 508.2303
1206.696, 520.6461
1207.179, 533.0067
1207.661, 524.9745
1208.143, 510.2197
1208.625, 507.9039
1209.107, 515.1360
1209.589, 516.9860
1210.071, 509.0520
1210.553, 503.5868
1211.036, 506.4521
1211.518, 508.9462
1212.000, 512.7623
1212.482, 510.7929
1212.964, 491.3004
1213.446, 467.2754
1213.928, 458.8054
1214.410, 465.2613
1214.892, 473.6389
1215.375, 488.9400
1215.857, 491.2816
1216.339, 474.0646
1216.821, 460.5874
1217.303, 459.4224
1217.785, 463.1579
1218.267, 465.5773
1218.749, 467.2634
1219.231, 469.3663
1219.714, 471.9698
1220.196, 478.7493
1220.678, 488.5143
1221.160, 485.4198
1221.642, 467.7856
1222.124, 451.1301
1222.606, 443.6318
1223.088, 443.2263
1223.571, 451.8659
1224.053, 461.9110
1224.535, 457.7352
1225.017, 448.3834
1225.499, 452.6115
1225.981, 464.8962
1226.463, 444.1704
1226.945, 467.7029
1227.427, 480.4458
1227.910, 482.9767
1228.392, 444.7214
1228.874, 459.1361
1229.356, 452.4432
1229.838, 444.8845
1230.320, 466.7125
1230.802, 434.3896
1231.284, 455.7513
1231.766, 455.6834
1232.249, 465.4209
1232.731, 453.9227
1233.213, 448.9841
1233.695, 465.2907
1234.177, 469.8336
1234.659, 455.8903
1235.141, 466.2538
1235.623, 433.1891
1236.106, 438.2310
1236.588, 459.7170
1237.070, 446.8419
1237.552, 457.5934
1238.034, 459.3465
1238.516, 420.2058
1238.998, 439.3192
1239.480, 448.9219
1239.963, 454.0541
1240.445, 445.4018
1240.927, 432.7183
1241.409, 431.4901
1241.891, 435.6206
1242.373, 432.3484
1242.855, 426.1750
1243.337, 428.1982
1243.819, 437.0591
1244.302, 442.9524
1244.784, 442.5558
1245.266, 442.6706
1245.748, 451.1009
1246.230, 455.8622
1246.712, 446.0113
1247.194, 435.1935
1247.676, 435.2759
1248.158, 439.7921
1248.641, 438.4508
1249.123, 431.7130
1249.605, 428.8735
1250.087, 433.9009
1250.569, 433.9146
1251.051, 425.0800
1251.533, 419.9899
1252.015, 423.9580
1252.498, 425.8728
1252.980, 416.3887
1253.462, 405.8436
1253.944, 413.8001
1254.426, 435.7283
1254.908, 441.9540
1255.390, 434.1313
1255.872, 426.1834
1256.354, 420.0184
1256.837, 418.4107
1257.319, 421.8768
1257.801, 425.9431
1258.283, 427.5100
1258.765, 427.3724
1259.247, 426.7406
1259.729, 424.6642
1260.211, 417.6308
1260.693, 409.8500
1261.176, 408.8622
1261.658, 413.0048
1262.140, 414.0551
1262.622, 409.4186
1263.104, 408.8332
1263.586, 419.5577
1264.068, 428.5990
1264.550, 434.2626
1265.033, 435.0871
1265.515, 426.5691
1265.997, 416.3167
1266.479, 412.7160
1266.961, 414.5057
1267.443, 416.9487
1267.925, 421.2276
1268.407, 417.0794
1268.890, 402.8625
1269.372, 397.2058
1269.854, 404.3657
1270.336, 415.8710
1270.818, 427.2491
1271.300, 436.4532
1271.782, 441.8987
1272.264, 442.3459
1272.746, 431.3426
1273.229, 415.6474
1273.711, 408.4400
1274.193, 408.2256
1274.675, 409.6540
1275.157, 410.8258
1275.639, 409.5695
1276.121, 403.5441
1276.603, 400.0283
1277.085, 404.4345
1277.568, 409.7654
1278.050, 414.0563
1278.532, 416.3181
1279.014, 410.3516
1279.496, 404.5460
1279.978, 419.1151
1280.460, 453.5671
1280.942, 462.2384
1281.425, 434.4632
1281.907, 421.1631
1282.389, 427.9271
1282.871, 438.0780
1283.353, 447.4543
##END=



