##NAMES=Augite
##RRUFFID=R061086
##IDEAL CHEMISTRY=(Ca,Mg,Fe^2+^,Fe^3+^)_2_(Si,Al)_2_O_6_
##LOCALITY=Boreslav, Teplitz, Bohemia, Czech Republic
##OWNER=RRUFF
##SOURCE=Michael Scott
##DESCRIPTION=Black to dark green tabular euhedral crystal
##STATUS=The identification of this mineral has been confirmed by X-ray diffraction and chemical analysis
##URL=rruff.info/R061086
##MEASURED CHEMISTRY=(Ca_0.88_Mg_0.83_Fe_0.13_Al_0.08_Na_0.04_Ti_0.03_Cr_0.01_)_Σ=2_(Si_1.89_Al_0.11_)_Σ=2_O_6_
161.5804, 5644.702
162.0626, 5654.019
162.5447, 5663.747
163.0268, 5675.218
163.5089, 5688.636
163.9910, 5706.734
164.4731, 5732.965
164.9553, 5763.904
165.4374, 5795.536
165.9195, 5830.604
166.4016, 5862.691
166.8837, 5884.928
167.3658, 5895.089
167.8480, 5909.033
168.3301, 5947.525
168.8122, 5996.503
169.2943, 6029.847
169.7764, 6022.971
170.2585, 6000.069
170.7407, 5982.765
171.2228, 5973.011
171.7049, 5970.846
172.1870, 5976.175
172.6691, 5989.056
173.1512, 6009.536
173.6334, 6056.192
174.1155, 6105.922
174.5976, 6121.802
175.0797, 6080.284
175.5618, 6025.894
176.0439, 6006.319
176.5260, 6018.996
177.0082, 6044.254
177.4903, 6083.704
177.9724, 6125.509
178.4545, 6140.694
178.9366, 6099.136
179.4187, 6041.533
179.9009, 6041.802
180.3830, 6100.608
180.8651, 6163.463
181.3472, 6178.295
181.8293, 6154.883
182.3114, 6127.190
182.7936, 6106.626
183.2757, 6091.130
183.7578, 6075.334
184.2399, 6059.437
184.7220, 6041.915
185.2041, 6010.367
185.6863, 5968.903
186.1684, 5950.704
186.6505, 5994.180
187.1326, 6078.538
187.6147, 6118.408
188.0968, 6102.090
188.5790, 6061.043
189.0611, 6041.153
189.5432, 6042.317
190.0253, 6051.608
190.5074, 6070.906
190.9895, 6096.554
191.4717, 6097.486
191.9538, 6063.523
192.4359, 6012.980
192.9180, 5988.037
193.4001, 5990.787
193.8822, 5997.474
194.3644, 5995.116
194.8465, 5983.827
195.3286, 5956.173
195.8107, 5903.145
196.2928, 5836.608
196.7749, 5800.424
197.2570, 5799.325
197.7392, 5806.570
198.2213, 5796.733
198.7034, 5767.826
199.1855, 5745.084
199.6676, 5737.354
200.1497, 5741.000
200.6319, 5728.183
201.1140, 5693.473
201.5961, 5656.260
202.0782, 5639.081
202.5603, 5644.321
203.0424, 5656.519
203.5246, 5676.188
204.0067, 5703.180
204.4888, 5709.000
204.9709, 5686.500
205.4530, 5654.603
205.9352, 5641.010
206.4173, 5650.551
206.8994, 5660.722
207.3815, 5660.756
207.8636, 5648.064
208.3457, 5651.299
208.8279, 5677.704
209.3100, 5712.630
209.7921, 5726.051
210.2742, 5708.409
210.7563, 5695.047
211.2384, 5703.328
211.7206, 5739.179
212.2027, 5771.161
212.6848, 5797.797
213.1669, 5821.237
213.6490, 5846.351
214.1311, 5873.737
214.6133, 5901.702
215.0954, 5929.601
215.5775, 5956.790
216.0596, 5983.997
216.5417, 6011.425
217.0238, 6038.730
217.5059, 6065.623
217.9881, 6092.072
218.4702, 6118.345
218.9523, 6145.208
219.4344, 6173.295
219.9165, 6200.479
220.3986, 6228.370
220.8808, 6255.762
221.3629, 6274.155
221.8450, 6274.829
222.3271, 6278.693
222.8092, 6305.838
223.2913, 6377.528
223.7735, 6422.924
224.2556, 6423.763
224.7377, 6383.358
225.2198, 6359.517
225.7019, 6357.387
226.1840, 6365.131
226.6662, 6375.365
227.1483, 6397.747
227.6304, 6401.622
228.1125, 6374.153
228.5946, 6314.314
229.0767, 6275.343
229.5589, 6269.670
230.0410, 6273.280
230.5231, 6262.047
231.0052, 6232.312
231.4873, 6194.275
231.9694, 6144.639
232.4516, 6080.691
232.9337, 6037.825
233.4158, 6029.858
233.8979, 6031.744
234.3800, 6011.478
234.8621, 5953.574
235.3443, 5900.696
235.8264, 5863.849
236.3085, 5845.205
236.7906, 5830.939
237.2727, 5823.750
237.7548, 5819.092
238.2369, 5810.285
238.7191, 5795.412
239.2012, 5779.100
239.6833, 5759.608
240.1654, 5730.709
240.6475, 5724.719
241.1296, 5757.015
241.6118, 5803.326
242.0939, 5822.241
242.5760, 5801.077
243.0581, 5772.535
243.5402, 5745.050
244.0223, 5715.331
244.5045, 5699.603
244.9866, 5707.500
245.4687, 5724.958
245.9508, 5721.375
246.4329, 5676.429
246.9150, 5642.510
247.3972, 5643.602
247.8793, 5699.700
248.3614, 5737.045
248.8435, 5750.514
249.3256, 5747.047
249.8077, 5741.605
250.2899, 5730.916
250.7720, 5723.248
251.2541, 5724.005
251.7362, 5741.707
252.2183, 5746.029
252.7004, 5732.060
253.1826, 5705.946
253.6647, 5683.385
254.1468, 5664.065
254.6289, 5648.494
255.1110, 5638.314
255.5931, 5639.139
256.0753, 5629.799
256.5574, 5604.612
257.0395, 5570.076
257.5216, 5547.614
258.0037, 5544.297
258.4858, 5540.338
258.9680, 5524.557
259.4501, 5491.063
259.9322, 5461.959
260.4143, 5437.928
260.8964, 5419.014
261.3785, 5406.338
261.8607, 5401.013
262.3428, 5399.886
262.8249, 5402.985
263.3070, 5413.897
263.7891, 5417.237
264.2712, 5409.944
264.7534, 5395.218
265.2355, 5383.519
265.7176, 5375.178
266.1997, 5369.079
266.6818, 5363.881
267.1639, 5358.491
267.6461, 5358.250
268.1282, 5363.515
268.6103, 5374.042
269.0924, 5393.199
269.5745, 5427.801
270.0566, 5453.294
270.5387, 5448.024
271.0208, 5402.272
271.5030, 5373.337
271.9851, 5367.981
272.4672, 5382.249
272.9493, 5408.415
273.4314, 5452.626
273.9135, 5489.033
274.3957, 5492.328
274.8778, 5455.486
275.3599, 5440.670
275.8420, 5459.945
276.3241, 5502.589
276.8062, 5540.052
277.2884, 5575.247
277.7705, 5593.805
278.2526, 5569.097
278.7347, 5495.744
279.2168, 5475.056
279.6989, 5536.494
280.1811, 5644.762
280.6632, 5701.852
281.1453, 5702.006
281.6274, 5684.907
282.1095, 5673.150
282.5916, 5666.641
283.0738, 5666.356
283.5559, 5672.695
284.0380, 5684.838
284.5201, 5701.131
285.0022, 5721.651
285.4843, 5745.174
285.9665, 5772.333
286.4486, 5802.706
286.9307, 5830.689
287.4128, 5853.679
287.8949, 5876.269
288.3770, 5910.063
288.8592, 5955.393
289.3413, 5999.255
289.8234, 6038.123
290.3055, 6070.047
290.7876, 6077.698
291.2697, 6048.076
291.7519, 6011.274
292.2340, 6024.653
292.7161, 6086.402
293.1982, 6161.896
293.6803, 6241.332
294.1624, 6318.528
294.6446, 6368.937
295.1267, 6383.663
295.6088, 6383.000
296.0909, 6391.449
296.5730, 6409.188
297.0551, 6439.271
297.5373, 6495.527
298.0194, 6564.275
298.5015, 6614.178
298.9836, 6636.616
299.4657, 6648.517
299.9478, 6664.490
300.4300, 6685.756
300.9121, 6717.199
301.3942, 6769.536
301.8763, 6831.968
302.3584, 6885.633
302.8405, 6926.843
303.3227, 6964.870
303.8048, 7005.557
304.2869, 7050.062
304.7690, 7104.299
305.2511, 7172.769
305.7332, 7251.406
306.2154, 7339.652
306.6975, 7439.776
307.1796, 7537.359
307.6617, 7611.596
308.1438, 7672.228
308.6259, 7743.981
309.1081, 7850.590
309.5901, 7965.806
310.0723, 8064.516
310.5544, 8138.173
311.0365, 8218.802
311.5186, 8335.591
312.0007, 8473.874
312.4828, 8605.854
312.9650, 8719.630
313.4471, 8824.871
313.9292, 8924.991
314.4113, 9019.601
314.8934, 9114.401
315.3755, 9207.716
315.8577, 9304.598
316.3398, 9409.301
316.8219, 9531.273
317.3040, 9656.018
317.7861, 9779.828
318.2682, 9903.539
318.7504, 10015.35
319.2325, 10104.34
319.7146, 10182.79
320.1967, 10264.42
320.6788, 10377.41
321.1609, 10471.76
321.6431, 10520.41
322.1252, 10517.23
322.6073, 10529.95
323.0894, 10600.24
323.5715, 10679.31
324.0536, 10722.12
324.5358, 10692.69
325.0179, 10656.13
325.5000, 10626.95
325.9821, 10606.35
326.4642, 10571.76
326.9464, 10511.41
327.4285, 10442.58
327.9106, 10378.01
328.3927, 10338.19
328.8748, 10278.61
329.3569, 10191.33
329.8391, 10077.97
330.3212, 9961.335
330.8033, 9829.340
331.2854, 9705.148
331.7675, 9607.354
332.2496, 9558.132
332.7318, 9493.776
333.2139, 9399.479
333.6960, 9284.870
334.1781, 9195.416
334.6602, 9144.861
335.1423, 9098.478
335.6245, 9031.876
336.1066, 8929.999
336.5887, 8853.586
337.0708, 8813.070
337.5529, 8795.353
338.0350, 8761.359
338.5172, 8704.103
338.9993, 8649.315
339.4814, 8613.876
339.9635, 8601.532
340.4456, 8574.762
340.9277, 8527.624
341.4099, 8470.899
341.8920, 8420.104
342.3741, 8374.563
342.8562, 8344.289
343.3383, 8342.527
343.8204, 8366.021
344.3026, 8377.566
344.7847, 8375.733
345.2668, 8363.101
345.7489, 8337.042
346.2310, 8299.017
346.7131, 8268.624
347.1953, 8259.490
347.6774, 8264.790
348.1595, 8261.741
348.6416, 8249.465
349.1237, 8238.356
349.6058, 8241.817
350.0880, 8256.259
350.5700, 8270.487
351.0522, 8285.284
351.5343, 8295.107
352.0164, 8285.916
352.4985, 8258.475
352.9806, 8234.078
353.4627, 8236.843
353.9449, 8252.913
354.4270, 8259.188
354.9091, 8243.767
355.3912, 8219.845
355.8733, 8194.943
356.3554, 8170.077
356.8376, 8151.203
357.3197, 8151.440
357.8018, 8154.881
358.2839, 8144.168
358.7660, 8102.751
359.2481, 8064.839
359.7303, 8055.401
360.2124, 8065.571
360.6945, 8068.592
361.1766, 8048.884
361.6587, 8021.865
362.1408, 7997.031
362.6230, 7975.572
363.1051, 7957.708
363.5872, 7943.542
364.0693, 7933.342
364.5514, 7927.593
365.0335, 7932.048
365.5157, 7936.131
365.9978, 7935.593
366.4799, 7928.626
366.9620, 7921.128
367.4441, 7911.387
367.9262, 7901.544
368.4084, 7894.662
368.8905, 7892.986
369.3726, 7890.926
369.8547, 7889.086
370.3368, 7888.359
370.8189, 7875.972
371.3011, 7836.575
371.7832, 7798.272
372.2653, 7789.980
372.7474, 7834.313
373.2295, 7860.589
373.7116, 7849.258
374.1938, 7807.411
374.6759, 7792.035
375.1580, 7809.644
375.6401, 7841.389
376.1222, 7877.486
376.6043, 7919.415
377.0865, 7952.133
377.5686, 7967.815
378.0507, 7978.318
378.5328, 8015.293
379.0149, 8080.603
379.4970, 8158.336
379.9792, 8242.092
380.4613, 8331.907
380.9434, 8416.569
381.4255, 8495.828
381.9076, 8571.595
382.3897, 8648.800
382.8719, 8726.902
383.3540, 8797.688
383.8361, 8839.970
384.3182, 8875.018
384.8003, 8962.000
385.2824, 9106.940
385.7646, 9252.842
386.2467, 9344.926
386.7288, 9397.730
387.2109, 9444.379
387.6930, 9503.490
388.1751, 9559.593
388.6573, 9597.915
389.1394, 9619.496
389.6215, 9631.203
390.1036, 9650.039
390.5857, 9656.618
391.0678, 9628.723
391.5499, 9540.356
392.0320, 9440.699
392.5142, 9356.324
392.9963, 9282.617
393.4784, 9203.622
393.9605, 9123.979
394.4426, 9030.529
394.9247, 8915.112
395.4069, 8773.146
395.8890, 8615.340
396.3711, 8432.441
396.8532, 8237.445
397.3353, 8055.113
397.8174, 7885.981
398.2996, 7732.237
398.7817, 7605.521
399.2638, 7522.656
399.7459, 7398.432
400.2280, 7180.730
400.7101, 6952.691
401.1923, 6802.582
401.6744, 6783.495
402.1565, 6751.546
402.6386, 6674.103
403.1207, 6555.509
403.6028, 6463.667
404.0850, 6409.007
404.5671, 6362.271
405.0492, 6300.701
405.5313, 6221.747
406.0134, 6140.535
406.4955, 6055.393
406.9777, 5972.936
407.4598, 5914.136
407.9419, 5880.793
408.4240, 5853.412
408.9061, 5820.744
409.3882, 5783.852
409.8704, 5749.905
410.3525, 5719.065
410.8346, 5691.691
411.3167, 5665.446
411.7988, 5641.540
412.2809, 5626.901
412.7631, 5635.661
413.2452, 5651.196
413.7273, 5641.503
414.2094, 5606.410
414.6915, 5572.959
415.1736, 5563.239
415.6558, 5569.662
416.1379, 5582.129
416.6200, 5613.310
417.1021, 5632.243
417.5842, 5608.319
418.0663, 5550.108
418.5485, 5496.236
419.0306, 5463.328
419.5127, 5442.471
419.9948, 5426.365
420.4769, 5411.201
420.9590, 5406.930
421.4412, 5427.476
421.9233, 5459.519
422.4054, 5478.809
422.8875, 5469.373
423.3696, 5456.608
423.8517, 5450.738
424.3339, 5456.654
424.8160, 5449.337
425.2981, 5412.665
425.7802, 5372.930
426.2623, 5356.178
426.7444, 5383.384
427.2266, 5396.674
427.7087, 5378.127
428.1908, 5335.609
428.6729, 5328.534
429.1550, 5374.704
429.6371, 5417.986
430.1193, 5413.098
430.6014, 5350.988
431.0835, 5316.167
431.5656, 5321.667
432.0477, 5347.158
432.5298, 5352.552
433.0119, 5337.445
433.4940, 5324.175
433.9762, 5327.495
434.4583, 5341.716
434.9404, 5345.296
435.4225, 5337.151
435.9046, 5324.835
436.3867, 5314.962
436.8689, 5307.013
437.3510, 5299.643
437.8331, 5289.778
438.3152, 5282.742
438.7973, 5287.290
439.2794, 5301.483
439.7616, 5314.038
440.2437, 5320.115
440.7258, 5320.115
441.2079, 5313.667
441.6900, 5298.670
442.1721, 5281.960
442.6543, 5259.619
443.1364, 5238.346
443.6185, 5230.862
444.1006, 5258.924
444.5827, 5285.894
445.0648, 5296.121
445.5470, 5285.348
446.0291, 5277.145
446.5112, 5277.795
446.9933, 5280.172
447.4754, 5277.879
447.9576, 5267.765
448.4397, 5257.249
448.9218, 5244.280
449.4039, 5230.809
449.8860, 5229.939
450.3681, 5248.092
450.8503, 5266.672
451.3324, 5273.882
451.8145, 5266.753
452.2966, 5264.891
452.7787, 5268.839
453.2608, 5278.255
453.7430, 5296.062
454.2251, 5322.350
454.7072, 5343.550
455.1893, 5353.398
455.6714, 5354.291
456.1535, 5355.020
456.6357, 5355.867
457.1178, 5351.975
457.5999, 5334.627
458.0820, 5309.526
458.5641, 5288.478
459.0462, 5270.941
459.5284, 5263.719
460.0105, 5277.792
460.4926, 5308.604
460.9747, 5341.978
461.4568, 5382.255
461.9389, 5414.504
462.4211, 5423.250
462.9032, 5401.777
463.3853, 5382.452
463.8674, 5380.980
464.3495, 5387.851
464.8316, 5391.897
465.3138, 5395.158
465.7959, 5390.585
466.2780, 5369.335
466.7601, 5333.148
467.2422, 5313.410
467.7243, 5321.671
468.2065, 5336.659
468.6886, 5348.435
469.1707, 5359.051
469.6528, 5362.125
470.1349, 5355.453
470.6170, 5342.942
471.0992, 5331.040
471.5813, 5319.094
472.0634, 5310.572
472.5455, 5308.442
473.0276, 5311.486
473.5097, 5307.316
473.9918, 5294.392
474.4739, 5282.583
474.9561, 5284.586
475.4382, 5297.036
475.9203, 5303.458
476.4024, 5298.864
476.8845, 5289.195
477.3666, 5275.417
477.8488, 5261.404
478.3309, 5262.946
478.8130, 5307.514
479.2951, 5362.653
479.7772, 5392.231
480.2593, 5391.132
480.7415, 5385.488
481.2236, 5390.161
481.7057, 5398.829
482.1878, 5404.038
482.6699, 5400.955
483.1520, 5396.513
483.6342, 5391.430
484.1163, 5386.184
484.5984, 5383.886
485.0805, 5388.440
485.5626, 5393.149
486.0447, 5393.609
486.5269, 5380.987
487.0090, 5385.384
487.4911, 5421.209
487.9732, 5464.088
488.4553, 5473.566
488.9374, 5432.941
489.4196, 5409.945
489.9017, 5429.747
490.3838, 5483.139
490.8659, 5509.385
491.3480, 5504.457
491.8301, 5494.278
492.3123, 5496.057
492.7944, 5509.242
493.2765, 5533.572
493.7586, 5571.869
494.2407, 5612.136
494.7228, 5634.198
495.2050, 5643.652
495.6871, 5658.249
496.1692, 5693.602
496.6513, 5733.951
497.1334, 5761.075
497.6155, 5775.205
498.0977, 5794.512
498.5798, 5834.100
499.0619, 5881.689
499.5440, 5925.653
500.0261, 5966.229
500.5082, 5999.304
500.9904, 6014.963
501.4725, 6022.185
501.9546, 6041.278
502.4367, 6085.757
502.9188, 6131.728
503.4009, 6169.512
503.8831, 6196.073
504.3652, 6239.179
504.8473, 6311.197
505.3294, 6384.364
505.8115, 6434.593
506.2936, 6459.642
506.7758, 6467.885
507.2579, 6453.666
507.7400, 6429.551
508.2221, 6427.211
508.7042, 6447.255
509.1863, 6472.398
509.6685, 6499.730
510.1506, 6525.486
510.6327, 6534.146
511.1148, 6524.709
511.5969, 6514.095
512.0790, 6517.814
512.5612, 6531.400
513.0433, 6547.481
513.5254, 6567.397
514.0075, 6584.339
514.4896, 6596.574
514.9717, 6602.050
515.4539, 6595.417
515.9360, 6556.679
516.4181, 6519.135
516.9002, 6497.193
517.3823, 6491.475
517.8644, 6505.958
518.3466, 6572.540
518.8287, 6642.650
519.3108, 6671.104
519.7929, 6621.379
520.2750, 6588.614
520.7571, 6587.690
521.2393, 6608.837
521.7214, 6621.465
522.2035, 6624.188
522.6856, 6622.688
523.1677, 6616.613
523.6498, 6606.502
524.1320, 6609.207
524.6141, 6627.507
525.0962, 6645.689
525.5783, 6641.294
526.0604, 6621.284
526.5425, 6615.276
527.0247, 6638.839
527.5068, 6666.722
527.9889, 6661.125
528.4710, 6631.931
528.9531, 6611.629
529.4352, 6633.322
529.9174, 6660.745
530.3995, 6661.837
530.8816, 6631.538
531.3637, 6605.427
531.8458, 6603.780
532.3279, 6609.771
532.8101, 6608.829
533.2922, 6595.352
533.7743, 6578.515
534.2564, 6557.581
534.7385, 6534.071
535.2206, 6509.718
535.7027, 6478.977
536.1848, 6456.742
536.6669, 6449.035
537.1490, 6456.271
537.6312, 6468.858
538.1133, 6490.800
538.5954, 6506.254
539.0775, 6491.265
539.5596, 6449.766
540.0417, 6430.536
540.5239, 6448.104
541.0060, 6477.484
541.4881, 6480.759
541.9702, 6462.708
542.4523, 6441.354
542.9344, 6424.782
543.4166, 6410.253
543.8987, 6394.370
544.3808, 6377.150
544.8629, 6362.543
545.3450, 6356.725
545.8271, 6352.210
546.3093, 6342.020
546.7914, 6317.417
547.2735, 6299.978
547.7556, 6297.887
548.2377, 6305.218
548.7198, 6311.391
549.2020, 6317.394
549.6841, 6319.895
550.1662, 6313.939
550.6483, 6301.024
551.1304, 6307.860
551.6125, 6342.856
552.0947, 6375.901
552.5768, 6386.045
553.0589, 6373.328
553.5410, 6351.265
554.0231, 6317.503
554.5052, 6284.978
554.9874, 6277.342
555.4695, 6287.315
555.9516, 6288.259
556.4337, 6259.058
556.9158, 6226.729
557.3979, 6227.834
557.8801, 6255.217
558.3622, 6276.005
558.8443, 6266.770
559.3264, 6248.833
559.8085, 6237.329
560.2906, 6235.552
560.7728, 6233.866
561.2549, 6226.880
561.7370, 6220.357
562.2191, 6220.646
562.7012, 6241.364
563.1833, 6249.050
563.6655, 6233.410
564.1476, 6204.108
564.6297, 6192.220
565.1118, 6203.828
565.5939, 6215.042
566.0760, 6216.553
566.5582, 6208.773
567.0403, 6194.027
567.5224, 6171.336
568.0045, 6150.147
568.4866, 6143.124
568.9688, 6144.814
569.4509, 6138.495
569.9330, 6117.379
570.4151, 6097.713
570.8972, 6099.495
571.3793, 6114.537
571.8615, 6126.274
572.3436, 6133.758
572.8257, 6130.579
573.3078, 6102.139
573.7899, 6051.932
574.2720, 6024.422
574.7542, 6059.538
575.2363, 6095.846
575.7184, 6099.938
576.2005, 6059.136
576.6826, 6017.100
577.1647, 5968.511
577.6469, 5923.827
578.1290, 5899.297
578.6111, 5898.584
579.0932, 5897.856
579.5753, 5893.285
580.0574, 5885.228
580.5396, 5876.732
581.0217, 5867.307
581.5038, 5848.567
581.9859, 5803.150
582.4680, 5749.872
582.9501, 5727.356
583.4323, 5736.333
583.9144, 5740.646
584.3965, 5702.135
584.8786, 5650.994
585.3607, 5621.717
585.8428, 5642.130
586.3250, 5647.037
586.8071, 5598.408
587.2892, 5523.958
587.7713, 5470.583
588.2534, 5459.836
588.7355, 5452.647
589.2177, 5443.857
589.6998, 5433.578
590.1819, 5420.913
590.6640, 5404.760
591.1461, 5389.086
591.6282, 5379.833
592.1104, 5376.723
592.5925, 5352.663
593.0746, 5302.462
593.5567, 5254.023
594.0388, 5246.119
594.5209, 5265.587
595.0031, 5274.578
595.4852, 5257.722
595.9673, 5236.563
596.4494, 5233.617
596.9315, 5242.454
597.4136, 5247.625
597.8958, 5236.234
598.3779, 5225.211
598.8600, 5226.033
599.3421, 5238.954
599.8242, 5243.507
600.3063, 5231.308
600.7885, 5214.252
601.2706, 5197.375
601.7527, 5176.750
602.2348, 5167.627
602.7169, 5173.430
603.1990, 5186.031
603.6812, 5195.066
604.1633, 5200.046
604.6454, 5207.599
605.1275, 5220.423
605.6096, 5234.394
606.0917, 5241.235
606.5739, 5241.840
607.0560, 5241.751
607.5381, 5243.230
608.0202, 5245.946
608.5023, 5252.793
608.9844, 5263.237
609.4666, 5265.306
609.9487, 5236.453
610.4308, 5207.789
610.9129, 5204.933
611.3950, 5249.426
611.8771, 5282.124
612.3593, 5295.538
612.8414, 5294.508
613.3235, 5280.734
613.8056, 5239.350
614.2877, 5221.160
614.7698, 5242.761
615.2520, 5288.229
615.7341, 5305.494
616.2162, 5292.411
616.6983, 5281.987
617.1804, 5295.248
617.6625, 5322.804
618.1446, 5336.494
618.6267, 5336.899
619.1088, 5342.971
619.5909, 5381.060
620.0731, 5427.459
620.5552, 5452.130
621.0373, 5443.994
621.5194, 5435.182
622.0015, 5442.663
622.4836, 5456.292
622.9658, 5463.658
623.4479, 5446.514
623.9300, 5443.891
624.4121, 5473.976
624.8942, 5519.951
625.3763, 5526.936
625.8585, 5473.520
626.3406, 5440.978
626.8227, 5468.309
627.3048, 5545.207
627.7869, 5603.459
628.2690, 5642.788
628.7512, 5667.876
629.2333, 5676.063
629.7154, 5674.239
630.1975, 5673.751
630.6796, 5674.587
631.1617, 5686.369
631.6439, 5729.789
632.1260, 5784.221
632.6081, 5823.330
633.0902, 5828.692
633.5723, 5831.222
634.0544, 5837.060
634.5366, 5846.037
635.0187, 5857.338
635.5008, 5867.933
635.9829, 5885.607
636.4650, 5915.014
636.9471, 5954.175
637.4293, 5980.402
637.9114, 5988.468
638.3935, 6005.029
638.8756, 6050.754
639.3577, 6120.150
639.8398, 6193.031
640.3220, 6268.638
640.8041, 6339.336
641.2862, 6386.545
641.7683, 6428.205
642.2504, 6493.917
642.7325, 6604.679
643.2147, 6712.714
643.6968, 6777.858
644.1789, 6827.529
644.6610, 6908.689
645.1431, 7070.931
645.6252, 7219.833
646.1074, 7330.284
646.5895, 7412.317
647.0716, 7501.838
647.5537, 7590.160
648.0358, 7711.955
648.5179, 7898.832
649.0001, 8142.188
649.4822, 8331.521
649.9643, 8464.063
650.4464, 8597.725
650.9285, 8783.631
651.4106, 9007.391
651.8928, 9233.067
652.3749, 9455.159
652.8570, 9685.384
653.3391, 9935.518
653.8212, 10195.06
654.3033, 10450.28
654.7855, 10688.74
655.2676, 10937.13
655.7497, 11197.49
656.2318, 11471.40
656.7139, 11760.09
657.1960, 12085.08
657.6782, 12390.45
658.1603, 12655.58
658.6424, 12889.72
659.1245, 13144.22
659.6066, 13422.45
660.0887, 13699.19
660.5709, 13959.17
661.0530, 14209.45
661.5351, 14470.77
662.0172, 14743.95
662.4993, 14990.70
662.9814, 15192.45
663.4636, 15345.37
663.9457, 15445.49
664.4278, 15484.80
664.9099, 15490.50
665.3920, 15506.12
665.8741, 15479.37
666.3563, 15339.17
666.8384, 15020.99
667.3205, 14694.05
667.8026, 14378.20
668.2847, 14058.54
668.7668, 13693.27
669.2490, 13275.97
669.7311, 12859.85
670.2132, 12470.89
670.6953, 12097.21
671.1774, 11701.70
671.6595, 11292.73
672.1417, 10906.52
672.6238, 10582.14
673.1059, 10288.15
673.5880, 9992.476
674.0701, 9694.849
674.5522, 9413.257
675.0344, 9147.719
675.5165, 8908.570
675.9986, 8710.332
676.4807, 8579.886
676.9628, 8431.430
677.4449, 8252.943
677.9271, 8068.863
678.4092, 7911.804
678.8913, 7784.172
679.3734, 7655.914
679.8555, 7521.003
680.3376, 7386.521
680.8198, 7268.256
681.3019, 7163.227
681.7840, 7063.542
682.2661, 6965.317
682.7482, 6870.576
683.2303, 6773.319
683.7125, 6678.486
684.1946, 6599.569
684.6767, 6556.209
685.1588, 6518.631
685.6409, 6473.857
686.1230, 6420.778
686.6052, 6366.517
687.0873, 6303.636
687.5694, 6250.109
688.0515, 6221.071
688.5336, 6221.448
689.0157, 6195.340
689.4979, 6137.091
689.9800, 6078.538
690.4621, 6063.753
690.9442, 6075.480
691.4263, 6062.836
691.9084, 6010.149
692.3906, 5953.566
692.8727, 5917.403
693.3548, 5898.657
693.8369, 5892.756
694.3190, 5916.451
694.8011, 5932.620
695.2833, 5928.867
695.7654, 5911.173
696.2475, 5893.800
696.7296, 5874.362
697.2117, 5860.399
697.6938, 5855.737
698.1760, 5857.648
698.6581, 5852.929
699.1402, 5841.281
699.6223, 5830.373
700.1044, 5828.326
700.5865, 5828.761
701.0686, 5814.745
701.5507, 5787.300
702.0328, 5767.529
702.5150, 5779.970
702.9971, 5774.220
703.4792, 5793.937
703.9613, 5800.745
704.4434, 5795.337
704.9255, 5741.129
705.4077, 5749.935
705.8898, 5733.490
706.3719, 5716.008
706.8540, 5733.686
707.3361, 5686.575
707.8182, 5703.696
708.3004, 5695.174
708.7825, 5698.390
709.2646, 5676.195
709.7467, 5661.848
710.2288, 5672.919
710.7109, 5669.917
711.1931, 5644.794
711.6752, 5648.757
712.1573, 5600.758
712.6394, 5598.355
713.1215, 5615.624
713.6036, 5591.782
714.0858, 5596.205
714.5679, 5589.866
715.0500, 5534.598
715.5321, 5564.419
716.0142, 5557.443
716.4963, 5512.683
716.9785, 5539.587
717.4606, 5500.036
717.9427, 5484.206
718.4248, 5456.734
718.9069, 5441.625
719.3890, 5450.843
719.8712, 5462.962
720.3533, 5465.271
720.8354, 5461.019
721.3175, 5452.178
721.7996, 5437.667
722.2817, 5423.975
722.7639, 5409.613
723.2460, 5398.612
723.7281, 5394.333
724.2102, 5398.202
724.6923, 5405.584
725.1744, 5418.627
725.6566, 5430.572
726.1387, 5430.869
726.6208, 5420.556
727.1029, 5410.010
727.5850, 5401.397
728.0671, 5394.285
728.5493, 5391.166
729.0314, 5389.158
729.5135, 5382.082
729.9956, 5354.623
730.4777, 5335.213
730.9598, 5346.571
731.4420, 5377.037
731.9241, 5385.958
732.4062, 5347.615
732.8883, 5324.634
733.3704, 5341.433
733.8525, 5386.284
734.3347, 5388.760
734.8168, 5343.239
735.2989, 5310.783
735.7810, 5338.270
736.2631, 5399.665
736.7452, 5438.604
737.2274, 5455.977
737.7095, 5462.193
738.1916, 5463.711
738.6737, 5456.954
739.1558, 5431.779
739.6379, 5382.355
740.1201, 5356.837
740.6022, 5381.952
741.0843, 5418.335
741.5664, 5443.788
742.0485, 5453.333
742.5306, 5477.703
743.0128, 5524.792
743.4949, 5564.265
743.9770, 5546.127
744.4591, 5490.512
744.9412, 5487.032
745.4233, 5560.974
745.9055, 5636.185
746.3876, 5636.226
746.8697, 5598.747
747.3518, 5574.352
747.8339, 5585.864
748.3160, 5598.140
748.7982, 5610.536
749.2803, 5615.549
749.7624, 5597.500
750.2445, 5534.518
750.7266, 5508.383
751.2087, 5543.077
751.6909, 5609.155
752.1730, 5640.801
752.6551, 5643.161
753.1372, 5659.008
753.6193, 5723.528
754.1014, 5788.725
754.5836, 5789.325
755.0657, 5744.541
755.5478, 5708.260
756.0299, 5705.617
756.5120, 5714.962
756.9941, 5735.168
757.4763, 5762.735
757.9584, 5775.330
758.4405, 5763.083
758.9226, 5754.423
759.4047, 5760.228
759.8868, 5778.625
760.3690, 5802.407
760.8511, 5831.375
761.3332, 5857.254
761.8153, 5871.872
762.2974, 5881.513
762.7795, 5898.606
763.2617, 5922.814
763.7438, 5936.627
764.2259, 5917.274
764.7080, 5896.016
765.1901, 5894.784
765.6722, 5922.486
766.1544, 5936.326
766.6365, 5927.662
767.1186, 5918.317
767.6007, 5923.271
768.0828, 5942.551
768.5649, 5970.457
769.0471, 6008.579
769.5292, 6041.062
770.0113, 6055.090
770.4934, 6052.431
770.9755, 6029.123
771.4576, 5976.656
771.9398, 5941.403
772.4219, 5964.430
772.9040, 6006.537
773.3861, 6029.836
773.8682, 6008.660
774.3503, 6005.995
774.8325, 6031.647
775.3146, 6064.063
775.7967, 6079.182
776.2788, 6076.941
776.7609, 6057.375
777.2430, 6012.903
777.7252, 5975.209
778.2073, 5997.036
778.6894, 6053.143
779.1715, 6096.628
779.6536, 6112.688
780.1357, 6112.926
780.6179, 6096.665
781.1000, 6069.549
781.5821, 6039.456
782.0642, 5986.920
782.5463, 5969.694
783.0284, 6013.361
783.5105, 6079.987
783.9926, 6079.386
784.4747, 6013.867
784.9568, 5970.157
785.4390, 5985.500
785.9211, 6022.978
786.4032, 6030.770
786.8853, 6019.454
787.3674, 6014.823
787.8495, 6027.465
788.3317, 6049.360
788.8138, 6086.724
789.2959, 6131.839
789.7780, 6155.557
790.2601, 6142.159
790.7422, 6137.677
791.2244, 6161.267
791.7065, 6198.964
792.1886, 6192.573
792.6707, 6145.043
793.1528, 6116.503
793.6349, 6159.863
794.1171, 6224.797
794.5992, 6251.282
795.0813, 6246.169
795.5634, 6237.203
796.0455, 6228.797
796.5276, 6226.722
797.0098, 6238.545
797.4919, 6262.105
797.9740, 6272.719
798.4561, 6262.458
798.9382, 6260.542
799.4203, 6285.990
799.9025, 6329.372
800.3846, 6345.384
800.8667, 6335.926
801.3488, 6329.642
801.8309, 6355.428
802.3130, 6386.197
802.7952, 6389.080
803.2773, 6365.884
803.7594, 6353.783
804.2415, 6377.282
804.7236, 6402.635
805.2057, 6411.147
805.6879, 6402.405
806.1700, 6417.013
806.6521, 6461.217
807.1342, 6505.724
807.6163, 6531.961
808.0984, 6543.947
808.5806, 6554.266
809.0627, 6563.003
809.5448, 6569.948
810.0269, 6573.059
810.5090, 6575.519
810.9911, 6578.234
811.4733, 6580.769
811.9554, 6590.301
812.4375, 6607.863
812.9196, 6632.860
813.4017, 6670.652
813.8839, 6722.929
814.3660, 6742.625
814.8481, 6726.038
815.3302, 6706.811
815.8123, 6709.491
816.2944, 6728.525
816.7766, 6759.519
817.2587, 6801.903
817.7408, 6833.021
818.2229, 6828.615
818.7050, 6817.403
819.1871, 6816.158
819.6693, 6825.918
820.1514, 6856.277
820.6335, 6921.417
821.1156, 6984.487
821.5977, 7019.188
822.0798, 7027.277
822.5620, 7039.128
823.0441, 7054.991
823.5262, 7068.428
824.0083, 7065.665
824.4904, 7061.170
824.9725, 7077.691
825.4547, 7119.673
825.9368, 7149.192
826.4189, 7141.456
826.9010, 7124.897
827.3831, 7116.961
827.8652, 7119.422
828.3474, 7120.357
828.8295, 7119.662
829.3116, 7117.977
829.7937, 7118.650
830.2758, 7118.794
830.7579, 7104.201
831.2401, 7073.929
831.7222, 7050.668
832.2043, 7057.640
832.6864, 7074.258
833.1685, 7084.104
833.6506, 7084.190
834.1328, 7083.491
834.6149, 7087.724
835.0970, 7085.771
835.5791, 7066.642
836.0612, 7029.200
836.5433, 7012.985
837.0255, 7020.050
837.5076, 7026.132
837.9897, 6999.373
838.4718, 6964.379
838.9539, 6962.705
839.4360, 6998.744
839.9182, 7032.458
840.4003, 7046.296
840.8824, 7051.512
841.3645, 7051.971
841.8466, 7045.895
842.3287, 7050.539
842.8109, 7068.595
843.2930, 7089.422
843.7751, 7105.354
844.2572, 7117.578
844.7393, 7127.470
845.2214, 7135.512
845.7036, 7154.287
846.1857, 7211.874
846.6678, 7270.486
847.1499, 7293.668
847.6320, 7275.542
848.1141, 7268.928
848.5963, 7290.406
849.0784, 7313.659
849.5605, 7325.050
850.0426, 7325.483
850.5247, 7335.300
851.0068, 7354.851
851.4890, 7381.175
851.9711, 7422.447
852.4532, 7463.898
852.9353, 7481.055
853.4174, 7475.195
853.8995, 7470.651
854.3817, 7474.852
854.8638, 7485.875
855.3459, 7500.229
855.8280, 7518.117
856.3101, 7561.202
856.7922, 7644.128
857.2744, 7701.871
857.7565, 7685.413
858.2386, 7622.293
858.7207, 7594.281
859.2028, 7597.838
859.6849, 7610.484
860.1671, 7634.339
860.6492, 7649.475
861.1313, 7636.694
861.6134, 7599.345
862.0955, 7570.521
862.5776, 7559.507
863.0598, 7545.950
863.5419, 7522.756
864.0240, 7492.705
864.5061, 7466.857
864.9882, 7445.049
865.4703, 7421.074
865.9524, 7391.307
866.4345, 7358.524
866.9166, 7317.539
867.3987, 7275.459
867.8809, 7252.568
868.3630, 7277.952
868.8451, 7298.356
869.3272, 7301.926
869.8093, 7290.689
870.2914, 7265.654
870.7736, 7223.166
871.2557, 7196.733
871.7378, 7204.155
872.2199, 7221.242
872.7020, 7207.012
873.1841, 7170.871
873.6663, 7136.968
874.1484, 7113.970
874.6305, 7096.172
875.1126, 7078.649
875.5947, 7066.012
876.0768, 7068.089
876.5590, 7095.415
877.0411, 7107.346
877.5232, 7094.145
878.0053, 7070.000
878.4874, 7056.310
878.9695, 7050.863
879.4517, 7046.247
879.9338, 7040.086
880.4159, 7035.121
880.8980, 7032.860
881.3801, 7032.997
881.8622, 7035.091
882.3444, 7037.004
882.8265, 7044.978
883.3086, 7063.129
883.7907, 7081.199
884.2728, 7087.403
884.7549, 7082.548
885.2371, 7072.016
885.7192, 7055.491
886.2013, 7041.393
886.6834, 7043.306
887.1655, 7048.776
887.6476, 7041.509
888.1298, 7011.177
888.6119, 6996.789
889.0940, 7019.087
889.5761, 7042.080
890.0582, 7039.788
890.5403, 7010.137
891.0225, 6990.694
891.5046, 6981.801
891.9867, 6978.922
892.4688, 6981.857
892.9509, 6986.732
893.4330, 6988.661
893.9152, 6987.289
894.3973, 6985.318
894.8794, 6982.219
895.3615, 6980.179
895.8436, 6980.114
896.3257, 6981.895
896.8079, 6984.604
897.2900, 6988.301
897.7721, 6991.182
898.2542, 6989.879
898.7363, 6988.103
899.2184, 6997.218
899.7006, 7013.194
900.1827, 7018.963
900.6648, 6988.592
901.1469, 6965.329
901.6290, 6974.037
902.1111, 7004.399
902.5933, 7023.922
903.0754, 7030.633
903.5575, 7035.933
904.0396, 7045.464
904.5217, 7052.375
905.0038, 7036.114
905.4860, 7006.413
905.9681, 6989.721
906.4502, 7007.215
906.9323, 7026.405
907.4144, 7024.341
907.8965, 7017.401
908.3787, 7034.475
908.8608, 7093.609
909.3429, 7126.908
909.8250, 7121.447
910.3071, 7102.627
910.7892, 7108.036
911.2714, 7128.799
911.7535, 7136.142
912.2356, 7120.512
912.7177, 7109.157
913.1998, 7126.364
913.6819, 7151.828
914.1641, 7166.099
914.6462, 7162.532
915.1283, 7163.622
915.6104, 7171.063
916.0925, 7179.617
916.5746, 7185.663
917.0568, 7189.575
917.5389, 7191.456
918.0210, 7191.677
918.5031, 7193.763
918.9852, 7199.944
919.4673, 7209.385
919.9495, 7226.299
920.4316, 7250.703
920.9137, 7256.241
921.3958, 7232.498
921.8779, 7209.685
922.3600, 7199.466
922.8422, 7199.335
923.3243, 7200.515
923.8064, 7203.614
924.2885, 7213.569
924.7706, 7241.671
925.2527, 7132.252
925.7349, 7184.257
926.2170, 7214.564
926.6991, 7224.167
927.1812, 7160.785
927.6633, 7184.206
928.1454, 7168.291
928.6276, 7147.644
929.1097, 7173.995
929.5918, 7104.514
930.0739, 7123.571
930.5560, 7217.001
931.0381, 7214.697
931.5203, 7211.800
932.0024, 7206.741
932.4845, 7197.428
932.9666, 7180.889
933.4487, 7162.912
933.9308, 7134.969
934.4130, 7120.511
934.8951, 7157.707
935.3772, 7231.282
935.8593, 7250.597
936.3414, 7210.149
936.8235, 7165.270
937.3057, 7157.450
937.7878, 7161.567
938.2699, 7155.172
938.7520, 7135.653
939.2341, 7138.343
939.7162, 7181.372
940.1984, 7211.345
940.6805, 7200.568
941.1626, 7161.150
941.6447, 7129.246
942.1268, 7106.706
942.6089, 7104.010
943.0911, 7147.661
943.5732, 7192.420
944.0553, 7205.336
944.5374, 7197.615
945.0195, 7200.651
945.5016, 7231.241
945.9838, 7237.607
946.4659, 7203.437
946.9480, 7156.977
947.4301, 7143.194
947.9122, 7156.077
948.3943, 7175.862
948.8764, 7201.613
949.3585, 7220.305
949.8406, 7214.239
950.3228, 7202.717
950.8049, 7207.134
951.2870, 7238.510
951.7691, 7252.511
952.2512, 7244.361
952.7333, 7231.760
953.2155, 7222.288
953.6976, 7220.262
954.1797, 7250.899
954.6618, 7310.325
955.1439, 7347.921
955.6260, 7305.470
956.1082, 7257.886
956.5903, 7251.168
957.0724, 7280.059
957.5545, 7305.268
958.0366, 7329.179
958.5187, 7339.635
959.0009, 7327.978
959.4830, 7306.915
959.9651, 7300.107
960.4472, 7304.346
960.9293, 7310.482
961.4114, 7310.149
961.8936, 7317.919
962.3757, 7345.384
962.8578, 7381.041
963.3399, 7410.359
963.8220, 7431.735
964.3041, 7454.497
964.7863, 7481.059
965.2684, 7501.485
965.7505, 7500.864
966.2326, 7488.736
966.7147, 7479.105
967.1968, 7473.672
967.6790, 7472.466
968.1611, 7473.313
968.6432, 7481.296
969.1253, 7504.187
969.6074, 7539.973
970.0895, 7543.930
970.5717, 7514.357
971.0538, 7499.626
971.5359, 7533.908
972.0180, 7591.410
972.5001, 7659.202
972.9822, 7725.831
973.4644, 7760.266
973.9465, 7711.290
974.4286, 7685.328
974.9107, 7709.059
975.3928, 7755.188
975.8749, 7777.353
976.3571, 7777.623
976.8392, 7781.482
977.3213, 7793.392
977.8034, 7810.267
978.2855, 7828.800
978.7676, 7851.118
979.2498, 7881.007
979.7319, 7924.016
980.2140, 7955.204
980.6961, 7969.706
981.1782, 7980.145
981.6603, 7988.354
982.1425, 7998.560
982.6246, 8040.769
983.1067, 8109.835
983.5888, 8169.716
984.0709, 8185.305
984.5530, 8198.968
985.0352, 8237.707
985.5173, 8296.165
985.9994, 8349.786
986.4815, 8396.872
986.9636, 8442.482
987.4457, 8482.849
987.9279, 8533.780
988.4100, 8635.079
988.8921, 8763.728
989.3742, 8868.293
989.8563, 8932.761
990.3384, 8982.331
990.8206, 8988.387
991.3027, 9016.004
991.7848, 9123.044
992.2669, 9323.866
992.7490, 9472.910
993.2311, 9565.039
993.7133, 9653.224
994.1954, 9776.042
994.6775, 9915.189
995.1596, 10048.53
995.6417, 10177.21
996.1238, 10307.21
996.6060, 10440.83
997.0881, 10578.09
997.5702, 10717.66
998.0523, 10860.35
998.5344, 11011.45
999.0165, 11169.12
999.4987, 11326.26
999.9808, 11478.50
1000.463, 11638.60
1000.945, 11820.71
1001.427, 12016.34
1001.909, 12228.35
1002.391, 12492.47
1002.873, 12662.38
1003.356, 12703.64
1003.838, 12737.03
1004.320, 12861.80
1004.802, 13048.75
1005.284, 13217.13
1005.766, 13364.60
1006.248, 13485.07
1006.730, 13565.48
1007.213, 13629.65
1007.695, 13704.26
1008.177, 13769.15
1008.659, 13766.58
1009.141, 13690.84
1009.623, 13580.14
1010.105, 13438.72
1010.587, 13277.98
1011.069, 13117.45
1011.552, 12948.36
1012.034, 12757.28
1012.516, 12545.46
1012.998, 12297.60
1013.480, 11995.48
1013.962, 11677.63
1014.444, 11356.55
1014.926, 11036.04
1015.409, 10748.85
1015.891, 10493.00
1016.373, 10251.54
1016.855, 10005.27
1017.337, 9774.034
1017.819, 9579.417
1018.301, 9414.779
1018.783, 9251.981
1019.265, 9076.306
1019.748, 8936.728
1020.230, 8848.719
1020.712, 8785.970
1021.194, 8712.024
1021.676, 8633.245
1022.158, 8563.415
1022.640, 8504.980
1023.122, 8455.808
1023.604, 8427.982
1024.087, 8396.707
1024.569, 8341.637
1025.051, 8263.870
1025.533, 8216.011
1026.015, 8198.839
1026.497, 8177.609
1026.979, 8114.207
1027.461, 8051.556
1027.943, 8042.232
1028.426, 8067.902
1028.908, 8083.095
1029.390, 8073.831
1029.872, 8060.725
1030.354, 8045.241
1030.836, 8027.601
1031.318, 8003.147
1031.800, 7976.627
1032.283, 7966.028
1032.765, 7974.101
1033.247, 7986.774
1033.729, 7999.129
1034.211, 8009.771
1034.693, 8017.003
1035.175, 8021.145
1035.657, 8029.133
1036.140, 8042.999
1036.622, 8039.739
1037.104, 7997.907
1037.586, 7949.804
1038.068, 7946.265
1038.550, 7967.655
1039.032, 7977.931
1039.514, 7957.158
1039.996, 7938.644
1040.479, 7925.657
1040.961, 7914.055
1041.443, 7900.194
1041.925, 7884.102
1042.407, 7864.415
1042.889, 7841.188
1043.371, 7821.108
1043.853, 7804.950
1044.335, 7796.581
1044.818, 7807.068
1045.300, 7828.701
1045.782, 7828.946
1046.264, 7805.276
1046.746, 7773.067
1047.228, 7734.917
1047.710, 7692.220
1048.192, 7640.506
1048.675, 7587.494
1049.157, 7545.021
1049.639, 7515.183
1050.121, 7497.090
1050.603, 7498.407
1051.085, 7498.155
1051.567, 7483.031
1052.049, 7454.825
1052.531, 7420.235
1053.014, 7381.030
1053.496, 7348.743
1053.978, 7339.564
1054.460, 7329.461
1054.942, 7300.514
1055.424, 7262.899
1055.906, 7239.800
1056.388, 7235.957
1056.870, 7224.036
1057.353, 7200.297
1057.835, 7169.910
1058.317, 7133.551
1058.799, 7096.846
1059.281, 7063.328
1059.763, 7032.666
1060.245, 7024.505
1060.727, 7058.829
1061.210, 7089.295
1061.692, 7101.226
1062.174, 7096.600
1062.656, 7076.391
1063.138, 7044.265
1063.620, 7014.425
1064.102, 6992.323
1064.584, 6973.449
1065.067, 6962.097
1065.549, 6948.015
1066.031, 6918.030
1066.513, 6865.265
1066.995, 6835.938
1067.477, 6830.545
1067.959, 6844.642
1068.441, 6900.572
1068.923, 6954.364
1069.406, 6950.372
1069.888, 6900.712
1070.370, 6863.470
1070.852, 6847.852
1071.334, 6845.335
1071.816, 6859.911
1072.298, 6876.850
1072.780, 6873.133
1073.262, 6854.782
1073.745, 6833.941
1074.227, 6811.728
1074.709, 6798.864
1075.191, 6810.477
1075.673, 6823.569
1076.155, 6828.438
1076.637, 6824.891
1077.119, 6803.765
1077.601, 6766.966
1078.084, 6746.971
1078.566, 6765.423
1079.048, 6794.088
1079.530, 6820.416
1080.012, 6837.364
1080.494, 6831.676
1080.976, 6789.639
1081.458, 6761.472
1081.941, 6747.647
1082.423, 6746.561
1082.905, 6773.230
1083.387, 6803.274
1083.869, 6788.102
1084.351, 6736.092
1084.833, 6694.143
1085.315, 6680.687
1085.797, 6677.166
1086.280, 6682.971
1086.762, 6693.544
1087.244, 6704.104
1087.726, 6713.037
1088.208, 6708.849
1088.690, 6687.479
1089.172, 6675.653
1089.654, 6706.794
1090.136, 6737.460
1090.619, 6739.022
1091.101, 6714.216
1091.583, 6675.558
1092.065, 6621.539
1092.547, 6602.398
1093.029, 6659.503
1093.511, 6720.212
1093.993, 6687.403
1094.476, 6618.493
1094.958, 6597.245
1095.440, 6668.565
1095.922, 6704.102
1096.404, 6698.559
1096.886, 6673.781
1097.368, 6632.582
1097.850, 6589.912
1098.333, 6578.027
1098.815, 6591.377
1099.297, 6607.102
1099.779, 6627.298
1100.261, 6632.934
1100.743, 6614.793
1101.225, 6588.170
1101.707, 6571.501
1102.189, 6564.695
1102.672, 6571.205
1103.154, 6591.652
1103.636, 6611.152
1104.118, 6628.306
1104.600, 6634.416
1105.082, 6618.492
1105.564, 6587.869
1106.046, 6570.555
1106.528, 6566.956
1107.011, 6558.615
1107.493, 6535.113
1107.975, 6520.597
1108.457, 6553.525
1108.939, 6600.156
1109.421, 6622.850
1109.903, 6613.228
1110.385, 6593.243
1110.868, 6558.419
1111.350, 6530.143
1111.832, 6521.463
1112.314, 6525.083
1112.796, 6535.380
1113.278, 6546.880
1113.760, 6547.161
1114.242, 6515.635
1114.724, 6497.399
1115.207, 6499.771
1115.689, 6509.013
1116.171, 6510.349
1116.653, 6507.620
1117.135, 6518.889
1117.617, 6542.056
1118.099, 6555.373
1118.581, 6536.512
1119.063, 6519.391
1119.546, 6522.861
1120.028, 6531.630
1120.510, 6512.746
1120.992, 6469.472
1121.474, 6441.791
1121.956, 6437.275
1122.438, 6435.022
1122.920, 6419.427
1123.403, 6399.905
1123.885, 6382.794
1124.367, 6368.237
1124.849, 6352.049
1125.331, 6332.010
1125.813, 6339.687
1126.295, 6397.643
1126.777, 6457.202
1127.260, 6459.292
1127.742, 6431.845
1128.224, 6406.749
1128.706, 6386.652
1129.188, 6382.374
1129.670, 6402.513
1130.152, 6408.691
1130.634, 6362.241
1131.116, 6301.468
1131.599, 6296.362
1132.081, 6331.107
1132.563, 6367.951
1133.045, 6413.299
1133.527, 6429.254
1134.009, 6401.199
1134.491, 6365.678
1134.973, 6362.801
1135.455, 6378.633
1135.938, 6363.732
1136.420, 6322.296
1136.902, 6292.121
1137.384, 6299.802
1137.866, 6311.936
1138.348, 6320.068
1138.830, 6325.513
1139.312, 6329.719
1139.795, 6333.033
1140.277, 6342.805
1140.759, 6360.703
1141.241, 6360.310
1141.723, 6298.598
1142.205, 6238.558
1142.687, 6216.643
1143.169, 6225.989
1143.651, 6253.578
1144.134, 6299.219
1144.616, 6316.540
1145.098, 6289.481
1145.580, 6248.170
1146.062, 6199.338
1146.544, 6162.459
1147.026, 6162.438
1147.508, 6200.208
1147.990, 6228.007
1148.473, 6245.538
1148.955, 6257.557
1149.437, 6267.147
1149.919, 6270.293
1150.401, 6252.268
1150.883, 6228.471
1151.365, 6225.145
1151.847, 6265.585
1152.330, 6264.904
1152.812, 6211.411
1153.294, 6158.441
1153.776, 6141.123
1154.258, 6146.994
1154.740, 6162.989
1155.222, 6185.465
1155.704, 6205.664
1156.186, 6225.246
1156.669, 6234.301
1157.151, 6228.825
1157.633, 6221.720
1158.115, 6234.462
1158.597, 6251.897
1159.079, 6227.062
1159.561, 6168.715
1160.043, 6139.961
1160.526, 6201.855
1161.008, 6245.718
1161.490, 6246.344
1161.972, 6227.173
1162.454, 6220.159
1162.936, 6221.813
1163.418, 6220.319
1163.900, 6214.278
1164.382, 6214.168
1164.865, 6234.701
1165.347, 6250.463
1165.829, 6253.147
1166.311, 6245.036
1166.793, 6224.861
1167.275, 6197.610
1167.757, 6185.771
1168.239, 6194.578
1168.721, 6216.938
1169.204, 6274.410
1169.686, 6317.876
1170.168, 6312.401
1170.650, 6270.872
1171.132, 6263.158
1171.614, 6284.653
1172.096, 6297.758
1172.578, 6287.192
1173.061, 6270.806
1173.543, 6252.463
1174.025, 6239.197
1174.507, 6237.339
1174.989, 6246.623
1175.471, 6255.266
1175.953, 6263.090
1176.435, 6268.481
1176.917, 6267.421
1177.400, 6268.105
1177.882, 6286.868
1178.364, 6304.917
1178.846, 6294.826
1179.328, 6247.959
1179.810, 6236.036
1180.292, 6261.006
1180.774, 6271.773
1181.256, 6204.678
1181.739, 6137.900
1182.221, 6148.391
1182.703, 6202.943
1183.185, 6232.089
1183.667, 6226.181
1184.149, 6232.563
1184.631, 6255.623
1185.113, 6273.318
1185.596, 6252.695
1186.078, 6230.036
1186.560, 6245.611
1187.042, 6288.708
1187.524, 6317.496
1188.006, 6328.853
1188.488, 6331.689
1188.970, 6326.854
1189.453, 6314.628
1189.935, 6279.574
1190.417, 6248.712
1190.899, 6260.614
1191.381, 6310.008
1191.863, 6334.395
1192.345, 6323.681
1192.827, 6316.458
1193.309, 6321.017
1193.792, 6329.179
1194.274, 6332.512
1194.756, 6333.104
1195.238, 6334.439
1195.720, 6336.731
1196.202, 6330.952
1196.684, 6311.542
1197.166, 6302.383
1197.648, 6312.816
1198.131, 6329.442
1198.613, 6336.191
1199.095, 6336.484
1199.577, 6334.566
1200.059, 6330.906
1200.541, 6327.445
1201.023, 6328.648
1201.505, 6312.659
1201.988, 6258.082
1202.470, 6205.496
1202.952, 6233.534
1203.434, 6299.640
1203.916, 6338.514
1204.398, 6329.295
1204.880, 6314.878
1205.362, 6293.849
1205.844, 6276.016
1206.327, 6262.457
1206.809, 6259.723
1207.291, 6285.260
1207.773, 6327.944
1208.255, 6370.234
1208.737, 6423.586
1209.219, 6432.485
1209.701, 6382.971
1210.183, 6330.819
1210.666, 6300.193
1211.148, 6297.610
1211.630, 6364.177
1212.112, 6461.227
1212.594, 6508.127
1213.076, 6437.023
1213.558, 6394.477
1214.040, 6387.177
1214.523, 6386.790
1215.005, 6368.447
1215.487, 6345.307
1215.969, 6342.982
1216.451, 6353.286
1216.933, 6353.119
1217.415, 6312.000
1217.897, 6315.870
1218.380, 6382.155
1218.862, 6446.830
1219.344, 6444.578
1219.826, 6412.553
1220.308, 6402.071
1220.790, 6410.824
1221.272, 6425.873
1221.754, 6454.007
1222.236, 6463.906
1222.719, 6447.387
1223.201, 6431.631
1223.683, 6456.423
1224.165, 6489.788
1224.647, 6480.365
1225.129, 6436.818
1225.611, 6413.243
1226.093, 6426.547
1226.575, 6427.683
1227.058, 6406.590
1227.540, 6388.903
1228.022, 6408.927
1228.504, 6443.861
1228.986, 6471.066
1229.468, 6487.170
1229.950, 6482.130
1230.432, 6443.306
1230.915, 6430.537
1231.397, 6458.473
1231.879, 6492.905
1232.361, 6498.903
1232.843, 6488.306
1233.325, 6466.605
1233.807, 6438.278
1234.289, 6434.842
1234.771, 6465.449
1235.254, 6481.909
1235.736, 6472.626
1236.218, 6455.553
1236.700, 6442.122
1237.182, 6437.520
1237.664, 6456.348
1238.146, 6494.873
1238.628, 6499.928
1239.110, 6464.611
1239.593, 6440.976
1240.075, 6441.773
1240.557, 6455.836
1241.039, 6483.591
1241.521, 6510.028
1242.003, 6521.430
1242.485, 6517.556
1242.967, 6500.197
1243.449, 6467.759
1243.932, 6448.701
1244.414, 6452.475
1244.896, 6465.940
1245.378, 6491.371
1245.860, 6510.126
1246.342, 6493.616
1246.824, 6452.153
1247.306, 6457.619
1247.789, 6509.603
1248.271, 6554.097
1248.753, 6575.591
1249.235, 6588.899
1249.717, 6609.627
1250.199, 6622.205
1250.681, 6612.204
1251.163, 6583.800
1251.646, 6557.798
1252.128, 6535.846
1252.610, 6537.704
1253.092, 6579.525
1253.574, 6610.672
1254.056, 6583.938
1254.538, 6551.615
1255.020, 6546.952
1255.502, 6564.943
1255.984, 6589.938
1256.467, 6617.641
1256.949, 6624.065
1257.431, 6591.313
1257.913, 6569.891
1258.395, 6606.189
1258.877, 6632.922
1259.359, 6603.841
1259.841, 6545.966
1260.324, 6571.644
1260.806, 6650.902
1261.288, 6687.374
1261.770, 6635.759
1262.252, 6588.682
1262.734, 6570.540
1263.216, 6560.477
1263.698, 6547.009
1264.181, 6535.839
1264.663, 6547.972
1265.145, 6573.106
1265.627, 6588.784
1266.109, 6590.643
1266.591, 6571.062
1267.073, 6511.471
1267.555, 6479.125
1268.037, 6525.108
1268.520, 6600.313
1269.002, 6614.737
1269.484, 6593.129
1269.966, 6580.250
1270.448, 6590.748
1270.930, 6594.425
1271.412, 6589.403
1271.894, 6583.647
1272.376, 6578.696
1272.859, 6578.693
1273.341, 6594.440
1273.823, 6616.082
1274.305, 6629.870
1274.787, 6634.340
1275.269, 6629.234
##END=



