##NAMES=Augite
##RRUFFID=R061108
##IDEAL CHEMISTRY=(Ca,Mg,Fe^2+^,Fe^3+^)_2_(Si,Al)_2_O_6_
##LOCALITY=Monti Rossi, near Mt. Etna, Sicily, Italy
##OWNER=RRUFF
##SOURCE=Michael Scott
##DESCRIPTION=Euhedral, short prismatic, black crystals in vesicular basalt.
##STATUS=The identification of this mineral is confirmed by single-crystal X-ray diffraction and chemical analysis.
##URL=rruff.info/R061108
##MEASURED CHEMISTRY=(Ca_0.86_Mg_0.74_Fe^2+^_0.18_Fe^3+^_0.08_Al_0.05_Ti_0.04_Na_0.04_Mn_0.01_)_Σ=2_(Si_1.83_Al_0.17_)_Σ=2_O_6_
113.3688, 484.6433
113.8509, 490.2798
114.3330, 503.1681
114.8152, 522.4303
115.2973, 552.2298
115.7794, 594.9366
116.2615, 650.9363
116.7436, 715.6596
117.2257, 793.1240
117.7079, 876.5681
118.1900, 955.5255
118.6721, 1026.342
119.1542, 1090.534
119.6363, 1147.142
120.1184, 1190.046
120.6006, 1238.808
121.0827, 1311.499
121.5648, 1402.158
122.0469, 1490.845
122.5290, 1562.496
123.0111, 1626.190
123.4933, 1693.094
123.9754, 1764.944
124.4575, 1841.294
124.9396, 1899.270
125.4217, 1945.557
125.9038, 1991.533
126.3860, 2025.374
126.8681, 2052.624
127.3502, 2086.189
127.8323, 2134.471
128.3144, 2191.214
128.7965, 2247.034
129.2787, 2303.074
129.7608, 2350.173
130.2429, 2372.063
130.7250, 2371.318
131.2071, 2370.715
131.6892, 2387.130
132.1714, 2415.943
132.6535, 2429.518
133.1356, 2423.919
133.6177, 2404.881
134.0998, 2381.992
134.5819, 2354.589
135.0640, 2329.423
135.5462, 2312.324
136.0283, 2303.659
136.5104, 2294.969
136.9925, 2284.612
137.4746, 2273.216
137.9567, 2267.599
138.4389, 2273.195
138.9210, 2272.876
139.4031, 2245.256
139.8852, 2180.885
140.3673, 2124.133
140.8494, 2086.701
141.3316, 2070.266
141.8137, 2053.919
142.2958, 2037.513
142.7779, 2021.231
143.2600, 2002.953
143.7421, 1973.761
144.2243, 1957.472
144.7064, 1966.343
145.1885, 2023.698
145.6706, 2053.759
146.1527, 2044.996
146.6348, 2009.375
147.1170, 1983.679
147.5991, 1970.973
148.0812, 1965.080
148.5633, 1963.233
149.0454, 1972.635
149.5275, 1976.750
150.0097, 1974.414
150.4918, 1965.701
150.9739, 1952.517
151.4560, 1924.861
151.9381, 1898.277
152.4202, 1883.181
152.9024, 1894.014
153.3845, 1902.522
153.8666, 1903.553
154.3487, 1896.291
154.8308, 1886.578
155.3129, 1873.488
155.7950, 1858.981
156.2772, 1845.437
156.7593, 1822.853
157.2414, 1810.140
157.7235, 1817.414
158.2056, 1852.783
158.6877, 1884.601
159.1699, 1906.217
159.6520, 1918.603
160.1341, 1923.434
160.6162, 1910.934
161.0983, 1897.953
161.5804, 1894.234
162.0626, 1904.116
162.5447, 1919.164
163.0268, 1941.729
163.5089, 1968.252
163.9910, 1986.823
164.4731, 1985.306
164.9553, 1976.647
165.4374, 1971.692
165.9195, 1972.886
166.4016, 1979.124
166.8837, 1993.793
167.3658, 2015.557
167.8480, 2032.576
168.3301, 2031.040
168.8122, 2022.209
169.2943, 2020.457
169.7764, 2044.521
170.2585, 2069.719
170.7407, 2071.127
171.2228, 2047.349
171.7049, 2023.304
172.1870, 2017.395
172.6691, 2024.955
173.1512, 2036.591
173.6334, 2054.405
174.1155, 2071.433
174.5976, 2076.713
175.0797, 2067.303
175.5618, 2056.872
176.0439, 2058.301
176.5260, 2069.742
177.0082, 2084.825
177.4903, 2107.603
177.9724, 2130.598
178.4545, 2136.836
178.9366, 2118.624
179.4187, 2095.900
179.9009, 2098.076
180.3830, 2121.866
180.8651, 2145.318
181.3472, 2152.593
181.8293, 2147.933
182.3114, 2142.487
182.7936, 2137.383
183.2757, 2133.768
183.7578, 2135.621
184.2399, 2142.802
184.7220, 2147.846
185.2041, 2143.387
185.6863, 2130.845
186.1684, 2116.489
186.6505, 2098.803
187.1326, 2081.621
187.6147, 2076.831
188.0968, 2085.569
188.5790, 2096.535
189.0611, 2096.588
189.5432, 2086.776
190.0253, 2079.093
190.5074, 2079.781
190.9895, 2086.492
191.4717, 2087.885
191.9538, 2083.823
192.4359, 2075.131
192.9180, 2059.893
193.4001, 2037.771
193.8822, 2020.142
194.3644, 2014.873
194.8465, 2020.947
195.3286, 2020.883
195.8107, 2014.018
196.2928, 2001.916
196.7749, 1987.343
197.2570, 1970.532
197.7392, 1949.603
198.2213, 1917.982
198.7034, 1874.455
199.1855, 1852.184
199.6676, 1859.203
200.1497, 1880.903
200.6319, 1881.814
201.1140, 1857.985
201.5961, 1831.784
202.0782, 1818.696
202.5603, 1820.962
203.0424, 1818.128
203.5246, 1807.459
204.0067, 1790.823
204.4888, 1771.855
204.9709, 1747.217
205.4530, 1729.696
205.9352, 1732.465
206.4173, 1761.289
206.8994, 1781.976
207.3815, 1786.563
207.8636, 1778.580
208.3457, 1779.187
208.8279, 1792.877
209.3100, 1805.917
209.7921, 1803.564
210.2742, 1779.104
210.7563, 1762.666
211.2384, 1762.202
211.7206, 1776.545
212.2027, 1787.846
212.6848, 1796.777
213.1669, 1801.562
213.6490, 1799.307
214.1311, 1787.376
214.6133, 1775.568
215.0954, 1765.212
215.5775, 1756.326
216.0596, 1752.545
216.5417, 1755.632
217.0238, 1761.859
217.5059, 1767.282
217.9881, 1773.005
218.4702, 1775.462
218.9523, 1773.169
219.4344, 1765.480
219.9165, 1757.384
220.3986, 1747.547
220.8808, 1738.421
221.3629, 1733.076
221.8450, 1730.266
222.3271, 1733.903
222.8092, 1748.826
223.2913, 1782.359
223.7735, 1797.270
224.2556, 1785.170
224.7377, 1759.350
225.2198, 1745.676
225.7019, 1749.543
226.1840, 1756.153
226.6662, 1759.626
227.1483, 1757.274
227.6304, 1759.971
228.1125, 1774.144
228.5946, 1790.895
229.0767, 1787.344
229.5589, 1747.747
230.0410, 1711.859
230.5231, 1698.253
231.0052, 1721.752
231.4873, 1734.557
231.9694, 1732.225
232.4516, 1719.865
232.9337, 1712.741
233.4158, 1712.266
233.8979, 1715.062
234.3800, 1720.434
234.8621, 1732.516
235.3443, 1738.329
235.8264, 1735.584
236.3085, 1726.261
236.7906, 1717.621
237.2727, 1708.663
237.7548, 1701.730
238.2369, 1698.086
238.7191, 1698.411
239.2012, 1700.709
239.6833, 1705.040
240.1654, 1711.196
240.6475, 1718.771
241.1296, 1730.463
241.6118, 1740.023
242.0939, 1743.055
242.5760, 1735.906
243.0581, 1729.366
243.5402, 1723.931
244.0223, 1719.752
244.5045, 1718.418
244.9866, 1724.567
245.4687, 1727.963
245.9508, 1719.495
246.4329, 1687.171
246.9150, 1668.549
247.3972, 1674.326
247.8793, 1700.663
248.3614, 1711.046
248.8435, 1697.087
249.3256, 1677.383
249.8077, 1665.628
250.2899, 1663.827
250.7720, 1666.115
251.2541, 1676.401
251.7362, 1692.787
252.2183, 1689.772
252.7004, 1654.158
253.1826, 1615.569
253.6647, 1598.796
254.1468, 1613.436
254.6289, 1629.274
255.1110, 1643.954
255.5931, 1657.191
256.0753, 1662.288
256.5574, 1658.353
257.0395, 1647.733
257.5216, 1630.520
258.0037, 1600.420
258.4858, 1578.856
258.9680, 1570.082
259.4501, 1573.772
259.9322, 1585.569
260.4143, 1612.786
260.8964, 1637.765
261.3785, 1642.113
261.8607, 1617.293
262.3428, 1594.948
262.8249, 1579.895
263.3070, 1572.165
263.7891, 1571.589
264.2712, 1582.116
264.7534, 1593.559
265.2355, 1594.620
265.7176, 1580.582
266.1997, 1571.291
266.6818, 1572.711
267.1639, 1583.893
267.6461, 1587.739
268.1282, 1581.290
268.6103, 1572.785
269.0924, 1569.379
269.5745, 1570.974
270.0566, 1578.885
270.5387, 1597.255
271.0208, 1624.342
271.5030, 1637.130
271.9851, 1632.663
272.4672, 1620.105
272.9493, 1605.108
273.4314, 1585.297
273.9135, 1576.727
274.3957, 1586.877
274.8778, 1612.996
275.3599, 1630.161
275.8420, 1636.585
276.3241, 1638.762
276.8062, 1644.625
277.2884, 1655.444
277.7705, 1658.369
278.2526, 1646.114
278.7347, 1622.926
279.2168, 1615.786
279.6989, 1627.631
280.1811, 1645.582
280.6632, 1657.511
281.1453, 1663.167
281.6274, 1669.233
282.1095, 1678.002
282.5916, 1688.386
283.0738, 1694.381
283.5559, 1694.983
284.0380, 1696.144
284.5201, 1707.813
285.0022, 1729.285
285.4843, 1738.359
285.9665, 1722.841
286.4486, 1693.171
286.9307, 1686.693
287.4128, 1705.268
287.8949, 1731.022
288.3770, 1747.489
288.8592, 1741.636
289.3413, 1765.427
289.8234, 1781.823
290.3055, 1791.225
290.7876, 1772.679
291.2697, 1790.221
291.7519, 1793.302
292.2340, 1795.789
292.7161, 1818.411
293.1982, 1803.929
293.6803, 1826.232
294.1624, 1833.851
294.6446, 1848.191
295.1267, 1831.207
295.6088, 1861.944
296.0909, 1885.289
296.5730, 1901.638
297.0551, 1890.040
297.5373, 1914.533
298.0194, 1924.561
298.5015, 1933.995
298.9836, 1963.565
299.4657, 1956.031
299.9478, 1985.282
300.4300, 1999.851
300.9121, 2021.139
301.3942, 2027.874
301.8763, 2039.104
302.3584, 2055.111
302.8405, 2065.615
303.3227, 2074.554
303.8048, 2081.925
304.2869, 2090.485
304.7690, 2104.806
305.2511, 2126.964
305.7332, 2152.734
306.2154, 2181.933
306.6975, 2212.523
307.1796, 2238.418
307.6617, 2248.910
308.1438, 2255.583
308.6259, 2272.328
309.1081, 2306.067
309.5901, 2339.856
310.0723, 2358.744
310.5544, 2368.002
311.0365, 2381.686
311.5186, 2408.229
312.0007, 2441.698
312.4828, 2479.138
312.9650, 2523.818
313.4471, 2562.008
313.9292, 2579.995
314.4113, 2585.922
314.8934, 2596.200
315.3755, 2618.449
315.8577, 2646.570
316.3398, 2678.718
316.8219, 2717.717
317.3040, 2750.029
317.7861, 2765.255
318.2682, 2771.379
318.7504, 2780.893
319.2325, 2803.230
319.7146, 2825.317
320.1967, 2838.566
320.6788, 2838.595
321.1609, 2847.669
321.6431, 2883.479
322.1252, 2927.603
322.6073, 2956.990
323.0894, 2958.293
323.5715, 2952.834
324.0536, 2943.729
324.5358, 2929.468
325.0179, 2922.883
325.5000, 2936.089
325.9821, 2952.943
326.4642, 2957.584
326.9464, 2938.993
327.4285, 2918.746
327.9106, 2900.949
328.3927, 2886.206
328.8748, 2867.401
329.3569, 2840.382
329.8391, 2812.378
330.3212, 2789.023
330.8033, 2769.916
331.2854, 2756.405
331.7675, 2752.718
332.2496, 2757.643
332.7318, 2751.062
333.2139, 2726.155
333.6960, 2697.715
334.1781, 2675.374
334.6602, 2659.674
335.1423, 2649.066
335.6245, 2645.362
336.1066, 2646.545
336.5887, 2643.783
337.0708, 2637.335
337.5529, 2626.307
338.0350, 2607.285
338.5172, 2576.354
338.9993, 2557.441
339.4814, 2555.173
339.9635, 2563.646
340.4456, 2568.462
340.9277, 2569.436
341.4099, 2568.119
341.8920, 2564.248
342.3741, 2557.880
342.8562, 2554.296
343.3383, 2554.722
343.8204, 2556.247
344.3026, 2554.187
344.7847, 2548.564
345.2668, 2540.563
345.7489, 2527.329
346.2310, 2511.184
346.7131, 2504.669
347.1953, 2509.088
347.6774, 2518.081
348.1595, 2525.652
348.6416, 2531.433
349.1237, 2534.278
349.6058, 2534.643
350.0880, 2531.508
350.5700, 2520.919
351.0522, 2502.575
351.5343, 2483.969
352.0164, 2473.923
352.4985, 2468.780
352.9806, 2460.649
353.4627, 2444.311
353.9449, 2425.468
354.4270, 2409.527
354.9091, 2396.523
355.3912, 2385.943
355.8733, 2384.051
356.3554, 2382.352
356.8376, 2368.986
357.3197, 2326.122
357.8018, 2288.476
358.2839, 2288.941
358.7660, 2317.316
359.2481, 2333.459
359.7303, 2302.870
360.2124, 2261.262
360.6945, 2234.612
361.1766, 2233.090
361.6587, 2238.362
362.1408, 2251.426
362.6230, 2266.344
363.1051, 2269.911
363.5872, 2246.983
364.0693, 2220.575
364.5514, 2201.046
365.0335, 2190.417
365.5157, 2183.707
365.9978, 2186.669
366.4799, 2191.620
366.9620, 2187.206
367.4441, 2154.959
367.9262, 2130.100
368.4084, 2123.275
368.8905, 2137.549
369.3726, 2152.141
369.8547, 2171.162
370.3368, 2187.806
370.8189, 2195.285
371.3011, 2190.259
371.7832, 2181.001
372.2653, 2164.984
372.7474, 2143.342
373.2295, 2135.855
373.7116, 2148.419
374.1938, 2166.292
374.6759, 2178.144
375.1580, 2181.785
375.6401, 2186.979
376.1222, 2194.164
376.6043, 2203.960
377.0865, 2221.044
377.5686, 2247.538
378.0507, 2271.454
378.5328, 2282.558
379.0149, 2281.101
379.4970, 2286.226
379.9792, 2300.454
380.4613, 2319.354
380.9434, 2334.553
381.4255, 2346.440
381.9076, 2359.163
382.3897, 2376.882
382.8719, 2397.193
383.3540, 2410.490
383.8361, 2415.687
384.3182, 2420.515
384.8003, 2435.631
385.2824, 2457.549
385.7646, 2476.363
386.2467, 2491.677
386.7288, 2499.969
387.2109, 2493.522
387.6930, 2472.965
388.1751, 2451.335
388.6573, 2435.951
389.1394, 2425.566
389.6215, 2419.811
390.1036, 2426.746
390.5857, 2427.847
391.0678, 2405.300
391.5499, 2365.007
392.0320, 2328.514
392.5142, 2312.617
392.9963, 2300.364
393.4784, 2279.700
393.9605, 2245.022
394.4426, 2209.905
394.9247, 2180.285
395.4069, 2152.956
395.8890, 2121.970
396.3711, 2081.398
396.8532, 2041.484
397.3353, 2006.823
397.8174, 1979.941
398.2996, 1949.307
398.7817, 1902.049
399.2638, 1895.547
399.7459, 1881.651
400.2280, 1860.761
400.7101, 1811.921
401.1923, 1799.168
401.6744, 1771.954
402.1565, 1744.149
402.6386, 1736.478
403.1207, 1691.705
403.6028, 1683.715
404.0850, 1661.038
404.5671, 1645.084
405.0492, 1614.580
405.5313, 1588.568
406.0134, 1577.116
406.4955, 1557.601
406.9777, 1525.417
407.4598, 1497.932
407.9419, 1509.974
408.4240, 1514.622
408.9061, 1512.276
409.3882, 1481.981
409.8704, 1487.774
410.3525, 1479.105
410.8346, 1469.844
411.3167, 1480.717
411.7988, 1454.488
412.2809, 1465.042
412.7631, 1460.912
413.2452, 1463.503
413.7273, 1451.542
414.2094, 1444.075
414.6915, 1451.166
415.1736, 1450.196
415.6558, 1436.559
416.1379, 1439.577
416.6200, 1412.839
417.1021, 1412.213
417.5842, 1422.852
418.0663, 1409.947
418.5485, 1413.231
419.0306, 1410.350
419.5127, 1379.448
419.9948, 1397.276
420.4769, 1394.031
420.9590, 1370.906
421.4412, 1363.691
421.9233, 1359.626
422.4054, 1360.009
422.8875, 1365.763
423.3696, 1369.595
423.8517, 1371.884
424.3339, 1371.107
424.8160, 1365.677
425.2981, 1345.945
425.7802, 1335.050
426.2623, 1341.729
426.7444, 1361.342
427.2266, 1364.555
427.7087, 1342.036
428.1908, 1317.263
428.6729, 1302.208
429.1550, 1297.957
429.6371, 1300.405
430.1193, 1312.848
430.6014, 1328.005
431.0835, 1330.186
431.5656, 1317.572
432.0477, 1307.574
432.5298, 1309.134
433.0119, 1319.925
433.4940, 1326.504
433.9762, 1328.819
434.4583, 1327.322
434.9404, 1319.919
435.4225, 1308.478
435.9046, 1299.888
436.3867, 1296.290
436.8689, 1296.280
437.3510, 1301.573
437.8331, 1310.430
438.3152, 1313.575
438.7973, 1298.189
439.2794, 1276.790
439.7616, 1264.162
440.2437, 1264.703
440.7258, 1267.779
441.2079, 1266.970
441.6900, 1264.155
442.1721, 1262.513
442.6543, 1265.191
443.1364, 1267.623
443.6185, 1267.817
444.1006, 1265.609
444.5827, 1262.087
445.0648, 1252.510
445.5470, 1244.553
446.0291, 1244.039
446.5112, 1260.984
446.9933, 1274.280
447.4754, 1282.463
447.9576, 1285.896
448.4397, 1285.971
448.9218, 1282.170
449.4039, 1275.804
449.8860, 1266.444
450.3681, 1252.373
450.8503, 1242.365
451.3324, 1235.933
451.8145, 1234.203
452.2966, 1241.583
452.7787, 1260.173
453.2608, 1271.971
453.7430, 1268.954
454.2251, 1255.667
454.7072, 1250.508
455.1893, 1253.903
455.6714, 1259.838
456.1535, 1263.887
456.6357, 1266.467
457.1178, 1268.905
457.5999, 1271.310
458.0820, 1273.884
458.5641, 1278.106
459.0462, 1282.977
459.5284, 1285.236
460.0105, 1282.351
460.4926, 1276.583
460.9747, 1269.205
461.4568, 1260.145
461.9389, 1252.138
462.4211, 1245.342
462.9032, 1240.925
463.3853, 1240.218
463.8674, 1248.242
464.3495, 1255.168
464.8316, 1256.489
465.3138, 1253.698
465.7959, 1253.722
466.2780, 1262.831
466.7601, 1270.792
467.2422, 1273.045
467.7243, 1268.000
468.2065, 1260.266
468.6886, 1244.702
469.1707, 1229.653
469.6528, 1228.105
470.1349, 1247.253
470.6170, 1263.252
471.0992, 1270.490
471.5813, 1269.582
472.0634, 1264.265
472.5455, 1253.057
473.0276, 1243.252
473.5097, 1241.431
473.9918, 1247.034
474.4739, 1253.182
474.9561, 1259.625
475.4382, 1264.865
475.9203, 1265.897
476.4024, 1263.314
476.8845, 1259.962
477.3666, 1255.574
477.8488, 1251.971
478.3309, 1253.038
478.8130, 1258.883
479.2951, 1263.637
479.7772, 1263.619
480.2593, 1259.931
480.7415, 1253.334
481.2236, 1239.000
481.7057, 1228.642
482.1878, 1230.670
482.6699, 1241.249
483.1520, 1249.530
483.6342, 1246.161
484.1163, 1245.135
484.5984, 1254.020
485.0805, 1278.119
485.5626, 1295.795
486.0447, 1305.690
486.5269, 1309.497
487.0090, 1308.255
487.4911, 1298.669
487.9732, 1290.099
488.4553, 1282.604
488.9374, 1277.166
489.4196, 1278.289
489.9017, 1286.759
490.3838, 1299.320
490.8659, 1316.904
491.3480, 1339.123
491.8301, 1353.344
492.3123, 1358.011
492.7944, 1358.836
493.2765, 1362.417
493.7586, 1368.378
494.2407, 1375.165
494.7228, 1381.513
495.2050, 1388.887
495.6871, 1398.791
496.1692, 1411.420
496.6513, 1427.318
497.1334, 1453.187
497.6155, 1479.389
498.0977, 1495.926
498.5798, 1498.482
499.0619, 1498.811
499.5440, 1499.519
500.0261, 1502.241
500.5082, 1509.402
500.9904, 1525.253
501.4725, 1541.878
501.9546, 1556.144
502.4367, 1567.921
502.9188, 1584.155
503.4009, 1613.489
503.8831, 1639.238
504.3652, 1651.425
504.8473, 1643.412
505.3294, 1637.965
505.8115, 1636.011
506.2936, 1636.399
506.7758, 1638.831
507.2579, 1644.648
507.7400, 1644.161
508.2221, 1631.274
508.7042, 1609.732
509.1863, 1594.578
509.6685, 1585.864
510.1506, 1582.688
510.6327, 1588.766
511.1148, 1599.600
511.5969, 1603.172
512.0790, 1595.407
512.5612, 1586.278
513.0433, 1585.470
513.5254, 1590.719
514.0075, 1597.196
514.4896, 1602.936
514.9717, 1608.978
515.4539, 1616.822
515.9360, 1626.325
516.4181, 1633.975
516.9002, 1640.345
517.3823, 1643.304
517.8644, 1641.205
518.3466, 1627.756
518.8287, 1618.382
519.3108, 1612.981
519.7929, 1612.297
520.2750, 1603.709
520.7571, 1623.366
521.2393, 1635.630
521.7214, 1640.899
522.2035, 1618.219
522.6856, 1631.629
523.1677, 1630.576
523.6498, 1628.929
524.1320, 1647.419
524.6141, 1628.804
525.0962, 1646.974
525.5783, 1650.460
526.0604, 1660.667
526.5425, 1656.321
527.0247, 1656.471
527.5068, 1671.176
527.9889, 1677.822
528.4710, 1671.801
528.9531, 1682.435
529.4352, 1663.312
529.9174, 1670.301
530.3995, 1688.556
530.8816, 1667.186
531.3637, 1661.078
531.8458, 1660.568
532.3279, 1662.357
532.8101, 1667.026
533.2922, 1673.156
533.7743, 1678.533
534.2564, 1686.511
534.7385, 1689.372
535.2206, 1683.988
535.7027, 1671.285
536.1848, 1660.492
536.6669, 1649.558
537.1490, 1644.279
537.6312, 1652.260
538.1133, 1675.718
538.5954, 1683.074
539.0775, 1669.541
539.5596, 1649.821
540.0417, 1646.077
540.5239, 1655.270
541.0060, 1658.833
541.4881, 1646.139
541.9702, 1628.876
542.4523, 1625.780
542.9344, 1634.410
543.4166, 1642.361
543.8987, 1640.598
544.3808, 1635.543
544.8629, 1632.362
545.3450, 1631.582
545.8271, 1633.173
546.3093, 1640.769
546.7914, 1649.065
547.2735, 1652.745
547.7556, 1645.817
548.2377, 1639.821
548.7198, 1635.556
549.2020, 1633.380
549.6841, 1635.371
550.1662, 1646.255
550.6483, 1653.482
551.1304, 1651.353
551.6125, 1639.403
552.0947, 1629.539
552.5768, 1622.453
553.0589, 1615.473
553.5410, 1603.754
554.0231, 1588.496
554.5052, 1580.362
554.9874, 1582.863
555.4695, 1589.990
555.9516, 1593.986
556.4337, 1595.583
556.9158, 1597.158
557.3979, 1603.105
557.8801, 1607.389
558.3622, 1602.861
558.8443, 1589.981
559.3264, 1577.847
559.8085, 1573.646
560.2906, 1570.069
560.7728, 1561.069
561.2549, 1538.428
561.7370, 1523.687
562.2191, 1527.696
562.7012, 1538.259
563.1833, 1538.646
563.6655, 1522.857
564.1476, 1507.723
564.6297, 1496.548
565.1118, 1488.820
565.5939, 1480.964
566.0760, 1472.557
566.5582, 1465.643
567.0403, 1460.527
567.5224, 1457.604
568.0045, 1461.962
568.4866, 1475.351
568.9688, 1484.777
569.4509, 1470.952
569.9330, 1443.523
570.4151, 1422.464
570.8972, 1417.480
571.3793, 1415.523
571.8615, 1407.585
572.3436, 1394.819
572.8257, 1380.290
573.3078, 1356.844
573.7899, 1339.203
574.2720, 1337.971
574.7542, 1355.332
575.2363, 1366.692
575.7184, 1371.110
576.2005, 1367.766
576.6826, 1353.965
577.1647, 1320.088
577.6469, 1301.419
578.1290, 1305.989
578.6111, 1318.397
579.0932, 1310.225
579.5753, 1279.467
580.0574, 1258.714
580.5396, 1264.571
581.0217, 1282.712
581.5038, 1273.784
581.9859, 1240.688
582.4680, 1210.028
582.9501, 1203.826
583.4323, 1208.046
583.9144, 1204.803
584.3965, 1191.764
584.8786, 1178.099
585.3607, 1168.622
585.8428, 1161.649
586.3250, 1155.364
586.8071, 1150.549
587.2892, 1144.955
587.7713, 1137.053
588.2534, 1128.170
588.7355, 1121.621
589.2177, 1119.598
589.6998, 1116.506
590.1819, 1110.740
590.6640, 1102.411
591.1461, 1092.805
591.6282, 1081.201
592.1104, 1070.935
592.5925, 1066.527
593.0746, 1066.493
593.5567, 1060.313
594.0388, 1046.490
594.5209, 1030.424
595.0031, 1014.752
595.4852, 1001.656
595.9673, 995.8974
596.4494, 1004.999
596.9315, 1014.575
597.4136, 1011.702
597.8958, 1000.978
598.3779, 994.8080
598.8600, 1003.091
599.3421, 1011.777
599.8242, 1014.972
600.3063, 1011.882
600.7885, 1008.124
601.2706, 1005.696
601.7527, 1000.738
602.2348, 988.5604
602.7169, 964.4239
603.1990, 953.0377
603.6812, 957.2947
604.1633, 970.9058
604.6454, 989.8882
605.1275, 1012.997
605.6096, 1024.453
606.0917, 1014.812
606.5739, 996.9014
607.0560, 989.5615
607.5381, 991.4265
608.0202, 996.6651
608.5023, 1003.705
608.9844, 1011.477
609.4666, 1021.331
609.9487, 1033.510
610.4308, 1038.372
610.9129, 1021.536
611.3950, 1003.260
611.8771, 998.4064
612.3593, 1023.921
612.8414, 1036.761
613.3235, 1030.860
613.8056, 1016.710
614.2877, 1008.098
614.7698, 1005.223
615.2520, 1007.715
615.7341, 1017.521
616.2162, 1031.104
616.6983, 1037.246
617.1804, 1036.463
617.6625, 1038.110
618.1446, 1051.481
618.6267, 1069.049
619.1088, 1079.262
619.5909, 1081.770
620.0731, 1079.465
620.5552, 1068.073
621.0373, 1056.242
621.5194, 1052.478
622.0015, 1061.859
622.4836, 1070.553
622.9658, 1073.925
623.4479, 1074.920
623.9300, 1077.468
624.4121, 1084.256
624.8942, 1088.057
625.3763, 1086.039
625.8585, 1081.114
626.3406, 1082.364
626.8227, 1090.574
627.3048, 1100.652
627.7869, 1111.192
628.2690, 1121.878
628.7512, 1131.000
629.2333, 1138.684
629.7154, 1146.124
630.1975, 1154.241
630.6796, 1162.804
631.1617, 1171.193
631.6439, 1179.238
632.1260, 1188.208
632.6081, 1200.789
633.0902, 1213.808
633.5723, 1223.813
634.0544, 1222.867
634.5366, 1227.383
635.0187, 1244.043
635.5008, 1266.657
635.9829, 1280.865
636.4650, 1279.505
636.9471, 1285.739
637.4293, 1309.045
637.9114, 1345.304
638.3935, 1374.465
638.8756, 1396.224
639.3577, 1414.249
639.8398, 1425.349
640.3220, 1435.613
640.8041, 1462.597
641.2862, 1508.046
641.7683, 1552.873
642.2504, 1579.520
642.7325, 1598.016
643.2147, 1618.639
643.6968, 1643.179
644.1789, 1671.842
644.6610, 1704.604
645.1431, 1741.855
645.6252, 1785.343
646.1074, 1839.875
646.5895, 1892.410
647.0716, 1938.104
647.5537, 1980.948
648.0358, 2033.366
648.5179, 2096.659
649.0001, 2162.580
649.4822, 2228.078
649.9643, 2292.955
650.4464, 2351.330
650.9285, 2403.333
651.4106, 2460.688
651.8928, 2539.194
652.3749, 2623.636
652.8570, 2692.462
653.3391, 2738.650
653.8212, 2791.281
654.3033, 2871.054
654.7855, 2961.974
655.2676, 3047.739
655.7497, 3110.525
656.2318, 3186.615
656.7139, 3287.801
657.1960, 3399.069
657.6782, 3490.592
658.1603, 3557.547
658.6424, 3619.842
659.1245, 3681.111
659.6066, 3742.367
660.0887, 3806.980
660.5709, 3874.557
661.0530, 3939.364
661.5351, 4003.814
662.0172, 4060.047
662.4993, 4097.082
662.9814, 4114.528
663.4636, 4113.583
663.9457, 4090.164
664.4278, 4051.810
664.9099, 4002.693
665.3920, 3939.797
665.8741, 3876.435
666.3563, 3824.762
666.8384, 3767.573
667.3205, 3689.977
667.8026, 3585.656
668.2847, 3476.392
668.7668, 3362.213
669.2490, 3246.790
669.7311, 3134.033
670.2132, 3025.261
670.6953, 2928.092
671.1774, 2853.630
671.6595, 2783.483
672.1417, 2676.691
672.6238, 2545.537
673.1059, 2432.440
673.5880, 2376.943
674.0701, 2334.279
674.5522, 2272.392
675.0344, 2190.473
675.5165, 2114.790
675.9986, 2053.358
676.4807, 1999.151
676.9628, 1948.771
677.4449, 1902.712
677.9271, 1860.776
678.4092, 1825.375
678.8913, 1790.132
679.3734, 1744.422
679.8555, 1689.972
680.3376, 1654.132
680.8198, 1644.324
681.3019, 1642.522
681.7840, 1629.656
682.2661, 1607.452
682.7482, 1580.287
683.2303, 1547.116
683.7125, 1512.051
684.1946, 1470.411
684.6767, 1428.444
685.1588, 1400.966
685.6409, 1413.682
686.1230, 1416.489
686.6052, 1386.647
687.0873, 1331.203
687.5694, 1309.988
688.0515, 1335.412
688.5336, 1361.739
689.0157, 1364.802
689.4979, 1347.544
689.9800, 1331.631
690.4621, 1317.111
690.9442, 1303.552
691.4263, 1287.237
691.9084, 1272.573
692.3906, 1268.474
692.8727, 1278.252
693.3548, 1285.271
693.8369, 1278.055
694.3190, 1264.528
694.8011, 1252.409
695.2833, 1240.838
695.7654, 1234.202
696.2475, 1235.850
696.7296, 1240.442
697.2117, 1239.597
697.6938, 1231.625
698.1760, 1224.551
698.6581, 1219.157
699.1402, 1216.781
699.6223, 1222.606
700.1044, 1235.348
700.5865, 1246.659
701.0686, 1254.692
701.5507, 1257.736
702.0328, 1252.817
702.5150, 1240.814
702.9971, 1225.983
703.4792, 1200.620
703.9613, 1181.181
704.4434, 1179.342
704.9255, 1198.612
705.4077, 1209.141
705.8898, 1206.491
706.3719, 1200.545
706.8540, 1197.928
707.3361, 1184.024
707.8182, 1198.443
708.3004, 1205.469
708.7825, 1205.501
709.2646, 1177.584
709.7467, 1185.756
710.2288, 1179.465
710.7109, 1172.582
711.1931, 1185.833
711.6752, 1161.981
712.1573, 1174.914
712.6394, 1173.162
713.1215, 1178.131
713.6036, 1168.549
714.0858, 1163.460
714.5679, 1172.928
715.0500, 1174.337
715.5321, 1163.078
716.0142, 1154.560
716.4963, 1149.584
716.9785, 1144.016
717.4606, 1143.238
717.9427, 1146.816
718.4248, 1147.960
718.9069, 1140.824
719.3890, 1130.721
719.8712, 1124.881
720.3533, 1122.700
720.8354, 1120.659
721.3175, 1116.293
721.7996, 1112.129
722.2817, 1109.215
722.7639, 1107.601
723.2460, 1108.344
723.7281, 1113.580
724.2102, 1118.504
724.6923, 1120.283
725.1744, 1118.460
725.6566, 1117.170
726.1387, 1116.597
726.6208, 1115.697
727.1029, 1113.496
727.5850, 1110.189
728.0671, 1105.734
728.5493, 1099.698
729.0314, 1094.771
729.5135, 1092.073
729.9956, 1092.006
730.4777, 1095.382
730.9598, 1110.389
731.4420, 1117.476
731.9241, 1104.283
732.4062, 1084.875
732.8883, 1078.165
733.3704, 1087.576
733.8525, 1099.854
734.3347, 1115.408
734.8168, 1129.440
735.2989, 1125.671
735.7810, 1107.543
736.2631, 1102.362
736.7452, 1133.694
737.2274, 1171.238
737.7095, 1178.164
738.1916, 1162.257
738.6737, 1147.475
739.1558, 1138.658
739.6379, 1138.428
740.1201, 1156.110
740.6022, 1188.905
741.0843, 1197.997
741.5664, 1166.785
742.0485, 1141.197
742.5306, 1142.888
743.0128, 1169.487
743.4949, 1193.266
743.9770, 1214.536
744.4591, 1229.468
744.9412, 1232.380
745.4233, 1227.996
745.9055, 1221.915
746.3876, 1214.517
746.8697, 1211.848
747.3518, 1220.143
747.8339, 1232.828
748.3160, 1246.320
748.7982, 1264.496
749.2803, 1270.384
749.7624, 1255.938
750.2445, 1237.515
750.7266, 1226.788
751.2087, 1223.254
751.6909, 1235.028
752.1730, 1266.066
752.6551, 1299.572
753.1372, 1314.380
753.6193, 1316.340
754.1014, 1319.546
754.5836, 1327.879
755.0657, 1337.147
755.5478, 1346.403
756.0299, 1354.252
756.5120, 1358.957
756.9941, 1358.805
757.4763, 1356.769
757.9584, 1347.709
758.4405, 1339.817
758.9226, 1351.289
759.4047, 1387.457
759.8868, 1414.646
760.3690, 1423.975
760.8511, 1421.893
761.3332, 1417.764
761.8153, 1412.605
762.2974, 1410.497
762.7795, 1416.389
763.2617, 1423.442
763.7438, 1426.898
764.2259, 1427.317
764.7080, 1426.363
765.1901, 1418.513
765.6722, 1416.242
766.1544, 1426.317
766.6365, 1445.705
767.1186, 1454.648
767.6007, 1451.076
768.0828, 1445.633
768.5649, 1442.725
769.0471, 1441.882
769.5292, 1440.680
770.0113, 1439.539
770.4934, 1442.289
770.9755, 1459.396
771.4576, 1475.599
771.9398, 1474.318
772.4219, 1455.178
772.9040, 1442.864
773.3861, 1453.806
773.8682, 1463.696
774.3503, 1458.818
774.8325, 1436.469
775.3146, 1430.271
775.7967, 1443.475
776.2788, 1460.705
776.7609, 1472.188
777.2430, 1478.230
777.7252, 1477.971
778.2073, 1471.172
778.6894, 1465.635
779.1715, 1470.722
779.6536, 1477.927
780.1357, 1479.400
780.6179, 1473.554
781.1000, 1463.476
781.5821, 1440.748
782.0642, 1420.913
782.5463, 1416.379
783.0284, 1432.526
783.5105, 1441.076
783.9926, 1439.312
784.4747, 1436.457
784.9568, 1443.747
785.4390, 1458.386
785.9211, 1472.360
786.4032, 1485.089
786.8853, 1492.938
787.3674, 1490.952
787.8495, 1483.275
788.3317, 1474.099
788.8138, 1458.479
789.2959, 1451.591
789.7780, 1461.820
790.2601, 1476.509
790.7422, 1480.373
791.2244, 1470.710
791.7065, 1467.144
792.1886, 1473.888
792.6707, 1482.684
793.1528, 1475.609
793.6349, 1460.988
794.1171, 1464.643
794.5992, 1505.172
795.0813, 1541.870
795.5634, 1540.567
796.0455, 1520.380
796.5276, 1510.144
797.0098, 1530.105
797.4919, 1540.636
797.9740, 1532.910
798.4561, 1517.673
798.9382, 1514.672
799.4203, 1524.729
799.9025, 1535.566
800.3846, 1544.722
800.8667, 1552.724
801.3488, 1560.720
801.8309, 1568.233
802.3130, 1574.332
802.7952, 1575.890
803.2773, 1579.082
803.7594, 1588.686
804.2415, 1601.870
804.7236, 1612.362
805.2057, 1620.713
805.6879, 1624.189
806.1700, 1618.950
806.6521, 1611.146
807.1342, 1619.432
807.6163, 1642.931
808.0984, 1657.618
808.5806, 1649.585
809.0627, 1635.660
809.5448, 1636.764
810.0269, 1649.201
810.5090, 1664.119
810.9911, 1685.708
811.4733, 1700.764
811.9554, 1699.756
812.4375, 1688.383
812.9196, 1685.134
813.4017, 1695.156
813.8839, 1698.438
814.3660, 1685.148
814.8481, 1665.918
815.3302, 1672.814
815.8123, 1701.657
816.2944, 1725.661
816.7766, 1729.247
817.2587, 1725.649
817.7408, 1721.218
818.2229, 1718.617
818.7050, 1725.247
819.1871, 1759.978
819.6693, 1784.741
820.1514, 1788.262
820.6335, 1775.348
821.1156, 1759.195
821.5977, 1737.723
822.0798, 1726.846
822.5620, 1735.112
823.0441, 1754.713
823.5262, 1776.140
824.0083, 1796.485
824.4904, 1805.394
824.9725, 1790.827
825.4547, 1770.279
825.9368, 1747.867
826.4189, 1726.656
826.9010, 1718.013
827.3831, 1732.679
827.8652, 1743.482
828.3474, 1743.075
828.8295, 1734.292
829.3116, 1725.673
829.7937, 1717.258
830.2758, 1710.274
830.7579, 1705.447
831.2401, 1702.188
831.7222, 1698.909
832.2043, 1696.549
832.6864, 1697.763
833.1685, 1711.804
833.6506, 1720.857
834.1328, 1714.569
834.6149, 1698.327
835.0970, 1688.644
835.5791, 1687.783
836.0612, 1685.088
836.5433, 1674.498
837.0255, 1662.902
837.5076, 1672.004
837.9897, 1696.168
838.4718, 1711.030
838.9539, 1693.109
839.4360, 1672.475
839.9182, 1671.672
840.4003, 1684.381
840.8824, 1693.349
841.3645, 1693.528
841.8466, 1691.978
842.3287, 1689.274
842.8109, 1685.967
843.2930, 1683.767
843.7751, 1682.685
844.2572, 1680.773
844.7393, 1675.717
845.2214, 1671.667
845.7036, 1676.425
846.1857, 1686.574
846.6678, 1694.124
847.1499, 1692.059
847.6320, 1690.995
848.1141, 1695.794
848.5963, 1703.720
849.0784, 1708.691
849.5605, 1709.316
850.0426, 1711.882
850.5247, 1719.195
851.0068, 1726.860
851.4890, 1722.141
851.9711, 1709.739
852.4532, 1706.811
852.9353, 1724.917
853.4174, 1746.090
853.8995, 1762.137
854.3817, 1772.169
854.8638, 1774.508
855.3459, 1758.501
855.8280, 1750.942
856.3101, 1758.119
856.7922, 1770.816
857.2744, 1771.515
857.7565, 1761.008
858.2386, 1757.234
858.7207, 1766.514
859.2028, 1777.633
859.6849, 1776.863
860.1671, 1769.826
860.6492, 1765.219
861.1313, 1766.113
861.6134, 1768.873
862.0955, 1777.267
862.5776, 1784.315
863.0598, 1782.465
863.5419, 1770.644
864.0240, 1752.678
864.5061, 1725.736
864.9882, 1703.087
865.4703, 1707.163
865.9524, 1726.880
866.4345, 1737.407
866.9166, 1731.910
867.3987, 1723.718
867.8809, 1717.742
868.3630, 1713.824
868.8451, 1711.988
869.3272, 1712.770
869.8093, 1714.106
870.2914, 1716.123
870.7736, 1718.382
871.2557, 1721.050
871.7378, 1723.661
872.2199, 1722.821
872.7020, 1717.841
873.1841, 1715.154
873.6663, 1721.172
874.1484, 1731.081
874.6305, 1742.118
875.1126, 1755.914
875.5947, 1760.513
876.0768, 1748.568
876.5590, 1736.260
877.0411, 1734.114
877.5232, 1742.122
878.0053, 1748.156
878.4874, 1752.345
878.9695, 1752.384
879.4517, 1742.750
879.9338, 1730.308
880.4159, 1723.157
880.8980, 1721.612
881.3801, 1721.179
881.8622, 1717.455
882.3444, 1717.821
882.8265, 1726.618
883.3086, 1742.998
883.7907, 1756.648
884.2728, 1768.066
884.7549, 1772.763
885.2371, 1762.938
885.7192, 1747.704
886.2013, 1746.220
886.6834, 1754.747
887.1655, 1758.013
887.6476, 1737.927
888.1298, 1722.007
888.6119, 1726.521
889.0940, 1745.394
889.5761, 1756.555
890.0582, 1757.629
890.5403, 1758.507
891.0225, 1761.083
891.5046, 1766.221
891.9867, 1781.660
892.4688, 1801.793
892.9509, 1809.090
893.4330, 1784.592
893.9152, 1760.338
894.3973, 1753.812
894.8794, 1758.927
895.3615, 1764.872
895.8436, 1773.486
896.3257, 1777.795
896.8079, 1777.246
897.2900, 1772.019
897.7721, 1757.099
898.2542, 1736.687
898.7363, 1729.731
899.2184, 1743.170
899.7006, 1760.264
900.1827, 1771.097
900.6648, 1776.485
901.1469, 1776.436
901.6290, 1765.297
902.1111, 1760.314
902.5933, 1763.705
903.0754, 1770.173
903.5575, 1775.655
904.0396, 1780.081
904.5217, 1784.088
905.0038, 1787.854
905.4860, 1786.893
905.9681, 1764.387
906.4502, 1743.876
906.9323, 1756.303
907.4144, 1809.573
907.8965, 1837.031
908.3787, 1809.714
908.8608, 1782.082
909.3429, 1781.939
909.8250, 1805.296
910.3071, 1810.145
910.7892, 1796.710
911.2714, 1784.871
911.7535, 1786.999
912.2356, 1796.718
912.7177, 1811.009
913.1998, 1827.925
913.6819, 1839.954
914.1641, 1840.152
914.6462, 1840.932
915.1283, 1846.299
915.6104, 1853.929
916.0925, 1855.594
916.5746, 1851.245
917.0568, 1851.198
917.5389, 1859.843
918.0210, 1872.577
918.5031, 1886.777
918.9852, 1900.419
919.4673, 1910.187
919.9495, 1917.032
920.4316, 1916.720
920.9137, 1903.471
921.3958, 1887.090
921.8779, 1880.371
922.3600, 1884.103
922.8422, 1885.668
923.3243, 1883.558
923.8064, 1879.363
924.2885, 1869.902
924.7706, 1861.602
925.2527, 1867.565
925.7349, 1896.037
926.2170, 1907.952
926.6991, 1866.809
927.1812, 1828.075
927.6633, 1826.953
928.1454, 1866.153
928.6276, 1882.119
929.1097, 1873.287
929.5918, 1860.173
930.0739, 1855.541
930.5560, 1856.457
931.0381, 1862.361
931.5203, 1871.544
932.0024, 1873.951
932.4845, 1860.124
932.9666, 1837.290
933.4487, 1851.843
933.9308, 1859.003
934.4130, 1859.167
934.8951, 1831.383
935.3772, 1839.689
935.8593, 1833.531
936.3414, 1826.781
936.8235, 1840.166
937.3057, 1816.447
937.7878, 1829.513
938.2699, 1827.895
938.7520, 1832.997
939.2341, 1823.548
939.7162, 1818.593
940.1984, 1828.194
940.6805, 1811.162
941.1626, 1812.101
941.6447, 1812.798
942.1268, 1812.425
942.6089, 1807.720
943.0911, 1802.565
943.5732, 1803.865
944.0553, 1814.982
944.5374, 1819.114
945.0195, 1803.260
945.5016, 1788.178
945.9838, 1785.995
946.4659, 1796.129
946.9480, 1796.147
947.4301, 1785.879
947.9122, 1776.480
948.3943, 1776.623
948.8764, 1780.664
949.3585, 1783.967
949.8406, 1785.971
950.3228, 1784.861
950.8049, 1770.723
951.2870, 1766.194
951.7691, 1781.874
952.2512, 1806.653
952.7333, 1807.433
953.2155, 1786.435
953.6976, 1778.289
954.1797, 1798.861
954.6618, 1822.497
955.1439, 1818.529
955.6260, 1803.265
956.1082, 1799.766
956.5903, 1825.704
957.0724, 1842.034
957.5545, 1844.919
958.0366, 1841.181
958.5187, 1834.604
959.0009, 1826.153
959.4830, 1824.521
959.9651, 1830.374
960.4472, 1839.710
960.9293, 1854.569
961.4114, 1867.926
961.8936, 1871.721
962.3757, 1865.160
962.8578, 1866.017
963.3399, 1879.658
963.8220, 1891.457
964.3041, 1894.672
964.7863, 1892.667
965.2684, 1897.938
965.7505, 1908.126
966.2326, 1912.203
966.7147, 1893.040
967.1968, 1879.700
967.6790, 1894.115
968.1611, 1924.503
968.6432, 1949.593
969.1253, 1972.354
969.6074, 1978.069
970.0895, 1960.069
970.5717, 1938.750
971.0538, 1945.599
971.5359, 1968.847
972.0180, 1977.996
972.5001, 1967.018
972.9822, 1957.337
973.4644, 1956.235
973.9465, 1964.184
974.4286, 1985.172
974.9107, 2019.856
975.3928, 2040.499
975.8749, 2045.372
976.3571, 2045.636
976.8392, 2041.765
977.3213, 2040.733
977.8034, 2060.143
978.2855, 2093.720
978.7676, 2121.123
979.2498, 2128.346
979.7319, 2133.989
980.2140, 2142.802
980.6961, 2153.486
981.1782, 2161.442
981.6603, 2166.256
982.1425, 2184.864
982.6246, 2224.010
983.1067, 2263.753
983.5888, 2280.742
984.0709, 2286.829
984.5530, 2293.898
985.0352, 2298.941
985.5173, 2326.614
985.9994, 2397.366
986.4815, 2464.596
986.9636, 2495.757
987.4457, 2495.605
987.9279, 2502.013
988.4100, 2515.310
988.8921, 2539.971
989.3742, 2590.148
989.8563, 2642.682
990.3384, 2675.553
990.8206, 2695.478
991.3027, 2728.902
991.7848, 2780.782
992.2669, 2837.653
992.7490, 2899.949
993.2311, 2960.949
993.7133, 3005.472
994.1954, 3039.240
994.6775, 3080.071
995.1596, 3132.776
995.6417, 3190.507
996.1238, 3257.298
996.6060, 3321.080
997.0881, 3369.021
997.5702, 3396.063
998.0523, 3445.664
998.5344, 3522.112
999.0165, 3595.018
999.4987, 3636.044
999.9808, 3665.653
1000.463, 3719.729
1000.945, 3792.409
1001.427, 3852.201
1001.909, 3876.011
1002.391, 3901.947
1002.873, 3941.328
1003.356, 3986.507
1003.838, 4022.744
1004.320, 4050.079
1004.802, 4064.911
1005.284, 4064.879
1005.766, 4058.249
1006.248, 4054.375
1006.730, 4047.090
1007.213, 4029.602
1007.695, 3998.460
1008.177, 3963.505
1008.659, 3926.783
1009.141, 3882.701
1009.623, 3828.958
1010.105, 3765.214
1010.587, 3684.081
1011.069, 3588.687
1011.552, 3495.244
1012.034, 3412.878
1012.516, 3332.353
1012.998, 3256.300
1013.480, 3177.282
1013.962, 3076.709
1014.444, 2947.046
1014.926, 2833.366
1015.409, 2744.043
1015.891, 2670.442
1016.373, 2610.061
1016.855, 2556.194
1017.337, 2498.296
1017.819, 2433.397
1018.301, 2371.643
1018.783, 2307.501
1019.265, 2256.869
1019.748, 2233.224
1020.230, 2231.793
1020.712, 2213.766
1021.194, 2180.837
1021.676, 2149.020
1022.158, 2128.254
1022.640, 2110.932
1023.122, 2094.462
1023.604, 2076.943
1024.087, 2053.918
1024.569, 2021.810
1025.051, 1991.556
1025.533, 1962.019
1026.015, 1940.221
1026.497, 1942.439
1026.979, 1956.724
1027.461, 1956.210
1027.943, 1936.492
1028.426, 1919.308
1028.908, 1918.297
1029.390, 1917.552
1029.872, 1909.577
1030.354, 1895.304
1030.836, 1877.698
1031.318, 1856.877
1031.800, 1844.797
1032.283, 1851.009
1032.765, 1862.150
1033.247, 1868.774
1033.729, 1870.267
1034.211, 1865.602
1034.693, 1855.392
1035.175, 1835.098
1035.657, 1797.946
1036.140, 1764.493
1036.622, 1761.038
1037.104, 1776.534
1037.586, 1776.824
1038.068, 1760.620
1038.550, 1746.930
1039.032, 1748.944
1039.514, 1752.893
1039.996, 1751.217
1040.479, 1746.169
1040.961, 1747.533
1041.443, 1756.023
1041.925, 1759.392
1042.407, 1753.721
1042.889, 1742.696
1043.371, 1724.667
1043.853, 1706.578
1044.335, 1699.198
1044.818, 1714.952
1045.300, 1713.459
1045.782, 1684.781
1046.264, 1654.899
1046.746, 1642.111
1047.228, 1642.435
1047.710, 1643.721
1048.192, 1644.983
1048.675, 1640.917
1049.157, 1626.515
1049.639, 1608.423
1050.121, 1583.662
1050.603, 1559.632
1051.085, 1553.078
1051.567, 1566.656
1052.049, 1568.067
1052.531, 1550.734
1053.014, 1530.525
1053.496, 1528.270
1053.978, 1529.657
1054.460, 1515.360
1054.942, 1480.445
1055.424, 1458.485
1055.906, 1456.641
1056.388, 1458.469
1056.870, 1459.448
1057.353, 1457.710
1057.835, 1445.323
1058.317, 1425.614
1058.799, 1408.847
1059.281, 1397.086
1059.763, 1391.970
1060.245, 1400.331
1060.727, 1411.593
1061.210, 1416.033
1061.692, 1413.571
1062.174, 1403.096
1062.656, 1384.126
1063.138, 1367.041
1063.620, 1360.447
1064.102, 1359.292
1064.584, 1362.104
1065.067, 1367.027
1065.549, 1363.973
1066.031, 1347.228
1066.513, 1335.297
1066.995, 1332.806
1067.477, 1334.902
1067.959, 1333.430
1068.441, 1330.472
1068.923, 1330.109
1069.406, 1332.732
1069.888, 1340.203
1070.370, 1360.666
1070.852, 1378.858
1071.334, 1388.063
1071.816, 1388.149
1072.298, 1375.978
1072.780, 1352.151
1073.262, 1324.917
1073.745, 1287.019
1074.227, 1260.887
1074.709, 1275.461
1075.191, 1308.097
1075.673, 1321.080
1076.155, 1306.952
1076.637, 1289.495
1077.119, 1267.424
1077.601, 1251.693
1078.084, 1257.249
1078.566, 1272.794
1079.048, 1280.197
1079.530, 1279.921
1080.012, 1282.940
1080.494, 1303.711
1080.976, 1312.708
1081.458, 1300.455
1081.941, 1276.996
1082.423, 1259.187
1082.905, 1247.386
1083.387, 1246.212
1083.869, 1259.893
1084.351, 1265.755
1084.833, 1235.840
1085.315, 1206.078
1085.797, 1206.026
1086.280, 1234.301
1086.762, 1236.100
1087.244, 1210.331
1087.726, 1192.849
1088.208, 1207.646
1088.690, 1229.382
1089.172, 1232.635
1089.654, 1224.677
1090.136, 1217.395
1090.619, 1212.524
1091.101, 1209.194
1091.583, 1208.011
1092.065, 1206.560
1092.547, 1202.089
1093.029, 1196.087
1093.511, 1190.246
1093.993, 1185.218
1094.476, 1184.429
1094.958, 1196.779
1095.440, 1203.280
1095.922, 1197.430
1096.404, 1185.801
1096.886, 1178.317
1097.368, 1175.253
1097.850, 1179.309
1098.333, 1191.736
1098.815, 1203.425
1099.297, 1213.094
1099.779, 1215.305
1100.261, 1201.253
1100.743, 1174.098
1101.225, 1164.412
1101.707, 1173.115
1102.189, 1180.469
1102.672, 1179.583
1103.154, 1172.828
1103.636, 1155.192
1104.118, 1136.589
1104.600, 1132.240
1105.082, 1155.317
1105.564, 1163.162
1106.046, 1151.746
1106.528, 1138.255
1107.011, 1135.104
1107.493, 1138.101
1107.975, 1141.110
1108.457, 1143.339
1108.939, 1142.181
1109.421, 1131.830
1109.903, 1125.179
1110.385, 1126.319
1110.868, 1128.813
1111.350, 1124.502
1111.832, 1114.519
1112.314, 1103.365
1112.796, 1091.621
1113.278, 1080.064
1113.760, 1063.295
1114.242, 1053.583
1114.724, 1061.623
1115.207, 1079.602
1115.689, 1083.683
1116.171, 1074.236
1116.653, 1071.424
1117.135, 1082.820
1117.617, 1089.567
1118.099, 1067.110
1118.581, 1037.635
1119.063, 1022.901
1119.546, 1025.381
1120.028, 1025.765
1120.510, 1023.450
1120.992, 1023.318
1121.474, 1031.259
1121.956, 1037.342
1122.438, 1021.861
1122.920, 996.9028
1123.403, 982.8751
1123.885, 993.3376
1124.367, 999.7437
1124.849, 1001.174
1125.331, 1000.138
1125.813, 995.9764
1126.295, 991.6617
1126.777, 999.9514
1127.260, 1015.750
1127.742, 1018.636
1128.224, 987.2048
1128.706, 959.0879
1129.188, 939.2378
1129.670, 928.5321
1130.152, 932.4702
1130.634, 947.3316
1131.116, 954.9549
1131.599, 953.9713
1132.081, 951.0522
1132.563, 949.5923
1133.045, 947.7896
1133.527, 945.8448
1134.009, 942.5368
1134.491, 934.0013
1134.973, 920.4848
1135.455, 903.9872
1135.938, 882.9814
1136.420, 870.4838
1136.902, 892.1187
1137.384, 915.7396
1137.866, 906.4282
1138.348, 865.9348
1138.830, 851.4305
1139.312, 865.3610
1139.795, 880.0640
1140.277, 886.0089
1140.759, 886.0125
1141.241, 877.8827
1141.723, 868.3522
1142.205, 868.3281
1142.687, 885.8763
1143.169, 889.8508
1143.651, 877.6785
1144.134, 861.4959
1144.616, 845.7932
1145.098, 833.3967
1145.580, 829.9623
1146.062, 833.5098
1146.544, 839.3076
1147.026, 857.8008
1147.508, 857.2964
1147.990, 827.3214
1148.473, 797.7992
1148.955, 802.4122
1149.437, 828.4012
1149.919, 853.1110
1150.401, 872.6981
1150.883, 873.0864
1151.365, 816.5679
1151.847, 784.1693
1152.330, 801.0801
1152.812, 839.2042
1153.294, 858.5344
1153.776, 861.8037
1154.258, 856.0302
1154.740, 842.0623
1155.222, 829.3979
1155.704, 823.0886
1156.186, 819.1022
1156.669, 815.5701
1157.151, 812.8072
1157.633, 812.4496
1158.115, 814.0402
1158.597, 813.8399
1159.079, 810.4977
1159.561, 807.9785
1160.043, 807.4900
1160.526, 810.3614
1161.008, 819.5314
1161.490, 833.2571
1161.972, 838.2156
1162.454, 834.6656
1162.936, 828.8792
1163.418, 821.4508
1163.900, 816.4219
1164.382, 816.9719
1164.865, 821.6443
1165.347, 829.9444
1165.829, 842.4995
1166.311, 850.3326
1166.793, 853.4151
1167.275, 852.0410
1167.757, 843.2497
1168.239, 833.6685
1168.721, 832.0912
1169.204, 833.1769
1169.686, 826.9279
1170.168, 807.7279
1170.650, 798.7513
1171.132, 801.1992
1171.614, 807.8779
1172.096, 817.9841
1172.578, 825.8792
1173.061, 822.0098
1173.543, 810.4767
1174.025, 804.1982
1174.507, 807.9478
1174.989, 807.7005
1175.471, 801.8238
1175.953, 793.7731
1176.435, 780.1385
1176.917, 770.5637
1177.400, 785.2128
1177.882, 819.7731
1178.364, 838.6772
1178.846, 830.9185
1179.328, 819.4153
1179.810, 805.3401
1180.292, 795.5070
1180.774, 804.6412
1181.256, 821.3781
1181.739, 825.4234
1182.221, 814.7839
1182.703, 807.2000
1183.185, 806.7888
1183.667, 808.7328
1184.149, 813.0375
1184.631, 816.8752
1185.113, 813.4291
1185.596, 806.3024
1186.078, 802.7596
1186.560, 804.3018
1187.042, 807.6547
1187.524, 816.5299
1188.006, 818.9880
1188.488, 807.3260
1188.970, 789.9326
1189.453, 784.2418
1189.935, 788.7900
1190.417, 802.3384
1190.899, 829.5934
1191.381, 848.2763
1191.863, 851.8597
1192.345, 848.6357
1192.827, 842.4721
1193.309, 832.5827
1193.792, 811.3033
1194.274, 784.3087
1194.756, 768.6173
1195.238, 774.6036
1195.720, 783.8318
1196.202, 794.0937
1196.684, 803.4521
1197.166, 812.5426
1197.648, 819.2711
1198.131, 808.3721
1198.613, 786.2401
1199.095, 776.9346
1199.577, 804.1196
1200.059, 828.1772
1200.541, 843.2755
1201.023, 848.7529
1201.505, 840.0558
1201.988, 820.6077
1202.470, 805.3663
1202.952, 794.5664
1203.434, 788.1473
1203.916, 787.5542
1204.398, 789.4449
1204.880, 792.5862
1205.362, 797.8394
1205.844, 809.4361
1206.327, 824.3729
1206.809, 826.1527
1207.291, 815.6188
1207.773, 807.3132
1208.255, 812.1807
1208.737, 815.9958
1209.219, 815.0018
1209.701, 810.4431
1210.183, 802.0022
1210.666, 791.2831
1211.148, 784.5879
1211.630, 782.6978
1212.112, 788.4247
1212.594, 818.2024
1213.076, 836.4147
1213.558, 827.9613
1214.040, 806.4454
1214.523, 793.1116
1215.005, 787.7285
1215.487, 792.4560
1215.969, 807.6104
1216.451, 817.8161
1216.933, 810.4526
1217.415, 802.4622
1217.897, 799.7480
1218.380, 800.5258
1218.862, 799.8404
1219.344, 799.3306
1219.826, 806.6648
1220.308, 824.0179
1220.790, 837.9155
1221.272, 842.0634
1221.754, 840.8312
1222.236, 834.1385
1222.719, 824.9340
1223.201, 821.7700
1223.683, 822.2194
1224.165, 817.5878
1224.647, 804.8882
1225.129, 794.0100
1225.611, 788.5849
1226.093, 786.6168
1226.575, 787.6697
1227.058, 791.3743
1227.540, 799.2596
1228.022, 808.8148
1228.504, 810.9116
1228.986, 799.4805
1229.468, 797.0707
1229.950, 820.0914
1230.432, 840.1668
1230.915, 843.3521
1231.397, 836.3408
1231.879, 839.0485
1232.361, 846.7722
1232.843, 846.1042
1233.325, 829.5410
1233.807, 816.5685
1234.289, 812.5582
1234.771, 810.1986
1235.254, 805.3876
1235.736, 799.9326
1236.218, 800.9665
1236.700, 804.8274
1237.182, 802.0903
1237.664, 784.3885
1238.146, 774.3234
1238.628, 776.6827
1239.110, 781.1388
1239.593, 780.6459
1240.075, 778.9798
1240.557, 786.8759
1241.039, 800.0632
1241.521, 808.9122
1242.003, 808.6220
1242.485, 807.4504
1242.967, 803.7252
1243.449, 805.1693
1243.932, 822.9664
1244.414, 844.2461
1244.896, 844.1609
1245.378, 830.2192
1245.860, 818.1314
1246.342, 811.1221
1246.824, 807.9857
1247.306, 809.7534
1247.789, 811.6235
1248.271, 808.8093
1248.753, 805.0795
1249.235, 807.6887
1249.717, 813.1071
1250.199, 813.4501
1250.681, 802.0037
1251.163, 801.3381
1251.646, 813.6227
1252.128, 824.4448
1252.610, 820.4292
1253.092, 812.3533
1253.574, 814.2379
1254.056, 820.2467
1254.538, 816.6709
1255.020, 797.4584
1255.502, 793.5660
1255.984, 806.9895
1256.467, 819.9985
1256.949, 816.4811
1257.431, 810.3904
1257.913, 816.6587
1258.395, 827.2408
1258.877, 825.9510
1259.359, 810.2075
1259.841, 803.3558
1260.324, 806.1957
1260.806, 809.8837
1261.288, 806.3859
1261.770, 803.8098
1262.252, 811.5154
1262.734, 821.0096
1263.216, 818.6403
1263.698, 804.4725
1264.181, 796.3452
1264.663, 794.8524
1265.145, 797.3170
1265.627, 806.5043
1266.109, 814.0558
1266.591, 815.7001
1267.073, 814.1024
1267.555, 809.5895
1268.037, 803.6384
1268.520, 811.4905
1269.002, 831.0618
1269.484, 841.0789
1269.966, 820.0363
1270.448, 802.0129
1270.930, 795.3414
1271.412, 795.2408
1271.894, 800.2338
1272.376, 806.7254
1272.859, 797.0398
1273.341, 775.4109
1273.823, 768.0216
1274.305, 802.2768
1274.787, 826.1815
1275.269, 832.2127
1275.751, 828.3561
1276.233, 817.7805
1276.716, 806.0181
1277.198, 805.9570
1277.680, 814.8789
1278.162, 819.1497
1278.644, 816.1719
1279.126, 805.6909
1279.608, 784.5016
1280.090, 768.5612
1280.573, 781.0311
1281.055, 801.4212
1281.537, 801.3499
1282.019, 787.7844
1282.501, 789.4366
1282.983, 813.9021
1283.465, 827.4162
1283.947, 826.7558
1284.429, 818.2870
1284.911, 798.2202
1285.394, 781.1037
1285.876, 782.8211
1286.358, 795.9550
1286.840, 803.4963
1287.322, 805.3983
1287.804, 797.5755
1288.286, 780.0402
1288.768, 775.1943
1289.251, 819.0436
1289.733, 857.0148
1290.215, 853.2053
1290.697, 830.0737
1291.179, 810.9964
1291.661, 796.8011
1292.143, 796.2633
1292.625, 808.0666
1293.108, 815.8326
1293.590, 803.4889
1294.072, 796.7566
1294.554, 806.2555
1295.036, 817.1778
1295.518, 806.3624
1296.000, 785.1805
1296.482, 789.4532
1296.964, 814.7320
1297.447, 831.5195
##END=



