##NAMES=Augite
##RRUFFID=R061086
##IDEAL CHEMISTRY=(Ca,Mg,Fe^2+^,Fe^3+^)_2_(Si,Al)_2_O_6_
##LOCALITY=Boreslav, Teplitz, Bohemia, Czech Republic
##OWNER=RRUFF
##SOURCE=Michael Scott
##DESCRIPTION=Black to dark green tabular euhedral crystal
##STATUS=The identification of this mineral has been confirmed by X-ray diffraction and chemical analysis
##URL=rruff.info/R061086
##MEASURED CHEMISTRY=(Ca_0.88_Mg_0.83_Fe_0.13_Al_0.08_Na_0.04_Ti_0.03_Cr_0.01_)_Σ=2_(Si_1.89_Al_0.11_)_Σ=2_O_6_
180.4476, 28049.64
180.9297, 28059.08
181.4118, 28080.36
181.8939, 28142.63
182.3761, 28196.16
182.8582, 28209.16
183.3403, 28182.09
183.8224, 28146.27
184.3045, 28138.13
184.7866, 28164.54
185.2688, 28175.32
185.7509, 28150.94
186.2330, 28121.39
186.7151, 28094.65
187.1972, 28074.10
187.6793, 28066.83
188.1615, 28092.61
188.6436, 28164.67
189.1257, 28193.76
189.6078, 28116.41
190.0899, 28039.67
190.5720, 28011.87
191.0542, 28035.34
191.5363, 28082.37
192.0184, 28132.30
192.5005, 28189.33
192.9826, 28225.46
193.4647, 28232.30
193.9469, 28223.57
194.4290, 28191.01
194.9111, 28142.09
195.3932, 28104.42
195.8753, 28112.86
196.3574, 28177.95
196.8396, 28223.32
197.3217, 28229.72
197.8038, 28231.25
198.2859, 28243.02
198.7680, 28263.73
199.2501, 28281.52
199.7323, 28279.45
200.2144, 28252.54
200.6965, 28248.13
201.1786, 28282.58
201.6607, 28327.45
202.1428, 28386.24
202.6250, 28449.81
203.1071, 28495.18
203.5892, 28493.50
204.0713, 28439.55
204.5534, 28412.10
205.0355, 28446.50
205.5177, 28475.75
205.9998, 28472.46
206.4819, 28442.65
206.9640, 28407.91
207.4461, 28383.96
207.9282, 28370.54
208.4104, 28363.34
208.8925, 28375.31
209.3746, 28379.59
209.8567, 28357.72
210.3388, 28320.29
210.8209, 28291.00
211.3030, 28287.18
211.7852, 28307.47
212.2673, 28336.13
212.7494, 28386.52
213.2315, 28429.83
213.7136, 28451.41
214.1957, 28460.09
214.6779, 28472.93
215.1600, 28503.57
215.6421, 28547.98
216.1242, 28575.89
216.6063, 28558.70
217.0884, 28565.47
217.5706, 28633.24
218.0527, 28734.02
218.5348, 28825.12
219.0169, 28882.99
219.4990, 28913.52
219.9811, 28937.46
220.4633, 28953.50
220.9454, 28965.23
221.4275, 28962.88
221.9096, 28960.75
222.3917, 28980.04
222.8738, 29034.89
223.3560, 29108.88
223.8381, 29159.66
224.3202, 29182.96
224.8023, 29187.52
225.2844, 29169.91
225.7665, 29139.55
226.2487, 29103.54
226.7308, 29062.95
227.2129, 29023.42
227.6950, 28997.15
228.1771, 28987.41
228.6592, 28981.37
229.1414, 28978.22
229.6235, 28975.36
230.1056, 28971.54
230.5877, 28966.59
231.0698, 28958.26
231.5519, 28942.14
232.0341, 28916.36
232.5162, 28890.95
232.9983, 28860.78
233.4804, 28837.02
233.9625, 28832.22
234.4446, 28849.22
234.9268, 28869.05
235.4089, 28864.38
235.8910, 28830.62
236.3731, 28815.93
236.8552, 28847.44
237.3373, 28888.44
237.8195, 28917.56
238.3016, 28932.57
238.7837, 28940.29
239.2658, 28941.15
239.7479, 28935.60
240.2300, 28944.39
240.7122, 28984.96
241.1943, 29025.48
241.6764, 29042.21
242.1585, 29037.63
242.6406, 29032.04
243.1227, 29042.88
243.6049, 29066.15
244.0870, 29078.51
244.5691, 29072.83
245.0512, 29063.84
245.5333, 29065.79
246.0154, 29074.33
246.4975, 29074.20
246.9797, 29052.44
247.4618, 29016.52
247.9439, 28980.43
248.4260, 28934.78
248.9081, 28912.65
249.3902, 28962.70
249.8724, 29051.65
250.3545, 29110.15
250.8366, 29088.60
251.3187, 29032.72
251.8008, 29013.28
252.2829, 29034.65
252.7651, 29067.17
253.2472, 29103.04
253.7293, 29136.12
254.2114, 29153.84
254.6935, 29142.79
255.1756, 29126.33
255.6578, 29127.98
256.1399, 29147.54
256.6220, 29172.42
257.1041, 29206.48
257.5862, 29236.36
258.0684, 29236.97
258.5505, 29191.69
259.0326, 29144.09
259.5147, 29115.99
259.9968, 29107.90
260.4789, 29128.63
260.9611, 29198.75
261.4432, 29279.94
261.9253, 29294.79
262.4074, 29219.49
262.8895, 29159.96
263.3716, 29178.33
263.8537, 29240.00
264.3358, 29273.42
264.8180, 29255.43
265.3001, 29212.30
265.7822, 29178.42
266.2643, 29151.24
266.7464, 29139.82
267.2285, 29159.88
267.7107, 29190.12
268.1928, 29202.63
268.6749, 29192.04
269.1570, 29177.84
269.6391, 29181.87
270.1212, 29208.87
270.6034, 29229.55
271.0855, 29236.50
271.5676, 29241.74
272.0497, 29256.49
272.5318, 29279.61
273.0139, 29299.47
273.4961, 29306.74
273.9782, 29300.88
274.4603, 29290.82
274.9424, 29270.45
275.4245, 29252.66
275.9066, 29238.55
276.3888, 29231.21
276.8709, 29237.05
277.3530, 29260.66
277.8351, 29300.08
278.3172, 29343.68
278.7993, 29410.05
279.2815, 29459.48
279.7636, 29482.46
280.2457, 29486.16
280.7278, 29473.07
281.2099, 29444.09
281.6920, 29415.77
282.1742, 29427.79
282.6563, 29510.68
283.1384, 29591.13
283.6205, 29686.44
284.1026, 29767.09
284.5847, 29804.77
285.0669, 29795.17
285.5490, 29760.96
286.0311, 29727.21
286.5132, 29682.01
286.9953, 29673.87
287.4774, 29740.40
287.9596, 29809.50
288.4417, 29835.48
288.9238, 29825.09
289.4059, 29821.90
289.8880, 29872.24
290.3701, 29976.66
290.8523, 30047.97
291.3344, 30061.38
291.8165, 30065.25
292.2986, 30077.09
292.7807, 30091.78
293.2628, 30095.56
293.7450, 30071.62
294.2271, 30036.99
294.7092, 30052.17
295.1913, 30145.86
295.6734, 30225.22
296.1555, 30249.97
296.6377, 30244.66
297.1198, 30231.68
297.6019, 30214.66
298.0840, 30202.03
298.5661, 30207.93
299.0482, 30234.30
299.5304, 30258.48
300.0125, 30263.98
300.4946, 30272.53
300.9767, 30311.36
301.4588, 30386.87
301.9409, 30457.23
302.4231, 30489.91
302.9052, 30492.95
303.3873, 30494.99
303.8694, 30496.93
304.3515, 30508.94
304.8336, 30542.95
305.3158, 30596.99
305.7979, 30662.13
306.2800, 30750.18
306.7621, 30841.84
307.2442, 30904.30
307.7263, 30932.54
308.2085, 30963.54
308.6906, 31033.95
309.1727, 31138.28
309.6548, 31212.44
310.1369, 31217.51
310.6190, 31223.36
311.1012, 31284.57
311.5833, 31387.82
312.0654, 31480.46
312.5475, 31532.47
313.0296, 31552.34
313.5117, 31573.35
313.9939, 31586.70
314.4760, 31610.77
314.9581, 31642.84
315.4402, 31689.38
315.9223, 31768.75
316.4044, 31886.84
316.8866, 32013.70
317.3687, 32097.67
317.8508, 32115.36
318.3329, 32130.94
318.8150, 32129.23
319.2971, 32136.08
319.7793, 32172.63
320.2614, 32238.22
320.7435, 32317.09
321.2256, 32397.23
321.7077, 32481.66
322.1898, 32537.45
322.6720, 32537.00
323.1541, 32536.04
323.6362, 32554.28
324.1183, 32584.37
324.6004, 32612.57
325.0826, 32632.88
325.5647, 32642.52
326.0468, 32627.46
326.5289, 32570.23
327.0110, 32523.33
327.4931, 32508.12
327.9753, 32504.18
328.4574, 32492.46
328.9395, 32467.26
329.4216, 32437.49
329.9037, 32413.06
330.3858, 32394.19
330.8680, 32379.55
331.3501, 32388.02
331.8322, 32380.73
332.3143, 32310.82
332.7964, 32184.18
333.2785, 32081.81
333.7606, 32070.60
334.2427, 32117.14
334.7249, 32136.03
335.2070, 32116.45
335.6891, 32081.38
336.1712, 32042.55
336.6533, 32000.99
337.1354, 31960.26
337.6176, 31919.39
338.0997, 31880.34
338.5818, 31845.78
339.0639, 31814.86
339.5460, 31781.68
340.0281, 31737.45
340.5103, 31693.57
340.9924, 31687.54
341.4745, 31751.23
341.9566, 31794.22
342.4387, 31774.61
342.9208, 31725.60
343.4030, 31694.19
343.8851, 31693.48
344.3672, 31706.01
344.8493, 31708.72
345.3314, 31702.14
345.8135, 31681.85
346.2957, 31622.46
346.7778, 31572.16
347.2599, 31570.19
347.7420, 31607.70
348.2241, 31643.06
348.7062, 31640.46
349.1884, 31605.01
349.6705, 31607.91
350.1526, 31702.79
350.6347, 31776.00
351.1168, 31789.44
351.5989, 31776.12
352.0811, 31779.76
352.5632, 31818.93
353.0453, 31872.49
353.5274, 31900.47
354.0095, 31893.55
354.4916, 31894.78
354.9738, 31930.66
355.4559, 31962.90
355.9380, 31957.72
356.4201, 31917.41
356.9022, 31887.38
357.3843, 31914.30
357.8665, 31982.96
358.3486, 32027.53
358.8307, 32039.18
359.3128, 32035.63
359.7949, 32019.71
360.2770, 31997.42
360.7592, 31982.63
361.2413, 31980.62
361.7234, 31985.84
362.2055, 31998.13
362.6876, 32015.72
363.1697, 32022.80
363.6519, 32008.01
364.1340, 31982.51
364.6161, 31974.60
365.0982, 31994.26
365.5803, 32006.02
366.0624, 31980.51
366.5446, 31949.98
367.0267, 31966.71
367.5088, 32039.87
367.9909, 32120.25
368.4730, 32150.48
368.9551, 32120.32
369.4373, 32089.56
369.9194, 32032.07
370.4015, 31999.10
370.8836, 32020.53
371.3657, 32086.36
371.8478, 32176.14
372.3300, 32281.62
372.8121, 32391.48
373.2942, 32460.68
373.7763, 32457.31
374.2584, 32462.53
374.7405, 32489.98
375.2227, 32528.22
375.7048, 32568.46
376.1869, 32608.40
376.6690, 32649.99
377.1511, 32700.24
377.6332, 32759.79
378.1154, 32800.59
378.5975, 32805.39
379.0796, 32809.88
379.5617, 32832.38
380.0438, 32871.11
380.5259, 32921.10
381.0081, 32987.73
381.4902, 33059.75
381.9723, 33115.25
382.4544, 33152.45
382.9365, 33203.66
383.4186, 33292.73
383.9008, 33400.60
384.3829, 33483.48
384.8650, 33527.47
385.3471, 33575.60
385.8292, 33646.66
386.3113, 33733.41
386.7935, 33828.72
387.2756, 33931.48
387.7577, 34026.98
388.2398, 34096.57
388.7219, 34134.01
389.2040, 34176.88
389.6862, 34232.23
390.1683, 34287.14
390.6504, 34345.05
391.1325, 34397.91
391.6146, 34425.89
392.0967, 34416.24
392.5789, 34378.46
393.0610, 34347.02
393.5431, 34340.27
394.0252, 34309.67
394.5073, 34236.04
394.9894, 34149.12
395.4716, 34071.38
395.9537, 34007.48
396.4358, 33948.68
396.9179, 33893.68
397.4000, 33841.88
397.8821, 33756.57
398.3643, 33615.45
398.8464, 33470.44
399.3285, 33347.16
399.8106, 33240.21
400.2927, 33136.31
400.7748, 33014.19
401.2570, 32910.49
401.7391, 32882.56
402.2212, 32924.14
402.7033, 32954.96
403.1854, 32945.37
403.6675, 32906.50
404.1497, 32857.34
404.6317, 32798.14
405.1139, 32729.58
405.5960, 32632.09
406.0781, 32535.96
406.5602, 32477.30
407.0423, 32459.03
407.5244, 32457.45
408.0066, 32455.22
408.4887, 32452.30
408.9708, 32434.06
409.4529, 32384.48
409.9350, 32339.59
410.4171, 32300.38
410.8993, 32274.31
411.3814, 32274.66
411.8635, 32306.06
412.3456, 32352.58
412.8277, 32389.13
413.3098, 32415.29
413.7920, 32433.92
414.2741, 32446.00
414.7562, 32449.55
415.2383, 32434.45
415.7204, 32407.94
416.2025, 32393.76
416.6847, 32417.90
417.1668, 32458.75
417.6489, 32464.89
418.1310, 32430.61
418.6131, 32396.49
419.0952, 32376.50
419.5774, 32371.17
420.0595, 32382.17
420.5416, 32418.19
421.0237, 32446.96
421.5058, 32436.03
421.9879, 32412.81
422.4701, 32433.01
422.9522, 32508.17
423.4343, 32586.56
423.9164, 32616.51
424.3985, 32593.00
424.8806, 32566.04
425.3628, 32523.47
425.8449, 32489.98
426.3270, 32476.78
426.8091, 32478.88
427.2912, 32485.56
427.7733, 32491.77
428.2555, 32503.84
428.7376, 32540.37
429.2197, 32622.86
429.7018, 32672.94
430.1839, 32654.65
430.6660, 32629.12
431.1482, 32632.49
431.6303, 32660.02
432.1124, 32681.15
432.5945, 32668.30
433.0766, 32637.20
433.5587, 32632.20
434.0409, 32659.86
434.5230, 32681.99
435.0051, 32668.78
435.4872, 32646.48
435.9693, 32658.65
436.4514, 32719.54
436.9336, 32778.47
437.4157, 32806.36
437.8978, 32817.79
438.3799, 32841.30
438.8620, 32882.25
439.3441, 32916.19
439.8263, 32918.32
440.3084, 32886.65
440.7905, 32861.79
441.2726, 32832.77
441.7547, 32821.50
442.2368, 32847.87
442.7190, 32893.55
443.2011, 32933.34
443.6832, 32957.21
444.1653, 32968.34
444.6474, 32972.79
445.1295, 32973.43
445.6117, 32957.63
446.0938, 32893.59
446.5759, 32841.59
447.0580, 32833.65
447.5401, 32861.52
448.0222, 32899.05
448.5044, 32935.31
448.9865, 32970.61
449.4686, 33010.04
449.9507, 33054.44
450.4328, 33078.70
450.9149, 33061.34
451.3971, 33029.39
451.8792, 33029.03
452.3613, 33067.03
452.8434, 33097.48
453.3255, 33093.09
453.8076, 33082.46
454.2898, 33099.47
454.7719, 33144.48
455.2540, 33195.39
455.7361, 33238.72
456.2182, 33272.56
456.7003, 33283.82
457.1825, 33242.86
457.6646, 33214.92
458.1467, 33221.01
458.6288, 33235.06
459.1109, 33225.19
459.5930, 33188.18
460.0752, 33155.81
460.5573, 33167.47
461.0394, 33222.48
461.5215, 33266.61
462.0036, 33300.92
462.4857, 33322.73
462.9679, 33323.09
463.4500, 33313.23
463.9321, 33310.46
464.4142, 33320.51
464.8963, 33335.57
465.3784, 33344.72
465.8606, 33353.64
466.3427, 33385.28
466.8248, 33449.61
467.3069, 33515.29
467.7890, 33545.93
468.2711, 33535.00
468.7533, 33534.27
469.2354, 33550.82
469.7175, 33570.07
470.1996, 33587.48
470.6817, 33602.02
471.1638, 33613.09
471.6460, 33620.40
472.1281, 33623.07
472.6102, 33618.47
473.0923, 33602.66
473.5744, 33590.36
474.0565, 33582.00
474.5387, 33577.06
475.0208, 33567.75
475.5029, 33560.89
475.9850, 33577.67
476.4671, 33648.40
476.9492, 33727.67
477.4313, 33727.91
477.9135, 33650.17
478.3956, 33607.23
478.8777, 33653.37
479.3598, 33733.32
479.8419, 33761.76
480.3240, 33736.72
480.8062, 33703.93
481.2883, 33641.69
481.7704, 33598.78
482.2525, 33637.53
482.7346, 33737.78
483.2167, 33820.54
483.6989, 33836.71
484.1810, 33803.76
484.6631, 33777.02
485.1452, 33756.89
485.6273, 33743.97
486.1094, 33738.48
486.5916, 33739.79
487.0737, 33745.19
487.5558, 33756.41
488.0379, 33780.80
488.5200, 33830.13
489.0021, 33894.06
489.4843, 33943.08
489.9664, 33974.75
490.4485, 34006.94
490.9306, 34055.74
491.4127, 34102.39
491.8948, 34113.91
492.3770, 34079.63
492.8591, 34056.33
493.3412, 34079.91
493.8233, 34113.98
494.3054, 34108.41
494.7875, 34066.10
495.2697, 34037.70
495.7518, 34061.88
496.2339, 34125.24
496.7160, 34157.43
497.1981, 34119.18
497.6802, 34104.89
498.1624, 34140.08
498.6445, 34188.02
499.1266, 34221.64
499.6087, 34237.27
500.0908, 34245.46
500.5729, 34253.34
501.0551, 34260.62
501.5372, 34266.42
502.0193, 34270.38
502.5014, 34273.31
502.9835, 34270.99
503.4656, 34270.59
503.9478, 34282.95
504.4299, 34309.95
504.9120, 34343.63
505.3941, 34386.15
505.8762, 34430.91
506.3583, 34477.77
506.8405, 34522.98
507.3226, 34542.98
507.8047, 34516.03
508.2868, 34455.07
508.7689, 34430.00
509.2510, 34459.48
509.7332, 34501.43
510.2153, 34559.59
510.6974, 34623.24
511.1795, 34690.53
511.6616, 34757.52
512.1437, 34810.11
512.6259, 34836.55
513.1080, 34840.23
513.5901, 34825.79
514.0722, 34787.87
514.5543, 34760.52
515.0364, 34752.00
515.5186, 34768.07
516.0007, 34824.76
516.4828, 34940.01
516.9649, 35021.34
517.4470, 35018.30
517.9291, 34982.14
518.4113, 34956.78
518.8934, 34947.77
519.3755, 34951.91
519.8576, 34968.54
520.3397, 34993.93
520.8218, 35014.87
521.3040, 35033.91
521.7861, 35043.13
522.2682, 35028.55
522.7503, 35015.81
523.2324, 35028.31
523.7145, 35061.08
524.1967, 35086.41
524.6788, 35083.31
525.1609, 35063.62
525.6430, 35040.81
526.1251, 35014.33
526.6072, 35023.90
527.0894, 35101.99
527.5715, 35202.07
528.0536, 35244.77
528.5357, 35221.72
529.0178, 35207.98
529.4999, 35229.43
529.9821, 35250.45
530.4642, 35240.54
530.9463, 35209.14
531.4284, 35183.53
531.9105, 35177.92
532.3926, 35186.08
532.8748, 35196.32
533.3569, 35211.11
533.8390, 35220.68
534.3211, 35226.00
534.8032, 35224.30
535.2853, 35207.79
535.7675, 35183.15
536.2496, 35168.06
536.7317, 35174.64
537.2138, 35186.29
537.6959, 35182.65
538.1780, 35168.50
538.6602, 35164.31
539.1423, 35176.89
539.6244, 35193.61
540.1065, 35198.81
540.5886, 35189.80
541.0707, 35191.54
541.5529, 35213.79
542.0350, 35234.30
542.5171, 35244.18
542.9992, 35247.82
543.4813, 35249.01
543.9634, 35249.61
544.4456, 35256.01
544.9277, 35284.88
545.4098, 35334.45
545.8919, 35350.00
546.3740, 35318.14
546.8561, 35278.12
547.3383, 35244.89
547.8204, 35219.36
548.3025, 35203.43
548.7846, 35195.52
549.2667, 35201.40
549.7488, 35232.29
550.2310, 35274.35
550.7131, 35316.14
551.1952, 35353.02
551.6773, 35370.25
552.1594, 35356.08
552.6415, 35314.19
553.1237, 35259.30
553.6058, 35150.77
554.0879, 35101.23
554.5700, 35165.13
555.0521, 35253.20
555.5342, 35304.67
556.0164, 35317.34
556.4985, 35321.13
556.9806, 35332.48
557.4627, 35347.22
557.9448, 35357.07
558.4269, 35362.64
558.9091, 35374.32
559.3912, 35400.00
559.8733, 35424.32
560.3554, 35419.70
560.8375, 35370.18
561.3196, 35355.93
561.8018, 35405.63
562.2839, 35462.22
562.7660, 35505.27
563.2481, 35532.87
563.7302, 35542.44
564.2123, 35533.17
564.6945, 35519.31
565.1766, 35529.21
565.6587, 35564.39
566.1408, 35560.57
566.6229, 35495.09
567.1050, 35425.82
567.5872, 35389.14
568.0693, 35372.52
568.5514, 35352.82
569.0335, 35315.40
569.5156, 35298.81
569.9977, 35331.10
570.4799, 35389.57
570.9620, 35458.68
571.4441, 35528.89
571.9262, 35564.50
572.4083, 35532.33
572.8904, 35450.20
573.3726, 35408.67
573.8547, 35438.42
574.3368, 35451.06
574.8189, 35411.63
575.3010, 35370.38
575.7831, 35358.65
576.2653, 35377.28
576.7474, 35413.53
577.2295, 35483.48
577.7116, 35550.97
578.1937, 35562.66
578.6758, 35528.77
579.1580, 35493.45
579.6401, 35467.62
580.1222, 35465.80
580.6042, 35517.16
581.0864, 35643.04
581.5685, 35695.25
582.0506, 35608.71
582.5327, 35533.45
583.0148, 35529.68
583.4969, 35559.90
583.9791, 35570.66
584.4612, 35547.95
584.9433, 35525.60
585.4254, 35539.43
585.9075, 35582.14
586.3896, 35632.35
586.8718, 35695.32
587.3539, 35725.11
587.8360, 35683.95
588.3181, 35603.24
588.8002, 35555.29
589.2823, 35549.84
589.7645, 35545.79
590.2466, 35532.43
590.7287, 35521.66
591.2108, 35523.68
591.6929, 35535.84
592.1750, 35549.97
592.6572, 35561.92
593.1393, 35571.65
593.6214, 35582.26
594.1035, 35595.55
594.5856, 35586.12
595.0677, 35529.07
595.5499, 35483.50
596.0320, 35509.54
596.5141, 35577.30
596.9962, 35616.09
597.4783, 35592.63
597.9604, 35575.83
598.4426, 35621.22
598.9247, 35680.45
599.4068, 35676.35
599.8889, 35608.30
600.3710, 35548.61
600.8531, 35558.81
601.3353, 35619.11
601.8174, 35634.20
602.2995, 35573.79
602.7816, 35544.20
603.2637, 35588.59
603.7458, 35650.77
604.2280, 35700.21
604.7101, 35735.52
605.1922, 35760.41
605.6743, 35758.21
606.1564, 35762.52
606.6385, 35816.77
607.1207, 35897.86
607.6028, 35947.12
608.0849, 35948.66
608.5670, 35937.63
609.0491, 35954.23
609.5313, 35998.63
610.0134, 36014.98
610.4955, 35982.48
610.9776, 35951.10
611.4597, 35926.57
611.9418, 35910.02
612.4240, 35903.46
612.9061, 35906.55
613.3882, 35914.51
613.8703, 35922.01
614.3524, 35934.45
614.8345, 35967.88
615.3167, 36015.91
615.7988, 36044.96
616.2809, 36041.31
616.7630, 36020.18
617.2451, 36000.19
617.7272, 35977.12
618.2094, 35979.28
618.6915, 36033.48
619.1736, 36082.21
619.6557, 36111.23
620.1378, 36125.64
620.6199, 36130.66
621.1021, 36127.73
621.5842, 36121.20
622.0663, 36106.59
622.5484, 36093.38
623.0305, 36106.54
623.5126, 36144.94
623.9948, 36177.36
624.4769, 36190.40
624.9590, 36187.36
625.4411, 36171.54
625.9232, 36130.36
626.4053, 36114.71
626.8875, 36133.75
627.3696, 36165.70
627.8517, 36213.29
628.3338, 36264.27
628.8159, 36300.28
629.2980, 36315.58
629.7802, 36324.75
630.2623, 36348.30
630.7444, 36375.30
631.2265, 36367.56
631.7086, 36322.25
632.1907, 36288.95
632.6729, 36297.94
633.1550, 36329.68
633.6371, 36339.11
634.1192, 36310.24
634.6013, 36292.72
635.0834, 36285.52
635.5656, 36289.80
636.0477, 36316.64
636.5298, 36352.11
637.0119, 36372.65
637.4940, 36368.80
637.9761, 36355.72
638.4583, 36351.52
638.9404, 36350.43
639.4225, 36329.13
639.9046, 36284.44
640.3867, 36247.16
640.8688, 36235.31
641.3510, 36242.84
641.8331, 36254.25
642.3152, 36268.28
642.7973, 36289.25
643.2794, 36314.03
643.7615, 36348.73
644.2437, 36419.00
644.7258, 36496.47
645.2079, 36522.32
645.6900, 36469.59
646.1721, 36401.96
646.6542, 36375.53
647.1364, 36387.77
647.6185, 36443.88
648.1006, 36545.92
648.5827, 36634.79
649.0648, 36672.03
649.5469, 36676.43
650.0291, 36696.94
650.5112, 36735.71
650.9933, 36788.50
651.4754, 36875.54
651.9575, 36956.08
652.4396, 37010.75
652.9218, 37044.04
653.4039, 37058.12
653.8860, 37048.61
654.3681, 37061.03
654.8502, 37162.49
655.3323, 37315.64
655.8145, 37421.84
656.2966, 37473.05
656.7787, 37514.51
657.2608, 37566.98
657.7429, 37636.57
658.2250, 37743.43
658.7072, 37928.90
659.1893, 38059.45
659.6714, 38099.02
660.1535, 38125.71
660.6356, 38165.39
661.1177, 38217.20
661.5999, 38279.48
662.0820, 38353.46
662.5641, 38422.69
663.0462, 38470.11
663.5283, 38505.00
664.0104, 38557.89
664.4926, 38624.01
664.9747, 38642.65
665.4568, 38576.59
665.9389, 38464.83
666.4210, 38386.32
666.9031, 38350.87
667.3853, 38318.64
667.8674, 38320.39
668.3495, 38289.80
668.8316, 38167.30
669.3137, 38013.96
669.7958, 37923.19
670.2780, 37920.44
670.7601, 37915.64
671.2422, 37853.39
671.7243, 37761.88
672.2064, 37663.25
672.6885, 37565.91
673.1707, 37494.96
673.6528, 37462.28
674.1349, 37443.10
674.6170, 37396.83
675.0991, 37318.50
675.5812, 37250.59
676.0634, 37191.33
676.5455, 37146.79
677.0276, 37118.09
677.5097, 37106.49
677.9918, 37124.95
678.4739, 37178.28
678.9561, 37205.82
679.4382, 37156.79
679.9203, 37099.09
680.4024, 37093.12
680.8845, 37120.50
681.3666, 37139.21
681.8488, 37134.54
682.3309, 37114.24
682.8130, 37084.15
683.2951, 37045.22
683.7772, 37004.02
684.2593, 36949.44
684.7415, 36936.43
685.2236, 37021.69
685.7057, 37120.54
686.1878, 37106.88
686.6699, 36981.49
687.1520, 36909.04
687.6342, 36955.73
688.1163, 37007.14
688.5984, 37009.09
689.0805, 36988.09
689.5626, 36981.38
690.0447, 36994.07
690.5269, 37001.81
691.0090, 36975.99
691.4911, 36939.93
691.9732, 36966.88
692.4553, 37054.66
692.9374, 37085.93
693.4196, 37016.86
693.9017, 36928.75
694.3838, 36898.41
694.8659, 36923.44
695.3480, 36948.41
695.8301, 36988.16
696.3123, 37007.95
696.7944, 36947.97
697.2765, 36910.44
697.7586, 37025.33
698.2407, 37242.00
698.7228, 37366.58
699.2050, 37272.89
699.6871, 37119.73
700.1692, 37068.60
700.6513, 37094.78
701.1334, 37149.95
701.6155, 37222.83
702.0977, 37269.05
702.5798, 37254.19
703.0619, 37196.43
703.5440, 37153.27
704.0261, 37123.02
704.5082, 37110.97
704.9904, 37123.78
705.4725, 37148.13
705.9546, 37189.82
706.4367, 37235.03
706.9188, 37257.91
707.4009, 37250.09
707.8831, 37233.75
708.3652, 37213.39
708.8473, 37193.87
709.3294, 37178.00
709.8115, 37167.34
710.2936, 37165.81
710.7758, 37175.09
711.2579, 37190.92
711.7400, 37210.94
712.2221, 37234.69
712.7042, 37243.23
713.1863, 37232.23
713.6685, 37223.83
714.1506, 37233.94
714.6327, 37245.24
715.1148, 37223.89
715.5969, 37161.30
716.0790, 37131.05
716.5612, 37163.22
717.0433, 37198.97
717.5254, 37208.89
718.0075, 37213.40
718.4896, 37247.01
718.9717, 37309.38
719.4539, 37355.86
719.9360, 37342.99
720.4181, 37305.15
720.9002, 37299.86
721.3823, 37320.62
721.8644, 37337.98
722.3465, 37344.91
722.8286, 37342.82
723.3107, 37331.18
723.7928, 37312.07
724.2750, 37299.85
724.7571, 37293.13
725.2392, 37295.72
725.7213, 37312.29
726.2034, 37334.38
726.6855, 37363.05
727.1677, 37393.16
727.6498, 37411.16
728.1319, 37405.40
728.6140, 37405.11
729.0961, 37426.32
729.5782, 37459.65
730.0604, 37508.81
730.5425, 37561.16
731.0246, 37577.36
731.5067, 37536.70
731.9888, 37475.95
732.4709, 37448.65
732.9531, 37453.48
733.4352, 37469.91
733.9173, 37499.28
734.3994, 37532.46
734.8815, 37572.27
735.3636, 37605.98
735.8458, 37608.93
736.3279, 37570.00
736.8100, 37547.54
737.2921, 37562.81
737.7742, 37568.92
738.2563, 37532.39
738.7385, 37489.96
739.2206, 37488.12
739.7027, 37528.56
740.1848, 37568.06
740.6669, 37580.79
741.1490, 37579.99
741.6312, 37590.78
742.1133, 37598.30
742.5954, 37540.22
743.0775, 37412.62
743.5596, 37331.72
744.0417, 37403.25
744.5239, 37577.64
745.0060, 37673.38
745.4881, 37672.84
745.9702, 37665.37
746.4523, 37654.59
746.9344, 37650.13
747.4166, 37659.76
747.8987, 37680.62
748.3808, 37708.25
748.8629, 37759.70
749.3450, 37778.82
749.8271, 37722.21
750.3093, 37661.82
750.7914, 37643.88
751.2735, 37658.50
751.7556, 37682.72
752.2377, 37709.15
752.7198, 37739.72
753.2020, 37782.50
753.6841, 37828.19
754.1662, 37860.46
754.6483, 37878.37
755.1304, 37875.70
755.6125, 37849.06
756.0947, 37813.42
756.5768, 37780.80
757.0589, 37753.01
757.5410, 37779.94
758.0231, 37905.11
758.5052, 37985.36
758.9874, 37953.48
759.4695, 37903.36
759.9516, 37907.36
760.4337, 37954.29
760.9158, 37999.75
761.3979, 38050.72
761.8801, 38078.33
762.3622, 38051.60
762.8443, 38014.59
763.3264, 38007.45
763.8085, 38025.27
764.2906, 38045.07
764.7728, 38057.18
765.2549, 38065.41
765.7370, 38072.96
766.2191, 38080.65
766.7012, 38085.43
767.1833, 38089.00
767.6655, 38119.55
768.1476, 38194.85
768.6297, 38269.39
769.1118, 38270.84
769.5939, 38192.48
770.0760, 38174.08
770.5582, 38251.83
771.0403, 38321.75
771.5224, 38341.91
772.0045, 38357.00
772.4866, 38429.07
772.9688, 38539.93
773.4509, 38574.41
773.9330, 38408.03
774.4151, 38292.96
774.8972, 38377.75
775.3793, 38514.05
775.8615, 38552.36
776.3436, 38508.55
776.8257, 38483.21
777.3078, 38527.14
777.7899, 38592.28
778.2720, 38629.05
778.7542, 38642.12
779.2363, 38636.43
779.7184, 38615.17
780.2005, 38607.11
780.6826, 38626.34
781.1647, 38656.34
781.6469, 38674.00
782.1290, 38679.16
782.6111, 38669.06
783.0932, 38629.51
783.5753, 38604.38
784.0574, 38602.36
784.5396, 38622.32
785.0217, 38675.63
785.5038, 38755.30
785.9859, 38808.58
786.4680, 38807.96
786.9501, 38808.57
787.4323, 38820.93
787.9144, 38844.96
788.3965, 38893.89
788.8786, 38953.52
789.3607, 38986.75
789.8428, 38974.34
790.3250, 38953.61
790.8071, 38970.36
791.2892, 38998.72
791.7713, 38982.61
792.2534, 38928.92
792.7355, 38880.66
793.2177, 38854.61
793.6998, 38867.63
794.1819, 38959.86
794.6640, 39119.58
795.1461, 39166.23
795.6282, 39066.18
796.1104, 38999.29
796.5925, 39024.70
797.0746, 39076.97
797.5567, 39094.87
798.0388, 39083.08
798.5209, 39087.50
799.0031, 39113.92
799.4852, 39146.96
799.9673, 39209.82
800.4494, 39255.43
800.9315, 39235.37
801.4136, 39181.80
801.8958, 39160.53
802.3779, 39192.82
802.8600, 39233.79
803.3421, 39256.32
803.8242, 39275.09
804.3063, 39300.36
804.7885, 39335.24
805.2706, 39397.76
805.7527, 39486.57
806.2348, 39546.86
806.7169, 39509.46
807.1990, 39422.40
807.6812, 39439.13
808.1633, 39550.90
808.6454, 39590.26
809.1275, 39513.57
809.6096, 39445.28
810.0917, 39485.53
810.5739, 39598.42
811.0560, 39665.47
811.5381, 39671.85
812.0202, 39671.27
812.5023, 39656.34
812.9844, 39646.00
813.4666, 39657.60
813.9487, 39674.08
814.4308, 39672.10
814.9129, 39649.00
815.3950, 39625.25
815.8771, 39584.81
816.3593, 39568.45
816.8414, 39621.82
817.3235, 39692.41
817.8056, 39723.96
818.2877, 39711.76
818.7698, 39676.79
819.2520, 39621.31
819.7341, 39568.61
820.2162, 39544.58
820.6983, 39540.13
821.1804, 39545.01
821.6625, 39553.66
822.1447, 39539.48
822.6268, 39488.00
823.1089, 39447.34
823.5910, 39509.46
824.0731, 39661.78
824.5552, 39723.96
825.0374, 39684.85
825.5195, 39638.45
826.0016, 39609.21
826.4837, 39593.51
826.9658, 39587.00
827.4479, 39590.04
827.9301, 39612.04
828.4122, 39686.94
828.8943, 39721.42
829.3764, 39665.87
829.8585, 39609.93
830.3406, 39599.31
830.8228, 39621.54
831.3049, 39654.49
831.7870, 39699.52
832.2691, 39736.54
832.7512, 39764.20
833.2333, 39777.53
833.7155, 39758.00
834.1976, 39730.20
834.6797, 39739.79
835.1618, 39786.40
835.6439, 39808.68
836.1260, 39746.39
836.6082, 39670.33
837.0903, 39676.11
837.5724, 39728.73
838.0545, 39753.31
838.5366, 39742.23
839.0187, 39720.64
839.5009, 39701.71
839.9830, 39689.75
840.4651, 39688.68
840.9472, 39699.29
841.4293, 39745.33
841.9114, 39834.12
842.3936, 39891.53
842.8757, 39886.59
843.3578, 39854.02
843.8399, 39829.39
844.3220, 39813.15
844.8041, 39810.98
845.2863, 39829.66
845.7684, 39849.27
846.2505, 39866.29
846.7326, 39885.28
847.2147, 39914.56
847.6968, 39946.59
848.1790, 39966.95
848.6611, 39977.46
849.1432, 39967.11
849.6253, 39920.74
850.1074, 39867.34
850.5895, 39802.15
851.0717, 39749.39
851.5538, 39745.89
852.0359, 39790.38
852.5180, 39839.43
853.0001, 39873.36
853.4822, 39899.24
853.9644, 39923.73
854.4465, 39943.10
854.9286, 39941.73
855.4107, 39928.70
855.8928, 39945.33
856.3749, 40012.70
856.8571, 40081.00
857.3392, 40075.55
857.8213, 40022.63
858.3034, 40009.52
858.7855, 40033.48
859.2676, 40044.93
859.7498, 40028.06
860.2319, 40020.66
860.7140, 40063.71
861.1961, 40140.88
861.6782, 40179.68
862.1603, 40176.32
862.6425, 40152.03
863.1245, 40092.48
863.6066, 40055.38
864.0887, 40081.03
864.5709, 40141.20
865.0530, 40184.75
865.5351, 40211.98
866.0172, 40219.65
866.4993, 40178.83
866.9814, 40155.17
867.4636, 40183.83
867.9457, 40216.82
868.4278, 40204.81
868.9099, 40158.84
869.3920, 40137.73
869.8741, 40180.75
870.3563, 40197.42
870.8384, 40101.61
871.3205, 40025.22
871.8026, 40100.63
872.2847, 40251.90
872.7668, 40344.14
873.2490, 40343.64
873.7311, 40310.20
874.2132, 40274.16
874.6953, 40230.23
875.1774, 40152.53
875.6595, 40071.74
876.1417, 40049.80
876.6238, 40083.70
877.1059, 40112.85
877.5880, 40099.93
878.0701, 40086.96
878.5522, 40149.35
879.0344, 40256.04
879.5165, 40307.38
879.9986, 40305.30
880.4807, 40307.42
880.9628, 40334.16
881.4449, 40352.33
881.9271, 40321.29
882.4092, 40258.40
882.8913, 40249.37
883.3734, 40302.37
883.8555, 40314.89
884.3376, 40260.27
884.8198, 40216.34
885.3019, 40233.40
885.7840, 40282.85
886.2661, 40304.50
886.7482, 40287.85
887.2303, 40305.18
887.7125, 40380.41
888.1946, 40447.57
888.6767, 40501.52
889.1588, 40529.89
889.6409, 40503.34
890.1230, 40437.51
890.6052, 40404.71
891.0873, 40425.50
891.5694, 40448.92
892.0515, 40474.90
892.5336, 40496.94
893.0157, 40518.84
893.4979, 40530.77
893.9800, 40512.19
894.4621, 40462.21
894.9442, 40423.22
895.4263, 40408.63
895.9084, 40410.50
896.3906, 40437.07
896.8727, 40468.19
897.3548, 40477.95
897.8369, 40473.70
898.3190, 40485.96
898.8011, 40528.52
899.2833, 40562.51
899.7654, 40549.36
900.2475, 40517.58
900.7296, 40491.41
901.2117, 40476.64
901.6938, 40494.19
902.1760, 40539.50
902.6581, 40561.51
903.1402, 40518.54
903.6223, 40453.77
904.1044, 40432.12
904.5865, 40442.54
905.0687, 40462.65
905.5508, 40485.43
906.0329, 40469.92
906.5150, 40399.74
906.9971, 40340.25
907.4792, 40376.21
907.9614, 40480.72
908.4435, 40540.88
908.9256, 40556.86
909.4077, 40565.88
909.8898, 40572.05
910.3719, 40588.67
910.8541, 40627.67
911.3362, 40671.00
911.8183, 40678.54
912.3004, 40643.78
912.7825, 40632.90
913.2646, 40647.64
913.7468, 40680.71
914.2289, 40737.84
914.7110, 40798.85
915.1931, 40849.74
915.6752, 40888.63
916.1573, 40906.41
916.6395, 40913.93
917.1216, 40876.93
917.6037, 40735.39
918.0858, 40630.51
918.5679, 40640.56
919.0500, 40702.83
919.5322, 40754.93
920.0143, 40796.20
920.4964, 40807.99
920.9785, 40752.32
921.4606, 40719.90
921.9427, 40726.89
922.4249, 40760.53
922.9070, 40836.99
923.3891, 40925.14
923.8712, 40967.17
924.3533, 40949.66
924.8354, 40935.07
925.3176, 40940.94
925.7997, 40954.68
926.2818, 40988.89
926.7639, 41013.63
927.2460, 40975.87
927.7281, 40902.08
928.2103, 40885.32
928.6924, 40971.00
929.1745, 41051.11
929.6566, 41058.61
930.1387, 41037.33
930.6208, 41009.65
931.1030, 40987.77
931.5851, 41003.80
932.0672, 41048.97
932.5493, 41052.44
933.0314, 40958.01
933.5135, 40850.76
933.9957, 40806.01
934.4778, 40806.58
934.9599, 40850.13
935.4420, 40914.05
935.9241, 40939.45
936.4063, 40911.91
936.8884, 40883.65
937.3705, 40905.00
937.8526, 40943.48
938.3347, 40937.88
938.8168, 40908.74
939.2990, 40917.23
939.7811, 40961.77
940.2632, 40989.38
940.7453, 40975.63
941.2274, 40954.99
941.7095, 40972.23
942.1917, 41015.12
942.6738, 41057.72
943.1559, 41094.16
943.6380, 41071.07
944.1201, 40982.27
944.6022, 40910.49
945.0844, 40907.98
945.5665, 40950.93
946.0486, 41011.56
946.5307, 41085.71
947.0128, 41108.54
947.4949, 41079.48
947.9771, 41050.45
948.4592, 41035.83
948.9413, 41021.76
949.4234, 40994.21
949.9055, 40965.00
950.3876, 40968.39
950.8698, 41006.92
951.3519, 41054.91
951.8340, 41117.96
952.3161, 41153.23
952.7982, 41139.23
953.2803, 41109.65
953.7625, 41097.18
954.2446, 41100.09
954.7267, 41109.99
955.2088, 41124.91
955.6909, 41157.42
956.1730, 41224.64
956.6552, 41263.21
957.1373, 41230.83
957.6194, 41177.52
958.1015, 41163.74
958.5836, 41189.63
959.0657, 41257.07
959.5479, 41426.85
960.0300, 41490.24
960.5121, 41350.90
960.9942, 41224.40
961.4763, 41238.70
961.9584, 41323.24
962.4406, 41369.51
962.9227, 41376.71
963.4048, 41348.68
963.8869, 41216.92
964.3690, 41162.20
964.8511, 41277.28
965.3333, 41401.37
965.8154, 41432.98
966.2975, 41404.73
966.7796, 41378.71
967.2617, 41349.82
967.7438, 41344.89
968.2260, 41392.96
968.7081, 41425.89
969.1902, 41406.00
969.6723, 41387.60
970.1544, 41436.05
970.6365, 41513.50
971.1187, 41508.68
971.6008, 41372.68
972.0829, 41297.61
972.5650, 41354.02
973.0471, 41411.71
973.5292, 41396.47
974.0114, 41390.77
974.4935, 41500.82
974.9756, 41684.36
975.4577, 41786.77
975.9398, 41768.27
976.4219, 41720.02
976.9041, 41614.04
977.3862, 41535.98
977.8683, 41546.04
978.3504, 41586.58
978.8325, 41592.60
979.3146, 41571.12
979.7968, 41577.15
980.2789, 41636.33
980.7610, 41692.36
981.2431, 41741.70
981.7252, 41771.40
982.2073, 41744.72
982.6895, 41713.79
983.1716, 41753.96
983.6537, 41856.51
984.1358, 41930.94
984.6179, 41931.87
985.1000, 41940.12
985.5822, 41999.73
986.0643, 42057.17
986.5464, 42069.23
987.0285, 42061.88
987.5106, 42072.77
987.9927, 42104.41
988.4749, 42134.47
988.9570, 42162.13
989.4391, 42175.86
989.9212, 42154.27
990.4033, 42134.30
990.8854, 42139.68
991.3676, 42166.27
991.8497, 42208.08
992.3318, 42262.63
992.8139, 42321.28
993.2960, 42379.86
993.7781, 42444.12
994.2603, 42524.47
994.7424, 42603.95
995.2245, 42664.73
995.7066, 42717.01
996.1887, 42772.98
996.6708, 42836.80
997.1530, 42919.91
997.6351, 43057.05
998.1172, 43172.54
998.5993, 43197.89
999.0814, 43215.78
999.5635, 43293.61
1000.046, 43415.07
1000.528, 43550.48
1001.010, 43691.57
1001.492, 43823.86
1001.974, 43939.91
1002.456, 44046.98
1002.938, 44163.23
1003.420, 44258.95
1003.903, 44287.85
1004.385, 44286.17
1004.867, 44320.29
1005.349, 44402.38
1005.831, 44494.05
1006.313, 44596.30
1006.795, 44681.82
1007.277, 44719.55
1007.759, 44751.69
1008.242, 44851.61
1008.724, 44958.86
1009.206, 44943.30
1009.688, 44786.47
1010.170, 44644.29
1010.652, 44602.86
1011.134, 44565.40
1011.616, 44501.71
1012.099, 44409.45
1012.581, 44274.33
1013.063, 44113.96
1013.545, 43957.34
1014.027, 43810.41
1014.509, 43660.17
1014.991, 43472.26
1015.473, 43318.38
1015.955, 43276.84
1016.438, 43237.05
1016.920, 43074.64
1017.402, 42865.20
1017.884, 42761.35
1018.366, 42785.24
1018.848, 42797.15
1019.330, 42693.90
1019.812, 42645.37
1020.294, 42835.68
1020.777, 42987.64
1021.259, 42821.01
1021.741, 42505.81
1022.223, 42345.93
1022.705, 42380.30
1023.187, 42397.72
1023.669, 42306.31
1024.151, 42233.19
1024.634, 42224.59
1025.116, 42240.30
1025.598, 42267.91
1026.080, 42294.17
1026.562, 42307.62
1027.044, 42305.68
1027.526, 42273.89
1028.008, 42181.02
1028.490, 42098.45
1028.973, 42025.09
1029.455, 41984.94
1029.937, 42013.14
1030.419, 42071.03
1030.901, 42104.39
1031.383, 42110.90
1031.865, 42125.10
1032.347, 42184.51
1032.830, 42203.23
1033.312, 42120.91
1033.794, 42050.19
1034.276, 42066.70
1034.758, 42113.77
1035.240, 42106.30
1035.722, 42049.18
1036.204, 42048.43
1036.687, 42190.84
1037.169, 42263.54
1037.651, 42184.20
1038.133, 42120.19
1038.615, 42143.29
1039.097, 42209.62
1039.579, 42289.21
1040.061, 42375.24
1040.543, 42416.00
1041.026, 42397.14
1041.508, 42357.34
1041.990, 42270.52
1042.472, 42203.18
1042.954, 42179.88
1043.436, 42183.71
1043.918, 42210.04
1044.400, 42248.72
1044.882, 42249.02
1045.365, 42186.44
1045.847, 42157.44
1046.329, 42180.63
1046.811, 42194.66
1047.293, 42174.54
1047.775, 42151.38
1048.257, 42147.36
1048.739, 42165.04
1049.222, 42225.46
1049.704, 42357.55
1050.186, 42355.93
1050.668, 42172.97
1051.150, 42047.86
1051.632, 42052.38
1052.114, 42094.15
1052.596, 42110.75
1053.078, 42105.21
1053.561, 42075.07
1054.043, 42019.20
1054.525, 42031.12
1055.007, 42121.48
1055.489, 42140.46
1055.971, 42048.06
1056.453, 41972.01
1056.935, 41994.25
1057.417, 42068.72
1057.900, 42133.57
1058.382, 42182.34
1058.864, 42157.07
1059.346, 42065.86
1059.828, 42023.48
1060.310, 42045.27
1060.792, 42057.00
1061.274, 42019.95
1061.757, 41986.38
1062.239, 42034.57
1062.721, 42122.40
1063.203, 42124.47
1063.685, 42065.75
1064.167, 42042.92
1064.649, 42060.61
1065.131, 42075.85
1065.614, 42072.30
1066.096, 42063.41
1066.578, 42059.16
1067.060, 42061.56
1067.542, 42085.78
1068.024, 42113.22
1068.506, 42097.55
1068.988, 42052.04
1069.470, 42028.89
1069.953, 42038.36
1070.435, 42040.14
1070.917, 42005.18
1071.399, 41958.25
1071.881, 41906.00
1072.363, 41870.63
1072.845, 41892.34
1073.327, 41945.19
1073.809, 41987.05
1074.292, 42008.45
1074.774, 42007.16
1075.256, 41969.67
1075.738, 41958.96
1076.220, 42048.45
1076.702, 42140.97
1077.184, 42163.59
1077.666, 42148.35
1078.148, 42123.15
1078.631, 42099.73
1079.113, 42099.15
1079.595, 42132.10
1080.077, 42155.39
1080.559, 42144.03
1081.041, 42134.20
1081.523, 42159.28
1082.005, 42173.84
1082.488, 42121.30
1082.970, 42037.63
1083.452, 42002.01
1083.934, 42026.85
1084.416, 42044.24
1084.898, 42057.75
1085.380, 42050.08
1085.862, 41984.43
1086.344, 41939.97
1086.827, 41970.63
1087.309, 42031.16
1087.791, 42066.18
1088.273, 42075.84
1088.755, 42056.94
1089.237, 41986.66
1089.719, 41953.93
1090.201, 41972.91
1090.683, 42004.48
1091.166, 42040.21
1091.648, 42067.09
1092.130, 42069.27
1092.612, 42056.29
1093.094, 42066.95
1093.576, 42105.09
1094.058, 42077.43
1094.540, 41975.23
1095.023, 41958.30
1095.505, 42072.88
1095.987, 42161.32
1096.469, 42109.58
1096.951, 42005.94
1097.433, 42010.75
1097.915, 42087.31
1098.397, 42071.59
1098.880, 41988.10
1099.362, 41946.33
1099.844, 41959.25
1100.326, 41994.22
1100.808, 42035.47
1101.290, 42059.36
1101.772, 42025.11
1102.254, 41981.76
1102.736, 42016.93
1103.219, 42084.42
1103.701, 42107.89
1104.183, 42092.68
1104.665, 42066.44
1105.147, 42040.04
1105.629, 42027.04
1106.111, 42038.70
1106.593, 42056.61
1107.075, 42075.15
1107.558, 42086.37
1108.040, 42066.05
1108.522, 42045.09
1109.004, 42083.68
1109.486, 42163.73
1109.968, 42186.73
1110.450, 42102.90
1110.932, 42056.29
1111.415, 42143.71
1111.897, 42200.94
1112.379, 42123.77
1112.861, 42032.48
1113.343, 42022.48
1113.825, 42068.97
1114.307, 42123.14
1114.789, 42189.12
1115.271, 42209.62
1115.754, 42149.74
1116.236, 42118.87
1116.718, 42148.91
1117.200, 42165.48
1117.682, 42126.63
1118.164, 42071.75
1118.646, 42038.47
1119.128, 42033.35
1119.610, 42110.57
1120.093, 42284.39
1120.575, 42328.06
1121.057, 42222.25
1121.539, 42155.93
1122.021, 42184.31
1122.503, 42230.27
1122.985, 42240.91
1123.467, 42218.33
1123.950, 42144.82
1124.432, 42046.81
1124.914, 42018.74
1125.396, 42042.08
1125.878, 42054.48
1126.360, 42049.14
1126.842, 42049.74
1127.324, 42065.34
1127.807, 42073.64
1128.289, 42054.00
1128.771, 42019.88
1129.253, 41972.67
1129.735, 41929.81
1130.217, 41908.03
1130.699, 41909.14
1131.181, 41950.35
1131.663, 42020.15
1132.146, 42040.24
1132.628, 41945.99
1133.110, 41891.68
1133.592, 41986.54
1134.074, 42077.68
1134.556, 42090.67
1135.038, 42058.60
1135.520, 41979.99
1136.002, 41890.19
1136.485, 41889.31
1136.967, 42010.26
1137.449, 42075.06
1137.931, 42053.79
1138.413, 42033.66
1138.895, 42025.61
1139.377, 42020.67
1139.859, 42013.43
1140.342, 42009.13
1140.824, 42013.12
1141.306, 42026.50
1141.788, 42063.95
1142.270, 42127.99
1142.752, 42130.05
1143.234, 42065.70
1143.716, 42020.07
1144.198, 42016.09
1144.681, 42034.91
1145.163, 42065.49
1145.645, 42095.66
1146.127, 42110.65
1146.609, 42110.65
1147.091, 42092.00
1147.573, 42060.43
1148.055, 42019.74
1148.537, 41979.67
1149.020, 41966.81
1149.502, 41989.21
1149.984, 42029.08
1150.466, 42101.44
1150.948, 42143.65
1151.430, 42084.59
1151.912, 42004.52
1152.394, 41946.84
1152.877, 41926.98
1153.359, 41979.05
1153.841, 42084.42
1154.323, 42159.39
1154.805, 42184.15
1155.287, 42193.55
1155.769, 42176.14
1156.251, 42165.31
1156.734, 42174.23
1157.216, 42181.85
1157.698, 42173.04
1158.180, 42158.56
1158.662, 42157.27
1159.144, 42166.77
1159.626, 42155.38
1160.108, 42118.04
1160.590, 42111.59
1161.073, 42143.10
1161.555, 42174.16
1162.037, 42193.66
1162.519, 42187.12
1163.001, 42141.31
1163.483, 42075.54
1163.965, 42007.16
1164.447, 41950.66
1164.929, 41937.72
1165.412, 41966.75
1165.894, 42057.43
1166.376, 42184.36
1166.858, 42262.15
1167.340, 42263.40
1167.822, 42238.50
1168.304, 42200.89
1168.786, 42177.97
1169.269, 42210.48
1169.751, 42241.34
1170.233, 42214.47
1170.715, 42165.08
1171.197, 42129.21
1171.679, 42116.10
1172.161, 42150.28
1172.643, 42267.71
1173.125, 42317.98
1173.608, 42234.05
1174.090, 42183.87
1174.572, 42209.27
1175.054, 42248.49
1175.536, 42273.44
1176.018, 42285.89
1176.500, 42286.56
1176.982, 42277.90
1177.464, 42273.33
1177.947, 42272.57
1178.429, 42250.75
1178.911, 42210.76
1179.393, 42234.61
1179.875, 42335.07
1180.357, 42392.07
1180.839, 42330.47
1181.321, 42236.48
1181.804, 42210.39
1182.286, 42214.64
1182.768, 42198.92
1183.250, 42175.79
1183.732, 42168.79
1184.214, 42169.88
1184.696, 42147.24
1185.178, 42101.86
1185.661, 42092.53
1186.143, 42163.90
1186.625, 42223.18
1187.107, 42229.51
1187.589, 42231.00
1188.071, 42274.94
1188.553, 42296.75
1189.035, 42201.90
1189.517, 42070.46
1190.000, 42067.52
1190.482, 42195.82
1190.964, 42268.82
1191.446, 42279.21
1191.928, 42267.59
1192.410, 42234.33
1192.892, 42202.83
1193.374, 42180.08
1193.856, 42182.77
1194.339, 42227.48
1194.821, 42289.51
1195.303, 42336.80
1195.785, 42365.55
1196.267, 42354.81
1196.749, 42323.79
1197.231, 42325.44
1197.713, 42348.18
1198.196, 42326.42
1198.678, 42246.43
1199.160, 42189.02
1199.642, 42216.06
1200.124, 42239.98
1200.606, 42193.80
1201.088, 42159.74
1201.570, 42221.01
1202.052, 42291.81
1202.535, 42259.59
1203.017, 42167.46
1203.499, 42156.47
1203.981, 42239.12
1204.463, 42268.57
1204.945, 42225.88
1205.427, 42189.26
1205.909, 42160.98
1206.391, 42176.79
1206.874, 42256.34
1207.356, 42335.08
1207.838, 42354.45
1208.320, 42341.41
1208.802, 42355.36
1209.284, 42373.51
1209.766, 42309.82
1210.248, 42208.27
1210.731, 42193.89
1211.213, 42252.49
1211.695, 42277.92
1212.177, 42240.77
1212.659, 42216.87
1213.141, 42264.90
1213.623, 42302.18
1214.105, 42271.60
1214.588, 42238.75
1215.070, 42258.53
1215.552, 42281.55
1216.034, 42239.68
1216.516, 42167.31
1216.998, 42157.12
1217.480, 42214.25
1217.962, 42228.65
1218.444, 42184.99
1218.927, 42167.28
1219.409, 42186.46
1219.891, 42205.46
1220.373, 42211.36
1220.855, 42214.34
1221.337, 42223.01
1221.819, 42229.20
1222.301, 42206.16
1222.783, 42180.71
1223.266, 42223.83
1223.748, 42295.97
1224.230, 42319.09
1224.712, 42302.43
1225.194, 42287.84
1225.676, 42287.47
1226.158, 42305.82
1226.640, 42363.89
1227.122, 42395.33
1227.605, 42356.13
1228.087, 42314.77
1228.569, 42289.42
1229.051, 42284.05
1229.533, 42317.92
1230.015, 42355.14
1230.497, 42327.46
1230.979, 42249.33
1231.462, 42263.20
1231.944, 42375.50
1232.426, 42407.60
1232.908, 42353.24
1233.390, 42299.45
1233.872, 42268.66
1234.354, 42254.47
1234.836, 42254.73
1235.318, 42234.00
1235.801, 42129.61
1236.283, 42014.57
1236.765, 41946.72
1237.247, 41933.91
1237.729, 42026.61
1238.211, 42155.48
1238.693, 42212.66
1239.175, 42198.16
1239.657, 42178.96
1240.140, 42162.32
1240.622, 42153.28
1241.104, 42145.76
1241.586, 42159.67
1242.068, 42212.42
1242.550, 42245.69
1243.032, 42226.29
1243.514, 42204.14
1243.997, 42232.48
1244.479, 42286.36
1244.961, 42305.39
1245.443, 42303.49
1245.925, 42350.79
1246.407, 42414.10
1246.889, 42368.87
1247.371, 42243.64
1247.854, 42193.07
1248.336, 42254.96
1248.818, 42297.42
1249.300, 42227.66
1249.782, 42183.73
1250.264, 42271.60
1250.746, 42344.80
1251.228, 42302.74
1251.710, 42243.24
1252.193, 42263.68
1252.675, 42303.84
1253.157, 42253.94
1253.639, 42130.69
1254.121, 42100.22
1254.603, 42169.15
1255.085, 42185.11
1255.567, 42143.89
1256.049, 42138.05
1256.532, 42183.36
1257.014, 42205.53
1257.496, 42166.32
1257.978, 42131.16
1258.460, 42184.72
1258.942, 42234.65
1259.424, 42175.50
1259.906, 42083.97
1260.389, 42020.84
1260.871, 41981.39
1261.353, 41955.00
1261.835, 41940.06
1262.317, 41936.45
1262.799, 41945.15
1263.281, 41955.07
1263.763, 41950.25
1264.245, 42009.86
1264.728, 42168.21
1265.210, 42239.73
1265.692, 42154.57
1266.174, 42061.15
1266.656, 42068.53
1267.138, 42118.20
1267.620, 42142.39
1268.102, 42146.36
1268.584, 42128.97
1269.067, 42104.66
1269.549, 42099.55
1270.031, 42108.91
##END=



