##NAMES=Aurichalcite
##RRUFFID=R050297
##IDEAL CHEMISTRY=Zn^2+^_5_(CO_3_)_2_(OH)_6_
##LOCALITY=79 mine, 4th level, Hayden, Gila County, Arizona, USA
##OWNER=RRUFF
##SOURCE=George Godas, John Callahan
##DESCRIPTION=Sprays of greenish blue lathlike crystals
##STATUS=The identification of this mineral has been confirmed by X-ray diffraction and chemical analysis
##URL=rruff.info/R050297
##MEASURED CHEMISTRY=(Zn_0.68_Cu_0.32_)_5_(CO_3_)_2_(OH)_6_
114.5309, 32.75469
115.0130, 33.98549
115.4951, 35.35216
115.9772, 37.04146
116.4594, 39.06355
116.9415, 41.15217
117.4236, 43.20942
117.9057, 45.28436
118.3878, 47.42013
118.8699, 49.58558
119.3521, 51.87456
119.8342, 54.55046
120.3163, 57.69478
120.7984, 60.47948
121.2805, 62.06844
121.7626, 62.97663
122.2448, 64.08449
122.7269, 66.11394
123.2090, 68.39294
123.6911, 70.21191
124.1732, 71.41565
124.6553, 72.49649
125.1375, 73.97282
125.6196, 75.72156
126.1017, 77.35306
126.5838, 78.63210
127.0659, 79.63979
127.5480, 80.48824
128.0302, 81.13551
128.5123, 81.76602
128.9944, 82.59944
129.4765, 83.63369
129.9586, 84.84932
130.4407, 86.20475
130.9229, 87.72165
131.4050, 89.49004
131.8871, 91.45596
132.3692, 93.69868
132.8513, 96.37678
133.3334, 99.33961
133.8156, 102.1990
134.2977, 105.0950
134.7798, 108.3641
135.2619, 111.4378
135.7440, 114.1438
136.2261, 116.5457
136.7083, 119.3386
137.1904, 122.7523
137.6725, 125.8978
138.1546, 127.8477
138.6367, 128.4874
139.1188, 128.7364
139.6010, 128.9187
140.0831, 129.0427
140.5652, 128.3844
141.0473, 126.9415
141.5294, 124.7515
142.0115, 121.8077
142.4937, 117.8516
142.9758, 113.6921
143.4579, 109.4424
143.9400, 105.0403
144.4221, 100.8959
144.9042, 96.90298
145.3864, 93.19933
145.8685, 90.13226
146.3506, 87.89904
146.8327, 85.97375
147.3148, 84.13014
147.7969, 82.16613
148.2791, 80.76059
148.7612, 80.12138
149.2433, 80.01390
149.7254, 79.89834
150.2075, 79.71049
150.6896, 79.57291
151.1718, 79.53042
151.6539, 79.59224
152.1360, 79.73394
152.6181, 79.92251
153.1002, 80.18439
153.5823, 80.59840
154.0645, 81.16039
154.5466, 81.88277
155.0287, 82.77173
155.5108, 84.02295
155.9929, 85.21950
156.4750, 86.18656
156.9572, 87.00896
157.4393, 88.01634
157.9214, 89.30296
158.4035, 90.78812
158.8856, 92.42366
159.3677, 94.16994
159.8499, 96.10051
160.3320, 98.37096
160.8141, 100.9038
161.2962, 103.2427
161.7783, 104.9754
162.2604, 106.5446
162.7426, 108.3156
163.2247, 110.4064
163.7068, 112.7119
164.1889, 115.4334
164.6710, 118.4929
165.1531, 121.1456
165.6353, 123.0796
166.1174, 124.3969
166.5995, 125.2066
167.0816, 125.1668
167.5637, 124.9150
168.0458, 125.0410
168.5280, 125.5455
169.0101, 125.5651
169.4922, 124.3043
169.9743, 122.2669
170.4564, 120.1599
170.9385, 118.0924
171.4207, 116.1850
171.9028, 114.5423
172.3849, 113.1786
172.8670, 112.0322
173.3491, 110.9530
173.8312, 110.0484
174.3134, 109.5233
174.7955, 109.9445
175.2776, 110.5926
175.7597, 110.5348
176.2418, 109.6636
176.7239, 108.6043
177.2061, 108.5409
177.6882, 108.8446
178.1703, 107.8215
178.6524, 103.6110
179.1345, 97.79283
179.6166, 93.05288
180.0988, 89.56357
180.5809, 86.77192
181.0630, 84.25973
181.5451, 81.94905
182.0272, 79.63662
182.5093, 76.92013
182.9915, 74.10559
183.4736, 72.07307
183.9557, 70.96729
184.4378, 70.25406
184.9199, 69.12331
185.4020, 67.67282
185.8842, 66.45206
186.3663, 65.95767
186.8484, 65.98099
187.3305, 65.76137
187.8126, 65.19290
188.2947, 64.49236
188.7769, 63.92920
189.2590, 63.50631
189.7411, 63.29289
190.2232, 63.39302
190.7053, 63.76638
191.1874, 64.15668
191.6696, 64.55042
192.1517, 64.94912
192.6338, 65.44682
193.1159, 66.05621
193.5980, 66.44223
194.0801, 66.17663
194.5623, 65.33444
195.0444, 65.01969
195.5265, 65.40398
196.0086, 66.25886
196.4907, 67.18074
196.9728, 68.18374
197.4550, 69.13262
197.9371, 69.95723
198.4192, 70.65759
198.9013, 71.20905
199.3834, 71.54155
199.8655, 71.79140
200.3477, 72.29960
200.8298, 73.08979
201.3119, 74.03454
201.7940, 75.17278
202.2761, 76.55021
202.7582, 77.57957
203.2404, 78.11440
203.7225, 78.34217
204.2046, 78.82887
204.6867, 79.67265
205.1688, 80.44394
205.6509, 80.81453
206.1331, 80.71174
206.6152, 80.73498
207.0973, 81.02885
207.5794, 81.43343
208.0615, 81.45152
208.5436, 81.03742
209.0258, 80.35571
209.5079, 79.41654
209.9900, 78.11291
210.4721, 77.09834
210.9542, 76.53796
211.4363, 76.26255
211.9185, 75.68204
212.4006, 74.70020
212.8827, 73.61137
213.3648, 72.63528
213.8469, 71.82773
214.3290, 70.86716
214.8112, 69.63436
215.2933, 68.25494
215.7754, 67.13847
216.2575, 66.32671
216.7396, 65.69512
217.2217, 65.21710
217.7038, 64.98343
218.1860, 64.61540
218.6681, 64.02198
219.1502, 63.28888
219.6323, 62.76626
220.1144, 62.59209
220.5965, 62.40093
221.0787, 61.92773
221.5608, 60.94323
222.0429, 60.32000
222.5250, 60.21579
223.0071, 60.50060
223.4892, 60.70770
223.9714, 60.82354
224.4535, 60.88825
224.9356, 60.92045
225.4177, 60.90971
225.8998, 60.90780
226.3819, 61.00236
226.8641, 61.09783
227.3462, 60.79796
227.8283, 59.77781
228.3104, 58.85738
228.7925, 58.53632
229.2746, 59.25254
229.7568, 59.56505
230.2389, 59.36327
230.7210, 58.73782
231.2031, 57.92978
231.6852, 56.71090
232.1673, 55.64737
232.6495, 55.07536
233.1316, 55.32598
233.6137, 55.30598
234.0958, 54.81987
234.5779, 54.08446
235.0600, 53.77515
235.5422, 54.29759
236.0243, 54.65376
236.5064, 54.32967
236.9885, 52.83155
237.4706, 51.75676
237.9527, 51.24589
238.4349, 51.13509
238.9170, 51.05315
239.3991, 51.09082
239.8812, 51.02098
240.3633, 50.70976
240.8454, 49.97200
241.3276, 49.47369
241.8097, 49.38899
242.2918, 49.48555
242.7739, 49.22263
243.2560, 48.33778
243.7381, 47.49950
244.2203, 46.97640
244.7024, 46.89186
245.1845, 46.77698
245.6666, 46.62156
246.1487, 46.44118
246.6308, 46.24883
247.1130, 45.98073
247.5951, 45.80699
248.0772, 45.82959
248.5593, 46.15562
249.0414, 46.27613
249.5235, 46.10316
250.0057, 45.77956
250.4878, 45.54820
250.9699, 45.49607
251.4520, 45.37484
251.9341, 45.04810
252.4162, 44.40957
252.8984, 44.10462
253.3805, 44.28595
253.8626, 44.68460
254.3447, 44.89153
254.8268, 44.81010
255.3089, 44.74261
255.7911, 44.79185
256.2732, 44.98125
256.7553, 45.08590
257.2374, 45.07058
257.7195, 45.00536
258.2017, 44.96686
258.6838, 44.93812
259.1659, 44.97683
259.6480, 45.11883
260.1301, 45.36843
260.6122, 45.57622
261.0944, 45.75019
261.5765, 45.87305
262.0586, 45.91289
262.5407, 45.83065
263.0228, 45.76737
263.5049, 45.71717
263.9871, 45.68732
264.4692, 45.88959
264.9513, 46.41272
265.4334, 47.02858
265.9155, 47.55172
266.3976, 47.97034
266.8798, 48.29967
267.3619, 48.51201
267.8440, 48.62694
268.3261, 48.77423
268.8082, 48.93175
269.2903, 49.16623
269.7725, 49.56046
270.2546, 50.15365
270.7367, 50.70831
271.2188, 51.20992
271.7009, 51.63986
272.1830, 51.89842
272.6652, 51.93031
273.1473, 51.93620
273.6294, 52.09045
274.1115, 52.44075
274.5936, 52.60588
275.0757, 52.45160
275.5579, 52.15628
276.0400, 52.28415
276.5221, 52.92084
277.0042, 53.63258
277.4863, 54.22003
277.9684, 54.69076
278.4506, 54.87730
278.9327, 54.66102
279.4148, 54.29057
279.8969, 54.39960
280.3790, 55.08013
280.8611, 55.59678
281.3433, 55.42013
281.8254, 54.55716
282.3075, 54.07415
282.7896, 54.06098
283.2717, 54.29791
283.7538, 54.50254
284.2360, 54.67921
284.7181, 54.72197
285.2002, 54.52996
285.6823, 54.13234
286.1644, 53.79224
286.6465, 53.51958
287.1287, 53.27865
287.6108, 53.00214
288.0929, 52.69561
288.5750, 52.47680
289.0571, 52.49875
289.5392, 52.64573
290.0214, 52.38633
290.5035, 51.68088
290.9856, 50.91201
291.4677, 50.49334
291.9498, 50.37873
292.4319, 50.29641
292.9141, 50.18115
293.3962, 50.03443
293.8783, 49.83089
294.3604, 49.57042
294.8425, 49.34778
295.3246, 49.26601
295.8068, 49.29174
296.2889, 49.32775
296.7710, 49.39473
297.2531, 49.40953
297.7352, 49.11919
298.2173, 48.57055
298.6995, 48.15682
299.1816, 48.37513
299.6637, 48.91984
300.1458, 49.10481
300.6279, 48.71140
301.1100, 48.13464
301.5922, 47.78944
302.0743, 47.66457
302.5564, 47.71587
303.0385, 48.01274
303.5206, 48.43683
304.0027, 48.85553
304.4849, 49.27116
304.9670, 49.58247
305.4491, 49.59269
305.9312, 49.41143
306.4133, 49.30164
306.8954, 49.53395
307.3776, 49.82839
307.8597, 49.85655
308.3418, 49.57639
308.8239, 49.29365
309.3060, 49.23771
309.7881, 49.32794
310.2703, 49.43787
310.7524, 49.57654
311.2345, 49.67362
311.7166, 49.60165
312.1987, 49.37140
312.6808, 49.27679
313.1630, 49.66682
313.6451, 50.21004
314.1272, 50.55212
314.6093, 50.41154
315.0914, 50.19461
315.5735, 50.03823
316.0557, 49.95135
316.5378, 49.98345
317.0199, 50.36750
317.5020, 50.75468
317.9841, 50.87629
318.4662, 50.47488
318.9484, 50.09294
319.4305, 49.93085
319.9126, 49.92532
320.3947, 49.90995
320.8768, 49.79752
321.3589, 49.69298
321.8411, 49.63585
322.3232, 49.60382
322.8053, 49.68914
323.2874, 50.09602
323.7695, 50.59735
324.2516, 50.83344
324.7338, 50.23498
325.2159, 49.83623
325.6980, 50.13396
326.1801, 51.43650
326.6622, 52.13214
327.1443, 51.55836
327.6265, 50.57268
328.1086, 50.03587
328.5907, 50.30954
329.0728, 50.65363
329.5549, 51.09462
330.0370, 51.63793
330.5192, 51.71485
331.0013, 50.94155
331.4834, 50.02895
331.9655, 49.47880
332.4476, 49.62062
332.9297, 49.54401
333.4119, 49.02763
333.8940, 48.21857
334.3761, 47.80224
334.8582, 47.98805
335.3403, 48.24533
335.8224, 48.29319
336.3046, 48.03166
336.7867, 47.85770
337.2688, 47.79409
337.7509, 47.80849
338.2330, 47.85932
338.7151, 47.98348
339.1973, 48.02477
339.6794, 47.87720
340.1615, 47.52749
340.6436, 47.33319
341.1257, 47.33322
341.6078, 47.40977
342.0899, 47.42161
342.5721, 47.36649
343.0542, 47.28046
343.5363, 47.14016
344.0184, 46.98119
344.5005, 46.94082
344.9826, 47.01589
345.4648, 47.23598
345.9469, 47.73504
346.4290, 48.46631
346.9111, 48.97875
347.3932, 49.10102
347.8753, 49.08199
348.3575, 49.48084
348.8396, 50.25425
349.3217, 50.93703
349.8038, 51.15939
350.2859, 51.05366
350.7680, 50.90598
351.2502, 50.72242
351.7323, 50.60378
352.2144, 50.73915
352.6965, 51.05064
353.1786, 51.29877
353.6607, 51.35070
354.1429, 51.28033
354.6250, 51.15785
355.1071, 50.98571
355.5892, 50.81276
356.0713, 50.63161
356.5534, 50.48445
357.0356, 50.43543
357.5177, 50.64393
357.9998, 50.84523
358.4819, 50.86869
358.9640, 50.72293
359.4461, 50.44941
359.9283, 49.76011
360.4104, 49.11743
360.8925, 48.95095
361.3746, 49.64657
361.8567, 50.32462
362.3388, 50.63951
362.8210, 50.67144
363.3031, 50.61192
363.7852, 50.29119
364.2673, 50.07569
364.7494, 50.19295
365.2315, 50.78667
365.7137, 51.26927
366.1958, 51.41225
366.6779, 51.41981
367.1600, 51.53336
367.6421, 51.81736
368.1242, 52.17055
368.6064, 52.59457
369.0885, 53.09485
369.5706, 53.57477
370.0527, 53.93811
370.5348, 54.35836
371.0169, 54.96931
371.4991, 55.94627
371.9812, 56.80296
372.4633, 57.46173
372.9454, 57.98270
373.4275, 58.56788
373.9096, 59.26868
374.3918, 59.95663
374.8739, 60.54009
375.3560, 60.98010
375.8381, 61.52338
376.3202, 62.17992
376.8023, 62.91768
377.2845, 63.65363
377.7666, 64.34547
378.2487, 65.25693
378.7308, 66.60131
379.2129, 68.27102
379.6950, 69.33676
380.1772, 69.72482
380.6593, 69.93305
381.1414, 70.31714
381.6235, 70.88828
382.1056, 71.87270
382.5877, 73.51092
383.0699, 75.30868
383.5520, 76.10662
384.0341, 76.01964
384.5162, 76.14127
384.9983, 77.41021
385.4804, 79.36124
385.9626, 81.07241
386.4447, 82.48017
386.9268, 83.49825
387.4089, 83.76032
387.8910, 83.55848
388.3731, 83.54403
388.8553, 84.26211
389.3374, 85.14065
389.8195, 85.61024
390.3016, 85.67679
390.7837, 85.65961
391.2658, 85.91866
391.7480, 86.12537
392.2301, 85.93407
392.7122, 85.16531
393.1943, 84.10474
393.6764, 82.75861
394.1585, 81.20775
394.6407, 79.70815
395.1228, 78.47380
395.6049, 77.20631
396.0870, 75.70903
396.5691, 73.87473
397.0512, 72.11987
397.5334, 70.57852
398.0155, 69.13438
398.4976, 67.66251
398.9797, 66.01157
399.4618, 64.46506
399.9439, 63.09011
400.4261, 61.88578
400.9082, 60.71148
401.3903, 59.51274
401.8724, 58.39394
402.3545, 57.42117
402.8366, 56.63875
403.3188, 55.93271
403.8009, 55.32980
404.2830, 54.78556
404.7651, 54.14890
405.2472, 53.34245
405.7293, 52.68481
406.2115, 52.36527
406.6936, 52.39954
407.1757, 52.33522
407.6578, 52.19527
408.1399, 51.89307
408.6220, 51.13984
409.1042, 49.95398
409.5863, 49.21931
410.0684, 49.33002
410.5505, 49.91494
411.0326, 50.08216
411.5147, 49.84285
411.9969, 49.54013
412.4790, 49.41361
412.9611, 49.40492
413.4432, 49.37940
413.9253, 49.31867
414.4074, 49.24119
414.8896, 49.09989
415.3717, 48.95302
415.8538, 48.94052
416.3359, 49.33322
416.8180, 49.75914
417.3001, 49.83252
417.7823, 49.55650
418.2644, 49.26307
418.7465, 48.99204
419.2286, 48.86209
419.7107, 49.00564
420.1928, 49.67913
420.6750, 50.32997
421.1571, 50.82453
421.6392, 51.14582
422.1213, 51.23529
422.6034, 50.55007
423.0855, 50.08187
423.5677, 50.34984
424.0498, 51.67808
424.5319, 52.70898
425.0140, 53.18380
425.4961, 53.39647
425.9782, 53.63625
426.4604, 53.84512
426.9425, 54.18137
427.4246, 54.79927
427.9067, 55.61452
428.3888, 55.94230
428.8709, 55.52000
429.3531, 55.07469
429.8352, 55.06090
430.3173, 55.60245
430.7994, 55.92031
431.2815, 55.92778
431.7636, 55.81056
432.2458, 55.91154
432.7279, 56.24999
433.2100, 56.46648
433.6921, 56.39288
434.1742, 56.10443
434.6563, 55.86443
435.1385, 55.66954
435.6206, 55.51659
436.1027, 55.40385
436.5848, 55.33052
437.0669, 55.31803
437.5490, 55.41177
438.0312, 55.46437
438.5133, 55.17426
438.9954, 54.68797
439.4775, 54.41167
439.9596, 54.84577
440.4417, 55.39953
440.9239, 55.46663
441.4060, 55.01245
441.8881, 54.60088
442.3702, 54.49821
442.8523, 54.62339
443.3344, 54.90181
443.8166, 55.44002
444.2987, 55.97951
444.7808, 56.47992
445.2629, 56.92566
445.7450, 57.27470
446.2271, 57.33156
446.7093, 57.44333
447.1914, 57.74668
447.6735, 58.29053
448.1556, 58.89207
448.6377, 59.63672
449.1198, 60.37549
449.6020, 60.92371
450.0841, 61.05841
450.5662, 61.46008
451.0483, 62.32204
451.5304, 63.52855
452.0125, 64.51797
452.4947, 65.23316
452.9768, 65.93301
453.4589, 66.76766
453.9410, 67.74716
454.4231, 68.78909
454.9052, 69.95299
455.3874, 71.02242
455.8695, 71.64706
456.3516, 71.88982
456.8337, 72.20034
457.3158, 72.77785
457.7979, 73.46805
458.2801, 73.98736
458.7622, 74.35386
459.2443, 74.71062
459.7264, 75.26148
460.2085, 75.81776
460.6906, 76.12675
461.1728, 76.14509
461.6549, 75.95763
462.1370, 75.60287
462.6191, 75.08690
463.1012, 74.42365
463.5833, 73.53580
464.0655, 72.57822
464.5476, 71.57430
465.0297, 70.54466
465.5118, 69.60133
465.9939, 68.97762
466.4760, 68.31825
466.9582, 67.39328
467.4403, 65.75094
467.9224, 64.62239
468.4045, 64.53194
468.8866, 64.75512
469.3687, 64.18815
469.8509, 62.26539
470.3330, 60.60351
470.8151, 59.63240
471.2972, 59.28054
471.7793, 58.76568
472.2614, 57.99095
472.7436, 57.30528
473.2257, 57.10807
473.7078, 57.41353
474.1899, 57.11441
474.6720, 55.98002
475.1541, 54.62605
475.6363, 54.02154
476.1184, 54.06255
476.6005, 54.08228
477.0826, 53.73955
477.5647, 53.25988
478.0468, 53.03371
478.5290, 53.03880
479.0111, 53.07313
479.4932, 53.00804
479.9753, 52.88645
480.4574, 52.74905
480.9395, 52.59074
481.4217, 52.45856
481.9038, 52.34858
482.3859, 52.29197
482.8680, 52.33746
483.3501, 52.67056
483.8322, 52.94305
484.3144, 52.98167
484.7965, 52.80189
485.2786, 52.68583
485.7607, 52.67138
486.2428, 52.73453
486.7249, 52.87484
487.2071, 53.16903
487.6892, 53.36203
488.1713, 53.36053
488.6534, 53.32370
489.1355, 53.51163
489.6176, 54.02658
490.0998, 54.46735
490.5819, 54.71025
491.0640, 54.81163
491.5461, 55.08317
492.0282, 55.55596
492.5103, 55.98713
492.9925, 56.15682
493.4746, 56.12343
493.9567, 56.17430
494.4388, 56.33540
494.9209, 56.55488
495.4030, 56.82041
495.8852, 57.09937
496.3673, 57.32109
496.8494, 57.48994
497.3315, 57.55455
497.8136, 57.41677
498.2957, 57.11416
498.7779, 56.80964
499.2600, 56.58596
499.7421, 56.38886
500.2242, 56.19636
500.7063, 56.01971
501.1884, 55.77456
501.6706, 55.24094
502.1527, 54.71509
502.6348, 54.50666
503.1169, 55.07354
503.5990, 55.46526
504.0811, 55.63100
504.5633, 55.55539
505.0454, 55.11575
505.5275, 54.03585
506.0096, 53.08327
506.4917, 52.62337
506.9738, 52.70618
507.4560, 52.59098
507.9381, 52.21070
508.4202, 51.47032
508.9023, 51.71708
509.3844, 51.77723
509.8665, 51.66081
510.3487, 50.83890
510.8308, 50.92796
511.3129, 50.65197
511.7950, 50.36099
512.2772, 50.57823
512.7593, 49.85898
513.2414, 50.06819
513.7235, 49.90676
514.2056, 49.91497
514.6877, 49.55588
515.1699, 49.31017
515.6520, 49.43197
516.1341, 49.35029
516.6162, 48.95887
517.0983, 48.82630
517.5804, 48.29174
518.0626, 47.58631
518.5447, 47.08940
519.0268, 47.08381
519.5089, 47.05499
519.9910, 46.91373
520.4731, 46.66003
520.9553, 46.26702
521.4374, 45.60271
521.9195, 45.00294
522.4016, 44.69023
522.8837, 44.74031
523.3658, 44.68982
523.8480, 44.51564
524.3301, 44.28242
524.8122, 44.08774
525.2943, 43.92778
525.7764, 43.70739
526.2585, 43.36513
526.7407, 42.99025
527.2228, 42.76068
527.7049, 42.65316
528.1870, 42.53795
528.6691, 42.36570
529.1512, 42.12522
529.6334, 41.73833
530.1155, 41.18809
530.5976, 40.76674
531.0797, 40.72819
531.5618, 40.86108
532.0439, 40.95811
532.5261, 40.95050
533.0082, 40.92788
533.4903, 40.92986
533.9724, 40.93092
534.4545, 40.87661
534.9366, 40.75899
535.4188, 40.58459
535.9009, 40.28330
536.3830, 39.86444
536.8651, 39.78600
537.3472, 40.24412
537.8293, 40.65847
538.3115, 40.54026
538.7936, 39.82881
539.2757, 39.51267
539.7578, 39.72546
540.2399, 40.09899
540.7220, 40.13527
541.2042, 39.88274
541.6863, 39.62198
542.1684, 39.43154
542.6505, 39.28133
543.1326, 39.12746
543.6147, 38.97520
544.0969, 38.84191
544.5790, 38.78501
545.0611, 38.72243
545.5432, 38.54641
546.0253, 38.23977
546.5074, 38.02796
546.9896, 38.12428
547.4717, 38.29051
547.9538, 38.33509
548.4359, 38.19316
548.9180, 37.97001
549.4001, 37.54936
549.8823, 37.09002
550.3644, 36.88008
550.8465, 37.06778
551.3286, 37.22253
551.8107, 37.22849
552.2928, 37.10791
552.7750, 37.02195
553.2571, 36.97298
553.7392, 36.94458
554.2213, 36.96399
554.7034, 37.00759
555.1855, 36.89999
555.6677, 36.61133
556.1498, 36.33119
556.6319, 36.29619
557.1140, 36.41563
557.5961, 36.51133
558.0782, 36.55235
558.5604, 36.51916
559.0425, 36.38939
559.5246, 36.17379
560.0067, 35.89531
560.4888, 35.24594
560.9709, 34.82660
561.4531, 35.09889
561.9352, 36.06840
562.4173, 36.69167
562.8994, 36.52907
563.3815, 36.22724
563.8636, 36.11681
564.3458, 36.31889
564.8279, 36.38139
565.3100, 36.25811
565.7921, 36.05498
566.2742, 35.88667
566.7563, 35.74645
567.2385, 35.71059
567.7206, 35.83290
568.2027, 36.02275
568.6848, 36.07806
569.1669, 36.01168
569.6490, 35.91199
570.1312, 35.79463
570.6133, 35.68608
571.0954, 35.65342
571.5775, 35.68979
572.0596, 35.68284
572.5417, 35.48185
573.0239, 35.25070
573.5060, 35.13642
573.9881, 35.18624
574.4702, 35.29084
574.9523, 35.50278
575.4344, 35.72215
575.9166, 35.82021
576.3987, 35.71677
576.8808, 35.58540
577.3629, 35.38952
577.8450, 35.18385
578.3271, 35.17933
578.8093, 35.46208
579.2914, 35.68759
579.7735, 35.69103
580.2556, 35.50264
580.7377, 35.32805
581.2198, 35.16170
581.7020, 35.07778
582.1841, 35.24006
582.6662, 35.52142
583.1483, 35.58045
583.6304, 35.33399
584.1125, 35.07024
584.5947, 35.09992
585.0768, 35.26165
585.5589, 35.31531
586.0410, 34.97211
586.5231, 34.73886
587.0052, 34.96050
587.4873, 35.46443
587.9694, 35.78217
588.4515, 35.76864
588.9337, 35.61263
589.4158, 35.27024
589.8979, 34.73845
590.3800, 34.58746
590.8621, 35.00821
591.3442, 35.47240
591.8264, 35.61958
592.3085, 35.00107
592.7906, 35.44283
593.2727, 35.66521
593.7548, 35.68033
594.2369, 34.84988
594.7191, 35.12469
595.2012, 34.96477
595.6833, 34.79262
596.1654, 35.23973
596.6475, 34.56235
597.1296, 35.01143
597.6118, 35.01902
598.0939, 35.23719
598.5760, 35.01789
599.0581, 34.94136
599.5402, 35.31414
600.0223, 35.44722
600.5045, 35.20028
600.9866, 35.46655
601.4687, 34.83215
601.9508, 34.99908
602.4329, 35.51507
602.9150, 35.31964
603.3972, 35.62327
603.8793, 35.74489
604.3614, 35.01874
604.8435, 35.78297
605.3256, 35.20146
605.8077, 34.88506
606.2899, 34.82758
606.7720, 34.98424
607.2541, 35.15137
607.7362, 35.26407
608.2183, 35.33877
608.7004, 35.39635
609.1826, 35.43214
609.6647, 35.42810
610.1468, 35.32136
610.6289, 35.21605
611.1110, 35.23406
611.5931, 35.38987
612.0753, 35.35931
612.5574, 34.70685
613.0395, 34.14320
613.5216, 34.11411
614.0037, 34.96171
614.4858, 35.44761
614.9680, 35.45763
615.4501, 35.26011
615.9322, 35.14736
616.4143, 35.12046
616.8964, 35.16980
617.3785, 35.33108
617.8607, 35.49754
618.3428, 35.42566
618.8249, 35.17718
619.3070, 35.01113
619.7891, 35.17780
620.2712, 35.39288
620.7534, 35.33368
621.2355, 35.05464
621.7176, 34.80860
622.1997, 34.68031
622.6818, 34.65176
623.1639, 34.76326
623.6461, 35.05783
624.1282, 35.19992
624.6103, 35.02143
625.0924, 34.79851
625.5745, 34.69694
626.0566, 34.73471
626.5388, 34.86139
627.0209, 35.12635
627.5030, 35.39101
627.9851, 35.45768
628.4672, 35.33219
628.9493, 35.13047
629.4315, 34.83229
629.9136, 34.55575
630.3957, 34.48361
630.8778, 34.58660
631.3599, 34.78038
631.8420, 35.21947
632.3242, 35.57603
632.8063, 35.54426
633.2884, 35.18257
633.7705, 34.82581
634.2526, 34.49292
634.7347, 34.27753
635.2169, 34.26064
635.6990, 34.48797
636.1811, 34.63591
636.6632, 34.63786
637.1453, 34.64466
637.6274, 34.79882
638.1096, 35.14680
638.5917, 35.31249
639.0738, 35.25264
639.5559, 35.08778
640.0380, 34.92972
640.5201, 34.78824
641.0023, 34.71785
641.4844, 34.75591
641.9665, 34.82009
642.4486, 34.81073
642.9307, 34.76133
643.4128, 34.74468
643.8950, 34.83401
644.3771, 34.92242
644.8592, 34.96370
645.3413, 34.96185
645.8234, 34.94502
646.3055, 34.90887
646.7877, 34.86716
647.2698, 34.81776
647.7519, 34.75896
648.2340, 34.72466
648.7161, 34.70128
649.1982, 34.73825
649.6804, 34.93524
650.1625, 35.26020
650.6446, 35.38561
651.1267, 35.27863
651.6088, 35.10024
652.0909, 35.05657
652.5731, 35.05016
653.0552, 34.86775
653.5373, 34.34330
654.0194, 33.92106
654.5015, 33.91350
654.9836, 34.16744
655.4658, 34.45609
655.9479, 34.82839
656.4300, 35.10569
656.9121, 35.18849
657.3942, 35.15590
657.8763, 35.23261
658.3585, 35.49026
658.8406, 35.69312
659.3227, 35.78048
659.8048, 35.75149
660.2869, 35.51613
660.7690, 35.06083
661.2512, 34.74862
661.7333, 34.94895
662.2154, 35.41381
662.6975, 35.68507
663.1796, 35.74693
663.6617, 35.70289
664.1439, 35.53416
664.6260, 35.34599
665.1081, 35.22850
665.5902, 35.20153
666.0723, 35.23432
666.5544, 35.34799
667.0366, 35.50507
667.5187, 35.69414
668.0008, 36.09497
668.4829, 36.11525
668.9650, 35.55109
669.4471, 34.79740
669.9293, 34.50012
670.4114, 34.66386
670.8935, 34.87930
671.3756, 35.07155
671.8577, 35.20740
672.3398, 35.15785
672.8220, 34.99092
673.3041, 34.93965
673.7862, 35.21227
674.2683, 35.56256
674.7504, 35.92775
675.2325, 36.25342
675.7147, 36.29034
676.1968, 35.55651
676.6789, 34.89333
677.1610, 34.74192
677.6431, 35.12867
678.1252, 35.28875
678.6074, 35.06467
679.0895, 34.90602
679.5716, 35.21947
680.0537, 36.00731
680.5358, 36.28728
681.0179, 35.99511
681.5001, 35.55008
681.9822, 35.30073
682.4643, 35.21340
682.9464, 35.25031
683.4285, 35.43332
683.9106, 35.61731
684.3928, 35.63975
684.8749, 35.62896
685.3570, 35.74029
685.8391, 36.18061
686.3212, 36.54042
686.8033, 36.69540
687.2855, 36.75496
687.7676, 36.89870
688.2497, 37.18874
688.7318, 37.40139
689.2139, 37.45414
689.6960, 37.43502
690.1782, 37.59758
690.6603, 37.93342
691.1424, 38.27659
691.6245, 38.60478
692.1066, 38.86437
692.5887, 38.87080
693.0709, 38.69929
693.5530, 38.67978
694.0351, 39.07776
694.5172, 39.61640
694.9993, 40.12275
695.4814, 40.58226
695.9636, 41.13272
696.4457, 41.98830
696.9278, 42.74603
697.4099, 43.14823
697.8920, 43.08726
698.3741, 43.44688
698.8563, 44.33592
699.3384, 45.31020
699.8205, 45.95647
700.3026, 46.33679
700.7847, 46.78618
701.2668, 47.35280
701.7490, 47.88492
702.2311, 48.17364
702.7132, 48.36045
703.1953, 48.67249
703.6774, 49.32093
704.1595, 49.77459
704.6417, 49.65591
705.1238, 49.28807
705.6059, 49.13093
706.0880, 49.46005
706.5701, 49.57273
707.0522, 49.30344
707.5344, 48.85481
708.0165, 48.67374
708.4986, 48.77961
708.9807, 48.85936
709.4628, 48.83374
709.9449, 48.71250
710.4271, 48.48442
710.9092, 48.17051
711.3913, 47.83969
711.8734, 47.60944
712.3555, 47.31071
712.8376, 46.80886
713.3198, 46.12306
713.8019, 45.37439
714.2840, 44.26017
714.7661, 43.42716
715.2482, 43.21758
715.7303, 43.60324
716.2125, 43.72758
716.6946, 43.48645
717.1767, 43.27167
717.6588, 43.33125
718.1409, 43.63067
718.6230, 43.90993
719.1052, 44.17211
719.5873, 44.42553
720.0694, 44.62038
720.5515, 44.84321
721.0336, 45.25628
721.5157, 45.90370
721.9979, 46.47740
722.4800, 46.81973
722.9621, 47.04320
723.4442, 47.22461
723.9263, 47.29979
724.4084, 47.49046
724.8906, 47.79656
725.3727, 48.22135
725.8548, 48.82904
726.3369, 49.64836
726.8190, 50.24638
727.3011, 50.51564
727.7833, 50.73683
728.2654, 51.36427
728.7475, 52.21509
729.2296, 52.83230
729.7117, 52.98208
730.1938, 53.08769
730.6760, 53.52500
731.1581, 54.07692
731.6402, 54.41608
732.1223, 54.21548
732.6044, 54.10916
733.0865, 54.27023
733.5687, 54.54956
734.0508, 54.61205
734.5329, 54.39563
735.0150, 54.22432
735.4971, 54.19121
735.9792, 54.24446
736.4614, 54.31499
736.9435, 54.38336
737.4256, 54.34887
737.9077, 54.02810
738.3898, 53.68435
738.8719, 53.69900
739.3541, 53.92579
739.8362, 53.84834
740.3183, 52.92455
740.8004, 52.01797
741.2825, 51.51283
741.7646, 51.35200
742.2468, 51.07141
742.7289, 50.63822
743.2110, 50.16853
743.6931, 49.69281
744.1752, 49.22319
744.6573, 48.86165
745.1395, 48.60700
745.6216, 48.31117
746.1037, 47.72913
746.5858, 47.12917
747.0679, 46.83745
747.5500, 46.86635
748.0322, 47.09842
748.5143, 47.75588
748.9964, 48.38182
749.4785, 48.68480
749.9606, 48.59001
750.4427, 48.47108
750.9249, 48.32714
751.4070, 48.15734
751.8891, 47.93032
752.3712, 47.64716
752.8533, 47.58312
753.3354, 47.78625
753.8176, 47.80848
754.2997, 47.07151
754.7818, 45.93995
755.2639, 44.92049
755.7460, 44.08601
756.2281, 43.46057
756.7103, 43.30050
757.1924, 43.21920
757.6745, 42.86453
758.1566, 41.91174
758.6387, 41.27224
759.1208, 41.12806
759.6030, 41.06799
760.0851, 40.54390
760.5672, 39.52148
761.0493, 39.06281
761.5314, 39.37850
762.0135, 39.87308
762.4957, 39.81725
762.9778, 39.43124
763.4599, 39.12295
763.9420, 39.00610
764.4241, 38.96333
764.9063, 39.03024
765.3884, 39.09454
765.8705, 39.01610
766.3526, 38.60561
766.8347, 38.30290
767.3168, 38.16326
767.7990, 38.10309
768.2811, 37.96127
768.7632, 37.72622
769.2453, 37.68805
769.7274, 37.97125
770.2095, 38.30600
770.6917, 38.25837
771.1738, 37.97300
771.6559, 37.77684
772.1380, 37.91746
772.6201, 37.99067
773.1022, 37.63402
773.5844, 37.09579
774.0665, 36.82461
774.5486, 37.09770
775.0307, 37.31844
775.5128, 37.41127
775.9949, 37.41315
776.4771, 37.39447
776.9592, 37.35470
777.4413, 37.31403
777.9234, 37.27723
778.4055, 37.24450
778.8876, 37.22231
779.3698, 37.20469
779.8519, 37.17596
780.3340, 37.10763
780.8161, 37.04914
781.2982, 37.04417
781.7803, 37.06617
782.2625, 37.04012
782.7446, 36.92707
783.2267, 36.82154
783.7088, 36.73230
784.1909, 36.66769
784.6730, 36.66788
785.1552, 36.73191
785.6373, 36.76694
786.1194, 36.69837
786.6015, 36.62376
787.0836, 36.75602
787.5657, 37.00667
788.0479, 37.12872
788.5300, 36.81156
789.0121, 36.53865
789.4942, 36.57417
789.9763, 36.83966
790.4584, 37.00820
790.9406, 37.05087
791.4227, 37.03442
791.9048, 36.95928
792.3869, 36.84653
792.8690, 36.76074
793.3511, 36.70066
793.8333, 36.65792
794.3154, 36.64921
794.7975, 36.63841
795.2796, 36.51189
795.7617, 36.33566
796.2438, 36.32494
796.7260, 36.84645
797.2081, 37.25880
797.6902, 37.21089
798.1723, 36.83346
798.6544, 36.64459
799.1365, 36.71728
799.6187, 36.78535
800.1008, 36.74468
800.5829, 36.64938
801.0650, 36.68790
801.5471, 36.83727
802.0292, 36.60036
802.5114, 37.02567
802.9935, 37.27261
803.4756, 37.35077
803.9577, 36.75463
804.4398, 37.02921
804.9219, 36.95485
805.4041, 36.86618
805.8862, 37.26330
806.3683, 36.76524
806.8504, 37.15466
807.3325, 37.18982
807.8146, 37.38711
808.2968, 37.23331
808.7789, 37.18795
809.2610, 37.49379
809.7431, 37.07227
810.2252, 36.94904
810.7073, 37.03522
811.1895, 37.10810
811.6716, 36.94816
812.1537, 36.64353
812.6358, 36.52727
813.1179, 36.82593
813.6000, 37.07345
814.0822, 37.14936
814.5643, 37.10473
815.0464, 37.12444
815.5285, 37.20958
816.0106, 37.29452
816.4927, 37.37666
816.9749, 37.41822
817.4570, 37.28095
817.9391, 37.04822
818.4212, 36.95658
818.9033, 37.34708
819.3854, 37.65646
819.8676, 37.56188
820.3497, 37.19109
820.8318, 36.98289
821.3139, 36.94144
821.7960, 37.07209
822.2781, 37.44122
822.7603, 37.92168
823.2424, 38.24075
823.7245, 38.40625
824.2066, 38.45864
824.6887, 38.36379
825.1708, 38.22862
825.6530, 38.15519
826.1351, 38.11525
826.6172, 38.04832
827.0993, 37.79667
827.5814, 37.69944
828.0635, 37.96581
828.5457, 38.35881
829.0278, 38.29687
829.5099, 37.67213
829.9920, 37.35857
830.4741, 37.66999
830.9562, 38.19496
831.4384, 38.25090
831.9205, 37.98920
832.4026, 37.79411
832.8847, 37.78450
833.3668, 37.90182
833.8489, 38.17546
834.3311, 38.54028
834.8132, 38.89739
835.2953, 39.35623
835.7774, 39.57041
836.2595, 39.42918
836.7416, 39.12279
837.2238, 38.89641
837.7059, 38.75990
838.1880, 38.87104
838.6701, 39.35064
839.1522, 39.81520
839.6343, 39.81054
840.1165, 39.56348
840.5986, 39.39575
841.0807, 39.43866
841.5628, 39.49500
842.0449, 39.51802
842.5270, 39.54284
843.0092, 39.60337
843.4913, 39.70140
843.9734, 39.85095
844.4555, 40.08232
844.9376, 40.25664
845.4197, 40.12529
845.9019, 39.82991
846.3840, 39.69326
846.8661, 39.81781
847.3482, 39.89853
847.8303, 39.66319
848.3124, 39.36663
848.7946, 39.26497
849.2767, 39.53236
849.7588, 39.55388
850.2409, 39.21788
850.7230, 38.84678
851.2051, 38.72967
851.6873, 38.83609
852.1694, 39.00155
852.6515, 38.92023
853.1336, 39.28752
853.6157, 39.47718
854.0978, 39.49880
854.5800, 38.84685
855.0621, 39.06636
855.5442, 38.93766
856.0263, 38.79538
856.5084, 39.13964
856.9905, 38.58946
857.4727, 38.92747
857.9548, 38.91197
858.4369, 39.05934
858.9190, 38.85635
859.4011, 38.76253
859.8832, 39.02066
860.3654, 39.08505
860.8475, 38.84459
861.3296, 39.00668
861.8117, 38.45158
862.2938, 38.52719
862.7759, 38.87537
863.2581, 38.65622
863.7402, 38.82841
864.2223, 38.85257
864.7044, 38.20143
865.1865, 38.72672
865.6686, 38.74429
866.1508, 38.24054
866.6329, 38.72775
867.1150, 38.29744
867.5971, 38.19562
868.0792, 38.34121
868.5613, 38.23039
869.0435, 38.52571
869.5256, 38.43121
870.0077, 38.30255
870.4898, 38.32691
870.9719, 37.92049
871.4540, 38.31535
871.9362, 38.16410
872.4183, 38.28542
872.9004, 38.46908
873.3825, 38.18171
873.8646, 37.52075
874.3467, 37.23943
874.8289, 37.22747
875.3110, 37.35680
875.7931, 37.89989
876.2752, 38.14423
876.7573, 37.87464
877.2394, 37.44234
877.7216, 37.25191
878.2037, 37.31413
878.6858, 37.51723
879.1679, 37.90409
879.6500, 38.14979
880.1321, 37.68264
880.6143, 36.93775
881.0964, 36.59953
881.5785, 36.89293
882.0606, 37.12280
882.5427, 36.91224
883.0248, 36.65969
883.5070, 36.67293
883.9891, 37.03278
884.4712, 37.12270
884.9533, 36.88968
885.4354, 36.65254
885.9175, 36.76508
886.3997, 37.02089
886.8818, 36.94230
887.3639, 36.53839
887.8460, 36.17525
888.3281, 36.03357
888.8102, 36.00769
889.2924, 36.08696
889.7745, 36.25650
890.2566, 36.34140
890.7387, 36.30894
891.2208, 36.29254
891.7029, 36.37064
892.1851, 36.48805
892.6672, 36.50932
893.1493, 36.44213
893.6314, 36.32038
894.1135, 36.14035
894.5956, 35.93071
895.0778, 35.60111
895.5599, 35.26028
896.0420, 35.20446
896.5241, 35.55690
897.0062, 35.96991
897.4883, 36.45595
897.9705, 36.87600
898.4526, 36.87859
898.9347, 36.55829
899.4168, 36.36690
899.8989, 36.45545
900.3810, 36.57956
900.8632, 36.53335
901.3453, 36.41847
901.8274, 36.35672
902.3095, 36.47357
902.7916, 36.43676
903.2737, 36.15185
903.7559, 35.84875
904.2380, 35.75936
904.7201, 35.85720
905.2022, 35.88561
905.6843, 35.82718
906.1664, 35.78404
906.6486, 35.86256
907.1307, 35.97895
907.6128, 36.04764
908.0949, 36.05592
908.5770, 36.11515
909.0591, 36.34416
909.5413, 36.47282
910.0234, 36.30606
910.5055, 35.93707
910.9876, 36.04909
911.4697, 36.61148
911.9518, 37.04188
912.4340, 36.92145
912.9161, 36.58631
913.3982, 36.27683
913.8803, 36.02555
914.3624, 35.92479
914.8445, 36.20481
915.3267, 36.37112
915.8088, 36.29155
916.2909, 36.08799
916.7730, 35.97619
917.2551, 35.95680
917.7372, 36.08261
918.2194, 36.41182
918.7015, 36.73928
919.1836, 36.83564
919.6657, 36.79297
920.1478, 36.73064
920.6299, 36.65368
921.1121, 36.61331
921.5942, 36.66602
922.0763, 36.70240
922.5584, 36.60326
923.0405, 36.36003
923.5226, 36.25445
924.0048, 36.29848
924.4869, 36.41493
924.9690, 36.64387
925.4511, 36.84716
925.9332, 36.79809
926.4153, 36.50299
926.8975, 36.34286
927.3796, 36.50431
927.8617, 36.74360
928.3438, 37.06685
928.8259, 37.40128
929.3080, 37.27992
929.7902, 36.71260
930.2723, 36.26575
930.7544, 36.25636
931.2365, 36.41776
931.7186, 36.49481
932.2007, 36.50424
932.6829, 36.48027
933.1650, 36.28467
933.6471, 36.26778
934.1292, 36.54988
934.6113, 36.95200
935.0934, 37.25372
935.5756, 37.45691
936.0577, 37.47498
936.5398, 37.27587
937.0219, 37.03005
937.5040, 36.87433
937.9861, 36.78468
938.4683, 36.72935
938.9504, 36.69330
939.4325, 36.75529
939.9146, 37.07858
940.3967, 37.30307
940.8788, 37.19154
941.3610, 36.77846
941.8431, 36.48328
942.3252, 36.30475
942.8073, 36.27554
943.2894, 36.55421
943.7715, 36.87785
944.2537, 36.97837
944.7358, 36.91231
945.2179, 36.90747
945.7000, 37.09115
946.1821, 37.23568
946.6642, 37.31380
947.1464, 37.32356
947.6285, 37.24427
948.1106, 37.08561
948.5927, 36.89970
949.0748, 36.66284
949.5569, 36.52380
950.0391, 36.69576
950.5212, 36.99922
951.0033, 37.23362
951.4854, 37.36992
951.9675, 37.39669
952.4496, 37.22509
952.9318, 37.10130
953.4139, 37.29584
953.8960, 37.72702
954.3781, 37.89242
954.8602, 37.79387
955.3423, 37.64748
955.8245, 37.47640
956.3066, 37.41390
956.7887, 37.62698
957.2708, 38.07420
957.7529, 38.38347
958.2350, 38.48862
958.7172, 38.60030
959.1993, 38.81745
959.6814, 39.02196
960.1635, 38.87362
960.6456, 38.48843
961.1277, 38.24639
961.6099, 38.33462
962.0920, 38.46481
962.5741, 38.44635
963.0562, 38.39831
963.5383, 38.45992
964.0204, 38.67358
964.5026, 38.89342
964.9847, 39.13128
965.4668, 39.32392
965.9489, 39.38981
966.4310, 39.37390
966.9131, 39.38378
967.3953, 39.42038
967.8774, 39.40654
968.3595, 39.16329
968.8416, 39.00457
969.3237, 39.16331
969.8058, 39.54116
970.2880, 39.63832
970.7701, 39.40233
971.2522, 39.34782
971.7343, 39.70898
972.2164, 40.23344
972.6985, 40.60006
973.1807, 40.85838
973.6628, 41.10570
974.1449, 41.45017
974.6270, 41.66059
975.1091, 41.64576
975.5912, 41.52959
976.0734, 41.39501
976.5555, 41.24052
977.0376, 41.19375
977.5197, 41.26738
978.0018, 41.33702
978.4839, 41.23167
978.9661, 41.12169
979.4482, 41.20991
979.9303, 41.49551
980.4124, 41.72863
980.8945, 41.87984
981.3766, 41.95424
981.8588, 41.88890
982.3409, 41.79694
982.8230, 42.10682
983.3051, 42.71990
983.7872, 43.10868
984.2693, 43.01066
984.7515, 42.77806
985.2336, 42.57809
985.7157, 42.42342
986.1978, 42.33832
986.6799, 42.36037
987.1620, 42.35381
987.6442, 42.30595
988.1263, 42.26400
988.6084, 42.26269
989.0905, 42.30206
989.5726, 42.49140
990.0547, 42.79478
990.5369, 42.79232
991.0190, 41.68819
991.5011, 40.82047
991.9832, 41.14262
992.4653, 42.20929
992.9474, 42.35415
993.4296, 41.44658
993.9117, 40.87574
994.3938, 41.16856
994.8759, 41.71681
995.3580, 41.79039
995.8401, 41.53090
996.3223, 41.13744
996.8044, 40.48169
997.2865, 40.10887
997.7686, 40.30626
998.2507, 40.53778
998.7328, 40.31160
999.2150, 39.66441
999.6971, 39.42002
1000.179, 39.58136
1000.661, 39.90162
1001.143, 40.44448
1001.626, 40.87896
1002.108, 40.81910
1002.590, 40.38878
1003.072, 40.26546
1003.554, 40.69168
1004.036, 40.92521
1004.518, 40.78668
1005.000, 40.43972
1005.482, 40.02480
1005.965, 39.63665
1006.447, 39.60614
1006.929, 40.13111
1007.411, 40.51653
1007.893, 40.23393
1008.375, 39.83397
1008.857, 39.73906
1009.339, 39.97624
1009.822, 40.15696
1010.304, 40.28145
1010.786, 40.34321
1011.268, 40.28197
1011.750, 40.19271
1012.232, 40.21871
1012.714, 40.31883
1013.196, 40.37325
1013.678, 40.23673
1014.161, 40.21204
1014.643, 40.40507
1015.125, 40.64970
1015.607, 40.67836
1016.089, 40.52865
1016.571, 40.44048
1017.053, 40.45464
1017.535, 40.46623
1018.018, 40.39870
1018.500, 40.29432
1018.982, 40.17791
1019.464, 40.05166
1019.946, 39.92055
1020.428, 39.75100
1020.910, 39.71815
1021.392, 39.99548
1021.874, 40.34764
1022.357, 40.24519
1022.839, 39.85801
1023.321, 39.58552
1023.803, 39.69785
1024.285, 39.76061
1024.767, 39.58783
1025.249, 39.38884
1025.731, 39.41467
1026.214, 39.66985
1026.696, 39.59882
1027.178, 39.16297
1027.660, 38.86920
1028.142, 39.33379
1028.624, 39.93709
1029.106, 40.12443
1029.588, 39.91394
1030.070, 39.71732
1030.553, 39.54451
1031.035, 39.42628
1031.517, 39.35112
1031.999, 39.36623
1032.481, 39.69884
1032.963, 40.17567
1033.445, 40.29370
1033.927, 39.79004
1034.410, 39.45077
1034.892, 39.78256
1035.374, 40.27925
1035.856, 40.60347
1036.338, 40.75428
1036.820, 40.84908
1037.302, 40.88621
1037.784, 40.88433
1038.266, 40.68113
1038.749, 40.58834
1039.231, 41.14099
1039.713, 42.03503
1040.195, 42.50922
1040.677, 42.04511
1041.159, 41.84614
1041.641, 42.06367
1042.123, 42.46920
1042.605, 42.79247
1043.088, 43.07773
1043.570, 43.41878
1044.052, 43.82603
1044.534, 44.37128
1045.016, 45.37863
1045.498, 46.23778
1045.980, 46.51099
1046.462, 46.37082
1046.945, 46.64921
1047.427, 47.36563
1047.909, 47.99550
1048.391, 48.31060
1048.873, 48.58982
1049.355, 49.07654
1049.837, 49.73916
1050.319, 50.55886
1050.802, 51.67472
1051.284, 52.56686
1051.766, 53.06095
1052.248, 53.68676
1052.730, 54.94587
1053.212, 56.60548
1053.694, 57.92102
1054.176, 58.95363
1054.658, 60.00053
1055.141, 61.17036
1055.623, 62.42249
1056.105, 63.67123
1056.587, 65.04556
1057.069, 66.74890
1057.551, 68.78349
1058.033, 71.18844
1058.515, 74.04516
1058.997, 76.65825
1059.480, 78.08842
1059.962, 79.24089
1060.444, 81.05015
1060.926, 83.58672
1061.408, 85.84017
1061.890, 87.81740
1062.372, 89.35367
1062.854, 90.15898
1063.337, 90.82605
1063.819, 92.61050
1064.301, 95.09346
1064.783, 97.30347
1065.265, 98.72249
1065.747, 100.4469
1066.229, 102.8555
1066.711, 105.6671
1067.193, 108.7472
1067.676, 112.0794
1068.158, 115.9725
1068.640, 120.4050
1069.122, 124.7969
1069.604, 128.9955
1070.086, 132.8906
1070.568, 136.9652
1071.050, 140.6151
1071.532, 142.6767
1072.015, 143.2415
1072.497, 142.0233
1072.979, 138.9978
1073.461, 134.1153
1073.943, 126.6608
1074.425, 117.7029
1074.907, 108.2225
1075.389, 98.45894
1075.872, 89.45386
1076.354, 81.36031
1076.836, 74.37347
1077.318, 68.70262
1077.800, 64.14210
1078.282, 60.09853
1078.764, 56.60673
1079.246, 53.78598
1079.729, 51.73528
1080.211, 50.00395
1080.693, 48.37696
1081.175, 46.95452
1081.657, 45.84229
1082.139, 45.03429
1082.621, 44.24467
1083.103, 43.46438
1083.585, 42.89567
1084.068, 42.90107
1084.550, 42.89334
1085.032, 42.08276
1085.514, 40.91824
1085.996, 40.25709
1086.478, 40.51833
1086.960, 40.55859
1087.442, 40.31801
1087.924, 39.93187
1088.406, 39.48632
1088.889, 39.00163
1089.371, 38.40308
1089.853, 37.74843
1090.335, 37.39840
1090.817, 37.89614
1091.299, 38.17855
1091.781, 37.91911
1092.263, 37.40191
1092.746, 37.15082
1093.228, 37.11094
1093.710, 36.98835
1094.192, 36.71008
1094.674, 36.57430
1095.156, 37.00431
1095.638, 37.43658
1096.120, 37.44716
1096.603, 37.10052
1097.085, 36.84327
1097.567, 36.67514
1098.049, 36.61023
1098.531, 36.70368
1099.013, 36.79615
1099.495, 36.69064
1099.977, 36.49825
1100.459, 36.35873
1100.942, 36.30344
1101.424, 36.27461
1101.906, 36.27180
1102.388, 36.29884
1102.870, 36.43917
1103.352, 36.56733
1103.834, 36.36055
1104.316, 35.93538
1104.798, 35.62529
1105.281, 35.63815
1105.763, 35.64479
1106.245, 35.58918
1106.727, 35.52890
1107.209, 35.58167
1107.691, 35.69014
1108.173, 35.53457
1108.655, 35.12295
1109.138, 34.83847
1109.620, 34.96807
1110.102, 35.20225
1110.584, 35.52490
1111.066, 35.79530
1111.548, 35.59999
1112.030, 34.95197
1112.512, 34.68682
1112.995, 34.99963
1113.477, 35.38634
1113.959, 35.46848
1114.441, 35.38593
1114.923, 35.20098
1115.405, 34.93060
1115.887, 34.81734
1116.369, 34.90299
1116.851, 34.88533
1117.333, 34.59446
1117.816, 34.28339
1118.298, 34.30739
1118.780, 34.52248
1119.262, 34.73820
1119.744, 34.95675
1120.226, 35.02363
1120.708, 34.87620
1121.190, 34.72887
1121.673, 34.74305
1122.155, 34.82557
1122.637, 34.74432
1123.119, 34.54235
1123.601, 34.33830
1124.083, 34.07642
1124.565, 33.97322
1125.047, 34.14179
1125.530, 34.35766
1126.012, 34.37212
1126.494, 34.24218
1126.976, 34.34094
1127.458, 34.64323
1127.940, 34.84089
1128.422, 34.63619
1128.904, 34.42562
1129.386, 34.41372
1129.869, 34.48596
1130.351, 34.43534
1130.833, 34.26643
1131.315, 34.31487
1131.797, 34.63734
1132.279, 34.85600
1132.761, 34.48317
1133.243, 34.06116
1133.725, 34.02207
1134.208, 34.30306
1134.690, 34.52642
1135.172, 34.69265
1135.654, 34.79680
1136.136, 34.83342
1136.618, 34.82899
1137.100, 34.80906
1137.582, 34.76752
1138.065, 34.69580
1138.547, 34.59028
1139.029, 34.46288
1139.511, 34.29858
1139.993, 34.15429
1140.475, 34.01899
1140.957, 33.96872
1141.439, 34.21666
1141.922, 34.60573
1142.404, 34.87384
1142.886, 34.94004
1143.368, 34.88995
1143.850, 34.64928
1144.332, 34.48674
1144.814, 34.65731
1145.296, 34.98045
1145.778, 34.92790
1146.260, 34.62540
1146.743, 34.43904
1147.225, 34.72219
1147.707, 34.82359
1148.189, 34.45698
1148.671, 34.14564
1149.153, 34.50994
1149.635, 35.34865
1150.117, 35.67615
1150.600, 35.51472
1151.082, 35.20776
1151.564, 34.79733
1152.046, 34.43509
1152.528, 34.07608
1153.010, 33.87385
1153.492, 34.14184
1153.974, 34.82573
1154.457, 35.35006
1154.939, 35.65792
1155.421, 35.78795
1155.903, 35.67450
1156.385, 35.47991
1156.867, 35.21668
1157.349, 34.96473
1157.831, 34.92184
1158.313, 35.09075
1158.796, 35.33434
1159.278, 35.65129
1159.760, 35.86250
1160.242, 35.71138
1160.724, 35.47744
1161.206, 35.38436
1161.688, 35.42464
1162.170, 35.45845
1162.652, 35.47851
1163.135, 35.58138
1163.617, 35.81547
1164.099, 36.07019
1164.581, 36.28099
1165.063, 36.42151
1165.545, 36.43621
1166.027, 36.30560
1166.509, 36.25445
1166.992, 36.30518
1167.474, 36.29792
1167.956, 36.12261
1168.438, 35.93923
1168.920, 36.00996
1169.402, 36.18212
1169.884, 36.22466
1170.366, 36.02459
1170.849, 35.93410
1171.331, 35.97773
1171.813, 36.04845
1172.295, 36.11159
1172.777, 36.14145
1173.259, 36.06050
1173.741, 35.92269
1174.223, 35.83525
1174.705, 35.81878
1175.188, 35.89613
1175.670, 36.12870
1176.152, 36.29406
1176.634, 36.13558
1177.116, 35.83848
1177.598, 35.80816
1178.080, 35.95582
1178.562, 36.00376
1179.044, 35.66216
1179.527, 35.54326
1180.009, 35.78069
1180.491, 36.06462
1180.973, 36.11940
1181.455, 35.99121
1181.937, 35.65796
1182.419, 35.20543
1182.901, 35.01949
1183.384, 35.69941
1183.866, 35.99347
1184.348, 35.57113
1184.830, 34.93561
1185.312, 34.67974
1185.794, 34.72018
1186.276, 34.89431
1186.758, 35.17275
1187.240, 35.39865
1187.723, 35.59147
1188.205, 35.57815
1188.687, 35.25041
1189.169, 34.79802
1189.651, 34.44464
1190.133, 34.23188
1190.615, 34.43010
1191.097, 35.07466
1191.579, 35.43970
1192.062, 34.79731
1192.544, 34.34163
1193.026, 34.57102
1193.508, 35.10754
1193.990, 35.05213
1194.472, 34.58995
1194.954, 34.41808
1195.436, 34.70293
1195.919, 34.89182
1196.401, 34.62527
1196.883, 34.32802
1197.365, 34.15613
1197.847, 34.09275
1198.329, 34.14916
1198.811, 34.27706
1199.293, 34.24932
1199.776, 33.94456
1200.258, 33.78803
1200.740, 34.24251
1201.222, 34.60082
1201.704, 34.44498
1202.186, 33.94134
1202.668, 33.78727
1203.150, 33.89064
1203.632, 33.84826
1204.115, 33.42514
1204.597, 33.15744
1205.079, 33.48436
1205.561, 33.85461
1206.043, 33.94107
1206.525, 33.80217
1207.007, 33.68104
1207.489, 33.59190
1207.971, 33.60830
1208.454, 33.85645
1208.936, 34.01713
1209.418, 33.85442
1209.900, 33.64545
1210.382, 33.54481
1210.864, 33.55227
1211.346, 33.79663
1211.828, 34.19009
1212.311, 34.28166
1212.793, 33.54758
1213.275, 32.97355
1213.757, 33.12194
1214.239, 33.36979
1214.721, 33.17411
1215.203, 32.63773
1215.685, 32.69181
1216.167, 33.20510
1216.650, 33.47797
1217.132, 32.75557
1217.614, 32.28190
1218.096, 32.70703
1218.578, 33.25515
1219.060, 33.17616
1219.542, 32.58779
1220.024, 32.29364
1220.506, 32.26932
1220.989, 32.28706
1221.471, 32.17855
1221.953, 32.18013
1222.435, 32.44777
1222.917, 32.74327
1223.399, 32.81146
1223.881, 32.69208
1224.363, 32.55260
1224.846, 32.40794
1225.328, 32.30957
1225.810, 32.22757
1226.292, 32.28867
1226.774, 32.61023
1227.256, 32.95136
1227.738, 33.01010
1228.220, 32.84993
1228.703, 32.65783
1229.185, 32.46014
1229.667, 32.35146
1230.149, 32.47678
1230.631, 32.56031
1231.113, 32.54457
1231.595, 32.45972
1232.077, 32.24721
1232.559, 32.01556
1233.042, 32.19653
1233.524, 32.74314
1234.006, 33.05206
1234.488, 32.63300
1234.970, 32.27090
1235.452, 32.10935
1235.934, 32.07576
1236.416, 32.13421
1236.898, 32.22971
1237.381, 32.19022
1237.863, 32.02915
1238.345, 32.00504
1238.827, 32.41949
1239.309, 32.63133
1239.791, 32.48481
1240.273, 32.21140
1240.755, 32.11813
1241.238, 32.11987
1241.720, 32.05811
1242.202, 31.92443
1242.684, 31.79647
1243.166, 31.58298
1243.648, 31.62011
1244.130, 32.03968
1244.612, 32.54561
1245.094, 32.81618
1245.577, 32.88841
1246.059, 32.76794
1246.541, 32.47122
1247.023, 32.21073
1247.505, 31.98097
1247.987, 31.85965
1248.469, 31.87773
1248.951, 31.95524
1249.433, 31.96218
1249.916, 31.99071
1250.398, 32.19751
1250.880, 32.57514
1251.362, 32.83580
1251.844, 32.98978
1252.326, 32.91087
1252.808, 32.51580
1253.290, 32.11521
1253.773, 31.99323
1254.255, 32.07017
1254.737, 32.41072
1255.219, 32.93531
1255.701, 32.95963
1256.183, 32.40942
1256.665, 31.99882
1257.147, 31.89034
1257.630, 31.95841
1258.112, 32.31572
1258.594, 32.61120
1259.076, 32.40377
1259.558, 31.85603
1260.040, 31.72116
1260.522, 31.99403
1261.004, 32.16274
1261.486, 32.10241
1261.969, 32.01298
1262.451, 32.02193
1262.933, 32.07896
1263.415, 32.16912
1263.897, 32.27291
1264.379, 32.34462
1264.861, 32.37837
1265.343, 32.29760
1265.825, 32.06541
1266.308, 31.89280
1266.790, 32.00243
1267.272, 32.08867
1267.754, 31.97651
1268.236, 31.76279
1268.718, 31.72022
1269.200, 31.79628
1269.682, 31.76597
1270.165, 31.56194
1270.647, 31.49794
1271.129, 31.97302
1271.611, 32.24834
1272.093, 31.99736
1272.575, 31.53602
1273.057, 31.49356
1273.539, 31.73396
1274.021, 31.97984
1274.504, 32.19108
1274.986, 32.34002
1275.468, 32.47437
1275.950, 32.43339
1276.432, 32.10833
1276.914, 31.71571
1277.396, 31.53503
1277.878, 31.53550
1278.360, 31.71442
1278.843, 32.07933
1279.325, 32.37060
1279.807, 32.59314
1280.289, 32.65066
1280.771, 32.47213
1281.253, 32.26583
1281.735, 32.28345
1282.217, 32.40736
1282.700, 32.56877
1283.182, 32.73750
1283.664, 32.60228
1284.146, 32.11918
1284.628, 31.85144
1285.110, 31.96147
1285.592, 32.19587
1286.074, 32.44595
1286.557, 32.62363
1287.039, 32.66836
1287.521, 32.58356
1288.003, 32.25571
1288.485, 31.72708
1288.967, 31.55069
1289.449, 31.88566
1289.931, 32.24311
1290.413, 32.38770
1290.896, 32.38716
1291.378, 32.24102
1291.860, 32.02530
1292.342, 31.92217
1292.824, 31.91451
1293.306, 31.96047
1293.788, 32.05893
1294.270, 32.10540
1294.752, 32.05296
1295.235, 31.92511
1295.717, 31.67094
1296.199, 31.44198
1296.681, 31.59595
1297.163, 31.92559
1297.645, 32.04487
1298.127, 31.90465
1298.609, 31.75227
1299.092, 31.56462
1299.574, 31.52992
1300.056, 31.72290
1300.538, 31.97772
1301.020, 32.10086
1301.502, 32.17117
1301.984, 32.31391
1302.466, 32.50865
1302.948, 32.51429
1303.431, 32.30467
1303.913, 32.09470
1304.395, 31.92326
1304.877, 31.77262
##END=



